Time,GPS_ts,fGPS_ts,scaledAccelX,scaledAccelY,scaledAccelZ,deltaVelX,deltaVelY,deltaVelZ,estLinearAccelX,estLinearAccelY,estLinearAccelZ,estLinearAccel:valid,estAngularRateX,estAngularRateY,estAngularRateZ,estAngularRate:valid,estGravityX,estGravityY,estGravityZ,estGravity:valid,flag
1778259280232,   302.587,   302.587,-0.024577, 0.065425,-0.994096,-0.000246, 0.000653,-0.009939, 0.027547, 0.000389, 0.033226,1,-0.025798, 0.001426,-0.000003,1, 0.268522,-0.642018, 9.781927,1,0
1778259280232,   302.612,   302.607,-0.024069, 0.067244,-0.993800,-0.000240, 0.000672,-0.009938, 0.033348, 0.008331, 0.034960,1,-0.025236, 0.000991,-0.000168,1, 0.268334,-0.647075, 9.781599,1,0
1778259280232,   302.632,   302.632,-0.024292, 0.066384,-0.993910,-0.000242, 0.000662,-0.009937, 0.029784,-0.002474, 0.034251,1,-0.023703, 0.001068, 0.001015,1, 0.267973,-0.654219, 9.781134,1,0
1778259280232,   302.657,   302.657,-0.025413, 0.066197,-0.993159,-0.000253, 0.000662,-0.009931, 0.018571,-0.008844, 0.041318,1,-0.022780, 0.001399, 0.001168,1, 0.267740,-0.658730, 9.780837,1,0
1778259280232,   302.682,   302.677,-0.027122, 0.068129,-0.993589,-0.000272, 0.000678,-0.009936, 0.005626,-0.015399, 0.037518,1,-0.022010, 0.000860, 0.001799,1, 0.267470,-0.663106, 9.780549,1,0
1778259280232,   302.707,   302.707,-0.026198, 0.070647,-0.992231,-0.000262, 0.000704,-0.009923, 0.010222, 0.024256, 0.049724,1,-0.019914, 0.000446, 0.001552,1, 0.267123,-0.669174, 9.780145,1,0
1778259280232,   302.732,   302.727,-0.025981, 0.070326,-0.994565,-0.000258, 0.000702,-0.009945, 0.014891, 0.020508, 0.031404,1,-0.020844, 0.000511, 0.001100,1, 0.267018,-0.673319, 9.779863,1,0
1778259280232,   302.757,   302.752,-0.026863, 0.068966,-0.992687,-0.000268, 0.000693,-0.009930, 0.002450,-0.002723, 0.044559,1,-0.020925, 0.001591, 0.000235,1, 0.265807,-0.679713, 9.779454,1,0
1778259280232,   302.782,   302.777,-0.027309, 0.070170,-0.992470,-0.000272, 0.000699,-0.009922,-0.002931,-0.003814, 0.052457,1,-0.020675, 0.001128,-0.000359,1, 0.265620,-0.683783, 9.779176,1,0
1778259280232,   302.802,   302.797,-0.026315, 0.071168,-0.994149,-0.000262, 0.000711,-0.009944,-0.002150, 0.010100, 0.027651,1,-0.021223,-0.000476,-0.000618,1, 0.265602,-0.687827, 9.778893,1,0
1778259280232,   302.822,   302.817,-0.025421, 0.071004,-0.992864,-0.000252, 0.000709,-0.009932, 0.015603, 0.009476, 0.039087,1,-0.022220, 0.000353,-0.001101,1, 0.265575,-0.692191, 9.778585,1,0
1778259280244,   336.897,   336.897,-0.031725,-0.000774,-0.995419,-0.000316,-0.000011,-0.009955,-0.003037,-0.008566, 0.040087,1,-0.020703, 0.000867, 0.001852,1, 0.308047,-0.001628, 9.801810,1,0
1778259280265,   336.922,   336.917,-0.031191, 0.000939,-0.995604,-0.000312, 0.000008,-0.009954,-0.000991, 0.001431, 0.036457,1,-0.022472, 0.001519, 0.000986,1, 0.307801,-0.005925, 9.801817,1,0
1778259280287,   336.942,   336.937,-0.029677, 0.000301,-0.994341,-0.000300, 0.000004,-0.009945, 0.009255,-0.002752, 0.048758,1,-0.022210, 0.001016, 0.000332,1, 0.307570,-0.010305, 9.801820,1,0
1778259280314,   336.967,   336.967,-0.029283, 0.002287,-0.994953,-0.000293, 0.000018,-0.009946, 0.020397, 0.006711, 0.044655,1,-0.021975, 0.001038, 0.000963,1, 0.307533,-0.016407, 9.801813,1,0
1778259280335,   336.992,   336.987,-0.029356, 0.004374,-0.997229,-0.000293, 0.000043,-0.009975, 0.022731, 0.024151, 0.022301,1,-0.021715, 0.001252, 0.000790,1, 0.307346,-0.020670, 9.801811,1,0
1778259280358,   337.012,   337.012,-0.029162, 0.003306,-0.994724,-0.000293, 0.000031,-0.009949, 0.021029, 0.006464, 0.046896,1,-0.019405, 0.000567, 0.001565,1, 0.306989,-0.026563, 9.801807,1,0
1778259280384,   337.037,   337.037,-0.029683, 0.003884,-0.994628,-0.000295, 0.000036,-0.009946, 0.015816, 0.008510, 0.047837,1,-0.018075, 0.000067, 0.000349,1, 0.306908,-0.030144, 9.801800,1,0
1778259280405,   337.062,   337.057,-0.029807, 0.005918,-0.995774,-0.000297, 0.000058,-0.009959, 0.016130, 0.012755, 0.038535,1,-0.016001, 0.001061, 0.000791,1, 0.306734,-0.033353, 9.801795,1,0
1778259280428,   337.082,   337.082,-0.029777, 0.007666,-0.995052,-0.000299, 0.000073,-0.009950, 0.014542, 0.037938, 0.043657,1,-0.013897, 0.000979, 0.000743,1, 0.306522,-0.037670, 9.801786,1,0
1778259280454,   337.107,   337.107,-0.030977, 0.006569,-0.995835,-0.000309, 0.000065,-0.009959, 0.002624, 0.024734, 0.035980,1,-0.010683, 0.000198, 0.000213,1, 0.306394,-0.040016, 9.801781,1,0
1778259280476,   337.132,   337.127,-0.032371, 0.006220,-0.994790,-0.000322, 0.000062,-0.009948,-0.007348, 0.013303, 0.033047,1,-0.007843, 0.001325, 0.000854,1, 0.306181,-0.041785, 9.801780,1,0
1778259280498,   337.152,   337.152,-0.033307, 0.007937,-0.995234,-0.000332, 0.000078,-0.009953,-0.020776, 0.034160, 0.041867,1,-0.003907, 0.000033, 0.000961,1, 0.305839,-0.043807, 9.801782,1,0
1778259280524,   337.177,   337.177,-0.033579, 0.006463,-0.996042,-0.000333, 0.000065,-0.009961,-0.023453, 0.019165, 0.033940,1,-0.001616,-0.000002, 0.001587,1, 0.305841,-0.044270, 9.801780,1,0
1778259280546,   337.202,   337.197,-0.033767, 0.006760,-0.995411,-0.000338, 0.000067,-0.009955,-0.025171, 0.016459, 0.037965,1, 0.001123,-0.000024, 0.001574,1, 0.305813,-0.044188, 9.801781,1,0
1778259280568,   337.222,   337.222,-0.033380, 0.005923,-0.995593,-0.000333, 0.000061,-0.009957,-0.021481, 0.014621, 0.038350,1, 0.003907,-0.000319, 0.001260,1, 0.305878,-0.043339, 9.801783,1,0
1778259280594,   337.247,   337.247,-0.033235, 0.004953,-0.994552,-0.000331, 0.000048,-0.009947,-0.020064, 0.006069, 0.048562,1, 0.005931,-0.000093, 0.001564,1, 0.305863,-0.042320, 9.801787,1,0
1778259280616,   337.272,   337.267,-0.031855, 0.005240,-0.995638,-0.000319, 0.000056,-0.009955,-0.014058, 0.017097, 0.045957,1, 0.006816,-0.000013, 0.001157,1, 0.305854,-0.041115, 9.801793,1,0
1778259280638,   337.292,   337.292,-0.031151, 0.004867,-0.996026,-0.000311, 0.000048,-0.009961, 0.000472, 0.008121, 0.034114,1, 0.005543,-0.000081, 0.000550,1, 0.305958,-0.039432, 9.801797,1,0
1778259280664,   337.317,   337.317,-0.030274, 0.003758,-0.994607,-0.000304, 0.000036,-0.009948, 0.009128,-0.001699, 0.048034,1, 0.005095, 0.000283, 0.001358,1, 0.306006,-0.038390, 9.801800,1,0
1778259280686,   337.342,   337.337,-0.030448, 0.003301,-0.995514,-0.000305, 0.000032,-0.009951, 0.002210,-0.008931, 0.042437,1, 0.004718, 0.000416, 0.000561,1, 0.305905,-0.037482, 9.801806,1,0
1778259280709,   337.367,   337.362,-0.029868, 0.004830,-0.995870,-0.000297, 0.000050,-0.009961, 0.013341, 0.010677, 0.035650,1, 0.003168, 0.000139, 0.000943,1, 0.306246,-0.036596, 9.801799,1,0
1778259280734,   337.387,   337.387,-0.028961, 0.002268,-0.994727,-0.000292, 0.000027,-0.009947, 0.022234,-0.013811, 0.046865,1, 0.002591,-0.000258, 0.000213,1, 0.306253,-0.035969, 9.801801,1,0
1778259280756,   337.412,   337.407,-0.029167, 0.004734,-0.995761,-0.000292, 0.000044,-0.009957, 0.019461, 0.000629, 0.046540,1, 0.001179,-0.000168, 0.000023,1, 0.306308,-0.035621, 9.801801,1,0
1778259280779,   337.437,   337.432,-0.028849, 0.003385,-0.996205,-0.000290, 0.000037,-0.009962, 0.023444,-0.002175, 0.032361,1, 0.001179,-0.000545,-0.000164,1, 0.306370,-0.035336, 9.801800,1,0
1778259280804,   337.457,   337.457,-0.028745, 0.001658,-0.994580,-0.000287, 0.000016,-0.009945, 0.024594,-0.019018, 0.048298,1, 0.000037,-0.000192, 0.000004,1, 0.306493,-0.035277, 9.801796,1,0
1778259280826,   337.482,   337.477,-0.029112, 0.002926,-0.995657,-0.000291, 0.000030,-0.009955, 0.024152,-0.001968, 0.041578,1,-0.000346,-0.000674, 0.000027,1, 0.306458,-0.035291, 9.801797,1,0
1778259280849,   337.507,   337.502,-0.029943, 0.003927,-0.995771,-0.000299, 0.000038,-0.009960, 0.012798, 0.003167, 0.036622,1, 0.000105, 0.000071,-0.000077,1, 0.306435,-0.035344, 9.801798,1,0
1778259280874,   337.527,   337.527,-0.031300, 0.002872,-0.994580,-0.000312, 0.000031,-0.009945,-0.000587,-0.007188, 0.048299,1,-0.000062,-0.000191, 0.000576,1, 0.306369,-0.035356, 9.801800,1,0
1778259280896,   337.552,   337.547,-0.032295, 0.004505,-0.995538,-0.000322, 0.000044,-0.009954,-0.006203,-0.000407, 0.043374,1, 0.000215, 0.000376, 0.000371,1, 0.306033,-0.035328, 9.801810,1,0
1778259280919,   337.577,   337.572,-0.032277, 0.003797,-0.995817,-0.000322, 0.000038,-0.009957,-0.010595, 0.001734, 0.036185,1,-0.000985, 0.000158,-0.000301,1, 0.305929,-0.035535, 9.801812,1,0
1778259280945,   337.597,   337.597,-0.031857, 0.003130,-0.994529,-0.000318, 0.000030,-0.009945,-0.006419,-0.005044, 0.048810,1,-0.001259,-0.000253,-0.000405,1, 0.305997,-0.035779, 9.801809,1,0
1778259280966,   337.622,   337.617,-0.030953, 0.005497,-0.995973,-0.000310, 0.000053,-0.009961,-0.002187, 0.006057, 0.036919,1,-0.000591, 0.000359,-0.000577,1, 0.305925,-0.036023, 9.801811,1,0
1778259280989,   337.647,   337.642,-0.030605, 0.004561,-0.995511,-0.000306, 0.000047,-0.009956, 0.005878, 0.008676, 0.039179,1, 0.001572, 0.000593,-0.000050,1, 0.305991,-0.036004, 9.801809,1,0
1778259281015,   337.667,   337.667,-0.031179, 0.004565,-0.994987,-0.000309, 0.000045,-0.009949, 0.000232, 0.008975, 0.044317,1, 0.002080,-0.000107, 0.000411,1, 0.305994,-0.035724, 9.801810,1,0
1778259281036,   337.692,   337.687,-0.031602, 0.004879,-0.996300,-0.000317, 0.000048,-0.009964,-0.002873, 0.006841, 0.030163,1, 0.003842,-0.000007, 0.000380,1, 0.305977,-0.035109, 9.801812,1,0
1778259281063,   337.717,   337.717,-0.031344, 0.004389,-0.994667,-0.000314, 0.000045,-0.009949,-0.001363, 0.008875, 0.047466,1, 0.003907,-0.000356, 0.000367,1, 0.306026,-0.034041, 9.801815,1,0
1778259281085,   337.737,   337.737,-0.031652, 0.003797,-0.994750,-0.000315, 0.000040,-0.009946,-0.004279, 0.003887, 0.046648,1, 0.004666,-0.000107,-0.000137,1, 0.306122,-0.033206, 9.801815,1,0
1778259281106,   337.762,   337.757,-0.031119, 0.002987,-0.995600,-0.000314, 0.000031,-0.009957, 0.000706, 0.004272, 0.038883,1, 0.004929,-0.000029,-0.000419,1, 0.306301,-0.032498, 9.801811,1,0
1778259281133,   337.787,   337.787,-0.031029, 0.003346,-0.995037,-0.000311, 0.000034,-0.009952, 0.002026, 0.001655, 0.043833,1, 0.004544,-0.000315,-0.000290,1, 0.306323,-0.031019, 9.801816,1,0
1778259281155,   337.812,   337.807,-0.030288, 0.002445,-0.996126,-0.000302, 0.000027,-0.009959, 0.012116, 0.001898, 0.034615,1, 0.004854,-0.001143,-0.000575,1, 0.306446,-0.030049, 9.801815,1,0
1778259281176,   337.832,   337.827,-0.030005, 0.001361,-0.995521,-0.000302, 0.000013,-0.009953, 0.013136,-0.015335, 0.037718,1, 0.004480,-0.000008, 0.000263,1, 0.306512,-0.029152, 9.801815,1,0
1778259281203,   337.857,   337.857,-0.030063, 0.002683,-0.994603,-0.000301, 0.000026,-0.009947, 0.011726,-0.002074, 0.048089,1, 0.002571, 0.000242, 0.000146,1, 0.306537,-0.028307, 9.801817,1,0
1778259281225,   337.882,   337.877,-0.031679, 0.003145,-0.996415,-0.000316, 0.000032,-0.009962, 0.002903,-0.000896, 0.031607,1, 0.002564, 0.000382, 0.000222,1, 0.306472,-0.027761, 9.801821,1,0
1778259281246,   337.902,   337.897,-0.031526, 0.002747,-0.995046,-0.000313, 0.000028,-0.009951, 0.000514, 0.001844, 0.040530,1, 0.002057,-0.000141,-0.000346,1, 0.306531,-0.027300, 9.801820,1,0
1778259281273,   337.927,   337.927,-0.031433, 0.002720,-0.994972,-0.000314, 0.000029,-0.009949,-0.001761,-0.000007, 0.044479,1, 0.002025,-0.000388,-0.000225,1, 0.306503,-0.026613, 9.801823,1,0
1778259281295,   337.952,   337.947,-0.031925, 0.001242,-0.995154,-0.000321, 0.000012,-0.009954,-0.006113,-0.006061, 0.042606,1, 0.000833, 0.000080,-0.000053,1, 0.306491,-0.026478, 9.801824,1,0
1778259281317,   337.972,   337.967,-0.031813, 0.003011,-0.994890,-0.000323, 0.000031,-0.009950,-0.010594,-0.011142, 0.039406,1, 0.000565, 0.000362,-0.000201,1, 0.306453,-0.026305, 9.801826,1,0
1778259281343,   337.997,   337.997,-0.031852, 0.002464,-0.995461,-0.000319, 0.000027,-0.009954,-0.006022,-0.002124, 0.039694,1,-0.000375,-0.000064,-0.000337,1, 0.306342,-0.026300, 9.801828,1,0
1778259281365,   338.022,   338.017,-0.030396, 0.002444,-0.994873,-0.000305, 0.000028,-0.009949, 0.002002,-0.000198, 0.039103,1,-0.000599,-0.001076, 0.000075,1, 0.306444,-0.026313, 9.801826,1,0
1778259281387,   338.042,   338.037,-0.030206, 0.002323,-0.995075,-0.000299, 0.000024,-0.009949, 0.006827,-0.002338, 0.048944,1,-0.000506, 0.000605, 0.000267,1, 0.306422,-0.026423, 9.801826,1,0
1778259281414,   338.067,   338.067,-0.029734, 0.003256,-0.995945,-0.000299, 0.000033,-0.009959, 0.014733, 0.005427, 0.034948,1,-0.000133, 0.000524, 0.000095,1, 0.306303,-0.026505, 9.801829,1,0
1778259281435,   338.092,   338.087,-0.030446, 0.003361,-0.995387,-0.000304, 0.000034,-0.009953, 0.010028, 0.008861, 0.041048,1,-0.000184, 0.000029, 0.000109,1, 0.306316,-0.026488, 9.801829,1,0
1778259281457,   338.112,   338.107,-0.030034, 0.002010,-0.994813,-0.000301, 0.000022,-0.009948, 0.008177, 0.002138, 0.041983,1,-0.000066,-0.000619,-0.000343,1, 0.306306,-0.026530, 9.801829,1,0
1778259281484,   338.137,   338.137,-0.030152, 0.003442,-0.995039,-0.000301, 0.000032,-0.009951, 0.010572, 0.007312, 0.043832,1, 0.000720,-0.000141, 0.000444,1, 0.306268,-0.026423, 9.801830,1,0
1778259281505,   338.162,   338.157,-0.030517, 0.003361,-0.995112,-0.000305, 0.000032,-0.009950, 0.004405, 0.011165, 0.036420,1, 0.000862,-0.000866,-0.000429,1, 0.306330,-0.026327, 9.801829,1,0
1778259281527,   338.182,   338.177,-0.030585, 0.003126,-0.995319,-0.000306, 0.000033,-0.009953, 0.006463,-0.002050, 0.041577,1, 0.002404, 0.000062, 0.000451,1, 0.306409,-0.025949, 9.801827,1,0
1778259281554,   338.207,   338.207,-0.031724, 0.002887,-0.995805,-0.000317, 0.000029,-0.009958,-0.004581, 0.002885, 0.036317,1, 0.002382,-0.000016, 0.000516,1, 0.306526,-0.025349, 9.801826,1,0
1778259281575,   338.232,   338.227,-0.032894, 0.002684,-0.994486,-0.000330, 0.000028,-0.009947,-0.014631, 0.006027, 0.042517,1, 0.002626,-0.000686,-0.000344,1, 0.306602,-0.024792, 9.801825,1,0
1778259281598,   338.252,   338.252,-0.032438, 0.002246,-0.994891,-0.000324, 0.000022,-0.009949,-0.011512,-0.001840, 0.045274,1, 0.003500, 0.000145, 0.000676,1, 0.306595,-0.023760, 9.801827,1,0
1778259281624,   338.277,   338.277,-0.031846, 0.003086,-0.995769,-0.000318, 0.000028,-0.009959,-0.005717, 0.007083, 0.036669,1, 0.003512,-0.000424, 0.000396,1, 0.306599,-0.023074, 9.801829,1,0
1778259281645,   338.302,   338.297,-0.032083, 0.002528,-0.995273,-0.000320, 0.000027,-0.009956,-0.006467, 0.001569, 0.036417,1, 0.005555,-0.000512, 0.000557,1, 0.306583,-0.022061, 9.801831,1,0
1778259281668,   338.322,   338.322,-0.032162, 0.001602,-0.995071,-0.000323, 0.000018,-0.009952,-0.008769,-0.005018, 0.043519,1, 0.004638,-0.001000, 0.001243,1, 0.306660,-0.020583, 9.801832,1,0
1778259281694,   338.347,   338.347,-0.031341, 0.001251,-0.994419,-0.000313, 0.000011,-0.009942,-0.000590,-0.007606, 0.049914,1, 0.003944, 0.000129, 0.001436,1, 0.306834,-0.019777, 9.801828,1,0
1778259281715,   338.372,   338.367,-0.030469, 0.002770,-0.995723,-0.000307, 0.000030,-0.009956, 0.006576, 0.007754, 0.039023,1, 0.003430, 0.000153, 0.000708,1, 0.306812,-0.019093, 9.801830,1,0
1778259281738,   338.392,   338.392,-0.030480, 0.002418,-0.996149,-0.000303, 0.000024,-0.009960, 0.007842, 0.005238, 0.032952,1, 0.002140, 0.000214, 0.000312,1, 0.306741,-0.018411, 9.801834,1,0
1778259281764,   338.417,   338.417,-0.030906, 0.001534,-0.994505,-0.000310, 0.000017,-0.009947, 0.003667,-0.003023, 0.049072,1, 0.002435,-0.000332, 0.000721,1, 0.306760,-0.017987, 9.801834,1,0
1778259281786,   338.442,   338.437,-0.029417, 0.002179,-0.995169,-0.000294, 0.000022,-0.009951, 0.013627,-0.000807, 0.046257,1, 0.001331, 0.000133, 0.001145,1, 0.306825,-0.017702, 9.801833,1,0
1778259281808,   338.462,   338.462,-0.028910, 0.000604,-0.995373,-0.000291, 0.000007,-0.009955, 0.023452,-0.011500, 0.040551,1, 0.000484, 0.000396, 0.001136,1, 0.306954,-0.017414, 9.801829,1,0
1778259281834,   338.487,   338.487,-0.030255, 0.001946,-0.995871,-0.000301, 0.000018,-0.009956, 0.010189, 0.001787, 0.035670,1, 0.001262, 0.000262, 0.001255,1, 0.306876,-0.017260, 9.801832,1,0
1778259281856,   338.512,   338.507,-0.031352, 0.000310,-0.995150,-0.000314, 0.000005,-0.009951,-0.000568,-0.002149, 0.042695,1, 0.000989,-0.000434, 0.000077,1, 0.306949,-0.017077, 9.801830,1,0
1778259281878,   338.532,   338.532,-0.032614, 0.002007,-0.995782,-0.000327, 0.000019,-0.009956,-0.012912, 0.002710, 0.036543,1,-0.000613,-0.000154, 0.000366,1, 0.306926,-0.016989, 9.801831,1,0
1778259281904,   338.557,   338.557,-0.032351, 0.001754,-0.995670,-0.000325, 0.000020,-0.009957,-0.010433, 0.000171, 0.037650,1,-0.000965,-0.000109, 0.000179,1, 0.306823,-0.017062, 9.801834,1,0
1778259281926,   338.582,   338.577,-0.033295, 0.001224,-0.994702,-0.000333, 0.000011,-0.009947,-0.013867,-0.010074, 0.044655,1,-0.001470, 0.000040, 0.001005,1, 0.306849,-0.017245, 9.801833,1,0
1778259281949,   338.607,   338.602,-0.032255, 0.001824,-0.995077,-0.000323, 0.000015,-0.009952,-0.009589, 0.000195, 0.043468,1,-0.001316, 0.000370, 0.000636,1, 0.306713,-0.017732, 9.801836,1,0
1778259281974,   338.627,   338.627,-0.031927, 0.002261,-0.996071,-0.000320, 0.000020,-0.009960,-0.006414, 0.004118, 0.033717,1,-0.001703,-0.000171, 0.000261,1, 0.306685,-0.018108, 9.801837,1,0
1778259281996,   338.652,   338.647,-0.032102, 0.001058,-0.994226,-0.000319, 0.000010,-0.009944,-0.000465,-0.007636, 0.037294,1,-0.001670,-0.000146, 0.001240,1, 0.306677,-0.018472, 9.801836,1,0
1778259282019,   338.677,   338.672,-0.031872, 0.001198,-0.994955,-0.000318, 0.000011,-0.009950,-0.005936,-0.007210, 0.044663,1,-0.001593, 0.000946, 0.000634,1, 0.306593,-0.019011, 9.801838,1,0
1778259282044,   338.697,   338.697,-0.031752, 0.002814,-0.995919,-0.000320, 0.000030,-0.009958,-0.004785, 0.008430, 0.035204,1, 0.000476,-0.000159, 0.001625,1, 0.306595,-0.019152, 9.801837,1,0
1778259282066,   338.722,   338.717,-0.031151, 0.002029,-0.995413,-0.000312, 0.000020,-0.009955, 0.000133, 0.007785, 0.033458,1,-0.000273,-0.000458, 0.001421,1, 0.306623,-0.019156, 9.801837,1,0
1778259282089,   338.747,   338.742,-0.031743, 0.001996,-0.995642,-0.000314, 0.000021,-0.009955,-0.004666, 0.000414, 0.037923,1, 0.000399, 0.000594, 0.001245,1, 0.306702,-0.019139, 9.801834,1,0
1778259282114,   338.767,   338.767,-0.031539, 0.002234,-0.995355,-0.000316, 0.000024,-0.009956,-0.002522, 0.002710, 0.040734,1,-0.000253,-0.000019, 0.001023,1, 0.306768,-0.019211, 9.801832,1,0
1778259282136,   338.792,   338.787,-0.031399, 0.002288,-0.995736,-0.000314, 0.000023,-0.009953,-0.007228, 0.009920, 0.041293,1,-0.000703, 0.000319, 0.000922,1, 0.306736,-0.019297, 9.801833,1,0
1778259282159,   338.817,   338.812,-0.030861, 0.002078,-0.995590,-0.000309, 0.000021,-0.009957, 0.003997, 0.001126, 0.038430,1, 0.000488, 0.000062, 0.001084,1, 0.306641,-0.019243, 9.801836,1,0
1778259282184,   338.837,   338.837,-0.031113, 0.004135,-0.995652,-0.000311, 0.000039,-0.009957, 0.001512, 0.021444, 0.037828,1, 0.000613, 0.000576, 0.000926,1, 0.306607,-0.019086, 9.801837,1,0
1778259282206,   338.862,   338.857,-0.031569, 0.002121,-0.994500,-0.000315, 0.000023,-0.009946,-0.003469, 0.007911, 0.040895,1, 0.001860,-0.000271, 0.000621,1, 0.306657,-0.018868, 9.801836,1,0
1778259282229,   338.887,   338.882,-0.031198, 0.001640,-0.994502,-0.000311, 0.000015,-0.009948, 0.000683,-0.002406, 0.049101,1, 0.000684, 0.000502, 0.000820,1, 0.306614,-0.018465, 9.801838,1,0
1778259282255,   338.907,   338.907,-0.031153, 0.002507,-0.995969,-0.000311, 0.000024,-0.009957, 0.001147, 0.006426, 0.034720,1, 0.002217,-0.000254, 0.000562,1, 0.306658,-0.018095, 9.801838,1,0
1778259282276,   338.932,   338.927,-0.031387, 0.003374,-0.995660,-0.000315, 0.000033,-0.009957, 0.000956, 0.009685, 0.029873,1, 0.002012,-0.000067, 0.000521,1, 0.306652,-0.017726, 9.801838,1,0
1778259282303,   338.957,   338.957,-0.031580, 0.001966,-0.994998,-0.000316, 0.000019,-0.009949,-0.002971, 0.001872, 0.044238,1, 0.002225,-0.000551, 0.000261,1, 0.306737,-0.017347, 9.801836,1,0
1778259282325,   338.977,   338.977,-0.031290, 0.000955,-0.995631,-0.000312, 0.000010,-0.009955,-0.000132,-0.007724, 0.038031,1, 0.001035, 0.000294, 0.000210,1, 0.306710,-0.017058, 9.801838,1,1
1778259282346,   339.002,   338.997,-0.030616, 0.002469,-0.994874,-0.000309, 0.000023,-0.009950, 0.003140, 0.000480, 0.046225,1, 0.001904,-0.000024, 0.000377,1, 0.306747,-0.016656, 9.801837,1,1
1778259282373,   339.027,   339.027,-0.030945, 0.002212,-0.994889,-0.000309, 0.000021,-0.009948, 0.003311, 0.005566, 0.045308,1, 0.001904,-0.000005, 0.000298,1, 0.306778,-0.016067, 9.801837,1,1
1778259282395,   339.052,   339.047,-0.030300, 0.002722,-0.996069,-0.000301, 0.000023,-0.009962, 0.014061, 0.005055, 0.032685,1, 0.002033,-0.000506, 0.000338,1, 0.306854,-0.015600, 9.801836,1,1
1778259282416,   339.072,   339.067,-0.029931, 0.002443,-0.995203,-0.000301, 0.000023,-0.009950, 0.013744, 0.012851, 0.042816,1, 0.002449,-0.000148, 0.000154,1, 0.306986,-0.015058, 9.801832,1,1
1778259282443,   339.097,   339.097,-0.029855, 0.001513,-0.995001,-0.000300, 0.000014,-0.009950, 0.014274, 0.000562, 0.044205,1, 0.002988, 0.000061, 0.000235,1, 0.307051,-0.014187, 9.801831,1,1
1778259282465,   339.122,   339.117,-0.029912, 0.001801,-0.995803,-0.000298, 0.000019,-0.009958, 0.016394, 0.006601, 0.036490,1, 0.003050,-0.000780,-0.000483,1, 0.307170,-0.013556, 9.801828,1,1
1778259282486,   339.142,   339.137,-0.029185, 0.001431,-0.995326,-0.000295, 0.000016,-0.009953, 0.016359, 0.003395, 0.041116,1, 0.003995,-0.000460,-0.000436,1, 0.307253,-0.012863, 9.801827,1,1
1778259282513,   339.167,   339.167,-0.029291, 0.001025,-0.994817,-0.000293, 0.000013,-0.009947, 0.019913,-0.001831, 0.046007,1, 0.004779, 0.000304,-0.000687,1, 0.307146,-0.011729, 9.801832,1,1
1778259282535,   339.192,   339.187,-0.029458, 0.001330,-0.995922,-0.000295, 0.000016,-0.009959, 0.013219, 0.002634, 0.032218,1, 0.004676,-0.000370,-0.000502,1, 0.307159,-0.010916, 9.801832,1,1
1778259282556,   339.212,   339.207,-0.030047, 0.000937,-0.994581,-0.000299, 0.000007,-0.009947, 0.017168,-0.002527, 0.041601,1, 0.004780,-0.000415, 0.000188,1, 0.307146,-0.010058, 9.801834,1,1
1778259282583,   339.237,   339.237,-0.030372, 0.000779,-0.994812,-0.000303, 0.000009,-0.009950, 0.009413,-0.001252, 0.046057,1, 0.004075,-0.000580, 0.000143,1, 0.307283,-0.008767, 9.801830,1,1
1778259282605,   339.262,   339.257,-0.030080, 0.001217,-0.995877,-0.000301, 0.000011,-0.009957, 0.010720, 0.001038, 0.037477,1, 0.003317,-0.000810, 0.000086,1, 0.307340,-0.007992, 9.801829,1,1
1778259282627,   339.282,   339.277,-0.029965, 0.000823,-0.994789,-0.000301, 0.000009,-0.009950, 0.011006, 0.001932, 0.044820,1, 0.003730,-0.000843,-0.000207,1, 0.307466,-0.007223, 9.801826,1,1
1778259282654,   339.307,   339.307,-0.030600,-0.000232,-0.995379,-0.000306,-0.000000,-0.009950, 0.007521,-0.008509, 0.040484,1, 0.003719,-0.000303,-0.000716,1, 0.307618,-0.006122, 9.801822,1,1
1778259282675,   339.327,   339.327,-0.031155, 0.000284,-0.995772,-0.000312, 0.000002,-0.009957, 0.002119,-0.002783, 0.036634,1, 0.003113,-0.000312,-0.000315,1, 0.307653,-0.005466, 9.801822,1,1
1778259282697,   339.352,   339.347,-0.032202, 0.001046,-0.995120,-0.000321, 0.000008,-0.009951,-0.002533,-0.001706, 0.043825,1, 0.003083,-0.000410,-0.000129,1, 0.307475,-0.004748, 9.801827,1,1
1778259282724,   339.377,   339.377,-0.032304, 0.000913,-0.996081,-0.000325, 0.000009,-0.009961,-0.009306, 0.004991, 0.033613,1, 0.004211,-0.000447,-0.000604,1, 0.307506,-0.003830, 9.801826,1,1
1778259282745,   339.402,   339.397,-0.032303, 0.000403,-0.995069,-0.000324, 0.000003,-0.009951,-0.015123,-0.003890, 0.038398,1, 0.003508, 0.000167,-0.000253,1, 0.307486,-0.003126, 9.801827,1,1
1778259282767,   339.422,   339.417,-0.031951, 0.000033,-0.994874,-0.000321, 0.000001,-0.009947,-0.015409,-0.001373, 0.043665,1, 0.002378,-0.000622,-0.000431,1, 0.307522,-0.002590, 9.801826,1,1
1778259282794,   339.447,   339.447,-0.031761,-0.000689,-0.995216,-0.000316,-0.000007,-0.009953,-0.003866,-0.009028, 0.042090,1, 0.000408,-0.000204,-0.000646,1, 0.307606,-0.002256, 9.801825,1,1
1778259282815,   339.472,   339.467,-0.031477,-0.000308,-0.995053,-0.000313,-0.000005,-0.009950, 0.002777,-0.005557, 0.042036,1,-0.000380,-0.000470, 0.000146,1, 0.307686,-0.002346, 9.801822,1,1
1778259282838,   339.492,   339.492,-0.031077, 0.000429,-0.995372,-0.000311, 0.000003,-0.009954, 0.002844, 0.001755, 0.040563,1,-0.000540, 0.001199, 0.000117,1, 0.307572,-0.002471, 9.801826,1,1
1778259282864,   339.517,   339.517,-0.030181, 0.000400,-0.995854,-0.000305, 0.000003,-0.009957, 0.011574, 0.001398, 0.035837,1,-0.000061, 0.000248, 0.000113,1, 0.307545,-0.002528, 9.801826,1,1
1778259282885,   339.542,   339.537,-0.030449,-0.000859,-0.994723,-0.000304,-0.000010,-0.009946, 0.014220,-0.008196, 0.048141,1,-0.000837, 0.000236,-0.000541,1, 0.307572,-0.002674, 9.801826,1,1
1778259282908,   339.562,   339.562,-0.031147, 0.000651,-0.995675,-0.000311, 0.000003,-0.009957, 0.002229, 0.003397, 0.037581,1,-0.001115,-0.000032,-0.000227,1, 0.307680,-0.003018, 9.801822,1,1
1778259282934,   339.587,   339.587,-0.031017, 0.000887,-0.995943,-0.000311, 0.000008,-0.009961, 0.003477, 0.005280, 0.034962,1,-0.001787, 0.000261,-0.000194,1, 0.307641,-0.003476, 9.801823,1,1
1778259282955,   339.612,   339.607,-0.030757,-0.000510,-0.994954,-0.000309,-0.000003,-0.009948, 0.003844,-0.005394, 0.039379,1,-0.001754,-0.000242,-0.000564,1, 0.307693,-0.003855, 9.801821,1,1
1778259282978,   339.632,   339.632,-0.031487, 0.000045,-0.995352,-0.000312, 0.000001,-0.009951,-0.001141,-0.003796, 0.040751,1,-0.001925, 0.000052,-0.000540,1, 0.307641,-0.004298, 9.801823,1,1
1778259283004,   339.657,   339.657,-0.031304, 0.001725,-0.996806,-0.000315, 0.000017,-0.009966, 0.000577, 0.012369, 0.026499,1,-0.000999, 0.000088, 0.000281,1, 0.307563,-0.004578, 9.801825,1,1
1778259283025,   339.682,   339.677,-0.032055, 0.000044,-0.994567,-0.000319, 0.000003,-0.009945,-0.005886, 0.006230, 0.040200,1, 0.000601,-0.001102,-0.000312,1, 0.307639,-0.004548, 9.801823,1,1
1778259283048,   339.702,   339.702,-0.031298, 0.000355,-0.994897,-0.000316, 0.000002,-0.009945, 0.000711,-0.001027, 0.045216,1, 0.000155,-0.000191,-0.000028,1, 0.307650,-0.004505, 9.801822,1,1
1778259283074,   339.727,   339.727,-0.031689, 0.001554,-0.995715,-0.000316, 0.000015,-0.009958,-0.003116, 0.010732, 0.037190,1,-0.000112, 0.000469,-0.000728,1, 0.307631,-0.004509, 9.801823,1,1
1778259283096,   339.752,   339.747,-0.031802, 0.000701,-0.994920,-0.000318, 0.000005,-0.009946,-0.001489, 0.007365, 0.043575,1, 0.000679, 0.000342,-0.000733,1, 0.307646,-0.004348, 9.801823,1,1
1778259283118,   339.772,   339.772,-0.032105, 0.001202,-0.995927,-0.000319, 0.000011,-0.009956,-0.007357, 0.007941, 0.035116,1, 0.002622, 0.000671,-0.000025,1, 0.307467,-0.003767, 9.801828,1,1
1778259283144,   339.797,   339.797,-0.032937, 0.001738,-0.996324,-0.000328, 0.000018,-0.009964,-0.015566, 0.013828, 0.031231,1, 0.003933, 0.000406,-0.000948,1, 0.307420,-0.003088, 9.801830,1,1
1778259283166,   339.822,   339.817,-0.032004, 0.000256,-0.994614,-0.000319, 0.000003,-0.009943,-0.005570,-0.002994, 0.047850,1, 0.004764, 0.000080, 0.000110,1, 0.307409,-0.002166, 9.801830,1,1
1778259283188,   339.847,   339.842,-0.031529, 0.000424,-0.995374,-0.000315, 0.000005,-0.009952,-0.001813, 0.003013, 0.040543,1, 0.004272, 0.000219, 0.000057,1, 0.307376,-0.001012, 9.801831,1,1
1778259283214,   339.867,   339.867,-0.030319, 0.002104,-0.997220,-0.000307, 0.000023,-0.009969, 0.010028, 0.020600, 0.022448,1, 0.006121,-0.000371,-0.000174,1, 0.307370, 0.000154, 9.801832,1,1
1778259283236,   339.892,   339.887,-0.029840, 0.001812,-0.994727,-0.000301, 0.000017,-0.009950, 0.011804, 0.017180, 0.038210,1, 0.007799,-0.000098,-0.000045,1, 0.307428, 0.001562, 9.801830,1,1
1778259283259,   339.917,   339.912,-0.029127,-0.000585,-0.994437,-0.000295,-0.000007,-0.009944, 0.021972,-0.001889, 0.049727,1, 0.009294,-0.000613,-0.000360,1, 0.307634, 0.004139, 9.801823,1,1
1778259283284,   339.937,   339.937,-0.029081, 0.000593,-0.994671,-0.000292, 0.000004,-0.009948, 0.022544, 0.011585, 0.047426,1, 0.010503,-0.000714,-0.000829,1, 0.307755, 0.006094, 9.801818,1,1
1778259283306,   339.962,   339.957,-0.029699, 0.000639,-0.996148,-0.000299, 0.000008,-0.009961, 0.020857, 0.014328, 0.033118,1, 0.011367,-0.001460,-0.000411,1, 0.307929, 0.007980, 9.801811,1,1
1778259283329,   339.987,   339.982,-0.030458,-0.000796,-0.994895,-0.000301,-0.000007,-0.009949, 0.009516, 0.003374, 0.045210,1, 0.011794,-0.000929,-0.000067,1, 0.308239, 0.011550, 9.801798,1,1
1778259283354,   340.007,   340.007,-0.030705,-0.001744,-0.994053,-0.000310,-0.000017,-0.009943, 0.007223,-0.003405, 0.053464,1, 0.012363, 0.000051,-0.000414,1, 0.308333, 0.014083, 9.801791,1,1
1778259283376,   340.032,   340.027,-0.031029, 0.000131,-0.995518,-0.000313,-0.000001,-0.009958, 0.004236, 0.004967, 0.040095,1, 0.011949,-0.001317,-0.000880,1, 0.308502, 0.016528, 9.801783,1,1
1778259283399,   340.057,   340.052,-0.031631,-0.001028,-0.995823,-0.000317,-0.000009,-0.009960,-0.001522, 0.009610, 0.036079,1, 0.012419,-0.001280,-0.001608,1, 0.308715, 0.020079, 9.801769,1,1
1778259283424,   340.077,   340.077,-0.031839,-0.001173,-0.995200,-0.000319,-0.000012,-0.009952,-0.004816, 0.006508, 0.036934,1, 0.012355,-0.000608,-0.000874,1, 0.308837, 0.022575, 9.801760,1,1
1778259283446,   340.102,   340.097,-0.032398,-0.001836,-0.995443,-0.000324,-0.000017,-0.009953,-0.009400, 0.014092, 0.041489,1, 0.013100,-0.000809,-0.001172,1, 0.308980, 0.025192, 9.801749,1,1
1778259283469,   340.127,   340.122,-0.032613,-0.002987,-0.994851,-0.000325,-0.000032,-0.009952,-0.010642,-0.000457, 0.045572,1, 0.014191,-0.001150,-0.001626,1, 0.309222, 0.029278, 9.801730,1,1
1778259283495,   340.147,   340.147,-0.032413,-0.002299,-0.995207,-0.000325,-0.000025,-0.009950,-0.008592, 0.009029, 0.042073,1, 0.013904, 0.000195,-0.001046,1, 0.309266, 0.031936, 9.801721,1,1
1778259283516,   340.172,   340.167,-0.032596,-0.001944,-0.995556,-0.000323,-0.000017,-0.009957,-0.007455, 0.021883, 0.032965,1, 0.015476,-0.000621,-0.001704,1, 0.309399, 0.034883, 9.801706,1,1
1778259283543,   340.197,   340.197,-0.031257,-0.004227,-0.995027,-0.000312,-0.000043,-0.009948, 0.003206,-0.002492, 0.043797,1, 0.016134,-0.001221,-0.001515,1, 0.309770, 0.039467, 9.801677,1,1
1778259283565,   340.212,   340.217,-0.031120,-0.003226,-0.995246,-0.000311,-0.000030,-0.009954, 0.004714, 0.010536, 0.041631,1, 0.016639,-0.000983,-0.001670,1, 0.309932, 0.042689, 9.801659,1,1
1778259283586,   340.242,   340.237,-0.030891,-0.005205,-0.994992,-0.000309,-0.000052,-0.009951, 0.005471,-0.006631, 0.042984,1, 0.016852,-0.000490,-0.001999,1, 0.310090, 0.045996, 9.801639,1,1
1778259283613,   340.267,   340.267,-0.031012,-0.004316,-0.994511,-0.000311,-0.000044,-0.009945, 0.006083, 0.008508, 0.048791,1, 0.019211, 0.000097,-0.000770,1, 0.310205, 0.051434, 9.801607,1,1
1778259283635,   340.292,   340.287,-0.031474,-0.005186,-0.996372,-0.000313,-0.000048,-0.009965, 0.000967, 0.023990, 0.023891,1, 0.020086,-0.000670,-0.002175,1, 0.310317, 0.055381, 9.801582,1,1
1778259283656,   340.312,   340.307,-0.031896,-0.007019,-0.993787,-0.000319,-0.000070,-0.009942, 0.001014,-0.008688, 0.036825,1, 0.021769,-0.000921,-0.001692,1, 0.310431, 0.059610, 9.801554,1,1
1778259283683,   340.337,   340.337,-0.031974,-0.006078,-0.993936,-0.000322,-0.000062,-0.009939,-0.002889, 0.005919, 0.054327,1, 0.022930,-0.001012,-0.000382,1, 0.310696, 0.066237, 9.801503,1,1
1778259283705,   340.362,   340.357,-0.031806,-0.005672,-0.997156,-0.000317,-0.000056,-0.009968,-0.011897, 0.011722, 0.028899,1, 0.023332,-0.001322,-0.000584,1, 0.310973, 0.070650, 9.801463,1,1
1778259283726,   340.382,   340.377,-0.032115,-0.004575,-0.995517,-0.000319,-0.000044,-0.009955,-0.002568, 0.023015, 0.035689,1, 0.025061,-0.001356,-0.000780,1, 0.311126, 0.075447, 9.801423,1,1
1778259283753,   340.407,   340.407,-0.031890,-0.007708,-0.995444,-0.000318,-0.000073,-0.009956,-0.001332, 0.006221, 0.039396,1, 0.023458,-0.001655,-0.002104,1, 0.311458, 0.082543, 9.801355,1,1
1778259283775,   340.432,   340.427,-0.032358,-0.009401,-0.994599,-0.000321,-0.000095,-0.009947,-0.004330,-0.006855, 0.043489,1, 0.024116,-0.001620,-0.001970,1, 0.311746, 0.087271, 9.801305,1,1
1778259283796,   340.452,   340.447,-0.031629,-0.008046,-0.994325,-0.000317,-0.000076,-0.009944, 0.000048, 0.006110, 0.059990,1, 0.024841,-0.001159,-0.002050,1, 0.311963, 0.092073, 9.801254,1,1
1778259283823,   340.477,   340.477,-0.031353,-0.007916,-0.997217,-0.000311,-0.000076,-0.009972, 0.004871, 0.020700, 0.021824,1, 0.024083,-0.000852,-0.002693,1, 0.312362, 0.099084, 9.801173,1,1
1778259283845,   340.502,   340.497,-0.029942,-0.011097,-0.994415,-0.000301,-0.000110,-0.009945, 0.017292, 0.003215, 0.042399,1, 0.025792,-0.001471,-0.002560,1, 0.312640, 0.104027, 9.801113,1,1
1778259283867,   340.522,   340.517,-0.030827,-0.012271,-0.994230,-0.000308,-0.000123,-0.009941, 0.013874,-0.004237, 0.058089,1, 0.025246,-0.001667,-0.003514,1, 0.312954, 0.109034, 9.801048,1,1
1778259283893,   340.547,   340.547,-0.031230,-0.011868,-0.996328,-0.000312,-0.000122,-0.009962, 0.006955,-0.000883, 0.030327,1, 0.025420,-0.001220,-0.002844,1, 0.313229, 0.116205, 9.800958,1,1
1778259283915,   340.572,   340.567,-0.031443,-0.010773,-0.995125,-0.000313,-0.000105,-0.009950,-0.000404, 0.013882, 0.037631,1, 0.025123,-0.001085,-0.002505,1, 0.313362, 0.121180, 9.800893,1,1
1778259283937,   340.592,   340.587,-0.031561,-0.015424,-0.994518,-0.000315,-0.000148,-0.009946, 0.003321,-0.000053, 0.044152,1, 0.024950,-0.001934,-0.002714,1, 0.313672, 0.126122, 9.800820,1,1
1778259283964,   340.617,   340.617,-0.032471,-0.017818,-0.994887,-0.000323,-0.000177,-0.009951,-0.004381,-0.042387, 0.044220,1, 0.022413,-0.001404,-0.002579,1, 0.314092, 0.133045, 9.800715,1,1
1778259283985,   340.642,   340.637,-0.033283,-0.015183,-0.995506,-0.000335,-0.000151,-0.009952,-0.012182,-0.013123, 0.039817,1, 0.021156,-0.000931,-0.001424,1, 0.314248, 0.137234, 9.800653,1,1
1778259284007,   340.662,   340.657,-0.032963,-0.016143,-0.995268,-0.000331,-0.000159,-0.009952,-0.011459,-0.007184, 0.037332,1, 0.021405,-0.001218,-0.001425,1, 0.314516, 0.141430, 9.800585,1,1
1778259284034,   340.687,   340.687,-0.031799,-0.014783,-0.995341,-0.000317,-0.000147,-0.009951, 0.003054, 0.002001, 0.039531,1, 0.020219,-0.000390,-0.000091,1, 0.314909, 0.147607, 9.800481,1,1
1778259284055,   340.712,   340.707,-0.032912,-0.018941,-0.994882,-0.000329,-0.000188,-0.009951,-0.001052,-0.013184, 0.035661,1, 0.020092,-0.000628,-0.001683,1, 0.315128, 0.151597, 9.800413,1,1
1778259284078,   340.732,   340.732,-0.033304,-0.017964,-0.994832,-0.000334,-0.000181,-0.009949,-0.011223,-0.019605, 0.044362,1, 0.018213,-0.001131, 0.000032,1, 0.315411, 0.157126, 9.800317,1,1
1778259284104,   340.757,   340.757,-0.032848,-0.015310,-0.995327,-0.000330,-0.000154,-0.009951,-0.006518, 0.010237, 0.039432,1, 0.017857,-0.001053,-0.000297,1, 0.315643, 0.160944, 9.800247,1,1
1778259284125,   340.782,   340.777,-0.031726,-0.017939,-0.995877,-0.000315,-0.000178,-0.009958, 0.000422,-0.007706, 0.032283,1, 0.017019,-0.001351,-0.001038,1, 0.315862, 0.164271, 9.800185,1,1
1778259284148,   340.802,   340.802,-0.032279,-0.017719,-0.994430,-0.000323,-0.000176,-0.009948,-0.000555,-0.005156, 0.048083,1, 0.015622, 0.000198,-0.000249,1, 0.315984, 0.169095, 9.800099,1,1
1778259284174,   340.827,   340.827,-0.032889,-0.018765,-0.994888,-0.000329,-0.000187,-0.009944,-0.006556,-0.012158, 0.043528,1, 0.017686,-0.001084, 0.000306,1, 0.316009, 0.172418, 9.800040,1,1
1778259284195,   340.852,   340.847,-0.032559,-0.016239,-0.994822,-0.000328,-0.000162,-0.009950,-0.003059, 0.014591, 0.038886,1, 0.017715,-0.001367,-0.000536,1, 0.316160, 0.175893, 9.799973,1,1
1778259284218,   340.872,   340.872,-0.031311,-0.019539,-0.994341,-0.000314,-0.000190,-0.009944, 0.009375,-0.010713, 0.048719,1, 0.019528,-0.000626, 0.000306,1, 0.316447, 0.181510, 9.799862,1,1
1778259284244,   340.897,   340.897,-0.032705,-0.019896,-0.996010,-0.000326,-0.000200,-0.009958,-0.004149,-0.010499, 0.032279,1, 0.018737, 0.000375, 0.001448,1, 0.316564, 0.185193, 9.799789,1,1
1778259284265,   340.922,   340.917,-0.032884,-0.019022,-0.994330,-0.000329,-0.000187,-0.009945,-0.006191, 0.009019, 0.032067,1, 0.016906,-0.000498, 0.000405,1, 0.316694, 0.188593, 9.799721,1,1
1778259284288,   340.942,   340.942,-0.032157,-0.021135,-0.992791,-0.000323,-0.000211,-0.009930, 0.001592,-0.014762, 0.063682,1, 0.012062,-0.001217,-0.000885,1, 0.317024, 0.192899, 9.799626,1,1
1778259284314,   340.967,   340.967,-0.032838,-0.024516,-0.996152,-0.000328,-0.000245,-0.009958,-0.004880,-0.046031, 0.030681,1, 0.007365, 0.000124,-0.001100,1, 0.317145, 0.194618, 9.799588,1,1
1778259284336,   340.992,   340.987,-0.031452,-0.020828,-0.995608,-0.000315,-0.000210,-0.009956, 0.003435,-0.026309, 0.025314,1, 0.001952,-0.000706,-0.001754,1, 0.317199, 0.195350, 9.799572,1,1
1778259284358,   341.012,   341.012,-0.030225,-0.023712,-0.994546,-0.000302,-0.000230,-0.009945, 0.020829,-0.038772, 0.046433,1,-0.012308,-0.000897,-0.004276,1, 0.317258, 0.193388, 9.799609,1,1
1778259284384,   341.037,   341.037,-0.028147,-0.028109,-0.993182,-0.000283,-0.000281,-0.009933, 0.041262,-0.085556, 0.059887,1,-0.025283,-0.000337,-0.005872,1, 0.317296, 0.189316, 9.799687,1,1
1778259284406,   341.062,   341.057,-0.026150,-0.019190,-0.995388,-0.000257,-0.000194,-0.009948, 0.055689,-0.030945, 0.049756,1,-0.038565, 0.000834,-0.008201,1, 0.317116, 0.182664, 9.799819,1,1
1778259284428,   341.087,   341.082,-0.025999,-0.022589,-0.995558,-0.000261,-0.000226,-0.009958, 0.061681,-0.051546, 0.036974,1,-0.055398, 0.001791,-0.011995,1, 0.316585, 0.168257, 9.800095,1,1
1778259284454,   341.107,   341.107,-0.027018,-0.028275,-0.994743,-0.000268,-0.000282,-0.009944, 0.051392,-0.118904, 0.045167,1,-0.062611, 0.001569,-0.010620,1, 0.316292, 0.156433, 9.800300,1,1
1778259284476,   341.132,   341.127,-0.027342,-0.021320,-0.995159,-0.000273,-0.000215,-0.009946, 0.055014,-0.074562, 0.049971,1,-0.075854, 0.004259,-0.011369,1, 0.315556, 0.142402, 9.800537,1,1
1778259284498,   341.157,   341.152,-0.027417,-0.019870,-0.994863,-0.000274,-0.000201,-0.009951, 0.045080,-0.072787, 0.044590,1,-0.084419, 0.004316,-0.010173,1, 0.313785, 0.119484, 9.800900,1,1
1778259284524,   341.177,   341.177,-0.029645,-0.023537,-0.996365,-0.000300,-0.000237,-0.009960, 0.022338,-0.125338, 0.030082,1,-0.087919, 0.003863,-0.006937,1, 0.312935, 0.102744, 9.801117,1,1
1778259284546,   341.202,   341.197,-0.030714,-0.021673,-0.991386,-0.000307,-0.000226,-0.009918, 0.004260,-0.149787, 0.053272,1,-0.093249, 0.004490,-0.005869,1, 0.312067, 0.084821, 9.801316,1,1
1778259284569,   341.227,   341.222,-0.031525,-0.015629,-0.995890,-0.000314,-0.000167,-0.009950, 0.001626,-0.094529, 0.035202,1,-0.104872, 0.004908,-0.001823,1, 0.310626, 0.055472, 9.801572,1,1
1778259284594,   341.247,   341.247,-0.032570,-0.012865,-0.999349,-0.000326,-0.000130,-0.009998,-0.009839,-0.089014, 0.001425,1,-0.113790, 0.006076,-0.000630,1, 0.309370, 0.033602, 9.801711,1,1
1778259284616,   341.272,   341.267,-0.030307,-0.008663,-0.991508,-0.000306,-0.000100,-0.009916,-0.002849,-0.109030, 0.059146,1,-0.121797, 0.005086,-0.001395,1, 0.308343, 0.010188, 9.801796,1,1
1778259284639,   341.297,   341.292,-0.028465, 0.002759,-0.994893,-0.000289, 0.000015,-0.009952, 0.027663, 0.003883, 0.045256,1,-0.128838, 0.006642,-0.000618,1, 0.306605,-0.027190, 9.801818,1,1
1778259284664,   341.317,   341.317,-0.028805, 0.003747,-0.994552,-0.000283, 0.000029,-0.009947, 0.023070,-0.011569, 0.048540,1,-0.127567, 0.005904, 0.000635,1, 0.305366,-0.052292, 9.801755,1,1
1778259284686,   341.342,   341.337,-0.032013, 0.016247,-0.996303,-0.000320, 0.000150,-0.009964, 0.007441, 0.017108, 0.051018,1,-0.121046, 0.007861, 0.002285,1, 0.303849,-0.076645, 9.801642,1,1
1778259284709,   341.367,   341.362,-0.036300, 0.020654,-0.998279,-0.000358, 0.000206,-0.009985,-0.054304, 0.097552, 0.011670,1,-0.101273, 0.006186, 0.004569,1, 0.301482,-0.108160, 9.801418,1,1
1778259284734,   341.387,   341.387,-0.038808, 0.017478,-0.992552,-0.000389, 0.000170,-0.009929,-0.079972, 0.047934, 0.067656,1,-0.087129, 0.005512, 0.008176,1, 0.300431,-0.126190, 9.801234,1,1
1778259284756,   341.412,   341.407,-0.037501, 0.030972,-0.997293,-0.000373, 0.000305,-0.009970,-0.071192, 0.124587, 0.051802,1,-0.079791, 0.003784, 0.005746,1, 0.299592,-0.142203, 9.801041,1,1
1778259284783,   341.437,   341.437,-0.038703, 0.031006,-0.997282,-0.000383, 0.000313,-0.009978,-0.080949, 0.141940, 0.020764,1,-0.072429, 0.004223, 0.000380,1, 0.298466,-0.164382, 9.800729,1,1
1778259284805,   341.457,   341.457,-0.040011, 0.024663,-0.995972,-0.000385, 0.000253,-0.009948,-0.094563, 0.065574, 0.033393,1,-0.072409, 0.003704,-0.001150,1, 0.297692,-0.178546, 9.800505,1,1
1778259284826,   341.482,   341.477,-0.037037, 0.023324,-0.992663,-0.000376, 0.000226,-0.009928,-0.086765, 0.024700, 0.070706,1,-0.073095, 0.003726,-0.005158,1, 0.296971,-0.192875, 9.800255,1,1
1778259284853,   341.507,   341.507,-0.033128, 0.027361,-0.997448,-0.000331, 0.000272,-0.009970,-0.028639, 0.056929, 0.018268,1,-0.068709, 0.002977,-0.005425,1, 0.296150,-0.213527, 9.799851,1,1
1778259284875,   341.532,   341.527,-0.029654, 0.024072,-0.993144,-0.000295, 0.000235,-0.009938,-0.001414, 0.011906, 0.017833,1,-0.062248, 0.003620,-0.003512,1, 0.295516,-0.226138, 9.799587,1,1
1778259284896,   341.552,   341.547,-0.029685, 0.032258,-0.997287,-0.000296, 0.000312,-0.009963, 0.004848, 0.024939, 0.063588,1,-0.050174, 0.003838,-0.002373,1, 0.295715,-0.237203, 9.799320,1,1
1778259284923,   341.577,   341.577,-0.030084, 0.031145,-0.998375,-0.000301, 0.000314,-0.009989,-0.000052, 0.057263, 0.008354,1,-0.035965, 0.001426, 0.000245,1, 0.294931,-0.249287, 9.799044,1,1
1778259284945,   341.602,   341.597,-0.028439, 0.022594,-0.989713,-0.000284, 0.000221,-0.009901, 0.007917,-0.036864, 0.070520,1,-0.033034, 0.000688, 0.002011,1, 0.294756,-0.255780, 9.798882,1,1
1778259284966,   341.622,   341.617,-0.026726, 0.032831,-0.998552,-0.000265, 0.000319,-0.009979, 0.024611, 0.002767, 0.060789,1,-0.032443, 0.003010, 0.000335,1, 0.294302,-0.262143, 9.798727,1,1
1778259284993,   341.647,   341.647,-0.029034, 0.035804,-0.999750,-0.000287, 0.000357,-0.010002, 0.008952, 0.081501,-0.005655,1,-0.023392, 0.001802, 0.000608,1, 0.293618,-0.270351, 9.798525,1,1
1778259285015,   341.672,   341.667,-0.029541, 0.026656,-0.994485,-0.000294, 0.000267,-0.009946,-0.002652, 0.012443, 0.039221,1,-0.015847, 0.000572, 0.003643,1, 0.293448,-0.273803, 9.798433,1,1
1778259285036,   341.692,   341.687,-0.025697, 0.029362,-0.993941,-0.000260, 0.000285,-0.009940, 0.010477,-0.024005, 0.047310,1,-0.014715,-0.000489, 0.000238,1, 0.293573,-0.276830, 9.798345,1,1
1778259285063,   341.717,   341.717,-0.017501, 0.040056,-0.993229,-0.000179, 0.000397,-0.009934, 0.122322, 0.112001, 0.057974,1,-0.015692,-0.001429,-0.001587,1, 0.293997,-0.281304, 9.798204,1,1
1778259285085,   341.742,   341.737,-0.013778, 0.030665,-0.995440,-0.000134, 0.000316,-0.009954, 0.166786, 0.080215, 0.047474,1,-0.020399,-0.000941,-0.003997,1, 0.294254,-0.284898, 9.798093,1,1
1778259285106,   341.762,   341.757,-0.020053, 0.028972,-0.996651,-0.000196, 0.000284,-0.009961, 0.128323,-0.020320, 0.027379,1,-0.019396, 0.001363,-0.007302,1, 0.293373,-0.289642, 9.797980,1,1
1778259285133,   341.787,   341.787,-0.026033, 0.036218,-0.996955,-0.000256, 0.000358,-0.009972, 0.037523, 0.063060, 0.021136,1, 0.002398, 0.000609,-0.001789,1, 0.292806,-0.292038, 9.797927,1,1
1778259285155,   341.812,   341.807,-0.031369, 0.022269,-0.993893,-0.000312, 0.000229,-0.009937,-0.002390,-0.008010, 0.054923,1, 0.024102,-0.001994, 0.005811,1, 0.292980,-0.288854, 9.798016,1,1
1778259285177,   341.832,   341.827,-0.031890, 0.020364,-0.995257,-0.000316, 0.000202,-0.009959,-0.016204,-0.086053, 0.033970,1, 0.036789,-0.002542, 0.012004,1, 0.293466,-0.282326, 9.798191,1,1
1778259285203,   341.857,   341.857,-0.034310, 0.031172,-0.993098,-0.000336, 0.000307,-0.009928,-0.042747, 0.035765, 0.059573,1, 0.056233,-0.000547, 0.015912,1, 0.293721,-0.268190, 9.798581,1,1
1778259285225,   341.882,   341.877,-0.041871, 0.029730,-0.998928,-0.000416, 0.000315,-0.009992,-0.092087, 0.081079, 0.017064,1, 0.062579,-0.001113, 0.019133,1, 0.293753,-0.256432, 9.798895,1,1
1778259285247,   341.902,   341.897,-0.041704, 0.023219,-0.995248,-0.000422, 0.000230,-0.009953,-0.129452,-0.009423, 0.012313,1, 0.066006,-0.003430, 0.019381,1, 0.294255,-0.243592, 9.799207,1,1
1778259285274,   341.927,   341.927,-0.037677, 0.030081,-0.990376,-0.000380, 0.000299,-0.009903,-0.074113, 0.067338, 0.087284,1, 0.055271,-0.003942, 0.012041,1, 0.295486,-0.225944, 9.799593,1,1
1778259285295,   341.952,   341.947,-0.037122, 0.025977,-0.996009,-0.000370, 0.000268,-0.009960,-0.059519, 0.058251, 0.044402,1, 0.041919,-0.001474, 0.008365,1, 0.296454,-0.217050, 9.799765,1,1
1778259285318,   341.972,   341.972,-0.039560, 0.026331,-0.996912,-0.000395, 0.000265,-0.009966,-0.091345, 0.049877, 0.023585,1, 0.025960,-0.000782, 0.000734,1, 0.296629,-0.207533, 9.799966,1,1
1778259285344,   341.997,   341.997,-0.035942, 0.022728,-0.994023,-0.000363, 0.000234,-0.009941,-0.055608, 0.018562, 0.051989,1, 0.014285,-0.002031,-0.004792,1, 0.296925,-0.203870, 9.800034,1,1
1778259285365,   342.022,   342.017,-0.022835, 0.019836,-0.993694,-0.000235, 0.000199,-0.009938, 0.028571,-0.013169, 0.054174,1,-0.000061,-0.002263,-0.006943,1, 0.297471,-0.202953, 9.800036,1,1
1778259285388,   342.042,   342.042,-0.020281, 0.015947,-0.991007,-0.000200, 0.000163,-0.009909, 0.098868,-0.048962, 0.081519,1,-0.014216, 0.002725,-0.012613,1, 0.297681,-0.205780, 9.799971,1,1
1778259285414,   342.067,   342.067,-0.027160, 0.021179,-0.998970,-0.000265, 0.000208,-0.009982, 0.030712,-0.000269, 0.003395,1,-0.012724, 0.004795,-0.011164,1, 0.296919,-0.208355, 9.799939,1,1
1778259285435,   342.092,   342.087,-0.033284, 0.005251,-0.996300,-0.000339, 0.000066,-0.009975,-0.034710,-0.065573,-0.028175,1,-0.010463, 0.000148,-0.006963,1, 0.296441,-0.210622, 9.799906,1,1
1778259285458,   342.112,   342.112,-0.025632, 0.000567,-0.985551,-0.000263, 0.000002,-0.009856, 0.045733,-0.207849, 0.134875,1,-0.013264,-0.002718,-0.001454,1, 0.297184,-0.213823, 9.799813,1,1
1778259285484,   342.137,   342.137,-0.020167, 0.018217,-0.995452,-0.000201, 0.000170,-0.009937, 0.099424,-0.037730, 0.037709,1,-0.016011, 0.001693, 0.000850,1, 0.297144,-0.216875, 9.799747,1,1
1778259285505,   342.162,   342.157,-0.034312, 0.013237,-1.003829,-0.000336, 0.000151,-0.010049, 0.025089, 0.020065,-0.072109,1,-0.013382, 0.004522, 0.004078,1, 0.296222,-0.218960, 9.799729,1,1
1778259285528,   342.182,   342.182,-0.040207, 0.001829,-0.986177,-0.000405, 0.000012,-0.009870,-0.098770,-0.204459, 0.128581,1,-0.014109, 0.001079, 0.009474,1, 0.295484,-0.222840, 9.799664,1,1
1778259285554,   342.207,   342.207,-0.032967, 0.017166,-0.989425,-0.000338, 0.000162,-0.009882,-0.027869,-0.057618, 0.096648,1,-0.022957,-0.000881, 0.009481,1, 0.295443,-0.226685, 9.799577,1,1
1778259285575,   342.232,   342.227,-0.026150, 0.024474,-1.001907,-0.000260, 0.000243,-0.010023, 0.031455, 0.016067,-0.025420,1,-0.030646,-0.000415, 0.008690,1, 0.295649,-0.232254, 9.799440,1,1
1778259285598,   342.252,   342.252,-0.028910, 0.022893,-0.991588,-0.000287, 0.000227,-0.009924, 0.011539,-0.017800, 0.075056,1,-0.043409, 0.003501, 0.006075,1, 0.294939,-0.243661, 9.799185,1,1
1778259285624,   342.277,   342.277,-0.034529, 0.022237,-0.989549,-0.000340, 0.000217,-0.009891,-0.044414,-0.033581, 0.094844,1,-0.051225, 0.004286, 0.002403,1, 0.294063,-0.253247, 9.798968,1,1
1778259285646,   342.302,   342.297,-0.030165, 0.032872,-0.997731,-0.000304, 0.000324,-0.009980,-0.031055, 0.022959, 0.021014,1,-0.053492, 0.002291, 0.003952,1, 0.293538,-0.263717, 9.798708,1,1
1778259285668,   342.327,   342.322,-0.024301, 0.032596,-0.994380,-0.000241, 0.000329,-0.009944, 0.055080, 0.040949, 0.046761,1,-0.059253, 0.000937,-0.001098,1, 0.293364,-0.280555, 9.798245,1,1
1778259285694,   342.347,   342.347,-0.022709, 0.030725,-0.994114,-0.000226, 0.000305,-0.009941, 0.070260, 0.010731, 0.049041,1,-0.063539, 0.003720,-0.003495,1, 0.292907,-0.292278, 9.797916,1,1
1778259285716,   342.372,   342.367,-0.028693, 0.035128,-0.996610,-0.000284, 0.000350,-0.009967, 0.025996, 0.035958, 0.020382,1,-0.064967, 0.004199,-0.003996,1, 0.292081,-0.304949, 9.797555,1,1
1778259285738,   342.397,   342.392,-0.028017, 0.033632,-0.994686,-0.000284, 0.000336,-0.009952, 0.020831,-0.003689, 0.068014,1,-0.064005, 0.000351,-0.005069,1, 0.291321,-0.323813, 9.796972,1,1
1778259285764,   342.417,   342.417,-0.021935, 0.033194,-0.993064,-0.000224, 0.000323,-0.009926, 0.076084,-0.008911, 0.057986,1,-0.064796, 0.000458,-0.005511,1, 0.291184,-0.336446, 9.796551,1,1
1778259285786,   342.442,   342.437,-0.021477, 0.037935,-0.998583,-0.000214, 0.000376,-0.009990, 0.093043, 0.017482, 0.018596,1,-0.064354, 0.002733,-0.005493,1, 0.290786,-0.349198, 9.796116,1,1
1778259285809,   342.467,   342.462,-0.025373, 0.037289,-0.994444,-0.000253, 0.000371,-0.009951, 0.041103, 0.000586, 0.043400,1,-0.056451, 0.002637,-0.003756,1, 0.289852,-0.366855, 9.795498,1,1
1778259285834,   342.487,   342.487,-0.025551, 0.036705,-0.991713,-0.000257, 0.000364,-0.009915, 0.038983,-0.015357, 0.069805,1,-0.047883, 0.001361,-0.001025,1, 0.289514,-0.376805, 9.795131,1,1
1778259285856,   342.512,   342.507,-0.024007, 0.041137,-0.997492,-0.000239, 0.000411,-0.009975, 0.050013, 0.005242, 0.025170,1,-0.039266,-0.000330, 0.002637,1, 0.289461,-0.385052, 9.794811,1,1
1778259285879,   342.537,   342.532,-0.026583, 0.041821,-0.994210,-0.000262, 0.000418,-0.009945, 0.028309, 0.016300, 0.044606,1,-0.028859, 0.002708, 0.004027,1, 0.288912,-0.394725, 9.794442,1,1
1778259285904,   342.557,   342.557,-0.031846, 0.041232,-0.993876,-0.000318, 0.000410,-0.009939,-0.024782, 0.005330, 0.047711,1,-0.022402, 0.003159, 0.005931,1, 0.287383,-0.399733, 9.794285,1,1
1778259285926,   342.582,   342.577,-0.033133, 0.045290,-0.995065,-0.000330, 0.000455,-0.009953,-0.046268, 0.042480, 0.025795,1,-0.015612, 0.000529, 0.006857,1, 0.287052,-0.403251, 9.794150,1,1
1778259285949,   342.607,   342.602,-0.030656, 0.045301,-0.993827,-0.000305, 0.000453,-0.009939,-0.013516, 0.037788, 0.047904,1,-0.010452, 0.000006, 0.007398,1, 0.287111,-0.406793, 9.794002,1,1
1778259285974,   342.627,   342.627,-0.031890, 0.045811,-0.994961,-0.000316, 0.000459,-0.009948,-0.025721, 0.040778, 0.036701,1,-0.010136, 0.001216, 0.005754,1, 0.286967,-0.408800, 9.793922,1,1
1778259285996,   342.652,   342.647,-0.036210, 0.044908,-0.993232,-0.000361, 0.000448,-0.009932,-0.054038, 0.032941, 0.045499,1,-0.011122, 0.001671, 0.004502,1, 0.286588,-0.410988, 9.793842,1,1
1778259286023,   342.677,   342.677,-0.036068, 0.046304,-0.994297,-0.000362, 0.000460,-0.009940,-0.067356, 0.040529, 0.043015,1,-0.009929,-0.000006, 0.002696,1, 0.286349,-0.413872, 9.793728,1,1
1778259286044,   342.697,   342.697,-0.033847, 0.047020,-0.996079,-0.000340, 0.000473,-0.009962,-0.045448, 0.045574, 0.025453,1,-0.010327,-0.001076, 0.001195,1, 0.286513,-0.415861, 9.793638,1,1
1778259286066,   342.722,   342.717,-0.032063, 0.045884,-0.993738,-0.000321, 0.000458,-0.009935,-0.025789, 0.030219, 0.040571,1,-0.010770, 0.001025,-0.000316,1, 0.286453,-0.417973, 9.793550,1,1
1778259286093,   342.747,   342.747,-0.032916, 0.045438,-0.993663,-0.000328, 0.000453,-0.009937,-0.036276, 0.024451, 0.048909,1,-0.010450, 0.000782,-0.001482,1, 0.286949,-0.421882, 9.793368,1,1
1778259286115,   342.772,   342.767,-0.031042, 0.044920,-0.995694,-0.000313, 0.000448,-0.009956,-0.029213, 0.011998, 0.028002,1,-0.008912,-0.000438,-0.001375,1, 0.286926,-0.423764, 9.793287,1,1
1778259286136,   342.792,   342.787,-0.028632, 0.045297,-0.993952,-0.000285, 0.000454,-0.009940,-0.008624, 0.016316, 0.041837,1,-0.008310,-0.000031,-0.001567,1, 0.286967,-0.425377, 9.793217,1,1
1778259286163,   342.817,   342.817,-0.029602, 0.043578,-0.994736,-0.000294, 0.000436,-0.009946,-0.003494, 0.000125, 0.038116,1,-0.007167, 0.001997,-0.001922,1, 0.286743,-0.427452, 9.793133,1,1
1778259286185,   342.842,   342.837,-0.030575, 0.042902,-0.995482,-0.000305, 0.000427,-0.009952,-0.013193,-0.019229, 0.026886,1,-0.005615, 0.001123,-0.001939,1, 0.286529,-0.428614, 9.793088,1,1
1778259286206,   342.862,   342.857,-0.028571, 0.042605,-0.992997,-0.000289, 0.000428,-0.009932,-0.005328,-0.004303, 0.051924,1,-0.004204, 0.000083,-0.000529,1, 0.286463,-0.429540, 9.793050,1,1
1778259286233,   342.887,   342.887,-0.027715, 0.042149,-0.994100,-0.000275, 0.000421,-0.009936, 0.014682,-0.017195, 0.044218,1,-0.003072,-0.000610, 0.000681,1, 0.286494,-0.430634, 9.793000,1,1
1778259286255,   342.912,   342.907,-0.029202, 0.045406,-0.997427,-0.000292, 0.000457,-0.009976, 0.011231, 0.019220, 0.011131,1,-0.002981, 0.001372, 0.000338,1, 0.286285,-0.431264, 9.792979,1,1
1778259286276,   342.932,   342.927,-0.031524, 0.041883,-0.993119,-0.000311, 0.000422,-0.009933,-0.016262,-0.001230, 0.035253,1,-0.001614, 0.000765, 0.000418,1, 0.286176,-0.431601, 9.792967,1,1
1778259286303,   342.957,   342.957,-0.031571, 0.043567,-0.992693,-0.000313, 0.000435,-0.009925,-0.023365,-0.004701, 0.057959,1,-0.000712,-0.000157, 0.001567,1, 0.286249,-0.431974, 9.792949,1,1
1778259286325,   342.982,   342.977,-0.030347, 0.044423,-0.996150,-0.000303, 0.000446,-0.009964,-0.017998, 0.013089, 0.025748,1,-0.001307,-0.000244, 0.000112,1, 0.286308,-0.432300, 9.792933,1,1
1778259286346,   343.002,   342.997,-0.029790, 0.043111,-0.993027,-0.000300, 0.000431,-0.009928,-0.009579,-0.005532, 0.042079,1,-0.002106,-0.000984, 0.000214,1, 0.286351,-0.432704, 9.792913,1,1
1778259286373,   343.027,   343.027,-0.030825, 0.044863,-0.995969,-0.000309, 0.000447,-0.009956,-0.014517,-0.003589, 0.042111,1,-0.002624, 0.001301, 0.000221,1, 0.286137,-0.433142, 9.792900,1,1
1778259286395,   343.052,   343.047,-0.030164, 0.043904,-0.993503,-0.000304, 0.000441,-0.009937,-0.020440,-0.003747, 0.035310,1,-0.003725,-0.000304,-0.000225,1, 0.286050,-0.434154, 9.792858,1,1
1778259286416,   343.072,   343.067,-0.027919, 0.047707,-0.993713,-0.000281, 0.000477,-0.009935,-0.003183, 0.009955, 0.054124,1,-0.004097,-0.000151, 0.001133,1, 0.286105,-0.434851, 9.792826,1,1
1778259286443,   343.097,   343.097,-0.026705, 0.046283,-0.996124,-0.000268, 0.000467,-0.009965, 0.024244, 0.018250, 0.024152,1,-0.003637, 0.000049,-0.001676,1, 0.286128,-0.435745, 9.792785,1,1
1778259286465,   343.122,   343.117,-0.026561, 0.045036,-0.993598,-0.000268, 0.000446,-0.009933, 0.023641,-0.010312, 0.054609,1,-0.001765, 0.000262,-0.001112,1, 0.286176,-0.436205, 9.792764,1,1
1778259286487,   343.142,   343.137,-0.027159, 0.048255,-0.995576,-0.000270, 0.000483,-0.009954, 0.019776, 0.036775, 0.033692,1,-0.000813, 0.000536,-0.001204,1, 0.286012,-0.436466, 9.792756,1,1
1778259286514,   343.167,   343.167,-0.026275, 0.044085,-0.994723,-0.000264, 0.000443,-0.009950, 0.028494,-0.004083, 0.037849,1, 0.002021,-0.000525,-0.001429,1, 0.286178,-0.436342, 9.792757,1,1
1778259286535,   343.192,   343.187,-0.025531, 0.046829,-0.993460,-0.000253, 0.000465,-0.009933, 0.032297,-0.002590, 0.057244,1, 0.003986, 0.001009,-0.000984,1, 0.286161,-0.435585, 9.792791,1,1
1778259286558,   343.212,   343.212,-0.026315, 0.048535,-0.997120,-0.000264, 0.000487,-0.009973, 0.028092, 0.041836, 0.014452,1, 0.007360,-0.000492,-0.001826,1, 0.286175,-0.433902, 9.792866,1,1
1778259286584,   343.237,   343.237,-0.027525, 0.043832,-0.994890,-0.000275, 0.000441,-0.009951, 0.016319,-0.002474, 0.036396,1, 0.010057,-0.000613,-0.000477,1, 0.286269,-0.432006, 9.792947,1,1
1778259286605,   343.262,   343.257,-0.026610, 0.044892,-0.993389,-0.000264, 0.000449,-0.009932, 0.034279, 0.002812, 0.065511,1, 0.011485,-0.001200,-0.000585,1, 0.286481,-0.429691, 9.793042,1,1
1778259286628,   343.282,   343.282,-0.026821, 0.044225,-0.997146,-0.000268, 0.000444,-0.009972, 0.023734, 0.007343, 0.014514,1, 0.014167,-0.000912,-0.000781,1, 0.286785,-0.425915, 9.793199,1,1
1778259286654,   343.307,   343.307,-0.028210, 0.045276,-0.994694,-0.000279, 0.000455,-0.009948, 0.010249, 0.020787, 0.038694,1, 0.017019,-0.000716, 0.000032,1, 0.286920,-0.422693, 9.793334,1,1
1778259286675,   343.332,   343.327,-0.029930, 0.042043,-0.993894,-0.000298, 0.000424,-0.009937,-0.005591, 0.011813, 0.050183,1, 0.018288,-0.000897,-0.000705,1, 0.287178,-0.419123, 9.793480,1,1
1778259286698,   343.352,   343.352,-0.030139, 0.042163,-0.995020,-0.000304, 0.000419,-0.009953,-0.008425,-0.000775, 0.035875,1, 0.020016,-0.000541,-0.000412,1, 0.287139,-0.413637, 9.793715,1,1
1778259286724,   343.377,   343.377,-0.029416, 0.043327,-0.994480,-0.000294, 0.000437,-0.009947,-0.001216, 0.014568, 0.041335,1, 0.019755,-0.001704,-0.000448,1, 0.287308,-0.409706, 9.793875,1,1
1778259286745,   343.402,   343.397,-0.030743, 0.039784,-0.994652,-0.000308, 0.000397,-0.009945,-0.009805,-0.013527, 0.052335,1, 0.020648,-0.000564,-0.000502,1, 0.287500,-0.405795, 9.794032,1,1
1778259286768,   343.422,   343.422,-0.031074, 0.041895,-0.996014,-0.000309, 0.000421,-0.009961,-0.017007, 0.010411, 0.026685,1, 0.020298,-0.000997,-0.001592,1, 0.287757,-0.399801, 9.794271,1,1
1778259286794,   343.447,   343.447,-0.030474, 0.038772,-0.994311,-0.000305, 0.000393,-0.009941,-0.010884,-0.016407, 0.043532,1, 0.019057,-0.002013,-0.000838,1, 0.288023,-0.396040, 9.794415,1,1
1778259286815,   343.472,   343.467,-0.028704, 0.039782,-0.995160,-0.000286, 0.000393,-0.009947, 0.003821,-0.023663, 0.045240,1, 0.017119,-0.001030,-0.000228,1, 0.288299,-0.392538, 9.794549,1,1
1778259286838,   343.492,   343.492,-0.028593, 0.039951,-0.995351,-0.000285, 0.000399,-0.009953, 0.008043, 0.003411, 0.033655,1, 0.014792,-0.000923,-0.001260,1, 0.288475,-0.387913, 9.794727,1,1
1778259286864,   343.517,   343.517,-0.028621, 0.037746,-0.994268,-0.000285, 0.000380,-0.009944, 0.007861,-0.015287, 0.044384,1, 0.015235,-0.000751,-0.000870,1, 0.288561,-0.384973, 9.794841,1,1
1778259286886,   343.542,   343.537,-0.028893, 0.037067,-0.994294,-0.000289, 0.000370,-0.009945, 0.008008,-0.022550, 0.050126,1, 0.015146, 0.000133,-0.000300,1, 0.288618,-0.382124, 9.794951,1,1
1778259286908,   343.567,   343.562,-0.029013, 0.038397,-0.995630,-0.000290, 0.000383,-0.009954, 0.004330,-0.001872, 0.031288,1, 0.012230,-0.000272,-0.000524,1, 0.288860,-0.378039, 9.795102,1,1
1778259286934,   343.587,   343.587,-0.028899, 0.038483,-0.995068,-0.000290, 0.000387,-0.009953, 0.005602, 0.001583, 0.036899,1, 0.012828,-0.001037,-0.000550,1, 0.289040,-0.375408, 9.795198,1,1
1778259286956,   343.612,   343.607,-0.029605, 0.036344,-0.994268,-0.000297, 0.000361,-0.009942,-0.002435,-0.016341, 0.051533,1, 0.011299,-0.001004,-0.000270,1, 0.289181,-0.373128, 9.795281,1,1
1778259286978,   343.637,   343.632,-0.029813, 0.035560,-0.995323,-0.000297, 0.000356,-0.009954,-0.002992,-0.022073, 0.034576,1, 0.007932,-0.001502,-0.001476,1, 0.289427,-0.370552, 9.795372,1,1
1778259287004,   343.657,   343.657,-0.029219, 0.036626,-0.994202,-0.000293, 0.000365,-0.009943, 0.003017,-0.010349, 0.045612,1, 0.005277,-0.000513,-0.001538,1, 0.289579,-0.369357, 9.795412,1,1
1778259287026,   343.682,   343.677,-0.029320, 0.036579,-0.995341,-0.000294, 0.000362,-0.009956, 0.003605,-0.008343, 0.034670,1, 0.004030,-0.000042,-0.001295,1, 0.289709,-0.368444, 9.795443,1,1
1778259287048,   343.707,   343.702,-0.029397, 0.035747,-0.994527,-0.000296, 0.000358,-0.009946, 0.001503,-0.016947, 0.042497,1, 0.003558,-0.000054,-0.001172,1, 0.289796,-0.367390, 9.795480,1,1
1778259287074,   343.727,   343.727,-0.028601, 0.036274,-0.994217,-0.000289, 0.000363,-0.009939, 0.009319,-0.011008, 0.045562,1, 0.003251,-0.000761,-0.000148,1, 0.289825,-0.366631, 9.795507,1,1
1778259287096,   343.752,   343.747,-0.028947, 0.035276,-0.995400,-0.000291, 0.000353,-0.009954, 0.007592,-0.017426, 0.040559,1, 0.002823, 0.000127,-0.000296,1, 0.289825,-0.365725, 9.795542,1,1
1778259287119,   343.777,   343.772,-0.029849, 0.036370,-0.994872,-0.000297, 0.000362,-0.009949,-0.002886,-0.008546, 0.039202,1, 0.001329, 0.000261,-0.000450,1, 0.289827,-0.365176, 9.795562,1,1
1778259287144,   343.797,   343.797,-0.029680, 0.036648,-0.994478,-0.000298, 0.000367,-0.009946,-0.001255,-0.005614, 0.043070,1, 0.000744, 0.000175,-0.000547,1, 0.289800,-0.364983, 9.795569,1,1
1778259287166,   343.822,   343.817,-0.029380, 0.036825,-0.995358,-0.000293, 0.000367,-0.009955, 0.000187,-0.010044, 0.036615,1, 0.000013,-0.000539,-0.000047,1, 0.289842,-0.364992, 9.795568,1,1
1778259287189,   343.847,   343.842,-0.028562, 0.036260,-0.994295,-0.000286, 0.000364,-0.009944, 0.009801,-0.009451, 0.044856,1,-0.001592,-0.000103,-0.000625,1, 0.289903,-0.365092, 9.795563,1,1
1778259287214,   343.867,   343.867,-0.029012, 0.036506,-0.994513,-0.000292, 0.000365,-0.009946, 0.005458,-0.007385, 0.042712,1,-0.001442,-0.000078,-0.000827,1, 0.289970,-0.365430, 9.795548,1,0
1778259287236,   343.892,   343.887,-0.029477, 0.036574,-0.994897,-0.000295, 0.000367,-0.009951, 0.006775,-0.002982, 0.032962,1,-0.001539, 0.000257, 0.000010,1, 0.289845,-0.365735, 9.795541,1,0
1778259287263,   343.917,   343.917,-0.030268, 0.035427,-0.994003,-0.000301, 0.000355,-0.009938,-0.007010,-0.018861, 0.047683,1,-0.002566, 0.000281, 0.000535,1, 0.289813,-0.366364, 9.795518,1,0
1778259287284,   343.937,   343.937,-0.030881, 0.037710,-0.995198,-0.000307, 0.000375,-0.009950,-0.013151, 0.002952, 0.035940,1,-0.003050, 0.000533,-0.000268,1, 0.289672,-0.366949, 9.795500,1,0
1778259287306,   343.962,   343.957,-0.030840, 0.036023,-0.993771,-0.000310, 0.000359,-0.009939,-0.016628,-0.001501, 0.035179,1,-0.004003, 0.000325, 0.000589,1, 0.289690,-0.367562, 9.795477,1,0
1778259287333,   343.987,   343.987,-0.029793, 0.036305,-0.993371,-0.000300, 0.000361,-0.009934,-0.002509,-0.012750, 0.053786,1,-0.004886, 0.000526,-0.000559,1, 0.289647,-0.368934, 9.795426,1,0
1778259287355,   344.012,   344.007,-0.028958, 0.037583,-0.995864,-0.000288, 0.000379,-0.009961, 0.010390, 0.007641, 0.034490,1,-0.006411,-0.000104,-0.000246,1, 0.289625,-0.370138, 9.795382,1,0
1778259287376,   344.032,   344.027,-0.028620, 0.037351,-0.994226,-0.000288, 0.000369,-0.009944, 0.011339,-0.009963, 0.034953,1,-0.006335, 0.000253,-0.000019,1, 0.289600,-0.371364, 9.795336,1,0
1778259287403,   344.057,   344.057,-0.028322, 0.038223,-0.994585,-0.000283, 0.000381,-0.009945, 0.011765, 0.001981, 0.041737,1,-0.005334, 0.000305, 0.000228,1, 0.289500,-0.373021, 9.795276,1,0
1778259287425,   344.082,   344.077,-0.029406, 0.037911,-0.995114,-0.000296, 0.000380,-0.009951,-0.000195,-0.003971, 0.031707,1,-0.004589,-0.000134, 0.000189,1, 0.289460,-0.373980, 9.795240,1,0
1778259287446,   344.102,   344.097,-0.029472, 0.039399,-0.994662,-0.000295, 0.000394,-0.009948,-0.000970, 0.008305, 0.031446,1,-0.003508, 0.000161, 0.000935,1, 0.289372,-0.374732, 9.795215,1,0
1778259287473,   344.127,   344.127,-0.029299, 0.038928,-0.994986,-0.000291, 0.000392,-0.009949, 0.001909, 0.006007, 0.037697,1,-0.003933, 0.000377, 0.000491,1, 0.289219,-0.375870, 9.795176,1,0
1778259287495,   344.152,   344.147,-0.028647, 0.039248,-0.994516,-0.000287, 0.000392,-0.009946, 0.000930, 0.000395, 0.044743,1,-0.004199,-0.000052,-0.000649,1, 0.289245,-0.376701, 9.795142,1,0
1778259287516,   344.172,   344.167,-0.027976, 0.040666,-0.994682,-0.000280, 0.000407,-0.009945, 0.013329, 0.012433, 0.042801,1,-0.003251,-0.000260,-0.000298,1, 0.289232,-0.377440, 9.795115,1,0
1778259287543,   344.197,   344.197,-0.027826, 0.040126,-0.994712,-0.000277, 0.000401,-0.009945, 0.020720, 0.011939, 0.034252,1,-0.001616,-0.000171,-0.000148,1, 0.289258,-0.378150, 9.795086,1,0
1778259287565,   344.222,   344.217,-0.028818, 0.041042,-0.994356,-0.000286, 0.000410,-0.009945, 0.011737, 0.017357, 0.040392,1, 0.000250, 0.000628, 0.000153,1, 0.289172,-0.378147, 9.795089,1,0
1778259287586,   344.242,   344.237,-0.029829, 0.040804,-0.994613,-0.000298, 0.000408,-0.009944, 0.001632, 0.027614, 0.044006,1, 0.002950,-0.000686,-0.000714,1, 0.289198,-0.377692, 9.795106,1,0
1778259287613,   344.267,   344.267,-0.030056, 0.040698,-0.994834,-0.000301, 0.000409,-0.009949,-0.005467, 0.022817, 0.039168,1, 0.007431,-0.000790, 0.000108,1, 0.289305,-0.376064, 9.795165,1,0
1778259287635,   344.292,   344.287,-0.030565, 0.041636,-0.995261,-0.000305, 0.000417,-0.009952,-0.006869, 0.031958, 0.041608,1, 0.010125,-0.001106,-0.000880,1, 0.289415,-0.374319, 9.795229,1,0
1778259287656,   344.312,   344.307,-0.031642, 0.041531,-0.995264,-0.000315, 0.000415,-0.009954,-0.008392, 0.038486, 0.040100,1, 0.013094,-0.000582,-0.000919,1, 0.289524,-0.371850, 9.795320,1,0
1778259287683,   344.337,   344.337,-0.032098, 0.041755,-0.994210,-0.000320, 0.000417,-0.009945,-0.025108, 0.042310, 0.045622,1, 0.020548,-0.000646,-0.000018,1, 0.289682,-0.366523, 9.795516,1,0
1778259287705,   344.362,   344.357,-0.032655, 0.042942,-0.995115,-0.000328, 0.000431,-0.009955,-0.029776, 0.066467, 0.028433,1, 0.026161,-0.001084,-0.000357,1, 0.289838,-0.362099, 9.795675,1,0
1778259287727,   344.382,   344.377,-0.032381, 0.042350,-0.993312,-0.000325, 0.000426,-0.009932,-0.030445, 0.058363, 0.051760,1, 0.032975,-0.000731,-0.001425,1, 0.290031,-0.356135, 9.795889,1,0
1778259287753,   344.407,   344.407,-0.029928, 0.042568,-0.995208,-0.000299, 0.000428,-0.009952,-0.002939, 0.070952, 0.036560,1, 0.040228,-0.003037,-0.001637,1, 0.290651,-0.345238, 9.796261,1,0
1778259287775,   344.432,   344.427,-0.026225, 0.041993,-0.996342,-0.000265, 0.000419,-0.009963, 0.018154, 0.082702, 0.022578,1, 0.043873,-0.002526,-0.002910,1, 0.291228,-0.336774, 9.796537,1,0
1778259287798,   344.452,   344.452,-0.024970, 0.043579,-0.991335,-0.000251, 0.000432,-0.009920, 0.047060, 0.103618, 0.075283,1, 0.055709,-0.002306,-0.004291,1, 0.292012,-0.322006, 9.797011,1,0
1778259287824,   344.477,   344.477,-0.025251, 0.050883,-0.997003,-0.000251, 0.000513,-0.009960, 0.044794, 0.187352, 0.020069,1, 0.067309,-0.002419,-0.006936,1, 0.292507,-0.309539, 9.797399,1,0
1778259287845,   344.502,   344.497,-0.026442, 0.042769,-0.996729,-0.000269, 0.000436,-0.009972, 0.034289, 0.183196, 0.003810,1, 0.084685,-0.003649,-0.008107,1, 0.293181,-0.294121, 9.797853,1,0
1778259287868,   344.522,   344.522,-0.025719, 0.038803,-0.993665,-0.000259, 0.000387,-0.009938, 0.042375, 0.113316, 0.054060,1, 0.114624,-0.006058,-0.004163,1, 0.294783,-0.263628, 9.798673,1,0
1778259287894,   344.547,   344.547,-0.027398, 0.044403,-0.996704,-0.000270, 0.000445,-0.009966, 0.026973, 0.193017, 0.024861,1, 0.138690,-0.005452,-0.003965,1, 0.295665,-0.238366, 9.799294,1,0
1778259287915,   344.572,   344.567,-0.033288, 0.040005,-0.995083,-0.000328, 0.000414,-0.009954, 0.003697, 0.206996, 0.023761,1, 0.166719,-0.007169,-0.001377,1, 0.296889,-0.207447, 9.799959,1,0
1778259287938,   344.592,   344.592,-0.039480, 0.026637,-0.995951,-0.000392, 0.000282,-0.009961,-0.088235, 0.103087, 0.033873,1, 0.201760,-0.008150, 0.000366,1, 0.299186,-0.151841, 9.800909,1,0
1778259287964,   344.617,   344.617,-0.043200, 0.024586,-0.993648,-0.000434, 0.000252,-0.009938,-0.122895, 0.124757, 0.056980,1, 0.222510,-0.009660, 0.001550,1, 0.301055,-0.109407, 9.801417,1,0
1778259287985,   344.642,   344.637,-0.049180, 0.025948,-0.998787,-0.000487, 0.000280,-0.009985,-0.160050, 0.209441, 0.049753,1, 0.241824,-0.009539, 0.001812,1, 0.302917,-0.063142, 9.801767,1,0
1778259288008,   344.662,   344.662,-0.056412, 0.006877,-0.998241,-0.000559, 0.000097,-0.009988,-0.247360, 0.071276, 0.012471,1, 0.263086,-0.011878, 0.003222,1, 0.306227, 0.012037, 9.801860,1,0
1778259288034,   344.687,   344.687,-0.059740,-0.011806,-0.991391,-0.000603,-0.000094,-0.009929,-0.277620,-0.060057, 0.079415,1, 0.264893,-0.012061, 0.003075,1, 0.308602, 0.063984, 9.801584,1,0
1778259288055,   344.712,   344.707,-0.064959,-0.012498,-0.991640,-0.000656,-0.000131,-0.009923,-0.323097,-0.082041, 0.103472,1, 0.265106,-0.011925, 0.004586,1, 0.311099, 0.116179, 9.801025,1,0
1778259288078,   344.732,   344.732,-0.067266,-0.007374,-0.997064,-0.000670,-0.000053,-0.009964,-0.345572, 0.113012, 0.022009,1, 0.259689,-0.011837, 0.001955,1, 0.314453, 0.193421, 9.799699,1,0
1778259288104,   344.757,   344.757,-0.066803,-0.022256,-0.992696,-0.000669,-0.000200,-0.009928,-0.338249, 0.016323, 0.063699,1, 0.247068,-0.014186,-0.002587,1, 0.317320, 0.242272, 9.798520,1,0
1778259288125,   344.782,   344.777,-0.083869,-0.010031,-0.991448,-0.000801,-0.000116,-0.009947,-0.254700, 0.071473, 0.145174,1, 0.231830,-0.007117,-0.012011,1, 0.319492, 0.288856, 9.797187,1,0
1778259288148,   344.807,   344.802,-0.143848, 0.032560,-0.993746,-0.001384, 0.000380,-0.009950,-1.092470, 0.661355, 0.050194,1, 0.167036, 0.024574,-0.045515,1, 0.317377, 0.347307, 9.795358,1,0
1778259288174,   344.827,   344.827,-0.158067,-0.049220,-1.030935,-0.001580,-0.000440,-0.010317,-1.237779,-0.104499,-0.315649,1, 0.207887, 0.012804,-0.048083,1, 0.311873, 0.384717, 9.794137,1,0
1778259288196,   344.852,   344.847,-0.151940, 0.016149,-0.910038,-0.001563, 0.000183,-0.009024,-1.307100, 0.436448, 1.015878,1, 0.229711,-0.036811,-0.029425,1, 0.317112, 0.428449, 9.792152,1,0
1778259288218,   344.877,   344.872,-0.128888,-0.049854,-1.064561,-0.001279,-0.000403,-0.010597,-0.943376,-0.007095,-0.650218,1, 0.198861,-0.017249,-0.053685,1, 0.321041, 0.488057, 9.789235,1,0
1778259288244,   344.897,   344.897,-0.159602,-0.070399,-1.028394,-0.001585,-0.000738,-0.010334,-1.241233,-0.165197,-0.297886,1, 0.231288,-0.009471,-0.043505,1, 0.324151, 0.532428, 9.786819,1,0
1778259288266,   344.922,   344.917,-0.188342,-0.000384,-0.974161,-0.001851, 0.000015,-0.009786,-1.348137, 0.511715, 0.105614,1, 0.231701, 0.024157,-0.046829,1, 0.320342, 0.577878, 9.784367,1,0
1778259288288,   344.947,   344.942,-0.260772,-0.036496,-0.989439,-0.002530,-0.000329,-0.009831,-2.240811, 0.281774, 0.077563,1, 0.237117, 0.000651,-0.059252,1, 0.316377, 0.646995, 9.780169,1,0
1778259288314,   344.967,   344.967,-0.286634,-0.012261,-1.004442,-0.002859,-0.000167,-0.010054,-2.495594, 0.564981,-0.072618,1, 0.228587,-0.001941,-0.067865,1, 0.315240, 0.692403, 9.777095,1,0
1778259288336,   344.992,   344.987,-0.276868,-0.008493,-0.931826,-0.002768,-0.000021,-0.009334,-2.524277, 0.854871, 0.156474,1, 0.228871,-0.028979,-0.093865,1, 0.318015, 0.737542, 9.773704,1,0
1778259288359,   345.017,   345.012,-0.236828,-0.042704,-0.974861,-0.002416,-0.000449,-0.009689,-1.997054, 0.382057, 0.208351,1, 0.230879,-0.038154,-0.102371,1, 0.326366, 0.808130, 9.767845,1,0
1778259288384,   345.037,   345.037,-0.212051,-0.018433,-1.046736,-0.002185,-0.000176,-0.010503,-1.746982, 0.668027,-0.500795,1, 0.250023,-0.046062,-0.113964,1, 0.333655, 0.856689, 9.763459,1,0
1778259288406,   345.062,   345.057,-0.213231,-0.020590,-0.953390,-0.001932,-0.000163,-0.009442,-1.365620, 0.502555,-0.015284,1, 0.267525,-0.047051,-0.141960,1, 0.340268, 0.908584, 9.758538,1,0
1778259288429,   345.087,   345.082,-0.209061,-0.050084,-0.982856,-0.002058,-0.000383,-0.009614,-1.703967, 0.485966, 0.113178,1, 0.251041,-0.043074,-0.144882,1, 0.347112, 0.985070, 9.750874,1,0
1778259288454,   345.107,   345.107,-0.232814,-0.026417,-1.073318,-0.002374,-0.000297,-0.010960,-1.931501, 0.765704,-0.779035,1, 0.240193,-0.049582,-0.163269,1, 0.352635, 1.032401, 9.745778,1,0
1778259288476,   345.132,   345.127,-0.208033,-0.135730,-0.909561,-0.002166,-0.001291,-0.008966,-2.051498, 0.097525, 0.783695,1, 0.252425,-0.034587,-0.195937,1, 0.356931, 1.083965, 9.740021,1,0
1778259288503,   345.157,   345.157,-0.096321,-0.080985,-1.048641,-0.001083,-0.000828,-0.010572,-0.584523, 0.339775,-0.549446,1, 0.133977,-0.046767,-0.199875,1, 0.360788, 1.138344, 9.733673,1,0
1778259288524,   345.177,   345.177,-0.029443,-0.142261,-0.987924,-0.000625,-0.001375,-0.010072, 0.077627,-0.239873, 0.043250,1, 0.066256,-0.070595,-0.231268,1, 0.367697, 1.157553, 9.731149,1,0
1778259288546,   345.202,   345.197,-0.156427,-0.168125,-1.017339,-0.001544,-0.001606,-0.010017,-1.046093,-0.502770,-0.492043,1,-0.018720,-0.030521,-0.235926,1, 0.369220, 1.159595, 9.730848,1,0
1778259288573,   345.227,   345.227,-0.126984,-0.110575,-0.925365,-0.001353,-0.001224,-0.009477,-0.875961, 0.060201, 0.657892,1,-0.104343,-0.023382,-0.237123,1, 0.369188, 1.141613, 9.732975,1,0
1778259288594,   345.252,   345.247,-0.098886,-0.041914,-1.009089,-0.001111,-0.000438,-0.009930,-0.756101, 0.490385, 0.973411,1,-0.154184,-0.001148,-0.269753,1, 0.365951, 1.117271, 9.735922,1,0
1778259288616,   345.272,   345.267,-0.123318,-0.080395,-1.065612,-0.001220,-0.000754,-0.010654,-0.811127, 0.704157,-0.884827,1,-0.159179,-0.017649,-0.262132,1, 0.360952, 1.086209, 9.739622,1,0
1778259288643,   345.297,   345.297,-0.147149,-0.111993,-1.027308,-0.001455,-0.001187,-0.010423,-1.079472,-0.040348,-0.331811,1,-0.101312,-0.038540,-0.238736,1, 0.363960, 1.055061, 9.742934,1,0
1778259288665,   345.322,   345.317,-0.113894,-0.045200,-0.907629,-0.001192,-0.000461,-0.008957,-0.610490, 0.537168, 1.205668,1,-0.086484,-0.044022,-0.252889,1, 0.367650, 1.040562, 9.744354,1,0
1778259288686,   345.342,   345.337,-0.126509,-0.077340,-0.883570,-0.001134,-0.000886,-0.009023,-0.489197, 0.223311, 0.752240,1,-0.059418,-0.075982,-0.238902,1, 0.375736, 1.028380, 9.745339,1,0
1778259288713,   345.367,   345.367,-0.257916,-0.218845,-1.161303,-0.002284,-0.001924,-0.010282,-2.143856,-1.121475,-1.643138,1,-0.019959,-0.068337,-0.181283,1, 0.386962, 1.024260, 9.745334,1,0
1778259288735,   345.392,   345.387,-0.099059, 0.011369,-1.105969,-0.000995, 0.000059,-0.011492,-0.837478, 0.613060,-1.232272,1,-0.014595,-0.043608,-0.217717,1, 0.390448, 1.020327, 9.745607,1,0
1778259288756,   345.412,   345.407,-0.072647,-0.142068,-0.854921,-0.000604,-0.001255,-0.008334,-0.414725, 0.460599, 0.168019,1, 0.012313, 0.019603,-0.229768,1, 0.385922, 1.020981, 9.745719,1,0
1778259288783,   345.437,   345.437,-0.137500,-0.133788,-0.828758,-0.001413,-0.001478,-0.008274,-0.966599,-0.288657, 1.618294,1,-0.037138,-0.033408,-0.198514,1, 0.382200, 1.022440, 9.745713,1,0
1778259288805,   345.462,   345.457,-0.212620,-0.027768,-1.216369,-0.002157,-0.000189,-0.012410,-1.759113, 1.017164,-2.204874,1,-0.089390,-0.027842,-0.206523,1, 0.384369, 1.008168, 9.747114,1,0
1778259288826,   345.482,   345.477,-0.236451,-0.123062,-0.904102,-0.002265,-0.001282,-0.009311,-1.979748, 0.123049,-0.982944,1, 0.008574,-0.049603,-0.199790,1, 0.388577, 1.004287, 9.747348,1,0
1778259288853,   345.507,   345.507,-0.249372,-0.037920,-0.909639,-0.002360,-0.000517,-0.009016,-2.059767, 0.629793, 0.827223,1,-0.083647, 0.031010,-0.221654,1, 0.384065, 0.999337, 9.748035,1,0
1778259288875,   345.532,   345.527,-0.373901,-0.163546,-1.018943,-0.003667,-0.001596,-0.010172,-2.919158,-0.029886,-0.510873,1,-0.060443,-0.010346,-0.234368,1, 0.377722, 0.986851, 9.749556,1,0
1778259288896,   345.552,   345.547,-0.381988,-0.080568,-1.005026,-0.003863,-0.000965,-0.010074,-3.541264,-0.357256, 0.209030,1,-0.046702,-0.039051,-0.198010,1, 0.380733, 0.980355, 9.750094,1,0
1778259288923,   345.577,   345.577,-0.365325,-0.111555,-0.926354,-0.003676,-0.000899,-0.009336,-3.194389,-0.132673, 0.667260,1,-0.056247,-0.064215,-0.186696,1, 0.389653, 0.959789, 9.751787,1,0
1778259288945,   345.602,   345.597,-0.354720,-0.142817,-0.991312,-0.003348,-0.001517,-0.009791,-3.014321,-0.955949, 0.528953,1,-0.085511,-0.047873,-0.159614,1, 0.396855, 0.945627, 9.752881,1,0
1778259288966,   345.622,   345.617,-0.323597,-0.169347,-0.972992,-0.003219,-0.001617,-0.009616,-2.855958,-0.363681, 0.322754,1,-0.082544,-0.043291,-0.140420,1, 0.401216, 0.926028, 9.754582,1,0
1778259288993,   345.647,   345.647,-0.289466,-0.050198,-0.890546,-0.002932,-0.000669,-0.009063,-2.419138, 0.418720, 1.021950,1,-0.066057,-0.089000,-0.059613,1, 0.422145, 0.909026, 9.755299,1,0
1778259289015,   345.672,   345.667,-0.135267,-0.213948,-1.057995,-0.001280,-0.001955,-0.010172,-1.145057,-0.530772, 0.826855,1,-0.023733,-0.079495,-0.024186,1, 0.438961, 0.903679, 9.755054,1,0
1778259289038,   345.692,   345.692,-0.029526,-0.108502,-1.115578,-0.000422,-0.000805,-0.011471, 0.161436,-0.172144,-1.184493,1,-0.004266,-0.054374,-0.053077,1, 0.452524, 0.891838, 9.755523,1,0
1778259289064,   345.717,   345.717,-0.006148,-0.161068,-0.906433, 0.000009,-0.001643,-0.009039, 0.400225,-0.685207, 0.865854,1, 0.003098,-0.041764,-0.034473,1, 0.461716, 0.894481, 9.754850,1,0
1778259289085,   345.742,   345.737, 0.082217,-0.081039,-0.948963, 0.000831,-0.000754,-0.009453, 0.837187, 0.847461, 0.771785,1,-0.070381,-0.011600,-0.031794,1, 0.464185, 0.883124, 9.755768,1,0
1778259289108,   345.762,   345.762, 0.132363, 0.018959,-1.172085, 0.001168, 0.000039,-0.011689, 1.766432, 1.047222,-1.736710,1,-0.119659,-0.006818,-0.056939,1, 0.468448, 0.857666, 9.757835,1,0
1778259289134,   345.787,   345.787, 0.111814,-0.056442,-0.951717, 0.001154,-0.000753,-0.009852, 1.570243, 0.287797, 0.425849,1,-0.093601,-0.037472,-0.083432,1, 0.474661, 0.838519, 9.759199,1,0
1778259289155,   345.812,   345.807, 0.075914, 0.036605,-1.021561, 0.000678, 0.000602,-0.010260, 0.862515, 1.684689,-0.069301,1,-0.210542, 0.013876,-0.112013,1, 0.472431, 0.809498, 9.761757,1,0
1778259289178,   345.832,   345.832, 0.006957,-0.027272,-1.095151, 0.000064,-0.000490,-0.010960, 0.537941, 0.494239,-0.974030,1,-0.204411, 0.001287,-0.173875,1, 0.469251, 0.755594, 9.766231,1,0
1778259289204,   345.857,   345.857,-0.047020, 0.031270,-1.000562,-0.000335, 0.000514,-0.010169, 0.007750, 1.025747,-0.043164,1,-0.176360,-0.036033,-0.211055,1, 0.469500, 0.713928, 9.769353,1,0
1778259289225,   345.882,   345.877,-0.167188, 0.108925,-0.986565,-0.001560, 0.000899,-0.009873,-0.754820, 0.558288, 1.468539,1,-0.188162,-0.011095,-0.203950,1, 0.471628, 0.680919, 9.771606,1,0
1778259289248,   345.902,   345.902,-0.283258,-0.076506,-0.974884,-0.002711,-0.000564,-0.009762,-2.309280,-0.108178, 0.214039,1,-0.116227,-0.008862,-0.229348,1, 0.468343, 0.638813, 9.774608,1,0
1778259289274,   345.927,   345.927,-0.265679, 0.022856,-1.058240,-0.003026, 0.000279,-0.010560,-2.140617, 0.848929,-0.602107,1,-0.112537, 0.024328,-0.207521,1, 0.463632, 0.621595, 9.775943,1,0
1778259289295,   345.952,   345.947,-0.388570,-0.030687,-1.016238,-0.003777,-0.000486,-0.010194,-3.151870,-0.157386, 0.285411,1,-0.056866,-0.021096,-0.204325,1, 0.464139, 0.612921, 9.776466,1,0
1778259289318,   345.972,   345.972,-0.408241,-0.092539,-1.046716,-0.003985,-0.000820,-0.010176,-3.535999,-0.306729,-0.487720,1,-0.058805,-0.031018,-0.183597,1, 0.468089, 0.599210, 9.777127,1,0
1778259289344,   345.997,   345.997,-0.403446,-0.038036,-0.943748,-0.004173,-0.000288,-0.009973,-3.485618, 0.216241, 0.522591,1,-0.023367,-0.027885,-0.166203,1, 0.471391, 0.588772, 9.777603,1,0
1778259289365,   346.022,   346.017,-0.307464,-0.096856,-1.046100,-0.003160,-0.000891,-0.010357,-3.065087,-0.600217, 0.302972,1,-0.101619, 0.040936,-0.159558,1, 0.467037, 0.581633, 9.778239,1,0
1778259289388,   346.047,   346.042,-0.375104,-0.066751,-1.020421,-0.003595,-0.000734,-0.010216,-3.212598,-0.100829,-0.227007,1,-0.115394,-0.009459,-0.140980,1, 0.465963, 0.550393, 9.780099,1,0
1778259289414,   346.067,   346.067,-0.182464,-0.075434,-0.935248,-0.002230,-0.000534,-0.009153,-1.328443,-0.209694, 0.609807,1,-0.171943, 0.028374,-0.146210,1, 0.459784, 0.524921, 9.781792,1,0
1778259289435,   346.092,   346.087, 0.110644,-0.101818,-0.957365, 0.001075,-0.001185,-0.009469, 0.213061,-0.260790, 0.434278,1,-0.183529, 0.013860,-0.125941,1, 0.456842, 0.490398, 9.783721,1,0
1778259289458,   346.117,   346.112, 0.079873,-0.103957,-1.061016, 0.000731,-0.001024,-0.010585, 1.228613,-0.582453,-0.618236,1,-0.211777, 0.046553,-0.102400,1, 0.443733, 0.430566, 9.787140,1,0
1778259289484,   346.137,   346.137, 0.071225,-0.141401,-1.035802, 0.000810,-0.001419,-0.010105, 1.135084,-0.987132,-0.368971,1,-0.161735, 0.018640,-0.078686,1, 0.435921, 0.394607, 9.789006,1,0
1778259289506,   346.162,   346.157,-0.032375,-0.075034,-0.930355,-0.000187,-0.000666,-0.009054, 0.436182,-0.573627, 0.413857,1,-0.156203,-0.002480,-0.046061,1, 0.434809, 0.362173, 9.790309,1,0
1778259289528,   346.187,   346.182,-0.071147,-0.058546,-0.877215,-0.000855,-0.000663,-0.009087,-0.257132,-0.241117, 1.188542,1,-0.097496,-0.002943, 0.007120,1, 0.440684, 0.329970, 9.791185,1,0
1778259289554,   346.207,   346.207,-0.109454,-0.078892,-0.899543,-0.000999,-0.000711,-0.008686,-0.629680,-0.455468, 0.969937,1,-0.062920,-0.015713, 0.023351,1, 0.444211, 0.316200, 9.791480,1,0
1778259289576,   346.232,   346.227,-0.193034,-0.168573,-1.052555,-0.001577,-0.001626,-0.009845,-0.635469,-0.366196, 1.570419,1,-0.051340, 0.041354, 0.027135,1, 0.437919, 0.305387, 9.792107,1,0
1778259289598,   346.257,   346.252,-0.336296,-0.138511,-1.274908,-0.003195,-0.001542,-0.012645,-2.868326,-1.067329,-2.709669,1,-0.033909, 0.018739, 0.122622,1, 0.429142, 0.289773, 9.792970,1,0
1778259289624,   346.277,   346.277,-0.420142,-0.045277,-0.897149,-0.004502,-0.000485,-0.009807,-3.688204,-0.156810, 0.994894,1, 0.001021, 0.003340, 0.118722,1, 0.431989, 0.287076, 9.792924,1,0
1778259289646,   346.302,   346.297,-0.402000,-0.039791,-0.819531,-0.004571,-0.000335,-0.008287,-5.030585,-0.314387, 2.303553,1,-0.007252,-0.000846, 0.119826,1, 0.436555, 0.290303, 9.792626,1,0
1778259289669,   346.327,   346.317,-0.231822,-0.057811,-1.390868,-0.002459,-0.000897,-0.013596,-2.169953,-0.208451,-0.431551,1,-0.100806, 0.023762, 0.111471,1, 0.428215, 0.271035, 9.793547,1,0
1778259289694,   346.347,   346.347, 0.138452,-0.021500,-0.875269, 0.000837,-0.000060,-0.008705, 1.784283, 0.037985, 1.210749,1,-0.024893, 0.014795, 0.087613,1, 0.426069, 0.248405, 9.794240,1,0
1778259289716,   346.372,   346.367,-0.020479, 0.038079,-0.968333,-0.000272, 0.000649,-0.009409, 1.294200, 0.386811,-0.565459,1,-0.087600, 0.032708, 0.073526,1, 0.418185, 0.226048, 9.795121,1,0
1778259289743,   346.397,   346.397,-0.119267, 0.010561,-0.994140,-0.000760, 0.000169,-0.009455,-0.753014, 0.304558, 0.046555,1,-0.076208,-0.024951, 0.049701,1, 0.417402, 0.198549, 9.795751,1,0
1778259289764,   346.417,   346.417,-0.084393, 0.059145,-1.033964,-0.001296, 0.000453,-0.011053,-0.407983, 0.758093,-0.343676,1,-0.098771,-0.031141, 0.020340,1, 0.420613, 0.174968, 9.796063,1,0
1778259289786,   346.442,   346.437,-0.047454, 0.102234,-1.033425,-0.000071, 0.001388,-0.009349, 0.298767, 0.093146,-0.732350,1,-0.116200, 0.014637,-0.005412,1, 0.421475, 0.157615, 9.796321,1,0
1778259289813,   346.467,   346.467, 0.124664, 0.117336,-1.125420, 0.000731, 0.000657,-0.012500, 1.650002, 1.276276,-1.240075,1,-0.155162,-0.013512,-0.060919,1, 0.427865, 0.120846, 9.796566,1,0
1778259289834,   346.492,   346.487,-0.073145, 0.118489,-0.907524,-0.000203, 0.001305,-0.008498, 1.152778, 0.485650,-0.826622,1,-0.045809,-0.033391,-0.076607,1, 0.434235, 0.108008, 9.796436,1,0
1778259289856,   346.512,   346.507,-0.062888, 0.049844,-0.803545,-0.000681, 0.000268,-0.008083,-0.049142, 0.089457, 1.818845,1,-0.002408,-0.039516,-0.094166,1, 0.438160, 0.103756, 9.796308,1,0
1778259289883,   346.537,   346.537,-0.092397, 0.021272,-1.209217,-0.001289, 0.000302,-0.011977,-0.469481, 0.295213,-2.061826,1,-0.077334, 0.007538,-0.132719,1, 0.436350, 0.084379, 9.796574,1,0
1778259289905,   346.562,   346.557,-0.151391, 0.049419,-0.915638,-0.001299, 0.000377,-0.009654,-1.158164, 0.963849,-0.350275,1, 0.012827,-0.043074,-0.121438,1, 0.440476, 0.079129, 9.796433,1,0
1778259289926,   346.582,   346.577,-0.259977,-0.027226,-0.919388,-0.002523,-0.000115,-0.008924,-1.436370, 0.771124, 1.241846,1,-0.055371,-0.042969,-0.133663,1, 0.446288, 0.068772, 9.796248,1,0
1778259289953,   346.607,   346.607,-0.282660, 0.056800,-0.914062,-0.002401, 0.000928,-0.008551,-2.311111, 0.612520, 0.831772,1,-0.061728,-0.053430,-0.164450,1, 0.462469, 0.053816, 9.795591,1,0
1778259289975,   346.632,   346.627,-0.189065,-0.030644,-1.014725,-0.002090,-0.000269,-0.010092,-1.450837, 0.379539, 0.675930,1,-0.100289,-0.038330,-0.157157,1, 0.465598, 0.033378, 9.795534,1,0
1778259289996,   346.652,   346.647,-0.197360, 0.048141,-0.961876,-0.002653, 0.000745,-0.009692,-1.143912, 0.805041,-0.104849,1,-0.160842, 0.026952,-0.157344,1, 0.464368, 0.008447, 9.795646,1,0
1778259290023,   346.677,   346.677,-0.417919, 0.084429,-0.949413,-0.003695, 0.000957,-0.008995,-3.634454, 0.793540, 0.485043,1,-0.176856, 0.000702,-0.187644,1, 0.463932,-0.039658, 9.795589,1,0
1778259290045,   346.702,   346.697,-0.303002, 0.038328,-1.030178,-0.002934, 0.000235,-0.010411,-3.971466, 0.810680, 0.467295,1,-0.249950, 0.006408,-0.186166,1, 0.461550,-0.078647, 9.795466,1,0
1778259290066,   346.722,   346.717, 0.055409, 0.002975,-1.000659,-0.000091, 0.000599,-0.009772,-0.777194, 0.028104,-1.896332,1,-0.249084, 0.008413,-0.167446,1, 0.458940,-0.122561, 9.795138,1,0
1778259290093,   346.747,   346.747, 0.116941,-0.050790,-1.024148, 0.001196,-0.000557,-0.010566, 1.598229,-0.674899,-0.248805,1,-0.219257, 0.051197,-0.142340,1, 0.449946,-0.183489, 9.794604,1,0
1778259290115,   346.772,   346.767,-0.042833,-0.025779,-0.780709,-0.001084,-0.000511,-0.009111, 0.681268,-0.710495,-0.341432,1,-0.198712, 0.015939,-0.126893,1, 0.442751,-0.221000, 9.794157,1,0
1778259290136,   346.792,   346.787,-0.072141,-0.017925,-0.894211,-0.000964,-0.000316,-0.008669,-0.611757,-1.034505, 1.567000,1,-0.154927, 0.065223,-0.071678,1, 0.438183,-0.245562, 9.793777,1,0
1778259290163,   346.817,   346.817,-0.177263,-0.038582,-1.322886,-0.001314,-0.000657,-0.013262,-1.315386,-0.667967,-3.179843,1,-0.164639, 0.032443, 0.000684,1, 0.421961,-0.294738, 9.793134,1,0
1778259290185,   346.842,   346.837,-0.170781,-0.069404,-0.862240,-0.001324,-0.000726,-0.008534,-2.408781,-1.446709,-0.019316,1,-0.065889,-0.011054,-0.005083,1, 0.425322,-0.311207, 9.792479,1,0
1778259290206,   346.862,   346.857,-0.242139, 0.019794,-1.103625,-0.002012, 0.000093,-0.010797,-1.809067,-1.069443,-0.842006,1,-0.142396, 0.066855, 0.076914,1, 0.414074,-0.335170, 9.792170,1,0
1778259290233,   346.887,   346.887,-0.379562,-0.070898,-0.736118,-0.003732,-0.000574,-0.008530,-3.311605,-1.052212, 2.572689,1,-0.006232,-0.038345, 0.074601,1, 0.411737,-0.357227, 9.791489,1,0
1778259290255,   346.912,   346.907,-0.322608,-0.011339,-1.078094,-0.003389,-0.000481,-0.011012,-3.331884,-1.272359, 0.464161,1,-0.117002, 0.038184, 0.150423,1, 0.407169,-0.364666, 9.791406,1,0
1778259290278,   346.932,   346.932,-0.186871,-0.133035,-1.172020,-0.001552,-0.001577,-0.012172,-1.433349,-1.683849,-1.702408,1, 0.022609, 0.008419, 0.248671,1, 0.398667,-0.378830, 9.791217,1,0
1778259290303,   346.957,   346.957,-0.040948,-0.117790,-0.863526,-0.000344,-0.001108,-0.009259,-0.004402,-1.529081, 1.323169,1, 0.067575,-0.049797, 0.225605,1, 0.398443,-0.372135, 9.791483,1,0
1778259290325,   346.982,   346.977,-0.243030,-0.022012,-1.075228,-0.001960,-0.000232,-0.009944,-1.983265,-1.503331,-0.151947,1,-0.002562, 0.001646, 0.200219,1, 0.394714,-0.370908, 9.791680,1,0
1778259290348,   347.002,   347.002,-0.246332,-0.010663,-1.068480,-0.001939,-0.000160,-0.009948,-2.017388,-0.472689,-0.686566,1, 0.028545,-0.057485, 0.299233,1, 0.399748,-0.367608, 9.791601,1,0
1778259290374,   347.027,   347.027,-0.159786, 0.003234,-0.837027,-0.001543,-0.000060,-0.008109,-1.163466,-0.331937, 1.583165,1, 0.018506,-0.026493, 0.280419,1, 0.403998,-0.363438, 9.791582,1,0
1778259290395,   347.052,   347.047,-0.220186,-0.019003,-1.060510,-0.001967, 0.000242,-0.010392,-1.426284,-1.030682,-2.101883,1,-0.009247,-0.046833, 0.277729,1, 0.411613,-0.364303, 9.791233,1,0
1778259290418,   347.072,   347.072,-0.250753, 0.104476,-0.764468,-0.002362, 0.000730,-0.009470,-2.040155, 0.665446, 2.294244,1, 0.064196,-0.042017, 0.265511,1, 0.419901,-0.357468, 9.791133,1,0
1778259290444,   347.097,   347.097,-0.244117, 0.025193,-0.826723,-0.002248, 0.000175,-0.008442,-1.974878,-0.099760, 1.684169,1, 0.028347, 0.015693, 0.250758,1, 0.418326,-0.346270, 9.791603,1,0
1778259290465,   347.122,   347.117,-0.161399, 0.107862,-0.978621,-0.001493, 0.000554,-0.010973,-2.070299,-0.180708,-3.451073,1, 0.047998,-0.060922, 0.233083,1, 0.418396,-0.350288, 9.791457,1,0
1778259290488,   347.142,   347.142,-0.180344,-0.001149,-0.767517,-0.001566,-0.000403,-0.007102,-1.338704,-0.328340, 2.265318,1, 0.091884,-0.033328, 0.227834,1, 0.430675,-0.314375, 9.792143,1,0
1778259290514,   347.167,   347.167,-0.106359,-0.006441,-1.188548,-0.001311,-0.000287,-0.011302,-0.611672,-0.373150,-1.863422,1, 0.029531,-0.016212, 0.189991,1, 0.431669,-0.309321, 9.792260,1,0
1778259290535,   347.192,   347.187,-0.170374, 0.050951,-0.748141,-0.001882, 0.000421,-0.008977,-0.900696, 0.105559,-1.343132,1, 0.108383,-0.077980, 0.227045,1, 0.443166,-0.292613, 9.792260,1,0
1778259290558,   347.212,   347.212,-0.027580,-0.230415,-1.120466,-0.000910,-0.001571,-0.009331, 0.183371,-2.515213,-1.195215,1, 0.090829,-0.040279, 0.192588,1, 0.454933,-0.253058, 9.792823,1,0
1778259290584,   347.237,   347.237,-0.104534,-0.027411,-1.102932,-0.001329,-0.000131,-0.012111,-0.558326,-0.513837,-1.023604,1, 0.203278,-0.157438, 0.188755,1, 0.471558,-0.238971, 9.792391,1,0
1778259290605,   347.262,   347.257,-0.101709,-0.019991,-0.733252,-0.000721,-0.000267,-0.007756,-0.454256,-0.063766, 3.454210,1, 0.169329,-0.069176, 0.229180,1, 0.491869,-0.202945, 9.792204,1,0
1778259290628,   347.287,   347.282,-0.004044,-0.074703,-1.062127,-0.000156,-0.000601,-0.010361, 0.452845,-0.917036,-0.623372,1, 0.087584, 0.012326, 0.190972,1, 0.492010,-0.182016, 9.792608,1,0
1778259290654,   347.307,   347.307, 0.016780,-0.040182,-1.019089, 0.000029, 0.000145,-0.010262, 0.658575,-0.569029,-0.201213,1, 0.067798,-0.028339, 0.176955,1, 0.494805,-0.173148, 9.792628,1,0
1778259290675,   347.332,   347.327,-0.039242,-0.004357,-1.219593,-0.000374,-0.000176,-0.011573,-0.228762,-0.556725, 0.669083,1, 0.050318, 0.026114, 0.207877,1, 0.491604,-0.165874, 9.792915,1,0
1778259290698,   347.357,   347.352,-0.041583, 0.069116,-0.812635,-0.000342, 0.000476,-0.008020, 0.082530, 0.515153, 1.823809,1, 0.001773, 0.038427, 0.124273,1, 0.489063,-0.162780, 9.793095,1,0
1778259290724,   347.377,   347.377,-0.023285, 0.028408,-1.392710, 0.000013, 0.000132,-0.013334, 0.252263, 0.104941,-3.864497,1,-0.101859, 0.008915, 0.114427,1, 0.480267,-0.176999, 9.793283,1,0
1778259290746,   347.402,   347.397,-0.075169,-0.079156,-0.676422,-0.000975,-0.000300,-0.005947,-1.619104, 0.463563, 0.769371,1,-0.030506,-0.051013, 0.112031,1, 0.495101,-0.182504, 9.792443,1,0
1778259290768,   347.427,   347.422,-0.044627, 0.047736,-1.059303,-0.000454, 0.000653,-0.010334, 0.055219, 0.271680,-0.595930,1,-0.083990, 0.019684, 0.067056,1, 0.492202,-0.199174, 9.792265,1,0
1778259290794,   347.447,   347.447,-0.045508, 0.092581,-1.103829,-0.000795, 0.000742,-0.011243, 0.053041, 0.692963,-1.033295,1,-0.077671,-0.058588, 0.044345,1, 0.501120,-0.217435, 9.791424,1,0
1778259290816,   347.472,   347.467,-0.155262, 0.003420,-0.973102,-0.001576, 0.000289,-0.009738,-1.017985, 0.748334,-0.142886,1,-0.099741,-0.052045, 0.023388,1, 0.512947,-0.230527, 9.790512,1,0
1778259290838,   347.497,   347.492,-0.135210,-0.010425,-1.131261,-0.001319,-0.000000,-0.010323,-0.797627,-0.342427,-1.304417,1,-0.070828,-0.083896, 0.028026,1, 0.530924,-0.242451, 9.789266,1,0
1778259290864,   347.517,   347.517,-0.061983, 0.069215,-0.924669,-0.001008, 0.000923,-0.009669,-0.065429, 0.429274, 0.720550,1, 0.093612,-0.078854, 0.025607,1, 0.544856,-0.246618, 9.788396,1,0
1778259290886,   347.542,   347.537,-0.115180,-0.025461,-0.892357,-0.000962, 0.000249,-0.008503,-0.311082,-0.372306, 2.760262,1, 0.024112,-0.009933, 0.028650,1, 0.553294,-0.239237, 9.788106,1,0
1778259290909,   347.567,   347.562,-0.119500,-0.037933,-1.197780,-0.001156,-0.000100,-0.012861,-0.621440,-0.620116,-1.958161,1, 0.046954,-0.048458, 0.016749,1, 0.551949,-0.246685, 9.787997,1,0
1778259290934,   347.587,   347.587,-0.148337, 0.062010,-0.592637,-0.001604, 0.000544,-0.006223,-0.893098, 0.374083, 3.975974,1, 0.105905,-0.027395, 0.033149,1, 0.562422,-0.230791, 9.787788,1,0
1778259290956,   347.612,   347.607,-0.057557, 0.011785,-1.142009,-0.000928, 0.000622,-0.010869, 0.041630, 0.042230, 0.086674,1, 0.048545, 0.064567, 0.041847,1, 0.548717,-0.224726, 9.788708,1,0
1778259290983,   347.637,   347.637,-0.231923,-0.013714,-1.069970,-0.001994,-0.000382,-0.010619,-1.719519,-0.343109,-0.704104,1, 0.044494,-0.015561, 0.027063,1, 0.555333,-0.207278, 9.788719,1,0
1778259291004,   347.657,   347.657,-0.217446, 0.045309,-1.261965,-0.001812, 0.000651,-0.012639,-1.573425, 0.246411,-2.586950,1, 0.111249,-0.052938, 0.048850,1, 0.560614,-0.194539, 9.788680,1,0
1778259291026,   347.682,   347.677,-0.088542,-0.008879,-0.899166,-0.001030,-0.000315,-0.009241,-0.280601,-0.071492, 1.529403,1, 0.206975, 0.002740, 0.053200,1, 0.563144,-0.162120, 9.789125,1,0
1778259291053,   347.707,   347.707,-0.221170,-0.046395,-1.224251,-0.001750,-0.000329,-0.012065,-1.597860,-0.590330,-2.216735,1, 0.065353,-0.061962,-0.015543,1, 0.573019,-0.133284, 9.788987,1,0
1778259291074,   347.732,   347.727,-0.012303,-0.003545,-1.073896, 0.000259, 0.000416,-0.009280,-0.832759, 1.161806, 1.009494,1, 0.170544,-0.028023, 0.023029,1, 0.582779,-0.103360, 9.788773,1,0
1778259291096,   347.752,   347.747,-0.013746,-0.015188,-0.650564,-0.000039,-0.000295,-0.006569, 0.430229, 0.684583, 2.759602,1, 0.184215, 0.040307, 0.033868,1, 0.578870,-0.078249, 9.789237,1,0
1778259291123,   347.777,   347.777, 0.024132, 0.122894,-1.293653, 0.000343, 0.001036,-0.013604, 0.797022, 1.138150,-2.896004,1, 0.042442, 0.025818,-0.006047,1, 0.559561,-0.065696, 9.790453,1,0
1778259291144,   347.802,   347.797,-0.035906, 0.012697,-0.810167,-0.000110,-0.000282,-0.008138,-0.255374, 1.258722, 2.661370,1, 0.111248, 0.095222,-0.024048,1, 0.546381,-0.032311, 9.791364,1,0
1778259291166,   347.822,   347.817,-0.043162, 0.026426,-1.132722,-0.000182, 0.000005,-0.010858,-0.496038,-0.144533, 0.822929,1, 0.085091, 0.071020,-0.076274,1, 0.529499,-0.020468, 9.792323,1,0
1778259291193,   347.847,   347.847,-0.192980, 0.026391,-1.204573,-0.001546,-0.000000,-0.013014,-1.383057, 0.244713,-2.019426,1, 0.028777,-0.008351,-0.065163,1, 0.509691,-0.013091, 9.793387,1,0
1778259291215,   347.872,   347.867,-0.141570,-0.045645,-0.860465,-0.001655,-0.000233,-0.007527,-2.415681, 0.691120, 3.588553,1, 0.100670,-0.001822,-0.044573,1, 0.515415, 0.009114, 9.793092,1,0
1778259291236,   347.892,   347.887,-0.162630, 0.015456,-1.338173,-0.001364, 0.000442,-0.013208,-1.412242, 0.401109,-2.409837,1,-0.062364, 0.033588,-0.073423,1, 0.509457, 0.007451, 9.793405,1,0
1778259291263,   347.917,   347.917,-0.113437, 0.030607,-0.787855,-0.001162, 0.000240,-0.008932,-0.595821, 0.321604, 2.066787,1, 0.066551, 0.032937,-0.053597,1, 0.515587, 0.023614, 9.793058,1,0
1778259291285,   347.942,   347.937,-0.059744,-0.035293,-0.986594,-0.000639, 0.000093,-0.009657,-0.749854, 0.464361,-0.257948,1,-0.030956, 0.008331,-0.084822,1, 0.511070, 0.022545, 9.793298,1,0
1778259291306,   347.962,   347.957,-0.085502, 0.009041,-1.150109,-0.000396, 0.000075,-0.010671,-0.024481, 0.007554, 0.703145,1,-0.009755, 0.067943,-0.119235,1, 0.505191, 0.022037, 9.793604,1,0
1778259291333,   347.987,   347.987,-0.108113, 0.098212,-1.043508,-0.000866, 0.001314,-0.010505,-0.565588, 0.970072,-0.439154,1,-0.075970, 0.054819,-0.111686,1, 0.492927, 0.004748, 9.794252,1,0
1778259291355,   348.012,   348.007,-0.132803, 0.010046,-0.928237,-0.000888, 0.000092,-0.007799,-1.266632,-0.151312, 0.884229,1,-0.029922, 0.044464,-0.094825,1, 0.483298,-0.001753, 9.794733,1,0
1778259291376,   348.032,   348.027,-0.144102, 0.076783,-1.343723,-0.000980, 0.000185,-0.014200, 0.731986, 0.177810, 1.920536,1,-0.054743, 0.105846,-0.125189,1, 0.462840,-0.015353, 9.795710,1,0
1778259291403,   348.057,   348.057,-0.346601, 0.056977,-1.094309,-0.003216, 0.000658,-0.011292,-2.936496, 0.504142,-0.935925,1,-0.030117,-0.084206,-0.095281,1, 0.465144,-0.055406, 9.795456,1,0
1778259291425,   348.082,   348.077,-0.314953, 0.075736,-0.782965,-0.002764, 0.000437,-0.008813,-1.563837, 0.240106, 2.704640,1,-0.112702, 0.002627,-0.127220,1, 0.472909,-0.066487, 9.795015,1,0
1778259291446,   348.102,   348.097,-0.116282, 0.007356,-1.308596,-0.001279, 0.000216,-0.011875,-0.922456,-1.069595, 0.134810,1,-0.072268, 0.026170,-0.128145,1, 0.475008,-0.085327, 9.794767,1,0
1778259291473,   348.127,   348.127,-0.154908, 0.061584,-1.106917,-0.001892, 0.000812,-0.011183,-1.038468, 0.491038,-1.060935,1,-0.067050,-0.093904,-0.103246,1, 0.483624,-0.114825, 9.794044,1,0
1778259291495,   348.152,   348.147,-0.181612,-0.081618,-0.896777,-0.001240,-0.000683,-0.007948, 0.738253, 0.832035, 5.932654,1,-0.004697, 0.074092,-0.096871,1, 0.476880,-0.116810, 9.794352,1,0
1778259291518,   348.172,   348.172, 0.004343, 0.088704,-1.147401,-0.000845, 0.001005,-0.013058, 0.503380, 0.708767,-1.457670,1,-0.028311,-0.004670,-0.115202,1, 0.460990,-0.161834, 9.794472,1,0
1778259291543,   348.197,   348.197,-0.076605, 0.043631,-0.834450,-0.000368, 0.000802,-0.006889,-0.285494, 0.265385, 1.611076,1,-0.056648,-0.021005,-0.078833,1, 0.466436,-0.164137, 9.794176,1,0
1778259291565,   348.222,   348.217,-0.034678,-0.003289,-1.333004,-0.000641,-0.000038,-0.013329,-1.860225, 0.738475,-0.281862,1,-0.129259, 0.013628,-0.053541,1, 0.461146,-0.185991, 9.794036,1,0
1778259291588,   348.242,   348.242,-0.186537, 0.029598,-0.823219,-0.000991, 0.000069,-0.008604,-1.362971, 0.093222, 1.720555,1,-0.005165,-0.051717,-0.074196,1, 0.467995,-0.197084, 9.793494,1,0
1778259291613,   348.267,   348.267,-0.297687, 0.055437,-0.943272,-0.002364, 0.000412,-0.009447,-2.445443, 0.338785, 0.542715,1,-0.132522,-0.040587,-0.067245,1, 0.475182,-0.208896, 9.792903,1,0
1778259291635,   348.292,   348.287,-0.146760, 0.077050,-0.962317,-0.000607, 0.000881,-0.009674,-0.796488,-0.146243,-1.200092,1, 0.012227,-0.048820,-0.063304,1, 0.485262,-0.217192, 9.792228,1,0
1778259291658,   348.312,   348.312,-0.120039, 0.010193,-1.020440,-0.001376, 0.000316,-0.010602,-0.692231,-0.124839,-0.215028,1, 0.019810,-0.019468,-0.044734,1, 0.485593,-0.224116, 9.792056,1,0
1778259291684,   348.337,   348.337, 0.007105, 0.000857,-0.911002,-0.000834, 0.000080,-0.009278, 0.556787,-0.216982, 0.858069,1, 0.026481,-0.029090,-0.066768,1, 0.488065,-0.224460, 9.791925,1,0
1778259291705,   348.362,   348.357, 0.020481, 0.076926,-1.051112,-0.000548, 0.000883,-0.010145,-0.579252, 0.294666,-0.047935,1,-0.052703, 0.026499,-0.066788,1, 0.485161,-0.228045, 9.791986,1,0
1778259291728,   348.382,   348.382,-0.094729, 0.050534,-1.076267,-0.000979, 0.000504,-0.011271,-0.445728, 0.260288,-0.762661,1, 0.008558,-0.093001,-0.059647,1, 0.486185,-0.234920, 9.791773,1,0
1778259291754,   348.407,   348.407,-0.210310, 0.083740,-0.628243,-0.001362, 0.000889,-0.006453,-1.567356, 0.588512, 3.630419,1, 0.057595,-0.041182,-0.034428,1, 0.496392,-0.230845, 9.791358,1,0
1778259291775,   348.432,   348.427,-0.083852, 0.029323,-0.905224,-0.000319, 0.000204,-0.009160,-1.136247, 0.017583, 2.420887,1, 0.008849, 0.045992,-0.040445,1, 0.487775,-0.232269, 9.791758,1,0
1778259291798,   348.452,   348.452,-0.046214, 0.034293,-1.069394,-0.000192, 0.000346,-0.010153, 0.013423, 0.088445,-0.694771,1,-0.017225, 0.030065,-0.052220,1, 0.465731,-0.248319, 9.792437,1,0
1778259291824,   348.477,   348.477,-0.137698, 0.091399,-0.981758,-0.001319, 0.000435,-0.010894,-0.888488, 0.632888, 0.164469,1,-0.060810, 0.032524,-0.024785,1, 0.460873,-0.265286, 9.792222,1,0
1778259291845,   348.502,   348.497,-0.012453,-0.048370,-1.099923,-0.000472,-0.000713,-0.010400,-0.559298, 0.762805, 0.556065,1,-0.088212, 0.073548,-0.016114,1, 0.454260,-0.274554, 9.792275,1,0
1778259291868,   348.527,   348.522,-0.078065, 0.011340,-1.165428,-0.000554,-0.000168,-0.011770,-0.325861,-0.167923,-1.636132,1,-0.055253, 0.028218,-0.010845,1, 0.438826,-0.280833, 9.792801,1,0
1778259291894,   348.547,   348.547,-0.056403,-0.037544,-0.782681,-0.000637,-0.000068,-0.007894,-0.119254,-0.646985, 2.117599,1, 0.032776, 0.017121, 0.000402,1, 0.433499,-0.278205, 9.793113,1,0
1778259291915,   348.572,   348.567,-0.048109,-0.004797,-1.204244,-0.000052, 0.000371,-0.011535,-0.428772,-0.529177,-1.322111,1,-0.043324, 0.080249, 0.014985,1, 0.422240,-0.290101, 9.793260,1,0
1778259291938,   348.597,   348.592,-0.132429,-0.038059,-0.989588,-0.001745,-0.000422,-0.010052,-0.876700,-0.678520, 0.088269,1, 0.019224,-0.001193, 0.057896,1, 0.421968,-0.304766, 9.792827,1,0
1778259291964,   348.617,   348.617, 0.011791, 0.005798,-0.909187,-0.000353, 0.000106,-0.008209, 0.530609,-0.253160, 0.876880,1,-0.078519, 0.035238, 0.043257,1, 0.413840,-0.312519, 9.792929,1,0
1778259291985,   348.642,   348.637,-0.011905,-0.007516,-1.201654,-0.000400,-0.000206,-0.011507,-0.188896,-0.395635,-1.328929,1,-0.082178, 0.089269, 0.054402,1, 0.399848,-0.330158, 9.792932,1,0
1778259292008,   348.667,   348.662,-0.262003, 0.006420,-0.643600,-0.002500, 0.000055,-0.007278,-2.150947,-0.274375, 3.480347,1, 0.002380,-0.109008, 0.051579,1, 0.421764,-0.337332, 9.791767,1,0
1778259292034,   348.687,   348.687,-0.261083,-0.093907,-0.943615,-0.002675,-0.000630,-0.008075,-2.127602,-1.262547, 0.537435,1,-0.051896,-0.056197, 0.053632,1, 0.434442,-0.343327, 9.791004,1,0
1778259292056,   348.712,   348.707,-0.252304,-0.086713,-1.194726,-0.001812,-0.000772,-0.011672,-0.502552,-0.116253,-1.642169,1,-0.097150,-0.007452, 0.081665,1, 0.437194,-0.359820, 9.790290,1,0
1778259292078,   348.737,   348.732,-0.036966, 0.054676,-0.922533,-0.001316,-0.000294,-0.010469, 0.082406, 0.170321, 0.742755,1,-0.098183, 0.035903, 0.121535,1, 0.443660,-0.369102, 9.789654,1,0
1778259292104,   348.757,   348.757,-0.154129,-0.083579,-0.928537,-0.000826,-0.000565,-0.008915,-1.064558,-1.192440, 0.683527,1,-0.057890, 0.007165, 0.117442,1, 0.446569,-0.374771, 9.789306,1,0
1778259292126,   348.782,   348.777,-0.192361, 0.007390,-1.175414,-0.001180, 0.000593,-0.011451,-1.509827,-0.847837,-0.611666,1,-0.018299,-0.015447, 0.115435,1, 0.443327,-0.379835, 9.789258,1,0
1778259292148,   348.807,   348.802,-0.089487,-0.043305,-1.007928,-0.001139,-0.000140,-0.009709,-0.436358,-0.816596,-0.095524,1, 0.048961, 0.006580, 0.128288,1, 0.440848,-0.390577, 9.788947,1,0
1778259292174,   348.827,   348.827, 0.055422, 0.089129,-1.013869, 0.000571, 0.000487,-0.010271, 0.969217, 0.475709,-0.153356,1,-0.064869, 0.079560, 0.133527,1, 0.423060,-0.400552, 9.789329,1,0
1778259292196,   348.852,   348.847,-0.046416, 0.073688,-0.872220,-0.000623, 0.000643,-0.009335,-1.053377,-1.062476,-1.056199,1,-0.004557,-0.025034, 0.080284,1, 0.421571,-0.407399, 9.789111,1,0
1778259292223,   348.877,   348.877,-0.181271, 0.021215,-1.003048,-0.001399, 0.000395,-0.009421,-1.360719,-0.207561,-0.047578,1, 0.045829, 0.007186, 0.093489,1, 0.416598,-0.414307, 9.789034,1,0
1778259292244,   348.897,   348.897,-0.000312, 0.046267,-0.880306,-0.000790, 0.000101,-0.009478, 0.407233, 0.035993, 1.156302,1,-0.007376, 0.038339, 0.078239,1, 0.408991,-0.418063, 9.789195,1,0
1778259292266,   348.922,   348.917,-0.051603, 0.056043,-1.087350,-0.000424, 0.000367,-0.010263,-0.602915,-0.192017, 0.323297,1, 0.007007, 0.053731, 0.062959,1, 0.401490,-0.419499, 9.789444,1,0
1778259292293,   348.947,   348.947,-0.143630, 0.071287,-0.777163,-0.001261, 0.001213,-0.008829,-1.012092, 0.277968, 2.168209,1, 0.106481,-0.007268, 0.083063,1, 0.396600,-0.417631, 9.789723,1,0
1778259292314,   348.972,   348.967,-0.092270,-0.059462,-1.069469,-0.000574, 0.000029,-0.009299,-0.933285,-0.776386, 0.119605,1, 0.001956, 0.036412, 0.082288,1, 0.393468,-0.410269, 9.790161,1,0
1778259292336,   348.992,   348.987,-0.031208, 0.014281,-1.057075,-0.000938,-0.000482,-0.011504, 0.222792,-0.136988,-0.015479,1, 0.041403, 0.041507, 0.082180,1, 0.381315,-0.407309, 9.790765,1,0
1778259292363,   349.017,   349.017,-0.089146,-0.018637,-1.059930,-0.000615, 0.000489,-0.009697,-0.497577,-0.576021,-0.602841,1, 0.097673, 0.011311, 0.123605,1, 0.376135,-0.390361, 9.791656,1,0
1778259292384,   349.042,   349.037,-0.185301,-0.063400,-0.827103,-0.001524,-0.000460,-0.007976,-1.153511,-0.908458, 2.639523,1, 0.139818,-0.031492, 0.099330,1, 0.383664,-0.372649, 9.792054,1,0
1778259292406,   349.062,   349.057,-0.022653,-0.058058,-1.238016,-0.000793,-0.000487,-0.011687,-0.584402,-0.512388,-0.517695,1,-0.005660, 0.060251, 0.105191,1, 0.377319,-0.364600, 9.792603,1,0
1778259292433,   349.087,   349.087,-0.134420,-0.002200,-1.121111,-0.000916,-0.000020,-0.011689,-0.943294,-0.370328,-1.201068,1, 0.037218,-0.014746, 0.132477,1, 0.375229,-0.347747, 9.793297,1,0
1778259292454,   349.112,   349.107,-0.129199,-0.055755,-0.780687,-0.001028,-0.000114,-0.007895,-1.146091,-0.809230, 0.994485,1, 0.138525,-0.033198, 0.122682,1, 0.378394,-0.327529, 9.793872,1,0
1778259292476,   349.132,   349.127,-0.118226,-0.018517,-1.285230,-0.001168,-0.000668,-0.012747,-0.176712, 0.232663, 0.623344,1,-0.029289, 0.070778, 0.098278,1, 0.370455,-0.322542, 9.794341,1,0
1778259292503,   349.157,   349.157,-0.090483,-0.013629,-0.867961,-0.000489, 0.000309,-0.008489,-0.513916,-0.443407, 1.282846,1, 0.095457,-0.019395, 0.129384,1, 0.373898,-0.306922, 9.794712,1,0
1778259292525,   349.182,   349.177,-0.131564, 0.003852,-1.002158,-0.000872, 0.000116,-0.009794,-0.317747,-0.544851, 0.756512,1, 0.033197, 0.031330, 0.115087,1, 0.368855,-0.298489, 9.795164,1,0
1778259292546,   349.202,   349.197,-0.093494,-0.055508,-1.008163,-0.001211,-0.000725,-0.010323,-0.422003, 0.307708, 0.534585,1,-0.003916, 0.026498, 0.095000,1, 0.360242,-0.298683, 9.795479,1,0
1778259292573,   349.227,   349.227,-0.125094, 0.039023,-0.952190,-0.000880, 0.000325,-0.009736,-0.863139, 0.083327, 0.457538,1, 0.022250,-0.034576, 0.096084,1, 0.364605,-0.298776, 9.795314,1,0
1778259292595,   349.252,   349.247,-0.186760,-0.121855,-1.009507,-0.001677,-0.000511,-0.008909,-1.445295,-0.587255,-0.985474,1, 0.031054,-0.027188, 0.103684,1, 0.367200,-0.296692, 9.795280,1,0
1778259292616,   349.272,   349.267,-0.092552, 0.053200,-0.751760,-0.001614,-0.000228,-0.008864,-1.723540,-0.485218, 2.516660,1, 0.018092,-0.065344, 0.077808,1, 0.378465,-0.291977, 9.794993,1,0
1778259292643,   349.297,   349.297,-0.157084,-0.092439,-1.005178,-0.000855,-0.000174,-0.008708,-1.158159,-1.199813,-0.062627,1, 0.054758,-0.001171, 0.099172,1, 0.382254,-0.291708, 9.794854,1,0
1778259292665,   349.322,   349.317,-0.005958,-0.061764,-1.191205,-0.000310,-0.000253,-0.010949, 0.572820, 0.248316, 0.331028,1,-0.052389, 0.060307, 0.108181,1, 0.369431,-0.296630, 9.795198,1,0
1778259292686,   349.342,   349.337,-0.024864, 0.028424,-1.028405,-0.000096,-0.000118,-0.011037,-0.268450,-0.408792,-0.978634,1, 0.008949, 0.011133, 0.118332,1, 0.362737,-0.303320, 9.795244,1,0
1778259292713,   349.367,   349.367,-0.072336,-0.004894,-1.099497,-0.000712, 0.000433,-0.009974,-0.355016,-0.351626,-0.986845,1, 0.030322, 0.016797, 0.105601,1, 0.353729,-0.302807, 9.795589,1,0
1778259292735,   349.392,   349.387,-0.093249,-0.044370,-1.043644,-0.001543,-0.000650,-0.010711,-0.353689,-0.247817, 1.398683,1,-0.029097,-0.010987, 0.075699,1, 0.355917,-0.303968, 9.795474,1,0
1778259292758,   349.412,   349.412,-0.167785, 0.051689,-1.005404,-0.000816, 0.001021,-0.008979,-1.282091, 0.210023,-0.064224,1, 0.067124,-0.043201, 0.099534,1, 0.364573,-0.294891, 9.795433,1,0
1778259292783,   349.437,   349.437,-0.004788, 0.000073,-0.961227,-0.000811,-0.000265,-0.010718, 0.318330,-0.291780, 0.369060,1, 0.038014,-0.010823, 0.092081,1, 0.365536,-0.291413, 9.795502,1,0
1778259292805,   349.462,   349.457,-0.080951, 0.046717,-0.776699,-0.000490, 0.000198,-0.007959,-0.668582, 0.084017, 0.039804,1, 0.045921,-0.052707, 0.081506,1, 0.371267,-0.288654, 9.795367,1,0
1778259292828,   349.482,   349.482,-0.075790, 0.024243,-1.005229,-0.000839, 0.000683,-0.008865,-0.374037,-0.046555,-0.062357,1,-0.010206, 0.008645, 0.051072,1, 0.368894,-0.284674, 9.795573,1,0
1778259292853,   349.507,   349.507,-0.059457, 0.089527,-0.841740,-0.000713, 0.000380,-0.009969,-0.213652, 0.590245, 1.540815,1, 0.023558,-0.012775, 0.046737,1, 0.369777,-0.287035, 9.795471,1,0
1778259292875,   349.532,   349.527,-0.123595, 0.011572,-0.977351,-0.000855, 0.000453,-0.008992,-1.016346,-0.420765,-1.090672,1, 0.038855,-0.023857, 0.049388,1, 0.375761,-0.282395, 9.795379,1,0
1778259292898,   349.552,   349.552,-0.039337, 0.015549,-0.960861,-0.001153,-0.000060,-0.010604,-0.007572,-0.120261, 0.372732,1,-0.002746, 0.031220, 0.037684,1, 0.377187,-0.272835, 9.795595,1,0
1778259292924,   349.577,   349.577,-0.155781,-0.006072,-1.145677,-0.000781, 0.000357,-0.010303,-0.553921,-0.266331,-0.987900,1, 0.042665, 0.023020, 0.037625,1, 0.375712,-0.268100, 9.795782,1,0
1778259292945,   349.602,   349.597,-0.058981,-0.023840,-0.946080,-0.000967,-0.000039,-0.009309,-0.293198,-0.051908, 0.569431,1, 0.047824, 0.006118, 0.039434,1, 0.372381,-0.252345, 9.796328,1,0
1778259292968,   349.622,   349.622,-0.087573, 0.019928,-1.237880,-0.000676,-0.000224,-0.011958,-0.496281,-0.044653,-2.342448,1,-0.044845, 0.033899, 0.017682,1, 0.361448,-0.241497, 9.797010,1,0
1778259292994,   349.647,   349.647,-0.099650, 0.014525,-0.926578,-0.001613, 0.000453,-0.008838,-0.609564,-0.085774, 0.710474,1, 0.143056,-0.036104, 0.037963,1, 0.368764,-0.223796, 9.797158,1,0
1778259293015,   349.672,   349.667,-0.024320, 0.070254,-0.913179,-0.000904, 0.000320,-0.010526,-0.335791,-0.153830, 1.555439,1, 0.098655, 0.003480, 0.055540,1, 0.363973,-0.211143, 9.797619,1,0
1778259293038,   349.692,   349.692,-0.111950,-0.079865,-1.343206,-0.000856,-0.000353,-0.012514,-0.739666,-0.979550,-3.374209,1, 0.104496,-0.017666, 0.032742,1, 0.358722,-0.193120, 9.798183,1,0
1778259293064,   349.717,   349.717,-0.160181, 0.019179,-0.776801,-0.001340,-0.000124,-0.008410,-1.205042, 0.013672, 2.180452,1, 0.094374,-0.047497, 0.033099,1, 0.367264,-0.171509, 9.798269,1,0
1778259293085,   349.742,   349.737,-0.075936, 0.040638,-1.067741,-0.000749, 0.000431,-0.010944,-0.885258,-0.457429,-0.726464,1, 0.057575, 0.023559, 0.028803,1, 0.363844,-0.154385, 9.798682,1,0
1778259293108,   349.767,   349.762,-0.148586, 0.041523,-1.115200,-0.001420,-0.000007,-0.012153,-1.087350, 0.275163,-1.137590,1, 0.036817,-0.015325, 0.028253,1, 0.370252,-0.130916, 9.798783,1,0
1778259293134,   349.787,   349.787,-0.212727,-0.015119,-0.927595,-0.001598, 0.000520,-0.007162,-1.706821,-0.255513, 0.702122,1, 0.132833,-0.054608, 0.028330,1, 0.381016,-0.103139, 9.798702,1,0
1778259293155,   349.812,   349.807,-0.063589, 0.050423,-1.006257,-0.001352, 0.000371,-0.011659,-1.067708, 1.105468,-0.042101,1, 0.043397,-0.041583, 0.013680,1, 0.384329,-0.099150, 9.798615,1,0
1778259293178,   349.837,   349.832,-0.125466,-0.020102,-0.752784,-0.001346,-0.000123,-0.006773,-0.831984,-0.267773, 2.416008,1, 0.119727,-0.000352, 0.022843,1, 0.398425,-0.066934, 9.798325,1,0
1778259293204,   349.857,   349.857,-0.045785, 0.083791,-1.116426,-0.000023, 0.000275,-0.011406,-0.065030, 0.753059,-1.149514,1,-0.068281, 0.100333,-0.005183,1, 0.380840,-0.070775, 9.798997,1,0
1778259293225,   349.882,   349.877,-0.133792, 0.020250,-0.933333,-0.001105, 0.000846,-0.008798,-0.246982,-0.405691,-3.539420,1, 0.029087,-0.077311,-0.036775,1, 0.384907,-0.067996, 9.798858,1,0
1778259293248,   349.907,   349.902,-0.004612, 0.118676,-0.766537,-0.000372, 0.000099,-0.009179, 0.336306, 1.107957, 2.281903,1,-0.025554, 0.092468,-0.041426,1, 0.378659,-0.056609, 9.799173,1,0
1778259293274,   349.927,   349.927,-0.089530,-0.038453,-1.460650,-0.000920, 0.000439,-0.012755,-0.503249,-0.438194,-4.524784,1,-0.028483, 0.009607,-0.096453,1, 0.374461,-0.061875, 9.799303,1,0
1778259293295,   349.952,   349.947,-0.029081, 0.096909,-0.712544,-0.000692, 0.000270,-0.009130,-1.415438, 0.897657, 2.632994,1, 0.086993,-0.087140,-0.052527,1, 0.385167,-0.053685, 9.798936,1,0
1778259293318,   349.977,   349.972,-0.097405, 0.021323,-1.424648,-0.001389, 0.000712,-0.012301,-0.570260, 0.149297,-4.172118,1,-0.091906,-0.025652,-0.079189,1, 0.385769,-0.062581, 9.798860,1,0
1778259293344,   349.997,   349.997,-0.253123, 0.080461,-0.916119,-0.002009, 0.000199,-0.010783,-2.079765, 0.724194, 0.814112,1, 0.090446,-0.118964,-0.060142,1, 0.406249,-0.061958, 9.798036,1,0
1778259293366,   350.022,   350.017,-0.004219,-0.014597,-1.457307,-0.000556, 0.000477,-0.011530,-0.183374, 0.324053, 1.256833,1,-0.074427, 0.023279,-0.059903,1, 0.413545,-0.058996, 9.797749,1,0
1778259293388,   350.047,   350.042,-0.085883,-0.031103,-0.412825,-0.000257,-0.000230,-0.004253,-0.399833,-0.363093, 5.748066,1, 0.151848,-0.149285,-0.100017,1, 0.447061,-0.053198, 9.796310,1,0
1778259293414,   350.067,   350.067,-0.020508, 0.014914,-1.373060,-0.000212, 0.000186,-0.012965, 0.243907, 0.076737,-3.668815,1,-0.100443, 0.007974,-0.064848,1, 0.444783,-0.072564, 9.796289,1,0
1778259293436,   350.092,   350.087,-0.131793, 0.036767,-0.669573,-0.001030, 0.000368,-0.007029,-0.653168, 1.581783, 0.407724,1, 0.084149,-0.123544,-0.080184,1, 0.460956,-0.070218, 9.795559,1,0
1778259293463,   350.117,   350.117,-0.126325, 0.129037,-0.893558,-0.000799, 0.000582,-0.009921,-0.772675, 1.192033, 1.032475,1,-0.082337, 0.047870,-0.067968,1, 0.464676,-0.075854, 9.795341,1,0
1778259293484,   350.137,   350.137,-0.148038, 0.053579,-1.071467,-0.001416, 0.000807,-0.009476,-0.987715, 0.454622,-0.712090,1,-0.009312,-0.023018,-0.081784,1, 0.464778,-0.070979, 9.795373,1,0
1778259293506,   350.162,   350.157, 0.132218, 0.033684,-0.916780, 0.000927,-0.000258,-0.009325, 0.538498, 0.794037, 4.641009,1, 0.101637, 0.101148,-0.094457,1, 0.448087,-0.065495, 9.796188,1,0
1778259293533,   350.187,   350.187, 0.044550, 0.090610,-1.702886, 0.000335, 0.001564,-0.015891, 0.851611, 0.795547,-6.902172,1,-0.024184,-0.027744,-0.085354,1, 0.415618,-0.093671, 9.797391,1,0
1778259293554,   350.212,   350.207,-0.140017, 0.061056,-0.381649,-0.000673, 0.000238,-0.004154,-1.102191, 1.205672, 5.584773,1, 0.180109,-0.006604,-0.077128,1, 0.421061,-0.074074, 9.797326,1,0
1778259293576,   350.232,   350.227,-0.132097,-0.052428,-1.153351, 0.000152,-0.000168,-0.010854, 0.090062, 0.345616, 1.875692,1,-0.117742, 0.192291,-0.123720,1, 0.394532,-0.076831, 9.798409,1,0
1778259293603,   350.257,   350.257, 0.117170, 0.213643,-0.815970, 0.000842, 0.001591,-0.009740, 1.510196, 2.009369, 1.797690,1, 0.039527, 0.077883,-0.126112,1, 0.358758,-0.084375, 9.799723,1,0
1778259293624,   350.282,   350.277,-0.027401, 0.041988,-1.207739,-0.000244, 0.000509,-0.011412, 0.494332, 1.101641, 2.027232,1, 0.011145, 0.107742,-0.084892,1, 0.341209,-0.079262, 9.800392,1,0
1778259293646,   350.302,   350.297,-0.172539, 0.035092,-1.095271,-0.001386, 0.000529,-0.010477, 0.007244, 0.420929,-2.095012,1,-0.024196, 0.025260,-0.129888,1, 0.332653,-0.090976, 9.800584,1,0
1778259293673,   350.327,   350.327,-0.225773, 0.120567,-0.912154,-0.001703, 0.000465,-0.011060,-1.880873, 1.093589, 0.855414,1,-0.058408,-0.002621,-0.107121,1, 0.333318,-0.090478, 9.800566,1,0
1778259293694,   350.352,   350.347,-0.154181,-0.060658,-0.939632,-0.002247, 0.000036,-0.007574,-1.375005,-1.369136, 1.044204,1, 0.013122,-0.149465,-0.114365,1, 0.357573,-0.078240, 9.799816,1,0
1778259293716,   350.372,   350.367, 0.103074, 0.056893,-0.897739, 0.000672, 0.000437,-0.010245, 0.312221,-0.387890, 1.004782,1, 0.024465, 0.018241,-0.087632,1, 0.364178,-0.078861, 9.799568,1,0
1778259293743,   350.397,   350.397, 0.097664,-0.002726,-1.275569, 0.000575,-0.000001,-0.013450, 1.316656,-0.118874,-2.709417,1, 0.001195,-0.040161,-0.052237,1, 0.360168,-0.092047, 9.799602,1,0
1778259293765,   350.422,   350.417,-0.110609, 0.018057,-0.774999,-0.000134, 0.000104,-0.006798,-0.763906,-1.157271, 3.025253,1, 0.016193,-0.044883,-0.064311,1, 0.374380,-0.082262, 9.799156,1,0
1778259293786,   350.442,   350.437,-0.085438, 0.051972,-1.220744,-0.000350, 0.000117,-0.012988,-0.770869, 0.641869, 0.452122,1,-0.126067, 0.003139,-0.051273,1, 0.366135,-0.107113, 9.799228,1,0
1778259293813,   350.467,   350.467,-0.009067,-0.022942,-1.159139,-0.000811, 0.000284,-0.010458, 0.298922,-0.347401,-1.569060,1, 0.005455,-0.092428,-0.017131,1, 0.390733,-0.122225, 9.798100,1,0
1778259293835,   350.492,   350.487,-0.012823,-0.024862,-1.071245, 0.000529,-0.000819,-0.011646, 1.109139, 0.156999, 1.432228,1,-0.019095, 0.031078, 0.004596,1, 0.389579,-0.133160, 9.798004,1,0
1778259293856,   350.512,   350.507, 0.021714,-0.055904,-0.889131,-0.000330,-0.000320,-0.008787, 0.710885,-0.627808,-1.920829,1,-0.099829,-0.019861, 0.018231,1, 0.394267,-0.149390, 9.797583,1,0
1778259293883,   350.537,   350.537,-0.061746,-0.044246,-0.997219,-0.000103,-0.000059,-0.008774,-0.210741,-0.587338, 0.018118,1,-0.029954,-0.002562, 0.023925,1, 0.394844,-0.154399, 9.797482,1,0
1778259293905,   350.562,   350.557, 0.103050,-0.007193,-0.901546, 0.000156,-0.000255,-0.010652, 0.733776, 0.010698, 0.247583,1,-0.077329, 0.004471, 0.026088,1, 0.392015,-0.170251, 9.797333,1,0
1778259293926,   350.582,   350.577, 0.018490,-0.092238,-0.943726,-0.000118,-0.000474,-0.007671, 1.450108,-1.482379, 2.092661,1, 0.021386, 0.016756, 0.033842,1, 0.394254,-0.168535, 9.797273,1,0
1778259293953,   350.607,   350.607,-0.012547, 0.025550,-1.250611, 0.000435,-0.000154,-0.013553, 0.256272, 0.055277,-2.466937,1,-0.112074,-0.011109, 0.075131,1, 0.379612,-0.198873, 9.797281,1,0
1778259293975,   350.632,   350.627,-0.001639,-0.162559,-0.846153,-0.000339,-0.000863,-0.006264, 0.321089,-1.364804,-0.897728,1, 0.035074,-0.065372, 0.082713,1, 0.394343,-0.199994, 9.796677,1,0
1778259293998,   350.652,   350.652, 0.037445,-0.027448,-1.044317, 0.000400,-0.000375,-0.011008, 0.755849,-0.475763,-0.444489,1,-0.059803,-0.002516, 0.110950,1, 0.388641,-0.208592, 9.796725,1,0
1778259294023,   350.677,   350.677, 0.044991,-0.099203,-0.999675,-0.000401,-0.001196,-0.011103, 0.842909,-1.178189,-0.007194,1, 0.067469,-0.073595, 0.105486,1, 0.403928,-0.203368, 9.796217,1,0
1778259294045,   350.702,   350.697, 0.012998,-0.010941,-0.918502, 0.000940,-0.000071,-0.008020,-0.259841,-1.517738, 0.900841,1, 0.079507,-0.010450, 0.133343,1, 0.409579,-0.190393, 9.796243,1,0
1778259294068,   350.722,   350.722, 0.116639, 0.008271,-1.172699, 0.001063,-0.000451,-0.012682, 1.546234,-0.106316,-1.703651,1, 0.037921, 0.014203, 0.143115,1, 0.401870,-0.186431, 9.796638,1,0
1778259294093,   350.747,   350.747, 0.012261,-0.040182,-0.944960,-0.000514, 0.000235,-0.008803, 0.527921,-0.565114, 0.529782,1, 0.123527, 0.003815, 0.138630,1, 0.407374,-0.167331, 9.796756,1,0
1778259294115,   350.772,   350.767,-0.070528,-0.027966,-1.067625,-0.000186,-0.000640,-0.010611,-0.324556, 0.737963, 2.393181,1, 0.058716, 0.014696, 0.154449,1, 0.405904,-0.152785, 9.797055,1,0
1778259294138,   350.792,   350.792, 0.028325,-0.091586,-1.287880, 0.000406,-0.000283,-0.010705, 0.683559,-1.022543,-2.832328,1, 0.131639,-0.012117, 0.109202,1, 0.406116,-0.120425, 9.797497,1,0
1778259294163,   350.817,   350.817, 0.133050, 0.097080,-0.759705, 0.001488, 0.000717,-0.009020, 1.700207, 0.850230, 2.347978,1, 0.116132, 0.019336, 0.101688,1, 0.394794,-0.098309, 9.798207,1,0
1778259294185,   350.842,   350.837,-0.027012,-0.007901,-1.210019,-0.000259, 0.000489,-0.010788, 0.752474,-0.302342,-3.283586,1, 0.106715, 0.003103, 0.090727,1, 0.396718,-0.074898, 9.798336,1,0
1778259294208,   350.862,   350.862,-0.061149, 0.092951,-0.612361, 0.000094, 0.000483,-0.007260,-0.197099, 0.878206, 3.793111,1, 0.145899,-0.020755, 0.045957,1, 0.403215,-0.028842, 9.798315,1,0
1778259294234,   350.887,   350.887, 0.103822,-0.016902,-1.133623, 0.000033, 0.000125,-0.010740, 1.415363,-0.177355,-1.318448,1, 0.069387, 0.049790,-0.006515,1, 0.395666,-0.009430, 9.798660,1,0
1778259294255,   350.912,   350.907,-0.047347, 0.193045,-0.733984, 0.000135, 0.001515,-0.008888,-0.322816, 1.853069,-0.402296,1, 0.105633,-0.023668,-0.013468,1, 0.398752, 0.005694, 9.798538,1,0
1778259294278,   350.932,   350.932, 0.009051, 0.089046,-1.142025, 0.000060, 0.001593,-0.009699, 0.489763, 0.899670,-1.401033,1, 0.038704,-0.002704,-0.059360,1, 0.401083, 0.027707, 9.798406,1,0
1778259294304,   350.957,   350.957, 0.041035, 0.151115,-0.935718,-0.000156, 0.001238,-0.011106, 0.801109, 1.511809, 0.622234,1, 0.016970,-0.011197,-0.114694,1, 0.399021, 0.030545, 9.798481,1,0
1778259294325,   350.982,   350.977,-0.106510, 0.121012,-1.021687,-0.001147, 0.001386,-0.008415, 0.729036, 0.491452, 1.160154,1, 0.018534,-0.015520,-0.127802,1, 0.404355, 0.041884, 9.798221,1,0
1778259294348,   351.007,   351.002,-0.150027, 0.036773,-0.994893,-0.000608, 0.000193,-0.009776,-1.059788, 0.397900, 0.041373,1,-0.029299,-0.042265,-0.172974,1, 0.412769, 0.036591, 9.797891,1,0
1778259294374,   351.027,   351.027, 0.094975, 0.062801,-1.047628,-0.000343, 0.000948,-0.011562, 1.346232, 0.641819,-0.475880,1,-0.023423,-0.024161,-0.201790,1, 0.415583, 0.025490, 9.797807,1,0
1778259294395,   351.052,   351.047,-0.075551, 0.131920,-0.884530, 0.000228, 0.001020,-0.009510,-0.498940, 0.926397, 1.117937,1,-0.051168,-0.000357,-0.174978,1, 0.419302, 0.019503, 9.797663,1,0
