Time,GPS_ts,fGPS_ts,scaledAccelX,scaledAccelY,scaledAccelZ,deltaVelX,deltaVelY,deltaVelZ,estLinearAccelX,estLinearAccelY,estLinearAccelZ,estLinearAccel:valid,estAngularRateX,estAngularRateY,estAngularRateZ,estAngularRate:valid,estGravityX,estGravityY,estGravityZ,estGravity:valid,flag
1778259116975,   158.492,   158.492,-0.025497, 0.060534,-0.993783,-0.000258, 0.000605,-0.009937, 0.004120,-0.005843, 0.039325,1,-0.000126, 0.000217,-0.000056,1, 0.254158,-0.599480, 9.785009,1,0
1778259116975,   158.517,   158.512,-0.026008, 0.060929,-0.993821,-0.000262, 0.000607,-0.009936, 0.003396, 0.001867, 0.042335,1,-0.000164, 0.000194, 0.000266,1, 0.254094,-0.599541, 9.785007,1,0
1778259116975,   158.542,   158.542,-0.026150, 0.060382,-0.993726,-0.000257, 0.000604,-0.009938,-0.002347,-0.007379, 0.039889,1,-0.000331, 0.000313,-0.000083,1, 0.254091,-0.599533, 9.785008,1,0
1778259116975,   158.567,   158.562,-0.025626, 0.060508,-0.993748,-0.000259, 0.000610,-0.009940,-0.000662,-0.004309, 0.039422,1,-0.000469, 0.000472,-0.000271,1, 0.254077,-0.599540, 9.785007,1,0
1778259116975,   158.592,   158.587,-0.025311, 0.060658,-0.993948,-0.000253, 0.000606,-0.009937, 0.005927,-0.004705, 0.037709,1,-0.000313, 0.000151, 0.000185,1, 0.254134,-0.599562, 9.785006,1,0
1778259116975,   158.617,   158.612,-0.025848, 0.061666,-0.994186,-0.000258, 0.000618,-0.009941,-0.002857, 0.000178, 0.039625,1, 0.000575,-0.000058, 0.000021,1, 0.254188,-0.599499, 9.785007,1,0
1778259116975,   158.637,   158.637,-0.025796, 0.061391,-0.994164,-0.000258, 0.000614,-0.009941, 0.001090, 0.002516, 0.035586,1, 0.000210, 0.000038, 0.000210,1, 0.254061,-0.599514, 9.785010,1,0
1778259116975,   158.662,   158.662,-0.026074, 0.061105,-0.993598,-0.000258, 0.000611,-0.009933,-0.001675,-0.000274, 0.041146,1,-0.000298, 0.000094, 0.000262,1, 0.254025,-0.599523, 9.785010,1,0
1778259116975,   158.687,   158.682,-0.025341, 0.061700,-0.993474,-0.000257, 0.000617,-0.009934,-0.001928,-0.007505, 0.037666,1, 0.000360,-0.000238,-0.000335,1, 0.254031,-0.599556, 9.785008,1,0
1778259116975,   158.712,   158.712,-0.025790, 0.060923,-0.993727,-0.000260, 0.000613,-0.009936, 0.001200,-0.002148, 0.039871,1,-0.000545,-0.000012,-0.000746,1, 0.254117,-0.599618, 9.785002,1,0
1778259116975,   158.727,   158.722,-0.025949, 0.060621,-0.993949,-0.000261, 0.000606,-0.009940, 0.002313,-0.005173, 0.037760,1,-0.000226,-0.000392, 0.000077,1, 0.254145,-0.599643, 9.785000,1,0
1778259116986,   173.632,   173.632,-0.025967, 0.060432,-0.993654,-0.000258, 0.000601,-0.009936, 0.001775,-0.009504, 0.040364,1,-0.000434,-0.000075, 0.000417,1, 0.256423,-0.602156, 9.784786,1,0
1778259117008,   173.657,   173.652,-0.025596, 0.061608,-0.993603,-0.000259, 0.000617,-0.009934, 0.003774, 0.007100, 0.044902,1,-0.000886, 0.000127,-0.000221,1, 0.256372,-0.602250, 9.784781,1,0
1778259117029,   173.677,   173.672,-0.026063, 0.061255,-0.993722,-0.000262, 0.000616,-0.009939, 0.005774, 0.000693, 0.035514,1,-0.000416,-0.000480, 0.000609,1, 0.256369,-0.602313, 9.784778,1,0
1778259117056,   173.702,   173.702,-0.025660, 0.060695,-0.993262,-0.000257, 0.000607,-0.009934, 0.004746,-0.007035, 0.044204,1,-0.000037, 0.000119,-0.000614,1, 0.256387,-0.602253, 9.784781,1,0
1778259117078,   173.727,   173.722,-0.026176, 0.061414,-0.994522,-0.000262, 0.000615,-0.009945,-0.000384,-0.000330, 0.037401,1,-0.000023, 0.000884, 0.000326,1, 0.256300,-0.602279, 9.784781,1,0
1778259117101,   173.747,   173.747,-0.025561, 0.061660,-0.993543,-0.000258, 0.000618,-0.009934, 0.005583, 0.002341, 0.041454,1, 0.000004, 0.000145,-0.000008,1, 0.256244,-0.602340, 9.784780,1,0
1778259117126,   173.772,   173.772,-0.025320, 0.060850,-0.994103,-0.000253, 0.000610,-0.009941, 0.007881,-0.005554, 0.035960,1,-0.000388, 0.000125,-0.000167,1, 0.256178,-0.602299, 9.784783,1,0
1778259117148,   173.797,   173.792,-0.025530, 0.061783,-0.993824,-0.000256, 0.000614,-0.009934, 0.005350, 0.003886, 0.044702,1, 0.000240, 0.000231, 0.000399,1, 0.256187,-0.602243, 9.784787,1,0
1778259117171,   173.817,   173.817,-0.026367, 0.061169,-0.994475,-0.000261, 0.000612,-0.009943,-0.002434,-0.002461, 0.032314,1, 0.000554,-0.000517, 0.000342,1, 0.256157,-0.602311, 9.784783,1,0
1778259117196,   173.842,   173.842,-0.025492, 0.061218,-0.993501,-0.000254, 0.000610,-0.009938, 0.006150,-0.001937, 0.041866,1, 0.000527, 0.000102, 0.000481,1, 0.256133,-0.602263, 9.784787,1,0
1778259117218,   173.867,   173.862,-0.025496, 0.060929,-0.994304,-0.000255, 0.000612,-0.009943, 0.000457, 0.004201, 0.043708,1,-0.000206,-0.000257, 0.000283,1, 0.256156,-0.602213, 9.784790,1,0
1778259117241,   173.887,   173.887,-0.026271, 0.061363,-0.994087,-0.000262, 0.000612,-0.009940,-0.001489,-0.000411, 0.036130,1, 0.001030,-0.000659, 0.000548,1, 0.256156,-0.602149, 9.784794,1,0
1778259117266,   173.912,   173.912,-0.026279, 0.061609,-0.992699,-0.000263, 0.000614,-0.009928,-0.001541, 0.002006, 0.049744,1, 0.000368,-0.000280, 0.000148,1, 0.256172,-0.602157, 9.784793,1,0
1778259117288,   173.937,   173.932,-0.025737, 0.061108,-0.993372,-0.000260, 0.000611,-0.009934, 0.001990,-0.002505, 0.043098,1, 0.000661, 0.000958,-0.000298,1, 0.256109,-0.602062, 9.784801,1,0
1778259117311,   173.957,   173.957,-0.026181, 0.061153,-0.993742,-0.000260, 0.000614,-0.009938,-0.000762,-0.002365, 0.039519,1, 0.000112,-0.000758,-0.000196,1, 0.256012,-0.602070, 9.784802,1,0
1778259117336,   173.982,   173.982,-0.025293, 0.061547,-0.993357,-0.000255, 0.000614,-0.009937, 0.007982, 0.001522, 0.043298,1,-0.001128,-0.000332,-0.000071,1, 0.256027,-0.602081, 9.784801,1,0
1778259117358,   174.007,   174.002,-0.025942, 0.061401,-0.993232,-0.000257, 0.000615,-0.009932,-0.001074,-0.001451, 0.046301,1, 0.000799,-0.000109,-0.000256,1, 0.256003,-0.602034, 9.784804,1,0
1778259117381,   174.027,   174.027,-0.026445, 0.060753,-0.994355,-0.000263, 0.000607,-0.009945,-0.003404,-0.006245, 0.033515,1, 0.000422,-0.000581,-0.000430,1, 0.255956,-0.602012, 9.784807,1,0
1778259117407,   174.052,   174.052,-0.025493, 0.061675,-0.993049,-0.000255, 0.000614,-0.009930, 0.005943, 0.002820, 0.046325,1,-0.000211,-0.000108,-0.000476,1, 0.255953,-0.602008, 9.784807,1,0
1778259117428,   174.077,   174.072,-0.025883, 0.061164,-0.993827,-0.000259, 0.000610,-0.009940,-0.000441,-0.005497, 0.044159,1,-0.000119,-0.000281,-0.000288,1, 0.255978,-0.602028, 9.784805,1,0
1778259117451,   174.102,   174.097,-0.026064, 0.061984,-0.993319,-0.000260, 0.000619,-0.009934, 0.000336, 0.005817, 0.043678,1,-0.000177,-0.000355,-0.000066,1, 0.255944,-0.602047, 9.784805,1,0
1778259117477,   174.122,   174.122,-0.026376, 0.061192,-0.993768,-0.000263, 0.000608,-0.009938,-0.002766,-0.001902, 0.039278,1, 0.000508, 0.000048,-0.000237,1, 0.255897,-0.601974, 9.784811,1,0
1778259117498,   174.147,   174.142,-0.025913, 0.060785,-0.993804,-0.000260, 0.000608,-0.009937, 0.002214, 0.000635, 0.045066,1,-0.000294, 0.000414, 0.000409,1, 0.255829,-0.602039, 9.784809,1,0
1778259117521,   174.172,   174.167,-0.026217, 0.061403,-0.993879,-0.000262, 0.000610,-0.009939,-0.001279, 0.000111, 0.038183,1, 0.000471, 0.000213,-0.000478,1, 0.255816,-0.602026, 9.784810,1,0
1778259117547,   174.192,   174.192,-0.025823, 0.061275,-0.994116,-0.000259, 0.000611,-0.009941, 0.002710,-0.001063, 0.035866,1, 0.000631,-0.000498,-0.000061,1, 0.255959,-0.601943, 9.784811,1,0
1778259117568,   174.217,   174.212,-0.026024, 0.061297,-0.994223,-0.000262, 0.000616,-0.009941, 0.008025, 0.001761, 0.032833,1,-0.000832,-0.000382, 0.000262,1, 0.256026,-0.601977, 9.784807,1,0
1778259117591,   174.242,   174.237,-0.024962, 0.061100,-0.993409,-0.000249, 0.000611,-0.009937, 0.011282,-0.002774, 0.042796,1, 0.000268,-0.000627, 0.000193,1, 0.256098,-0.601953, 9.784807,1,0
1778259117617,   174.262,   174.262,-0.026016, 0.061192,-0.993832,-0.000263, 0.000613,-0.009938, 0.001023,-0.001884, 0.038642,1,-0.000188, 0.000012, 0.000249,1, 0.256154,-0.601983, 9.784803,1,0
1778259117638,   174.287,   174.282,-0.025813, 0.061801,-0.992828,-0.000258, 0.000617,-0.009929,-0.001550,-0.003164, 0.041699,1,-0.000117, 0.000167, 0.000167,1, 0.256069,-0.601994, 9.784805,1,0
1778259117661,   174.312,   174.307,-0.025832, 0.062168,-0.994087,-0.000257, 0.000620,-0.009944, 0.002837, 0.007683, 0.036138,1, 0.001366, 0.000126, 0.000534,1, 0.256159,-0.601938, 9.784806,1,0
1778259117687,   174.332,   174.332,-0.026102, 0.061929,-0.993513,-0.000262, 0.000617,-0.009938, 0.000167, 0.005372, 0.041773,1,-0.000541, 0.001039, 0.000444,1, 0.256110,-0.601959, 9.784806,1,0
1778259117708,   174.357,   174.352,-0.025640, 0.061229,-0.993632,-0.000258, 0.000611,-0.009941, 0.005642,-0.008083, 0.043597,1,-0.000216,-0.000472,-0.000111,1, 0.256156,-0.602069, 9.784799,1,0
1778259117731,   174.382,   174.377,-0.025423, 0.061843,-0.994008,-0.000257, 0.000617,-0.009939, 0.006802, 0.004498, 0.036912,1, 0.000771, 0.000696,-0.000503,1, 0.256100,-0.601954, 9.784807,1,0
1778259117757,   174.402,   174.402,-0.025570, 0.061563,-0.993243,-0.000257, 0.000614,-0.009936, 0.005473, 0.001768, 0.044413,1,-0.000296,-0.001035,-0.000607,1, 0.256261,-0.601971, 9.784801,1,0
1778259117779,   174.427,   174.422,-0.025322, 0.061205,-0.993248,-0.000258, 0.000612,-0.009935, 0.002756,-0.007570, 0.038110,1,-0.000223,-0.000341, 0.000075,1, 0.256328,-0.601971, 9.784800,1,0
1778259117806,   174.452,   174.452,-0.025611, 0.061912,-0.993646,-0.000259, 0.000619,-0.009939, 0.005243, 0.005252, 0.040459,1, 0.000322,-0.000600,-0.000168,1, 0.256423,-0.601885, 9.784802,1,0
1778259117827,   174.472,   174.472,-0.026130, 0.061662,-0.994458,-0.000260, 0.000618,-0.009940, 0.000215, 0.002869, 0.032502,1, 0.000398,-0.000513, 0.000075,1, 0.256478,-0.601817, 9.784805,1,0
1778259117849,   174.497,   174.492,-0.025514, 0.061265,-0.993334,-0.000255, 0.000611,-0.009934, 0.007013,-0.007916, 0.036361,1,-0.000107, 0.000145, 0.000146,1, 0.256498,-0.601798, 9.784806,1,0
1778259117876,   174.522,   174.522,-0.025234, 0.061653,-0.993837,-0.000254, 0.000615,-0.009935, 0.009039, 0.002844, 0.038596,1, 0.000431,-0.000202,-0.000273,1, 0.256505,-0.601750, 9.784809,1,0
1778259117897,   174.547,   174.542,-0.025511, 0.060695,-0.993331,-0.000255, 0.000612,-0.009933, 0.006837,-0.001480, 0.041721,1, 0.000007, 0.000202,-0.000318,1, 0.256416,-0.601767, 9.784810,1,0
1778259117919,   174.567,   174.562,-0.025897, 0.061419,-0.992874,-0.000260, 0.000612,-0.009935, 0.006647,-0.003297, 0.040168,1,-0.000026, 0.000083,-0.000004,1, 0.256416,-0.601751, 9.784811,1,0
1778259117946,   174.592,   174.592,-0.025842, 0.061235,-0.993339,-0.000258, 0.000611,-0.009934, 0.003020,-0.001270, 0.043482,1,-0.001447,-0.000059, 0.000150,1, 0.256447,-0.601824, 9.784806,1,0
1778259117967,   174.617,   174.612,-0.026338, 0.061569,-0.993806,-0.000264, 0.000615,-0.009938, 0.007668,-0.000991, 0.038122,1, 0.000129,-0.000033, 0.000039,1, 0.256418,-0.601776, 9.784810,1,0
1778259117989,   174.637,   174.632,-0.026255, 0.060462,-0.993256,-0.000258, 0.000601,-0.009938,-0.001638, 0.001989, 0.049516,1,-0.000704, 0.000209,-0.000320,1, 0.256429,-0.601810, 9.784807,1,0
1778259118016,   174.662,   174.662,-0.025434, 0.061482,-0.993772,-0.000257, 0.000624,-0.009931, 0.006968, 0.001164, 0.039232,1,-0.000702,-0.000412,-0.000243,1, 0.256400,-0.601791, 9.784809,1,0
1778259118037,   174.687,   174.682,-0.026519, 0.061198,-0.993649,-0.000260, 0.000611,-0.009940,-0.001995, 0.007296, 0.042254,1,-0.000436, 0.000093, 0.000224,1, 0.256407,-0.601771, 9.784810,1,0
1778259118059,   174.707,   174.702,-0.025843, 0.061043,-0.994032,-0.000259, 0.000616,-0.009935, 0.004407,-0.014215, 0.033753,1, 0.000242, 0.000277,-0.000377,1, 0.256403,-0.601746, 9.784812,1,0
1778259118086,   174.732,   174.732,-0.025194, 0.062106,-0.993015,-0.000255, 0.000616,-0.009935, 0.004152, 0.004572, 0.038741,1, 0.000008,-0.000431,-0.000472,1, 0.256446,-0.601788, 9.784808,1,0
1778259118107,   174.757,   174.752,-0.026220, 0.061388,-0.993940,-0.000261, 0.000616,-0.009938,-0.001754,-0.009742, 0.040319,1, 0.000080,-0.000116, 0.000841,1, 0.256369,-0.601865, 9.784805,1,0
1778259118129,   174.777,   174.772,-0.026119, 0.061347,-0.994234,-0.000262, 0.000613,-0.009940,-0.000129,-0.001293, 0.037100,1, 0.000218, 0.000901,-0.000342,1, 0.256250,-0.601859, 9.784809,1,0
1778259118156,   174.802,   174.802,-0.025604, 0.061160,-0.992992,-0.000256, 0.000607,-0.009934, 0.005198,-0.002055, 0.046887,1,-0.000849, 0.000796, 0.000336,1, 0.256258,-0.601861, 9.784808,1,0
1778259118177,   174.827,   174.822,-0.026428, 0.061526,-0.994134,-0.000265, 0.000619,-0.009937,-0.000014,-0.009397, 0.034229,1, 0.000168,-0.000830,-0.000177,1, 0.256399,-0.601938, 9.784801,1,0
1778259118199,   174.847,   174.842,-0.025936, 0.061190,-0.993418,-0.000259, 0.000609,-0.009936,-0.003083, 0.006693, 0.040536,1, 0.000504,-0.000420,-0.000260,1, 0.256531,-0.601840, 9.784802,1,0
1778259118226,   174.872,   174.872,-0.026025, 0.061328,-0.993559,-0.000260, 0.000612,-0.009939, 0.001316,-0.000337, 0.041316,1,-0.000066,-0.000109,-0.000249,1, 0.256537,-0.601762, 9.784807,1,0
1778259118248,   174.897,   174.892,-0.026069, 0.061471,-0.994322,-0.000259, 0.000617,-0.009937, 0.001266, 0.003367, 0.033753,1, 0.000250,-0.000205, 0.000194,1, 0.256561,-0.601718, 9.784809,1,0
1778259118269,   174.917,   174.912,-0.025207, 0.061498,-0.993104,-0.000258, 0.000619,-0.009933, 0.000749,-0.001131, 0.036219,1,-0.000295,-0.000877, 0.000484,1, 0.256548,-0.601776, 9.784806,1,0
1778259118296,   174.942,   174.942,-0.025712, 0.060721,-0.993379,-0.000258, 0.000604,-0.009940, 0.004416,-0.006394, 0.043083,1,-0.000300, 0.000161, 0.000018,1, 0.256555,-0.601886, 9.784800,1,0
1778259118318,   174.967,   174.962,-0.026354, 0.061069,-0.993901,-0.000261, 0.000610,-0.009938,-0.000881, 0.007969, 0.042808,1, 0.000182, 0.000401,-0.000743,1, 0.256491,-0.601820, 9.784805,1,0
1778259118340,   174.987,   174.987,-0.025787, 0.060875,-0.994087,-0.000259, 0.000615,-0.009938, 0.003587,-0.004742, 0.036149,1, 0.000425, 0.000324, 0.000203,1, 0.256458,-0.601710, 9.784813,1,0
1778259118366,   175.012,   175.012,-0.025833, 0.061142,-0.993104,-0.000261, 0.000610,-0.009934, 0.003150,-0.002128, 0.045783,1,-0.000148,-0.000566,-0.000242,1, 0.256501,-0.601728, 9.784810,1,0
1778259118388,   175.037,   175.032,-0.025611, 0.062213,-0.993951,-0.000258, 0.000619,-0.009941, 0.003489, 0.001267, 0.040508,1, 0.000187,-0.000151, 0.000046,1, 0.256525,-0.601608, 9.784817,1,0
1778259118411,   175.057,   175.057,-0.026320, 0.061189,-0.993435,-0.000259, 0.000610,-0.009932,-0.001539,-0.001654, 0.042544,1, 0.000018, 0.000316,-0.000450,1, 0.256561,-0.601713, 9.784810,1,0
1778259118436,   175.082,   175.082,-0.026061, 0.061072,-0.994085,-0.000261, 0.000613,-0.009935, 0.001023,-0.002828, 0.036166,1, 0.000289, 0.000052, 0.000129,1, 0.256588,-0.601729, 9.784808,1,0
1778259118458,   175.107,   175.102,-0.025982, 0.061787,-0.993756,-0.000260, 0.000619,-0.009939, 0.004038, 0.002549, 0.044579,1, 0.000346,-0.000067, 0.000102,1, 0.256604,-0.601665, 9.784812,1,0
1778259118481,   175.127,   175.127,-0.025709, 0.060191,-0.994811,-0.000256, 0.000610,-0.009942, 0.004597,-0.011501, 0.029040,1, 0.000527,-0.000690,-0.000051,1, 0.256741,-0.601753, 9.784802,1,0
1778259118506,   175.152,   175.152,-0.025433, 0.062035,-0.992888,-0.000259, 0.000615,-0.009939, 0.007327, 0.006530, 0.047896,1,-0.000744,-0.000261, 0.000067,1, 0.256750,-0.601853, 9.784796,1,0
1778259118528,   175.177,   175.172,-0.026479, 0.060722,-0.994924,-0.000259, 0.000611,-0.009938,-0.002870,-0.003475, 0.026636,1, 0.000039,-0.000180,-0.000300,1, 0.256790,-0.601799, 9.784799,1,0
1778259118551,   175.197,   175.197,-0.025798, 0.061884,-0.993178,-0.000261, 0.000616,-0.009935, 0.003695, 0.005083, 0.045057,1,-0.000275, 0.000412,-0.000146,1, 0.256675,-0.601798, 9.784801,1,0
1778259118576,   175.222,   175.222,-0.026778, 0.061268,-0.993507,-0.000262, 0.000610,-0.009943,-0.005899,-0.000942, 0.041822,1, 0.000542,-0.000552,-0.000246,1, 0.256721,-0.601755, 9.784803,1,0
1778259118598,   175.247,   175.242,-0.024984, 0.061624,-0.994007,-0.000256, 0.000615,-0.009935, 0.005477,-0.007228, 0.031512,1,-0.000594, 0.000186, 0.000256,1, 0.256744,-0.601799, 9.784800,1,0
1778259118621,   175.267,   175.267,-0.025926, 0.061501,-0.993198,-0.000260, 0.000612,-0.009938, 0.002560, 0.001283, 0.044855,1, 0.000119,-0.000375, 0.000448,1, 0.256820,-0.601834, 9.784796,1,0
1778259118647,   175.292,   175.292,-0.025681, 0.061117,-0.993191,-0.000257, 0.000617,-0.009932, 0.004999,-0.002522, 0.044917,1,-0.000465, 0.000020,-0.000355,1, 0.256842,-0.601888, 9.784792,1,0
1778259118668,   175.317,   175.312,-0.025382, 0.061276,-0.993733,-0.000260, 0.000608,-0.009935, 0.004578, 0.002237, 0.037554,1, 0.000207,-0.000633,-0.000243,1, 0.256883,-0.601831, 9.784794,1,0
1778259118691,   175.342,   175.337,-0.026141, 0.060715,-0.993166,-0.000259, 0.000611,-0.009940, 0.000552,-0.006497, 0.045153,1, 0.000220, 0.000595, 0.000146,1, 0.256876,-0.601913, 9.784789,1,0
1778259118717,   175.362,   175.362,-0.026094, 0.061786,-0.993436,-0.000261, 0.000619,-0.009929, 0.001052, 0.004006, 0.042512,1,-0.000149,-0.000488, 0.000107,1, 0.256965,-0.601917, 9.784786,1,0
1778259118738,   175.387,   175.382,-0.025407, 0.060722,-0.993485,-0.000255, 0.000607,-0.009940,-0.001771,-0.005512, 0.034074,1, 0.000058,-0.000369, 0.000203,1, 0.257022,-0.601946, 9.784783,1,0
1778259118761,   175.412,   175.407,-0.025946, 0.061119,-0.993947,-0.000260, 0.000613,-0.009937, 0.002566,-0.002534, 0.037492,1, 0.000372,-0.000354, 0.000196,1, 0.257022,-0.601894, 9.784786,1,0
1778259118787,   175.432,   175.432,-0.026144, 0.061959,-0.993835,-0.000261, 0.000612,-0.009935, 0.000631, 0.005796, 0.038596,1, 0.000404,-0.000314,-0.000348,1, 0.257027,-0.601801, 9.784792,1,0
1778259118808,   175.457,   175.452,-0.025395, 0.061105,-0.993314,-0.000259, 0.000620,-0.009930, 0.004218,-0.005517, 0.043325,1, 0.000868,-0.000776,-0.000164,1, 0.257057,-0.601729, 9.784796,1,0
1778259118831,   175.482,   175.477,-0.026053, 0.060815,-0.994350,-0.000258, 0.000603,-0.009946, 0.001484,-0.005318, 0.033557,1,-0.000177,-0.000125, 0.000134,1, 0.256984,-0.601713, 9.784799,1,0
1778259118857,   175.502,   175.502,-0.025921, 0.060785,-0.994078,-0.000260, 0.000616,-0.009937, 0.002783,-0.005624, 0.036226,1, 0.000030, 0.000146, 0.000007,1, 0.256975,-0.601719, 9.784799,1,0
1778259118878,   175.527,   175.522,-0.025763, 0.061381,-0.994223,-0.000258, 0.000611,-0.009940, 0.000389,-0.002032, 0.044233,1,-0.000615,-0.000178, 0.000190,1, 0.257031,-0.601762, 9.784795,1,0
1778259118901,   175.552,   175.547,-0.026050, 0.061154,-0.993903,-0.000257, 0.000608,-0.009941, 0.001515,-0.002159, 0.037929,1, 0.000272, 0.000414, 0.000192,1, 0.256961,-0.601864, 9.784790,1,0
1778259118927,   175.572,   175.572,-0.025321, 0.061296,-0.993689,-0.000256, 0.000619,-0.009937, 0.008635,-0.000845, 0.040023,1,-0.000929, 0.000728, 0.000294,1, 0.256921,-0.601985, 9.784783,1,0
1778259118948,   175.597,   175.592,-0.026386, 0.061317,-0.993919,-0.000262, 0.000614,-0.009934,-0.000798, 0.005778, 0.049038,1, 0.001150, 0.000077, 0.000136,1, 0.256927,-0.601829, 9.784793,1,0
1778259118971,   175.622,   175.617,-0.025849, 0.060773,-0.993614,-0.000260, 0.000613,-0.009936, 0.003408,-0.005961, 0.040759,1,-0.000167, 0.000600,-0.000095,1, 0.256885,-0.601941, 9.784787,1,0
1778259118997,   175.642,   175.642,-0.025988, 0.061645,-0.993328,-0.000262, 0.000613,-0.009932, 0.001989, 0.002624, 0.043570,1,-0.000335,-0.000339, 0.000280,1, 0.256857,-0.601918, 9.784789,1,0
1778259119018,   175.667,   175.662,-0.025879, 0.060852,-0.993795,-0.000257, 0.000612,-0.009933,-0.004711,-0.004168, 0.044874,1, 0.000143,-0.000110,-0.000327,1, 0.256887,-0.601875, 9.784791,1,0
1778259119045,   175.692,   175.692,-0.025727, 0.061820,-0.993286,-0.000260, 0.000612,-0.009933, 0.004626, 0.004354, 0.043982,1,-0.000639,-0.000001,-0.000525,1, 0.256919,-0.601910, 9.784788,1,0
1778259119067,   175.712,   175.712,-0.026033, 0.061347,-0.993476,-0.000259, 0.000614,-0.009934, 0.001600,-0.000331, 0.042115,1, 0.000559,-0.000040,-0.000123,1, 0.256898,-0.601917, 9.784788,1,0
1778259119089,   175.737,   175.732,-0.025852, 0.061458,-0.993449,-0.000261, 0.000613,-0.009933, 0.003409,-0.001190, 0.036742,1, 0.000182,-0.000359, 0.000046,1, 0.256899,-0.601936, 9.784787,1,0
1778259119116,   175.762,   175.762,-0.025766, 0.061146,-0.993544,-0.000256, 0.000612,-0.009937, 0.004266,-0.002474, 0.041436,1, 0.000259,-0.000058,-0.000213,1, 0.256945,-0.602105, 9.784776,1,0
1778259119137,   175.787,   175.782,-0.025111, 0.061339,-0.993551,-0.000253, 0.000611,-0.009941, 0.000139,-0.000660, 0.039755,1,-0.000545, 0.000091, 0.000077,1, 0.256914,-0.602211, 9.784770,1,0
1778259119159,   175.807,   175.802,-0.025662, 0.061885,-0.994022,-0.000260, 0.000617,-0.009936, 0.002357,-0.000174, 0.043886,1,-0.000412, 0.000211, 0.000365,1, 0.256876,-0.602184, 9.784773,1,1
1778259119186,   175.832,   175.832,-0.025290, 0.061226,-0.993963,-0.000258, 0.000615,-0.009943, 0.008974,-0.001758, 0.037323,1, 0.000403, 0.000070, 0.000289,1, 0.256979,-0.602167, 9.784771,1,1
1778259119207,   175.857,   175.852,-0.026478, 0.061146,-0.993609,-0.000263, 0.000607,-0.009938,-0.002670, 0.002702, 0.045029,1,-0.000044, 0.000279, 0.000790,1, 0.256957,-0.602193, 9.784770,1,1
1778259119229,   175.877,   175.872,-0.025926, 0.061171,-0.994146,-0.000259, 0.000612,-0.009939, 0.003983,-0.003032, 0.038978,1, 0.000315,-0.000119, 0.000090,1, 0.256980,-0.602181, 9.784770,1,1
1778259119256,   175.902,   175.902,-0.026113, 0.061134,-0.993504,-0.000260, 0.000608,-0.009938, 0.000804,-0.002726, 0.041820,1,-0.000095, 0.000457,-0.000537,1, 0.256873,-0.602251, 9.784768,1,1
1778259119277,   175.927,   175.922,-0.026096, 0.061424,-0.993917,-0.000260, 0.000612,-0.009941, 0.001638,-0.003599, 0.039888,1,-0.000206, 0.000410,-0.000023,1, 0.256863,-0.602280, 9.784767,1,1
1778259119299,   175.947,   175.942,-0.025862, 0.061737,-0.993636,-0.000258, 0.000617,-0.009937, 0.006778,-0.000493, 0.040800,1,-0.000245, 0.000223, 0.000077,1, 0.256819,-0.602258, 9.784769,1,1
1778259119326,   175.972,   175.972,-0.026092, 0.061859,-0.993232,-0.000260, 0.000613,-0.009936, 0.000981, 0.004322, 0.044486,1,-0.000203, 0.000300,-0.000666,1, 0.256849,-0.602314, 9.784765,1,1
1778259119347,   175.997,   175.992,-0.026109, 0.061388,-0.993535,-0.000260, 0.000614,-0.009935, 0.009086,-0.000932, 0.041213,1, 0.000120, 0.000054,-0.000381,1, 0.256817,-0.602352, 9.784763,1,1
1778259119369,   176.017,   176.012,-0.026342, 0.060976,-0.994254,-0.000265, 0.000609,-0.009939, 0.004701, 0.001593, 0.041381,1,-0.000492, 0.000188, 0.000310,1, 0.256879,-0.602409, 9.784759,1,1
1778259119396,   176.042,   176.042,-0.025688, 0.060946,-0.993742,-0.000260, 0.000610,-0.009938, 0.004877,-0.004781, 0.039476,1,-0.000236,-0.000115, 0.000751,1, 0.256788,-0.602462, 9.784758,1,1
1778259119417,   176.067,   176.062,-0.025707, 0.061063,-0.993327,-0.000261, 0.000613,-0.009935, 0.005636,-0.002821, 0.033050,1,-0.000206,-0.000845,-0.000023,1, 0.256824,-0.602536, 9.784752,1,1
1778259119439,   176.087,   176.082,-0.025712, 0.061495,-0.993378,-0.000257, 0.000614,-0.009938, 0.004327, 0.002904, 0.042553,1, 0.000173,-0.000500,-0.000296,1, 0.256850,-0.602471, 9.784756,1,1
1778259119466,   176.112,   176.112,-0.025968, 0.061151,-0.993472,-0.000260, 0.000612,-0.009935, 0.002197,-0.002840, 0.042116,1,-0.000095,-0.000180,-0.000542,1, 0.256864,-0.602524, 9.784752,1,1
1778259119488,   176.137,   176.132,-0.026575, 0.061513,-0.993833,-0.000260, 0.000614,-0.009939,-0.002177, 0.004075, 0.040419,1, 0.000010, 0.000002,-0.000145,1, 0.256865,-0.602461, 9.784756,1,1
1778259119509,   176.157,   176.152,-0.025839, 0.061752,-0.993063,-0.000260, 0.000618,-0.009932,-0.001247,-0.002528, 0.040603,1, 0.000224,-0.000150, 0.000153,1, 0.256738,-0.602511, 9.784756,1,1
1778259119536,   176.182,   176.182,-0.026219, 0.061749,-0.993840,-0.000260, 0.000614,-0.009936,-0.000399, 0.003036, 0.038517,1,-0.000676,-0.000354,-0.000383,1, 0.256733,-0.602532, 9.784755,1,1
1778259119558,   176.207,   176.202,-0.026157, 0.061487,-0.994046,-0.000259, 0.000612,-0.009938, 0.001195, 0.005760, 0.041811,1,-0.000453,-0.000250,-0.000410,1, 0.256784,-0.602526, 9.784754,1,1
1778259119580,   176.227,   176.227,-0.026293, 0.061668,-0.993964,-0.000261, 0.000614,-0.009939,-0.000891, 0.002280, 0.037292,1, 0.000382,-0.000458, 0.000151,1, 0.256966,-0.602463, 9.784753,1,1
1778259119606,   176.252,   176.252,-0.026250, 0.061577,-0.994033,-0.000260, 0.000612,-0.009935,-0.000476, 0.001404, 0.036619,1, 0.000580, 0.000131,-0.000219,1, 0.256949,-0.602439, 9.784755,1,1
1778259119628,   176.277,   176.272,-0.025907, 0.060728,-0.994307,-0.000258, 0.000609,-0.009944, 0.008196, 0.003355, 0.038683,1, 0.000565, 0.000410,-0.000026,1, 0.256848,-0.602324, 9.784764,1,1
1778259119650,   176.297,   176.297,-0.025809, 0.061228,-0.993633,-0.000258, 0.000610,-0.009936, 0.003790,-0.001918, 0.040551,1,-0.000703, 0.000215,-0.000284,1, 0.256885,-0.602383, 9.784760,1,1
1778259119676,   176.322,   176.322,-0.025638, 0.061455,-0.994116,-0.000256, 0.000619,-0.009939, 0.005485, 0.000162, 0.035802,1,-0.000843, 0.000334, 0.000022,1, 0.256893,-0.602531, 9.784751,1,1
1778259119698,   176.347,   176.342,-0.025542, 0.061413,-0.992743,-0.000258, 0.000615,-0.009933, 0.011825,-0.007054, 0.036068,1,-0.000024,-0.000006,-0.000004,1, 0.256769,-0.602564, 9.784752,1,1
1778259119721,   176.367,   176.367,-0.025605, 0.061098,-0.993043,-0.000262, 0.000612,-0.009932, 0.005638,-0.003285, 0.046337,1, 0.000219, 0.000075, 0.000241,1, 0.256736,-0.602442, 9.784760,1,1
1778259119746,   176.392,   176.392,-0.025455, 0.061260,-0.993537,-0.000257, 0.000614,-0.009939, 0.007148,-0.001704, 0.041484,1,-0.000261,-0.000218,-0.000486,1, 0.256779,-0.602464, 9.784758,1,1
1778259119768,   176.417,   176.412,-0.026121, 0.061522,-0.993534,-0.000261, 0.000612,-0.009937, 0.006596,-0.003513, 0.038862,1, 0.000069,-0.000111, 0.000520,1, 0.256771,-0.602493, 9.784757,1,1
1778259119791,   176.437,   176.437,-0.026181, 0.061869,-0.993367,-0.000261, 0.000617,-0.009930, 0.000102, 0.004267, 0.043155,1,-0.000148,-0.000903,-0.000229,1, 0.256874,-0.602462, 9.784756,1,1
1778259119816,   176.462,   176.462,-0.026354, 0.061701,-0.993593,-0.000257, 0.000615,-0.009932,-0.001550, 0.002644, 0.040939,1, 0.000480,-0.000348,-0.000285,1, 0.256904,-0.602424, 9.784757,1,1
1778259119838,   176.487,   176.482,-0.026269, 0.062128,-0.993584,-0.000257, 0.000617,-0.009936,-0.001255,-0.002398, 0.037502,1, 0.000503,-0.000040, 0.000204,1, 0.256988,-0.602377, 9.784758,1,1
1778259119861,   176.507,   176.507,-0.026258, 0.062055,-0.993305,-0.000256, 0.000621,-0.009932,-0.000473, 0.006238, 0.043763,1,-0.000515, 0.000770, 0.000812,1, 0.257001,-0.602332, 9.784760,1,1
1778259119886,   176.532,   176.532,-0.025677, 0.061450,-0.993866,-0.000258, 0.000615,-0.009938, 0.005085, 0.000407, 0.038274,1, 0.000759, 0.000589,-0.000249,1, 0.256878,-0.602189, 9.784772,1,1
1778259119908,   176.557,   176.552,-0.025695, 0.061834,-0.993489,-0.000261, 0.000617,-0.009939, 0.006923,-0.004414, 0.040376,1, 0.000165,-0.000099, 0.000092,1, 0.256758,-0.602225, 9.784773,1,1
1778259119931,   176.582,   176.577,-0.025726, 0.060885,-0.993932,-0.000259, 0.000607,-0.009942, 0.004563,-0.005197, 0.037623,1,-0.000415,-0.000825,-0.000024,1, 0.256870,-0.602288, 9.784766,1,1
1778259119957,   176.602,   176.602,-0.026014, 0.062227,-0.993396,-0.000258, 0.000620,-0.009934, 0.001714, 0.008012, 0.042882,1, 0.000681, 0.000378, 0.000379,1, 0.256816,-0.602202, 9.784773,1,1
1778259119978,   176.627,   176.622,-0.025936, 0.060718,-0.993794,-0.000260, 0.000608,-0.009936, 0.002097,-0.005965, 0.038097,1,-0.000210, 0.000712,-0.000202,1, 0.256719,-0.602178, 9.784777,1,1
1778259120001,   176.652,   176.647,-0.025591, 0.060789,-0.993147,-0.000257, 0.000613,-0.009929, 0.005750,-0.005936, 0.045336,1, 0.000980, 0.000045, 0.000201,1, 0.256708,-0.602039, 9.784786,1,1
1778259120027,   176.672,   176.672,-0.025231, 0.061201,-0.993977,-0.000258, 0.000613,-0.009941, 0.009372,-0.001890, 0.037195,1, 0.000235,-0.001081,-0.000323,1, 0.256841,-0.602055, 9.784781,1,1
1778259120048,   176.697,   176.692,-0.026140, 0.060904,-0.993511,-0.000261, 0.000615,-0.009934, 0.009170,-0.001985, 0.040952,1, 0.000552,-0.000247, 0.000255,1, 0.256810,-0.602072, 9.784781,1,1
1778259120071,   176.722,   176.717,-0.025727, 0.061039,-0.993979,-0.000256, 0.000612,-0.009934, 0.004626,-0.003550, 0.037171,1,-0.000719,-0.000494,-0.000178,1, 0.256939,-0.602161, 9.784772,1,1
1778259120097,   176.742,   176.742,-0.026326, 0.061042,-0.993560,-0.000260, 0.000611,-0.009934,-0.001268,-0.003591, 0.041274,1,-0.000194, 0.000193, 0.000160,1, 0.256889,-0.602217, 9.784770,1,1
1778259120118,   176.767,   176.762,-0.026055, 0.061774,-0.993400,-0.000263, 0.000619,-0.009936, 0.007130,-0.004236, 0.034306,1, 0.000258,-0.000059,-0.000001,1, 0.256916,-0.602284, 9.784765,1,1
1778259120141,   176.792,   176.787,-0.025856, 0.061220,-0.993289,-0.000258, 0.000615,-0.009932, 0.003416,-0.001980, 0.043920,1,-0.000498,-0.000561,-0.000391,1, 0.256996,-0.602357, 9.784759,1,1
1778259120167,   176.812,   176.812,-0.026252, 0.061112,-0.994046,-0.000259, 0.000616,-0.009936,-0.000512,-0.003089, 0.036492,1,-0.000429, 0.000137, 0.000283,1, 0.256928,-0.602404, 9.784758,1,1
1778259120188,   176.837,   176.832,-0.025739, 0.062238,-0.993449,-0.000260, 0.000617,-0.009937, 0.005152,-0.004243, 0.040511,1, 0.000100,-0.000412,-0.000269,1, 0.256929,-0.602473, 9.784754,1,1
1778259120211,   176.862,   176.857,-0.025313, 0.061204,-0.993492,-0.000255, 0.000613,-0.009935, 0.008718,-0.002322, 0.041916,1,-0.000450,-0.000695,-0.000136,1, 0.256972,-0.602539, 9.784748,1,1
1778259120237,   176.882,   176.882,-0.025720, 0.061646,-0.993412,-0.000257, 0.000618,-0.009935, 0.004732, 0.001899, 0.042701,1,-0.001160,-0.000055,-0.000617,1, 0.256963,-0.602675, 9.784740,1,1
1778259120258,   176.907,   176.902,-0.025387, 0.061408,-0.993450,-0.000254, 0.000613,-0.009932, 0.003591, 0.001158, 0.043097,1,-0.000465,-0.000534,-0.000015,1, 0.257054,-0.602664, 9.784739,1,1
1778259120285,   176.932,   176.932,-0.025627, 0.061994,-0.992855,-0.000261, 0.000617,-0.009933, 0.005705, 0.005369, 0.048162,1, 0.000537,-0.000140,-0.000169,1, 0.257027,-0.602568, 9.784745,1,1
1778259120307,   176.952,   176.952,-0.025788, 0.061392,-0.993364,-0.000260, 0.000612,-0.009937, 0.004008,-0.000655, 0.043170,1,-0.000582, 0.000320,-0.000109,1, 0.256893,-0.602719, 9.784739,1,1
1778259120329,   176.977,   176.972,-0.026214, 0.061111,-0.993954,-0.000260, 0.000611,-0.009940, 0.002582,-0.001152, 0.043197,1,-0.001226, 0.000499, 0.000560,1, 0.256839,-0.602761, 9.784738,1,1
1778259120355,   177.002,   177.002,-0.025540, 0.061939,-0.993426,-0.000257, 0.000615,-0.009934, 0.006513, 0.004799, 0.042560,1, 0.000520,-0.000222, 0.000447,1, 0.256981,-0.602598, 9.784744,1,1
1778259120377,   177.027,   177.022,-0.025723, 0.060207,-0.994017,-0.000261, 0.000608,-0.009940, 0.002230,-0.001320, 0.042703,1,-0.000349,-0.000441,-0.000292,1, 0.256980,-0.602552, 9.784747,1,1
1778259120399,   177.047,   177.042,-0.026088, 0.061624,-0.993225,-0.000262, 0.000613,-0.009932, 0.007242,-0.000132, 0.042894,1,-0.000134,-0.000108, 0.000238,1, 0.256989,-0.602618, 9.784743,1,1
1778259120426,   177.072,   177.072,-0.026118, 0.060857,-0.993824,-0.000260, 0.000610,-0.009941, 0.000917,-0.005872, 0.038656,1, 0.000364,-0.000762, 0.000115,1, 0.257067,-0.602667, 9.784738,1,1
1778259120447,   177.097,   177.092,-0.025653, 0.061397,-0.993150,-0.000258, 0.000612,-0.009930, 0.002704,-0.001853, 0.046557,1, 0.000163, 0.000098, 0.000399,1, 0.257019,-0.602682, 9.784739,1,1
1778259120469,   177.117,   177.112,-0.026007, 0.061503,-0.993964,-0.000260, 0.000616,-0.009939, 0.004152, 0.002028, 0.042499,1,-0.000031,-0.000079,-0.000461,1, 0.256997,-0.602711, 9.784737,1,1
1778259120496,   177.142,   177.142,-0.026034, 0.061239,-0.993872,-0.000258, 0.000614,-0.009937, 0.001658,-0.002164, 0.038181,1, 0.000804, 0.000184, 0.000203,1, 0.256942,-0.602691, 9.784739,1,1
1778259120517,   177.167,   177.162,-0.026515, 0.061175,-0.994214,-0.000263, 0.000614,-0.009939, 0.002724,-0.003076, 0.043254,1,-0.000169,-0.000784, 0.000213,1, 0.257021,-0.602711, 9.784737,1,1
1778259120539,   177.187,   177.182,-0.026266, 0.061476,-0.993298,-0.000262, 0.000613,-0.009937, 0.001622,-0.004349, 0.043212,1, 0.000126,-0.000619,-0.000213,1, 0.257080,-0.602702, 9.784736,1,1
1778259120566,   177.212,   177.212,-0.026506, 0.061522,-0.993587,-0.000263, 0.000615,-0.009939,-0.002855, 0.000695, 0.040981,1, 0.000657, 0.000043,-0.000314,1, 0.257082,-0.602611, 9.784740,1,1
1778259120587,   177.237,   177.232,-0.026100, 0.061231,-0.993917,-0.000262, 0.000613,-0.009942, 0.000328,-0.006365, 0.035644,1,-0.000271, 0.000123, 0.000001,1, 0.257115,-0.602656, 9.784738,1,1
1778259120609,   177.257,   177.252,-0.025427, 0.061242,-0.993474,-0.000257, 0.000612,-0.009935, 0.010430, 0.001331, 0.046153,1,-0.000188,-0.001108, 0.000017,1, 0.257162,-0.602649, 9.784737,1,1
1778259120636,   177.282,   177.282,-0.025569, 0.061451,-0.994129,-0.000255, 0.000614,-0.009940, 0.006422,-0.000056, 0.035657,1,-0.000043,-0.000537,-0.000013,1, 0.257182,-0.602682, 9.784734,1,1
1778259120657,   177.307,   177.302,-0.025535, 0.060642,-0.992879,-0.000257, 0.000610,-0.009932, 0.000357, 0.000191, 0.047218,1, 0.000651,-0.000232,-0.000133,1, 0.257251,-0.602670, 9.784733,1,1
1778259120679,   177.327,   177.322,-0.025983, 0.061227,-0.993009,-0.000260, 0.000612,-0.009931, 0.004383,-0.008870, 0.034978,1, 0.000644,-0.000477,-0.000057,1, 0.257314,-0.602698, 9.784729,1,1
1778259120706,   177.352,   177.352,-0.025935, 0.061870,-0.993084,-0.000257, 0.000618,-0.009930, 0.002865, 0.003944, 0.045893,1,-0.000007, 0.000760, 0.000277,1, 0.257174,-0.602798, 9.784727,1,1
1778259120727,   177.377,   177.372,-0.026201, 0.061528,-0.993577,-0.000261, 0.000612,-0.009937, 0.003890,-0.010819, 0.031016,1,-0.000307, 0.000441, 0.000155,1, 0.257152,-0.602840, 9.784725,1,1
1778259120749,   177.397,   177.392,-0.025681, 0.061899,-0.993325,-0.000257, 0.000618,-0.009934,-0.002123,-0.002007, 0.044258,1,-0.000185, 0.000621, 0.000050,1, 0.257122,-0.602861, 9.784724,1,1
1778259120776,   177.422,   177.422,-0.026155, 0.061438,-0.994402,-0.000259, 0.000616,-0.009942, 0.000628,-0.000175, 0.032987,1, 0.000390, 0.000257, 0.000597,1, 0.257108,-0.602661, 9.784737,1,1
1778259120798,   177.447,   177.442,-0.026136, 0.061300,-0.992821,-0.000258, 0.000612,-0.009928, 0.001092,-0.001390, 0.040533,1, 0.000515, 0.000175, 0.001237,1, 0.257020,-0.602604, 9.784743,1,1
1778259120820,   177.467,   177.467,-0.026133, 0.061306,-0.993626,-0.000260, 0.000614,-0.009934, 0.000646,-0.001439, 0.040599,1, 0.000062,-0.000128,-0.000015,1, 0.256928,-0.602645, 9.784742,1,1
1778259120846,   177.492,   177.492,-0.025484, 0.061747,-0.993768,-0.000256, 0.000617,-0.009938, 0.006977, 0.002939, 0.039212,1, 0.000518, 0.000481,-0.000260,1, 0.256875,-0.602571, 9.784749,1,1
1778259120868,   177.517,   177.512,-0.026207, 0.061220,-0.994159,-0.000259, 0.000610,-0.009942, 0.004481,-0.003099, 0.044952,1, 0.000136,-0.000274, 0.000142,1, 0.256858,-0.602589, 9.784748,1,1
1778259120890,   177.537,   177.537,-0.025734, 0.061997,-0.993795,-0.000257, 0.000623,-0.009936, 0.004308, 0.005355, 0.038949,1, 0.000036,-0.000156,-0.000044,1, 0.256670,-0.602626, 9.784751,1,1
1778259120916,   177.562,   177.562,-0.025780, 0.061287,-0.993635,-0.000258, 0.000614,-0.009933, 0.003933,-0.001583, 0.040523,1, 0.000135,-0.000367,-0.000518,1, 0.256757,-0.602598, 9.784750,1,1
1778259120938,   177.587,   177.582,-0.026394, 0.060771,-0.993061,-0.000264, 0.000609,-0.009931,-0.004671,-0.003559, 0.040200,1, 0.000192,-0.000463,-0.000235,1, 0.256741,-0.602614, 9.784750,1,1
1778259120960,   177.607,   177.607,-0.025996, 0.061618,-0.993702,-0.000260, 0.000618,-0.009933, 0.001805, 0.001671, 0.039865,1,-0.000177,-0.000019,-0.000201,1, 0.256738,-0.602604, 9.784750,1,1
1778259120986,   177.632,   177.632,-0.025919, 0.060795,-0.994797,-0.000259, 0.000613,-0.009946, 0.002576,-0.006351, 0.029128,1, 0.000311, 0.000013,-0.000095,1, 0.256752,-0.602537, 9.784754,1,1
1778259121008,   177.657,   177.652,-0.025755, 0.061092,-0.993492,-0.000257, 0.000614,-0.009932, 0.003676,-0.006131, 0.048664,1, 0.000653,-0.000030, 0.000387,1, 0.256859,-0.602435, 9.784758,1,1
1778259121031,   177.677,   177.677,-0.025608, 0.061110,-0.993390,-0.000258, 0.000613,-0.009935, 0.005700,-0.003178, 0.042928,1, 0.000267, 0.000440,-0.000122,1, 0.256816,-0.602450, 9.784758,1,1
1778259121056,   177.702,   177.702,-0.025785, 0.061475,-0.993788,-0.000259, 0.000619,-0.009938, 0.003887, 0.000451, 0.039032,1, 0.000802,-0.000011, 0.000096,1, 0.256753,-0.602390, 9.784763,1,1
1778259121078,   177.727,   177.722,-0.025868, 0.061421,-0.993590,-0.000259, 0.000614,-0.009935,-0.001198,-0.002023, 0.034000,1, 0.000054, 0.000535,-0.000046,1, 0.256703,-0.602271, 9.784772,1,1
1778259121101,   177.747,   177.747,-0.025865, 0.061033,-0.993441,-0.000260, 0.000611,-0.009934, 0.002887,-0.003855, 0.042440,1,-0.000016, 0.000313, 0.000086,1, 0.256525,-0.602383, 9.784769,1,1
1778259121126,   177.772,   177.772,-0.026259, 0.060797,-0.993624,-0.000265, 0.000610,-0.009936,-0.000980,-0.006245, 0.040645,1,-0.000016, 0.000089,-0.000615,1, 0.256531,-0.602457, 9.784764,1,1
1778259121148,   177.797,   177.792,-0.026143, 0.060977,-0.993070,-0.000260, 0.000611,-0.009928, 0.002909,-0.004519, 0.041555,1, 0.000935, 0.000052, 0.000155,1, 0.256514,-0.602402, 9.784769,1,1
1778259121171,   177.822,   177.817,-0.025791, 0.061250,-0.993812,-0.000258, 0.000613,-0.009937, 0.003597,-0.001770, 0.038796,1,-0.000187, 0.000076, 0.000030,1, 0.256523,-0.602437, 9.784766,1,1
1778259121196,   177.842,   177.842,-0.025772, 0.060995,-0.993050,-0.000258, 0.000611,-0.009931, 0.003728,-0.004223, 0.046277,1, 0.000289, 0.000347, 0.000369,1, 0.256458,-0.602370, 9.784772,1,1
1778259121218,   177.867,   177.862,-0.025856, 0.061804,-0.993434,-0.000260, 0.000616,-0.009936, 0.002186,-0.002343, 0.040422,1, 0.000142,-0.000302,-0.000044,1, 0.256497,-0.602454, 9.784766,1,1
1778259121241,   177.892,   177.887,-0.025436, 0.060958,-0.993450,-0.000255, 0.000612,-0.009933, 0.007111,-0.004684, 0.042341,1, 0.000209, 0.000179, 0.000330,1, 0.256546,-0.602474, 9.784763,1,1
1778259121267,   177.912,   177.912,-0.025519, 0.061239,-0.994151,-0.000253, 0.000615,-0.009937, 0.006236,-0.001903, 0.035479,1, 0.000235,-0.000176, 0.000540,1, 0.256498,-0.602448, 9.784766,1,1
1778259121288,   177.937,   177.932,-0.025896, 0.061012,-0.993590,-0.000259, 0.000613,-0.009936, 0.001279,-0.005163, 0.036533,1, 0.000123,-0.000986, 0.000414,1, 0.256646,-0.602481, 9.784760,1,1
1778259121311,   177.962,   177.957,-0.025769, 0.061222,-0.993425,-0.000257, 0.000615,-0.009930, 0.003759,-0.002142, 0.042594,1, 0.000298, 0.000148,-0.000080,1, 0.256464,-0.602512, 9.784763,1,1
1778259121337,   177.982,   177.982,-0.025780, 0.060593,-0.994158,-0.000259, 0.000609,-0.009938, 0.003628,-0.008326, 0.035405,1, 0.000369,-0.001065,-0.000008,1, 0.256480,-0.602531, 9.784761,1,1
1778259121358,   178.007,   178.002,-0.025808, 0.061345,-0.993153,-0.000258, 0.000615,-0.009932,-0.002238,-0.009428, 0.038557,1, 0.000009,-0.000350, 0.000088,1, 0.256445,-0.602544, 9.784761,1,1
1778259121381,   178.032,   178.027,-0.025903, 0.061214,-0.994482,-0.000258, 0.000617,-0.009943, 0.002347,-0.002231, 0.032228,1,-0.000441, 0.000393,-0.000343,1, 0.256356,-0.602545, 9.784764,1,1
1778259121407,   178.052,   178.052,-0.025782, 0.060455,-0.993334,-0.000257, 0.000609,-0.009932, 0.003518,-0.009695, 0.043485,1, 0.000330,-0.000056, 0.000001,1, 0.256350,-0.602545, 9.784764,1,1
1778259121428,   178.077,   178.072,-0.025992, 0.061871,-0.993220,-0.000259, 0.000620,-0.009932, 0.005631,-0.004626, 0.039167,1, 0.000039,-0.000608, 0.000113,1, 0.256400,-0.602595, 9.784760,1,1
1778259121451,   178.102,   178.097,-0.025485, 0.061555,-0.993766,-0.000256, 0.000618,-0.009933, 0.006444, 0.001058, 0.039245,1, 0.000239,-0.000415,-0.000104,1, 0.256384,-0.602580, 9.784761,1,1
1778259121477,   178.122,   178.122,-0.025990, 0.060037,-0.993694,-0.000259, 0.000608,-0.009940, 0.001489,-0.013873, 0.039947,1,-0.000102, 0.000136,-0.000379,1, 0.256358,-0.602640, 9.784758,1,1
1778259121498,   178.147,   178.142,-0.025554, 0.062102,-0.993054,-0.000256, 0.000620,-0.009934, 0.000892,-0.004050, 0.039360,1, 0.000310,-0.000536, 0.000444,1, 0.256388,-0.602611, 9.784759,1,1
1778259121525,   178.172,   178.172,-0.025903, 0.060853,-0.993418,-0.000262, 0.000615,-0.009934, 0.002367,-0.005861, 0.042656,1, 0.000075,-0.001127, 0.000049,1, 0.256425,-0.602628, 9.784757,1,1
1778259121547,   178.192,   178.192,-0.026219, 0.060976,-0.993962,-0.000261, 0.000612,-0.009939,-0.000719,-0.004649, 0.037321,1, 0.000255, 0.000778,-0.000009,1, 0.256377,-0.602608, 9.784760,1,1
1778259121568,   178.217,   178.212,-0.025752, 0.062033,-0.993710,-0.000259, 0.000618,-0.009935, 0.000176,-0.009187, 0.037198,1,-0.000677, 0.000411, 0.000540,1, 0.256429,-0.602643, 9.784756,1,1
1778259121595,   178.242,   178.242,-0.025168, 0.061511,-0.993831,-0.000253, 0.000615,-0.009938, 0.009564, 0.000614, 0.038602,1,-0.000139,-0.000362, 0.000106,1, 0.256394,-0.602612, 9.784759,1,1
1778259121617,   178.267,   178.262,-0.025936, 0.061901,-0.993503,-0.000258, 0.000614,-0.009937,-0.000116,-0.000737, 0.042140,1,-0.000258, 0.000309,-0.000465,1, 0.256417,-0.602566, 9.784761,1,0
1778259121639,   178.287,   178.282,-0.025970, 0.061627,-0.993736,-0.000258, 0.000612,-0.009937, 0.002728,-0.011511, 0.038464,1, 0.000217, 0.000102, 0.000294,1, 0.256371,-0.602576, 9.784761,1,0
1778259121665,   178.312,   178.312,-0.025349, 0.062270,-0.993717,-0.000255, 0.000622,-0.009937, 0.007798, 0.007899, 0.039711,1, 0.000254, 0.000043,-0.000499,1, 0.256383,-0.602754, 9.784750,1,0
1778259121687,   178.337,   178.332,-0.025909, 0.061003,-0.993991,-0.000260, 0.000609,-0.009940, 0.002623,-0.001855, 0.042654,1,-0.000110, 0.000580,-0.000051,1, 0.256306,-0.602742, 9.784753,1,0
1778259121709,   178.357,   178.352,-0.026262, 0.062197,-0.993821,-0.000262, 0.000617,-0.009936, 0.002033,-0.008794, 0.041796,1, 0.000454,-0.000097, 0.000096,1, 0.256276,-0.602722, 9.784755,1,0
1778259121736,   178.382,   178.382,-0.026148, 0.061481,-0.993915,-0.000260, 0.000613,-0.009939,-0.000262, 0.000173, 0.037779,1,-0.000487, 0.000404, 0.000389,1, 0.256153,-0.602768, 9.784756,1,0
1778259121757,   178.407,   178.402,-0.025758, 0.061186,-0.993473,-0.000262, 0.000615,-0.009935, 0.011058, 0.004977, 0.041729,1, 0.000162, 0.000496, 0.000367,1, 0.256145,-0.602725, 9.784759,1,0
1778259121779,   178.427,   178.422,-0.025534, 0.061022,-0.992890,-0.000259, 0.000608,-0.009933, 0.001346,-0.009403, 0.039730,1,-0.000369,-0.000360,-0.000225,1, 0.256200,-0.602839, 9.784750,1,0
1778259121806,   178.452,   178.452,-0.026114, 0.061320,-0.993618,-0.000259, 0.000614,-0.009933, 0.000084,-0.001437, 0.040691,1,-0.000343,-0.000591,-0.000424,1, 0.256199,-0.602789, 9.784753,1,0
1778259121827,   178.477,   178.472,-0.025455, 0.061583,-0.993709,-0.000255, 0.000618,-0.009937, 0.000364,-0.003984, 0.034777,1,-0.000005, 0.000719, 0.000193,1, 0.256193,-0.602760, 9.784755,1,0
1778259121849,   178.497,   178.492,-0.025858, 0.061562,-0.993194,-0.000260, 0.000613,-0.009934, 0.001753,-0.001304, 0.044414,1, 0.000809, 0.000007,-0.000147,1, 0.256163,-0.602656, 9.784762,1,0
1778259121876,   178.522,   178.522,-0.025750, 0.060633,-0.994098,-0.000257, 0.000612,-0.009938, 0.003605,-0.007982, 0.035997,1, 0.000036, 0.000603, 0.000141,1, 0.256109,-0.602588, 9.784768,1,0
1778259121897,   178.547,   178.542,-0.026406, 0.062329,-0.993181,-0.000259, 0.000623,-0.009931,-0.003772, 0.001095, 0.038152,1, 0.000118, 0.001009, 0.000392,1, 0.255986,-0.602632, 9.784768,1,0
1778259121919,   178.567,   178.562,-0.025650, 0.060808,-0.994393,-0.000256, 0.000612,-0.009941, 0.003870,-0.000228, 0.039975,1,-0.000216,-0.000045,-0.000066,1, 0.255971,-0.602734, 9.784762,1,0
1778259121946,   178.592,   178.592,-0.025553, 0.061089,-0.993158,-0.000256, 0.000610,-0.009934, 0.005406,-0.003672, 0.045210,1, 0.000154,-0.000237, 0.000405,1, 0.256001,-0.602751, 9.784760,1,0
1778259121967,   178.617,   178.612,-0.026357, 0.062154,-0.993670,-0.000262, 0.000622,-0.009934, 0.002707,-0.002334, 0.036051,1,-0.000162,-0.000199, 0.000146,1, 0.256032,-0.602719, 9.784761,1,0
1778259121989,   178.637,   178.632,-0.025984, 0.061556,-0.993779,-0.000256, 0.000618,-0.009935, 0.002711, 0.000127, 0.037562,1,-0.000054, 0.000458,-0.000949,1, 0.256025,-0.602765, 9.784760,1,0
1778259122016,   178.662,   178.662,-0.025542, 0.060927,-0.993191,-0.000255, 0.000613,-0.009932, 0.005542,-0.005353, 0.044873,1,-0.000257,-0.000402, 0.000351,1, 0.256031,-0.602848, 9.784754,1,0
1778259122037,   178.687,   178.682,-0.025628, 0.062306,-0.993262,-0.000261, 0.000623,-0.009934, 0.006503,-0.009703, 0.042077,1,-0.000333,-0.000326,-0.000022,1, 0.256078,-0.602942, 9.784747,1,0
1778259122060,   178.707,   178.707,-0.025915, 0.061344,-0.994210,-0.000257, 0.000615,-0.009940, 0.001934,-0.001234, 0.034885,1, 0.000357,-0.000150, 0.000108,1, 0.256078,-0.602800, 9.784756,1,0
1778259122086,   178.732,   178.732,-0.025907, 0.060950,-0.993739,-0.000258, 0.000613,-0.009936, 0.001982,-0.005066, 0.039507,1, 0.000442, 0.000164,-0.000297,1, 0.256036,-0.602764, 9.784759,1,0
1778259122108,   178.757,   178.752,-0.025363, 0.061776,-0.992956,-0.000258, 0.000618,-0.009934, 0.008445,-0.004580, 0.048346,1,-0.000001,-0.000227, 0.000016,1, 0.255909,-0.602742, 9.784763,1,0
1778259122130,   178.777,   178.777,-0.026626, 0.060677,-0.993917,-0.000262, 0.000609,-0.009938,-0.005164,-0.007732, 0.037767,1, 0.000078, 0.000261, 0.000107,1, 0.255943,-0.602772, 9.784760,1,0
1778259122156,   178.802,   178.802,-0.026095, 0.060904,-0.994116,-0.000258, 0.000608,-0.009940, 0.000057,-0.005448, 0.035815,1, 0.000590,-0.000183, 0.000439,1, 0.255963,-0.602691, 9.784765,1,0
1778259122178,   178.827,   178.822,-0.024900, 0.061121,-0.993202,-0.000256, 0.000613,-0.009933, 0.002934,-0.006808, 0.044170,1,-0.000450, 0.000164,-0.000323,1, 0.255939,-0.602747, 9.784762,1,0
1778259122200,   178.847,   178.847,-0.025593, 0.061132,-0.993144,-0.000257, 0.000615,-0.009933, 0.004874,-0.003255, 0.045345,1, 0.000472, 0.000077, 0.000213,1, 0.255851,-0.602739, 9.784765,1,0
1778259122226,   178.872,   178.872,-0.026205, 0.061145,-0.994238,-0.000259, 0.000611,-0.009942,-0.001178,-0.003047, 0.034627,1,-0.000110, 0.000493, 0.000500,1, 0.255790,-0.602678, 9.784771,1,0
1778259122248,   178.897,   178.892,-0.025469, 0.061201,-0.992785,-0.000260, 0.000612,-0.009927,-0.001561,-0.004979, 0.040852,1, 0.000034,-0.000640, 0.000186,1, 0.255803,-0.602646, 9.784772,1,0
1778259122271,   178.917,   178.917,-0.025208, 0.061082,-0.993360,-0.000257, 0.000613,-0.009936, 0.008652,-0.003704, 0.043232,1,-0.000780,-0.001057, 0.000054,1, 0.255892,-0.602741, 9.784764,1,0
1778259122296,   178.942,   178.942,-0.025918, 0.060868,-0.994596,-0.000259, 0.000612,-0.009942, 0.001674,-0.005814, 0.031107,1, 0.000093, 0.000399, 0.000289,1, 0.255822,-0.602729, 9.784766,1,0
1778259122318,   178.967,   178.962,-0.025523, 0.060851,-0.994039,-0.000256, 0.000608,-0.009940,-0.004044,-0.009721, 0.034991,1,-0.000196, 0.000096,-0.000156,1, 0.255740,-0.602771, 9.784766,1,0
1778259122341,   178.987,   178.987,-0.024762, 0.061448,-0.992062,-0.000252, 0.000615,-0.009921, 0.012874,-0.000198, 0.055964,1, 0.000637, 0.000203, 0.000093,1, 0.255702,-0.602776, 9.784767,1,0
1778259122366,   179.012,   179.012,-0.025661, 0.061717,-0.994105,-0.000256, 0.000616,-0.009942, 0.004097, 0.002474, 0.035927,1, 0.000116, 0.000228,-0.000155,1, 0.255742,-0.602761, 9.784766,1,0
1778259122388,   179.037,   179.032,-0.026351, 0.062172,-0.993016,-0.000255, 0.000617,-0.009928,-0.002739, 0.000551, 0.034431,1, 0.000738, 0.000232,-0.000025,1, 0.255710,-0.602610, 9.784777,1,0
1778259122411,   179.062,   179.057,-0.025772, 0.061558,-0.992511,-0.000260, 0.000611,-0.009929, 0.002987, 0.000988, 0.051559,1, 0.000157,-0.000571, 0.000082,1, 0.255742,-0.602681, 9.784772,1,0
1778259122436,   179.082,   179.082,-0.025940, 0.062179,-0.994051,-0.000262, 0.000615,-0.009943, 0.001365, 0.007065, 0.036455,1,-0.000417, 0.000067, 0.000288,1, 0.255746,-0.602717, 9.784769,1,0
1778259122458,   179.107,   179.102,-0.026567, 0.061620,-0.993944,-0.000261, 0.000613,-0.009937,-0.003100, 0.006130, 0.047233,1,-0.000838,-0.000396,-0.000154,1, 0.255846,-0.602786, 9.784762,1,0
1778259122481,   179.132,   179.127,-0.025664, 0.060987,-0.993348,-0.000259, 0.000605,-0.009940, 0.004170,-0.004649, 0.043344,1, 0.000258,-0.000845, 0.000010,1, 0.255873,-0.602722, 9.784765,1,0
1778259122506,   179.152,   179.152,-0.026277, 0.062028,-0.993879,-0.000261, 0.000617,-0.009937,-0.001867, 0.005521, 0.038139,1,-0.000262, 0.000017, 0.000014,1, 0.255821,-0.602775, 9.784763,1,0
1778259122528,   179.177,   179.172,-0.026385, 0.061008,-0.994017,-0.000259, 0.000606,-0.009942,-0.001348, 0.002593, 0.031590,1,-0.000172, 0.000216,-0.000063,1, 0.255803,-0.602772, 9.784764,1,0
1778259122551,   179.202,   179.197,-0.025542, 0.061432,-0.992565,-0.000257, 0.000614,-0.009928, 0.005390,-0.000208, 0.051035,1, 0.000252,-0.000331, 0.000371,1, 0.255884,-0.602640, 9.784770,1,0
1778259122577,   179.222,   179.222,-0.025656, 0.061373,-0.993647,-0.000259, 0.000611,-0.009943, 0.004230,-0.000821, 0.040419,1,-0.000401, 0.000311, 0.000134,1, 0.255822,-0.602697, 9.784768,1,0
1778259122598,   179.242,   179.242,-0.025959, 0.061488,-0.988401,-0.000259, 0.000620,-0.009901, 0.001268, 0.000272, 0.091862,1, 0.001225, 0.000619, 0.000282,1, 0.255821,-0.602678, 9.784770,1,0
1778259122621,   179.272,   179.267,-0.065884, 0.095173,-1.050024,-0.000529, 0.000879,-0.010452,-0.392016, 0.335155,-0.512131,1, 0.044359, 0.001703, 0.015813,1, 0.254006,-0.596804, 9.785177,1,0
1778259122647,   179.292,   179.292,-0.030254, 0.113980,-1.011227,-0.000357, 0.001105,-0.010160,-0.042307, 0.532259,-0.130900,1, 0.064127,-0.006471, 0.015044,1, 0.254557,-0.583521, 9.785964,1,0
1778259122668,   179.317,   179.312, 0.000368, 0.014235,-0.955033, 0.000016, 0.000173,-0.009459, 0.317857,-0.095361, 0.684594,1, 0.052298,-0.021346, 0.001313,1, 0.258304,-0.572957, 9.786489,1,0
1778259122691,   179.342,   179.337,-0.008255, 0.083233,-1.068866,-0.000059, 0.000781,-0.010669, 0.175827, 0.247523,-0.695216,1, 0.003095, 0.010777,-0.007153,1, 0.256426,-0.568656, 9.786790,1,0
1778259122717,   179.362,   179.362,-0.024786, 0.107325,-0.977834,-0.000244, 0.001137,-0.009861, 0.013198, 0.486402, 0.197671,1, 0.024223,-0.001737,-0.017368,1, 0.256351,-0.565330, 9.786984,1,0
1778259122738,   179.387,   179.382,-0.033417, 0.086150,-0.995512,-0.000329, 0.000811,-0.009893,-0.027524, 0.122366, 0.468875,1, 0.056540, 0.000133,-0.009089,1, 0.256334,-0.555662, 9.787539,1,0
1778259122765,   179.412,   179.412,-0.026759, 0.093057,-1.036923,-0.000271, 0.000957,-0.010374,-0.003678, 0.377663,-0.380115,1, 0.093558,-0.010851,-0.021753,1, 0.259115,-0.531982, 9.788781,1,0
1778259122787,   179.432,   179.432,-0.014439, 0.036062,-0.974794,-0.000123, 0.000388,-0.009766, 0.119371,-0.159195, 0.230287,1, 0.120169,-0.005930,-0.012229,1, 0.261178,-0.509092, 9.789944,1,0
1778259122808,   179.457,   179.452,-0.045356, 0.075772,-1.008560,-0.000447, 0.000746,-0.010071,-0.080176, 0.141197, 0.121905,1, 0.127656, 0.001072,-0.008905,1, 0.261239,-0.484517, 9.791189,1,0
1778259122835,   179.482,   179.482,-0.043642, 0.052041,-0.994045,-0.000447, 0.000527,-0.009976,-0.165039, 0.064843, 0.044741,1, 0.171547,-0.013631,-0.012613,1, 0.263389,-0.440146, 9.793226,1,0
1778259122857,   179.507,   179.502,-0.092363, 0.075525,-1.017744,-0.000773, 0.000818,-0.010012,-0.171944, 0.510891, 0.217507,1, 0.143992,-0.001761,-0.013643,1, 0.265199,-0.406865, 9.794617,1,0
1778259122878,   179.527,   179.522,-0.117089, 0.002219,-1.028006,-0.001191,-0.000042,-0.010386,-0.686292, 0.118176,-0.460043,1, 0.106324, 0.018683,-0.047291,1, 0.262765,-0.382314, 9.795671,1,0
1778259122905,   179.552,   179.552,-0.076722,-0.018546,-0.927534,-0.000801,-0.000159,-0.009243,-0.487359,-0.527036, 0.700990,1, 0.150326,-0.018386,-0.031718,1, 0.265646,-0.340451, 9.797138,1,0
1778259122927,   179.577,   179.572,-0.020839, 0.060890,-1.045022,-0.000240, 0.000651,-0.010419,-0.053105, 0.305960, 0.046339,1, 0.136791,-0.019552,-0.009370,1, 0.269617,-0.313270, 9.797936,1,0
1778259122949,   179.597,   179.592,-0.013190, 0.003980,-1.031686,-0.000118, 0.000077,-0.010366, 0.106457,-0.049772,-0.600597,1, 0.146831,-0.012382,-0.023773,1, 0.272735,-0.285106, 9.798710,1,0
1778259122976,   179.622,   179.622,-0.022632, 0.025400,-0.952094,-0.000217, 0.000205,-0.009561, 0.052257, 0.008984, 0.463018,1, 0.176138, 0.000410,-0.002758,1, 0.274189,-0.234608, 9.800009,1,0
1778259122997,   179.647,   179.642,-0.053696, 0.016143,-1.011264,-0.000511, 0.000226,-0.010067,-0.151446, 0.191320, 0.197523,1, 0.153786, 0.000810,-0.014090,1, 0.273926,-0.202965, 9.800722,1,0
1778259123019,   179.667,   179.662,-0.053656,-0.021168,-1.016264,-0.000548,-0.000197,-0.010199,-0.270832,-0.292929,-0.254481,1, 0.149697,-0.008161,-0.016132,1, 0.275143,-0.173460, 9.801254,1,0
1778259123046,   179.692,   179.692,-0.044039,-0.001105,-0.976781,-0.000448,-0.000031,-0.009794,-0.154562,-0.146537, 0.222842,1, 0.134209,-0.006200,-0.002481,1, 0.277510,-0.131515, 9.801841,1,0
1778259123067,   179.717,   179.712,-0.036922, 0.004808,-0.993774,-0.000363, 0.000068,-0.009924,-0.104979, 0.016851, 0.208881,1, 0.110277,-0.005116,-0.011936,1, 0.278563,-0.108665, 9.802091,1,0
1778259123089,   179.737,   179.732,-0.036718,-0.014382,-1.011268,-0.000374,-0.000128,-0.010116,-0.075742,-0.148062,-0.063558,1, 0.090291,-0.005102,-0.011581,1, 0.279698,-0.089625, 9.802251,1,0
1778259123116,   179.762,   179.762,-0.039225,-0.020994,-0.996378,-0.000380,-0.000178,-0.009947,-0.103621,-0.275032, 0.031247,1, 0.061595,-0.002603,-0.008625,1, 0.281129,-0.067221, 9.802389,1,0
1778259123137,   179.787,   179.782,-0.043464, 0.002218,-0.972127,-0.000436, 0.000006,-0.009709,-0.087379,-0.170218, 0.204911,1, 0.037293,-0.000179,-0.013242,1, 0.281110,-0.058351, 9.802446,1,0
1778259123159,   179.807,   179.802,-0.071759, 0.011975,-1.015784,-0.000692, 0.000163,-0.010110,-0.261723, 0.072702, 0.066839,1, 0.012498, 0.008793,-0.015138,1, 0.279983,-0.053992, 9.802504,1,0
1778259123186,   179.832,   179.832,-0.091863,-0.042635,-1.003858,-0.000932,-0.000395,-0.010102,-0.624274,-0.474584,-0.041901,1,-0.015937, 0.006853,-0.016427,1, 0.276383,-0.056963, 9.802589,1,0
1778259123207,   179.857,   179.852,-0.078886, 0.010746,-0.972912,-0.000809, 0.000072,-0.009694,-0.594901,-0.237387, 0.366131,1,-0.040699, 0.000960,-0.011660,1, 0.276113,-0.063066, 9.802559,1,0
1778259123229,   179.877,   179.872,-0.062901, 0.021796,-1.018426,-0.000639, 0.000226,-0.010179,-0.398174, 0.189801, 0.012380,1,-0.069543, 0.003235,-0.020748,1, 0.275551,-0.075437, 9.802487,1,0
1778259123256,   179.902,   179.902,-0.056811, 0.007360,-1.009298,-0.000570, 0.000073,-0.010109,-0.281508,-0.019870,-0.095487,1,-0.055967, 0.001695,-0.014700,1, 0.275564,-0.093782, 9.802329,1,0
1778259123277,   179.927,   179.922,-0.059171, 0.024629,-0.985407,-0.000592, 0.000239,-0.009859,-0.256090, 0.105217, 0.156646,1,-0.058707, 0.005881,-0.018096,1, 0.274596,-0.105043, 9.802242,1,0
1778259123300,   179.947,   179.947,-0.075156, 0.018356,-0.997589,-0.000737, 0.000173,-0.009966,-0.463670, 0.060620, 0.019109,1,-0.059077, 0.005816,-0.024129,1, 0.273187,-0.121197, 9.802094,1,0
1778259123326,   179.972,   179.972,-0.078753, 0.034575,-0.995543,-0.000779, 0.000326,-0.009960,-0.500172, 0.208246, 0.039056,1,-0.058807, 0.006226,-0.022574,1, 0.271943,-0.132631, 9.801981,1,0
1778259123347,   179.997,   179.992,-0.081624, 0.040994,-0.982068,-0.000814, 0.000408,-0.009823,-0.525986, 0.272493, 0.154001,1,-0.052785, 0.006150,-0.032557,1, 0.270704,-0.143146, 9.801867,1,0
1778259123370,   180.017,   180.017,-0.085491, 0.034403,-0.989528,-0.000840, 0.000353,-0.009865,-0.569491, 0.181812, 0.097769,1,-0.048250, 0.008843,-0.039211,1, 0.268629,-0.157038, 9.801712,1,0
1778259123396,   180.042,   180.042,-0.094932, 0.027532,-1.010486,-0.000947, 0.000273,-0.010110,-0.664201, 0.105074,-0.107847,1,-0.048396, 0.014130,-0.042090,1, 0.266342,-0.166395, 9.801620,1,0
1778259123418,   180.067,   180.062,-0.092555, 0.045787,-0.993340,-0.000939, 0.000460,-0.009958,-0.666988, 0.206267,-0.056682,1,-0.036614, 0.013099,-0.048751,1, 0.263701,-0.174308, 9.801554,1,0
1778259123440,   180.087,   180.087,-0.088202, 0.038822,-0.976294,-0.000873, 0.000390,-0.009760,-0.602959, 0.199781, 0.227308,1,-0.019481, 0.003512,-0.049677,1, 0.261927,-0.181501, 9.801471,1,0
1778259123466,   180.112,   180.112,-0.082105, 0.034485,-0.996724,-0.000819, 0.000343,-0.009928,-0.543595, 0.153736, 0.026906,1,-0.019093, 0.002862,-0.050109,1, 0.261520,-0.185002, 9.801416,1,0
1778259123488,   180.137,   180.132,-0.300925, 0.000560,-0.949363,-0.002593, 0.000299,-0.008462,-1.552495,-0.107889,-0.176212,1, 0.003178,-0.014833,-0.064582,1, 0.262403,-0.185339, 9.801387,1,0
1778259123510,   180.157,   180.157,-0.268290, 0.072953,-1.017538,-0.002737, 0.000484,-0.010390,-2.362618, 0.532070,-0.177382,1,-0.035844,-0.028081,-0.069991,1, 0.269324,-0.184414, 9.801216,1,0
1778259123536,   180.182,   180.182, 0.024191, 0.146748,-1.258956, 0.000146, 0.001534,-0.012394, 0.510989, 1.246552,-2.545202,1,-0.050828,-0.020733,-0.097319,1, 0.274462,-0.194060, 9.800887,1,0
1778259123558,   180.207,   180.202, 0.015067,-0.081385,-0.669926, 0.000138,-0.000877,-0.006897, 0.816988,-0.440181, 1.858438,1, 0.091046,-0.037994,-0.081069,1, 0.280619,-0.183015, 9.800925,1,0
1778259123581,   180.227,   180.227,-0.017465, 0.031092,-0.986490,-0.000079, 0.000237,-0.009451, 0.113264, 0.133389, 0.126859,1,-0.013615, 0.008257,-0.087348,1, 0.284326,-0.171865, 9.801021,1,0
1778259123606,   180.252,   180.252,-0.115858, 0.105933,-1.227188,-0.001133, 0.001040,-0.012330,-0.849200, 0.868532,-2.233630,1, 0.026281,-0.030937,-0.066773,1, 0.287981,-0.169431, 9.800957,1,0
1778259123628,   180.277,   180.272,-0.094030, 0.008256,-0.858813,-0.000956, 0.000154,-0.008664,-0.878798, 0.437774, 0.199932,1, 0.077385,-0.035396,-0.063702,1, 0.295488,-0.156584, 9.800946,1,0
1778259123651,   180.302,   180.297,-0.092497, 0.001759,-0.918365,-0.000914,-0.000037,-0.009029,-0.604439,-0.120523, 0.794926,1, 0.051469,-0.014550,-0.102636,1, 0.303150,-0.136070, 9.801019,1,0
1778259123676,   180.322,   180.322,-0.086227, 0.045900,-1.097676,-0.000873, 0.000470,-0.010955,-0.541081, 0.323807,-0.963419,1, 0.069110,-0.006047,-0.106793,1, 0.304745,-0.124062, 9.801128,1,0
1778259123698,   180.347,   180.342,-0.037796,-0.003543,-0.972281,-0.000428,-0.000019,-0.009760,-0.283441, 0.013610,-0.198947,1, 0.103532,-0.003094,-0.105215,1, 0.306462,-0.104614, 9.801302,1,0
1778259123721,   180.372,   180.367, 0.001846, 0.043538,-0.960690, 0.000021, 0.000396,-0.009570, 0.323838, 0.352494, 0.380451,1, 0.112101,-0.005366,-0.073159,1, 0.305915,-0.070894, 9.801621,1,0
1778259123746,   180.392,   180.392,-0.008118, 0.059181,-1.034824,-0.000067, 0.000650,-0.010289, 0.228728, 0.529311,-0.346493,1, 0.115485,-0.010146,-0.071874,1, 0.308664,-0.047386, 9.801677,1,0
1778259123768,   180.417,   180.412,-0.024590,-0.031124,-1.038986,-0.000242,-0.000352,-0.010485, 0.180321,-0.262903,-0.735180,1, 0.118708,-0.004688,-0.099741,1, 0.310041,-0.022891, 9.801721,1,0
1778259123791,   180.442,   180.437,-0.010656, 0.010334,-0.937813,-0.000136, 0.000054,-0.009388, 0.203376, 0.111647, 0.605009,1, 0.117897, 0.019237,-0.108120,1, 0.307272, 0.014094, 9.801825,1,0
1778259123817,   180.462,   180.462,-0.010271, 0.032690,-0.962197,-0.000091, 0.000324,-0.009598, 0.204276, 0.353911, 0.365922,1, 0.117148, 0.007219,-0.101435,1, 0.304763, 0.037088, 9.801843,1,0
1778259123838,   180.487,   180.482, 0.011540,-0.022121,-1.035472, 0.000103,-0.000198,-0.010314, 0.261364,-0.038589,-0.081771,1, 0.118703, 0.009058,-0.103624,1, 0.303482, 0.061061, 9.801763,1,0
1778259123861,   180.512,   180.507, 0.012085,-0.002771,-1.040712, 0.000125,-0.000038,-0.010452, 0.416490, 0.064679,-0.404211,1, 0.114914, 0.026917,-0.099540,1, 0.297105, 0.095529, 9.801682,1,0
1778259123887,   180.532,   180.532,-0.015777,-0.006290,-0.970375,-0.000144,-0.000039,-0.009739, 0.137368, 0.053743, 0.285487,1, 0.114896, 0.031737,-0.104720,1, 0.291056, 0.119110, 9.801606,1,0
1778259123908,   180.557,   180.552,-0.070234, 0.003530,-0.995354,-0.000700, 0.000026,-0.009947,-0.268134, 0.108034, 0.156056,1, 0.101234, 0.032326,-0.108680,1, 0.283919, 0.139175, 9.801551,1,0
1778259123931,   180.582,   180.577,-0.083388, 0.006535,-1.009571,-0.000829, 0.000083,-0.010091,-0.541633, 0.227546,-0.099109,1, 0.079398, 0.024893,-0.121652,1, 0.275285, 0.166042, 9.801379,1,0
1778259123957,   180.602,   180.602,-0.090790,-0.014444,-0.977175,-0.000912,-0.000122,-0.009808,-0.618755, 0.036906, 0.218445,1, 0.067045, 0.018779,-0.132314,1, 0.270925, 0.180759, 9.801240,1,0
1778259123978,   180.627,   180.622,-0.095079,-0.028409,-1.006019,-0.000979,-0.000280,-0.010031,-0.649557,-0.083499, 0.200673,1, 0.035592, 0.032165,-0.135671,1, 0.265307, 0.191073, 9.801198,1,0
1778259124005,   180.652,   180.652,-0.102079,-0.020119,-1.014755,-0.001022,-0.000218,-0.010180,-0.747152,-0.000525,-0.149957,1, 0.012689, 0.038018,-0.130876,1, 0.252638, 0.197274, 9.801410,1,0
1778259124027,   180.672,   180.672,-0.121409,-0.010782,-0.954064,-0.001213,-0.000100,-0.009604,-0.944191, 0.093230, 0.445365,1, 0.003158, 0.034434,-0.138060,1, 0.245260, 0.199175, 9.801559,1,0
1778259124048,   180.697,   180.692,-0.158678,-0.019257,-0.999567,-0.001600,-0.000228,-0.009942,-1.275444,-0.199204, 0.302432,1,-0.024214, 0.036905,-0.138911,1, 0.237673, 0.197043, 9.801789,1,0
1778259124075,   180.722,   180.722,-0.175539, 0.033671,-1.030917,-0.001757, 0.000340,-0.010342,-1.490914, 0.516179,-0.307669,1,-0.055380, 0.012396,-0.154268,1, 0.230057, 0.184363, 9.802217,1,0
1778259124097,   180.747,   180.742,-0.155233,-0.036755,-0.965902,-0.001540,-0.000351,-0.009643,-1.401839, 0.024425, 0.152815,1,-0.051605, 0.013149,-0.160067,1, 0.227887, 0.174326, 9.802452,1,0
1778259124118,   180.767,   180.762,-0.139483,-0.015495,-0.968126,-0.001404,-0.000192,-0.009683,-1.164703,-0.143697, 0.409787,1,-0.057750, 0.018607,-0.142322,1, 0.223932, 0.163967, 9.802722,1,0
1778259124145,   180.792,   180.792,-0.147444,-0.004683,-0.993907,-0.001468,-0.000033,-0.009883,-1.225302, 0.102689, 0.056146,1,-0.060637, 0.004492,-0.149801,1, 0.220422, 0.146827, 9.803073,1,0
1778259124167,   180.817,   180.812,-0.121973, 0.019632,-1.027030,-0.001230, 0.000199,-0.010333,-0.948074, 0.211690,-0.271459,1,-0.064949,-0.000783,-0.145585,1, 0.219665, 0.135018, 9.803260,1,0
1778259124188,   180.837,   180.832,-0.114706,-0.015387,-0.967522,-0.001172,-0.000107,-0.009676,-0.965400, 0.195564, 0.071112,1,-0.060037,-0.004790,-0.146990,1, 0.220465, 0.123312, 9.803396,1,0
1778259124215,   180.862,   180.862,-0.102422,-0.032213,-0.990344,-0.000995,-0.000336,-0.009884,-0.788225,-0.209277, 0.091724,1,-0.071673, 0.016693,-0.140960,1, 0.215627, 0.104490, 9.803722,1,0
1778259124237,   180.887,   180.882,-0.128239, 0.011440,-0.998880,-0.001312, 0.000079,-0.009968,-1.075553, 0.106386, 0.035019,1,-0.064279,-0.004027,-0.140346,1, 0.214872, 0.091567, 9.803868,1,0
1778259124259,   180.907,   180.902,-0.113505, 0.038525,-0.995091,-0.001129, 0.000427,-0.010019,-0.987681, 0.548620,-0.196454,1,-0.087649,-0.009148,-0.149633,1, 0.215715, 0.076173, 9.803981,1,0
1778259124286,   180.932,   180.932,-0.112981,-0.012680,-0.950857,-0.001128,-0.000110,-0.009496,-0.886738,-0.065437, 0.479259,1,-0.070613,-0.007828,-0.136142,1, 0.221445, 0.056800, 9.803985,1,0
1778259124307,   180.957,   180.952,-0.093267,-0.014768,-1.035014,-0.000936,-0.000169,-0.010372,-0.688797,-0.243691,-0.421318,1,-0.088628, 0.000092,-0.138612,1, 0.221133, 0.040219, 9.804074,1,0
1778259124329,   180.977,   180.972,-0.097695, 0.072345,-0.994681,-0.000985, 0.000688,-0.010025,-0.731693, 0.265498,-0.209133,1,-0.078460,-0.018716,-0.145076,1, 0.224264, 0.025680, 9.804051,1,0
1778259124356,   181.002,   181.002,-0.102280, 0.017269,-0.957699,-0.001027, 0.000221,-0.009588,-0.773259, 0.175733, 0.412134,1,-0.072441,-0.018293,-0.148880,1, 0.230331, 0.004234, 9.803944,1,0
1778259124377,   181.027,   181.022,-0.101438,-0.015745,-1.024876,-0.000971,-0.000223,-0.010259,-0.684502,-0.346554,-0.099500,1,-0.078026, 0.001445,-0.128089,1, 0.230829,-0.009653, 9.803928,1,0
1778259124399,   181.047,   181.042,-0.137129, 0.077097,-0.995049,-0.001327, 0.000700,-0.010024,-0.880876, 0.285137,-0.055252,1,-0.065271,-0.018791,-0.128559,1, 0.233177,-0.023226, 9.803850,1,0
1778259124426,   181.072,   181.072,-0.141778, 0.010907,-0.939664,-0.001410, 0.000171,-0.009369,-1.149913, 0.068398, 0.588670,1,-0.052363,-0.031450,-0.152984,1, 0.241455,-0.040080, 9.803596,1,0
1778259124447,   181.097,   181.092,-0.092780,-0.006375,-1.024705,-0.000965,-0.000077,-0.010250,-0.789334,-0.296794,-0.032344,1,-0.051358, 0.002585,-0.120389,1, 0.242760,-0.050209, 9.803516,1,0
1778259124469,   181.117,   181.112,-0.139486, 0.079962,-0.999208,-0.001340, 0.000827,-0.010024,-0.868738, 0.281871,-0.257397,1,-0.037197,-0.015896,-0.111143,1, 0.243889,-0.058627, 9.803441,1,0
1778259124496,   181.142,   181.142,-0.125404,-0.001258,-0.944672,-0.001283, 0.000061,-0.009465,-0.977353,-0.077197, 0.539119,1,-0.009544,-0.032033,-0.137976,1, 0.253494,-0.065110, 9.803157,1,0
1778259124517,   181.167,   181.162,-0.038396, 0.027670,-1.045844,-0.000460, 0.000259,-0.010471,-0.537151,-0.204069,-0.500933,1,-0.000027,-0.027276,-0.109143,1, 0.258175,-0.066704, 9.803024,1,0
1778259124540,   181.187,   181.187,-0.084377, 0.055023,-1.005801,-0.000808, 0.000660,-0.010108,-0.549276, 0.476581,-0.061035,1, 0.029193,-0.086806,-0.111322,1, 0.280911,-0.062002, 9.802430,1,0
1778259124566,   181.212,   181.212,-0.028138,-0.033465,-0.934667,-0.000248,-0.000309,-0.009416, 0.015524,-0.382687, 0.636208,1, 0.044269,-0.063277,-0.103553,1, 0.293457,-0.053031, 9.802114,1,0
1778259124587,   181.237,   181.232,-0.013175, 0.031303,-1.048207,-0.000157, 0.000211,-0.010534,-0.053688,-0.250668,-0.516119,1, 0.066420,-0.046930,-0.081332,1, 0.303406,-0.042903, 9.801862,1,0
1778259124610,   181.257,   181.257,-0.020051, 0.039470,-0.931195,-0.000199, 0.000467,-0.009384, 0.124687, 0.364100, 0.669451,1, 0.088844,-0.059318,-0.118067,1, 0.323183,-0.020073, 9.801303,1,0
1778259124636,   181.282,   181.282, 0.019427,-0.070055,-0.950300, 0.000282,-0.000668,-0.009266, 0.521913,-0.691458, 0.481784,1, 0.094895,-0.049166,-0.092270,1, 0.332936,-0.001399, 9.800997,1,0
1778259124658,   181.307,   181.302, 0.087677, 0.070203,-1.116765, 0.000943, 0.000668,-0.011208, 1.394816, 0.110090,-1.012202,1, 0.117068,-0.014510,-0.055811,1, 0.334950, 0.018944, 9.800910,1,0
1778259124680,   181.327,   181.327, 0.074117, 0.006980,-0.892665, 0.000662, 0.000250,-0.009118, 1.071190, 0.123871, 1.046392,1, 0.190769,-0.029129,-0.077027,1, 0.345244, 0.061452, 9.800378,1,0
1778259124706,   181.352,   181.352, 0.053659,-0.065594,-0.932219, 0.000470,-0.000682,-0.009184, 0.872164,-0.552768, 0.658179,1, 0.181092, 0.024555,-0.035752,1, 0.345165, 0.096157, 9.800102,1,0
1778259124728,   181.377,   181.372, 0.040575, 0.026636,-1.106781, 0.000451, 0.000236,-0.010986, 1.101309, 0.320088,-0.776765,1, 0.188441,-0.006126,-0.036100,1, 0.342649, 0.134430, 9.799740,1,0
1778259124750,   181.397,   181.397, 0.055353,-0.019002,-0.940837, 0.000564,-0.000152,-0.009602, 0.887455, 0.006316, 0.572235,1, 0.224823,-0.016110,-0.062243,1, 0.345091, 0.199742, 9.798541,1,0
1778259124776,   181.422,   181.422, 0.067512,-0.047491,-0.913656, 0.000619,-0.000498,-0.009051, 1.004826,-0.228988, 0.837891,1, 0.213352, 0.038507,-0.046209,1, 0.341529, 0.243442, 9.797677,1,0
1778259124798,   181.447,   181.442,-0.012264,-0.030780,-1.028934,-0.000039,-0.000309,-0.010360, 0.620179, 0.078819,-0.552968,1, 0.175379,-0.003034,-0.053204,1, 0.338326, 0.277863, 9.796872,1,0
1778259124820,   181.467,   181.467,-0.134914, 0.007298,-0.951343,-0.001217, 0.000081,-0.009564,-0.980235, 0.391895, 0.465930,1, 0.112886,-0.041499,-0.088021,1, 0.344019, 0.323943, 9.795259,1,0
1778259124846,   181.492,   181.492,-0.158193,-0.041218,-0.877680,-0.001584,-0.000397,-0.008742,-1.200684,-0.061482, 1.187279,1, 0.088921,-0.027068,-0.099058,1, 0.351396, 0.345607, 9.794256,1,0
1778259124868,   181.517,   181.512,-0.215949,-0.024050,-1.018849,-0.002167,-0.000227,-0.010170,-1.360536, 0.117436,-0.239589,1, 0.000215,-0.054662,-0.092290,1, 0.358018, 0.349671, 9.793873,1,0
1778259124891,   181.542,   181.537,-0.139156, 0.056974,-1.007616,-0.001387, 0.000613,-0.010039,-0.989992, 0.904080,-0.087939,1,-0.072369,-0.042122,-0.138066,1, 0.375596, 0.343075, 9.793447,1,0
1778259124916,   181.562,   181.562,-0.067085,-0.059073,-0.975531,-0.000580,-0.000462,-0.009805,-0.276705,-0.247416, 0.226924,1,-0.071587,-0.048610,-0.143418,1, 0.382533, 0.329833, 9.793633,1,0
1778259124938,   181.587,   181.582, 0.005552, 0.010690,-1.043215,-0.000029,-0.000024,-0.010601, 0.303900,-0.233392,-0.473355,1,-0.060300, 0.022301,-0.102882,1, 0.380380, 0.319173, 9.794071,1,0
1778259124961,   181.612,   181.607,-0.102414, 0.024974,-1.009763,-0.000906, 0.000474,-0.010027,-0.631207, 0.548387,-0.107541,1,-0.038865, 0.032143,-0.165946,1, 0.371972, 0.302458, 9.794924,1,0
1778259124986,   181.632,   181.632,-0.158124,-0.119434,-0.852857,-0.001574,-0.001151,-0.008668,-1.185948,-0.868254, 1.431514,1,-0.000750, 0.039195,-0.126809,1, 0.363371, 0.303114, 9.795227,1,0
1778259125008,   181.657,   181.652,-0.215236, 0.022482,-0.910006,-0.002134, 0.000193,-0.008883,-1.435660,-0.042377, 0.878283,1, 0.016921, 0.032080,-0.095348,1, 0.354742, 0.305764, 9.795461,1,0
1778259125031,   181.682,   181.677,-0.174289, 0.065217,-1.326340,-0.001686, 0.000751,-0.013093,-1.363286, 0.947599,-3.211251,1, 0.000460,-0.010579,-0.118737,1, 0.346118, 0.308182, 9.795693,1,0
1778259125056,   181.702,   181.702,-0.143838,-0.093262,-1.182839,-0.001262,-0.000947,-0.011610,-1.053985,-0.592713,-1.804809,1, 0.083015,-0.067792,-0.089304,1, 0.358605, 0.324568, 9.794715,1,0
1778259125078,   181.727,   181.722,-0.100409, 0.017122,-0.934287,-0.001150, 0.000279,-0.009843,-1.138362, 0.874560,-0.786628,1,-0.010916,-0.033524,-0.101044,1, 0.366203, 0.328719, 9.794295,1,0
1778259125101,   181.752,   181.747,-0.124513,-0.153842,-0.781022,-0.001180,-0.001482,-0.007651,-0.850080,-1.170827, 2.134593,1, 0.029140,-0.000832,-0.110104,1, 0.370883, 0.338885, 9.793773,1,0
1778259125127,   181.772,   181.772,-0.091506, 0.010591,-1.002513,-0.000966,-0.000079,-0.009965,-0.534463, 0.436332,-0.037008,1,-0.092060, 0.054540,-0.088067,1, 0.361109, 0.329703, 9.794452,1,0
1778259125148,   181.797,   181.792,-0.119945,-0.093285,-1.032335,-0.001247,-0.000930,-0.010251,-0.646263, 0.277888,-0.202710,1,-0.076149,-0.025864,-0.144426,1, 0.362406, 0.315813, 9.794861,1,0
1778259125171,   181.822,   181.817,-0.062810,-0.022164,-1.008720,-0.000583,-0.000527,-0.010156,-0.261772, 0.078629,-0.096384,1,-0.091402, 0.031270,-0.101889,1, 0.353114, 0.293253, 9.795902,1,0
1778259125197,   181.842,   181.842,-0.108158, 0.102741,-0.799336,-0.000967, 0.001066,-0.007973,-0.706885, 1.286007, 1.957495,1,-0.086975,-0.006709,-0.138770,1, 0.353867, 0.275910, 9.796379,1,0
1778259125218,   181.867,   181.862,-0.080642,-0.056468,-1.089555,-0.000756,-0.000685,-0.010802,-0.472718,-0.402875, 0.011427,1,-0.146512, 0.042704,-0.136603,1, 0.345718, 0.252069, 9.797312,1,0
1778259125245,   181.892,   181.892,-0.116832, 0.063455,-0.983737,-0.001186, 0.000722,-0.009993,-0.799326, 0.839565, 0.150956,1,-0.133830, 0.003379,-0.169212,1, 0.346180, 0.213293, 9.798217,1,0
1778259125267,   181.912,   181.912,-0.082106,-0.092861,-0.909783,-0.000804,-0.000967,-0.009167,-0.463484,-0.720146, 0.876918,1,-0.148064, 0.010934,-0.189607,1, 0.341242, 0.186094, 9.798944,1,0
1778259125288,   181.937,   181.932,-0.048751, 0.113598,-1.029067,-0.000473, 0.001230,-0.010161,-0.380442, 0.901670,-0.130592,1,-0.161729,-0.022712,-0.143192,1, 0.345957, 0.155964, 9.799305,1,0
1778259125315,   181.962,   181.962,-0.017405,-0.067712,-1.107455,-0.000155,-0.000595,-0.011187, 0.167715,-0.546465,-1.060324,1,-0.129655, 0.028089,-0.118283,1, 0.337481, 0.113646, 9.800182,1,0
1778259125337,   181.987,   181.982,-0.126037,-0.018345,-0.869356,-0.001211,-0.000154,-0.008567,-0.777173,-0.245177, 0.360547,1,-0.074996,-0.006247,-0.109066,1, 0.338770, 0.095382, 9.800333,1,0
1778259125358,   182.007,   182.002,-0.098837,-0.046436,-0.941994,-0.001012,-0.000478,-0.009360,-0.606655,-0.229089, 1.253679,1,-0.104622, 0.070740,-0.125203,1, 0.327832, 0.077421, 9.800863,1,0
1778259125385,   182.032,   182.032,-0.206297, 0.017618,-1.016318,-0.002040, 0.000171,-0.010283,-1.698918, 0.225783,-0.165528,1,-0.076886,-0.013255,-0.080833,1, 0.324563, 0.050690, 9.801147,1,0
1778259125407,   182.057,   182.052,-0.100056,-0.064072,-0.946748,-0.001031,-0.000639,-0.009342,-1.186745,-0.556226, 0.540086,1,-0.075706, 0.020066,-0.077620,1, 0.321834, 0.037629, 9.801295,1,0
1778259125428,   182.077,   182.072,-0.146530,-0.001601,-0.921270,-0.001510,-0.000021,-0.009291,-1.092998,-0.315447, 0.324970,1,-0.087670,-0.036196,-0.059141,1, 0.325760, 0.021098, 9.801215,1,0
1778259125455,   182.102,   182.102,-0.047620,-0.027495,-0.982902,-0.000547,-0.000245,-0.009792,-0.144713,-0.272342, 0.162376,1,-0.108831, 0.035456,-0.063425,1, 0.321175,-0.006042, 9.801388,1,0
1778259125477,   182.127,   182.122,-0.032536, 0.049857,-1.028303,-0.000518, 0.000541,-0.010412,-0.448556, 0.184410,-0.626632,1,-0.135624,-0.036116,-0.043942,1, 0.325957,-0.031195, 9.801182,1,0
1778259125499,   182.147,   182.142, 0.059298,-0.071969,-1.054010, 0.000581,-0.000724,-0.010536, 0.437767,-0.313247,-0.596385,1,-0.128482, 0.019203,-0.058670,1, 0.325890,-0.055568, 9.801076,1,0
1778259125525,   182.172,   182.172,-0.051808, 0.038886,-0.973613,-0.000437, 0.000281,-0.009862,-0.186787, 0.290166, 0.253080,1,-0.139283, 0.031082,-0.074011,1, 0.320327,-0.095444, 9.800952,1,0
1778259125547,   182.197,   182.192,-0.038403, 0.023733,-0.794888,-0.000258, 0.000235,-0.008087,-0.289551, 0.165674, 1.015713,1,-0.141012, 0.037689,-0.077719,1, 0.314857,-0.121078, 9.800846,1,0
1778259125569,   182.217,   182.212,-0.062132, 0.168684,-0.752501,-0.000847, 0.001459,-0.007565, 0.004805, 0.261618, 2.999586,1,-0.101717, 0.060888,-0.053136,1, 0.304268,-0.141268, 9.800911,1,0
1778259125596,   182.242,   182.242, 0.032039, 0.013382,-1.630997, 0.000197, 0.000352,-0.016353, 0.591260,-0.067900,-6.193915,1,-0.226449, 0.060396,-0.108323,1, 0.275250,-0.206101, 9.800619,1,0
1778259125617,   182.267,   182.262, 0.043453, 0.195554,-1.148799, 0.000318, 0.001515,-0.011344, 1.307654,-1.750175,-1.588029,1,-0.047938, 0.009784,-0.022601,1, 0.275353,-0.208784, 9.800560,1,0
1778259125639,   182.287,   182.282,-0.002915,-0.026119,-0.757162,-0.000114,-0.000114,-0.007924,-0.221170, 1.772786,-0.697632,1,-0.101667,-0.050038,-0.099890,1, 0.278021,-0.235773, 9.799872,1,0
1778259125666,   182.312,   182.312, 0.006607,-0.000961,-0.833191,-0.000136,-0.000278,-0.008478, 0.355896,-0.252654, 1.628498,1,-0.086400,-0.003786,-0.045633,1, 0.291261,-0.245884, 9.799239,1,0
1778259125687,   182.337,   182.332, 0.128781, 0.048488,-1.087186, 0.001262, 0.000676,-0.010730, 1.211385, 0.955424,-0.215165,1,-0.069089, 0.026867,-0.061004,1, 0.290723,-0.263637, 9.798794,1,0
1778259125709,   182.357,   182.352, 0.062203, 0.089987,-1.110446, 0.000759, 0.000828,-0.011162, 0.772063,-0.422098,-2.240509,1,-0.081091, 0.000014,-0.069110,1, 0.291890,-0.276906, 9.798393,1,0
1778259125736,   182.382,   182.382, 0.059922, 0.003784,-0.821178, 0.000737, 0.000153,-0.008071, 0.882420,-0.247965, 1.745062,1, 0.007431, 0.010268,-0.094329,1, 0.294552,-0.284749, 9.798089,1,0
1778259125757,   182.407,   182.402,-0.106555, 0.110648,-1.013089,-0.000872, 0.001229,-0.010121,-0.115030, 0.207576,-0.055644,1,-0.069361,-0.002494,-0.071965,1, 0.292040,-0.298094, 9.797767,1,0
1778259125780,   182.427,   182.427,-0.047256, 0.019183,-0.926553,-0.000594, 0.000361,-0.009028,-0.162084,-0.116307, 0.710904,1,-0.036794,-0.018479,-0.091925,1, 0.302003,-0.305491, 9.797237,1,0
1778259125806,   182.452,   182.452, 0.019550, 0.062435,-1.265070, 0.000293, 0.000620,-0.012342, 0.495346, 0.293390,-2.609344,1,-0.072006,-0.026937,-0.075813,1, 0.304540,-0.321060, 9.796660,1,0
1778259125827,   182.477,   182.472, 0.032943,-0.008969,-0.923358, 0.000336, 0.000003,-0.009020, 1.060601, 0.314879, 0.802646,1, 0.031891,-0.023381,-0.090282,1, 0.309628,-0.323195, 9.796431,1,0
1778259125850,   182.497,   182.497,-0.078418, 0.057460,-1.129573,-0.000485, 0.000574,-0.011269,-0.461615, 0.230769,-1.281149,1,-0.045694,-0.023977,-0.090676,1, 0.308250,-0.334055, 9.796110,1,0
1778259125876,   182.522,   182.522,-0.103725, 0.032271,-0.807785,-0.000967, 0.000331,-0.008132,-0.702216,-0.009737, 1.874495,1, 0.027301,-0.041785,-0.088354,1, 0.316375,-0.325266, 9.796146,1,0
1778259125897,   182.547,   182.542,-0.180844, 0.076859,-1.126378,-0.001768, 0.000622,-0.011252,-0.653355, 0.023217, 0.564794,1, 0.007784,-0.032763,-0.069617,1, 0.321229,-0.324131, 9.796026,1,0
1778259125920,   182.567,   182.567,-0.185182, 0.042126,-0.971970,-0.001855, 0.000398,-0.009830,-1.489950, 0.096529, 0.264343,1, 0.021140, 0.003059,-0.086556,1, 0.326059,-0.315836, 9.796138,1,0
1778259125946,   182.592,   182.592,-0.230890,-0.001250,-0.995311,-0.002112, 0.000128,-0.009493,-1.937482,-0.317640, 0.035774,1, 0.061374,-0.011515,-0.073792,1, 0.327207,-0.303389, 9.796493,1,0
1778259125968,   182.617,   182.612,-0.347920, 0.039742,-0.776969,-0.003803, 0.000410,-0.008184,-2.942975, 0.639557, 0.393939,1, 0.095371,-0.053132,-0.089481,1, 0.331225,-0.292159, 9.796700,1,0
1778259125990,   182.637,   182.637,-0.402798, 0.110250,-1.084709,-0.004084, 0.000886,-0.010628,-3.614480, 0.818869,-0.839969,1, 0.046150, 0.021867,-0.062585,1, 0.334991,-0.260812, 9.797456,1,0
1778259126016,   182.662,   182.662,-0.383445, 0.051386,-1.012399,-0.004207, 0.000489,-0.010569,-3.419673, 0.262799,-0.130483,1, 0.152251,-0.030447,-0.078558,1, 0.341644,-0.236291, 9.797848,1,0
1778259126038,   182.687,   182.682,-0.498748, 0.089665,-1.041851,-0.004915, 0.001071,-0.011043,-3.922308, 1.123297,-1.895155,1, 0.103986,-0.023031,-0.089700,1, 0.345298,-0.213070, 9.798253,1,0
1778259126060,   182.707,   182.707,-0.573502, 0.128634,-0.775876,-0.005594, 0.000898,-0.008278,-5.263920, 1.095180, 2.189872,1, 0.153949,-0.045771,-0.079611,1, 0.361685,-0.161399, 9.798649,1,0
1778259126086,   182.732,   182.732,-0.562277, 0.005040,-0.900038,-0.005701, 0.000392,-0.008170,-5.140629,-0.084689, 0.972255,1, 0.143534,-0.067531,-0.118752,1, 0.375586,-0.129498, 9.798599,1,0
1778259126108,   182.757,   182.752,-0.317862, 0.089847,-1.055184,-0.003069, 0.001383,-0.010004,-4.358666, 2.730869,-1.322005,1, 0.066998,-0.041918,-0.145354,1, 0.380593,-0.120352, 9.798523,1,0
1778259126131,   182.782,   182.777,-0.026930, 0.185808,-0.809792,-0.000359, 0.001875,-0.009197, 0.134813, 1.726746, 1.856717,1, 0.065163,-0.066807,-0.209952,1, 0.401055,-0.093107, 9.798003,1,0
1778259126156,   182.802,   182.802, 0.301924, 0.163821,-1.029215, 0.003091, 0.001401,-0.009419, 3.365385, 1.524176,-0.295191,1,-0.033329, 0.027442,-0.283587,1, 0.403742,-0.083037, 9.797983,1,0
1778259126178,   182.827,   182.822, 0.221429, 0.279828,-1.187506, 0.002580, 0.002647,-0.012185, 4.002524, 1.570819,-2.360057,1, 0.010383, 0.060822,-0.373901,1, 0.389948,-0.085694, 9.798519,1,0
1778259126201,   182.852,   182.847, 0.042307, 0.066860,-0.434980, 0.000120, 0.000772,-0.004872, 0.822431, 0.584648, 5.532221,1, 0.071726,-0.090021,-0.392379,1, 0.410443,-0.068283, 9.797819,1,0
1778259126226,   182.872,   182.872, 0.128283, 0.225075,-0.904384, 0.001249, 0.002150,-0.008210, 1.676501, 2.132554, 0.928450,1,-0.121356,-0.014752,-0.395262,1, 0.419025,-0.077932, 9.797383,1,0
1778259126248,   182.897,   182.892, 0.387918, 0.204500,-1.471454, 0.003764, 0.001626,-0.015458, 3.692520, 1.821064,-3.893558,1,-0.041152, 0.018004,-0.469471,1, 0.418033,-0.081581, 9.797397,1,0
1778259126271,   182.922,   182.917, 0.349576, 0.006291,-0.891464, 0.003832, 0.000078,-0.008793, 3.856774, 0.001434, 1.054812,1, 0.136602,-0.091495,-0.448006,1, 0.431545,-0.055393, 9.796993,1,0
1778259126296,   182.942,   182.942, 0.334145, 0.046539,-0.667697, 0.003162, 0.000321,-0.006801, 3.714910, 0.418917, 3.248918,1, 0.061061, 0.018354,-0.464811,1, 0.437544,-0.034944, 9.796822,1,0
1778259126318,   182.967,   182.962, 0.284546, 0.117608,-1.241438, 0.002935, 0.000907,-0.012393, 3.345642, 0.504501,-1.368357,1, 0.056541, 0.000451,-0.469861,1, 0.434947,-0.017533, 9.796984,1,0
1778259126341,   182.992,   182.987, 0.271362, 0.070095,-1.043557, 0.002904, 0.000933,-0.010333, 3.103244, 0.709327,-0.437146,1, 0.179042,-0.039979,-0.475980,1, 0.443308, 0.028182, 9.796584,1,0
1778259126366,   183.012,   183.012, 0.190996,-0.049783,-0.962053, 0.002127,-0.000671,-0.009195, 2.320048,-0.427195, 0.361742,1, 0.164932,-0.022987,-0.455065,1, 0.447647, 0.066801, 9.796200,1,0
1778259126388,   183.037,   183.032, 0.177464,-0.046972,-1.034222, 0.001699,-0.000318,-0.010542, 2.339361, 0.641614,-0.184757,1, 0.120811,-0.013709,-0.502104,1, 0.446422, 0.092913, 9.796043,1,0
1778259126411,   183.062,   183.057, 0.176661, 0.035747,-1.029675, 0.001567, 0.000140,-0.010526, 2.175974, 0.474269,-0.301832,1, 0.054433, 0.034694,-0.475967,1, 0.442252, 0.126076, 9.795861,1,0
1778259126437,   183.082,   183.082, 0.140140,-0.008068,-0.990750, 0.001415, 0.000182,-0.009889, 1.812893, 0.058394, 0.079934,1, 0.028345, 0.030388,-0.496010,1, 0.437423, 0.139091, 9.795902,1,0
1778259126458,   183.107,   183.102, 0.086190, 0.096845,-1.036670, 0.000922, 0.000703,-0.010370, 1.162153,-0.526729,-0.512130,1,-0.009754, 0.054328,-0.454301,1, 0.429118, 0.147943, 9.796140,1,0
1778259126485,   183.132,   183.132,-0.005388,-0.024186,-0.911902,-0.000144,-0.000177,-0.009490, 0.363024,-0.094473, 0.854086,1,-0.011206, 0.033519,-0.497563,1, 0.414592, 0.143019, 9.796839,1,0
1778259126507,   183.152,   183.152,-0.094910,-0.026612,-1.080707,-0.001377,-0.000362,-0.010581,-0.520472,-0.123098,-0.801019,1,-0.101429, 0.049985,-0.456769,1, 0.408518, 0.135312, 9.797203,1,0
1778259126528,   183.177,   183.172,-0.086469, 0.013218,-0.917226,-0.001115, 0.000252,-0.009562,-1.122878, 0.838922,-0.476371,1,-0.111144,-0.040305,-0.492074,1, 0.410152, 0.118507, 9.797353,1,0
1778259126555,   183.202,   183.202,-0.106063, 0.076994,-1.084795,-0.000996, 0.000356,-0.010977,-0.629468, 0.851032,-0.840627,1,-0.169228, 0.002598,-0.446382,1, 0.410438, 0.091283, 9.797632,1,0
1778259126577,   183.227,   183.222,-0.124876,-0.091650,-0.861804,-0.001101,-0.000741,-0.008183,-0.792116, 0.111746, 1.299305,1,-0.124745,-0.011234,-0.490452,1, 0.416592, 0.070311, 9.797545,1,0
1778259126598,   183.247,   183.242,-0.083238, 0.140130,-1.009098,-0.000834, 0.001105,-0.010083,-0.928359,-0.822640, 0.129534,1,-0.171363, 0.026284,-0.430605,1, 0.416275, 0.048507, 9.797691,1,0
1778259126625,   183.272,   183.272,-0.103017, 0.006994,-0.793832,-0.001111, 0.000236,-0.008249,-0.601009, 0.085310, 2.013258,1,-0.079373, 0.031899,-0.450236,1, 0.408219, 0.014832, 9.798139,1,0
1778259126647,   183.297,   183.292,-0.122947, 0.116508,-1.051664,-0.001185, 0.000885,-0.010198,-0.754773,-0.768521, 1.936748,1,-0.080851, 0.115198,-0.391755,1, 0.391091, 0.003088, 9.798848,1,0
1778259126668,   183.317,   183.312,-0.037467, 0.005762,-1.078852,-0.000367, 0.000377,-0.010574,-0.336133, 1.508992,-0.648478,1,-0.098160, 0.082013,-0.413651,1, 0.372476,-0.021243, 9.799551,1,0
1778259126695,   183.342,   183.342,-0.000590, 0.023921,-0.986504, 0.000083, 0.000157,-0.009894, 0.345679, 0.209212, 0.126016,1, 0.003141, 0.079701,-0.333549,1, 0.349064,-0.024907, 9.800404,1,0
1778259126717,   183.367,   183.362, 0.109247,-0.015519,-1.263914, 0.000751,-0.000502,-0.012620, 0.593130, 0.018306, 2.007024,1, 0.039543, 0.125339,-0.359492,1, 0.326458,-0.014658, 9.801204,1,0
1778259126738,   183.387,   183.382, 0.058362, 0.125329,-1.703877, 0.001092, 0.000702,-0.016956, 2.325215,-0.089436,-5.243519,1, 0.009702, 0.048639,-0.341494,1, 0.303220,-0.022480, 9.801935,1,0
1778259126765,   183.412,   183.412,-0.020964,-0.029229,-0.680573,-0.000234,-0.000384,-0.007384, 0.109888,-0.272740, 3.127424,1, 0.178465,-0.007292,-0.329711,1, 0.315691, 0.019798, 9.801547,1,0
1778259126787,   183.437,   183.432, 0.094804, 0.124602,-0.964386, 0.000877, 0.001129,-0.009861, 0.555027, 0.857299, 1.414407,1, 0.057988, 0.005615,-0.318721,1, 0.311694, 0.038303, 9.801620,1,0
1778259126809,   183.457,   183.452, 0.113595,-0.020475,-1.197238, 0.001078,-0.000386,-0.012182, 1.593743, 0.154149,-1.022931,1, 0.129143, 0.012013,-0.348886,1, 0.309727, 0.061715, 9.801563,1,0
1778259126835,   183.482,   183.482, 0.036499, 0.134763,-1.036325, 0.000120, 0.001294,-0.010817, 0.663699, 1.424212,-0.361530,1, 0.152646,-0.017121,-0.336787,1, 0.306193, 0.107725, 9.801277,1,0
1778259126857,   183.507,   183.502,-0.028480,-0.034019,-0.827099,-0.000169,-0.000488,-0.008311, 0.206879,-0.692046, 1.830055,1, 0.134157, 0.040818,-0.363403,1, 0.305983, 0.146312, 9.800783,1,0
1778259126879,   183.527,   183.522,-0.042521, 0.175270,-1.264924,-0.000566, 0.001324,-0.013041,-0.392914, 0.002640,-0.198234,1, 0.101275, 0.028023,-0.337257,1, 0.295386, 0.174099, 9.800654,1,0
1778259126906,   183.552,   183.552, 0.065509,-0.233435,-1.615717, 0.000433,-0.001719,-0.014086, 0.939078,-2.087290,-6.044689,1, 0.053374,-0.040194,-0.362791,1, 0.297667, 0.203949, 9.800010,1,0
1778259126927,   183.577,   183.572,-0.078928, 0.102814,-0.806557,-0.000782, 0.000895,-0.008380, 0.501305, 1.114048,-0.224857,1, 0.227908,-0.212283,-0.300129,1, 0.327860, 0.225129, 9.798582,1,0
1778259126949,   183.597,   183.592,-0.261908,-0.050578,-0.599965,-0.002379,-0.000208,-0.005856,-2.141873, 1.731028, 1.970129,1, 0.034789,-0.126355,-0.390351,1, 0.357567, 0.245227, 9.797060,1,0
1778259126976,   183.622,   183.622,-0.233504, 0.027400,-0.508399,-0.002410,-0.000012,-0.005050,-1.899538, 0.545083, 4.809283,1, 0.005378,-0.057309,-0.356265,1, 0.391831, 0.276988, 9.794903,1,0
1778259126997,   183.647,   183.642, 0.001148,-0.039578,-1.282009, 0.000165,-0.000273,-0.012584,-0.280875, 1.198106,-0.242209,1,-0.078130, 0.053004,-0.388484,1, 0.387336, 0.269802, 9.795282,1,0
1778259127020,   183.667,   183.667, 0.039363,-0.030093,-1.246378, 0.000291,-0.000763,-0.013123, 0.763946,-0.032684,-2.426944,1,-0.031389, 0.014192,-0.354510,1, 0.377193, 0.261873, 9.795894,1,0
1778259127046,   183.692,   183.692, 0.060709,-0.065734,-0.922287, 0.000433,-0.000596,-0.009497, 0.963714,-0.383228, 0.751698,1,-0.028130, 0.093810,-0.382821,1, 0.365115, 0.260972, 9.796375,1,0
1778259127067,   183.717,   183.712,-0.200833, 0.128340,-0.821799,-0.002011, 0.001248,-0.008282,-0.447103, 0.420746, 1.686027,1,-0.025124, 0.052483,-0.356057,1, 0.347572, 0.255953, 9.797146,1,0
1778259127090,   183.737,   183.737,-0.150382, 0.019257,-1.108632,-0.001496, 0.000313,-0.010733,-1.138530, 0.444444,-1.074414,1,-0.037360, 0.038532,-0.325184,1, 0.334912, 0.254868, 9.797615,1,0
1778259127116,   183.762,   183.762,-0.095321, 0.091554,-1.259952,-0.000775, 0.000700,-0.012625,-0.602032, 1.148586,-2.558113,1,-0.038821,-0.022512,-0.332462,1, 0.333183, 0.249894, 9.797802,1,0
1778259127137,   183.787,   183.782, 0.065158,-0.102358,-0.919739, 0.000532,-0.001109,-0.009126, 0.693430,-0.517129,-0.037820,1, 0.010495,-0.011713,-0.374643,1, 0.334158, 0.254596, 9.797647,1,0
1778259127160,   183.807,   183.807, 0.097368, 0.064062,-0.824218, 0.000848, 0.000667,-0.008438, 1.292628, 0.884745, 1.714659,1, 0.003859,-0.038544,-0.350026,1, 0.338693, 0.257004, 9.797429,1,0
1778259127186,   183.832,   183.832, 0.101187,-0.019419,-1.094943, 0.001093,-0.000112,-0.010549, 1.335388, 0.069436,-0.940526,1,-0.015287,-0.020962,-0.327507,1, 0.343467, 0.259753, 9.797191,1,0
1778259127207,   183.857,   183.852, 0.081398, 0.004932,-0.926660, 0.000786, 0.000170,-0.009489, 1.026835, 1.087045,-0.661416,1, 0.025452,-0.030443,-0.350049,1, 0.347218, 0.263636, 9.796955,1,0
1778259127230,   183.877,   183.877, 0.042243,-0.086122,-0.859149, 0.000372,-0.000900,-0.008583, 0.758112,-0.563701, 1.371221,1, 0.038601, 0.017708,-0.340168,1, 0.342993, 0.282441, 9.796579,1,0
1778259127256,   183.902,   183.902, 0.003979, 0.121879,-0.874960,-0.000067, 0.001155,-0.008932, 0.377975, 1.484566, 1.216091,1, 0.026683, 0.013305,-0.356825,1, 0.338210, 0.290557, 9.796508,1,0
1778259127278,   183.927,   183.922,-0.081690,-0.043743,-0.970440,-0.000940,-0.000488,-0.009620,-0.419970,-0.117720, 0.576008,1, 0.035932,-0.023258,-0.371878,1, 0.339228, 0.300275, 9.796180,1,0
1778259127300,   183.947,   183.947,-0.027086, 0.149678,-1.061938,-0.000467, 0.001480,-0.010789, 0.078337, 1.774595,-0.618242,1,-0.012014,-0.021349,-0.369405,1, 0.344258, 0.306780, 9.795803,1,0
1778259127326,   183.972,   183.972,-0.045740,-0.042256,-1.088522,-0.000485,-0.000374,-0.010562,-0.095486,-0.102286,-0.879437,1,-0.002686,-0.045616,-0.400750,1, 0.354097, 0.312471, 9.795273,1,0
1778259127348,   183.997,   183.992, 0.068826, 0.099061,-0.961347, 0.000409, 0.001066,-0.010089, 0.652297, 0.918351,-0.332662,1,-0.004491,-0.013286,-0.385700,1, 0.352383, 0.317726, 9.795165,1,0
1778259127370,   184.022,   184.017, 0.013405,-0.052822,-0.876445, 0.000245,-0.000410,-0.008551, 0.483591,-0.191524, 1.199899,1, 0.015672,-0.024877,-0.396029,1, 0.352496, 0.327412, 9.794842,1,0
1778259127396,   184.042,   184.042, 0.008863,-0.052618,-0.900388, 0.000123,-0.000636,-0.008832, 0.633031, 1.015924,-0.319322,1,-0.019160, 0.026565,-0.398144,1, 0.348595, 0.334471, 9.794744,1,0
1778259127418,   184.067,   184.062,-0.014610,-0.048798,-1.075171,-0.000008,-0.000489,-0.010715, 0.625805, 0.899124,-1.618177,1, 0.042866,-0.020302,-0.425914,1, 0.344235, 0.337438, 9.794796,1,0
1778259127441,   184.092,   184.087,-0.018424, 0.140055,-0.968759,-0.000198, 0.001131,-0.009836, 0.170294, 1.732856, 0.293497,1, 0.029656,-0.032721,-0.398619,1, 0.351535, 0.360757, 9.793705,1,0
1778259127466,   184.112,   184.112,-0.037711, 0.022533,-1.007030,-0.000333, 0.000479,-0.009948,-0.012875, 0.594352,-0.082559,1, 0.080848,-0.069058,-0.445873,1, 0.358571, 0.376406, 9.792861,1,0
1778259127488,   184.137,   184.132,-0.109019, 0.193566,-0.954394,-0.001048, 0.001664,-0.009512,-0.265778, 0.467223, 0.948103,1, 0.105803,-0.101038,-0.430187,1, 0.372977, 0.398856, 9.791434,1,0
1778259127511,   184.162,   184.157, 0.125446, 0.030584,-1.153001, 0.001344, 0.000662,-0.011232, 1.615128, 0.718147,-1.516913,1, 0.087703,-0.051094,-0.505657,1, 0.385841, 0.421570, 9.789984,1,0
1778259127536,   184.182,   184.182, 0.245872,-0.069211,-1.080709, 0.002095,-0.000751,-0.010625, 2.799237,-0.235250,-0.809207,1, 0.105979,-0.008747,-0.496115,1, 0.387633, 0.447392, 9.788767,1,0
1778259127558,   184.207,   184.202, 0.361123,-0.162930,-1.022226, 0.003793,-0.001384,-0.010363, 4.426572, 0.537879,-1.548449,1, 0.088720, 0.082243,-0.527920,1, 0.367722, 0.467573, 9.788592,1,0
1778259127581,   184.232,   184.227, 0.167761,-0.111540,-0.854594, 0.001723,-0.001335,-0.008336, 1.984623,-0.577506, 1.406453,1, 0.125640, 0.107105,-0.427351,1, 0.335414, 0.520708, 9.787070,1,0
1778259127606,   184.252,   184.252, 0.052748, 0.173599,-1.022900, 0.000568, 0.001681,-0.010195, 0.832872, 2.241009,-0.244463,1, 0.097424, 0.079782,-0.432662,1, 0.312366, 0.542054, 9.786674,1,0
1778259127628,   184.277,   184.272,-0.160339,-0.110148,-1.002625,-0.001644,-0.001204,-0.009915,-1.074430,-0.322898, 0.077761,1, 0.159741, 0.023037,-0.465331,1, 0.301091, 0.573692, 9.785224,1,0
1778259127651,   184.302,   184.297,-0.070348, 0.113121,-1.020909,-0.000800, 0.001096,-0.010115,-0.402191, 1.712431,-0.227838,1, 0.043146,-0.011858,-0.503563,1, 0.287093, 0.604896, 9.783765,1,0
1778259127676,   184.322,   184.322,-0.108276, 0.037274,-0.949461,-0.000951, 0.000677,-0.009716,-0.778450, 0.979071, 0.472300,1, 0.081780,-0.029400,-0.540132,1, 0.283233, 0.616574, 9.783149,1,0
1778259127698,   184.347,   184.342,-0.157116, 0.049663,-0.878140,-0.001727, 0.000434,-0.008595,-1.897812, 0.220470, 1.946880,1, 0.038854,-0.010968,-0.492090,1, 0.282192, 0.630601, 9.782285,1,0
1778259127725,   184.372,   184.372,-0.203049, 0.088825,-1.092657,-0.001960, 0.001197,-0.011065,-1.717070, 1.490062,-0.932047,1,-0.033085,-0.025433,-0.599735,1, 0.273775, 0.618476, 9.783298,1,0
1778259127747,   184.392,   184.392,-0.262703,-0.070919,-0.976521,-0.002667,-0.000741,-0.009663,-2.303254,-0.077390, 0.206949,1,-0.037537,-0.013180,-0.589371,1, 0.272233, 0.617429, 9.783407,1,0
1778259127768,   184.417,   184.412,-0.201414, 0.088362,-1.053097,-0.001781, 0.001132,-0.010762,-1.544092, 2.494093,-2.252116,1,-0.158739, 0.015065,-0.620533,1, 0.261493, 0.594059, 9.785147,1,0
1778259127795,   184.442,   184.442,-0.210770,-0.020715,-0.820341,-0.002152,-0.000428,-0.007996,-1.809122, 0.382775, 1.740938,1,-0.080016,-0.017905,-0.633547,1, 0.257201, 0.583943, 9.785870,1,0
1778259127817,   184.467,   184.462,-0.114651, 0.026670,-1.139744,-0.001256, 0.000250,-0.011521,-0.996572, 1.198295,-0.078489,1,-0.127058,-0.027551,-0.654940,1, 0.252161, 0.558017, 9.787514,1,0
1778259127838,   184.487,   184.482,-0.033088, 0.091458,-1.202302,-0.000328, 0.000774,-0.011966,-0.441666, 0.327472,-1.813030,1,-0.128537,-0.055224,-0.664768,1, 0.253072, 0.533867, 9.788836,1,0
1778259127865,   184.512,   184.512, 0.063167,-0.045372,-0.921885, 0.000709,-0.000453,-0.009387, 0.874389, 0.068108, 0.749301,1,-0.020060,-0.042988,-0.651706,1, 0.255205, 0.512963, 9.789899,1,0
1778259127887,   184.537,   184.532, 0.130724,-0.018935,-0.936533, 0.001249,-0.000025,-0.009248, 1.001470, 1.212153, 1.224648,1,-0.089010,-0.022042,-0.643002,1, 0.254298, 0.499418, 9.790623,1,0
1778259127908,   184.557,   184.552, 0.148839,-0.017952,-1.068192, 0.001445,-0.000266,-0.010727, 1.753604, 0.224594,-0.124701,1,-0.048264,-0.034513,-0.617644,1, 0.252505, 0.489454, 9.791173,1,0
1778259127935,   184.582,   184.582, 0.165576, 0.050248,-0.938706, 0.001717, 0.000870,-0.009511, 1.881622, 0.975850, 0.585786,1,-0.008263,-0.051786,-0.619619,1, 0.258536, 0.483339, 9.791319,1,0
1778259127957,   184.607,   184.602, 0.177681,-0.042075,-0.901067, 0.001568,-0.000702,-0.009057, 1.880395,-0.678952, 1.524796,1, 0.050457,-0.053050,-0.579403,1, 0.261239, 0.495322, 9.790648,1,0
1778259127978,   184.627,   184.622, 0.184142, 0.031576,-1.030914, 0.001860, 0.000521,-0.010111, 1.940848, 1.177576, 0.098951,1, 0.035068,-0.068652,-0.573815,1, 0.267715, 0.502859, 9.790090,1,0
1778259128005,   184.652,   184.652, 0.153509,-0.044070,-1.064372, 0.001580,-0.000446,-0.010735, 1.780977, 0.097129,-0.649452,1, 0.109166,-0.074407,-0.523126,1, 0.277004, 0.533172, 9.788227,1,0
1778259128027,   184.677,   184.672, 0.155116,-0.061797,-0.924647, 0.001559,-0.000543,-0.009312, 1.865919, 0.796188, 0.670080,1, 0.124817,-0.070696,-0.536415,1, 0.285194, 0.559074, 9.786546,1,0
1778259128048,   184.697,   184.692, 0.120996,-0.120650,-1.025448, 0.001320,-0.001222,-0.010035, 1.545265,-0.600964, 0.065915,1, 0.126506,-0.007289,-0.533821,1, 0.284684, 0.586609, 9.784949,1,0
1778259128075,   184.722,   184.722, 0.148015, 0.063869,-1.080469, 0.001375, 0.000441,-0.011034, 1.731509, 1.246759,-0.812780,1, 0.082071,-0.011662,-0.540710,1, 0.279272, 0.623458, 9.782826,1,0
1778259128097,   184.747,   184.742, 0.033583,-0.119618,-1.031210, 0.000423,-0.001200,-0.010123, 0.593443,-0.567627,-0.531136,1, 0.112128,-0.003558,-0.520567,1, 0.275344, 0.648095, 9.781337,1,0
1778259128119,   184.767,   184.762, 0.023188, 0.052691,-1.006560, 0.000168, 0.000310,-0.010384, 0.546377, 0.318533,-0.169870,1, 0.057885,-0.017811,-0.479685,1, 0.269578, 0.665889, 9.780302,1,0
1778259128146,   184.792,   184.792,-0.104801,-0.028419,-0.917703,-0.000978, 0.000026,-0.009052,-0.759588, 0.399658, 0.779888,1, 0.029470,-0.035822,-0.568135,1, 0.268046, 0.679759, 9.779389,1,0
1778259128167,   184.817,   184.812,-0.084686, 0.055141,-0.978643,-0.000855, 0.000451,-0.009599,-0.806368, 0.425591, 0.363177,1,-0.028796,-0.027516,-0.528057,1, 0.264621, 0.680934, 9.779401,1,0
1778259128189,   184.837,   184.832,-0.068030, 0.057837,-1.067830,-0.000659, 0.000802,-0.010917,-0.149393, 1.981349,-0.420864,1,-0.111677,-0.021769,-0.599412,1, 0.261631, 0.668922, 9.780311,1,0
1778259128216,   184.862,   184.862,-0.100956,-0.066632,-0.928234,-0.000914,-0.000825,-0.009186,-0.730917,-0.006178, 0.678966,1,-0.087825,-0.024959,-0.588225,1, 0.258687, 0.645010, 9.781995,1,0
1778259128237,   184.887,   184.882,-0.065962, 0.146483,-1.044541,-0.000558, 0.001628,-0.010556,-0.067970, 2.205014, 0.125382,1,-0.184239,-0.009767,-0.614897,1, 0.253836, 0.618496, 9.783834,1,0
1778259128260,   184.907,   184.907,-0.070190,-0.043931,-1.003417,-0.000810,-0.000560,-0.010017,-0.440030, 0.158616,-0.054395,1,-0.117096,-0.005529,-0.651302,1, 0.247252, 0.586301, 9.785985,1,0
1778259128286,   184.932,   184.932,-0.015014, 0.100550,-1.078230,-0.000010, 0.000754,-0.010751, 0.097414, 1.553597,-0.786670,1,-0.145593,-0.031774,-0.646564,1, 0.244472, 0.563503, 9.787394,1,0
1778259128307,   184.957,   184.952, 0.042861,-0.050689,-1.030800, 0.000293,-0.000600,-0.010463, 0.361196, 0.236978,-0.085486,1,-0.081129,-0.038787,-0.677637,1, 0.246417, 0.550030, 9.788112,1,0
1778259128330,   184.977,   184.977, 0.017463, 0.061515,-1.060753, 0.000235, 0.000716,-0.010593, 0.421952, 1.135430,-0.613443,1,-0.070701,-0.080576,-0.639725,1, 0.252124, 0.530478, 9.789045,1,0
1778259128356,   185.002,   185.002,-0.014451,-0.047952,-0.804056,-0.000311,-0.000550,-0.008270, 0.117884, 0.061914, 1.903661,1,-0.024665,-0.054463,-0.632422,1, 0.260225, 0.531917, 9.788755,1,0
1778259128377,   185.027,   185.022, 0.020386, 0.000421,-1.027120, 0.000061, 0.000096,-0.010703, 0.322161, 0.422267,-0.739964,1,-0.067282,-0.066664,-0.632153,1, 0.263743, 0.523387, 9.789121,1,0
1778259128400,   185.047,   185.047, 0.065206,-0.141096,-0.904066, 0.000556,-0.001370,-0.009035, 0.913384,-0.868392, 0.923415,1,-0.042808,-0.040416,-0.611994,1, 0.274184, 0.514489, 9.789306,1,0
1778259128426,   185.072,   185.072, 0.100017,-0.009746,-1.017105, 0.001148,-0.000274,-0.010212, 1.252231, 0.409630,-0.184526,1,-0.077239,-0.026077,-0.511379,1, 0.271388, 0.503238, 9.789968,1,0
1778259128447,   185.097,   185.092, 0.014931,-0.176793,-0.908378, 0.000185,-0.001628,-0.008956, 0.465005,-0.532469, 0.699429,1,-0.045892,-0.029578,-0.537923,1, 0.273574, 0.492892, 9.790434,1,0
1778259128470,   185.117,   185.117, 0.041586,-0.023651,-1.032382, 0.000403,-0.000448,-0.010394, 0.673519, 0.240383,-0.332547,1,-0.106145, 0.012864,-0.502564,1, 0.264547, 0.469434, 9.791835,1,0
1778259128496,   185.142,   185.142,-0.031703,-0.017064,-1.061251,-0.000139,-0.000098,-0.010557,-0.049010, 0.284995,-0.614610,1,-0.103897,-0.013224,-0.512583,1, 0.261494, 0.449406, 9.792856,1,0
1778259128518,   185.167,   185.162, 0.029893,-0.034349,-1.059003, 0.000168,-0.000441,-0.010615,-0.032628,-0.412521,-0.643497,1,-0.135868, 0.015553,-0.479950,1, 0.256988, 0.429879, 9.793853,1,0
1778259128540,   185.187,   185.187,-0.087920,-0.034702,-0.917095,-0.000861,-0.000196,-0.009018,-0.609516, 0.057269, 0.801694,1,-0.126924,-0.024988,-0.475355,1, 0.252859, 0.394002, 9.795468,1,0
1778259128566,   185.212,   185.212,-0.076244,-0.041254,-0.905698,-0.000807,-0.000500,-0.008957,-0.494094,-0.031193, 0.914393,1,-0.162572,-0.003204,-0.453973,1, 0.253162, 0.368667, 9.796447,1,0
1778259128588,   185.237,   185.232,-0.013153, 0.020839,-0.966719,-0.000105, 0.000414,-0.009908, 0.219033, 1.626567,-0.719106,1,-0.201336,-0.020493,-0.467047,1, 0.250470, 0.333169, 9.797788,1,0
1778259128610,   185.262,   185.257, 0.034279,-0.148416,-0.905756, 0.000346,-0.001585,-0.008917, 0.587021,-1.153242, 0.916348,1,-0.150713, 0.021135,-0.457810,1, 0.249757, 0.297882, 9.798943,1,0
1778259128636,   185.282,   185.282, 0.136024, 0.097016,-1.128914, 0.001415, 0.000851,-0.011011, 1.572843, 1.223263,-1.270894,1,-0.193589, 0.032746,-0.447462,1, 0.237490, 0.266165, 9.800160,1,0
1778259128658,   185.307,   185.302, 0.090983,-0.110508,-1.010980, 0.000980,-0.001120,-0.009976, 1.461224, 0.124145, 0.516828,1,-0.087432, 0.002649,-0.474259,1, 0.234124, 0.242610, 9.800853,1,0
1778259128681,   185.332,   185.327, 0.121993, 0.079788,-1.107432, 0.001230, 0.000622,-0.011050, 1.422388, 0.996337,-1.058484,1,-0.113165, 0.007371,-0.408491,1, 0.225533, 0.210647, 9.801793,1,0
1778259128706,   185.352,   185.352, 0.048437, 0.038087,-0.965620, 0.000587, 0.000493,-0.009720, 0.701845, 0.568035, 0.332597,1,-0.055196,-0.007101,-0.445203,1, 0.226784, 0.193125, 9.802125,1,0
1778259128728,   185.377,   185.372, 0.079670, 0.002815,-1.032990, 0.000663,-0.000127,-0.010410, 0.635987,-0.612536,-0.142579,1,-0.073474,-0.000704,-0.400744,1, 0.226240, 0.183618, 9.802320,1,0
1778259128751,   185.402,   185.397, 0.100434, 0.089634,-1.004508, 0.000954, 0.001010,-0.010286, 1.207846, 1.055372,-0.048334,1,-0.045505,-0.005687,-0.406116,1, 0.222878, 0.175235, 9.802551,1,0
1778259128776,   185.422,   185.422, 0.077961,-0.132086,-0.904762, 0.000807,-0.001198,-0.008926, 0.986310,-1.114326, 0.929784,1, 0.016097, 0.004599,-0.400291,1, 0.221403, 0.181784, 9.802465,1,0
1778259128798,   185.447,   185.442, 0.092319, 0.097139,-1.089573, 0.000992, 0.000894,-0.010756, 1.069739, 0.161566,-0.563178,1, 0.017050, 0.046288,-0.362875,1, 0.213533, 0.184349, 9.802591,1,0
1778259128821,   185.472,   185.467, 0.029718, 0.049929,-0.919204, 0.000293, 0.000655,-0.009458, 0.501324, 0.684400, 0.788161,1, 0.082373, 0.003311,-0.395634,1, 0.209543, 0.197598, 9.802420,1,0
1778259128846,   185.492,   185.492,-0.019980,-0.084315,-1.023309,-0.000186,-0.000927,-0.010044, 0.011294,-0.616793,-0.233025,1, 0.039777, 0.017225,-0.363122,1, 0.206447, 0.211535, 9.802195,1,0
1778259128868,   185.517,   185.512, 0.005428, 0.141450,-0.980665, 0.000161, 0.001357,-0.009927, 0.507456, 1.215175,-0.163084,1, 0.065811, 0.008740,-0.360737,1, 0.200929, 0.226012, 9.801986,1,0
1778259128891,   185.542,   185.537,-0.014280,-0.088104,-0.935937,-0.000224,-0.000735,-0.009358, 0.058625,-0.622573, 0.623255,1, 0.044443, 0.016830,-0.422090,1, 0.197783, 0.243026, 9.801643,1,0
1778259128916,   185.562,   185.562,-0.045270,-0.076055,-1.098554,-0.000506,-0.000904,-0.010976,-0.249096,-0.500516,-0.971495,1, 0.005047, 0.015674,-0.375655,1, 0.194064, 0.245721, 9.801650,1,0
1778259128938,   185.587,   185.582,-0.081690, 0.111692,-1.002280,-0.000753, 0.001344,-0.010092, 0.003146, 1.412099,-0.128576,1,-0.056355, 0.023664,-0.401934,1, 0.186084, 0.243148, 9.801869,1,0
1778259128965,   185.612,   185.612,-0.165787,-0.112476,-0.898322,-0.001711,-0.001053,-0.009013,-1.442663,-0.874685, 0.992747,1,-0.056512,-0.002436,-0.431864,1, 0.182918, 0.226819, 9.802320,1,0
1778259128987,   185.632,   185.632,-0.132794, 0.071258,-1.016485,-0.001321, 0.000558,-0.010034,-1.124364, 0.911176,-0.165580,1,-0.109479, 0.010181,-0.399758,1, 0.177317, 0.209188, 9.802815,1,0
1778259129008,   185.657,   185.652,-0.111398,-0.002604,-0.969199,-0.001089, 0.000208,-0.009754,-0.996698, 1.740626,-0.336348,1,-0.116750,-0.038422,-0.449716,1, 0.181706, 0.187420, 9.803175,1,0
1778259129035,   185.682,   185.682,-0.113312,-0.138639,-0.983596,-0.001161,-0.001482,-0.009822,-0.921178,-1.187112, 0.157508,1,-0.057209,-0.041361,-0.394084,1, 0.191109, 0.170922, 9.803298,1,0
1778259129057,   185.707,   185.702,-0.001075, 0.098843,-0.939247, 0.000068, 0.001204,-0.009633, 0.188830, 1.513015,-0.308614,1,-0.054373,-0.046961,-0.398686,1, 0.195591, 0.163086, 9.803343,1,0
1778259129078,   185.727,   185.722, 0.011207,-0.115656,-0.950169, 0.000200,-0.000926,-0.009096, 0.217978, 0.019750, 1.303831,1, 0.028711,-0.022651,-0.379490,1, 0.204515, 0.163741, 9.803150,1,0
1778259129105,   185.752,   185.752, 0.067896,-0.059386,-1.153238, 0.000609,-0.000821,-0.011666, 0.870316,-0.414097,-1.506329,1, 0.039404, 0.003917,-0.299303,1, 0.204205, 0.169696, 9.803055,1,0
1778259129127,   185.777,   185.772, 0.056064,-0.051331,-0.788664, 0.000416,-0.000350,-0.007553, 0.837896, 0.268954, 1.822926,1, 0.070185, 0.000561,-0.355044,1, 0.204696, 0.178330, 9.802892,1,0
1778259129148,   185.797,   185.792, 0.017528,-0.045337,-1.107835, 0.000078,-0.000612,-0.011216, 0.612537,-0.771544,-0.433373,1,-0.016732, 0.026568,-0.328491,1, 0.196515, 0.185403, 9.802928,1,0
1778259129175,   185.822,   185.822, 0.046013, 0.080067,-1.073126, 0.000759, 0.000815,-0.010304, 0.644285, 0.979596,-0.720948,1,-0.026735,-0.004895,-0.280560,1, 0.193028, 0.193746, 9.802835,1,0
1778259129197,   185.847,   185.842, 0.136852,-0.185529,-1.055207, 0.001435,-0.001901,-0.010402, 1.264286,-0.841847, 0.177882,1, 0.032217,-0.010249,-0.309917,1, 0.192875, 0.195959, 9.802794,1,0
1778259129218,   185.867,   185.862, 0.159554, 0.007669,-1.064470, 0.001716,-0.000006,-0.010574, 1.644014,-0.840812,-1.142292,1,-0.046386, 0.024716,-0.279745,1, 0.189751, 0.191706, 9.802939,1,0
1778259129245,   185.892,   185.892, 0.105587,-0.001612,-0.872507, 0.001001, 0.000058,-0.009028, 1.224765, 0.161163, 1.246855,1,-0.055387, 0.008437,-0.319536,1, 0.188864, 0.175439, 9.803262,1,0
1778259129267,   185.917,   185.912, 0.090583,-0.079571,-1.038121, 0.000769,-0.000911,-0.010385, 0.923028,-1.176342, 0.563997,1,-0.141625, 0.033185,-0.287533,1, 0.183403, 0.155956, 9.803695,1,0
1778259129288,   185.937,   185.932, 0.096511, 0.043430,-1.082759, 0.000967, 0.000399,-0.010914, 1.308208, 0.093208,-0.948886,1,-0.191209, 0.042525,-0.271440,1, 0.172737, 0.124027, 9.804344,1,0
1778259129315,   185.962,   185.962, 0.062809,-0.015248,-0.787665, 0.000667,-0.000017,-0.008038, 0.779025,-0.080430, 2.080695,1,-0.202590, 0.057416,-0.318379,1, 0.161221, 0.062941, 9.805122,1,0
1778259129337,   185.987,   185.982,-0.029095, 0.013993,-1.142638,-0.000212,-0.000061,-0.011255,-0.338138,-0.750234, 0.596929,1,-0.290923, 0.123090,-0.281527,1, 0.142380, 0.015100, 9.805605,1,0
1778259129358,   186.007,   186.002,-0.048518, 0.100616,-0.874988,-0.000559, 0.000979,-0.009241,-0.473367, 0.631658,-1.298499,1,-0.264050, 0.020338,-0.253191,1, 0.129685,-0.040508, 9.805709,1,0
1778259129385,   186.032,   186.032,-0.069694, 0.089867,-1.181472,-0.000732, 0.000956,-0.011797,-0.564752, 0.779711,-1.780879,1,-0.276037, 0.037655,-0.267964,1, 0.117619,-0.110093, 9.805326,1,0
1778259129407,   186.057,   186.052,-0.094935,-0.009510,-0.942312,-0.001120,-0.000198,-0.009404,-1.268625,-0.635112, 0.529183,1,-0.113684, 0.001887,-0.267528,1, 0.120851,-0.140081, 9.804905,1,0
1778259129429,   186.077,   186.072,-0.216875, 0.036260,-1.014892,-0.002148, 0.000272,-0.010345,-1.500534, 0.002018,-0.716427,1,-0.157482, 0.023469,-0.258164,1, 0.112492,-0.168664, 9.804554,1,0
1778259129456,   186.102,   186.102,-0.237144, 0.053385,-0.695552,-0.002294, 0.000681,-0.006876,-2.203498, 0.344511, 2.983220,1,-0.005204,-0.041871,-0.208548,1, 0.123511,-0.179099, 9.804236,1,0
1778259129477,   186.127,   186.122,-0.170182,-0.044160,-1.272282,-0.001640,-0.000517,-0.012691,-2.016124,-0.582195,-0.695227,1,-0.057593, 0.031684,-0.170795,1, 0.121877,-0.188633, 9.804078,1,0
1778259129500,   186.147,   186.147,-0.158992,-0.061462,-1.099817,-0.001712,-0.000694,-0.011448,-1.435311,-0.799998,-0.981635,1, 0.004360, 0.003099,-0.167964,1, 0.123881,-0.197065, 9.803887,1,0
1778259129526,   186.172,   186.172,-0.130946,-0.103681,-0.884466,-0.001359,-0.001152,-0.008936,-1.167035,-1.218632, 1.130228,1,-0.066315, 0.087661,-0.165317,1, 0.114482,-0.203876, 9.803863,1,0
1778259129547,   186.197,   186.192,-0.281312,-0.049152,-0.980513,-0.002885,-0.000634,-0.010114,-1.928963,-1.292891,-0.541136,1,-0.122376, 0.017713,-0.114426,1, 0.103905,-0.226348, 9.803487,1,0
1778259129570,   186.217,   186.217,-0.217965, 0.005783,-1.006595,-0.002206, 0.000047,-0.009581,-2.030195,-0.202060,-0.068684,1,-0.183576, 0.016127,-0.027093,1, 0.106828,-0.264495, 9.802501,1,0
1778259129596,   186.242,   186.242,-0.201638,-0.156100,-1.061403,-0.002012,-0.001458,-0.010703,-1.867344,-1.833539,-0.607449,1,-0.206824,-0.043835,-0.031688,1, 0.111448,-0.309159, 9.801142,1,0
1778259129617,   186.267,   186.262,-0.075753,-0.052378,-0.911484,-0.000745,-0.000802,-0.009160,-1.227309,-2.281139,-0.258408,1,-0.245995, 0.021259, 0.014514,1, 0.112410,-0.356199, 9.799534,1,0
1778259129640,   186.287,   186.287,-0.122810,-0.010567,-0.950970,-0.001192, 0.000039,-0.009433,-1.096838,-0.542706, 0.470384,1,-0.330680, 0.006010, 0.038140,1, 0.107272,-0.449399, 9.795760,1,0
1778259129666,   186.312,   186.312,-0.114201,-0.143050,-0.905430,-0.001222,-0.001665,-0.009286,-1.015869,-1.905831, 0.913942,1,-0.326682, 0.013380, 0.122513,1, 0.103444,-0.513215, 9.792665,1,0
1778259129687,   186.337,   186.332,-0.190283,-0.082576,-0.975216,-0.001829,-0.000693,-0.009316,-1.736774,-0.686266, 1.337314,1,-0.401810, 0.003076, 0.126822,1, 0.102106,-0.586049, 9.788590,1,0
1778259129710,   186.357,   186.357,-0.141101,-0.077188,-1.191263,-0.001460,-0.000973,-0.012346,-1.283917,-1.452882,-1.900895,1,-0.417777,-0.046111, 0.172194,1, 0.100866,-0.708988, 9.780468,1,0
1778259129736,   186.382,   186.382,-0.189125, 0.019671,-0.843058,-0.001970, 0.000408,-0.008508,-1.742397,-0.577713, 1.508097,1,-0.378281,-0.062923, 0.201397,1, 0.113753,-0.782461, 9.774722,1,0
1778259129757,   186.407,   186.402,-0.117545,-0.174109,-0.844172,-0.001088,-0.002064,-0.008000,-0.924812,-2.795245, 2.866784,1,-0.378583,-0.006951, 0.262221,1, 0.112940,-0.854605, 9.768688,1,0
1778259129780,   186.427,   186.427,-0.055538,-0.081959,-1.331225,-0.000632,-0.000640,-0.012917,-0.436986,-1.777437,-3.297276,1,-0.479054,-0.023970, 0.331055,1, 0.107377,-0.988690, 9.756093,1,0
1778259129806,   186.452,   186.452,-0.063546,-0.031681,-1.095734,-0.000704,-0.000588,-0.010997,-0.510964,-1.358823,-0.995664,1,-0.383945,-0.038104, 0.422940,1, 0.111978,-1.060209, 9.748528,1,0
1778259129828,   186.477,   186.472,-0.062737,-0.132031,-1.110687,-0.000626,-0.001473,-0.011416, 0.172271,-1.925073, 0.683973,1,-0.361626,-0.022850, 0.448790,1, 0.104528,-1.133960, 9.740308,1,0
1778259129850,   186.502,   186.497, 0.023071,-0.030790,-1.149268, 0.000115,-0.000422,-0.011450, 0.328132,-1.542961,-1.543208,1,-0.409955,-0.019341, 0.490730,1, 0.100549,-1.253863, 9.725641,1,0
1778259129876,   186.522,   186.522, 0.056183, 0.031798,-1.222476, 0.000449, 0.000082,-0.012788, 0.647258,-1.008528,-2.271522,1,-0.418618,-0.057823, 0.510618,1, 0.095936,-1.333464, 9.715095,1,0
1778259129898,   186.547,   186.542, 0.080715,-0.084026,-0.883591, 0.000826,-0.000956,-0.008441, 0.896576,-1.619276, 2.638752,1,-0.299414,-0.082430, 0.528809,1, 0.099235,-1.397593, 9.706043,1,0
1778259129920,   186.572,   186.567, 0.067522, 0.058269,-1.104060, 0.000888, 0.000580,-0.010915, 0.759262,-0.926040,-1.135977,1,-0.348453,-0.118500, 0.577125,1, 0.098003,-1.508387, 9.689455,1,0
1778259129946,   186.592,   186.592, 0.107561,-0.003213,-1.089922, 0.000962,-0.000076,-0.010077, 1.154572,-1.585225,-1.006219,1,-0.337592,-0.106442, 0.591493,1, 0.100119,-1.564306, 9.680563,1,0
1778259129968,   186.617,   186.612, 0.297991, 0.043495,-1.216801, 0.002799, 0.000329,-0.011985, 1.552119,-1.317611,-0.932971,1,-0.271273,-0.124800, 0.595260,1, 0.104526,-1.622476, 9.670938,1,0
1778259129990,   186.642,   186.637, 0.256645, 0.164966,-1.035261, 0.002549, 0.001391,-0.010580, 2.615972,-0.074171,-0.493360,1,-0.262770,-0.088550, 0.618483,1, 0.098540,-1.700214, 9.657637,1,0
1778259130016,   186.662,   186.662, 0.218870,-0.021162,-0.860626, 0.002369, 0.000054,-0.008365, 2.242378,-1.942336, 1.211645,1,-0.184802,-0.102775, 0.585207,1, 0.095923,-1.740661, 9.650455,1,0
1778259130038,   186.687,   186.682, 0.044819, 0.029537,-0.930811, 0.000471, 0.000418,-0.008884, 0.751416,-1.177154, 0.151876,1,-0.226080,-0.090017, 0.624452,1, 0.092298,-1.784845, 9.642416,1,0
1778259130061,   186.712,   186.707,-0.135678, 0.032507,-1.137106,-0.000990, 0.000102,-0.011604,-1.238898,-1.517527,-1.518451,1,-0.203595,-0.173018, 0.716010,1, 0.092773,-1.842768, 9.631510,1,0
1778259130086,   186.732,   186.732,-0.176585,-0.190570,-0.788672,-0.001957,-0.001567,-0.007443,-1.623901,-3.728350, 1.893903,1,-0.073079,-0.218733, 0.727534,1, 0.110201,-1.861983, 9.627630,1,0
1778259130108,   186.757,   186.752,-0.032108, 0.037371,-1.169232,-0.000250, 0.000444,-0.011778, 0.011192,-3.054127,-2.982482,1,-0.169351,-0.171592, 0.829914,1, 0.107885,-1.898741, 9.620474,1,0
1778259130131,   186.782,   186.777,-0.046853, 0.044296,-1.172424,-0.000331, 0.000513,-0.010984,-0.345555,-1.476445,-1.879547,1,-0.052665,-0.167227, 0.923610,1, 0.113420,-1.912783, 9.617629,1,0
1778259130156,   186.802,   186.802,-0.094320,-0.136012,-0.962866,-0.000860,-0.001142,-0.010068,-0.803686,-3.237972, 0.176752,1, 0.129437,-0.248719, 0.968198,1, 0.123026,-1.900559, 9.619934,1,0
1778259130178,   186.827,   186.822,-0.118213,-0.193957,-0.856367,-0.001114,-0.001913,-0.007970,-1.418593,-4.368576, 0.267488,1, 0.196644,-0.290092, 1.076258,1, 0.134273,-1.871195, 9.625538,1,0
1778259130205,   186.852,   186.852,-0.003151,-0.132882,-1.228673, 0.000242,-0.001287,-0.012279, 0.117334,-3.131151,-2.415546,1, 0.178335,-0.293531, 1.288973,1, 0.149735,-1.823165, 9.634523,1,0
1778259130226,   186.872,   186.872, 0.009475,-0.153496,-1.108250, 0.000266,-0.001388,-0.010825, 0.256469,-3.277769,-1.224479,1, 0.362520,-0.312183, 1.403190,1, 0.165207,-1.762087, 9.645628,1,0
1778259130248,   186.897,   186.892, 0.266256, 0.124167,-1.316308, 0.002801, 0.001315,-0.012540, 2.697712,-0.830949,-1.955696,1, 0.310584,-0.213976, 1.383004,1, 0.164038,-1.710392, 9.654949,1,0
1778259130275,   186.922,   186.922, 0.346320, 0.152115,-1.017405, 0.002933, 0.001437,-0.010868, 3.561360,-0.140405,-0.308875,1, 0.377341,-0.185083, 1.205695,1, 0.164548,-1.621166, 9.670322,1,0
1778259130297,   186.947,   186.942, 0.429059, 0.247492,-1.123863, 0.004049, 0.002569,-0.011743, 3.342736, 0.186868,-2.317041,1, 0.233294,-0.129203, 1.158709,1, 0.159104,-1.564194, 9.679791,1,0
1778259130318,   186.967,   186.962, 0.215955, 0.083189,-1.190082, 0.002973, 0.001257,-0.011482, 3.334339, 0.121928,-2.015572,1, 0.321151,-0.081184, 1.078753,1, 0.146616,-1.508024, 9.688898,1,0
1778259130345,   186.992,   186.992, 0.025228, 0.013215,-0.513558, 0.000360, 0.000319,-0.005589, 0.366961,-1.302245, 4.664529,1, 0.372990,-0.061840, 1.008920,1, 0.116864,-1.420707, 9.702491,1,0
1778259130367,   187.017,   187.012,-0.110288,-0.080035,-0.964829,-0.000865,-0.000373,-0.008413,-1.046762,-1.754643, 3.996656,1, 0.096819,-0.051613, 0.998877,1, 0.102106,-1.390051, 9.707096,1,0
1778259130388,   187.037,   187.032,-0.088351,-0.299753,-1.193360,-0.000779,-0.002906,-0.012278,-0.674262,-3.018052,-1.288564,1,-0.046268,-0.183993, 1.006870,1, 0.098125,-1.398709, 9.705894,1,0
1778259130415,   187.062,   187.062,-0.237378,-0.105542,-0.986264,-0.002293,-0.001206,-0.009875,-2.219447,-2.467489, 0.028904,1,-0.217488,-0.144326, 1.127569,1, 0.107754,-1.439582, 9.699813,1,0
1778259130437,   187.087,   187.082,-0.218076, 0.060567,-0.686912,-0.001614, 0.000588,-0.007058,-1.537360,-1.611163,-0.371076,1,-0.263309,-0.251394, 1.166401,1, 0.111245,-1.501871, 9.690325,1,0
1778259130458,   187.107,   187.102,-0.114233,-0.158014,-1.079144,-0.000976,-0.001778,-0.010351,-0.323361,-2.219880, 2.804637,1,-0.325921,-0.260023, 1.129769,1, 0.131810,-1.559044, 9.681033,1,0
1778259130485,   187.132,   187.132, 0.006094,-0.005308,-1.327944,-0.000233,-0.000186,-0.013722, 0.201174,-1.716658,-3.359389,1,-0.310543,-0.231192, 1.120423,1, 0.142589,-1.674663, 9.661551,1,0
1778259130507,   187.157,   187.152,-0.119427, 0.128846,-0.774166,-0.001159, 0.001270,-0.007765,-0.141937,-0.516722, 1.023647,1,-0.169758,-0.228693, 1.082252,1, 0.150846,-1.718906, 9.653651,1,0
1778259130528,   187.177,   187.172,-0.007894, 0.100014,-0.810126,-0.000620, 0.000703,-0.008518,-0.092747,-1.357498, 1.935971,1,-0.117505,-0.244269, 1.112743,1, 0.159193,-1.749348, 9.648047,1,0
1778259130555,   187.202,   187.202, 0.082433, 0.106677,-1.197836, 0.001009, 0.001229,-0.011802, 0.971018,-0.738577,-2.105249,1,-0.083372,-0.243642, 1.120165,1, 0.163740,-1.787862, 9.640909,1,0
1778259130577,   187.227,   187.222, 0.143844, 0.107872,-0.960425, 0.001126, 0.001132,-0.009778, 0.266298,-0.325961,-0.880977,1, 0.030283,-0.229384, 1.084467,1, 0.173529,-1.787865, 9.640738,1,0
1778259130598,   187.247,   187.242, 0.037513, 0.181642,-0.913088, 0.000656, 0.001915,-0.008561, 0.680765,-0.541100, 0.812538,1, 0.165300,-0.203967, 1.082060,1, 0.176504,-1.767213, 9.644490,1,0
1778259130625,   187.272,   187.272, 0.033096, 0.085286,-1.037181, 0.000432, 0.000895,-0.010435, 0.497719,-0.891861,-0.519665,1, 0.239762,-0.201479, 1.056882,1, 0.173527,-1.721449, 9.652818,1,0
1778259130647,   187.297,   187.292,-0.011646,-0.006896,-1.030917, 0.000327, 0.000011,-0.010751, 0.609701,-1.428204,-1.221743,1, 0.205091,-0.166634, 1.008064,1, 0.173326,-1.683755, 9.659468,1,0
1778259130669,   187.317,   187.312,-0.056718, 0.081516,-0.826605,-0.000741, 0.000963,-0.008463, 0.315065,-1.462826, 1.280250,1, 0.276971,-0.203743, 1.043348,1, 0.174838,-1.636762, 9.667514,1,0
1778259130695,   187.342,   187.342,-0.037427, 0.026216,-0.997258,-0.000538,-0.000118,-0.009919,-0.189170,-1.320265,-0.102433,1, 0.242047,-0.185010, 1.030865,1, 0.178380,-1.570418, 9.678448,1,0
1778259130717,   187.367,   187.362,-0.045254,-0.002605,-1.010062,-0.000603,-0.000325,-0.010670,-0.088299,-1.406894,-1.542546,1, 0.232510,-0.192488, 1.001971,1, 0.183761,-1.533767, 9.684223,1,0
1778259130740,   187.387,   187.387, 0.039739, 0.100180,-0.953349, 0.000483, 0.000933,-0.009675, 0.572915,-0.497199, 0.343495,1, 0.192094,-0.132287, 0.982263,1, 0.182662,-1.474273, 9.693480,1,0
1778259130766,   187.412,   187.412,-0.061069, 0.135370,-0.909789,-0.000026, 0.001558,-0.008068,-0.411465,-0.111890, 0.776640,1, 0.204487,-0.181780, 0.953061,1, 0.188660,-1.433669, 9.699452,1,0
1778259130787,   187.437,   187.432, 0.018970, 0.081345,-1.187285, 0.000287, 0.000635,-0.011503, 0.105906,-1.530231,-0.987575,1, 0.204482,-0.153372, 0.918716,1, 0.191707,-1.397256, 9.704705,1,0
1778259130810,   187.457,   187.452,-0.011385, 0.021516,-1.176659, 0.000505, 0.000395,-0.011684, 0.611273,-0.620313,-2.283487,1, 0.195737,-0.164676, 0.894726,1, 0.195956,-1.367265, 9.708892,1,0
1778259130836,   187.482,   187.482, 0.058682, 0.094850,-0.918469, 0.000310, 0.000976,-0.009583, 0.777884,-0.385597, 0.708764,1, 0.205263,-0.117102, 0.846336,1, 0.202480,-1.309952, 9.716657,1,0
1778259130857,   187.507,   187.502, 0.033854, 0.120381,-0.818049, 0.000002, 0.001081,-0.008511, 0.634461,-0.617332, 2.972600,1, 0.278696,-0.166548, 0.845216,1, 0.211564,-1.259833, 9.723088,1,0
1778259130880,   187.527,   187.527, 0.019051,-0.044979,-1.205473, 0.000040,-0.000318,-0.012073, 0.406254,-1.651109,-2.092419,1, 0.275747,-0.162480, 0.814418,1, 0.221323,-1.202049, 9.730184,1,0
1778259130906,   187.552,   187.552, 0.108273, 0.031919,-1.138508, 0.000692, 0.000435,-0.011062, 1.285545,-0.852038,-1.430325,1, 0.223527,-0.082986, 0.785569,1, 0.223412,-1.158688, 9.735394,1,0
1778259130927,   187.577,   187.572, 0.013751, 0.046390,-0.898348, 0.000094, 0.000612,-0.008876, 0.639760,-0.702709, 0.165832,1, 0.283391,-0.119759, 0.801214,1, 0.229255,-1.105605, 9.741430,1,0
1778259130950,   187.597,   187.597, 0.062718,-0.022943,-0.959149, 0.000537,-0.000400,-0.009735, 0.848648,-1.265263, 0.342473,1, 0.274855,-0.121909, 0.780776,1, 0.234792,-1.032317, 9.749337,1,0
1778259130976,   187.622,   187.622, 0.025746,-0.009989,-1.065503, 0.000271, 0.000172,-0.010287, 0.494487,-1.097119,-0.696404,1, 0.198245,-0.114703, 0.738170,1, 0.243219,-0.993572, 9.753156,1,0
1778259130997,   187.647,   187.642, 0.030262, 0.023048,-0.973425, 0.000180, 0.000371,-0.009464, 0.376830,-0.886728, 0.100266,1, 0.217080,-0.120386, 0.756160,1, 0.254722,-0.951770, 9.757030,1,0
1778259131020,   187.667,   187.667, 0.094515, 0.004070,-1.020126, 0.000859,-0.000089,-0.010100, 1.187198,-0.866930,-0.242864,1, 0.189115,-0.100637, 0.720359,1, 0.261370,-0.901560, 9.761621,1,0
1778259131046,   187.692,   187.692, 0.091183, 0.028733,-1.047014, 0.000773, 0.000326,-0.010710, 0.811044,-0.250893,-0.204663,1, 0.180479,-0.087969, 0.710566,1, 0.262878,-0.887476, 9.762872,1,0
1778259131067,   187.717,   187.712, 0.023393, 0.036723,-0.928130, 0.000104, 0.000472,-0.009176, 0.866483,-0.304576, 0.342198,1, 0.184941,-0.055387, 0.697702,1, 0.263535,-0.841479, 9.766926,1,0
1778259131090,   187.742,   187.737, 0.005401,-0.042211,-0.900145,-0.000125,-0.000549,-0.009165, 0.315156,-1.213787, 0.943054,1, 0.186999,-0.064114, 0.674763,1, 0.262133,-0.794757, 9.770877,1,0
1778259131116,   187.762,   187.762,-0.022729, 0.035641,-1.090693,-0.000354, 0.000301,-0.010628, 0.034874,-0.420750,-0.923091,1, 0.143280, 0.003647, 0.659797,1, 0.256040,-0.766353, 9.773307,1,0
1778259131138,   187.787,   187.782,-0.095611, 0.079002,-1.023515,-0.000946, 0.000932,-0.010349,-0.087368,-0.599353,-1.234895,1, 0.165594,-0.042959, 0.660664,1, 0.251895,-0.737806, 9.775611,1,0
