Time,GPS_ts,fGPS_ts,scaledAccelX,scaledAccelY,scaledAccelZ,deltaVelX,deltaVelY,deltaVelZ,estLinearAccelX,estLinearAccelY,estLinearAccelZ,estLinearAccel:valid,estAngularRateX,estAngularRateY,estAngularRateZ,estAngularRate:valid,estGravityX,estGravityY,estGravityZ,estGravity:valid,flag
1778778087583,  2714.335,  2714.335, 0.003602, 0.136106,-0.980587, 0.000038, 0.001349,-0.009824,-0.013305, 0.032163, 0.103366,1,-0.008874, 0.006420,-0.000977,1,-0.048820,-1.302852, 9.719598,1,0
1778778087583,  2714.360,  2714.355, 0.005185, 0.127549,-1.001090, 0.000045, 0.001282,-0.009998,-0.016591, 0.004278, 0.040451,1, 0.005039,-0.005238, 0.000318,1,-0.048606,-1.302538, 9.719641,1,0
1778778087584,  2714.375,  2714.380, 0.005472, 0.129286,-0.997712, 0.000051, 0.001280,-0.009999,-0.004968, 0.039135, 0.099598,1,-0.006636, 0.007005, 0.000018,1,-0.049031,-1.303164, 9.719555,1,0
1778778087584,  2714.405,  2714.405, 0.002558, 0.133353,-0.986090, 0.000023, 0.001342,-0.009834,-0.023943, 0.004878, 0.049353,1, 0.004885,-0.002805, 0.000504,1,-0.048948,-1.302720, 9.719615,1,0
1778778087584,  2714.430,  2714.425, 0.008760, 0.138564,-0.981973, 0.000091, 0.001375,-0.009840, 0.043886,-0.022931,-0.050865,1,-0.006139, 0.006004,-0.000398,1,-0.049270,-1.302938, 9.719584,1,0
1778778087584,  2714.455,  2714.455, 0.002803, 0.134392,-0.986717, 0.000028, 0.001348,-0.009843,-0.022009, 0.015106, 0.043206,1, 0.006628,-0.005591, 0.000587,1,-0.049321,-1.302624, 9.719625,1,0
1778778087584,  2714.480,  2714.475, 0.007751, 0.139927,-0.979792, 0.000086, 0.001384,-0.009817, 0.036492,-0.016386,-0.035473,1,-0.004305, 0.003554,-0.000436,1,-0.049280,-1.302605, 9.719628,1,0
1778778087584,  2714.505,  2714.500, 0.001581, 0.132853,-0.985770, 0.000013, 0.001341,-0.009826,-0.033821, 0.000509, 0.052561,1, 0.012104,-0.008561, 0.000163,1,-0.049050,-1.301988, 9.719712,1,0
1778778087584,  2714.530,  2714.525, 0.006064, 0.133704,-0.978799, 0.000064, 0.001325,-0.009817, 0.006594,-0.062205,-0.081684,1,-0.005110, 0.003555,-0.000665,1,-0.048598,-1.301434, 9.719789,1,0
1778778087584,  2714.550,  2714.545, 0.002736, 0.128428,-0.980748, 0.000021, 0.001298,-0.009775,-0.014861, 0.029812, 0.226950,1,-0.001565, 0.001229,-0.000008,1,-0.049580,-1.302667, 9.719619,1,0
1778778087584,  2714.570,  2714.565, 0.006763, 0.123851,-0.996204, 0.000062, 0.001227,-0.009988,-0.008569,-0.106606,-0.075570,1, 0.002978,-0.004925,-0.000332,1,-0.048348,-1.301576, 9.719771,1,0
1778778087596,  2781.355,  2781.355, 0.005091, 0.126859,-1.000376, 0.000046, 0.001270,-0.010002,-0.004659,-0.064208,-0.091503,1, 0.000369,-0.001041,-0.000140,1,-0.054552,-1.308255, 9.718842,1,0
1778778087617,  2781.380,  2781.375, 0.004479, 0.135526,-0.981387, 0.000037, 0.001359,-0.009795,-0.004865, 0.026227, 0.119124,1,-0.000546, 0.003523, 0.000203,1,-0.055246,-1.308757, 9.718770,1,0
1778778087639,  2781.400,  2781.395, 0.009926, 0.125341,-0.996887, 0.000095, 0.001256,-0.009971, 0.013309,-0.045712,-0.021026,1, 0.005606,-0.002539, 0.000904,1,-0.054862,-1.307760, 9.718906,1,0
1778778087666,  2781.425,  2781.425, 0.002399, 0.134591,-0.973901, 0.000031, 0.001353,-0.009736,-0.032237, 0.010810, 0.168015,1,-0.003595, 0.004031, 0.000344,1,-0.055887,-1.309188, 9.718708,1,0
1778778087687,  2781.450,  2781.445, 0.008917, 0.128229,-1.003232, 0.000085, 0.001280,-0.010036,-0.020446,-0.038735,-0.049129,1, 0.004098,-0.007039, 0.000277,1,-0.054951,-1.308512, 9.718804,1,0
1778778087710,  2781.470,  2781.470, 0.006311, 0.138682,-0.975236, 0.000078, 0.001390,-0.009761, 0.006365, 0.050174, 0.154821,1,-0.002459, 0.003818, 0.000288,1,-0.055648,-1.309906, 9.718613,1,0
1778778087736,  2781.495,  2781.495, 0.003995, 0.128841,-0.990723, 0.000038, 0.001292,-0.009889,-0.015884,-0.045090, 0.003121,1, 0.009864,-0.006642, 0.000257,1,-0.054853,-1.308279, 9.718837,1,0
1778778087758,  2781.520,  2781.515, 0.002026, 0.137422,-0.977445, 0.000023, 0.001375,-0.009786,-0.007092, 0.011555,-0.001540,1,-0.005369, 0.004999,-0.000553,1,-0.054952,-1.308231, 9.718843,1,0
1778778087780,  2781.540,  2781.540, 0.008677, 0.130371,-0.995586, 0.000073, 0.001306,-0.009943, 0.029932,-0.029941,-0.044553,1, 0.002829,-0.003696, 0.000354,1,-0.055044,-1.308352, 9.718825,1,0
1778778087806,  2781.565,  2781.565, 0.009939, 0.136054,-0.983530, 0.000105, 0.001349,-0.009862, 0.042154, 0.025344, 0.073618,1,-0.006016, 0.005589,-0.000187,1,-0.055484,-1.309077, 9.718725,1,0
1778778087828,  2781.590,  2781.585, 0.004717, 0.128532,-0.995673, 0.000041, 0.001292,-0.009939,-0.043019, 0.003505, 0.109668,1, 0.004496,-0.002189, 0.000503,1,-0.055631,-1.308895, 9.718749,1,0
1778778087850,  2781.610,  2781.610, 0.009220, 0.136539,-0.986476, 0.000095, 0.001359,-0.009894, 0.034955, 0.029932, 0.044705,1,-0.007722, 0.005547,-0.000405,1,-0.055637,-1.309294, 9.718696,1,0
1778778087876,  2781.635,  2781.635, 0.002386, 0.133922,-0.983410, 0.000025, 0.001355,-0.009807,-0.032110, 0.004348, 0.074778,1, 0.007701,-0.006517, 0.000396,1,-0.055310,-1.308738, 9.718772,1,0
1778778087898,  2781.660,  2781.655, 0.009540, 0.136214,-0.983042, 0.000099, 0.001351,-0.009859, 0.020414,-0.052866,-0.074470,1,-0.004824, 0.002321,-0.000324,1,-0.054869,-1.308414, 9.718818,1,0
1778778087921,  2781.680,  2781.680, 0.002094, 0.133325,-0.982389, 0.000023, 0.001350,-0.009796,-0.035241,-0.001239, 0.084828,1, 0.007597,-0.003594, 0.000358,1,-0.055667,-1.308473, 9.718805,1,0
1778778087946,  2781.705,  2781.705, 0.005081, 0.127524,-1.003068, 0.000048, 0.001270,-0.010038,-0.005029,-0.057176,-0.117833,1,-0.002573,-0.001213,-0.000952,1,-0.054814,-1.307835, 9.718896,1,0
1778778087968,  2781.730,  2781.725, 0.004831, 0.133606,-0.983835, 0.000041, 0.001349,-0.009804,-0.019693, 0.037214, 0.164495,1,-0.002034, 0.003265,-0.000238,1,-0.055805,-1.309020, 9.718731,1,0
1778778087991,  2781.750,  2781.750, 0.009881, 0.127650,-0.996688, 0.000098, 0.001274,-0.009986, 0.041531,-0.056391,-0.055323,1,-0.003676, 0.003063,-0.000531,1,-0.055464,-1.308321, 9.718827,1,0
1778778088016,  2781.775,  2781.775, 0.003630, 0.137023,-0.971807, 0.000043, 0.001370,-0.009714,-0.020588, 0.034691, 0.188554,1, 0.000068, 0.002101,-0.000166,1,-0.056251,-1.309042, 9.718726,1,0
1778778088038,  2781.800,  2781.795, 0.007821, 0.128491,-0.997725, 0.000078, 0.001281,-0.009997,-0.009026,-0.041589,-0.059599,1, 0.002948,-0.002333, 0.000747,1,-0.055767,-1.308243, 9.718836,1,0
1778778088061,  2781.825,  2781.820, 0.006896, 0.137627,-0.977820, 0.000076, 0.001374,-0.009781, 0.011158, 0.040630, 0.129591,1, 0.002281, 0.000296, 0.000010,1,-0.056480,-1.308959, 9.718736,1,0
1778778088086,  2781.845,  2781.845, 0.005428, 0.129305,-0.997684, 0.000050, 0.001294,-0.009970,-0.002801,-0.040130,-0.065096,1, 0.000507,-0.001094, 0.000086,1,-0.055994,-1.308161, 9.718845,1,0
1778778088108,  2781.870,  2781.865, 0.005287, 0.138172,-0.973908, 0.000060, 0.001383,-0.009735, 0.034004, 0.029820, 0.109655,1,-0.006396, 0.004652,-0.000306,1,-0.056712,-1.309344, 9.718682,1,0
1778778088131,  2781.895,  2781.890, 0.003775, 0.129382,-0.998475, 0.000030, 0.001296,-0.009963,-0.019102,-0.039505,-0.072868,1, 0.005945,-0.005665,-0.000165,1,-0.055944,-1.308125, 9.718851,1,0
1778778088157,  2781.915,  2781.915, 0.007840, 0.136435,-0.985118, 0.000080, 0.001355,-0.009877, 0.020720, 0.029439, 0.058089,1,-0.005245, 0.004266,-0.000293,1,-0.056298,-1.308696, 9.718772,1,0
1778778088178,  2781.940,  2781.935, 0.005978, 0.127177,-0.999568, 0.000058, 0.001275,-0.009978,-0.011566,-0.007581, 0.061924,1, 0.008434,-0.002604, 0.000449,1,-0.056370,-1.308019, 9.718863,1,0
1778778088201,  2781.965,  2781.960, 0.005450, 0.135448,-0.980237, 0.000062, 0.001349,-0.009823,-0.002956, 0.020184, 0.106004,1,-0.007154, 0.004572,-0.000255,1,-0.056544,-1.308331, 9.718820,1,0
1778778088227,  2781.985,  2781.985, 0.000791, 0.132571,-0.986166, 0.000012, 0.001338,-0.009842,-0.048611,-0.008093, 0.047860,1, 0.004655,-0.004131, 0.000321,1,-0.056238,-1.308030, 9.718862,1,0
1778778088248,  2782.010,  2782.005, 0.013567, 0.135142,-0.979510, 0.000140, 0.001347,-0.009818, 0.027547,-0.031463,-0.040816,1,-0.006233, 0.003839, 0.000099,1,-0.056059,-1.308524, 9.718797,1,0
1778778088271,  2782.035,  2782.030, 0.004507, 0.132213,-0.982705, 0.000049, 0.001335,-0.009804,-0.012437,-0.011738, 0.081775,1, 0.007937,-0.004169,-0.000469,1,-0.056503,-1.308057, 9.718857,1,0
1778778088297,  2782.055,  2782.055, 0.004877, 0.127774,-0.999211, 0.000043, 0.001276,-0.010003,-0.008388,-0.054664,-0.080003,1,-0.004173, 0.002166,-0.000167,1,-0.056282,-1.307826, 9.718889,1,0
1778778088318,  2782.080,  2782.075, 0.004502, 0.133179,-0.987259, 0.000042, 0.001345,-0.009840,-0.008866, 0.046283, 0.144928,1,-0.000005, 0.001219, 0.000999,1,-0.057125,-1.308794, 9.718754,1,0
1778778088341,  2782.105,  2782.100, 0.010355, 0.127801,-0.997488, 0.000098, 0.001273,-0.010000, 0.045502,-0.054460,-0.063114,1,-0.003718, 0.002623,-0.000513,1,-0.056121,-1.307874, 9.718884,1,0
1778778088367,  2782.125,  2782.125, 0.007654, 0.137460,-0.974025, 0.000084, 0.001375,-0.009738, 0.018291, 0.039451, 0.166861,1, 0.000684, 0.002640, 0.000126,1,-0.056853,-1.308547, 9.718789,1,0
1778778088388,  2782.150,  2782.145, 0.002622, 0.128146,-0.995318, 0.000026, 0.001278,-0.009969,-0.038885,-0.038155,-0.027965,1, 0.001025,-0.004980, 0.000277,1,-0.056183,-1.308053, 9.718860,1,0
1778778088415,  2782.175,  2782.175, 0.004213, 0.138256,-0.980092, 0.000048, 0.001378,-0.009804,-0.014909, 0.046968, 0.107329,1, 0.000830,-0.000397,-0.000735,1,-0.056209,-1.308835, 9.718754,1,0
1778778088437,  2782.195,  2782.195, 0.009369, 0.131320,-0.994921, 0.000088, 0.001314,-0.009947, 0.035852,-0.020869,-0.038064,1,-0.000886, 0.000288,-0.000184,1,-0.056031,-1.308702, 9.718773,1,0
1778778088458,  2782.220,  2782.215, 0.002668, 0.137421,-0.973890, 0.000039, 0.001372,-0.009734, 0.042262, 0.019348, 0.129931,1,-0.001359, 0.003152,-0.000515,1,-0.056636,-1.309374, 9.718678,1,0
1778778088485,  2782.245,  2782.245,-0.002554, 0.128334,-1.000382,-0.000034, 0.001287,-0.009984,-0.080752,-0.048911,-0.091453,1, 0.003388,-0.005922,-0.000169,1,-0.055519,-1.307338, 9.718959,1,0
1778778088507,  2782.270,  2782.265, 0.010801, 0.139254,-0.976949, 0.000110, 0.001389,-0.009778, 0.057836, 0.025758, 0.031921,1,-0.008668, 0.006312,-0.000333,1,-0.056241,-1.308780, 9.718761,1,0
1778778088529,  2782.290,  2782.285, 0.005726, 0.128572,-0.993359, 0.000056, 0.001290,-0.009915, 0.016438, 0.015355, 0.110513,1, 0.005047,-0.002092,-0.000090,1,-0.056551,-1.308835, 9.718752,1,0
1778778088556,  2782.315,  2782.315, 0.005097, 0.134773,-0.980927, 0.000057, 0.001338,-0.009831,-0.006659, 0.012949, 0.099162,1,-0.003321, 0.005914,-0.000198,1,-0.056827,-1.308823, 9.718752,1,0
1778778088577,  2782.340,  2782.335, 0.006334, 0.128922,-1.002509, 0.000057, 0.001293,-0.010019,-0.041931, 0.000371, 0.032834,1, 0.006414,-0.004021, 0.000166,1,-0.056607,-1.308169, 9.718842,1,0
1778778088599,  2782.360,  2782.355, 0.012599, 0.135660,-0.982056, 0.000134, 0.001347,-0.009855, 0.050820,-0.055006,-0.097051,1,-0.004775, 0.001196, 0.000071,1,-0.056078,-1.308272, 9.718830,1,0
1778778088626,  2782.385,  2782.385, 0.002940, 0.133806,-0.976507, 0.000036, 0.001354,-0.009740,-0.027951, 0.003677, 0.142536,1, 0.007680,-0.002377,-0.000179,1,-0.056707,-1.308273, 9.718826,1,0
1778778088647,  2782.410,  2782.405, 0.007956, 0.134898,-0.984324, 0.000078, 0.001333,-0.009869,-0.003199,-0.066000,-0.083640,1,-0.003972, 0.002275, 0.000457,1,-0.056507,-1.308010, 9.718863,1,0
1778778088669,  2782.430,  2782.425, 0.004048, 0.134041,-0.988110, 0.000037, 0.001347,-0.009855,-0.002141, 0.051776, 0.133567,1, 0.002746,-0.002436,-0.000062,1,-0.056764,-1.308457, 9.718801,1,0
1778778088696,  2782.455,  2782.455, 0.009909, 0.128342,-0.994881, 0.000094, 0.001278,-0.009968, 0.041387,-0.049547,-0.037605,1,-0.007330, 0.002962,-0.000525,1,-0.055872,-1.308376, 9.718818,1,0
1778778088717,  2782.480,  2782.475, 0.002260, 0.134655,-0.981646, 0.000030, 0.001359,-0.009789, 0.018065, 0.045482, 0.193449,1, 0.000226, 0.002571, 0.000020,1,-0.056680,-1.309087, 9.718718,1,0
1778778088739,  2782.500,  2782.495, 0.002705, 0.126952,-1.002599, 0.000021, 0.001267,-0.010042,-0.051818,-0.043116,-0.079416,1, 0.006359,-0.006230,-0.000372,1,-0.055675,-1.307598, 9.718924,1,0
1778778088766,  2782.525,  2782.525, 0.006144, 0.138259,-0.976981, 0.000062, 0.001381,-0.009767, 0.004124, 0.047443, 0.137903,1,-0.000904, 0.001566, 0.000235,1,-0.056179,-1.308440, 9.718807,1,0
1778778088787,  2782.550,  2782.545, 0.010299, 0.128283,-0.992416, 0.000107, 0.001279,-0.009942, 0.037664,-0.044344,-0.017656,1, 0.000263,-0.000881, 0.000700,1,-0.055907,-1.308076, 9.718858,1,0
1778778088809,  2782.570,  2782.565, 0.001137, 0.138289,-0.980026, 0.000017, 0.001383,-0.009792,-0.006746, 0.020109, 0.094812,1,-0.001587, 0.001618,-0.000257,1,-0.056235,-1.308409, 9.718811,1,0
1778778088836,  2782.595,  2782.595, 0.003300, 0.130516,-0.998624, 0.000024, 0.001305,-0.009982,-0.023404,-0.027796,-0.074253,1,-0.001742,-0.002452, 0.000267,1,-0.055686,-1.307779, 9.718899,1,0
1778778088858,  2782.620,  2782.615, 0.010059, 0.136389,-0.977069, 0.000105, 0.001364,-0.009770, 0.063105, 0.015489, 0.066720,1,-0.002596, 0.002223,-0.000215,1,-0.055976,-1.308590, 9.718788,1,0
1778778088879,  2782.640,  2782.635, 0.005192, 0.128756,-0.991780, 0.000052, 0.001293,-0.009908, 0.007014, 0.001134, 0.087390,1, 0.004114,-0.000766, 0.000662,1,-0.055977,-1.307961, 9.718873,1,0
1778778088906,  2782.665,  2782.665, 0.005540, 0.135706,-0.982152, 0.000062, 0.001349,-0.009837,-0.001925, 0.022462, 0.087200,1,-0.003756, 0.002670, 0.000273,1,-0.056335,-1.308479, 9.718801,1,0
1778778088928,  2782.690,  2782.685, 0.003844, 0.127676,-1.003255, 0.000032, 0.001282,-0.010020,-0.060453, 0.001113, 0.024531,1, 0.005634,-0.005075, 0.000216,1,-0.055912,-1.307865, 9.718886,1,0
1778778088950,  2782.710,  2782.710, 0.011623, 0.137086,-0.980831, 0.000126, 0.001362,-0.009837, 0.058236, 0.035996, 0.100150,1,-0.006211, 0.005561,-0.000059,1,-0.055920,-1.308555, 9.718793,1,0
1778778088976,  2782.735,  2782.735, 0.003316, 0.134288,-0.979855, 0.000041, 0.001349,-0.009776,-0.023661, 0.008478, 0.109716,1, 0.004534,-0.001881,-0.000074,1,-0.056120,-1.308296, 9.718827,1,0
1778778088998,  2782.760,  2782.755, 0.007531, 0.134514,-0.982765, 0.000073, 0.001335,-0.009851,-0.015993,-0.064072,-0.059684,1,-0.003118, 0.000810,-0.000819,1,-0.055592,-1.308096, 9.718857,1,0
1778778089020,  2782.780,  2782.780, 0.006905, 0.133456,-0.988531, 0.000066, 0.001346,-0.009861, 0.011939, 0.000844, 0.024708,1, 0.004566,-0.004373, 0.000393,1,-0.055643,-1.307767, 9.718901,1,0
1778778089046,  2782.805,  2782.805, 0.011300, 0.129030,-0.994148, 0.000110, 0.001288,-0.009968, 0.055298,-0.042879,-0.030426,1,-0.007508, 0.002982, 0.000268,1,-0.055611,-1.308459, 9.718808,1,0
1778778089068,  2782.830,  2782.825,-0.001141, 0.134573,-0.984872,-0.000005, 0.001357,-0.009824,-0.019334, 0.041592, 0.177616,1, 0.003613, 0.000869, 0.000048,1,-0.056224,-1.308818, 9.718756,1,0
1778778089091,  2782.850,  2782.850, 0.004942, 0.126584,-1.005449, 0.000036, 0.001262,-0.010072,-0.006531,-0.066056,-0.141134,1,-0.004342, 0.002629,-0.000348,1,-0.055072,-1.307555, 9.718932,1,0
1778778089116,  2782.875,  2782.875, 0.009660, 0.138365,-0.976867, 0.000101, 0.001383,-0.009769, 0.038873, 0.048414, 0.139013,1,-0.001944, 0.002935, 0.000682,1,-0.055956,-1.308545, 9.718795,1,0
1778778089138,  2782.900,  2782.895, 0.006239, 0.128066,-0.987633, 0.000066, 0.001277,-0.009894, 0.024007,-0.045673, 0.030902,1,-0.000085,-0.002833, 0.000077,1,-0.055639,-1.308337, 9.718824,1,0
1778778089161,  2782.920,  2782.920,-0.000737, 0.137913,-0.980508,-0.000006, 0.001380,-0.009789,-0.062851, 0.044048, 0.103312,1, 0.003305,-0.002036,-0.000337,1,-0.055559,-1.308317, 9.718827,1,0
1778778089186,  2782.945,  2782.945, 0.008660, 0.128570,-1.003276, 0.000075, 0.001289,-0.010027, 0.029701,-0.047111,-0.119902,1,-0.002273,-0.001080,-0.000126,1,-0.055187,-1.308019, 9.718869,1,0
1778778089208,  2782.970,  2782.965, 0.003598, 0.138758,-0.969922, 0.000043, 0.001386,-0.009707, 0.039042, 0.027953, 0.138729,1,-0.004831, 0.003720,-0.000405,1,-0.055730,-1.309231, 9.718703,1,0
1778778089231,  2782.990,  2782.990, 0.001244, 0.127429,-0.999204, 0.000005, 0.001279,-0.009969,-0.043142,-0.058255,-0.079965,1, 0.004965,-0.002469, 0.000193,1,-0.055270,-1.307752, 9.718904,1,0
1778778089256,  2783.015,  2783.015, 0.010458, 0.136928,-0.985871, 0.000103, 0.001359,-0.009880, 0.046549, 0.034568, 0.050746,1,-0.003259, 0.005434,-0.000026,1,-0.056172,-1.308341, 9.718821,1,0
1778778089278,  2783.040,  2783.035, 0.007784, 0.127706,-0.995902, 0.000077, 0.001283,-0.009967,-0.002097,-0.014521, 0.004656,1, 0.003338,-0.003705, 0.000243,1,-0.055773,-1.307680, 9.718912,1,0
1778778089301,  2783.065,  2783.060, 0.005707, 0.136726,-0.974554, 0.000067, 0.001363,-0.009756,-0.000121, 0.032038, 0.161648,1,-0.002779, 0.003413, 0.000252,1,-0.056197,-1.308873, 9.718749,1,0
1778778089327,  2783.085,  2783.085, 0.002741, 0.132674,-0.991179, 0.000033, 0.001337,-0.009885,-0.029161,-0.007053,-0.001302,1, 0.006413,-0.005801,-0.000065,1,-0.055858,-1.307943, 9.718876,1,0
1778778089348,  2783.110,  2783.105, 0.008997, 0.136491,-0.980943, 0.000093, 0.001363,-0.009833, 0.020166,-0.028921,-0.088259,1,-0.006052, 0.001882,-0.000567,1,-0.055347,-1.308092, 9.718859,1,0
1778778089371,  2783.135,  2783.130, 0.007183, 0.133374,-0.977609, 0.000071, 0.001346,-0.009755, 0.014329,-0.000796, 0.131700,1, 0.003850,-0.001664, 0.000655,1,-0.056064,-1.308625, 9.718783,1,0
1778778089397,  2783.155,  2783.155, 0.005583, 0.128793,-0.992097, 0.000054, 0.001281,-0.009932,-0.001143,-0.045297,-0.010326,1,-0.000815, 0.001256,-0.000469,1,-0.055934,-1.308349, 9.718821,1,0
1778778089418,  2783.180,  2783.175, 0.002822, 0.133260,-0.994128, 0.000018, 0.001341,-0.009930,-0.053923, 0.039537, 0.066567,1, 0.003721,-0.002127,-0.000525,1,-0.055891,-1.308140, 9.718849,1,0
1778778089441,  2783.205,  2783.200, 0.014136, 0.130465,-0.986133, 0.000139, 0.001297,-0.009888, 0.082844,-0.029284, 0.048114,1,-0.005948, 0.004294, 0.000045,1,-0.055911,-1.308889, 9.718748,1,0
1778778089467,  2783.225,  2783.225, 0.002740, 0.136441,-0.974501, 0.000039, 0.001372,-0.009732,-0.029291, 0.029339, 0.162179,1, 0.007428,-0.002205,-0.000609,1,-0.056093,-1.308457, 9.718805,1,0
1778778089488,  2783.250,  2783.245, 0.006510, 0.130185,-0.997603, 0.000061, 0.001286,-0.010005,-0.052552,-0.062892,-0.117992,1, 0.001604,-0.001767, 0.000052,1,-0.055306,-1.307292, 9.718966,1,0
1778778089511,  2783.275,  2783.270, 0.006674, 0.138716,-0.977728, 0.000070, 0.001387,-0.009769, 0.009363, 0.051820, 0.130557,1, 0.001220,-0.001870, 0.000547,1,-0.056027,-1.308481, 9.718802,1,0
1778778089537,  2783.295,  2783.295, 0.006564, 0.127370,-0.997632, 0.000066, 0.001272,-0.009972, 0.009118,-0.058889,-0.064551,1, 0.000107,-0.002445,-0.000279,1,-0.055179,-1.307960, 9.718878,1,0
1778778089558,  2783.320,  2783.315, 0.003541, 0.138266,-0.978424, 0.000037, 0.001386,-0.009768, 0.003502, 0.039681, 0.136034,1,-0.001348, 0.004702, 0.000183,1,-0.056118,-1.308583, 9.718788,1,0
1778778089581,  2783.345,  2783.340, 0.007002, 0.126802,-1.001306, 0.000063, 0.001274,-0.010010, 0.013044,-0.064185,-0.100551,1,-0.000903,-0.001687,-0.000561,1,-0.055567,-1.307716, 9.718908,1,0
1778778089607,  2783.365,  2783.365, 0.007482, 0.135938,-0.977177, 0.000073, 0.001359,-0.009781, 0.017467, 0.024808, 0.135993,1,-0.001642, 0.002077,-0.000272,1,-0.055968,-1.308337, 9.718822,1,0
1778778089629,  2783.390,  2783.385, 0.006594, 0.127759,-0.997440, 0.000063, 0.001283,-0.009975,-0.008421,-0.019901, 0.012469,1, 0.002622,-0.002523,-0.000138,1,-0.055677,-1.307632, 9.718919,1,0
1778778089656,  2783.415,  2783.415, 0.007546, 0.136556,-0.981438, 0.000086, 0.001363,-0.009818, 0.017796, 0.030903, 0.094209,1, 0.000560, 0.001471,-0.000618,1,-0.056247,-1.308237, 9.718834,1,0
1778778089677,  2783.435,  2783.435, 0.001799, 0.130595,-0.990324, 0.000020, 0.001310,-0.009892,-0.038071,-0.026754, 0.007179,1, 0.002560,-0.004813, 0.000565,1,-0.055568,-1.307378, 9.718953,1,0
1778778089699,  2783.460,  2783.455, 0.007237, 0.136936,-0.978014, 0.000075, 0.001370,-0.009789, 0.010940,-0.020969, 0.018149,1,-0.006608, 0.003157,-0.000007,1,-0.055628,-1.308256, 9.718835,1,0
1778778089726,  2783.485,  2783.485, 0.004816, 0.131872,-0.990950, 0.000043, 0.001328,-0.009880,-0.008633,-0.014881, 0.000952,1, 0.004649,-0.004489,-0.000034,1,-0.055727,-1.307961, 9.718874,1,0
1778778089747,  2783.510,  2783.505, 0.006769, 0.136718,-0.977221, 0.000071, 0.001366,-0.009784, 0.029726,-0.016818,-0.014654,1,-0.004683, 0.003123,-0.000182,1,-0.055658,-1.308148, 9.718849,1,0
1778778089769,  2783.530,  2783.525, 0.003901, 0.131088,-0.989271, 0.000033, 0.001323,-0.009866,-0.024820, 0.037465, 0.154855,1, 0.002746,-0.000038, 0.000341,1,-0.056029,-1.308346, 9.718821,1,0
1778778089796,  2783.555,  2783.555, 0.010257, 0.130994,-0.991673, 0.000098, 0.001300,-0.009940, 0.044944,-0.023458,-0.006134,1,-0.003259, 0.002640,-0.000777,1,-0.055719,-1.308175, 9.718845,1,0
1778778089817,  2783.580,  2783.575, 0.003694, 0.131165,-0.991914, 0.000033, 0.001320,-0.009900,-0.018986, 0.036198, 0.096001,1, 0.004638,-0.001542,-0.000225,1,-0.055645,-1.307940, 9.718878,1,0
1778778089839,  2783.600,  2783.595, 0.009090, 0.130334,-0.988555, 0.000091, 0.001292,-0.009911, 0.006034,-0.058790,-0.077095,1,-0.003057, 0.000727, 0.000521,1,-0.055362,-1.307810, 9.718897,1,0
1778778089866,  2783.625,  2783.625, 0.003525, 0.136820,-0.979193, 0.000043, 0.001378,-0.009775,-0.021355, 0.033554, 0.116242,1, 0.006774,-0.002261,-0.000036,1,-0.055856,-1.307979, 9.718871,1,0
1778778089887,  2783.650,  2783.645, 0.009320, 0.132023,-0.993312, 0.000087, 0.001306,-0.009956,-0.014287,-0.049878,-0.101996,1,-0.002165,-0.001713,-0.000309,1,-0.055056,-1.307657, 9.718919,1,0
1778778089909,  2783.670,  2783.665, 0.005408, 0.137240,-0.976761, 0.000057, 0.001376,-0.009749, 0.037388, 0.039946, 0.124710,1,-0.002520, 0.003531, 0.000205,1,-0.055775,-1.308654, 9.718781,1,0
1778778089936,  2783.695,  2783.695, 0.005788, 0.127564,-0.996652, 0.000052, 0.001273,-0.009955, 0.001488,-0.056762,-0.054914,1, 0.003085,-0.002982,-0.000513,1,-0.055175,-1.307646, 9.718920,1,0
1778778089957,  2783.720,  2783.715, 0.001580, 0.137372,-0.977092, 0.000016, 0.001380,-0.009751,-0.004657, 0.038821, 0.113420,1,-0.002435, 0.003374,-0.000297,1,-0.055604,-1.308306, 9.718828,1,0
1778778089979,  2783.740,  2783.735, 0.011316, 0.125369,-1.000958, 0.000108, 0.001262,-0.010013,-0.009076,-0.016691,-0.007059,1, 0.004446,-0.003321, 0.000828,1,-0.055289,-1.307711, 9.718910,1,0
1778778090006,  2783.765,  2783.765, 0.006064, 0.137179,-0.975032, 0.000071, 0.001370,-0.009760, 0.003876, 0.036811, 0.157010,1,-0.001333, 0.002368,-0.000473,1,-0.055661,-1.308498, 9.718802,1,0
1778778090028,  2783.790,  2783.785, 0.003794, 0.128011,-1.000721, 0.000034, 0.001281,-0.010015,-0.042879,-0.022478,-0.017880,1, 0.002725,-0.003301, 0.001288,1,-0.055139,-1.307731, 9.718908,1,0
1778778090049,  2783.810,  2783.805, 0.007552, 0.136876,-0.979565, 0.000084, 0.001365,-0.009805, 0.027519,-0.021079, 0.004592,1,-0.005325, 0.004992, 0.000111,1,-0.055711,-1.308506, 9.718801,1,0
1778778090076,  2783.835,  2783.835, 0.004691, 0.130318,-0.993442, 0.000047, 0.001309,-0.009917,-0.009544,-0.029755,-0.023433,1, 0.003424,-0.003082,-0.000420,1,-0.055446,-1.307633, 9.718920,1,0
1778778090098,  2783.860,  2783.855, 0.006064, 0.137470,-0.975956, 0.000063, 0.001374,-0.009763, 0.031605,-0.007492, 0.033892,1,-0.007716, 0.005107,-0.000815,1,-0.055986,-1.308618, 9.718784,1,0
1778778090119,  2783.880,  2783.875, 0.003508, 0.131197,-0.993089, 0.000036, 0.001323,-0.009908,-0.020035, 0.043841, 0.128885,1, 0.003985,-0.001054, 0.000135,1,-0.056398,-1.308818, 9.718755,1,0
1778778090146,  2783.905,  2783.905, 0.009944, 0.131679,-0.990775, 0.000100, 0.001303,-0.009938, 0.041762,-0.016930, 0.002649,1,-0.005231, 0.003504,-0.000655,1,-0.055858,-1.308417, 9.718812,1,0
1778778090168,  2783.930,  2783.925, 0.005245, 0.130347,-0.988889, 0.000053, 0.001314,-0.009871,-0.010538, 0.026327, 0.131098,1, 0.001830,-0.000560, 0.000380,1,-0.056114,-1.308663, 9.718778,1,0
1778778090191,  2783.950,  2783.950, 0.005963, 0.133192,-0.985641, 0.000067, 0.001316,-0.009876, 0.002363,-0.002704, 0.052909,1,-0.002033, 0.001902,-0.000656,1,-0.056168,-1.308934, 9.718740,1,0
1778778090216,  2783.975,  2783.975, 0.000426, 0.135167,-0.985550, 0.000008, 0.001362,-0.009838,-0.051706, 0.017424, 0.053912,1, 0.006886,-0.003782,-0.000004,1,-0.055764,-1.307898, 9.718883,1,0
1778778090238,  2784.000,  2783.995, 0.011566, 0.133727,-0.983543, 0.000114, 0.001321,-0.009858, 0.025496,-0.044684,-0.064735,1,-0.007308, 0.002798,-0.000239,1,-0.055629,-1.308238, 9.718838,1,0
1778778090261,  2784.020,  2784.020, 0.005453, 0.135746,-0.977171, 0.000060, 0.001374,-0.009750,-0.002902, 0.022267, 0.135967,1, 0.008216,-0.003850,-0.000584,1,-0.056251,-1.308697, 9.718772,1,0
1778778090286,  2784.045,  2784.045, 0.004934, 0.126857,-0.999730, 0.000044, 0.001268,-0.010000,-0.006907,-0.063780,-0.085104,1,-0.000131,-0.001952,-0.000546,1,-0.055228,-1.307823, 9.718896,1,0
1778778090308,  2784.070,  2784.065, 0.003151, 0.135701,-0.984964, 0.000030, 0.001365,-0.009819, 0.003950, 0.049147, 0.120747,1, 0.000975, 0.000522, 0.000433,1,-0.055670,-1.308499, 9.718802,1,0
1778778090331,  2784.090,  2784.090, 0.008078, 0.128600,-0.995672, 0.000078, 0.001286,-0.009965, 0.024126,-0.047105,-0.045371,1,-0.000954, 0.000869,-0.000422,1,-0.055121,-1.308272, 9.718836,1,0
1778778090356,  2784.115,  2784.115, 0.002230, 0.137420,-0.977435, 0.000026, 0.001378,-0.009781,-0.033730, 0.039480, 0.133483,1, 0.005453, 0.002788,-0.000062,1,-0.055683,-1.307979, 9.718872,1,0
1778778090378,  2784.140,  2784.135, 0.010939, 0.126574,-0.997128, 0.000107, 0.001264,-0.009987, 0.003447,-0.048715,-0.051793,1, 0.002695,-0.001652, 0.000354,1,-0.055383,-1.306955, 9.719011,1,0
1778778090401,  2784.160,  2784.160, 0.005159, 0.137536,-0.973525, 0.000064, 0.001376,-0.009738,-0.005447, 0.040738, 0.171840,1, 0.000032, 0.000085,-0.000875,1,-0.056040,-1.308030, 9.718863,1,0
1778778090426,  2784.185,  2784.185, 0.004156, 0.128924,-0.998244, 0.000041, 0.001291,-0.009968,-0.014528,-0.042902,-0.070451,1, 0.003037,-0.004037, 0.000188,1,-0.055160,-1.307122, 9.718990,1,0
1778778090448,  2784.210,  2784.205, 0.006605, 0.137135,-0.976722, 0.000069, 0.001371,-0.009757, 0.046776, 0.021505, 0.088568,1,-0.003646, 0.004349,-0.000499,1,-0.055884,-1.307901, 9.718882,1,0
1778778090471,  2784.230,  2784.230, 0.004131, 0.129248,-0.998716, 0.000038, 0.001293,-0.009979,-0.014726,-0.039285,-0.075021,1,-0.000937,-0.001950, 0.000147,1,-0.055181,-1.306804, 9.719033,1,0
1778778090497,  2784.255,  2784.255, 0.007447, 0.136085,-0.979312, 0.000074, 0.001351,-0.009810, 0.017171, 0.026376, 0.115073,1,-0.007363, 0.006875,-0.000052,1,-0.056076,-1.308387, 9.718815,1,0
1778778090518,  2784.280,  2784.275, 0.004834, 0.129699,-0.996752, 0.000048, 0.001296,-0.009958, 0.005545, 0.000410, 0.074155,1, 0.007373,-0.004537, 0.001007,1,-0.056001,-1.307795, 9.718895,1,0
1778778090541,  2784.305,  2784.300, 0.005262, 0.135759,-0.983496, 0.000057, 0.001349,-0.009850,-0.004076, 0.023408, 0.074073,1,-0.005345, 0.003404,-0.000265,1,-0.055784,-1.308095, 9.718856,1,0
1778778090567,  2784.325,  2784.325, 0.004516, 0.133513,-0.987818, 0.000047, 0.001342,-0.009860,-0.011550, 0.001418, 0.031693,1, 0.002286,-0.001931, 0.000078,1,-0.055777,-1.307826, 9.718892,1,0
1778778090588,  2784.350,  2784.345, 0.003832, 0.136506,-0.982554, 0.000046, 0.001361,-0.009835, 0.005928,-0.027093,-0.010663,1,-0.003412, 0.001182,-0.000755,1,-0.055683,-1.308093, 9.718857,1,0
1778778090611,  2784.375,  2784.370, 0.003132, 0.131935,-0.990325, 0.000022, 0.001330,-0.009880,-0.025047,-0.013724, 0.007161,1, 0.004883,-0.002548, 0.000575,1,-0.055689,-1.307411, 9.718948,1,0
1778778090637,  2784.395,  2784.395, 0.014034, 0.129183,-0.990095, 0.000135, 0.001283,-0.009926, 0.081636,-0.041119, 0.009353,1,-0.007352, 0.004380,-0.000371,1,-0.056121,-1.308203, 9.718840,1,0
1778778090658,  2784.420,  2784.415, 0.001318, 0.131625,-0.985641, 0.000014, 0.001328,-0.009827,-0.003134, 0.054092, 0.172200,1, 0.002242,-0.001799, 0.000195,1,-0.056462,-1.308790, 9.718759,1,0
1778778090681,  2784.445,  2784.440, 0.008073, 0.130284,-0.997461, 0.000065, 0.001287,-0.010002, 0.023861,-0.030528,-0.062906,1,-0.006761, 0.004874,-0.000126,1,-0.055462,-1.308390, 9.718818,1,0
1778778090707,  2784.465,  2784.465, 0.007740, 0.138583,-0.978189, 0.000085, 0.001393,-0.009774, 0.019878, 0.050308, 0.126012,1, 0.004684,-0.001237, 0.000556,1,-0.055991,-1.308579, 9.718789,1,0
1778778090728,  2784.490,  2784.485, 0.003736, 0.130529,-0.992755, 0.000039, 0.001292,-0.009952,-0.011286,-0.049739,-0.072787,1, 0.002629,-0.002687, 0.000083,1,-0.055223,-1.307399, 9.718953,1,0
1778778090751,  2784.515,  2784.510, 0.002677, 0.137895,-0.975140, 0.000027, 0.001382,-0.009741,-0.029720, 0.044127, 0.155991,1, 0.002975,-0.000133,-0.000167,1,-0.055966,-1.308064, 9.718859,1,0
1778778090777,  2784.535,  2784.535, 0.008262, 0.127587,-1.003196, 0.000077, 0.001273,-0.010026, 0.025771,-0.056023,-0.119012,1, 0.000595,-0.003261,-0.000812,1,-0.055143,-1.307206, 9.718979,1,0
1778778090799,  2784.560,  2784.555, 0.005733, 0.138650,-0.972638, 0.000062, 0.001389,-0.009717, 0.043871, 0.043897, 0.139032,1,-0.006464, 0.003897,-0.000488,1,-0.055767,-1.308506, 9.718801,1,0
1778778090821,  2784.585,  2784.580, 0.003845, 0.128678,-0.997969, 0.000031, 0.001289,-0.009972,-0.017582,-0.045966,-0.067843,1,-0.001274,-0.001138, 0.000259,1,-0.055254,-1.307906, 9.718884,1,0
1778778090847,  2784.605,  2784.605, 0.007488, 0.136983,-0.981566, 0.000073, 0.001364,-0.009819, 0.017599, 0.034707, 0.092907,1,-0.000970, 0.003266, 0.000184,1,-0.055931,-1.308667, 9.718778,1,0
1778778090869,  2784.630,  2784.625, 0.008117, 0.128356,-0.997273, 0.000074, 0.001286,-0.009984,-0.001214,-0.019462,-0.028878,1, 0.003399,-0.003498, 0.000222,1,-0.055313,-1.307702, 9.718911,1,0
1778778090896,  2784.655,  2784.655, 0.007207, 0.136863,-0.975808, 0.000074, 0.001363,-0.009765, 0.014289, 0.032475, 0.149230,1,-0.007018, 0.007408,-0.000195,1,-0.056615,-1.309905, 9.718607,1,0
1778778090917,  2784.675,  2784.675, 0.000963, 0.132508,-0.987426, 0.000017, 0.001331,-0.009844,-0.046889,-0.009481, 0.035402,1, 0.010950,-0.008158, 0.000338,1,-0.056078,-1.308599, 9.718786,1,0
1778778090939,  2784.700,  2784.695, 0.007012, 0.137269,-0.980468, 0.000079, 0.001372,-0.009821, 0.013176,-0.034972,-0.091119,1,-0.005288, 0.002841,-0.000937,1,-0.055578,-1.308214, 9.718841,1,0
1778778090966,  2784.725,  2784.725, 0.008242, 0.131307,-0.985941, 0.000084, 0.001324,-0.009838, 0.024738,-0.021318, 0.049954,1, 0.002502,-0.003552, 0.000327,1,-0.055983,-1.308923, 9.718743,1,0
1778778090987,  2784.750,  2784.745, 0.002372, 0.136932,-0.977974, 0.000026, 0.001368,-0.009776, 0.009551,-0.019067, 0.047558,1,-0.003210, 0.002713,-0.001055,1,-0.056182,-1.309317, 9.718689,1,0
1778778091009,  2784.770,  2784.765, 0.003138, 0.130102,-0.998197, 0.000023, 0.001306,-0.009965,-0.062231, 0.024475, 0.050417,1, 0.007273,-0.004438,-0.001037,1,-0.055799,-1.308598, 9.718788,1,0
1778778091036,  2784.795,  2784.795, 0.013916, 0.132764,-0.986580, 0.000139, 0.001317,-0.009893, 0.080669,-0.007335, 0.043643,1,-0.008905, 0.005272,-0.000314,1,-0.055963,-1.309578, 9.718655,1,0
1778778091057,  2784.820,  2784.815,-0.000217, 0.130944,-0.988616,-0.000003, 0.001314,-0.009858,-0.016051, 0.039643, 0.187717,1, 0.007269,-0.002435,-0.000193,1,-0.056362,-1.309563, 9.718655,1,1
1778778091079,  2784.840,  2784.835, 0.006855, 0.131136,-0.993909, 0.000065, 0.001294,-0.009975,-0.032332,-0.076342,-0.124508,1, 0.002950,-0.001338,-0.000710,1,-0.055373,-1.308011, 9.718869,1,1
1778778091106,  2784.865,  2784.865, 0.006317, 0.136491,-0.979574, 0.000068, 0.001376,-0.009776, 0.005673, 0.029614, 0.112408,1, 0.004222,-0.003577,-0.000266,1,-0.056160,-1.308774, 9.718762,1,1
1778778091127,  2784.890,  2784.885, 0.006482, 0.134109,-0.986990, 0.000070, 0.001326,-0.009890, 0.010299,-0.046977,-0.066400,1,-0.002735,-0.000574,-0.000038,1,-0.055430,-1.308509, 9.718802,1,1
1778778091149,  2784.910,  2784.905, 0.005065, 0.136244,-0.980524, 0.000050, 0.001374,-0.009786,-0.006088, 0.049919, 0.133002,1, 0.001124, 0.004061, 0.000076,1,-0.056325,-1.309151, 9.718711,1,1
1778778091176,  2784.935,  2784.935, 0.007024, 0.126678,-1.000461, 0.000062, 0.001270,-0.010006, 0.012907,-0.065091,-0.092221,1, 0.000660, 0.000079,-0.000177,1,-0.055977,-1.307358, 9.718954,1,1
1778778091198,  2784.960,  2784.955, 0.003658, 0.137060,-0.976619, 0.000036, 0.001381,-0.009751, 0.002851, 0.025305, 0.140497,1,-0.004738, 0.001788,-0.000672,1,-0.056481,-1.308553, 9.718790,1,1
1778778091219,  2784.980,  2784.975, 0.007647, 0.130309,-1.000300, 0.000075, 0.001299,-0.010002,-0.009528,-0.027271, 0.010392,1, 0.001114,-0.003428, 0.000654,1,-0.056096,-1.308380, 9.718816,1,1
1778778091246,  2785.005,  2785.005, 0.007457, 0.138379,-0.979150, 0.000082, 0.001385,-0.009790, 0.016469, 0.047891, 0.116522,1, 0.002597, 0.002019,-0.000140,1,-0.056719,-1.309066, 9.718719,1,1
1778778091268,  2785.030,  2785.025, 0.003260, 0.126258,-0.998444, 0.000034, 0.001261,-0.009994,-0.048397,-0.035120,-0.049897,1, 0.009211,-0.003859,-0.000088,1,-0.056035,-1.306967, 9.719007,1,1
1778778091289,  2785.050,  2785.045, 0.007709, 0.136857,-0.973968, 0.000073, 0.001364,-0.009754,-0.005945, 0.003466, 0.061001,1,-0.006699, 0.006762,-0.000427,1,-0.056556,-1.307685, 9.718906,1,1
1778778091316,  2785.075,  2785.075, 0.005317, 0.129809,-0.994656, 0.000053, 0.001305,-0.009929,-0.004913,-0.033666,-0.035205,1, 0.008772,-0.004283, 0.000275,1,-0.056920,-1.306387, 9.719079,1,1
1778778091338,  2785.100,  2785.095, 0.003494, 0.136583,-0.974074, 0.000042, 0.001367,-0.009742, 0.040538,-0.003601, 0.051069,1,-0.006262, 0.002412,-0.001047,1,-0.057193,-1.306882, 9.719011,1,1
1778778091359,  2785.120,  2785.115, 0.002699, 0.127262,-0.994603, 0.000022, 0.001276,-0.009918,-0.043344, 0.012662, 0.124382,1, 0.003658,-0.002466, 0.000168,1,-0.057212,-1.306887, 9.719010,1,1
1778778091386,  2785.145,  2785.145, 0.011816, 0.133760,-0.989340, 0.000111, 0.001321,-0.009921, 0.059177, 0.003958, 0.016781,1,-0.009453, 0.004210,-0.001034,1,-0.056824,-1.308073, 9.718853,1,1
1778778091408,  2785.170,  2785.165, 0.002619, 0.130123,-0.993015, 0.000027, 0.001309,-0.009914,-0.004138, 0.026216, 0.096724,1, 0.004414,-0.003322, 0.000534,1,-0.056720,-1.308143, 9.718844,1,1
1778778091431,  2785.190,  2785.190, 0.007811, 0.133403,-0.983679, 0.000077, 0.001324,-0.009862, 0.019775,-0.000185, 0.072209,1,-0.003875, 0.006720,-0.000233,1,-0.057032,-1.308545, 9.718788,1,1
1778778091456,  2785.215,  2785.215, 0.004209, 0.135314,-0.984131, 0.000052, 0.001368,-0.009825,-0.016010, 0.019354, 0.067880,1, 0.012295,-0.003775, 0.000384,1,-0.057169,-1.307239, 9.718963,1,1
1778778091478,  2785.240,  2785.235, 0.009051, 0.133023,-0.986806, 0.000091, 0.001321,-0.009898,-0.002550,-0.060874,-0.095432,1,-0.002584,-0.000536,-0.000364,1,-0.056489,-1.306505, 9.719066,1,1
1778778091501,  2785.260,  2785.260, 0.006906, 0.135865,-0.972015, 0.000078, 0.001373,-0.009698, 0.009813, 0.024736, 0.186696,1, 0.005909,-0.001229,-0.000087,1,-0.057876,-1.307465, 9.718928,1,1
1778778091526,  2785.285,  2785.285, 0.005025, 0.124707,-1.003424, 0.000041, 0.001251,-0.010036,-0.007734,-0.083313,-0.121135,1, 0.001694,-0.000958,-0.000879,1,-0.056977,-1.306220, 9.719101,1,1
1778778091548,  2785.310,  2785.305, 0.002191, 0.135354,-0.980565, 0.000013, 0.001363,-0.009783,-0.020296, 0.051035, 0.124329,1,-0.003359, 0.001547,-0.000145,1,-0.057537,-1.307402, 9.718939,1,1
1778778091571,  2785.330,  2785.330, 0.009293, 0.126673,-0.996684, 0.000088, 0.001266,-0.009983, 0.034099,-0.065111,-0.055186,1,-0.005160, 0.001564, 0.000009,1,-0.057087,-1.307506, 9.718927,1,1
1778778091597,  2785.355,  2785.355, 0.005729, 0.138805,-0.976162, 0.000064, 0.001387,-0.009762,-0.001413, 0.053009, 0.145948,1, 0.001280, 0.001488,-0.000445,1,-0.057638,-1.308161, 9.718836,1,1
1778778091618,  2785.380,  2785.375, 0.004945, 0.128085,-1.000417, 0.000038, 0.001281,-0.010028,-0.051440,-0.017242,-0.077319,1, 0.001510,-0.004502, 0.000059,1,-0.056839,-1.307125, 9.718981,1,1
1778778091641,  2785.400,  2785.400, 0.011426, 0.137832,-0.972347, 0.000122, 0.001369,-0.009737, 0.054307, 0.042860, 0.183282,1,-0.000573, 0.002257,-0.000976,1,-0.057806,-1.308824, 9.718746,1,1
1778778091667,  2785.425,  2785.425, 0.003633, 0.130022,-0.993013, 0.000040, 0.001308,-0.009901,-0.021291,-0.032363,-0.019191,1, 0.006013,-0.006983, 0.000363,1,-0.056704,-1.307257, 9.718964,1,1
1778778091688,  2785.450,  2785.445, 0.008640, 0.138313,-0.978226, 0.000086, 0.001379,-0.009783, 0.022986,-0.004216, 0.028192,1,-0.009225, 0.004300,-0.000987,1,-0.057109,-1.308269, 9.718824,1,1
1778778091711,  2785.470,  2785.470, 0.005494, 0.130291,-0.993681, 0.000048, 0.001308,-0.009918,-0.002695,-0.030438,-0.025844,1, 0.001092,-0.005196,-0.000506,1,-0.056406,-1.308122, 9.718848,1,1
1778778091737,  2785.495,  2785.495, 0.006884, 0.133001,-0.987184, 0.000068, 0.001314,-0.009888, 0.011381,-0.004573, 0.037778,1,-0.006906, 0.000884,-0.000808,1,-0.056154,-1.309080, 9.718721,1,1
1778778091758,  2785.520,  2785.515, 0.004730, 0.131257,-0.993577, 0.000047, 0.001319,-0.009919,-0.007672, 0.033740, 0.101847,1, 0.003123,-0.000172,-0.000099,1,-0.056477,-1.309084, 9.718719,1,1
1778778091781,  2785.545,  2785.540, 0.007917, 0.132539,-0.986447, 0.000088, 0.001311,-0.009885, 0.021323,-0.009083, 0.045014,1,-0.001247, 0.002231,-0.000449,1,-0.056378,-1.308889, 9.718745,1,1
1778778091807,  2785.565,  2785.565,-0.000040, 0.134619,-0.982097, 0.000001, 0.001350,-0.009800,-0.056663, 0.011912, 0.087754,1, 0.006008,-0.002723, 0.000167,1,-0.056183,-1.308060, 9.718859,1,1
1778778091828,  2785.590,  2785.585, 0.013181, 0.133821,-0.986099, 0.000132, 0.001321,-0.009891, 0.022968,-0.053171,-0.084610,1,-0.006785, 0.002512,-0.000393,1,-0.056038,-1.308377, 9.718817,1,1
1778778091851,  2785.615,  2785.610, 0.003796, 0.137015,-0.979014, 0.000049, 0.001381,-0.009770,-0.019574, 0.034638, 0.117873,1, 0.007842,-0.005117, 0.000349,1,-0.056642,-1.308777, 9.718760,1,1
1778778091877,  2785.635,  2785.635, 0.001953, 0.126761,-1.001839, 0.000010, 0.001265,-0.010019,-0.036618,-0.064952,-0.105822,1,-0.001846,-0.000619,-0.000433,1,-0.055748,-1.308109, 9.718854,1,1
1778778091898,  2785.660,  2785.655, 0.006191, 0.137318,-0.980922, 0.000064, 0.001385,-0.009787, 0.029600, 0.053040, 0.138204,1,-0.002252, 0.003911,-0.000162,1,-0.056743,-1.309096, 9.718716,1,1
1778778091921,  2785.685,  2785.680, 0.007408, 0.127834,-1.000297, 0.000070, 0.001281,-0.010008, 0.016506,-0.054681,-0.090741,1,-0.001720,-0.000523, 0.000149,1,-0.056123,-1.308357, 9.718819,1,1
1778778091947,  2785.705,  2785.705, 0.007560, 0.138167,-0.974156, 0.000075, 0.001379,-0.009751, 0.028125,-0.008490, 0.042663,1,-0.004871, 0.003579,-0.000053,1,-0.056467,-1.308858, 9.718749,1,1
1778778091969,  2785.730,  2785.725, 0.002343, 0.126419,-0.998294, 0.000020, 0.001263,-0.009987,-0.044379,-0.021358,-0.006690,1, 0.006048,-0.004244, 0.000067,1,-0.056445,-1.307854, 9.718884,1,1
1778778091991,  2785.755,  2785.750, 0.010612, 0.134152,-0.980555, 0.000108, 0.001336,-0.009819, 0.047666, 0.007230, 0.102854,1,-0.000865, 0.001312,-0.000146,1,-0.056440,-1.308376, 9.718814,1,1
1778778092017,  2785.775,  2785.775, 0.007672, 0.133753,-0.984679, 0.000080, 0.001346,-0.009834, 0.018775, 0.003439, 0.062431,1,-0.000318,-0.000251, 0.000202,1,-0.056453,-1.308242, 9.718832,1,1
1778778092039,  2785.800,  2785.795, 0.001776, 0.137516,-0.983017, 0.000027, 0.001366,-0.009832, 0.021356,-0.023824, 0.027459,1,-0.002267, 0.001923,-0.000286,1,-0.056908,-1.308835, 9.718750,1,1
1778778092061,  2785.825,  2785.820,-0.002475, 0.132525,-0.997493,-0.000036, 0.001337,-0.009954,-0.080647,-0.007849,-0.063133,1, 0.005233,-0.004324, 0.000551,1,-0.056247,-1.307316, 9.718958,1,1
1778778092087,  2785.845,  2785.845, 0.017825, 0.129997,-0.994911, 0.000168, 0.001287,-0.009985, 0.118410,-0.032918,-0.037844,1,-0.006804, 0.004881,-0.000590,1,-0.056546,-1.307968, 9.718868,1,1
1778778092109,  2785.870,  2785.865, 0.000390, 0.130435,-0.977508, 0.000010, 0.001318,-0.009743, 0.028790, 0.065041, 0.224368,1, 0.002808, 0.002814,-0.000124,1,-0.057604,-1.308606, 9.718777,1,1
1778778092136,  2785.895,  2785.895, 0.000898, 0.124840,-0.997971,-0.000000, 0.001245,-0.009990,-0.047493,-0.083069,-0.067801,1,-0.002676, 0.000797,-0.000226,1,-0.056326,-1.307412, 9.718945,1,1
1778778092157,  2785.915,  2785.915, 0.004771, 0.136964,-0.979899, 0.000060, 0.001384,-0.009793,-0.009952, 0.035416, 0.109372,1, 0.001739,-0.002433,-0.000446,1,-0.056659,-1.307690, 9.718905,1,1
1778778092179,  2785.940,  2785.935, 0.010954, 0.128569,-0.989096, 0.000114, 0.001268,-0.009909, 0.057511,-0.051882,-0.063786,1,-0.002921,-0.000820, 0.000557,1,-0.056291,-1.308056, 9.718858,1,1
1778778092206,  2785.965,  2785.965, 0.004328, 0.140660,-0.965129, 0.000052, 0.001409,-0.009644,-0.015172, 0.069960, 0.253983,1, 0.003616, 0.003812,-0.000372,1,-0.057733,-1.309334, 9.718678,1,1
1778778092227,  2785.990,  2785.985, 0.007164, 0.125950,-1.008300, 0.000053, 0.001249,-0.010107,-0.076912,-0.057869,-0.145195,1, 0.008533,-0.005605,-0.000474,1,-0.056479,-1.307316, 9.718957,1,1
1778778092249,  2786.010,  2786.005, 0.011286, 0.138315,-0.977568, 0.000115, 0.001379,-0.009783, 0.072327, 0.004997, 0.030205,1,-0.002436, 0.002283,-0.000821,1,-0.056778,-1.307655, 9.718909,1,1
1778778092276,  2786.035,  2786.035, 0.007984, 0.128604,-0.983693, 0.000080, 0.001291,-0.009820, 0.021295,-0.046921, 0.072113,1,-0.001772,-0.001044, 0.000148,1,-0.056968,-1.308155, 9.718841,1,1
1778778092298,  2786.060,  2786.055,-0.000486, 0.140401,-0.980958, 0.000005, 0.001402,-0.009805,-0.026808, 0.015010, 0.059742,1,-0.000062, 0.003402,-0.001061,1,-0.057101,-1.308425, 9.718803,1,1
1778778092319,  2786.080,  2786.075, 0.002768, 0.127726,-1.006577, 0.000019, 0.001290,-0.010057,-0.075238, 0.037728,-0.018946,1, 0.006747,-0.006154,-0.000397,1,-0.056666,-1.307420, 9.718942,1,1
1778778092346,  2786.105,  2786.105, 0.013654, 0.132832,-0.981965, 0.000143, 0.001317,-0.009845, 0.077452,-0.005571, 0.089044,1,-0.009548, 0.005395, 0.000309,1,-0.056617,-1.308505, 9.718796,1,1
1778778092368,  2786.130,  2786.125, 0.001287, 0.129660,-0.992666, 0.000010, 0.001303,-0.009887,-0.016937, 0.036789, 0.194949,1, 0.003101, 0.000789, 0.001342,1,-0.057476,-1.309072, 9.718715,1,1
1778778092389,  2786.150,  2786.145, 0.007378, 0.133056,-0.995218, 0.000068, 0.001306,-0.009982,-0.029470,-0.082327,-0.151689,1, 0.005433,-0.000575, 0.000599,1,-0.056979,-1.307791, 9.718890,1,1
1778778092416,  2786.175,  2786.175, 0.004980, 0.135725,-0.981123, 0.000044, 0.001370,-0.009795,-0.008463, 0.023259, 0.097367,1, 0.002408,-0.003032, 0.000295,1,-0.057206,-1.307675, 9.718904,1,1
1778778092438,  2786.200,  2786.195, 0.012169, 0.132904,-0.981156, 0.000125, 0.001311,-0.009825, 0.073796,-0.084626,-0.007500,1,-0.004246, 0.000815, 0.000083,1,-0.057024,-1.308162, 9.718840,1,1
1778778092459,  2786.220,  2786.215, 0.001312, 0.136693,-0.979194, 0.000025, 0.001380,-0.009768, 0.024685, 0.065305, 0.179413,1, 0.001436, 0.003901,-0.001333,1,-0.057783,-1.308698, 9.718763,1,1
1778778092486,  2786.245,  2786.245, 0.002414, 0.126474,-1.004694, 0.000018, 0.001264,-0.010052,-0.033022,-0.067092,-0.133737,1, 0.000356,-0.002537,-0.000272,1,-0.056615,-1.307365, 9.718949,1,1
1778778092508,  2786.270,  2786.265, 0.005962, 0.138402,-0.976489, 0.000060, 0.001391,-0.009751, 0.008947, 0.048668, 0.126440,1,-0.003703, 0.003599,-0.000243,1,-0.057081,-1.308101, 9.718847,1,1
1778778092529,  2786.290,  2786.285, 0.007751, 0.126260,-1.000767, 0.000072, 0.001263,-0.010006, 0.002389,-0.037105, 0.009946,1, 0.004521,-0.003490, 0.000094,1,-0.056936,-1.307704, 9.718902,1,1
1778778092556,  2786.315,  2786.315, 0.004072, 0.139586,-0.977312, 0.000049, 0.001393,-0.009779,-0.017534, 0.061000, 0.134718,1,-0.000180, 0.003075,-0.000320,1,-0.057560,-1.307881, 9.718874,1,1
1778778092578,  2786.340,  2786.335, 0.005578, 0.124624,-1.001516, 0.000050, 0.001246,-0.010019,-0.032195,-0.034685,-0.024768,1, 0.003246,-0.003906, 0.000485,1,-0.057121,-1.307280, 9.718958,1,1
1778778092599,  2786.360,  2786.355, 0.010796, 0.138250,-0.976120, 0.000105, 0.001380,-0.009770, 0.039480,-0.016293, 0.004510,1,-0.004896, 0.003002, 0.000228,1,-0.057128,-1.307689, 9.718903,1,1
1778778092626,  2786.385,  2786.385, 0.006171, 0.130908,-0.987496, 0.000062, 0.001320,-0.009857, 0.003127,-0.024437, 0.034806,1, 0.000608,-0.002099, 0.000813,1,-0.057328,-1.308183, 9.718835,1,1
1778778092648,  2786.410,  2786.405, 0.005115, 0.137486,-0.978941, 0.000060, 0.001372,-0.009799, 0.024884,-0.012621, 0.030456,1,-0.000311, 0.002505,-0.000112,1,-0.057445,-1.308203, 9.718832,1,1
1778778092671,  2786.430,  2786.430, 0.000510, 0.130589,-0.994088, 0.000007, 0.001313,-0.009924,-0.052143,-0.026869,-0.029749,1, 0.002271,-0.004000, 0.000015,1,-0.057022,-1.307435, 9.718938,1,1
1778778092697,  2786.455,  2786.455, 0.009278, 0.131452,-0.991751, 0.000091, 0.001298,-0.009942, 0.034165,-0.018708,-0.006868,1,-0.004307, 0.002476,-0.000076,1,-0.056901,-1.307942, 9.718870,1,1
1778778092718,  2786.480,  2786.475, 0.005028, 0.129819,-0.985036, 0.000053, 0.001312,-0.009827, 0.013753, 0.049859, 0.163700,1, 0.000898, 0.002649, 0.000100,1,-0.057673,-1.308359, 9.718809,1,1
1778778092741,  2786.495,  2786.500, 0.004840, 0.126233,-0.998510, 0.000047, 0.001260,-0.009969,-0.006013,-0.029939,-0.059519,1,-0.000213, 0.001378,-0.000447,1,-0.057100,-1.307033, 9.718991,1,1
1778778092767,  2786.525,  2786.525, 0.003099, 0.138020,-0.979036, 0.000027, 0.001392,-0.009777,-0.027153, 0.045660, 0.117813,1,-0.002124, 0.000306, 0.000268,1,-0.057551,-1.307920, 9.718869,1,1
1778778092788,  2786.550,  2786.545, 0.012262, 0.130410,-0.989226, 0.000124, 0.001292,-0.009917, 0.039108,-0.081792,-0.072908,1, 0.001471,-0.001988, 0.000896,1,-0.056974,-1.307584, 9.718918,1,1
1778778092811,  2786.570,  2786.570, 0.003258, 0.137022,-0.975720, 0.000043, 0.001379,-0.009749,-0.025610, 0.035943, 0.150342,1, 0.002568, 0.000634,-0.000560,1,-0.057576,-1.307702, 9.718899,1,1
1778778092837,  2786.595,  2786.595, 0.001150, 0.127531,-0.998996, 0.000011, 0.001277,-0.009984,-0.045926,-0.056792,-0.077868,1, 0.000389,-0.001880, 0.000714,1,-0.057151,-1.307435, 9.718937,1,1
1778778092858,  2786.620,  2786.615, 0.008482, 0.136959,-0.978917, 0.000091, 0.001374,-0.009784, 0.040564, 0.036763, 0.090164,1,-0.002477, 0.002578, 0.000111,1,-0.057546,-1.307992, 9.718860,1,1
1778778092881,  2786.640,  2786.640, 0.006363, 0.126789,-0.997048, 0.000061, 0.001271,-0.009961, 0.005381,-0.064154,-0.058780,1,-0.000397,-0.002623,-0.000191,1,-0.056938,-1.307539, 9.718925,1,1
1778778092907,  2786.665,  2786.665, 0.007233, 0.139201,-0.979003, 0.000075, 0.001383,-0.009800, 0.013424, 0.056756, 0.118070,1,-0.005479, 0.005184,-0.000228,1,-0.057671,-1.308511, 9.718789,1,1
1778778092928,  2786.690,  2786.685, 0.001379, 0.127194,-1.003181, 0.000008, 0.001273,-0.010020,-0.044459,-0.008380, 0.022741,1, 0.006603,-0.005782, 0.000150,1,-0.057333,-1.307939, 9.718868,1,1
1778778092951,  2786.710,  2786.710, 0.009137, 0.136925,-0.983816, 0.000091, 0.001360,-0.009865, 0.032926, 0.035133, 0.070976,1,-0.007620, 0.005480,-0.000831,1,-0.056843,-1.307877, 9.718879,1,1
1778778092977,  2786.735,  2786.735, 0.007960, 0.132911,-0.977380, 0.000080, 0.001347,-0.009758, 0.020465,-0.005160, 0.133960,1, 0.001550, 0.000751, 0.000630,1,-0.057623,-1.308528, 9.718787,1,1
1778778092998,  2786.760,  2786.755, 0.002914, 0.137419,-0.982215, 0.000039, 0.001364,-0.009840, 0.001929,-0.044914,-0.024217,1, 0.003579, 0.000319, 0.000049,1,-0.057226,-1.307656, 9.718906,1,1
1778778093021,  2786.785,  2786.780, 0.001509, 0.131601,-0.991664, 0.000014, 0.001330,-0.009903,-0.042377,-0.016646,-0.005933,1, 0.003056,-0.005303, 0.000367,1,-0.057016,-1.307115, 9.718981,1,1
1778778093047,  2786.805,  2786.805, 0.013926, 0.129114,-0.994285, 0.000132, 0.001281,-0.009977, 0.079667,-0.041464,-0.031692,1,-0.006407, 0.003693,-0.000056,1,-0.057017,-1.307841, 9.718883,1,1
1778778093069,  2786.830,  2786.825, 0.003052, 0.131788,-0.978905, 0.000034, 0.001332,-0.009762, 0.036694, 0.055620, 0.208950,1, 0.001285, 0.002768,-0.000423,1,-0.057961,-1.308589, 9.718777,1,1
1778778093091,  2786.855,  2786.850, 0.002089, 0.126893,-1.002638, 0.000011, 0.001262,-0.010038,-0.036479,-0.062578,-0.113525,1,-0.000161, 0.001516, 0.000461,1,-0.057015,-1.306976, 9.718999,1,1
1778778093117,  2786.875,  2786.875, 0.006177, 0.139404,-0.979348, 0.000061, 0.001399,-0.009794, 0.002823, 0.059145, 0.114737,1,-0.002993, 0.002465, 0.000311,1,-0.057835,-1.308031, 9.718853,1,1
1778778093139,  2786.900,  2786.895, 0.009779, 0.128435,-0.993080, 0.000102, 0.001275,-0.009949, 0.039698,-0.064027,-0.048486,1, 0.003424,-0.003114, 0.000189,1,-0.057314,-1.307449, 9.718934,1,1
1778778093161,  2786.925,  2786.920, 0.002045, 0.138719,-0.973546, 0.000024, 0.001390,-0.009733,-0.037948, 0.052400, 0.171639,1,-0.000528, 0.003362,-0.000376,1,-0.058105,-1.307986, 9.718857,1,1
1778778093187,  2786.945,  2786.945, 0.001932, 0.127422,-1.000396, 0.000015, 0.001277,-0.009986,-0.038581,-0.057526,-0.091558,1, 0.005294,-0.006803,-0.000581,1,-0.057315,-1.306942, 9.719002,1,1
1778778093209,  2786.970,  2786.965, 0.008431, 0.138695,-0.977023, 0.000089, 0.001390,-0.009771, 0.039410, 0.019855, 0.037874,1,-0.006355, 0.003035,-0.000700,1,-0.057415,-1.307503, 9.718926,1,1
1778778093232,  2786.995,  2786.990, 0.005441, 0.128856,-0.992027, 0.000056, 0.001290,-0.009903,-0.004296,-0.044229,-0.009590,1, 0.000920,-0.001606, 0.000005,1,-0.057601,-1.307847, 9.718879,1,1
1778778093257,  2787.015,  2787.015, 0.006089, 0.135523,-0.981195, 0.000063, 0.001342,-0.009825, 0.001574, 0.020807, 0.096591,1,-0.002093, 0.004275,-0.000726,1,-0.058265,-1.308281, 9.718817,1,1
1778778093279,  2787.040,  2787.035, 0.005029, 0.127918,-1.001141, 0.000038, 0.001283,-0.009993,-0.042564,-0.008663, 0.020021,1, 0.007462,-0.004642,-0.000034,1,-0.058036,-1.307349, 9.718943,1,1
1778778093302,  2787.065,  2787.060, 0.012085, 0.135445,-0.981220, 0.000122, 0.001347,-0.009839, 0.060511, 0.020488, 0.096401,1,-0.009869, 0.007000, 0.000305,1,-0.058221,-1.308077, 9.718844,1,1
1778778093327,  2787.085,  2787.085, 0.004988, 0.134001,-0.973997, 0.000056, 0.001360,-0.009716,-0.009858, 0.005356, 0.167105,1, 0.004323,-0.002647, 0.000573,1,-0.058696,-1.308611, 9.718769,1,1
1778778093349,  2787.110,  2787.105, 0.006177, 0.135641,-0.991757, 0.000061, 0.001340,-0.009948,-0.020161,-0.066280,-0.118478,1, 0.003771,-0.002739,-0.000204,1,-0.057451,-1.307171, 9.718970,1,1
1778778093376,  2787.135,  2787.135, 0.006031, 0.134816,-0.985412, 0.000061, 0.001359,-0.009835, 0.001256, 0.014128, 0.055273,1, 0.000494,-0.001811,-0.000007,1,-0.057830,-1.307946, 9.718864,1,1
1778778093397,  2787.155,  2787.155, 0.009338, 0.128861,-0.993281, 0.000096, 0.001279,-0.009953, 0.033970,-0.044170,-0.021888,1,-0.003024, 0.000745,-0.000190,1,-0.057625,-1.307961, 9.718863,1,1
1778778093419,  2787.180,  2787.175, 0.001694, 0.133733,-0.983591, 0.000016, 0.001354,-0.009811,-0.028542, 0.048062, 0.166770,1, 0.001150, 0.002835,-0.000336,1,-0.058339,-1.308259, 9.718819,1,1
1778778093446,  2787.205,  2787.205, 0.008917, 0.125848,-1.003430, 0.000081, 0.001256,-0.010049, 0.029977,-0.072657,-0.121273,1,-0.001325, 0.000249, 0.000728,1,-0.057482,-1.306842, 9.719014,1,1
1778778093468,  2787.230,  2787.225, 0.004010, 0.133351,-0.979544, 0.000041, 0.001348,-0.009777, 0.025094, 0.038440, 0.148353,1,-0.004064, 0.003181,-0.000078,1,-0.058261,-1.307845, 9.718875,1,1
1778778093489,  2787.250,  2787.245, 0.005901, 0.128410,-0.997067, 0.000052, 0.001277,-0.009982,-0.024495,-0.059773,-0.017866,1, 0.001931,-0.002726, 0.000242,1,-0.057888,-1.307413, 9.718935,1,1
1778778093516,  2787.275,  2787.275, 0.004500, 0.141080,-0.975921, 0.000047, 0.001414,-0.009761,-0.014399, 0.075229, 0.148296,1,-0.002541, 0.003332, 0.000221,1,-0.058630,-1.308368, 9.718802,1,1
1778778093538,  2787.300,  2787.295, 0.005829, 0.128318,-0.997149, 0.000054, 0.001277,-0.009990,-0.028775,-0.053963,-0.064001,1, 0.002616,-0.005910,-0.000504,1,-0.057687,-1.307700, 9.718898,1,1
1778778093559,  2787.320,  2787.315, 0.003471, 0.139778,-0.974338, 0.000043, 0.001403,-0.009737, 0.003712, 0.035431, 0.096198,1,-0.007284, 0.003468,-0.000778,1,-0.057926,-1.308544, 9.718783,1,1
1778778093586,  2787.345,  2787.345, 0.001271, 0.129089,-0.997581, 0.000014, 0.001291,-0.009956,-0.045361,-0.041992,-0.064062,1, 0.007589,-0.005934,-0.000520,1,-0.057640,-1.307689, 9.718900,1,1
1778778093608,  2787.370,  2787.365, 0.005901, 0.139056,-0.980074, 0.000059, 0.001394,-0.009800,-0.009252, 0.028556, 0.005455,1,-0.003216, 0.004404,-0.001034,1,-0.057688,-1.307527, 9.718921,1,1
1778778093629,  2787.390,  2787.385, 0.009089, 0.129652,-0.996821, 0.000080, 0.001302,-0.009956, 0.002780, 0.011392, 0.054348,1, 0.002444,-0.001399,-0.000394,1,-0.058044,-1.307442, 9.718930,1,1
1778778093656,  2787.415,  2787.415, 0.010438, 0.136588,-0.980734, 0.000108, 0.001357,-0.009823, 0.043815, 0.031927, 0.101197,1,-0.001626, 0.004673, 0.000068,1,-0.058688,-1.307595, 9.718906,1,1
1778778093678,  2787.440,  2787.435, 0.008261, 0.126459,-0.998741, 0.000073, 0.001269,-0.009977,-0.009743,-0.018076, 0.048595,1, 0.005705,-0.000644, 0.000446,1,-0.058891,-1.306866, 9.719003,1,1
1778778093699,  2787.460,  2787.455, 0.012461, 0.133784,-0.980128, 0.000126, 0.001325,-0.009825, 0.054136,-0.071199,-0.060912,1,-0.002136, 0.001948, 0.000407,1,-0.058646,-1.306564, 9.719045,1,1
1778778093726,  2787.485,  2787.485, 0.008268, 0.130434,-0.976491, 0.000094, 0.001321,-0.009748, 0.021570,-0.028575, 0.142784,1, 0.003422,-0.003499, 0.001261,1,-0.059413,-1.307586, 9.718903,1,1
1778778093748,  2787.510,  2787.505, 0.008117, 0.136684,-0.982589, 0.000088, 0.001350,-0.009843, 0.022631,-0.060074,-0.017881,1, 0.000123,-0.000267, 0.000091,1,-0.058927,-1.307055, 9.718977,1,1
1778778093770,  2787.530,  2787.525, 0.005402, 0.133123,-0.987025, 0.000055, 0.001340,-0.009851,-0.002376, 0.051647, 0.119138,1,-0.000175,-0.001259, 0.000258,1,-0.059001,-1.307493, 9.718918,1,1
1778778093796,  2787.555,  2787.555, 0.007304, 0.130335,-0.995006, 0.000071, 0.001295,-0.009966, 0.013844,-0.029139,-0.038722,1,-0.001973,-0.003160,-0.000561,1,-0.057687,-1.307349, 9.718946,1,1
1778778093818,  2787.580,  2787.575,-0.000908, 0.133765,-0.985419,-0.000015, 0.001350,-0.009826,-0.070003, 0.057215, 0.140624,1,-0.000874, 0.000885,-0.000313,1,-0.057825,-1.307926, 9.718866,1,1
1778778093840,  2787.600,  2787.595, 0.005965, 0.128483,-1.002578, 0.000050, 0.001276,-0.010046,-0.047736,-0.063165,-0.115391,1, 0.005280,-0.005011,-0.000452,1,-0.056999,-1.306905, 9.719009,1,1
1778778093867,  2787.625,  2787.625, 0.003734, 0.138668,-0.977893, 0.000040, 0.001394,-0.009773,-0.021194, 0.052280, 0.129055,1, 0.000124, 0.001932,-0.000145,1,-0.057874,-1.307587, 9.718912,1,1
1778778093888,  2787.650,  2787.645, 0.004088, 0.131848,-0.992167, 0.000038, 0.001309,-0.009946,-0.039593,-0.067756,-0.074554,1,-0.002349,-0.000677, 0.000526,1,-0.057504,-1.307388, 9.718941,1,1
1778778093911,  2787.670,  2787.670, 0.006352, 0.139056,-0.980979, 0.000063, 0.001397,-0.009803, 0.003802, 0.055613, 0.098726,1, 0.002800, 0.002713, 0.000275,1,-0.058573,-1.307972, 9.718856,1,1
1778778093937,  2787.695,  2787.695, 0.005951, 0.127621,-0.996790, 0.000063, 0.001280,-0.009964, 0.000222,-0.055588,-0.056199,1, 0.003543,-0.003571, 0.000049,1,-0.058026,-1.307009, 9.718988,1,1
1778778093958,  2787.720,  2787.715, 0.006503, 0.138927,-0.973471, 0.000071, 0.001391,-0.009733, 0.038613, 0.042724, 0.107087,1,-0.005098, 0.004963, 0.000142,1,-0.058402,-1.307445, 9.718928,1,1
1778778093981,  2787.740,  2787.740, 0.007874, 0.127387,-0.997237, 0.000073, 0.001274,-0.009952, 0.018660,-0.057845,-0.060577,1, 0.004788,-0.003896, 0.000179,1,-0.058438,-1.306937, 9.718996,1,1
1778778094007,  2787.765,  2787.765, 0.008459, 0.137399,-0.983423, 0.000085, 0.001360,-0.009852, 0.024438, 0.040372, 0.074892,1,-0.003758, 0.003783,-0.001025,1,-0.058625,-1.307165, 9.718965,1,1
1778778094028,  2787.790,  2787.785, 0.006998, 0.128129,-0.994650, 0.000068, 0.001282,-0.009947, 0.017592,-0.025232, 0.036850,1, 0.001852,-0.003547, 0.000186,1,-0.058461,-1.307044, 9.718982,1,1
1778778094051,  2787.810,  2787.810, 0.009568, 0.137326,-0.978050, 0.000095, 0.001373,-0.009782, 0.035298, 0.038941, 0.127490,1, 0.000039, 0.002895, 0.000049,1,-0.058619,-1.307770, 9.718883,1,1
1778778094077,  2787.835,  2787.835, 0.005600, 0.130725,-0.988884, 0.000060, 0.001315,-0.009878,-0.003495,-0.024968, 0.021355,1, 0.005168,-0.003149, 0.000128,1,-0.058313,-1.306782, 9.719018,1,1
1778778094098,  2787.860,  2787.855, 0.005591, 0.135112,-0.980696, 0.000070, 0.001347,-0.009823, 0.033154,-0.034423,-0.009986,1,-0.000780, 0.000329,-0.000487,1,-0.057981,-1.306444, 9.719065,1,1
1778778094121,  2787.880,  2787.880,-0.002655, 0.129464,-0.987645,-0.000028, 0.001306,-0.009847,-0.083897,-0.037019, 0.033548,1, 0.006583,-0.005868,-0.000248,1,-0.057681,-1.306423, 9.719069,1,1
1778778094147,  2787.905,  2787.905, 0.007700, 0.125630,-1.003396, 0.000068, 0.001246,-0.010060, 0.018536,-0.073824,-0.120800,1,-0.003005,-0.000285,-0.001062,1,-0.056972,-1.305923, 9.719141,1,1
1778778094168,  2787.930,  2787.925, 0.004263, 0.129450,-0.985318, 0.000045, 0.001306,-0.009823, 0.009976, 0.032579, 0.141892,1,-0.002709, 0.001822, 0.000229,1,-0.057698,-1.307147, 9.718972,1,1
1778778094191,  2787.950,  2787.950, 0.003475, 0.130163,-0.992189, 0.000030, 0.001290,-0.009940,-0.023298,-0.030872,-0.011099,1,-0.004081, 0.002421, 0.000235,1,-0.057454,-1.307460, 9.718931,1,1
1778778094218,  2787.975,  2787.975, 0.004496, 0.140225,-0.982221, 0.000045, 0.001412,-0.009810,-0.013854, 0.067513, 0.086608,1, 0.003751, 0.000416,-0.000523,1,-0.057959,-1.307509, 9.718922,1,1
1778778094239,  2788.000,  2787.995, 0.011167, 0.132127,-0.992589, 0.000110, 0.001314,-0.009955, 0.023548,-0.034730,-0.105545,1, 0.000181,-0.000957, 0.000116,1,-0.057547,-1.306912, 9.719005,1,1
1778778094261,  2788.025,  2788.020, 0.004590, 0.138886,-0.967572, 0.000060, 0.001390,-0.009689,-0.013885, 0.053780, 0.230184,1,-0.001421, 0.004385,-0.000198,1,-0.059035,-1.308268, 9.718813,1,1
1778778094287,  2788.045,  2788.045, 0.001432, 0.127263,-0.997538, 0.000012, 0.001275,-0.009950,-0.044367,-0.059065,-0.063529,1, 0.007019,-0.005227,-0.000174,1,-0.058246,-1.306874, 9.719006,1,1
1778778094309,  2788.070,  2788.065, 0.009279, 0.137458,-0.975514, 0.000093, 0.001381,-0.009751, 0.027402, 0.038541, 0.111567,1,-0.006741, 0.005083,-0.000196,1,-0.058894,-1.307557, 9.718910,1,1
1778778094331,  2788.095,  2788.090, 0.012886, 0.126435,-0.995340, 0.000123, 0.001259,-0.009948, 0.067866,-0.067694,-0.042046,1,-0.000498,-0.001656,-0.000347,1,-0.058451,-1.307611, 9.718905,1,1
1778778094357,  2788.115,  2788.115, 0.007204, 0.139899,-0.980160, 0.000080, 0.001386,-0.009805, 0.012079, 0.063910, 0.106765,1,-0.002343, 0.000866,-0.000651,1,-0.058591,-1.308103, 9.718839,1,1
1778778094379,  2788.140,  2788.135, 0.005883, 0.130645,-1.009565, 0.000050, 0.001308,-0.010089,-0.030060,-0.002645,-0.071176,1, 0.005800,-0.007145,-0.000258,1,-0.057838,-1.307170, 9.718968,1,1
1778778094402,  2788.165,  2788.160, 0.008569, 0.139247,-0.978846, 0.000092, 0.001390,-0.009800, 0.026428, 0.057996, 0.119720,1,-0.005550, 0.004953,-0.000512,1,-0.057756,-1.307719, 9.718895,1,1
1778778094427,  2788.185,  2788.185, 0.001869, 0.129707,-0.981999, 0.000024, 0.001308,-0.009789,-0.039249,-0.035238, 0.088839,1, 0.006570,-0.005076, 0.000766,1,-0.057420,-1.307026, 9.718990,1,1
1778778094449,  2788.210,  2788.205, 0.003618, 0.135166,-0.979859, 0.000041, 0.001345,-0.009811,-0.023378,-0.075582,-0.018846,1,-0.004031, 0.004466,-0.000617,1,-0.057434,-1.306964, 9.718998,1,1
1778778094472,  2788.235,  2788.230, 0.003039, 0.127617,-0.990594, 0.000032, 0.001280,-0.009893,-0.028125,-0.055830, 0.004537,1, 0.000133,-0.002280, 0.000828,1,-0.057863,-1.307324, 9.718947,1,1
1778778094497,  2788.255,  2788.255, 0.004200, 0.131367,-0.984792, 0.000048, 0.001295,-0.009868,-0.016693,-0.019831, 0.061335,1,-0.006678, 0.002070, 0.000131,1,-0.057944,-1.308307, 9.718815,1,1
1778778094519,  2788.280,  2788.275, 0.006021, 0.133132,-0.990651, 0.000059, 0.001340,-0.009878, 0.001467, 0.058694, 0.140259,1, 0.002307, 0.001271, 0.001228,1,-0.058797,-1.308856, 9.718736,1,1
1778778094542,  2788.305,  2788.300, 0.011664, 0.134140,-0.995653, 0.000118, 0.001328,-0.009981, 0.056334, 0.008078,-0.045080,1, 0.000414, 0.001599, 0.000037,1,-0.058090,-1.307372, 9.718940,1,1
1778778094568,  2788.325,  2788.325, 0.006804, 0.138618,-0.980008, 0.000066, 0.001398,-0.009788, 0.008389, 0.051951, 0.108340,1, 0.002885,-0.000725,-0.000067,1,-0.058308,-1.307333, 9.718944,1,1
1778778094589,  2788.350,  2788.345, 0.008070, 0.131743,-0.992106, 0.000077, 0.001309,-0.009936, 0.018064,-0.046883,-0.055078,1, 0.002234,-0.000863,-0.000430,1,-0.057990,-1.306666, 9.719035,1,1
1778778094616,  2788.375,  2788.375, 0.006697, 0.134225,-0.982542, 0.000071, 0.001353,-0.009824, 0.007416, 0.009796, 0.083610,1, 0.001954,-0.000573,-0.000062,1,-0.058246,-1.306438, 9.719065,1,1
1778778094638,  2788.395,  2788.395, 0.008484, 0.126918,-0.990755, 0.000082, 0.001267,-0.009918, 0.025106,-0.061893, 0.003061,1,-0.003664, 0.001573, 0.000372,1,-0.058144,-1.306642, 9.719038,1,1
1778778094659,  2788.420,  2788.415,-0.000658, 0.135503,-0.976886, 0.000002, 0.001367,-0.009747,-0.014457, 0.044657, 0.173892,1,-0.004644, 0.002858,-0.000017,1,-0.058936,-1.307839, 9.718872,1,1
1778778094686,  2788.445,  2788.445, 0.002083, 0.127165,-1.006603, 0.000009, 0.001268,-0.010060,-0.036917,-0.059437,-0.152345,1, 0.001224,-0.004900,-0.000429,1,-0.057192,-1.306464, 9.719068,1,1
1778778094708,  2788.470,  2788.465, 0.006388, 0.137538,-0.977967, 0.000066, 0.001384,-0.009765, 0.019807, 0.062721, 0.115013,1,-0.005435, 0.004372,-0.000070,1,-0.057793,-1.307528, 9.718921,1,1
1778778094729,  2788.490,  2788.485, 0.002275, 0.127623,-0.998462, 0.000020, 0.001275,-0.009985,-0.026049,-0.036565, 0.008590,1, 0.005728,-0.004552, 0.000723,1,-0.057506,-1.306986, 9.718995,1,1
1778778094756,  2788.515,  2788.515, 0.004710, 0.137982,-0.980479, 0.000042, 0.001380,-0.009810,-0.011857, 0.046156, 0.103781,1,-0.000485, 0.005436,-0.000478,1,-0.058209,-1.307005, 9.718988,1,1
1778778094778,  2788.540,  2788.535, 0.013371, 0.125788,-0.996038, 0.000130, 0.001257,-0.009978, 0.039190,-0.057018,-0.043882,1, 0.002460,-0.002535, 0.000376,1,-0.058081,-1.306363, 9.719075,1,1
1778778094799,  2788.560,  2788.555, 0.009069, 0.136654,-0.971976, 0.000098, 0.001367,-0.009723, 0.068710,-0.017765, 0.091349,1,-0.007527, 0.005494,-0.000952,1,-0.058539,-1.307299, 9.718946,1,1
1778778094826,  2788.585,  2788.585, 0.000629, 0.130522,-0.991658, 0.000010, 0.001310,-0.009893,-0.052634,-0.027227,-0.005886,1, 0.005426,-0.006068, 0.000837,1,-0.058616,-1.307045, 9.718981,1,1
1778778094848,  2788.610,  2788.605, 0.008269, 0.139270,-0.981426, 0.000086, 0.001389,-0.009823, 0.020384, 0.002385,-0.035295,1,-0.003949, 0.002141,-0.000278,1,-0.058451,-1.307101, 9.718974,1,1
1778778094869,  2788.630,  2788.625, 0.005672, 0.130808,-0.990166, 0.000054, 0.001314,-0.009887, 0.000650, 0.036826, 0.092831,1, 0.001653,-0.003047, 0.000216,1,-0.058379,-1.307247, 9.718955,1,1
1778778094896,  2788.655,  2788.655, 0.007783, 0.135405,-0.984657, 0.000082, 0.001341,-0.009863, 0.018155, 0.020257, 0.062721,1,-0.004181, 0.003316,-0.000479,1,-0.058270,-1.307742, 9.718889,1,1
1778778094918,  2788.680,  2788.675, 0.000421, 0.130280,-0.997438, 0.000002, 0.001307,-0.009948,-0.047994, 0.043956, 0.102571,1, 0.007559,-0.002253, 0.000518,1,-0.058545,-1.307339, 9.718942,1,1
1778778094940,  2788.700,  2788.695, 0.010127, 0.132344,-0.993057, 0.000098, 0.001305,-0.009970,-0.016221,-0.076240,-0.158739,1, 0.001986,-0.002634,-0.000541,1,-0.057425,-1.306127, 9.719111,1,1
1778778094967,  2788.725,  2788.725, 0.007845, 0.137548,-0.972003, 0.000082, 0.001387,-0.009710, 0.018253, 0.041028, 0.186778,1,-0.000974, 0.002004, 0.000738,1,-0.058743,-1.307890, 9.718866,1,1
1778778094988,  2788.750,  2788.745, 0.005944, 0.132164,-0.991056, 0.000059, 0.001304,-0.009939,-0.000884,-0.069095,-0.086783,1, 0.003854,-0.001320, 0.000566,1,-0.058192,-1.306871, 9.719007,1,1
1778778095010,  2788.770,  2788.765, 0.002144, 0.135092,-0.982182, 0.000024, 0.001364,-0.009798,-0.027023, 0.059269, 0.133940,1,-0.000405, 0.002766,-0.000238,1,-0.058883,-1.307150, 9.718965,1,1
1778778095037,  2788.795,  2788.795, 0.009952, 0.126061,-0.998724, 0.000094, 0.001256,-0.010002, 0.039580,-0.070246,-0.075077,1,-0.004883,-0.000563,-0.000068,1,-0.057997,-1.306629, 9.719040,1,1
1778778095058,  2788.820,  2788.815, 0.004794, 0.134738,-0.973580, 0.000055, 0.001362,-0.009714, 0.055149, 0.048451, 0.182871,1,-0.004092, 0.003853,-0.001058,1,-0.058698,-1.307894, 9.718865,1,1
1778778095080,  2788.840,  2788.835,-0.000152, 0.125179,-1.005920,-0.000013, 0.001254,-0.010057,-0.066753,-0.036398, 0.002886,1, 0.008286,-0.007769,-0.000346,1,-0.057852,-1.306554, 9.719051,1,1
1778778095107,  2788.865,  2788.865, 0.007358, 0.138431,-0.980053, 0.000073, 0.001381,-0.009809, 0.014125, 0.050411, 0.107937,1,-0.004973, 0.003708,-0.000488,1,-0.058146,-1.307291, 9.718950,1,1
1778778095128,  2788.890,  2788.885, 0.006718, 0.128054,-0.997642, 0.000065, 0.001280,-0.009979, 0.003274,-0.025412,-0.012951,1, 0.002234,-0.003096,-0.000223,1,-0.057813,-1.307059, 9.718984,1,1
1778778095151,  2788.910,  2788.910, 0.004876, 0.138896,-0.977178, 0.000052, 0.001391,-0.009778,-0.010576, 0.054673, 0.136086,1, 0.000192, 0.004269, 0.000154,1,-0.058523,-1.307428, 9.718929,1,1
1778778095177,  2788.935,  2788.935, 0.003747, 0.130332,-0.993095, 0.000040, 0.001314,-0.009918,-0.021652,-0.028367,-0.019882,1, 0.006392,-0.003683, 0.000615,1,-0.058288,-1.306290, 9.719084,1,1
1778778095198,  2788.960,  2788.955, 0.007416, 0.135472,-0.979016, 0.000078, 0.001349,-0.009805, 0.005948,-0.023838, 0.005373,1,-0.002460, 0.000923,-0.000476,1,-0.057974,-1.306255, 9.719090,1,1
1778778095221,  2788.980,  2788.980, 0.009148, 0.131800,-0.985830, 0.000088, 0.001323,-0.009841, 0.030996,-0.014406, 0.051307,1,-0.000115, 0.000944, 0.000850,1,-0.058744,-1.306923, 9.718996,1,1
1778778095247,  2789.005,  2789.005, 0.010754, 0.134014,-0.987034, 0.000114, 0.001323,-0.009884, 0.046511, 0.007146, 0.039471,1,-0.001857, 0.001063,-0.000639,1,-0.058980,-1.307135, 9.718966,1,1
1778778095268,  2789.030,  2789.025,-0.000815, 0.130719,-0.997932,-0.000021, 0.001314,-0.009955,-0.083345, 0.036734, 0.079657,1, 0.003695,-0.004871,-0.000681,1,-0.058586,-1.306800, 9.719013,1,1
1778778095291,  2789.050,  2789.050, 0.015599, 0.134966,-0.990231, 0.000152, 0.001336,-0.009931, 0.094937, 0.016427, 0.008125,1,-0.006528, 0.003875, 0.000178,1,-0.058158,-1.307341, 9.718944,1,1
1778778095317,  2789.075,  2789.075, 0.006628, 0.138298,-0.972953, 0.000077, 0.001397,-0.009719, 0.006355, 0.048529, 0.177479,1, 0.004217,-0.000344,-0.000155,1,-0.058633,-1.307578, 9.718908,1,1
1778778095339,  2789.100,  2789.095, 0.003156, 0.131010,-0.993122, 0.000025, 0.001289,-0.009965,-0.074219,-0.068725,-0.092560,1, 0.004772,-0.003393,-0.000423,1,-0.057536,-1.306163, 9.719106,1,1
1778778095361,  2789.120,  2789.120, 0.004621, 0.136270,-0.980480, 0.000050, 0.001374,-0.009786,-0.013072, 0.029633, 0.103798,1, 0.002809,-0.002059, 0.000148,1,-0.058323,-1.306634, 9.719038,1,1
1778778095387,  2789.145,  2789.145, 0.008981, 0.126165,-1.000383, 0.000086, 0.001257,-0.010016, 0.030457,-0.069216,-0.091342,1,-0.003650,-0.001836,-0.000417,1,-0.057557,-1.306585, 9.719049,1,1
1778778095409,  2789.170,  2789.165, 0.005316, 0.137891,-0.972251, 0.000057, 0.001385,-0.009699, 0.031879, 0.040581, 0.170028,1,-0.004704, 0.006277,-0.000594,1,-0.058563,-1.307849, 9.718873,1,1
1778778095431,  2789.190,  2789.190, 0.000733, 0.126672,-1.004381, 0.000001, 0.001272,-0.010030,-0.050725,-0.064286,-0.130561,1, 0.004966,-0.004181, 0.000312,1,-0.057783,-1.306365, 9.719077,1,1
1778778095457,  2789.215,  2789.215, 0.008702, 0.136000,-0.984466, 0.000086, 0.001354,-0.009862, 0.027172, 0.026828, 0.064689,1,-0.003298, 0.003613,-0.000420,1,-0.058278,-1.306976, 9.718992,1,1
1778778095479,  2789.240,  2789.235, 0.011616, 0.126750,-0.990898, 0.000117, 0.001268,-0.009913, 0.032205,-0.025592, 0.030600,1, 0.000244,-0.000856, 0.000437,1,-0.058115,-1.306886, 9.719005,1,1
1778778095502,  2789.265,  2789.260, 0.005650, 0.138122,-0.975568, 0.000065, 0.001373,-0.009763,-0.003370, 0.046414, 0.151780,1,-0.002465, 0.003540,-0.000227,1,-0.058890,-1.308179, 9.718826,1,1
1778778095527,  2789.285,  2789.285,-0.001521, 0.130961,-0.996832,-0.000014, 0.001321,-0.009940,-0.073228,-0.022926,-0.056621,1, 0.007914,-0.006358,-0.000155,1,-0.058113,-1.306973, 9.718993,1,1
1778778095549,  2789.310,  2789.305, 0.011186, 0.138408,-0.978508, 0.000114, 0.001380,-0.009792, 0.041049,-0.016939,-0.050971,1,-0.007311, 0.003832,-0.000290,1,-0.057830,-1.307374, 9.718941,1,1
1778778095572,  2789.335,  2789.330, 0.006610, 0.131783,-0.980919, 0.000066, 0.001331,-0.009776, 0.006235,-0.015901, 0.099290,1, 0.005363,-0.002254, 0.000610,1,-0.058523,-1.308085, 9.718842,1,1
1778778095597,  2789.355,  2789.355, 0.003697, 0.130822,-0.993361, 0.000040, 0.001292,-0.009953,-0.021980,-0.024301,-0.022585,1, 0.001776, 0.000965,-0.000584,1,-0.058263,-1.307175, 9.718966,1,1
1778778095619,  2789.380,  2789.375, 0.003038, 0.132391,-0.995316, 0.000020, 0.001330,-0.009932,-0.050404, 0.050423, 0.081802,1, 0.005087,-0.001973,-0.000020,1,-0.058475,-1.306833, 9.719010,1,1
1778778095642,  2789.405,  2789.400, 0.012146, 0.130473,-0.989964, 0.000116, 0.001294,-0.009925, 0.061054,-0.027687, 0.010732,1,-0.006068, 0.004034,-0.000011,1,-0.058184,-1.307377, 9.718939,1,1
1778778095667,  2789.425,  2789.425, 0.005795, 0.138630,-0.973144, 0.000068, 0.001394,-0.009717,-0.002019, 0.051836, 0.175608,1, 0.004086, 0.000761,-0.000345,1,-0.058867,-1.307536, 9.718913,1,1
1778778095689,  2789.450,  2789.445, 0.007410, 0.129700,-0.996916, 0.000068, 0.001283,-0.009998,-0.027485,-0.065407,-0.096755,1, 0.003396,-0.003906,-0.000044,1,-0.058055,-1.306396, 9.719071,1,1
1778778095712,  2789.475,  2789.470, 0.006487, 0.138202,-0.977070, 0.000068, 0.001386,-0.009767, 0.005011, 0.047782, 0.137130,1,-0.001165,-0.001541,-0.000022,1,-0.058557,-1.307556, 9.718912,1,1
1778778095738,  2789.495,  2789.495, 0.007969, 0.128135,-0.996521, 0.000074, 0.001276,-0.009963, 0.020255,-0.050704,-0.053581,1,-0.000911,-0.002707, 0.000043,1,-0.057810,-1.307306, 9.718950,1,1
1778778095759,  2789.520,  2789.515, 0.003893, 0.137417,-0.976368, 0.000042, 0.001376,-0.009758, 0.014761, 0.039409, 0.128488,1,-0.001692, 0.003482, 0.000325,1,-0.058388,-1.307941, 9.718862,1,1
1778778095782,  2789.545,  2789.540, 0.004268, 0.126248,-1.002241, 0.000036, 0.001266,-0.010007,-0.015975,-0.068686,-0.109604,1, 0.003510,-0.004448,-0.000204,1,-0.057696,-1.306651, 9.719039,1,1
1778778095808,  2789.565,  2789.565, 0.007217, 0.136331,-0.979704, 0.000074, 0.001358,-0.009819, 0.012732, 0.029629, 0.111329,1,-0.004263, 0.003746,-0.000874,1,-0.058153,-1.307451, 9.718928,1,1
1778778095829,  2789.590,  2789.585, 0.008058, 0.126700,-0.997286, 0.000075, 0.001267,-0.009971,-0.013330,-0.020538, 0.044488,1, 0.003558,-0.002336,-0.000384,1,-0.058008,-1.307214, 9.718962,1,1
1778778095856,  2789.615,  2789.615, 0.007841, 0.136658,-0.977756, 0.000086, 0.001361,-0.009789, 0.018545, 0.032450, 0.130381,1,-0.000759, 0.002923,-0.000222,1,-0.058438,-1.307733, 9.718889,1,1
1778778095878,  2789.635,  2789.635, 0.000239, 0.130885,-0.991286, 0.000003, 0.001319,-0.009899,-0.055654,-0.023467,-0.002205,1, 0.004477,-0.003971, 0.000027,1,-0.057878,-1.306874, 9.719007,1,1
1778778095899,  2789.660,  2789.655, 0.008673, 0.137773,-0.978503, 0.000096, 0.001375,-0.009804, 0.024734,-0.029959,-0.028600,1,-0.006284, 0.004018, 0.000276,1,-0.057831,-1.307379, 9.718941,1,1
1778778095926,  2789.685,  2789.685, 0.005699, 0.131221,-0.985486, 0.000062, 0.001330,-0.009825,-0.002437,-0.020771, 0.054590,1, 0.007017,-0.004620, 0.000290,1,-0.058183,-1.307393, 9.718936,1,1
1778778095948,  2789.710,  2789.705, 0.005333, 0.139513,-0.978480, 0.000056, 0.001387,-0.009800, 0.006207,-0.031439,-0.040323,1,-0.003142, 0.002397,-0.000924,1,-0.057944,-1.307062, 9.718982,1,1
1778778095969,  2789.730,  2789.725, 0.003656, 0.132119,-0.992643, 0.000028, 0.001330,-0.009901,-0.030568, 0.058399, 0.135447,1, 0.001348,-0.000806,-0.000362,1,-0.058426,-1.307580, 9.718909,1,1
1778778095996,  2789.755,  2789.755, 0.009422, 0.131198,-0.992805, 0.000085, 0.001300,-0.009951, 0.034632,-0.020693,-0.017139,1,-0.003388, 0.002631,-0.000115,1,-0.057844,-1.307415, 9.718935,1,1
1778778096018,  2789.780,  2789.775, 0.005154, 0.132168,-0.986523, 0.000051, 0.001328,-0.009848, 0.015438, 0.050866, 0.138951,1, 0.003423, 0.001318,-0.000330,1,-0.058378,-1.307383, 9.718937,1,1
1778778096039,  2789.800,  2789.795, 0.006362, 0.129908,-0.990003, 0.000062, 0.001289,-0.009919,-0.011173,-0.050391,-0.037762,1, 0.000387,-0.000978,-0.000221,1,-0.058056,-1.306987, 9.718991,1,1
1778778096066,  2789.825,  2789.825, 0.004818, 0.136714,-0.981165, 0.000054, 0.001376,-0.009806,-0.011113, 0.033735, 0.097048,1, 0.003993,-0.001043,-0.000211,1,-0.058326,-1.306852, 9.719008,1,1
1778778096088,  2789.850,  2789.845, 0.010765, 0.130220,-0.990205, 0.000108, 0.001290,-0.009924, 0.009297,-0.059401,-0.061032,1,-0.000631,-0.001669,-0.000172,1,-0.057712,-1.306471, 9.719063,1,1
1778778096110,  2789.870,  2789.865, 0.004229, 0.137181,-0.974798, 0.000047, 0.001376,-0.009738, 0.029016, 0.036614, 0.126305,1,-0.003682, 0.003237,-0.000026,1,-0.058214,-1.307296, 9.718949,1,1
1778778096137,  2789.895,  2789.895, 0.003237, 0.127150,-1.000398, 0.000025, 0.001269,-0.009992,-0.025779,-0.059518,-0.091482,1, 0.002681,-0.003750,-0.001028,1,-0.057399,-1.306349, 9.719081,1,1
1778778096158,  2789.920,  2789.915, 0.004472, 0.138416,-0.980190, 0.000044, 0.001388,-0.009790, 0.008988, 0.050533, 0.082393,1,-0.004239, 0.002643,-0.000748,1,-0.057775,-1.307087, 9.718980,1,1
1778778096180,  2789.940,  2789.935, 0.008223, 0.126194,-0.998885, 0.000077, 0.001262,-0.009983, 0.005357,-0.032198, 0.002526,1, 0.003953,-0.003665, 0.000219,1,-0.057466,-1.306613, 9.719046,1,1
1778778096207,  2789.965,  2789.965, 0.005230, 0.136999,-0.975316, 0.000061, 0.001366,-0.009761,-0.006302, 0.036641, 0.154430,1,-0.000983, 0.002859,-0.000448,1,-0.057676,-1.306891, 9.719007,1,1
1778778096228,  2789.990,  2789.985, 0.005381, 0.126433,-1.001008, 0.000048, 0.001263,-0.010015,-0.045889,-0.043130,-0.022305,1, 0.001284,-0.002695, 0.000598,1,-0.057272,-1.306539, 9.719056,1,1
1778778096250,  2790.010,  2790.005, 0.012457, 0.137988,-0.974093, 0.000132, 0.001376,-0.009758, 0.057435,-0.026445, 0.014931,1,-0.008251, 0.002611,-0.000239,1,-0.057329,-1.307751, 9.718893,1,1
1778778096277,  2790.035,  2790.035, 0.004160, 0.131868,-0.983360, 0.000049, 0.001327,-0.009813,-0.016602,-0.014958, 0.075367,1, 0.002801,-0.005009, 0.000208,1,-0.057245,-1.308054, 9.718853,1,1
1778778096298,  2790.060,  2790.055, 0.006187, 0.139409,-0.981437, 0.000062, 0.001384,-0.009823, 0.000971,-0.018464,-0.024820,1,-0.003221, 0.002093,-0.000193,1,-0.057014,-1.308167, 9.718839,1,1
1778778096320,  2790.080,  2790.075, 0.004105, 0.131490,-0.994941, 0.000036, 0.001320,-0.009924,-0.008464, 0.047671, 0.100083,1, 0.004260,-0.001369, 0.000461,1,-0.057453,-1.308252, 9.718825,1,1
1778778096347,  2790.105,  2790.105, 0.008307, 0.131199,-0.994831, 0.000084, 0.001295,-0.009972, 0.024829,-0.020798,-0.037017,1,-0.003063, 0.000812,-0.000795,1,-0.056663,-1.307516, 9.718928,1,1
1778778096368,  2790.130,  2790.125, 0.003809, 0.135045,-0.990521, 0.000041, 0.001358,-0.009884,-0.010422, 0.062798, 0.105561,1, 0.001088, 0.001542, 0.000044,1,-0.057211,-1.307812, 9.718885,1,1
1778778096391,  2790.150,  2790.150, 0.004213, 0.135991,-0.994416, 0.000044, 0.001348,-0.009966,-0.015304, 0.026486,-0.032909,1,-0.000765, 0.001684,-0.000699,1,-0.056670,-1.307156, 9.718977,1,1
1778778096417,  2790.175,  2790.175,-0.003349, 0.139933,-0.979726,-0.000035, 0.001411,-0.009788,-0.089520, 0.065581, 0.111211,1, 0.006442,-0.001602, 0.000049,1,-0.056633,-1.306494, 9.719067,1,1
1778778096439,  2790.200,  2790.195, 0.011580, 0.128460,-0.986710, 0.000114, 0.001272,-0.009900,-0.004849,-0.075113,-0.065540,1, 0.000782,-0.000008, 0.000479,1,-0.056242,-1.305647, 9.719182,1,1
1778778096461,  2790.220,  2790.220, 0.006230, 0.133067,-0.971216, 0.000071, 0.001338,-0.009703, 0.003433,-0.001419, 0.194705,1, 0.001486, 0.001917,-0.000018,1,-0.057718,-1.306317, 9.719084,1,1
1778778096487,  2790.245,  2790.245, 0.005710, 0.123187,-0.996905, 0.000051, 0.001232,-0.009956,-0.001295,-0.097939,-0.057172,1,-0.000597,-0.002438, 0.000528,1,-0.057213,-1.306009, 9.719128,1,1
1778778096509,  2790.270,  2790.265, 0.010299, 0.136710,-0.975102, 0.000104, 0.001376,-0.009737, 0.039039, 0.044901, 0.150239,1,-0.006805, 0.006416,-0.000041,1,-0.058250,-1.307361, 9.718940,1,1
1778778096531,  2790.290,  2790.290, 0.012393, 0.125425,-1.001598, 0.000114, 0.001256,-0.010015, 0.064042,-0.076440,-0.103258,1, 0.002702,-0.002514, 0.000440,1,-0.057414,-1.306359, 9.719080,1,1
1778778096557,  2790.315,  2790.315, 0.008091, 0.138910,-0.973503, 0.000089, 0.001384,-0.009752, 0.021345, 0.055292, 0.172190,1,-0.002291, 0.003801,-0.000060,1,-0.058119,-1.307021, 9.718987,1,1
1778778096579,  2790.340,  2790.335, 0.004762, 0.125840,-1.004718, 0.000051, 0.001260,-0.010043,-0.012130,-0.038851,-0.035186,1, 0.005528,-0.006084,-0.000108,1,-0.057518,-1.306048, 9.719121,1,1
1778778096601,  2790.360,  2790.360, 0.007035, 0.137415,-0.983684, 0.000073, 0.001372,-0.009849, 0.011877, 0.041404, 0.072461,1,-0.000526, 0.001679,-0.001165,1,-0.057156,-1.306193, 9.719104,1,1
1778778096627,  2790.385,  2790.385, 0.003985, 0.132041,-0.991525, 0.000043, 0.001323,-0.009909,-0.017755,-0.011270,-0.004427,1,-0.001527,-0.001874, 0.000544,1,-0.056780,-1.306200, 9.719105,1,1
1778778096649,  2790.410,  2790.405,-0.000005, 0.138861,-0.981614, 0.000007, 0.001386,-0.009824,-0.003354, 0.007157, 0.034409,1,-0.003708, 0.000783,-0.000082,1,-0.056862,-1.307005, 9.718996,1,1
1778778096672,  2790.430,  2790.430,-0.001414, 0.133970,-0.994898,-0.000022, 0.001347,-0.009917,-0.070556, 0.007188,-0.037563,1, 0.005399,-0.005017, 0.000107,1,-0.056531,-1.306447, 9.719073,1,1
1778778096697,  2790.455,  2790.455, 0.009016, 0.133826,-0.989264, 0.000089, 0.001322,-0.009930, 0.031927, 0.005517, 0.017647,1,-0.008220, 0.004207,-0.000219,1,-0.056618,-1.307117, 9.718983,1,1
1778778096719,  2790.480,  2790.475, 0.002436, 0.130811,-0.985810, 0.000025, 0.001315,-0.009833,-0.000563, 0.063627, 0.211613,1, 0.002800, 0.000917, 0.000799,1,-0.057640,-1.307799, 9.718884,1,1
1778778096742,  2790.505,  2790.500, 0.003740, 0.133076,-0.988419, 0.000031, 0.001315,-0.009904,-0.020588,-0.001833, 0.025933,1,-0.001731, 0.004886,-0.000188,1,-0.057411,-1.306920, 9.719005,1,1
1778778096767,  2790.525,  2790.525, 0.006367, 0.135881,-0.984249, 0.000060, 0.001369,-0.009833, 0.004752, 0.025732, 0.066836,1, 0.001613, 0.000661, 0.000953,1,-0.057715,-1.306759, 9.719025,1,1
1778778096789,  2790.550,  2790.545, 0.013481, 0.132245,-0.981564, 0.000148, 0.001303,-0.009840, 0.089499,-0.064961,-0.011261,1,-0.001220, 0.000261,-0.000288,1,-0.057809,-1.306774, 9.719022,1,1
1778778096812,  2790.575,  2790.570, 0.001552, 0.134584,-0.976203, 0.000019, 0.001354,-0.009735,-0.042931, 0.013070, 0.145744,1, 0.005179,-0.003296,-0.000366,1,-0.058044,-1.306589, 9.719046,1,1
1778778096838,  2790.595,  2790.595, 0.007707, 0.124022,-1.008572, 0.000068, 0.001240,-0.010085, 0.018580,-0.089214,-0.171510,1, 0.002055,-0.003978,-0.000353,1,-0.056880,-1.305391, 9.719213,1,1
1778778096859,  2790.620,  2790.615, 0.008055, 0.132698,-0.980801, 0.000087, 0.001337,-0.009786, 0.083669, 0.031776, 0.125664,1,-0.001831, 0.001532,-0.000939,1,-0.057357,-1.306108, 9.719114,1,1
1778778096882,  2790.645,  2790.640, 0.005091, 0.125584,-0.996016, 0.000044, 0.001249,-0.009965,-0.006517,-0.074441,-0.048450,1,-0.005746, 0.000577,-0.000461,1,-0.056459,-1.306181, 9.719110,1,1
1778778096908,  2790.665,  2790.665, 0.002739, 0.138557,-0.980764, 0.000023, 0.001384,-0.009802,-0.029986, 0.051886, 0.100999,1, 0.000365, 0.001538, 0.000332,1,-0.056900,-1.306884, 9.719012,1,1
1778778096929,  2790.690,  2790.685, 0.005252, 0.127657,-1.001488, 0.000049, 0.001276,-0.010025,-0.023798,-0.034065,-0.090302,1, 0.002669,-0.005154, 0.000076,1,-0.056122,-1.306140, 9.719117,1,1
1778778096952,  2790.715,  2790.710, 0.006659, 0.137931,-0.973853, 0.000065, 0.001373,-0.009755, 0.008505, 0.045045, 0.168679,1,-0.009452, 0.007476, 0.000555,1,-0.057032,-1.307885, 9.718877,1,1
1778778096978,  2790.735,  2790.735, 0.000680, 0.132362,-0.981247, 0.000010, 0.001333,-0.009782,-0.050657,-0.009961, 0.096116,1, 0.005190,-0.003300, 0.000862,1,-0.057226,-1.307830, 9.718884,1,1
1778778096999,  2790.760,  2790.755, 0.001236, 0.140491,-0.983735, 0.000017, 0.001400,-0.009846,-0.032087, 0.004729,-0.038502,1, 0.001854, 0.001254,-0.000707,1,-0.056893,-1.306793, 9.719025,1,1
1778778097022,  2790.785,  2790.780, 0.007307, 0.130681,-0.997092, 0.000060, 0.001316,-0.009956, 0.014865,-0.024725,-0.059036,1, 0.000200,-0.000722, 0.000743,1,-0.056775,-1.306257, 9.719097,1,1
1778778097048,  2790.805,  2790.805, 0.012249, 0.134296,-0.978262, 0.000128, 0.001326,-0.009802, 0.062653, 0.009637, 0.125467,1,-0.006752, 0.006263,-0.000502,1,-0.057660,-1.307568, 9.718916,1,1
1778778097069,  2790.830,  2790.825,-0.000189, 0.130180,-0.997309,-0.000006, 0.001308,-0.009947,-0.029338, 0.025412, 0.115629,1, 0.009447,-0.003522,-0.000465,1,-0.057856,-1.306779, 9.719021,1,1
1778778097096,  2790.855,  2790.855, 0.012232, 0.134052,-0.992148, 0.000117, 0.001323,-0.009953, 0.062601, 0.008395,-0.010552,1,-0.006231, 0.003814,-0.000944,1,-0.057468,-1.306400, 9.719074,1,1
1778778097118,  2790.875,  2790.875, 0.009045, 0.135889,-0.975972, 0.000094, 0.001368,-0.009756, 0.030816, 0.025718, 0.147991,1, 0.000970, 0.000763, 0.000009,1,-0.057906,-1.306867, 9.719008,1,1
1778778097139,  2790.900,  2790.895, 0.007913, 0.131116,-0.989982, 0.000087, 0.001299,-0.009936, 0.028567,-0.071525,-0.073279,1, 0.002599,-0.002877,-0.000791,1,-0.057074,-1.306040, 9.719125,1,1
1778778097166,  2790.925,  2790.925, 0.000976, 0.136294,-0.978169, 0.000012, 0.001384,-0.009755,-0.048089, 0.030254, 0.126523,1, 0.006186,-0.003558,-0.000065,1,-0.057547,-1.306147, 9.719108,1,1
1778778097188,  2790.950,  2790.945, 0.010983, 0.131636,-0.991425, 0.000105, 0.001294,-0.009946, 0.015064,-0.084228,-0.162937,1,-0.001026,-0.003654,-0.000571,1,-0.056304,-1.305437, 9.719211,1,1
1778778097210,  2790.970,  2790.965, 0.009110, 0.136554,-0.975168, 0.000095, 0.001370,-0.009735, 0.060001, 0.041076, 0.140762,1,-0.004713, 0.004614,-0.000687,1,-0.057097,-1.306681, 9.719039,1,1
1778778097237,  2790.995,  2790.995, 0.002497, 0.127696,-0.995864, 0.000020, 0.001276,-0.009955,-0.032096,-0.054135,-0.047016,1,-0.001535,-0.000961, 0.000715,1,-0.056557,-1.306451, 9.719072,1,1
1778778097258,  2791.020,  2791.015, 0.001002, 0.136779,-0.984697, 0.000010, 0.001377,-0.009829,-0.027437, 0.053293, 0.093918,1, 0.000340, 0.001620, 0.000368,1,-0.057026,-1.307009, 9.718995,1,1
1778778097280,  2791.040,  2791.035, 0.009180, 0.127834,-0.999912, 0.000085, 0.001281,-0.010007,-0.021810,-0.018183,-0.058711,1, 0.002609,-0.002752, 0.000352,1,-0.056558,-1.306259, 9.719098,1,1
1778778097307,  2791.065,  2791.065, 0.003748, 0.138819,-0.970361, 0.000043, 0.001387,-0.009711,-0.020604, 0.054009, 0.202954,1,-0.004565, 0.007216,-0.000281,1,-0.057586,-1.307485, 9.718927,1,1
1778778097328,  2791.090,  2791.085, 0.000755, 0.124900,-1.005088, 0.000005, 0.001243,-0.010053,-0.060819,-0.041197, 0.019865,1, 0.009920,-0.006845,-0.000061,1,-0.057158,-1.306188, 9.719105,1,1
1778778097350,  2791.110,  2791.105, 0.005528, 0.137353,-0.981690, 0.000061, 0.001369,-0.009822,-0.000118,-0.023620,-0.038830,1,-0.002361, 0.003543,-0.001316,1,-0.056948,-1.305820, 9.719155,1,1
1778778097377,  2791.135,  2791.135, 0.010910, 0.127729,-0.993580, 0.000104, 0.001283,-0.009928, 0.049879,-0.053359,-0.024554,1,-0.001597,-0.000804, 0.000320,1,-0.057086,-1.306002, 9.719130,1,1
1778778097398,  2791.160,  2791.155, 0.003073, 0.140842,-0.977146, 0.000039, 0.001404,-0.009768, 0.029068, 0.013873, 0.093087,1,-0.002741, 0.002554,-0.000385,1,-0.057674,-1.306871, 9.719009,1,1
1778778097420,  2791.180,  2791.175, 0.002453, 0.131594,-1.000645, 0.000015, 0.001323,-0.009987,-0.063300, 0.039766, 0.056910,1, 0.007089,-0.002583, 0.000549,1,-0.057738,-1.305975, 9.719130,1,1
1778778097447,  2791.205,  2791.205, 0.014647, 0.134929,-0.986246, 0.000144, 0.001333,-0.009897, 0.086134, 0.017325, 0.047377,1,-0.005009, 0.005934, 0.000288,1,-0.057692,-1.306034, 9.719122,1,1
1778778097468,  2791.230,  2791.225, 0.003746, 0.126946,-0.988414, 0.000039, 0.001277,-0.009858, 0.003148, 0.014456, 0.174906,1, 0.003950,-0.001357, 0.000131,1,-0.058014,-1.306056, 9.719117,1,1
1778778097490,  2791.250,  2791.245, 0.003937, 0.133415,-0.986080, 0.000042, 0.001312,-0.009888,-0.019727,-0.072773,-0.053461,1,-0.000824, 0.001003,-0.000144,1,-0.057679,-1.305586, 9.719182,1,1
1778778097517,  2791.275,  2791.275, 0.003731, 0.134111,-0.988487, 0.000038, 0.001353,-0.009864,-0.021302, 0.009400, 0.025404,1, 0.003823,-0.004447, 0.000101,1,-0.057752,-1.305664, 9.719172,1,1
1778778097538,  2791.300,  2791.295, 0.010027, 0.135965,-0.980303, 0.000105, 0.001343,-0.009824, 0.027247,-0.049524,-0.042424,1,-0.005302, 0.000002,-0.000328,1,-0.057177,-1.306082, 9.719118,1,1
1778778097560,  2791.320,  2791.315, 0.006213, 0.135569,-0.976598, 0.000062, 0.001367,-0.009748, 0.036322, 0.057612, 0.173313,1,-0.001619, 0.003364, 0.000114,1,-0.057932,-1.306951, 9.718997,1,1
1778778097587,  2791.345,  2791.345, 0.004773, 0.128431,-0.999871, 0.000042, 0.001284,-0.009993,-0.010378,-0.046371,-0.086238,1, 0.002680,-0.002990,-0.000361,1,-0.057088,-1.305770, 9.719161,1,1
1778778097608,  2791.370,  2791.365, 0.004443, 0.135060,-0.984795, 0.000039, 0.001360,-0.009827,-0.016016, 0.042963, 0.094055,1,-0.000119, 0.000594,-0.000879,1,-0.057261,-1.305936, 9.719138,1,1
1778778097631,  2791.390,  2791.390, 0.010356, 0.128118,-0.994560, 0.000097, 0.001276,-0.009962, 0.044675,-0.049511,-0.034160,1,-0.004727, 0.002881,-0.000391,1,-0.056973,-1.306070, 9.719121,1,1
1778778097657,  2791.415,  2791.415, 0.002528, 0.137840,-0.976533, 0.000038, 0.001381,-0.009763,-0.032731, 0.045362, 0.142554,1, 0.002783, 0.001194,-0.000196,1,-0.057557,-1.306301, 9.719087,1,1
1778778097679,  2791.440,  2791.435, 0.005125, 0.128893,-1.000815, 0.000044, 0.001282,-0.010028,-0.063437,-0.042446,-0.092173,1, 0.002675,-0.002656, 0.000197,1,-0.057025,-1.305264, 9.719230,1,1
1778778097701,  2791.460,  2791.460, 0.007129, 0.138290,-0.977242, 0.000080, 0.001385,-0.009776, 0.012081, 0.050002, 0.135634,1,-0.001537, 0.003754, 0.000224,1,-0.057944,-1.306209, 9.719097,1,1
1778778097727,  2791.485,  2791.485, 0.005393, 0.126947,-0.991402, 0.000056, 0.001277,-0.009889,-0.004824,-0.060494,-0.003127,1, 0.005401,-0.004224,-0.000317,1,-0.057583,-1.305256, 9.719227,1,1
1778778097749,  2791.510,  2791.505, 0.006312, 0.137865,-0.974393, 0.000069, 0.001380,-0.009736, 0.031307, 0.002670, 0.082871,1,-0.003679, 0.005032,-0.000557,1,-0.058116,-1.305672, 9.719168,1,1
1778778097771,  2791.530,  2791.530, 0.006679, 0.125537,-1.000895, 0.000061, 0.001254,-0.009995, 0.007667,-0.074042,-0.096186,1, 0.000602,-0.003802,-0.000508,1,-0.057714,-1.305121, 9.719244,1,1
1778778097797,  2791.555,  2791.555, 0.009922, 0.134948,-0.979304, 0.000098, 0.001333,-0.009813, 0.039486, 0.017289, 0.115415,1,-0.006965, 0.002339, 0.000228,1,-0.057887,-1.306318, 9.719083,1,1
1778778097819,  2791.580,  2791.575, 0.001447, 0.130325,-0.995755, 0.000018, 0.001313,-0.009944,-0.027015, 0.017099, 0.101809,1, 0.003098,-0.003700, 0.000730,1,-0.057627,-1.306207, 9.719099,1,1
1778778097842,  2791.600,  2791.600, 0.007708, 0.135283,-0.989432, 0.000079, 0.001345,-0.009913, 0.018233, 0.020346, 0.016070,1,-0.000851, 0.002611,-0.000224,1,-0.057438,-1.306354, 9.719080,1,1
1778778097867,  2791.625,  2791.625, 0.004314, 0.133923,-0.983270, 0.000050, 0.001346,-0.009823,-0.015003, 0.007715, 0.076596,1, 0.004982,-0.002971, 0.000233,1,-0.057216,-1.305464, 9.719201,1,1
1778778097889,  2791.650,  2791.645, 0.005153, 0.136599,-0.980892, 0.000060, 0.001352,-0.009823, 0.010587,-0.046409, 0.012881,1,-0.005667, 0.002342, 0.000043,1,-0.057036,-1.305804, 9.719157,1,1
1778778097912,  2791.670,  2791.670, 0.001588, 0.136605,-0.987931, 0.000012, 0.001381,-0.009845,-0.042024, 0.033656, 0.030836,1, 0.008537,-0.004706,-0.000190,1,-0.057449,-1.305714, 9.719167,1,1
1778778097937,  2791.695,  2791.695, 0.009546, 0.127552,-1.007718, 0.000079, 0.001268,-0.010096, 0.036984,-0.053890,-0.163039,1,-0.000549, 0.000233,-0.000998,1,-0.056632,-1.304764, 9.719298,1,1
1778778097959,  2791.720,  2791.715, 0.006280, 0.135174,-0.974683, 0.000060, 0.001364,-0.009729, 0.036961, 0.060107, 0.169801,1,-0.005591, 0.004467, 0.000004,1,-0.057467,-1.306006, 9.719127,1,1
1778778097982,  2791.745,  2791.740, 0.004717, 0.126648,-0.998442, 0.000042, 0.001265,-0.009988,-0.010861,-0.063800,-0.072219,1,-0.000768,-0.000121,-0.000411,1,-0.057110,-1.305818, 9.719154,1,1
1778778098007,  2791.765,  2791.765, 0.005350, 0.137684,-0.980485, 0.000059, 0.001381,-0.009806,-0.005098, 0.044171, 0.103843,1, 0.001446,-0.000198,-0.000177,1,-0.057556,-1.306000, 9.719128,1,1
1778778098029,  2791.790,  2791.785, 0.012932, 0.126246,-0.989224, 0.000131, 0.001260,-0.009918, 0.047832,-0.064517,-0.049091,1,-0.002676,-0.000717, 0.000965,1,-0.057252,-1.305718, 9.719167,1,1
1778778098052,  2791.815,  2791.810, 0.003781, 0.139233,-0.967240, 0.000052, 0.001392,-0.009670,-0.021640, 0.057544, 0.233488,1,-0.001053, 0.002601,-0.000944,1,-0.058800,-1.307898, 9.718864,1,1
1778778098078,  2791.835,  2791.835,-0.003738, 0.130029,-1.004303,-0.000038, 0.001306,-0.010011,-0.094241,-0.031415,-0.129798,1, 0.007850,-0.009080,-0.000933,1,-0.057300,-1.306318, 9.719086,1,1
1778778098099,  2791.860,  2791.855, 0.010430, 0.141960,-0.981387, 0.000103, 0.001418,-0.009817, 0.043609, 0.043367,-0.015632,1,-0.005883, 0.002433,-0.001283,1,-0.057401,-1.306977, 9.718997,1,1
1778778098122,  2791.885,  2791.880, 0.004667, 0.131826,-0.992232, 0.000048, 0.001322,-0.009908,-0.011478,-0.014116,-0.011461,1, 0.002114,-0.002453, 0.000014,1,-0.057168,-1.306825, 9.719019,1,1
1778778098148,  2791.905,  2791.905,-0.001307, 0.137444,-0.984654,-0.000009, 0.001361,-0.009860,-0.070266, 0.041128, 0.062874,1, 0.002021, 0.002434,-0.001077,1,-0.057528,-1.306676, 9.719036,1,1
1778778098169,  2791.930,  2791.925, 0.006176, 0.125216,-1.000636, 0.000056, 0.001264,-0.010005,-0.059519,-0.008568,-0.007681,1, 0.007130,-0.001634, 0.000178,1,-0.057492,-1.305287, 9.719223,1,1
1778778098192,  2791.955,  2791.950, 0.014661, 0.129327,-0.975831, 0.000153, 0.001283,-0.009785, 0.085801,-0.037802, 0.149484,1,-0.008736, 0.006790, 0.000246,1,-0.058187,-1.306341, 9.719078,1,0
1778778098218,  2791.975,  2791.975, 0.005031, 0.131733,-0.970180, 0.000059, 0.001329,-0.009681,-0.009921,-0.015390, 0.204734,1, 0.000195, 0.002182, 0.000398,1,-0.059328,-1.307246, 9.718949,1,0
1778778098239,  2792.000,  2791.995, 0.008559, 0.133354,-0.990299, 0.000086, 0.001309,-0.009921,-0.000194,-0.084868,-0.067385,1, 0.000819,-0.000637, 0.000659,1,-0.059017,-1.306805, 9.719010,1,0
1778778098262,  2792.025,  2792.020, 0.009988, 0.132997,-0.990437, 0.000101, 0.001341,-0.009882, 0.039099,-0.002431, 0.006163,1, 0.002720,-0.006104, 0.000922,1,-0.058669,-1.306597, 9.719041,1,0
1778778098288,  2792.045,  2792.045, 0.018719, 0.130311,-0.988350, 0.000174, 0.001299,-0.009902, 0.124872,-0.029479, 0.026530,1,-0.006509, 0.003123, 0.000208,1,-0.058797,-1.307598, 9.718905,1,0
1778778098309,  2792.070,  2792.065, 0.001523, 0.139149,-0.981251, 0.000014, 0.001394,-0.009788, 0.020935, 0.080819, 0.175265,1, 0.005097, 0.000180,-0.000291,1,-0.059153,-1.307849, 9.718869,1,0
1778778098336,  2792.095,  2792.095, 0.001992, 0.127875,-1.011413, 0.000007, 0.001272,-0.010122,-0.037612,-0.051213,-0.199345,1, 0.002388,-0.003159,-0.000728,1,-0.057046,-1.305168, 9.719242,1,0
1778778098358,  2792.115,  2792.115, 0.006117, 0.139416,-0.976964, 0.000068, 0.001387,-0.009769, 0.002351, 0.061006, 0.138356,1,-0.007070, 0.002629,-0.000057,1,-0.057720,-1.306419, 9.719070,1,0
1778778098380,  2792.140,  2792.135, 0.001989, 0.130738,-0.994896, 0.000020, 0.001297,-0.009958,-0.027251,-0.043172, 0.006272,1,-0.000395,-0.004083, 0.000162,1,-0.057163,-1.306455, 9.719069,1,0
1778778098407,  2792.165,  2792.165,-0.003211, 0.140171,-0.975214,-0.000029, 0.001391,-0.009743,-0.089010, 0.067843, 0.155444,1, 0.003671, 0.000232,-0.000203,1,-0.057526,-1.306648, 9.719040,1,0
1778778098428,  2792.190,  2792.185, 0.002685, 0.130775,-0.999810, 0.000016, 0.001300,-0.010017,-0.074575,-0.045743,-0.090019,1, 0.001251,-0.004775, 0.000017,1,-0.056635,-1.305483, 9.719202,1,0
1778778098450,  2792.210,  2792.205, 0.009273, 0.139698,-0.974912, 0.000101, 0.001394,-0.009752, 0.026012, 0.010639, 0.059667,1,-0.009310, 0.005937, 0.000126,1,-0.057383,-1.307006, 9.718993,1,0
1778778098477,  2792.235,  2792.235, 0.000826, 0.128301,-0.989792, 0.000008, 0.001294,-0.009877,-0.049712,-0.048026, 0.012555,1, 0.009475,-0.002994, 0.000572,1,-0.057724,-1.305934, 9.719135,1,0
1778778098498,  2792.260,  2792.255, 0.007667, 0.135390,-0.978892, 0.000088, 0.001346,-0.009810, 0.053878,-0.043809,-0.043363,1,-0.000422, 0.005381,-0.000525,1,-0.058108,-1.305167, 9.719236,1,0
1778778098520,  2792.275,  2792.275, 0.006177, 0.133365,-0.975407, 0.000049, 0.001357,-0.009743, 0.001770, 0.002386, 0.153714,1, 0.001370, 0.001090,-0.000071,1,-0.058844,-1.305434, 9.719195,1,0
1778778098547,  2792.305,  2792.305, 0.013996, 0.126205,-0.981902, 0.000147, 0.001237,-0.009857, 0.078684,-0.068171, 0.089974,1,-0.005054, 0.004017,-0.000468,1,-0.058677,-1.305980, 9.719123,1,0
1778778098568,  2792.330,  2792.325, 0.007225, 0.126570,-0.998495, 0.000074, 0.001264,-0.009958, 0.013055,-0.018617, 0.132750,1, 0.007189,-0.003889,-0.000572,1,-0.058565,-1.305306, 9.719214,1,0
1778778098590,  2792.350,  2792.345, 0.005788, 0.130740,-0.988348, 0.000061, 0.001284,-0.009908, 0.006284,-0.099142,-0.136813,1,-0.004644,-0.001855,-0.000331,1,-0.057707,-1.305451, 9.719200,1,0
1778778098617,  2792.375,  2792.375, 0.007821, 0.138472,-0.985294, 0.000071, 0.001396,-0.009826, 0.018686, 0.051156, 0.056584,1, 0.001979,-0.002641,-0.000346,1,-0.057931,-1.306726, 9.719028,1,0
1778778098638,  2792.400,  2792.395, 0.007053, 0.134484,-0.979122, 0.000068, 0.001337,-0.009790, 0.046300,-0.027177,-0.014448,1,-0.004869, 0.001120, 0.000248,1,-0.057742,-1.307060, 9.718984,1,0
1778778098660,  2792.420,  2792.415, 0.002107, 0.139238,-0.984698, 0.000034, 0.001397,-0.009825, 0.032294, 0.084384, 0.135709,1, 0.001021, 0.001469,-0.000439,1,-0.058366,-1.307493, 9.718922,1,0
1778778098687,  2792.445,  2792.445, 0.009128, 0.131743,-0.995251, 0.000081, 0.001319,-0.009948, 0.031323,-0.015604,-0.041168,1,-0.000597,-0.000565, 0.000449,1,-0.058177,-1.307576, 9.718912,1,0
1778778098708,  2792.470,  2792.465, 0.007843, 0.137517,-0.974232, 0.000073, 0.001396,-0.009738, 0.057033, 0.060603, 0.121902,1, 0.001198, 0.002135, 0.001036,1,-0.058245,-1.307108, 9.718974,1,0
1778778098730,  2792.490,  2792.485, 0.003139, 0.131163,-0.990114, 0.000028, 0.001308,-0.009889,-0.008990,-0.028769, 0.117832,1, 0.005473,-0.000156, 0.001009,1,-0.058634,-1.306449, 9.719061,1,0
1778778098757,  2792.515,  2792.515, 0.016698, 0.141297,-0.979429, 0.000187, 0.001408,-0.009822, 0.103428, 0.079458, 0.114165,1,-0.000222, 0.004975, 0.000346,1,-0.060483,-1.306203, 9.719082,1,0
1778778098779,  2792.540,  2792.535, 0.004003, 0.124863,-0.993208, 0.000059, 0.001258,-0.009929, 0.026889,-0.044589, 0.056114,1, 0.009524,-0.005308, 0.000074,1,-0.060077,-1.304791, 9.719275,1,0
1778778098800,  2792.560,  2792.555,-0.022128, 0.134939,-0.961788,-0.000236, 0.001338,-0.009601,-0.212096,-0.086973, 0.176939,1,-0.004854, 0.000524,-0.000306,1,-0.059364,-1.304713, 9.719290,1,0
1778778098827,  2792.585,  2792.585, 0.009808, 0.128704,-1.025777, 0.000060, 0.001298,-0.010201, 0.037262,-0.042184,-0.340094,1, 0.004156,-0.005573,-0.001308,1,-0.058745,-1.304211, 9.719360,1,0
1778778098849,  2792.610,  2792.605,-0.026635, 0.140395,-0.962281,-0.000250, 0.001423,-0.009589,-0.129581, 0.009531, 0.177525,1,-0.010565, 0.000251,-0.000805,1,-0.059033,-1.305804, 9.719145,1,0
1778778098871,  2792.630,  2792.630,-0.008937, 0.119216,-1.021272,-0.000118, 0.001217,-0.010185,-0.143298,-0.134285,-0.295774,1, 0.000530,-0.003726,-0.000153,1,-0.055543,-1.303376, 9.719491,1,0
1778778098897,  2792.655,  2792.655, 0.030396, 0.135633,-0.983871, 0.000325, 0.001378,-0.009884, 0.239860, 0.024067, 0.070641,1,-0.003455, 0.013196, 0.000799,1,-0.058633,-1.306147, 9.719101,1,0
1778778098919,  2792.680,  2792.675, 0.016767, 0.123739,-1.000843, 0.000173, 0.001264,-0.010021, 0.041357, 0.059779,-0.041896,1, 0.006532,-0.000167,-0.000087,1,-0.058600,-1.305417, 9.719199,1,0
1778778098942,  2792.700,  2792.700, 0.015878, 0.136766,-0.972324, 0.000140, 0.001369,-0.009761, 0.095635, 0.034567, 0.183779,1,-0.006592, 0.016600, 0.001155,1,-0.060566,-1.306836, 9.718997,1,0
1778778098967,  2792.725,  2792.725, 0.016230, 0.133292,-1.004183, 0.000180, 0.001353,-0.009971, 0.099042, 0.001929,-0.128458,1, 0.014918,-0.013268, 0.000507,1,-0.059707,-1.304754, 9.719282,1,0
1778778098989,  2792.750,  2792.745, 0.022923, 0.138130,-0.976147, 0.000235, 0.001367,-0.009791, 0.184750,-0.022968,-0.066795,1,-0.013226, 0.007340,-0.000371,1,-0.060231,-1.305384, 9.719193,1,0
1778778099012,  2792.770,  2792.770, 0.012240, 0.137972,-0.962284, 0.000144, 0.001385,-0.009618, 0.058333, 0.045864, 0.282157,1,-0.002889, 0.001215, 0.000366,1,-0.061738,-1.307265, 9.718931,1,0
1778778099037,  2792.795,  2792.795,-0.008818, 0.133462,-0.986997,-0.000094, 0.001321,-0.009836,-0.146753, 0.002392, 0.039922,1, 0.008850,-0.012401,-0.001448,1,-0.059887,-1.306148, 9.719093,1,0
1778778099059,  2792.820,  2792.815, 0.006006, 0.141206,-0.990987, 0.000039, 0.001419,-0.009901,-0.107443, 0.079600,-0.000909,1,-0.002277,-0.003246,-0.001653,1,-0.058511,-1.305388, 9.719204,1,0
1778778099082,  2792.840,  2792.840, 0.017839, 0.130610,-0.987131, 0.000197, 0.001288,-0.009913, 0.117227,-0.025939, 0.038570,1,-0.016117, 0.005543,-0.000381,1,-0.057881,-1.307279, 9.718953,1,0
1778778099107,  2792.865,  2792.865,-0.016567, 0.142146,-0.949601,-0.000148, 0.001437,-0.009446,-0.221016, 0.085472, 0.406379,1, 0.006594,-0.005366,-0.000548,1,-0.058382,-1.308298, 9.718813,1,0
1778778099129,  2792.890,  2792.885, 0.017315, 0.127473,-1.020036, 0.000155, 0.001237,-0.010273,-0.071337,-0.089775,-0.395352,1, 0.012755,-0.004762,-0.000201,1,-0.056054,-1.304268, 9.719369,1,0
1778778099152,  2792.910,  2792.910, 0.020059, 0.140049,-0.965146, 0.000199, 0.001407,-0.009620, 0.137334, 0.066660, 0.254162,1,-0.002201, 0.005231, 0.001905,1,-0.059552,-1.306819, 9.719006,1,0
1778778099178,  2792.935,  2792.935, 0.013183, 0.127248,-0.986448, 0.000134, 0.001247,-0.009859, 0.069049,-0.058830, 0.045268,1,-0.005638, 0.008337, 0.000252,1,-0.060493,-1.306885, 9.718990,1,0
1778778099199,  2792.960,  2792.955,-0.019281, 0.140430,-0.990359,-0.000196, 0.001428,-0.009846,-0.164126, 0.093990, 0.228456,1, 0.007130, 0.000089, 0.000046,1,-0.061814,-1.306929, 9.718976,1,0
1778778099222,  2792.985,  2792.980,-0.011467, 0.123952,-1.025378,-0.000142, 0.001258,-0.010208, 0.031990,-0.086016,-0.432207,1,-0.006136, 0.000197, 0.000908,1,-0.058879,-1.303379, 9.719471,1,0
1778778099248,  2793.005,  2793.005, 0.017011, 0.134890,-0.953018, 0.000183, 0.001329,-0.009561, 0.105850, 0.015671, 0.373037,1,-0.023105, 0.014257, 0.000965,1,-0.061416,-1.307858, 9.718854,1,0
1778778099269,  2793.030,  2793.025, 0.014656, 0.120953,-1.008633, 0.000164, 0.001201,-0.010106, 0.124628,-0.104813, 0.072221,1, 0.010835,-0.005463,-0.000998,1,-0.061382,-1.306929, 9.718979,1,0
1778778099292,  2793.055,  2793.050,-0.011366, 0.143733,-0.953471,-0.000106, 0.001449,-0.009512,-0.174983, 0.101167, 0.368416,1, 0.005106,-0.002911,-0.000314,1,-0.063427,-1.308211, 9.718794,1,0
1778778099318,  2793.075,  2793.075, 0.016478, 0.114266,-1.044395, 0.000146, 0.001152,-0.010435, 0.101490,-0.183996,-0.522714,1, 0.006352,-0.010033, 0.000260,1,-0.059790,-1.304361, 9.719334,1,0
1778778099339,  2793.100,  2793.095, 0.016402, 0.144670,-0.943541, 0.000138, 0.001483,-0.009347, 0.010774, 0.151785, 0.475956,1,-0.034070, 0.021359, 0.001060,1,-0.063490,-1.311082, 9.718406,1,0
1778778099362,  2793.125,  2793.120, 0.024122, 0.124195,-1.028322, 0.000271, 0.001208,-0.010336, 0.174143,-0.088919,-0.365414,1, 0.001504, 0.007221,-0.000315,1,-0.062635,-1.306810, 9.718987,1,0
1778778099388,  2793.145,  2793.145,-0.002018, 0.145627,-0.936865,-0.000042, 0.001494,-0.009311,-0.085748, 0.119220, 0.531179,1, 0.009538, 0.002364, 0.002805,1,-0.066044,-1.308599, 9.718724,1,0
1778778099409,  2793.170,  2793.165, 0.026100, 0.142948,-0.975188, 0.000272, 0.001397,-0.009876, 0.212446,-0.144640,-0.403273,1,-0.004125, 0.005369, 0.000327,1,-0.063960,-1.304656, 9.719268,1,0
1778778099432,  2793.195,  2793.190, 0.055145, 0.128244,-0.958215, 0.000526, 0.001346,-0.009498, 0.471109,-0.052869, 0.321560,1, 0.027489,-0.005563, 0.002405,1,-0.069518,-1.309658, 9.718556,1,0
1778778099458,  2793.215,  2793.215, 0.026912, 0.138512,-0.967410, 0.000319, 0.001352,-0.009790, 0.194126, 0.052130, 0.231968,1, 0.001246, 0.018694, 0.001856,1,-0.070378,-1.306172, 9.719020,1,0
1778778099479,  2793.240,  2793.235, 0.015243, 0.114012,-0.989012, 0.000199, 0.001117,-0.009889, 0.147692,-0.157550, 0.295797,1, 0.017470, 0.006337, 0.002816,1,-0.073664,-1.305152, 9.719132,1,0
1778778099502,  2793.265,  2793.260, 0.028362, 0.136593,-0.969711, 0.000255, 0.001381,-0.009696, 0.200351, 0.032410, 0.209217,1,-0.018073, 0.021658, 0.004071,1,-0.078474,-1.307672, 9.718756,1,0
1778778099528,  2793.285,  2793.285, 0.039342, 0.145727,-0.969973, 0.000416, 0.001457,-0.009731, 0.305769, 0.120802, 0.206475,1,-0.002082, 0.007678, 0.004014,1,-0.080294,-1.308352, 9.718650,1,0
1778778099550,  2793.310,  2793.305, 0.012800, 0.146525,-0.976395, 0.000159, 0.001452,-0.009716, 0.191629, 0.043595, 0.389718,1, 0.018721, 0.003031, 0.002700,1,-0.082427,-1.307711, 9.718719,1,0
1778778099577,  2793.335,  2793.335, 0.033290, 0.127108,-1.021925, 0.000313, 0.001266,-0.010260, 0.243590,-0.054846,-0.302096,1, 0.009445, 0.016835, 0.001902,1,-0.083398,-1.301055, 9.719604,1,0
1778778099598,  2793.355,  2793.355, 0.043553, 0.150510,-1.033187, 0.000401, 0.001520,-0.010276, 0.343734, 0.178145,-0.412073,1, 0.024867,-0.002930, 0.002451,1,-0.083298,-1.297089, 9.720134,1,0
1778778099620,  2793.380,  2793.375, 0.068262, 0.152343,-1.004949, 0.000674, 0.001505,-0.010029, 0.686665, 0.015106,-0.271461,1,-0.005605, 0.021243, 0.000428,1,-0.086912,-1.296597, 9.720168,1,0
1778778099647,  2793.405,  2793.405, 0.078015, 0.126302,-1.028361, 0.000808, 0.001213,-0.010263, 0.674213,-0.055470,-0.364305,1, 0.015866, 0.004271,-0.001630,1,-0.090974,-1.293578, 9.720533,1,0
1778778099668,  2793.430,  2793.425, 0.083044, 0.112950,-1.040058, 0.000839, 0.001084,-0.010449, 0.696692,-0.184793,-0.597606,1, 0.013986, 0.004394,-0.000257,1,-0.091284,-1.289866, 9.721024,1,0
1778778099690,  2793.450,  2793.445, 0.089734, 0.106785,-0.998018, 0.000901, 0.001115,-0.009996, 0.716417, 0.029451,-0.153060,1,-0.010659, 0.011484, 0.000290,1,-0.092971,-1.291755, 9.720757,1,0
1778778099717,  2793.475,  2793.475, 0.076485, 0.140376,-0.982247, 0.000769, 0.001399,-0.009840, 0.655226, 0.082237, 0.087834,1,-0.003959, 0.004505,-0.000197,1,-0.094973,-1.294506, 9.720371,1,0
1778778099738,  2793.500,  2793.495, 0.083203, 0.136868,-0.996825, 0.000841, 0.001390,-0.009975, 0.767167,-0.047244,-0.158241,1,-0.000080,-0.002214, 0.001398,1,-0.095014,-1.294815, 9.720329,1,0
1778778099760,  2793.520,  2793.515, 0.084050, 0.137330,-0.983972, 0.000817, 0.001355,-0.009846, 0.644130,-0.145006,-0.022494,1,-0.002924,-0.009602, 0.003555,1,-0.093288,-1.293847, 9.720475,1,0
1778778099787,  2793.545,  2793.545, 0.079401, 0.126741,-0.981737, 0.000792, 0.001224,-0.009819, 0.687292,-0.052649, 0.092716,1,-0.014035,-0.003657, 0.004248,1,-0.091271,-1.295991, 9.720209,1,0
1778778099808,  2793.570,  2793.565, 0.073427, 0.128042,-0.992774, 0.000735, 0.001270,-0.009908, 0.673163, 0.046089, 0.214212,1, 0.008312,-0.015574, 0.004058,1,-0.089999,-1.296087, 9.720208,1,0
1778778099830,  2793.590,  2793.585, 0.079824, 0.122022,-0.988785, 0.000804, 0.001290,-0.009894, 0.668718, 0.152957,-0.029846,1, 0.009512,-0.009896, 0.004152,1,-0.087190,-1.293882, 9.720528,1,0
1778778099857,  2793.615,  2793.615, 0.084672, 0.143849,-0.972512, 0.000847, 0.001442,-0.009731, 0.744505, 0.116979, 0.183473,1, 0.005123,-0.003873, 0.005804,1,-0.085751,-1.293541, 9.720586,1,0
1778778099878,  2793.640,  2793.635, 0.090718, 0.139950,-0.956089, 0.000894, 0.001444,-0.009554, 0.761142, 0.026430, 0.222558,1,-0.010629, 0.010096, 0.004698,1,-0.086745,-1.295261, 9.720347,1,0
1778778099900,  2793.660,  2793.655, 0.089669, 0.137762,-0.967140, 0.000884, 0.001346,-0.009692, 0.786002,-0.082069, 0.248253,1, 0.005989,-0.003146, 0.004927,1,-0.087097,-1.294406, 9.720458,1,0
1778778099927,  2793.685,  2793.685, 0.095743, 0.119187,-0.967793, 0.000969, 0.001140,-0.009663, 0.851722,-0.122294, 0.230085,1, 0.008922,-0.003113, 0.004892,1,-0.087121,-1.290844, 9.720932,1,0
1778778099949,  2793.710,  2793.705, 0.108242, 0.130872,-0.997945, 0.001084, 0.001247,-0.009992, 1.044773,-0.147936, 0.019759,1, 0.012397,-0.001136, 0.006213,1,-0.087209,-1.287721, 9.721345,1,0
1778778099970,  2793.730,  2793.725, 0.103016, 0.130824,-0.997666, 0.001031, 0.001290,-0.009947, 0.946926, 0.247352, 0.035787,1, 0.016305,-0.003203, 0.006557,1,-0.087122,-1.286108, 9.721560,1,0
1778778099997,  2793.755,  2793.755, 0.117536, 0.143682,-0.985943, 0.001166, 0.001494,-0.009851, 1.065868, 0.126053, 0.053173,1, 0.023240,-0.000567, 0.008378,1,-0.086780,-1.282265, 9.722071,1,0
1778778100019,  2793.780,  2793.775, 0.144419, 0.128902,-0.997255, 0.001470, 0.001357,-0.009971, 1.256518, 0.222829,-0.092284,1, 0.023745, 0.005032, 0.007842,1,-0.087110,-1.278481, 9.722566,1,0
1778778100040,  2793.800,  2793.795, 0.143533, 0.133426,-0.992141, 0.001401, 0.001349,-0.009934, 1.234193,-0.067399,-0.079446,1, 0.016070,-0.000746, 0.008605,1,-0.087268,-1.274500, 9.723086,1,0
1778778100067,  2793.825,  2793.825, 0.142802, 0.114912,-0.992623, 0.001439, 0.001094,-0.009950, 1.312388,-0.142701,-0.010587,1, 0.003512, 0.006925, 0.010196,1,-0.088281,-1.269495, 9.723733,1,0
1778778100089,  2793.850,  2793.845, 0.177584, 0.112955,-0.998835, 0.001745, 0.001092,-0.009991, 1.594192,-0.266965, 0.070155,1, 0.013520,-0.002566, 0.014110,1,-0.089946,-1.266498, 9.724108,1,0
1778778100112,  2793.870,  2793.870, 0.187003, 0.104193,-0.966336, 0.001868, 0.001015,-0.009626, 1.740577,-0.243116, 0.247762,1, 0.003413, 0.010569, 0.014929,1,-0.093680,-1.264794, 9.724295,1,0
1778778100137,  2793.895,  2793.895, 0.184548, 0.115651,-0.960344, 0.001850, 0.001244,-0.009617, 1.740577,-0.243116, 0.247762,1, 0.003413, 0.010569, 0.014929,1,-0.093680,-1.264794, 9.724295,1,0
1778778100159,  2793.920,  2793.915, 0.194795, 0.135378,-0.979936, 0.001917, 0.001412,-0.009784, 1.810642, 0.120942, 0.144502,1, 0.017470, 0.008270, 0.015564,1,-0.100103,-1.260645, 9.724770,1,0
1778778100182,  2793.940,  2793.940, 0.200150, 0.148791,-0.978879, 0.002011, 0.001460,-0.009806, 1.858824, 0.203077, 0.125798,1, 0.024047, 0.008804, 0.014045,1,-0.104302,-1.255311, 9.725415,1,0
1778778100207,  2793.965,  2793.965, 0.183921, 0.128183,-0.983337, 0.001809, 0.001266,-0.009851, 1.697411, 0.004724, 0.082533,1, 0.010750, 0.021256, 0.012843,1,-0.106952,-1.251983, 9.725815,1,0
1778778100229,  2793.990,  2793.985, 0.180633, 0.115005,-0.995542, 0.001786, 0.001145,-0.009979, 1.633149, 0.014999, 0.085584,1, 0.025864, 0.006458, 0.014034,1,-0.109557,-1.247309, 9.726387,1,0
1778778100252,  2794.010,  2794.005, 0.186566, 0.111128,-0.999644, 0.001875, 0.001149,-0.009951, 1.743213,-0.022040, 0.060766,1, 0.024678, 0.013031, 0.012320,1,-0.112942,-1.242825, 9.726922,1,0
1778778100277,  2794.035,  2794.035, 0.188213, 0.122316,-0.974654, 0.001892, 0.001199,-0.009780, 1.729370,-0.039589, 0.169265,1,-0.001976, 0.018324, 0.015435,1,-0.116996,-1.239159, 9.727342,1,0
1778778100299,  2794.060,  2794.055, 0.190890, 0.119504,-0.989054, 0.001899, 0.001164,-0.009881, 1.659256,-0.240387, 0.053329,1, 0.005389, 0.014409, 0.017691,1,-0.119943,-1.238302, 9.727415,1,0
1778778100322,  2794.080,  2794.080, 0.202495, 0.120932,-1.005300, 0.002009, 0.001231,-0.010075, 1.862569,-0.052043,-0.131215,1,-0.000776, 0.012802, 0.019403,1,-0.123698,-1.238001, 9.727407,1,0
1778778100348,  2794.105,  2794.105, 0.174509, 0.137046,-0.988944, 0.001774, 0.001372,-0.009868, 1.587303, 0.106689, 0.029265,1, 0.015511,-0.010003, 0.020368,1,-0.123818,-1.236752, 9.727564,1,0
1778778100369,  2794.130,  2794.125, 0.191691, 0.130325,-0.976473, 0.001933, 0.001304,-0.009792, 1.745824,-0.123076,-0.087663,1,-0.007862, 0.010439, 0.020989,1,-0.124758,-1.235711, 9.727684,1,0
1778778100392,  2794.150,  2794.150, 0.202575, 0.108001,-0.980902, 0.002031, 0.001064,-0.009843, 1.858480,-0.175601, 0.108397,1,-0.000786, 0.013869, 0.023588,1,-0.128624,-1.234743, 9.727757,1,0
1778778100418,  2794.175,  2794.175, 0.177079, 0.113915,-0.980557, 0.001741, 0.001197,-0.009758, 1.606334,-0.117166, 0.111810,1, 0.003772, 0.011041, 0.024333,1,-0.130660,-1.234162, 9.727803,1,0
1778778100439,  2794.200,  2794.195, 0.199948, 0.135341,-0.970034, 0.001992, 0.001363,-0.009687, 1.905244,-0.002066, 0.179356,1, 0.001745, 0.003525, 0.021814,1,-0.133413,-1.234677, 9.727700,1,0
1778778100462,  2794.225,  2794.220, 0.211418, 0.121546,-0.970806, 0.002122, 0.001189,-0.009704, 1.939216,-0.041294, 0.207516,1, 0.000491,-0.004837, 0.022063,1,-0.134024,-1.233229, 9.727876,1,0
1778778100488,  2794.245,  2794.245, 0.180565, 0.109930,-0.964106, 0.001779, 0.001136,-0.009631, 1.636832,-0.154240, 0.273343,1,-0.010355, 0.009382, 0.024355,1,-0.134296,-1.232599, 9.727952,1,0
1778778100509,  2794.270,  2794.265, 0.201725, 0.118691,-0.992683, 0.001991, 0.001192,-0.009884, 1.884784, 0.099760, 0.224334,1, 0.011475,-0.005851, 0.024314,1,-0.136292,-1.233175, 9.727851,1,0
1778778100532,  2794.295,  2794.290, 0.194413, 0.139813,-0.966971, 0.002052, 0.001392,-0.009695, 1.769754, 0.138806, 0.245208,1, 0.011177,-0.020521, 0.024975,1,-0.136252,-1.231936, 9.728008,1,0
1778778100558,  2794.315,  2794.315, 0.211776, 0.108030,-0.984036, 0.002004, 0.001090,-0.009881, 1.939961,-0.173091, 0.077828,1,-0.010264, 0.020484, 0.024112,1,-0.137586,-1.232813, 9.727879,1,0
1778778100579,  2794.340,  2794.335, 0.225364, 0.128016,-0.962953, 0.002116, 0.001340,-0.009553, 1.732855,-0.009120, 0.386511,1,-0.011300, 0.002184, 0.027574,1,-0.138630,-1.234830, 9.727608,1,0
1778778100602,  2794.365,  2794.360, 0.179151, 0.119648,-0.977640, 0.001877, 0.001116,-0.009811, 1.615894,-0.061422, 0.140211,1,-0.010875,-0.005873, 0.029154,1,-0.140906,-1.235089, 9.727543,1,0
1778778100628,  2794.385,  2794.385, 0.217488, 0.104933,-0.999172, 0.002128, 0.001107,-0.009935, 1.989799,-0.207472,-0.071202,1,-0.008727, 0.005317, 0.030407,1,-0.143316,-1.236772, 9.727294,1,0
1778778100650,  2794.410,  2794.405, 0.173159, 0.128352,-0.952349, 0.001690, 0.001333,-0.009438, 1.761846, 0.068862, 0.338084,1,-0.007378, 0.000191, 0.032996,1,-0.144312,-1.239003, 9.726995,1,0
1778778100672,  2794.435,  2794.430, 0.207749, 0.114420,-1.025818, 0.002116, 0.001078,-0.010296, 1.893068,-0.115851,-0.332703,1,-0.017793,-0.001864, 0.035907,1,-0.144335,-1.238463, 9.727063,1,0
1778778100698,  2794.455,  2794.455, 0.170049, 0.153885,-0.952987, 0.001641, 0.001517,-0.009510, 1.520586, 0.265796, 0.380790,1,-0.011841, 0.008045, 0.037106,1,-0.147426,-1.243654, 9.726355,1,0
1778778100720,  2794.480,  2794.475, 0.162586, 0.138752,-0.976184, 0.001692, 0.001354,-0.009865, 1.799070,-0.230750,-0.585979,1,-0.014627,-0.011014, 0.037773,1,-0.145456,-1.243284, 9.726432,1,0
1778778100742,  2794.505,  2794.500, 0.153566, 0.116939,-1.006307, 0.001451, 0.001176,-0.009904, 1.360495,-0.101280,-0.142684,1, 0.004865,-0.024061, 0.042674,1,-0.144895,-1.247870, 9.725853,1,0
1778778100768,  2794.525,  2794.525, 0.146546, 0.137040,-0.999054, 0.001476, 0.001294,-0.010052, 1.291694, 0.089469,-0.072379,1,-0.079418, 0.021611, 0.039715,1,-0.146255,-1.256876, 9.724672,1,0
1778778100790,  2794.550,  2794.545, 0.104214, 0.101608,-1.040081, 0.001027, 0.001005,-0.010334, 0.971329, 0.002653, 0.184654,1, 0.003368,-0.044599, 0.045664,1,-0.144076,-1.261540, 9.724101,1,0
1778778100817,  2794.575,  2794.575, 0.081039, 0.145870,-0.952952, 0.000837, 0.001452,-0.009568, 0.654810, 0.160899, 0.377847,1,-0.059793,-0.008620, 0.045475,1,-0.139827,-1.271430, 9.722875,1,0
1778778100838,  2794.595,  2794.595, 0.090250, 0.119070,-1.020830, 0.000909, 0.001241,-0.010133, 0.749554,-0.107269,-0.288446,1,-0.009812,-0.049639, 0.048084,1,-0.134153,-1.275229, 9.722458,1,0
1778778100860,  2794.620,  2794.615, 0.031012, 0.147952,-0.955749, 0.000322, 0.001490,-0.009574, 0.331836, 0.161993,-0.051678,1,-0.047131,-0.027149, 0.048437,1,-0.127755,-1.281769, 9.721684,1,0
1778778100887,  2794.645,  2794.645, 0.060568, 0.139402,-1.024598, 0.000642, 0.001404,-0.010202, 0.474146, 0.077900,-0.327065,1,-0.011653,-0.050527, 0.053361,1,-0.118482,-1.289504, 9.720778,1,0
1778778100908,  2794.670,  2794.665, 0.031547, 0.177111,-0.977861, 0.000319, 0.001803,-0.009721, 0.177018, 0.273307, 0.100411,1,-0.042650,-0.028988, 0.043765,1,-0.113537,-1.297764, 9.719738,1,0
1778778100930,  2794.690,  2794.685, 0.040790, 0.167142,-1.011761, 0.000323, 0.001622,-0.010161, 0.006984, 0.211003,-0.261371,1,-0.014504,-0.054182, 0.048767,1,-0.104100,-1.300235, 9.719513,1,0
1778778100957,  2794.715,  2794.715, 0.037599, 0.182942,-0.962782, 0.000386, 0.001878,-0.009608, 0.268381, 0.484126, 0.276587,1,-0.018218,-0.031192, 0.046291,1,-0.099568,-1.310468, 9.718186,1,0
1778778100979,  2794.740,  2794.735, 0.038314, 0.174883,-0.985580, 0.000382, 0.001698,-0.009878, 0.303397, 0.321005, 0.075614,1, 0.009962,-0.031176, 0.043839,1,-0.094540,-1.308122, 9.718553,1,0
1778778101000,  2794.760,  2794.755, 0.052021, 0.167080,-0.959275, 0.000503, 0.001710,-0.009576, 0.290848, 0.394703, 0.268360,1, 0.002131,-0.007168, 0.047352,1,-0.092914,-1.307690, 9.718626,1,0
1778778101027,  2794.785,  2794.785, 0.050923, 0.172549,-0.962490, 0.000513, 0.001706,-0.009608, 0.407109, 0.390648, 0.280661,1, 0.034364,-0.012569, 0.047108,1,-0.092084,-1.300406, 9.719611,1,0
1778778101049,  2794.810,  2794.805, 0.065065, 0.157678,-0.979479, 0.000669, 0.001548,-0.009817, 0.456078, 0.188696, 0.098127,1, 0.027265, 0.004811, 0.051159,1,-0.092785,-1.294458, 9.720399,1,0
1778778101070,  2794.830,  2794.825, 0.060276, 0.150563,-0.981642, 0.000582, 0.001484,-0.009810, 0.419256, 0.110650, 0.189575,1, 0.032230,-0.000269, 0.055565,1,-0.094301,-1.288154, 9.721222,1,0
1778778101097,  2794.855,  2794.855, 0.069446, 0.133548,-0.991096, 0.000691, 0.001315,-0.009901, 0.582957, 0.031224, 0.003135,1, 0.026468, 0.013086, 0.059034,1,-0.098719,-1.277595, 9.722571,1,0
1778778101119,  2794.880,  2794.875, 0.064738, 0.120535,-0.994147, 0.000690, 0.001163,-0.009955, 0.714164,-0.065101, 0.026217,1, 0.029805, 0.007389, 0.063402,1,-0.102865,-1.272108, 9.723248,1,0
1778778101140,  2794.900,  2794.895, 0.085183, 0.112902,-1.005517, 0.000837, 0.001135,-0.010062, 0.440435,-0.023886, 0.001787,1, 0.024031, 0.010037, 0.065741,1,-0.104998,-1.265780, 9.724051,1,0
1778778101167,  2794.925,  2794.925, 0.061046, 0.130315,-0.979731, 0.000659, 0.001267,-0.009872, 0.488588, 0.014936, 0.116469,1, 0.003790, 0.014942, 0.065689,1,-0.110793,-1.262882, 9.724363,1,0
1778778101189,  2794.950,  2794.945, 0.045675, 0.130849,-0.989498, 0.000494, 0.001318,-0.009886, 0.620799,-0.070619,-0.001617,1, 0.024572,-0.002380, 0.066276,1,-0.114474,-1.260537, 9.724625,1,0
1778778101210,  2794.970,  2794.965, 0.054889, 0.136328,-0.987943, 0.000591, 0.001428,-0.009881, 0.424315, 0.205807, 0.035371,1, 0.021712, 0.004941, 0.062044,1,-0.116028,-1.256384, 9.725143,1,0
1778778101237,  2794.995,  2794.995, 0.054294, 0.152073,-0.977906, 0.000504, 0.001520,-0.009809, 0.415134, 0.240663, 0.135886,1, 0.023593, 0.002533, 0.057426,1,-0.117612,-1.249908, 9.725959,1,0
1778778101259,  2795.020,  2795.015, 0.022814, 0.130331,-0.982679, 0.000165, 0.001296,-0.009837, 0.201580, 0.063240,-0.149035,1, 0.032349,-0.024634, 0.059177,1,-0.114875,-1.243739, 9.726783,1,0
1778778101280,  2795.040,  2795.035, 0.004703, 0.114462,-1.015005, 0.000088, 0.001137,-0.010128, 0.278581,-0.036461,-0.190268,1, 0.035286,-0.038200, 0.054114,1,-0.111723,-1.237706, 9.727589,1,0
1778778101307,  2795.065,  2795.065, 0.043151, 0.123092,-0.997693, 0.000418, 0.001262,-0.009944, 0.315901,-0.029418,-0.056235,1,-0.003095,-0.019486, 0.052116,1,-0.106866,-1.236616, 9.727782,1,0
1778778101329,  2795.090,  2795.085, 0.042655, 0.106895,-0.980527, 0.000390, 0.001081,-0.009824, 0.091882,-0.120762,-0.089951,1,-0.020390,-0.016484, 0.055296,1,-0.102958,-1.238706, 9.727558,1,0
1778778101352,  2795.110,  2795.110, 0.031395, 0.118952,-0.988984, 0.000289, 0.001217,-0.009872, 0.207217,-0.078157, 0.028199,1,-0.029118,-0.009902, 0.057090,1,-0.100580,-1.245565, 9.726707,1,0
1778778101377,  2795.135,  2795.135, 0.050321, 0.129536,-0.953808, 0.000558, 0.001243,-0.009570, 0.390797, 0.016954, 0.372017,1,-0.051480,-0.001094, 0.056718,1,-0.102879,-1.254935, 9.725479,1,0
1778778101399,  2795.160,  2795.155, 0.053401, 0.132756,-0.963274, 0.000559, 0.001354,-0.009631, 0.411093, 0.016973, 0.303983,1,-0.030842,-0.003540, 0.058385,1,-0.103661,-1.261358, 9.724640,1,0
1778778101422,  2795.180,  2795.180, 0.075275, 0.142410,-0.977795, 0.000739, 0.001480,-0.009747, 0.632435, 0.129100, 0.134926,1,-0.012472,-0.004065, 0.059260,1,-0.105875,-1.267836, 9.723773,1,0
1778778101448,  2795.205,  2795.205, 0.060575, 0.152886,-0.981071, 0.000555, 0.001534,-0.009786, 0.487392, 0.229796, 0.102527,1,-0.017068, 0.005683, 0.057379,1,-0.107052,-1.270015, 9.723476,1,0
1778778101469,  2795.230,  2795.225, 0.074672, 0.162617,-0.976934, 0.000665, 0.001535,-0.009765, 0.433361, 0.037864, 0.053118,1,-0.020048, 0.006907, 0.062280,1,-0.109437,-1.273344, 9.723014,1,0
1778778101492,  2795.250,  2795.250, 0.076104, 0.148520,-0.978740, 0.000792, 0.001473,-0.009792, 0.630968, 0.179695, 0.124335,1,-0.014659, 0.015499, 0.061106,1,-0.116085,-1.277216, 9.722429,1,0
1778778101518,  2795.275,  2795.275, 0.118160, 0.163357,-0.974406, 0.001188, 0.001651,-0.009704, 1.037993, 0.324872, 0.166730,1, 0.019209, 0.002721, 0.061519,1,-0.121092,-1.276493, 9.722463,1,0
1778778101539,  2795.300,  2795.295, 0.114357, 0.163264,-0.949116, 0.001106, 0.001693,-0.009446, 0.522245, 0.359346, 0.374090,1,-0.012080, 0.033854, 0.060696,1,-0.124897,-1.276471, 9.722418,1,0
1778778101562,  2795.320,  2795.320, 0.067676, 0.149600,-0.998566, 0.000648, 0.001451,-0.010065, 0.536931, 0.194829,-0.069643,1, 0.005021, 0.011276, 0.061178,1,-0.127340,-1.272063, 9.722963,1,0
1778778101588,  2795.345,  2795.345, 0.077929, 0.141422,-1.009934, 0.000843, 0.001448,-0.010000, 0.635603, 0.116319,-0.180925,1, 0.019046,-0.024232, 0.064108,1,-0.128133,-1.269943, 9.723230,1,0
1778778101609,  2795.370,  2795.365, 0.073863, 0.150518,-1.009571, 0.000792, 0.001455,-0.010094, 0.792561, 0.230593,-0.266891,1, 0.007547, 0.001473, 0.061303,1,-0.129017,-1.268273, 9.723436,1,0
1778778101632,  2795.390,  2795.390, 0.075249, 0.131823,-1.019185, 0.000765, 0.001320,-0.010285, 0.609933, 0.026554,-0.271066,1, 0.002323,-0.001371, 0.063349,1,-0.128225,-1.266093, 9.723731,1,0
1778778101658,  2795.415,  2795.415, 0.081852, 0.148161,-1.017804, 0.000795, 0.001557,-0.010186, 0.673554, 0.186152,-0.257621,1, 0.008663, 0.000869, 0.065047,1,-0.129425,-1.266513, 9.723660,1,0
1778778101679,  2795.440,  2795.435, 0.077567, 0.136876,-1.008530, 0.000733, 0.001381,-0.010041, 0.636225, 0.314754,-0.091670,1, 0.010878,-0.007785, 0.063984,1,-0.130789,-1.265486, 9.723776,1,0
1778778101702,  2795.465,  2795.460, 0.087941, 0.151988,-0.985596, 0.000864, 0.001494,-0.009889, 0.729370, 0.224452, 0.058276,1,-0.011667, 0.002682, 0.063288,1,-0.133371,-1.266376, 9.723625,1,0
1778778101728,  2795.485,  2795.485, 0.080102, 0.138329,-0.979488, 0.000841, 0.001354,-0.009826, 0.651509, 0.090481, 0.118163,1,-0.000942,-0.008105, 0.063380,1,-0.134032,-1.266067, 9.723657,1,0
1778778101749,  2795.510,  2795.505, 0.064891, 0.144066,-0.981745, 0.000641, 0.001371,-0.009841, 0.669296,-0.065919,-0.056398,1, 0.011176,-0.022690, 0.065287,1,-0.132735,-1.264362, 9.723896,1,0
