Time,GPS_ts,fGPS_ts,scaledAccelX,scaledAccelY,scaledAccelZ,deltaVelX,deltaVelY,deltaVelZ,estLinearAccelX,estLinearAccelY,estLinearAccelZ,estLinearAccel:valid,estAngularRateX,estAngularRateY,estAngularRateZ,estAngularRate:valid,estGravityX,estGravityY,estGravityZ,estGravity:valid,flag
1778777819618,  2486.199,  2486.199, 0.009324, 0.125636,-0.982102, 0.000073, 0.001263,-0.009814,-0.054300, 0.042725, 0.102038,1,-0.001719, 0.001432,-0.001070,1,-0.145777,-1.189397, 9.733163,1,0
1778777819618,  2486.224,  2486.219, 0.017743, 0.129159,-0.989845, 0.000186, 0.001281,-0.009940, 0.056317,-0.000115,-0.089795,1,-0.001166,-0.001719,-0.000270,1,-0.145326,-1.189309, 9.733181,1,0
1778777819618,  2486.244,  2486.244, 0.008714, 0.124448,-0.980633, 0.000082, 0.001261,-0.009788,-0.061190, 0.031095, 0.116436,1, 0.006385,-0.001151, 0.000561,1,-0.146607,-1.189127, 9.733184,1,0
1778777819618,  2486.269,  2486.269, 0.020258, 0.112891,-1.003639, 0.000202, 0.001125,-0.010047, 0.052582,-0.081218,-0.109040,1,-0.000427,-0.002156,-0.000174,1,-0.146014,-1.188315, 9.733292,1,0
1778777819618,  2486.294,  2486.289, 0.017645, 0.122036,-0.973298, 0.000173, 0.001229,-0.009714, 0.008458, 0.007318, 0.199128,1,-0.010386, 0.005079, 0.000070,1,-0.146886,-1.189879, 9.733088,1,0
1778777819618,  2486.319,  2486.319, 0.019288, 0.121348,-0.997798, 0.000201, 0.001202,-0.009981, 0.042780,-0.001483,-0.052160,1,-0.006066,-0.001945,-0.000220,1,-0.146306,-1.191693, 9.732875,1,0
1778777819618,  2486.344,  2486.339, 0.010990, 0.122002,-0.991482, 0.000088, 0.001233,-0.009884,-0.108235, 0.068734, 0.086797,1,-0.003557, 0.000678, 0.001863,1,-0.146471,-1.192951, 9.732718,1,0
1778777819618,  2486.369,  2486.364, 0.019101, 0.121373,-0.997095, 0.000199, 0.001215,-0.009989, 0.041311,-0.002613,-0.045427,1, 0.002561, 0.001357, 0.002066,1,-0.146057,-1.192803, 9.732742,1,0
1778777819618,  2486.394,  2486.389, 0.016245, 0.115619,-0.987187, 0.000155, 0.001171,-0.009849,-0.036626, 0.007013, 0.153834,1,-0.000648, 0.003239, 0.001618,1,-0.146825,-1.192930, 9.732716,1,0
1778777819618,  2486.414,  2486.409, 0.014982, 0.120515,-0.997199, 0.000164, 0.001192,-0.009999, 0.035957,-0.071666,-0.093261,1, 0.000427,-0.001483, 0.001162,1,-0.146575,-1.192544, 9.732766,1,0
1778777819618,  2486.434,  2486.429, 0.011531, 0.123413,-0.982077, 0.000107, 0.001241,-0.009809,-0.035655, 0.038429, 0.096789,1,-0.001730, 0.006179, 0.000541,1,-0.147660,-1.193125, 9.732678,1,0
1778777819632,  2513.419,  2513.419, 0.011816, 0.121459,-0.994507, 0.000112, 0.001215,-0.009925, 0.002592,-0.033546,-0.023565,1, 0.001856,-0.002657,-0.000313,1,-0.113202,-1.224598, 9.729231,1,0
1778777819653,  2513.444,  2513.439, 0.007171, 0.129624,-0.976474, 0.000078, 0.001295,-0.009774, 0.008827, 0.022980, 0.020167,1,-0.004811, 0.002502, 0.000482,1,-0.113330,-1.225278, 9.729143,1,0
1778777819675,  2513.464,  2513.459, 0.013133, 0.121837,-0.994927, 0.000124, 0.001222,-0.009932,-0.042325, 0.012657, 0.109506,1, 0.003017,-0.001403, 0.000055,1,-0.113458,-1.225233, 9.729148,1,0
1778777819702,  2513.489,  2513.489, 0.013460, 0.126976,-0.986259, 0.000147, 0.001261,-0.009894, 0.018788, 0.019956, 0.057253,1,-0.003029, 0.004029, 0.000021,1,-0.113332,-1.225351, 9.729135,1,0
1778777819723,  2513.514,  2513.509, 0.012516, 0.121723,-0.997215, 0.000115, 0.001221,-0.009955,-0.044238, 0.006492, 0.104653,1, 0.003616,-0.001513, 0.000440,1,-0.113546,-1.224967, 9.729180,1,0
1778777819746,  2513.534,  2513.534, 0.013708, 0.125591,-0.988087, 0.000144, 0.001247,-0.009908, 0.021150, 0.006504, 0.039339,1,-0.004749, 0.002521,-0.000157,1,-0.113354,-1.225268, 9.729144,1,0
1778777819772,  2513.559,  2513.559, 0.009082, 0.126433,-0.981080, 0.000083, 0.001272,-0.009786,-0.024532, 0.014666, 0.108037,1, 0.003283,-0.001970,-0.000394,1,-0.113536,-1.225124, 9.729160,1,0
1778777819793,  2513.584,  2513.579, 0.012273, 0.125443,-0.987377, 0.000135, 0.001248,-0.009900, 0.046990,-0.044567,-0.084351,1,-0.002316, 0.000053,-0.000449,1,-0.113133,-1.224986, 9.729182,1,0
1778777819816,  2513.604,  2513.604, 0.007838, 0.125530,-0.983169, 0.000071, 0.001264,-0.009808,-0.036810, 0.005864, 0.087555,1, 0.002825,-0.001256,-0.000112,1,-0.113630,-1.225074, 9.729166,1,0
1778777819842,  2513.629,  2513.629, 0.015552, 0.120055,-1.000200, 0.000154, 0.001197,-0.010014, 0.039359,-0.047594,-0.079421,1,-0.002401,-0.000476,-0.000065,1,-0.113135,-1.225010, 9.729179,1,0
1778777819864,  2513.654,  2513.649, 0.008516, 0.125631,-0.982622, 0.000080, 0.001265,-0.009807,-0.038550, 0.039622, 0.153973,1, 0.000783, 0.001879,-0.000104,1,-0.113534,-1.225411, 9.729124,1,0
1778777819886,  2513.674,  2513.674, 0.014563, 0.120215,-0.999494, 0.000150, 0.001195,-0.010008, 0.029633,-0.045979,-0.072493,1,-0.001185,-0.000802,-0.000764,1,-0.113157,-1.224925, 9.729190,1,0
1778777819912,  2513.699,  2513.699, 0.006404, 0.129370,-0.976941, 0.000069, 0.001291,-0.009771,-0.050590, 0.043550, 0.148645,1, 0.000731, 0.000389,-0.000256,1,-0.113404,-1.225115, 9.729163,1,0
1778777819934,  2513.724,  2513.719, 0.016894, 0.120369,-0.998715, 0.000167, 0.001195,-0.010000, 0.033752,-0.035742,-0.045920,1, 0.000549,-0.001849,-0.000370,1,-0.113125,-1.224764, 9.729211,1,0
1778777819956,  2513.744,  2513.744, 0.007274, 0.129314,-0.975984, 0.000079, 0.001290,-0.009758,-0.042297, 0.042916, 0.158012,1, 0.001658, 0.001568,-0.000291,1,-0.113678,-1.225173, 9.729153,1,0
1778777819982,  2513.769,  2513.769, 0.012706, 0.121237,-0.997490, 0.000120, 0.001216,-0.009958, 0.011319,-0.035763,-0.052822,1, 0.001044,-0.002834,-0.000120,1,-0.113193,-1.224660, 9.729223,1,0
1778777820004,  2513.794,  2513.789, 0.010703, 0.128870,-0.976222, 0.000109, 0.001287,-0.009766, 0.022361, 0.012753, 0.053018,1,-0.003439, 0.004268,-0.000492,1,-0.113473,-1.225242, 9.729146,1,0
1778777820027,  2513.814,  2513.814, 0.014710, 0.121237,-0.995514, 0.000144, 0.001213,-0.009940, 0.030769,-0.035905,-0.033460,1, 0.002418,-0.003146,-0.000379,1,-0.113391,-1.224757, 9.729208,1,0
1778777820052,  2513.839,  2513.839, 0.009366, 0.127832,-0.983908, 0.000106, 0.001268,-0.009867,-0.021578, 0.028341, 0.080306,1,-0.004691, 0.001755,-0.000080,1,-0.113478,-1.225412, 9.729125,1,0
1778777820074,  2513.864,  2513.859, 0.015107, 0.121365,-1.001395, 0.000145, 0.001219,-0.010000,-0.029257,-0.002122, 0.052126,1, 0.002877,-0.002391,-0.000029,1,-0.113426,-1.225177, 9.729156,1,0
1778777820097,  2513.889,  2513.884, 0.012712, 0.127235,-0.983452, 0.000136, 0.001271,-0.009861, 0.011587, 0.022477, 0.084776,1,-0.001579, 0.002520,-0.000173,1,-0.113155,-1.225320, 9.729140,1,0
1778777820122,  2513.909,  2513.909, 0.007716, 0.124202,-0.983295, 0.000068, 0.001248,-0.009807,-0.037592,-0.007019, 0.086346,1, 0.003298,-0.001585, 0.000017,1,-0.113214,-1.224926, 9.729189,1,0
1778777820144,  2513.934,  2513.929, 0.010487, 0.127378,-0.985533, 0.000105, 0.001269,-0.009873, 0.008071,-0.034054,-0.071566,1,-0.004559, 0.001049,-0.000469,1,-0.112925,-1.225157, 9.729163,1,0
1778777820167,  2513.959,  2513.954, 0.011771, 0.126121,-0.986178, 0.000107, 0.001264,-0.009838, 0.002105, 0.011311, 0.058012,1, 0.003273,-0.001087,-0.000231,1,-0.113273,-1.225419, 9.729126,1,0
1778777820192,  2513.979,  2513.979, 0.017834, 0.121544,-0.994403, 0.000189, 0.001206,-0.009967, 0.061707,-0.033387,-0.022625,1,-0.002069, 0.002398, 0.000202,1,-0.113263,-1.225390, 9.729130,1,0
1778777820214,  2514.004,  2513.999, 0.007175, 0.123666,-0.988970, 0.000066, 0.001241,-0.009865,-0.066026, 0.020385, 0.161516,1, 0.003192, 0.000784,-0.000343,1,-0.113818,-1.225298, 9.729136,1,0
1778777820237,  2514.029,  2514.024, 0.014286, 0.121808,-0.999007, 0.000143, 0.001208,-0.010015, 0.026946,-0.030573,-0.067741,1,-0.004813, 0.000264,-0.000518,1,-0.113154,-1.225254, 9.729149,1,0
1778777820263,  2514.049,  2514.049, 0.010223, 0.128967,-0.977171, 0.000103, 0.001294,-0.009768,-0.013289, 0.039067, 0.146316,1, 0.001318, 0.000538,-0.000314,1,-0.113558,-1.225626, 9.729097,1,0
1778777820284,  2514.074,  2514.069, 0.013217, 0.121617,-0.994114, 0.000141, 0.001203,-0.009961, 0.040628,-0.052255,-0.047320,1, 0.001438,-0.001526,-0.000322,1,-0.113302,-1.225207, 9.729153,1,0
1778777820307,  2514.099,  2514.094, 0.004874, 0.128159,-0.979037, 0.000040, 0.001285,-0.009775,-0.065831, 0.031214, 0.128025,1, 0.000582, 0.000303, 0.000701,1,-0.113636,-1.225580, 9.729102,1,0
1778777820333,  2514.119,  2514.119, 0.018337, 0.120147,-1.001986, 0.000176, 0.001204,-0.010020, 0.066742,-0.047289,-0.097009,1,-0.001520,-0.001766,-0.000126,1,-0.113027,-1.225580, 9.729109,1,0
1778777820354,  2514.144,  2514.139, 0.008693, 0.127597,-0.976016, 0.000087, 0.001283,-0.009748, 0.012702, 0.028131, 0.143770,1,-0.000684, 0.003196, 0.000081,1,-0.113436,-1.226054, 9.729045,1,0
1778777820377,  2514.169,  2514.164, 0.010316, 0.120060,-1.000393, 0.000108, 0.001202,-0.009996,-0.012088,-0.047877,-0.081359,1, 0.000410,-0.002523,-0.000943,1,-0.113179,-1.225247, 9.729149,1,0
1778777820403,  2514.189,  2514.189, 0.008764, 0.127036,-0.984352, 0.000093, 0.001269,-0.009860,-0.027505, 0.019939, 0.075877,1,-0.002539, 0.002027, 0.000220,1,-0.113514,-1.225938, 9.729058,1,0
1778777820424,  2514.214,  2514.209, 0.017368, 0.120508,-0.996737, 0.000171, 0.001209,-0.009963, 0.024915,-0.009248, 0.026728,1, 0.003587,-0.002778,-0.000318,1,-0.113206,-1.225533, 9.729113,1,0
1778777820451,  2514.239,  2514.239, 0.006826, 0.128257,-0.977704, 0.000077, 0.001286,-0.009790,-0.046641, 0.031868, 0.141059,1,-0.001034, 0.004096, 0.000458,1,-0.113713,-1.225934, 9.729056,1,0
1778777820473,  2514.259,  2514.259, 0.008811, 0.122306,-0.995607, 0.000077, 0.001225,-0.009930,-0.027269,-0.026109,-0.034461,1, 0.002447,-0.003216,-0.000618,1,-0.113572,-1.225442, 9.729120,1,0
1778777820494,  2514.284,  2514.279, 0.011838, 0.128644,-0.978933, 0.000122, 0.001288,-0.009802, 0.037890, 0.017408,-0.017217,1,-0.003878, 0.001720,-0.000435,1,-0.113491,-1.225860, 9.729069,1,0
1778777820521,  2514.309,  2514.309, 0.013066, 0.121589,-0.988539, 0.000128, 0.001220,-0.009862, 0.014429,-0.033027, 0.034871,1, 0.004750,-0.003121, 0.000116,1,-0.113604,-1.225258, 9.729143,1,0
1778777820543,  2514.334,  2514.329, 0.006560, 0.127000,-0.979680, 0.000067, 0.001269,-0.009804,-0.006797,-0.008253, 0.011980,1,-0.004009, 0.003342,-0.000560,1,-0.113738,-1.225451, 9.729117,1,0
1778777820564,  2514.354,  2514.349, 0.013756, 0.123438,-0.996262, 0.000129, 0.001235,-0.009949,-0.040289, 0.016030, 0.089336,1, 0.003181,-0.001471, 0.000004,1,-0.114018,-1.225315, 9.729131,1,0
1778777820591,  2514.379,  2514.379, 0.016510, 0.126035,-0.985818, 0.000178, 0.001248,-0.009888, 0.048491, 0.010554, 0.061551,1,-0.004092, 0.002792, 0.000484,1,-0.113504,-1.225551, 9.729107,1,0
1778777820613,  2514.404,  2514.399, 0.009695, 0.120789,-0.995494, 0.000090, 0.001211,-0.009933,-0.051632,-0.002855, 0.132288,1, 0.004405,-0.001387,-0.000240,1,-0.113677,-1.225200, 9.729149,1,0
1778777820635,  2514.424,  2514.419, 0.012751, 0.126167,-0.993081, 0.000126, 0.001247,-0.009963, 0.012047,-0.057567,-0.136491,1,-0.002558,-0.001656,-0.000817,1,-0.113112,-1.224960, 9.729186,1,0
1778777820662,  2514.449,  2514.449, 0.011915, 0.127045,-0.979161, 0.000112, 0.001283,-0.009772, 0.003200, 0.019986, 0.126773,1, 0.002684,-0.000858, 0.000961,1,-0.113619,-1.225821, 9.729072,1,0
1778777820683,  2514.474,  2514.469, 0.010080, 0.124989,-0.987651, 0.000113, 0.001241,-0.009898, 0.032836,-0.044688,-0.053683,1, 0.000150,-0.001695,-0.000842,1,-0.113035,-1.225255, 9.729150,1,0
1778777820705,  2514.494,  2514.489, 0.006617, 0.125837,-0.984646, 0.000056, 0.001270,-0.009826,-0.071578, 0.029754, 0.130176,1,-0.000725, 0.003017, 0.000025,1,-0.113506,-1.225634, 9.729096,1,0
1778777820732,  2514.519,  2514.519, 0.016912, 0.120480,-1.001518, 0.000166, 0.001209,-0.010029, 0.052725,-0.043931,-0.092412,1,-0.002114,-0.001790,-0.000487,1,-0.113070,-1.225505, 9.729118,1,0
1778777820753,  2514.544,  2514.539, 0.008812, 0.125632,-0.978178, 0.000089, 0.001267,-0.009762,-0.013393, 0.035141, 0.183667,1, 0.001268, 0.002173,-0.000642,1,-0.113467,-1.225778, 9.729079,1,0
1778777820775,  2514.564,  2514.559, 0.012557, 0.119137,-1.000982, 0.000127, 0.001194,-0.010012,-0.000771,-0.035478,-0.005819,1, 0.003245,-0.002933, 0.000009,1,-0.113302,-1.225050, 9.729173,1,0
1778777820802,  2514.589,  2514.589, 0.008094, 0.128236,-0.980024, 0.000081, 0.001283,-0.009808,-0.034281, 0.031703, 0.118309,1,-0.001271, 0.002440, 0.000710,1,-0.113737,-1.225902, 9.729060,1,0
1778777820823,  2514.614,  2514.609, 0.017269, 0.121482,-0.997455, 0.000173, 0.001210,-0.009988, 0.039246,-0.032939,-0.034060,1, 0.003331,-0.004423,-0.000397,1,-0.113125,-1.225213, 9.729154,1,0
1778777820845,  2514.634,  2514.629, 0.005419, 0.127975,-0.974536, 0.000060, 0.001281,-0.009745, 0.006201, 0.019800, 0.089555,1,-0.003190, 0.004132, 0.000189,1,-0.113377,-1.225555, 9.729108,1,0
1778777820872,  2514.659,  2514.659, 0.010265, 0.120886,-1.001274, 0.000096, 0.001213,-0.009991,-0.012559,-0.039571,-0.089972,1, 0.001773,-0.004859,-0.000101,1,-0.113075,-1.225006, 9.729180,1,0
1778777820893,  2514.684,  2514.679, 0.012262, 0.128722,-0.973628, 0.000128, 0.001287,-0.009749, 0.030055, 0.024299, 0.032938,1,-0.005382, 0.002110,-0.000352,1,-0.113016,-1.225677, 9.729097,1,0
1778777820915,  2514.704,  2514.699, 0.015348, 0.120818,-0.990722, 0.000154, 0.001211,-0.009890, 0.012243, 0.002067, 0.149890,1, 0.004462,-0.000290,-0.000183,1,-0.113339,-1.225493, 9.729116,1,0
1778777820942,  2514.729,  2514.729, 0.008429, 0.125286,-0.986985, 0.000094, 0.001245,-0.009893,-0.030632, 0.003478, 0.050140,1,-0.003916, 0.003203, 0.000078,1,-0.113392,-1.225276, 9.729143,1,0
1778777820963,  2514.754,  2514.749, 0.013576, 0.122087,-0.999620, 0.000129, 0.001227,-0.009988,-0.029683, 0.000040, 0.038616,1, 0.001147,-0.003044,-0.000003,1,-0.113326,-1.225341, 9.729136,1,0
1778777820986,  2514.774,  2514.774, 0.016214, 0.125200,-0.984603, 0.000169, 0.001251,-0.009867, 0.046392, 0.002167, 0.073455,1,-0.002823, 0.002159, 0.000336,1,-0.112683,-1.225708, 9.729097,1,0
1778777821012,  2514.799,  2514.799, 0.008886, 0.125100,-0.981423, 0.000084, 0.001259,-0.009792,-0.025906, 0.001260, 0.104645,1, 0.002709, 0.000253, 0.000167,1,-0.113055,-1.225465, 9.729123,1,0
1778777821034,  2514.824,  2514.819, 0.007865, 0.127296,-0.989394, 0.000083, 0.001269,-0.009915,-0.013387,-0.028679,-0.081520,1,-0.003594,-0.001036,-0.000874,1,-0.112749,-1.225571, 9.729114,1,0
1778777821056,  2514.844,  2514.839, 0.010696, 0.126404,-0.983756, 0.000096, 0.001272,-0.009820,-0.052734, 0.041910, 0.120902,1,-0.000607,-0.000549, 0.001085,1,-0.112839,-1.226219, 9.729031,1,0
1778777821082,  2514.869,  2514.869, 0.019264, 0.122109,-0.996049, 0.000195, 0.001210,-0.009977, 0.076427,-0.027895,-0.038763,1,-0.000468, 0.002265,-0.000848,1,-0.112559,-1.225395, 9.729137,1,0
1778777821104,  2514.894,  2514.889, 0.003360, 0.124113,-0.982043, 0.000030, 0.001253,-0.009799,-0.050920, 0.035148, 0.188788,1, 0.000869, 0.003215, 0.000105,1,-0.113440,-1.225541, 9.729109,1,0
1778777821126,  2514.914,  2514.914, 0.013262, 0.119892,-1.005824, 0.000129, 0.001191,-0.010072, 0.017352,-0.049318,-0.134590,1,-0.002960,-0.002750,-0.000287,1,-0.112617,-1.225150, 9.729168,1,0
1778777821152,  2514.939,  2514.939, 0.011945, 0.130163,-0.974769, 0.000118, 0.001298,-0.009757, 0.004186, 0.050587, 0.169853,1,-0.000153, 0.001583,-0.000172,1,-0.113005,-1.225883, 9.729071,1,0
1778777821174,  2514.964,  2514.959, 0.015745, 0.119217,-1.000090, 0.000162, 0.001191,-0.010009, 0.051757,-0.026740,-0.020128,1, 0.004552,-0.002856,-0.000182,1,-0.112624,-1.225020, 9.729184,1,0
1778777821197,  2514.984,  2514.984, 0.004323, 0.128222,-0.977247, 0.000046, 0.001279,-0.009772,-0.070881, 0.031676, 0.145564,1,-0.001741, 0.003662, 0.000543,1,-0.113388,-1.225808, 9.729076,1,0
1778777821222,  2515.009,  2515.009, 0.011908, 0.122611,-1.000088, 0.000110, 0.001228,-0.009978, 0.003895,-0.023018,-0.078383,1, 0.002753,-0.005386,-0.000300,1,-0.112713,-1.225340, 9.729143,1,0
1778777821244,  2515.034,  2515.029, 0.011929, 0.128419,-0.971628, 0.000128, 0.001280,-0.009727, 0.046608, 0.012410, 0.064227,1,-0.004354, 0.002499, 0.000190,1,-0.112528,-1.226026, 9.729058,1,0
1778777821267,  2515.054,  2515.054, 0.012149, 0.121546,-0.992501, 0.000120, 0.001218,-0.009904, 0.006418,-0.033658,-0.004000,1, 0.001896,-0.002775, 0.000028,1,-0.112640,-1.225561, 9.729115,1,0
1778777821292,  2515.079,  2515.079, 0.007861, 0.125213,-0.991466, 0.000091, 0.001243,-0.009942,-0.035359, 0.001955, 0.006107,1,-0.004355, 0.000896,-0.000410,1,-0.112476,-1.226103, 9.729050,1,0
1778777821314,  2515.104,  2515.099, 0.015648, 0.123340,-0.994728, 0.000145, 0.001239,-0.009935,-0.030890, 0.024513, 0.082911,1, 0.002474,-0.002528,-0.000517,1,-0.112303,-1.226164, 9.729044,1,0
1778777821337,  2515.129,  2515.124, 0.013722, 0.125387,-0.984461, 0.000150, 0.001248,-0.009864, 0.022387, 0.003628, 0.074799,1,-0.000367, 0.002583,-0.000255,1,-0.112256,-1.226009, 9.729064,1,0
1778777821363,  2515.149,  2515.149, 0.005192, 0.125340,-0.984924, 0.000044, 0.001260,-0.009824,-0.061654, 0.003574, 0.070304,1, 0.003031, 0.000451, 0.000165,1,-0.112581,-1.225494, 9.729125,1,0
1778777821384,  2515.174,  2515.169, 0.014231, 0.126253,-0.989299, 0.000147, 0.001254,-0.009916, 0.018766,-0.039412,-0.103302,1,-0.005072, 0.000449,-0.000334,1,-0.112341,-1.225828, 9.729086,1,0
1778777821407,  2515.199,  2515.194, 0.009980, 0.126531,-0.980753, 0.000093, 0.001275,-0.009788,-0.014744, 0.014819, 0.111156,1, 0.004543,-0.000887,-0.000371,1,-0.112587,-1.225887, 9.729075,1,0
1778777821433,  2515.219,  2515.219, 0.016352, 0.119716,-0.999205, 0.000166, 0.001193,-0.010002, 0.048015,-0.051665,-0.069751,1,-0.002405, 0.001056,-0.000321,1,-0.112378,-1.225749, 9.729095,1,0
1778777821454,  2515.244,  2515.239, 0.007254, 0.126240,-0.984454, 0.000065, 0.001270,-0.009823,-0.047691, 0.046987, 0.151021,1,-0.001143, 0.002445, 0.000189,1,-0.113059,-1.226289, 9.729019,1,0
1778777821477,  2515.269,  2515.264, 0.016497, 0.119984,-1.000720, 0.000164, 0.001193,-0.010021, 0.049461,-0.049230,-0.084633,1,-0.000759,-0.001973, 0.000106,1,-0.112257,-1.225897, 9.729078,1,0
1778777821503,  2515.289,  2515.289, 0.009165, 0.129130,-0.974358, 0.000094, 0.001293,-0.009750,-0.022713, 0.040165, 0.173850,1, 0.000488, 0.002712, 0.000024,1,-0.112675,-1.226156, 9.729040,1,0
1778777821524,  2515.314,  2515.309, 0.014438, 0.119315,-1.000813, 0.000144, 0.001188,-0.010015, 0.011591,-0.037926,-0.022721,1, 0.001597,-0.002851,-0.000589,1,-0.112479,-1.225768, 9.729092,1,0
1778777821547,  2515.339,  2515.334, 0.007979, 0.128733,-0.978470, 0.000081, 0.001283,-0.009789,-0.034348, 0.036143, 0.133511,1,-0.000663, 0.000534,-0.000346,1,-0.112614,-1.226315, 9.729021,1,0
1778777821573,  2515.359,  2515.359, 0.013844, 0.122771,-0.994673, 0.000130, 0.001235,-0.009932, 0.023484,-0.021999,-0.025339,1, 0.001417,-0.002917,-0.000286,1,-0.112192,-1.225932, 9.729074,1,0
1778777821594,  2515.384,  2515.379, 0.006580, 0.127505,-0.976853, 0.000074, 0.001274,-0.009772, 0.012830,-0.000512, 0.056433,1,-0.002490, 0.002838, 0.000264,1,-0.112267,-1.226380, 9.729017,1,0
1778777821617,  2515.409,  2515.404, 0.010639, 0.121146,-0.998419, 0.000099, 0.001216,-0.009970,-0.008013,-0.037839,-0.062069,1, 0.000406,-0.001225,-0.000388,1,-0.112308,-1.225867, 9.729081,1,0
1778777821643,  2515.429,  2515.429, 0.014071, 0.126363,-0.987077, 0.000145, 0.001254,-0.009899, 0.025442, 0.012667, 0.049074,1,-0.003627, 0.003811, 0.000728,1,-0.112669,-1.226642, 9.728979,1,0
1778777821664,  2515.454,  2515.449, 0.012816, 0.120621,-0.994089, 0.000121, 0.001213,-0.009919,-0.022447, 0.005673, 0.130747,1, 0.003833,-0.000413,-0.000353,1,-0.112920,-1.226297, 9.729020,1,0
1778777821691,  2515.479,  2515.479, 0.011205, 0.125333,-0.989660, 0.000120, 0.001245,-0.009920,-0.002683, 0.003038, 0.023805,1,-0.002702, 0.002416, 0.000679,1,-0.112647,-1.226140, 9.729043,1,0
1778777821713,  2515.499,  2515.499, 0.009228, 0.126036,-0.983684, 0.000081, 0.001267,-0.009818,-0.022318, 0.009687, 0.082378,1, 0.000608,-0.001160, 0.000011,1,-0.112777,-1.226284, 9.729023,1,0
1778777821734,  2515.524,  2515.519, 0.012516, 0.125514,-0.985905, 0.000136, 0.001249,-0.009876, 0.054226,-0.048153,-0.066494,1,-0.002393,-0.000811,-0.000838,1,-0.112302,-1.226426, 9.729011,1,0
1778777821761,  2515.549,  2515.549, 0.006679, 0.126953,-0.983538, 0.000061, 0.001276,-0.009813,-0.047344, 0.018477, 0.083783,1, 0.001237,-0.000759,-0.000452,1,-0.112813,-1.226473, 9.728999,1,0
1778777821783,  2515.574,  2515.569, 0.013979, 0.125587,-0.988070, 0.000147, 0.001249,-0.009908, 0.040192,-0.043759,-0.075424,1,-0.002713, 0.000047, 0.000114,1,-0.112477,-1.226589, 9.728989,1,0
1778777821805,  2515.594,  2515.589, 0.008695, 0.126845,-0.980179, 0.000086, 0.001277,-0.009791,-0.012334, 0.040582, 0.141625,1, 0.000862, 0.002138,-0.000501,1,-0.112888,-1.226851, 9.728951,1,0
1778777821832,  2515.619,  2515.619, 0.014855, 0.119739,-0.998715, 0.000148, 0.001191,-0.009993, 0.032954,-0.052050,-0.065027,1,-0.000469,-0.000001,-0.000450,1,-0.112723,-1.226308, 9.729021,1,0
1778777821853,  2515.644,  2515.639, 0.007543, 0.126882,-0.982017, 0.000066, 0.001276,-0.009800,-0.049933, 0.039132, 0.141065,1,-0.000656, 0.001971,-0.000215,1,-0.113114,-1.226627, 9.728976,1,0
1778777821875,  2515.664,  2515.659, 0.018208, 0.120189,-1.001108, 0.000179, 0.001197,-0.010019, 0.024310,-0.031358,-0.041150,1, 0.001460,-0.002631,-0.000569,1,-0.112827,-1.226274, 9.729024,1,0
1778777821902,  2515.689,  2515.689, 0.007863, 0.128609,-0.974570, 0.000086, 0.001287,-0.009752,-0.035970, 0.034717, 0.171721,1, 0.000391, 0.001944,-0.000014,1,-0.113144,-1.226498, 9.728992,1,0
1778777821923,  2515.714,  2515.709, 0.014693, 0.118316,-1.003846, 0.000145, 0.001181,-0.010039,-0.000021,-0.050890,-0.025023,1, 0.001938,-0.003014, 0.000099,1,-0.112795,-1.226081, 9.729049,1,0
1778777821945,  2515.734,  2515.729, 0.008101, 0.129838,-0.978191, 0.000088, 0.001295,-0.009791, 0.017077, 0.000195, 0.002974,1,-0.004062, 0.002991, 0.000603,1,-0.112921,-1.226662, 9.728974,1,0
1778777821972,  2515.759,  2515.759, 0.013231, 0.122779,-0.993621, 0.000125, 0.001238,-0.009921, 0.016628,-0.022472,-0.015101,1, 0.002438,-0.003258, 0.000440,1,-0.113019,-1.226449, 9.729000,1,0
1778777821993,  2515.784,  2515.779, 0.007161, 0.128052,-0.976009, 0.000084, 0.001280,-0.009769, 0.019867,-0.009660, 0.023497,1,-0.002747, 0.002146, 0.000489,1,-0.113043,-1.226838, 9.728951,1,0
1778777822015,  2515.804,  2515.799, 0.013241, 0.122225,-0.995842, 0.000119, 0.001229,-0.009939,-0.045697, 0.016206, 0.111483,1, 0.002467,-0.000048,-0.000342,1,-0.113426,-1.226678, 9.728966,1,0
1778777822042,  2515.829,  2515.829, 0.014009, 0.125982,-0.989255, 0.000150, 0.001247,-0.009923, 0.024490, 0.008656, 0.027679,1,-0.002845, 0.000820, 0.000132,1,-0.112920,-1.226890, 9.728945,1,1
1778777822063,  2515.854,  2515.849, 0.012921, 0.121218,-0.995512, 0.000117, 0.001223,-0.009929,-0.043461, 0.015678, 0.131405,1, 0.002994,-0.000439,-0.000468,1,-0.113132,-1.226679, 9.728970,1,1
1778777822085,  2515.874,  2515.869, 0.012231, 0.125525,-0.990973, 0.000135, 0.001244,-0.009939, 0.042944,-0.060975,-0.113085,1,-0.000916,-0.000866,-0.000796,1,-0.112729,-1.226443, 9.729004,1,1
1778777822112,  2515.899,  2515.899, 0.008146, 0.127939,-0.980636, 0.000073, 0.001286,-0.009790,-0.033155, 0.027936, 0.112213,1,-0.000117,-0.000729,-0.000152,1,-0.113016,-1.226717, 9.728966,1,1
1778777822134,  2515.924,  2515.919, 0.012432, 0.124287,-0.987281, 0.000137, 0.001231,-0.009896, 0.045041,-0.062133,-0.044023,1,-0.001701,-0.000982,-0.000319,1,-0.112594,-1.226808, 9.728959,1,1
1778777822155,  2515.944,  2515.939, 0.008075, 0.127800,-0.982470, 0.000076, 0.001286,-0.009813,-0.042574, 0.026473, 0.134243,1, 0.000247, 0.001849, 0.000484,1,-0.112977,-1.226967, 9.728934,1,1
1778777822182,  2515.969,  2515.969, 0.016352, 0.119419,-0.998767, 0.000165, 0.001192,-0.009994, 0.047322,-0.055797,-0.065616,1,-0.001849, 0.000657, 0.000112,1,-0.113052,-1.226954, 9.728935,1,1
1778777822204,  2515.994,  2515.989, 0.007025, 0.125954,-0.981502, 0.000059, 0.001267,-0.009791,-0.033615, 0.031956, 0.148228,1, 0.000585, 0.000753, 0.000398,1,-0.113311,-1.227228, 9.728898,1,1
1778777822226,  2516.014,  2516.014, 0.015617, 0.119701,-1.002453, 0.000148, 0.001194,-0.010029, 0.040251,-0.053047,-0.101763,1,-0.002186,-0.000752,-0.000586,1,-0.112870,-1.226977, 9.728934,1,1
1778777822252,  2516.039,  2516.039, 0.008439, 0.130329,-0.978513, 0.000091, 0.001302,-0.009793,-0.030483, 0.050779, 0.132956,1,-0.000375, 0.001583,-0.000081,1,-0.113289,-1.227327, 9.728886,1,1
1778777822274,  2516.064,  2516.059, 0.015044, 0.119216,-1.000462, 0.000151, 0.001188,-0.010007, 0.014833,-0.040981,-0.013487,1, 0.002421,-0.003417,-0.000572,1,-0.112970,-1.226808, 9.728955,1,1
1778777822296,  2516.084,  2516.084, 0.006737, 0.129356,-0.977914, 0.000071, 0.001293,-0.009783,-0.047107, 0.041618, 0.138873,1, 0.000048, 0.002891, 0.000092,1,-0.113262,-1.226928, 9.728936,1,1
1778777822322,  2516.109,  2516.109, 0.015119, 0.121620,-0.995892, 0.000145, 0.001220,-0.009943, 0.035158,-0.034039,-0.037399,1,-0.000020,-0.003336,-0.000662,1,-0.113002,-1.226724, 9.728965,1,1
1778777822344,  2516.134,  2516.129, 0.006983, 0.128834,-0.973695, 0.000077, 0.001289,-0.009743, 0.018718, 0.012793, 0.072562,1,-0.002625, 0.002125,-0.000542,1,-0.113063,-1.227105, 9.728916,1,1
1778777822367,  2516.154,  2516.154, 0.011177, 0.120788,-0.997569, 0.000100, 0.001211,-0.009955,-0.003320,-0.042191,-0.053841,1, 0.000705,-0.002920,-0.000128,1,-0.112838,-1.226686, 9.728971,1,1
1778777822392,  2516.179,  2516.179, 0.012246, 0.125610,-0.989529, 0.000129, 0.001246,-0.009923, 0.007241, 0.004779, 0.024959,1,-0.004020, 0.003236, 0.000614,1,-0.112954,-1.227154, 9.728911,1,1
1778777822414,  2516.204,  2516.199, 0.012714, 0.122583,-0.993155, 0.000121, 0.001232,-0.009913,-0.009850, 0.010516, 0.118155,1, 0.002486,-0.001236, 0.000864,1,-0.113235,-1.227026, 9.728925,1,1
1778777822437,  2516.224,  2516.224, 0.009485, 0.125298,-0.987621, 0.000106, 0.001243,-0.009892,-0.019950, 0.001823, 0.043680,1,-0.001717, 0.002327, 0.000465,1,-0.113037,-1.226986, 9.728931,1,1
1778777822462,  2516.249,  2516.249, 0.007017, 0.125602,-0.986093, 0.000056, 0.001265,-0.009837,-0.044505, 0.004758, 0.058658,1, 0.000333, 0.000199,-0.000097,1,-0.113320,-1.226967, 9.728930,1,1
1778777822484,  2516.274,  2516.269, 0.014464, 0.127661,-0.984592, 0.000158, 0.001268,-0.009871, 0.071043,-0.048042,-0.080503,1,-0.001745, 0.000752,-0.000265,1,-0.113096,-1.227056, 9.728922,1,1
1778777822507,  2516.294,  2516.294, 0.007507, 0.125941,-0.980726, 0.000070, 0.001266,-0.009784,-0.039899, 0.008103, 0.111297,1, 0.002503,-0.001150, 0.000280,1,-0.113488,-1.226876, 9.728940,1,1
1778777822532,  2516.319,  2516.319, 0.012945, 0.119355,-1.000369, 0.000129, 0.001188,-0.010010, 0.013895,-0.056353,-0.081315,1,-0.001716,-0.001825,-0.000125,1,-0.112997,-1.226878, 9.728946,1,1
1778777822554,  2516.344,  2516.339, 0.012097, 0.127498,-0.982930, 0.000110, 0.001286,-0.009812,-0.004770, 0.009036, 0.021211,1,-0.003855, 0.000590,-0.000376,1,-0.113015,-1.227235, 9.728901,1,1
1778777822577,  2516.369,  2516.364, 0.018284, 0.119424,-0.994983, 0.000189, 0.001194,-0.009959, 0.066404,-0.055961,-0.028539,1,-0.000846, 0.000096,-0.000662,1,-0.112897,-1.227139, 9.728914,1,1
1778777822603,  2516.389,  2516.389, 0.003471, 0.128062,-0.977405, 0.000038, 0.001281,-0.009771,-0.079158, 0.028627, 0.143828,1, 0.000840, 0.001174, 0.000625,1,-0.113239,-1.227204, 9.728902,1,1
1778777822624,  2516.414,  2516.409, 0.015199, 0.120734,-1.002859, 0.000145, 0.001201,-0.010040,-0.017476,-0.040213,-0.092308,1,-0.000789,-0.003421, 0.000274,1,-0.112838,-1.227035, 9.728928,1,1
1778777822647,  2516.439,  2516.434, 0.011885, 0.129615,-0.975715, 0.000124, 0.001298,-0.009767, 0.003585, 0.043510, 0.160362,1,-0.000186, 0.002285, 0.000851,1,-0.113040,-1.227581, 9.728857,1,1
1778777822673,  2516.459,  2516.459, 0.012322, 0.120009,-0.988602, 0.000124, 0.001206,-0.009866, 0.007736,-0.050239, 0.034038,1, 0.003321,-0.001402,-0.000489,1,-0.113058,-1.227021, 9.728927,1,1
1778777822694,  2516.484,  2516.479, 0.004141, 0.129908,-0.980987, 0.000045, 0.001297,-0.009814,-0.029258, 0.005258, 0.028763,1,-0.001835, 0.000698,-0.000067,1,-0.113024,-1.227139, 9.728912,1,1
1778777822717,  2516.509,  2516.504, 0.016064, 0.121845,-0.997419, 0.000150, 0.001227,-0.009961, 0.044891,-0.032353,-0.052437,1, 0.001107,-0.003120, 0.000072,1,-0.112544,-1.227206, 9.728909,1,1
1778777822743,  2516.529,  2516.529, 0.017278, 0.126130,-0.984165, 0.000182, 0.001255,-0.009864, 0.056933, 0.009591, 0.077529,1,-0.000590, 0.001942,-0.000117,1,-0.112563,-1.227340, 9.728892,1,1
1778777822764,  2516.554,  2516.549, 0.008659, 0.120140,-0.995673, 0.000076, 0.001205,-0.009934,-0.062825,-0.002261, 0.130569,1, 0.002561, 0.000797,-0.000545,1,-0.112939,-1.226980, 9.728933,1,1
1778777822787,  2516.579,  2516.574, 0.013610, 0.125368,-0.993585, 0.000140, 0.001244,-0.009965, 0.020817, 0.002085,-0.014847,1,-0.004583, 0.001618, 0.000546,1,-0.112702,-1.227499, 9.728871,1,1
1778777822813,  2516.599,  2516.599, 0.009920, 0.128662,-0.979102, 0.000094, 0.001295,-0.009773,-0.015549, 0.034171, 0.127153,1, 0.002414,-0.000977,-0.000046,1,-0.112798,-1.227498, 9.728869,1,1
1778777822834,  2516.624,  2516.619, 0.011798, 0.125429,-0.988404, 0.000134, 0.001238,-0.009914, 0.061003,-0.066415,-0.068502,1, 0.000446,-0.000522,-0.000236,1,-0.112376,-1.226971, 9.728941,1,1
1778777822857,  2516.649,  2516.644, 0.003778, 0.126897,-0.982661, 0.000029, 0.001278,-0.009805,-0.076067, 0.017410, 0.092318,1, 0.001795,-0.000527,-0.000663,1,-0.113097,-1.226965, 9.728933,1,1
1778777822883,  2516.669,  2516.669, 0.017353, 0.119501,-1.005763, 0.000172, 0.001190,-0.010063, 0.057822,-0.054934,-0.134210,1,-0.000991,-0.004393,-0.000879,1,-0.112218,-1.226871, 9.728955,1,1
1778777822905,  2516.694,  2516.689, 0.008757, 0.127509,-0.973915, 0.000082, 0.001288,-0.009719,-0.011721, 0.053541, 0.189411,1,-0.001554, 0.002015,-0.000234,1,-0.112347,-1.227346, 9.728894,1,1
1778777822932,  2516.719,  2516.719, 0.013108, 0.117199,-1.002467, 0.000133, 0.001174,-0.010020, 0.016522,-0.077466,-0.101872,1, 0.000559,-0.002586,-0.000232,1,-0.111941,-1.226779, 9.728971,1,1
1778777822953,  2516.739,  2516.739, 0.007169, 0.129241,-0.982943, 0.000074, 0.001289,-0.009841,-0.041949, 0.040345, 0.089552,1,-0.001450, 0.003200,-0.000148,1,-0.112349,-1.227125, 9.728922,1,1
1778777822975,  2516.764,  2516.759, 0.018254, 0.119661,-0.994709, 0.000183, 0.001197,-0.009946, 0.029644,-0.008695, 0.037263,1, 0.000363,-0.001890, 0.000205,1,-0.112216,-1.227148, 9.728921,1,1
1778777823002,  2516.789,  2516.789, 0.007665, 0.127641,-0.977854, 0.000090, 0.001274,-0.009789,-0.037089, 0.024572, 0.139444,1, 0.000718, 0.003115, 0.000072,1,-0.112358,-1.227136, 9.728921,1,1
1778777823023,  2516.814,  2516.809, 0.014698, 0.119667,-1.003366, 0.000145, 0.001195,-0.010033,-0.019262,-0.026472,-0.015406,1, 0.000580,-0.001385,-0.000184,1,-0.112541,-1.227063, 9.728928,1,1
1778777823045,  2516.834,  2516.829, 0.008487, 0.129408,-0.979112, 0.000099, 0.001295,-0.009809, 0.036932, 0.002087,-0.020092,1,-0.001672,-0.001241,-0.000267,1,-0.112077,-1.227260, 9.728909,1,1
1778777823072,  2516.859,  2516.859, 0.010101, 0.121632,-0.988166, 0.000089, 0.001227,-0.009857,-0.012994,-0.034201, 0.038344,1, 0.003738,-0.001317,-0.000596,1,-0.112011,-1.226885, 9.728956,1,1
1778777823093,  2516.884,  2516.879, 0.009071, 0.129448,-0.981262, 0.000103, 0.001295,-0.009834, 0.031017,-0.007239,-0.054631,1,-0.002181, 0.002412,-0.000076,1,-0.111936,-1.226845, 9.728962,1,1
1778777823115,  2516.904,  2516.899, 0.012244, 0.122451,-0.988697, 0.000111, 0.001239,-0.009865,-0.050165, 0.041012, 0.148627,1, 0.000451, 0.000372, 0.000346,1,-0.112320,-1.227121, 9.728923,1,1
1778777823142,  2516.929,  2516.929, 0.016043, 0.122345,-0.993485, 0.000171, 0.001210,-0.009962, 0.045570,-0.026769,-0.013762,1,-0.000957, 0.001795,-0.000400,1,-0.111815,-1.226597, 9.728995,1,1
1778777823163,  2516.954,  2516.949, 0.009325, 0.124071,-0.988856, 0.000082, 0.001249,-0.009866,-0.061833, 0.041098, 0.161460,1, 0.000038, 0.002753,-0.000492,1,-0.112570,-1.226798, 9.728961,1,1
1778777823185,  2516.974,  2516.969, 0.017190, 0.121448,-0.998791, 0.000174, 0.001204,-0.010014, 0.033799,-0.061473,-0.105003,1, 0.000210,-0.003576, 0.000233,1,-0.112098,-1.226704, 9.728978,1,1
1778777823212,  2516.999,  2516.999, 0.008237, 0.129348,-0.971865, 0.000086, 0.001297,-0.009714,-0.031570, 0.041368, 0.198184,1, 0.000383, 0.001186,-0.000124,1,-0.112384,-1.227090, 9.728926,1,1
1778777823234,  2517.024,  2517.019, 0.013881, 0.121253,-1.000246, 0.000145, 0.001199,-0.010021, 0.036686,-0.069088,-0.069752,1, 0.001655,-0.003560,-0.000202,1,-0.112035,-1.226634, 9.728988,1,1
1778777823255,  2517.044,  2517.039, 0.004164, 0.129865,-0.977842, 0.000035, 0.001305,-0.009773,-0.043608, 0.038216, 0.068417,1,-0.005055, 0.002162, 0.000757,1,-0.112032,-1.227309, 9.728903,1,1
1778777823282,  2517.069,  2517.069, 0.017352, 0.118532,-1.001088, 0.000164, 0.001193,-0.009998, 0.058331,-0.064911,-0.088419,1, 0.003092,-0.002579,-0.000297,1,-0.111756,-1.227216, 9.728917,1,1
1778777823304,  2517.094,  2517.089, 0.005963, 0.129460,-0.973264, 0.000062, 0.001298,-0.009728,-0.005871, 0.025846, 0.107507,1,-0.002482, 0.003451, 0.000015,1,-0.111952,-1.227383, 9.728894,1,1
1778777823325,  2517.114,  2517.109, 0.014160, 0.119284,-0.997557, 0.000138, 0.001196,-0.009954,-0.026026,-0.011076, 0.092189,1, 0.000095, 0.001222,-0.000643,1,-0.112459,-1.227467, 9.728878,1,1
1778777823352,  2517.139,  2517.139, 0.009985, 0.128531,-0.985596, 0.000111, 0.001280,-0.009882,-0.014161, 0.032950, 0.063484,1,-0.001803, 0.001509,-0.000527,1,-0.112121,-1.227566, 9.728869,1,1
1778777823374,  2517.164,  2517.159, 0.017587, 0.119764,-0.998634, 0.000172, 0.001203,-0.009973,-0.006966,-0.001388, 0.073471,1, 0.001544,-0.000816, 0.000237,1,-0.112220,-1.227446, 9.728883,1,1
1778777823395,  2517.184,  2517.179, 0.010563, 0.128531,-0.982961, 0.000117, 0.001279,-0.009849, 0.062422,-0.046231,-0.056691,1,-0.000762, 0.001354, 0.000151,1,-0.112116,-1.227297, 9.728903,1,1
1778777823422,  2517.209,  2517.209, 0.007097, 0.124053,-0.987053, 0.000057, 0.001253,-0.009842,-0.043135,-0.011106, 0.049164,1, 0.000968,-0.001216,-0.000483,1,-0.112695,-1.227621, 9.728856,1,1
1778777823444,  2517.234,  2517.229, 0.012456, 0.128255,-0.986304, 0.000130, 0.001278,-0.009890, 0.028940,-0.043231,-0.104850,1,-0.002013,-0.001083, 0.000060,1,-0.112082,-1.227600, 9.728866,1,1
1778777823467,  2517.254,  2517.254, 0.012458, 0.125259,-0.980914, 0.000117, 0.001267,-0.009787, 0.009101, 0.000153, 0.109290,1, 0.000718, 0.002109, 0.000580,1,-0.113133,-1.228196, 9.728778,1,1
1778777823492,  2517.279,  2517.279, 0.014864, 0.119843,-0.999202, 0.000158, 0.001189,-0.010005, 0.032886,-0.052595,-0.070004,1, 0.000116,-0.001032,-0.000043,1,-0.112847,-1.227854, 9.728825,1,1
1778777823514,  2517.304,  2517.299, 0.009320, 0.124977,-0.984828, 0.000081, 0.001262,-0.009828,-0.081199, 0.044771, 0.159878,1,-0.002280, 0.000080,-0.000024,1,-0.112978,-1.228300, 9.728766,1,1
1778777823537,  2517.324,  2517.324, 0.019220, 0.121286,-0.998593, 0.000199, 0.001202,-0.010007, 0.076286,-0.039085,-0.064099,1,-0.000926,-0.002474, 0.000039,1,-0.112124,-1.228525, 9.728748,1,1
1778777823562,  2517.349,  2517.349, 0.006741, 0.130532,-0.974355, 0.000071, 0.001306,-0.009744,-0.046351, 0.051361, 0.173556,1,-0.000506, 0.002402,-0.000343,1,-0.112526,-1.228735, 9.728717,1,1
1778777823584,  2517.374,  2517.369, 0.014026, 0.119737,-0.999549, 0.000140, 0.001189,-0.010006, 0.001485,-0.056430,-0.042404,1, 0.001865,-0.003342, 0.000529,1,-0.112323,-1.228417, 9.728760,1,1
1778777823607,  2517.394,  2517.394, 0.007565, 0.128862,-0.976993, 0.000076, 0.001290,-0.009766,-0.038460, 0.035077, 0.147701,1, 0.000506, 0.001979, 0.000548,1,-0.112716,-1.228613, 9.728730,1,1
1778777823632,  2517.419,  2517.419, 0.018498, 0.119556,-0.999307, 0.000180, 0.001201,-0.009978, 0.069036,-0.055786,-0.071072,1, 0.001363,-0.003287,-0.000764,1,-0.112264,-1.228186, 9.728789,1,1
1778777823654,  2517.444,  2517.439, 0.003782, 0.129162,-0.975617, 0.000040, 0.001296,-0.009749,-0.017939, 0.031491, 0.097478,1,-0.003873, 0.002378, 0.000203,1,-0.112321,-1.228791, 9.728712,1,1
1778777823677,  2517.464,  2517.464, 0.009906, 0.119778,-1.003152, 0.000098, 0.001199,-0.010018,-0.015033,-0.054095,-0.108837,1, 0.002396,-0.003529,-0.000374,1,-0.112072,-1.228639, 9.728734,1,1
1778777823703,  2517.489,  2517.489, 0.011421, 0.129495,-0.987148, 0.000121, 0.001289,-0.009901, 0.000017, 0.041217, 0.048111,1,-0.001619, 0.002202,-0.000312,1,-0.112056,-1.228746, 9.728721,1,1
1778777823724,  2517.514,  2517.509, 0.015724, 0.119208,-0.991470, 0.000156, 0.001195,-0.009897, 0.013955,-0.003464, 0.138400,1, 0.001958, 0.000352, 0.000215,1,-0.112388,-1.228611, 9.728734,1,1
1778777823747,  2517.534,  2517.534, 0.007331, 0.127071,-0.987148, 0.000081, 0.001260,-0.009889,-0.040526, 0.017944, 0.048173,1,-0.001925, 0.003058, 0.000159,1,-0.112513,-1.228259, 9.728777,1,1
1778777823773,  2517.559,  2517.559, 0.009314, 0.126098,-0.985759, 0.000076, 0.001271,-0.009840,-0.021394, 0.008250, 0.061770,1, 0.000109,-0.000389, 0.000663,1,-0.112673,-1.228319, 9.728767,1,1
1778777823794,  2517.584,  2517.579, 0.013486, 0.128270,-0.980199, 0.000147, 0.001280,-0.009821, 0.086184,-0.024530,-0.039033,1,-0.000776,-0.001506,-0.000482,1,-0.112162,-1.228299, 9.728776,1,1
1778777823817,  2517.609,  2517.604, 0.006602, 0.123024,-0.983955, 0.000060, 0.001242,-0.009812,-0.047685,-0.021763, 0.079477,1, 0.001499,-0.001205,-0.000056,1,-0.112394,-1.228170, 9.728789,1,1
1778777823843,  2517.629,  2517.629, 0.012834, 0.121667,-1.003698, 0.000129, 0.001203,-0.010048, 0.013925,-0.034926,-0.114108,1,-0.002626,-0.000162,-0.000060,1,-0.111928,-1.228153, 9.728797,1,1
1778777823864,  2517.654,  2517.649, 0.010622, 0.125175,-0.981629, 0.000099, 0.001265,-0.009797,-0.027770, 0.053226, 0.153535,1,-0.001805, 0.001607, 0.000333,1,-0.112353,-1.228877, 9.728701,1,1
1778777823887,  2517.679,  2517.674, 0.014512, 0.120399,-0.998287, 0.000155, 0.001192,-0.010004, 0.030616,-0.047164,-0.061018,1, 0.001356,-0.001077,-0.000114,1,-0.111668,-1.227837, 9.728840,1,1
1778777823913,  2517.699,  2517.699, 0.003766, 0.129468,-0.975834, 0.000040, 0.001295,-0.009753,-0.075345, 0.041449, 0.159127,1,-0.001179, 0.003423, 0.000403,1,-0.112387,-1.228238, 9.728782,1,1
1778777823934,  2517.724,  2517.719, 0.017661, 0.121721,-1.000456, 0.000183, 0.001207,-0.010026, 0.051024,-0.050369,-0.096078,1, 0.001903,-0.004714,-0.000159,1,-0.111982,-1.228013, 9.728814,1,1
1778777823957,  2517.749,  2517.744, 0.007451, 0.129270,-0.972678, 0.000077, 0.001294,-0.009725,-0.039125, 0.039540, 0.190077,1,-0.000370, 0.002905,-0.000568,1,-0.112279,-1.228181, 9.728789,1,1
1778777823983,  2517.769,  2517.769, 0.013662, 0.118284,-0.996868, 0.000134, 0.001189,-0.009950,-0.012581,-0.008884, 0.100156,1, 0.000607, 0.001242, 0.000289,1,-0.112464,-1.228136, 9.728793,1,1
1778777824004,  2517.794,  2517.789, 0.007517, 0.129229,-0.980549, 0.000076, 0.001293,-0.009804,-0.015323, 0.023093, 0.047873,1,-0.002777, 0.002602,-0.000241,1,-0.112447,-1.228409, 9.728759,1,1
1778777824027,  2517.819,  2517.814, 0.016512, 0.119709,-0.997437, 0.000163, 0.001202,-0.009965, 0.049603,-0.054491,-0.052757,1, 0.000230,-0.002067,-0.000327,1,-0.112261,-1.228432, 9.728758,1,1
1778777824053,  2517.839,  2517.839, 0.013915, 0.128147,-0.980045, 0.000151, 0.001268,-0.009823, 0.024312, 0.028017, 0.117773,1,-0.002006, 0.000701,-0.000231,1,-0.112170,-1.228740, 9.728721,1,1
1778777824075,  2517.864,  2517.859, 0.012848, 0.120856,-0.997841, 0.000121, 0.001201,-0.009967,-0.033617,-0.003999, 0.107770,1, 0.001267,-0.005130,-0.000509,1,-0.111676,-1.228789, 9.728720,1,1
1778777824097,  2517.889,  2517.884, 0.006352, 0.131403,-0.994601, 0.000064, 0.001296,-0.009971,-0.047914, 0.059646,-0.024997,1,-0.006753, 0.001777,-0.000526,1,-0.110254,-1.229190, 9.728685,1,1
1778777824123,  2517.909,  2517.909, 0.005941, 0.125331,-0.982730, 0.000045, 0.001257,-0.009817,-0.052578,-0.000860, 0.091291,1,-0.002792, 0.003234, 0.000335,1,-0.110937,-1.230029, 9.728572,1,1
1778777824145,  2517.934,  2517.929, 0.012604, 0.127589,-0.985884, 0.000144, 0.001272,-0.009882, 0.083071,-0.040978,-0.036480,1, 0.001797, 0.002050,-0.000171,1,-0.111307,-1.229735, 9.728604,1,1
1778777824172,  2517.959,  2517.959, 0.008599, 0.125943,-0.981791, 0.000071, 0.001269,-0.009788,-0.028014, 0.005454, 0.100529,1, 0.001384, 0.000835, 0.000639,1,-0.112337,-1.229549, 9.728617,1,1
1778777824193,  2517.979,  2517.979, 0.022046, 0.121872,-1.001971, 0.000221, 0.001202,-0.010038, 0.104273,-0.034182,-0.097335,1,-0.002210, 0.000609,-0.000504,1,-0.111941,-1.229406, 9.728639,1,1
1778777824215,  2518.004,  2517.999, 0.008534, 0.124729,-0.980232, 0.000077, 0.001261,-0.009781,-0.036149, 0.035682, 0.192907,1, 0.001366, 0.000093,-0.000007,1,-0.112353,-1.229490, 9.728623,1,1
1778777824242,  2518.029,  2518.029, 0.018591, 0.122523,-1.002565, 0.000187, 0.001208,-0.010041, 0.071251,-0.026649,-0.102999,1, 0.000856,-0.004015,-0.000992,1,-0.110934,-1.228165, 9.728807,1,1
1778777824263,  2518.054,  2518.049, 0.009426, 0.125682,-0.985383, 0.000083, 0.001268,-0.009826,-0.053439, 0.052541, 0.168026,1,-0.002471, 0.000366,-0.000229,1,-0.110997,-1.228686, 9.728741,1,1
1778777824285,  2518.074,  2518.069, 0.013241, 0.123699,-1.002821, 0.000140, 0.001222,-0.010053, 0.038485,-0.053264,-0.110623,1, 0.003186,-0.006682,-0.000681,1,-0.110008,-1.228105, 9.728826,1,1
1778777824312,  2518.099,  2518.099, 0.002282, 0.130381,-0.976398, 0.000017, 0.001308,-0.009754,-0.087754, 0.050014, 0.153568,1,-0.001362, 0.001790, 0.000626,1,-0.110194,-1.228633, 9.728757,1,1
1778777824333,  2518.124,  2518.119, 0.014755, 0.122312,-0.996873, 0.000154, 0.001213,-0.009990, 0.036288,-0.048567,-0.085519,1, 0.000383,-0.001815, 0.000332,1,-0.109991,-1.228551, 9.728769,1,1
1778777824355,  2518.144,  2518.139, 0.006309, 0.129947,-0.975919, 0.000060, 0.001300,-0.009754,-0.020175, 0.032341, 0.100402,1,-0.003612, 0.005206, 0.000927,1,-0.110560,-1.229209, 9.728680,1,1
1778777824382,  2518.169,  2518.169, 0.016027, 0.119760,-0.997330, 0.000155, 0.001201,-0.009965, 0.046146,-0.054779,-0.051792,1, 0.001355,-0.000692, 0.000246,1,-0.111002,-1.229185, 9.728678,1,1
1778777824404,  2518.194,  2518.189, 0.006306, 0.129855,-0.975383, 0.000066, 0.001302,-0.009755,-0.003981, 0.032936, 0.099946,1,-0.003354, 0.002195, 0.000111,1,-0.111291,-1.229753, 9.728602,1,1
1778777824425,  2518.214,  2518.209, 0.013283, 0.120411,-0.999083, 0.000123, 0.001202,-0.009977,-0.030767,-0.016075, 0.071129,1, 0.002364,-0.004285, 0.000070,1,-0.111018,-1.229487, 9.728640,1,1
1778777824452,  2518.239,  2518.239, 0.010532, 0.128836,-0.983127, 0.000114, 0.001287,-0.009853,-0.007294, 0.034232, 0.087491,1,-0.001820, 0.004758, 0.000434,1,-0.110723,-1.229272, 9.728670,1,1
1778777824474,  2518.264,  2518.259, 0.018175, 0.118292,-1.000807, 0.000176, 0.001184,-0.009993, 0.016140,-0.028730, 0.066115,1, 0.004077, 0.001103, 0.000467,1,-0.111378,-1.229003, 9.728696,1,1
1778777824495,  2518.284,  2518.279, 0.008899, 0.128545,-0.981252, 0.000095, 0.001286,-0.009829, 0.036322,-0.030622,-0.049273,1, 0.000737, 0.002316,-0.000096,1,-0.111475,-1.228399, 9.728771,1,1
1778777824522,  2518.309,  2518.309, 0.013974, 0.120612,-0.991363, 0.000127, 0.001218,-0.009889, 0.025106,-0.045560, 0.006825,1, 0.001497,-0.000879,-0.000821,1,-0.111902,-1.228310, 9.728778,1,1
1778777824544,  2518.334,  2518.329, 0.012385, 0.127920,-0.980440, 0.000135, 0.001280,-0.009822, 0.068973,-0.022719,-0.028737,1,-0.001553, 0.001808,-0.001225,1,-0.111687,-1.228362, 9.728774,1,1
1778777824565,  2518.354,  2518.349, 0.008695, 0.120703,-0.986914, 0.000081, 0.001213,-0.009848,-0.040038, 0.020418, 0.159297,1, 0.001213,-0.000454,-0.000348,1,-0.111909,-1.228378, 9.728769,1,1
1778777824592,  2518.379,  2518.379, 0.011856, 0.122540,-0.996679, 0.000129, 0.001209,-0.009992, 0.005142,-0.026060,-0.045229,1,-0.002712,-0.001154,-0.000328,1,-0.111087,-1.227851, 9.728845,1,1
1778777824614,  2518.404,  2518.399, 0.010033, 0.123822,-0.990324, 0.000088, 0.001243,-0.009881,-0.062966, 0.034114, 0.132056,1,-0.000367,-0.001207,-0.000043,1,-0.111078,-1.228442, 9.728770,1,1
1778777824635,  2518.424,  2518.419, 0.012549, 0.125850,-0.994024, 0.000136, 0.001245,-0.009970, 0.032827,-0.036696,-0.099606,1,-0.000760,-0.004530,-0.000528,1,-0.110139,-1.228374, 9.728789,1,1
1778777824662,  2518.449,  2518.449, 0.003270, 0.129084,-0.972556, 0.000028, 0.001301,-0.009711,-0.078674, 0.036706, 0.191163,1, 0.000255, 0.002488, 0.000690,1,-0.110824,-1.229164, 9.728683,1,1
1778777824684,  2518.474,  2518.469, 0.011214, 0.125630,-0.997222, 0.000118, 0.001241,-0.009996,-0.000946,-0.040807,-0.099091,1, 0.002094,-0.001850,-0.000154,1,-0.110484,-1.228518, 9.728767,1,1
1778777824707,  2518.494,  2518.494, 0.010966, 0.130136,-0.978108, 0.000102, 0.001306,-0.009771,-0.004097, 0.047329, 0.136746,1, 0.000394, 0.003917, 0.000104,1,-0.111754,-1.228855, 9.728710,1,1
1778777824732,  2518.519,  2518.519, 0.021002, 0.119536,-0.997422, 0.000205, 0.001193,-0.009969, 0.093927,-0.056001,-0.052583,1, 0.002362, 0.001812, 0.000190,1,-0.112085,-1.228173, 9.728793,1,1
1778777824754,  2518.544,  2518.539, 0.004408, 0.127939,-0.983908, 0.000042, 0.001285,-0.009826,-0.043669, 0.027157, 0.097199,1,-0.000062, 0.003960,-0.000492,1,-0.112728,-1.228037, 9.728803,1,1
1778777824777,  2518.564,  2518.564, 0.015754, 0.120997,-1.001818, 0.000150, 0.001208,-0.010021, 0.042388,-0.041708,-0.095700,1,-0.001758,-0.002395,-0.000424,1,-0.112020,-1.228340, 9.728772,1,1
1778777824802,  2518.589,  2518.589, 0.014963, 0.127144,-0.980157, 0.000154, 0.001265,-0.009817, 0.034677, 0.018146, 0.116665,1,-0.001121, 0.002479,-0.000036,1,-0.112139,-1.228747, 9.728720,1,1
1778777824824,  2518.614,  2518.609, 0.015570, 0.119056,-0.994480, 0.000153, 0.001188,-0.009939, 0.036310,-0.035504, 0.072347,1, 0.003236,-0.000355,-0.000119,1,-0.112466,-1.228224, 9.728782,1,1
1778777824847,  2518.634,  2518.634, 0.002782, 0.129696,-0.979753, 0.000038, 0.001294,-0.009803,-0.085130, 0.043296, 0.120638,1,-0.002725,-0.000556, 0.000049,1,-0.112394,-1.228670, 9.728726,1,1
1778777824873,  2518.659,  2518.659, 0.008992, 0.121924,-0.995853, 0.000074, 0.001225,-0.009932,-0.023694,-0.032750,-0.037218,1, 0.003384,-0.004454, 0.000043,1,-0.111737,-1.228316, 9.728779,1,1
1778777824894,  2518.684,  2518.679, 0.015262, 0.130419,-0.979137, 0.000165, 0.001313,-0.009811, 0.084940,-0.006508,-0.043550,1,-0.002544, 0.002314,-0.000395,1,-0.111507,-1.228161, 9.728801,1,1
1778777824917,  2518.704,  2518.704, 0.005086, 0.121174,-0.983191, 0.000048, 0.001217,-0.009804,-0.062422,-0.039903, 0.086976,1, 0.002141,-0.001908,-0.000280,1,-0.112237,-1.228145, 9.728795,1,1
1778777824943,  2518.729,  2518.729, 0.007148, 0.121217,-1.002821, 0.000076, 0.001191,-0.010048,-0.041606,-0.039373,-0.105513,1,-0.004512,-0.000734,-0.000372,1,-0.111685,-1.228248, 9.728788,1,1
1778777824964,  2518.754,  2518.749, 0.015677, 0.124370,-0.987223, 0.000142, 0.001248,-0.009848,-0.039946, 0.040623, 0.147123,1,-0.001350, 0.001972,-0.000314,1,-0.112358,-1.229151, 9.728666,1,1
1778777824987,  2518.774,  2518.774, 0.019439, 0.123427,-0.991449, 0.000202, 0.001220,-0.009939, 0.078620,-0.017918, 0.005982,1,-0.000309, 0.003683, 0.000071,1,-0.112121,-1.228332, 9.728772,1,1
1778777825013,  2518.799,  2518.799, 0.001364, 0.126589,-0.974741, 0.000010, 0.001266,-0.009731,-0.099663, 0.012984, 0.169804,1, 0.000854, 0.005009,-0.000179,1,-0.113192,-1.228405, 9.728751,1,1
1778777825034,  2518.824,  2518.819, 0.015990, 0.124575,-1.003080, 0.000155, 0.001234,-0.010060,-0.008399,-0.059228,-0.162599,1,-0.001085,-0.002631,-0.000494,1,-0.112898,-1.228116, 9.728791,1,1
1778777825057,  2518.849,  2518.844, 0.014226, 0.130871,-0.972025, 0.000140, 0.001311,-0.009718, 0.025976, 0.054224, 0.196343,1,-0.000507, 0.002221, 0.000350,1,-0.113604,-1.229198, 9.728646,1,1
1778777825083,  2518.869,  2518.869, 0.020560, 0.119061,-0.994881, 0.000211, 0.001193,-0.009932, 0.088054,-0.061077,-0.027733,1, 0.002942,-0.000141,-0.000440,1,-0.113564,-1.228575, 9.728725,1,1
1778777825104,  2518.894,  2518.889, 0.002342, 0.130143,-0.980519, 0.000020, 0.001302,-0.009793,-0.059029, 0.034357, 0.096211,1,-0.001821, 0.003299,-0.000342,1,-0.113914,-1.228734, 9.728701,1,1
1778777825127,  2518.919,  2518.914, 0.017055, 0.120762,-1.003495, 0.000162, 0.001208,-0.010036, 0.054035,-0.044330,-0.112201,1,-0.000900,-0.005050,-0.000110,1,-0.113056,-1.228630, 9.728724,1,1
1778777825153,  2518.939,  2518.939, 0.014001, 0.129189,-0.975412, 0.000153, 0.001288,-0.009774, 0.024445, 0.037907, 0.163157,1,-0.001000, 0.001339,-0.000414,1,-0.112897,-1.229040, 9.728674,1,1
1778777825175,  2518.964,  2518.959, 0.012789, 0.118548,-1.002344, 0.000125, 0.001187,-0.010007,-0.010638,-0.026790, 0.060400,1, 0.004300,-0.001070,-0.000574,1,-0.113273,-1.228312, 9.728762,1,1
1778777825197,  2518.989,  2518.984, 0.006622, 0.129735,-0.982926, 0.000069, 0.001293,-0.009848,-0.048371, 0.043552, 0.089495,1,-0.003497, 0.002045,-0.000391,1,-0.113370,-1.228819, 9.728697,1,1
1778777825223,  2519.009,  2519.009, 0.012240, 0.124084,-0.988825, 0.000112, 0.001250,-0.009864, 0.007064,-0.011798, 0.031665,1, 0.003170,-0.004172,-0.000393,1,-0.112839,-1.228545, 9.728737,1,1
1778777825245,  2519.034,  2519.029, 0.009421, 0.128232,-0.980656, 0.000106, 0.001281,-0.009819, 0.049352,-0.027409,-0.026397,1, 0.000314, 0.000970,-0.000532,1,-0.112338,-1.228266, 9.728778,1,1
1778777825267,  2519.059,  2519.054, 0.007943, 0.122470,-0.988494, 0.000079, 0.001234,-0.009864,-0.035017,-0.027299, 0.034954,1, 0.001064,-0.001439, 0.000207,1,-0.112863,-1.228289, 9.728769,1,1
1778777825293,  2519.079,  2519.079, 0.011009, 0.123283,-0.996061, 0.000115, 0.001219,-0.009984,-0.004400,-0.019308,-0.039247,1,-0.002046,-0.002107,-0.000364,1,-0.112293,-1.228366, 9.728766,1,1
1778777825315,  2519.104,  2519.099, 0.014347, 0.122103,-0.987624, 0.000134, 0.001230,-0.009857,-0.047382, 0.024438, 0.158823,1,-0.000163,-0.000213, 0.000234,1,-0.112416,-1.228612, 9.728734,1,1
1778777825338,  2519.129,  2519.124, 0.017546, 0.123968,-0.992737, 0.000184, 0.001225,-0.009951, 0.059735,-0.012568,-0.006651,1,-0.001306, 0.003157,-0.000561,1,-0.112428,-1.228319, 9.728770,1,1
1778777825363,  2519.149,  2519.149, 0.004412, 0.127700,-0.978295, 0.000047, 0.001285,-0.009772,-0.069775, 0.023832, 0.134949,1, 0.000970, 0.001562,-0.000060,1,-0.113094,-1.228445, 9.728747,1,1
1778777825385,  2519.174,  2519.169, 0.015191, 0.123984,-0.996777, 0.000152, 0.001225,-0.009993, 0.009071,-0.052520,-0.112959,1, 0.000223,-0.002177,-0.000597,1,-0.112502,-1.227978, 9.728813,1,1
1778777825412,  2519.199,  2519.199, 0.010347, 0.128119,-0.977501, 0.000103, 0.001289,-0.009762,-0.011314, 0.028248, 0.142776,1, 0.003235, 0.001536,-0.000375,1,-0.112830,-1.228070, 9.728797,1,1
1778777825433,  2519.219,  2519.219, 0.017741, 0.119684,-0.999330, 0.000180, 0.001198,-0.009979, 0.061347,-0.053559,-0.071182,1, 0.003370,-0.001039,-0.000505,1,-0.112594,-1.227157, 9.728915,1,1
1778777825455,  2519.244,  2519.239, 0.003383, 0.128248,-0.978027, 0.000033, 0.001290,-0.009763,-0.051176, 0.046680, 0.122954,1,-0.002192, 0.003057, 0.000008,1,-0.112986,-1.227600, 9.728855,1,1
1778777825482,  2519.269,  2519.269, 0.013910, 0.119604,-1.004443, 0.000137, 0.001196,-0.010042, 0.024247,-0.054544,-0.121338,1,-0.000424,-0.004985,-0.000593,1,-0.112011,-1.227477, 9.728882,1,1
1778777825503,  2519.294,  2519.289, 0.008833, 0.126850,-0.972175, 0.000108, 0.001283,-0.009729,-0.003587, 0.035627, 0.128673,1,-0.002021, 0.004900, 0.000887,1,-0.112240,-1.228011, 9.728811,1,1
1778777825525,  2519.314,  2519.309, 0.016271, 0.118985,-0.997507, 0.000155, 0.001201,-0.009959,-0.004572,-0.015415, 0.093245,1,-0.000319,-0.000546,-0.000109,1,-0.112526,-1.228031, 9.728806,1,1
1778777825552,  2519.339,  2519.339, 0.002830, 0.130570,-0.982247, 0.000036, 0.001300,-0.009836,-0.084626, 0.052271, 0.096240,1,-0.002839, 0.001547,-0.000348,1,-0.112427,-1.228269, 9.728777,1,1
1778777825574,  2519.364,  2519.359, 0.017447, 0.120652,-1.001263, 0.000171, 0.001203,-0.010020, 0.024804,-0.015366,-0.024689,1, 0.001771,-0.004701,-0.000045,1,-0.111983,-1.228153, 9.728797,1,1
1778777825595,  2519.384,  2519.379, 0.011495, 0.128739,-0.978188, 0.000128, 0.001289,-0.009784, 0.056684, 0.000739, 0.032458,1,-0.000983, 0.003128,-0.000412,1,-0.111884,-1.228354, 9.728772,1,1
1778777825622,  2519.409,  2519.409, 0.008620, 0.122085,-0.989931, 0.000082, 0.001227,-0.009880,-0.027947,-0.030420, 0.020940,1, 0.002997,-0.000504,-0.000883,1,-0.112463,-1.227574, 9.728864,1,1
1778777825644,  2519.434,  2519.429, 0.007270, 0.130421,-0.981462, 0.000078, 0.001301,-0.009839,-0.012480,-0.004074,-0.047976,1,-0.002664, 0.000527, 0.000110,1,-0.112157,-1.227633, 9.728860,1,1
1778777825665,  2519.454,  2519.449, 0.013453, 0.121250,-0.990044, 0.000135, 0.001223,-0.009887,-0.015753, 0.026531, 0.123448,1, 0.001005, 0.001653, 0.000162,1,-0.112653,-1.227946, 9.728815,1,1
1778777825692,  2519.479,  2519.479, 0.018861, 0.123925,-0.993267, 0.000201, 0.001230,-0.009955, 0.072263,-0.012187,-0.011747,1, 0.000379, 0.003083, 0.000195,1,-0.112795,-1.227466, 9.728874,1,1
1778777825714,  2519.504,  2519.499, 0.010158, 0.120449,-0.990079, 0.000088, 0.001212,-0.009872,-0.074476, 0.017365, 0.143004,1,-0.000497, 0.001419, 0.000595,1,-0.113364,-1.227738, 9.728833,1,1
1778777825735,  2519.524,  2519.519, 0.014634, 0.125243,-0.993374, 0.000153, 0.001237,-0.009969, 0.044813,-0.067113,-0.111790,1,-0.001996,-0.004630,-0.000729,1,-0.112572,-1.227729, 9.728844,1,1
1778777825762,  2519.549,  2519.549, 0.009367, 0.127240,-0.976108, 0.000084, 0.001283,-0.009739,-0.020803, 0.019347, 0.156399,1, 0.001784,-0.001532,-0.000243,1,-0.112612,-1.228393, 9.728759,1,1
1778777825784,  2519.574,  2519.569, 0.013481, 0.125779,-0.988744, 0.000153, 0.001239,-0.009918, 0.068809,-0.063220,-0.091310,1, 0.000439,-0.002075,-0.000560,1,-0.112196,-1.227941, 9.728821,1,1
1778777825805,  2519.594,  2519.589, 0.005770, 0.126620,-0.978133, 0.000052, 0.001273,-0.009759,-0.053390, 0.039793, 0.170423,1,-0.001208, 0.001708, 0.000258,1,-0.112460,-1.228449, 9.728754,1,1
1778777825832,  2519.619,  2519.619, 0.014180, 0.119837,-1.003055, 0.000138, 0.001195,-0.010035, 0.027847,-0.052925,-0.107804,1,-0.001327,-0.003992,-0.000867,1,-0.111084,-1.228170, 9.728805,1,1
1778777825854,  2519.644,  2519.639, 0.010032, 0.127628,-0.978853, 0.000096, 0.001283,-0.009774,-0.013546, 0.042590, 0.142401,1,-0.002003, 0.002370, 0.000750,1,-0.111430,-1.228815, 9.728720,1,1
1778777825875,  2519.664,  2519.659, 0.013394, 0.119935,-0.998372, 0.000136, 0.001196,-0.009986, 0.022553,-0.031393, 0.013592,1, 0.002351,-0.002897, 0.000239,1,-0.111200,-1.228587, 9.728751,1,1
1778777825902,  2519.689,  2519.689, 0.003607, 0.129791,-0.980165, 0.000037, 0.001298,-0.009808,-0.075639, 0.044035, 0.116595,1,-0.001004, 0.000639,-0.000003,1,-0.111033,-1.228809, 9.728724,1,1
1778777825924,  2519.714,  2519.709, 0.018023, 0.121852,-0.998220, 0.000179, 0.001213,-0.009989, 0.022990,-0.026404,-0.039218,1, 0.001859,-0.002608,-0.000804,1,-0.110607,-1.228531, 9.728765,1,1
1778777825947,  2519.734,  2519.734, 0.007656, 0.129176,-0.977991, 0.000082, 0.001291,-0.009780,-0.035748, 0.038352, 0.137959,1, 0.001354, 0.001863,-0.000395,1,-0.110889,-1.228391, 9.728779,1,1
1778777825973,  2519.759,  2519.759, 0.009732, 0.120351,-0.995165, 0.000091, 0.001209,-0.009930,-0.015351,-0.047781,-0.030410,1, 0.000787,-0.001904,-0.000248,1,-0.110723,-1.228003, 9.728830,1,1
1778777825994,  2519.784,  2519.779, 0.008382, 0.130737,-0.979108, 0.000088, 0.001308,-0.009800, 0.008330, 0.024821, 0.018411,1,-0.003541, 0.001573, 0.000147,1,-0.110875,-1.228606, 9.728752,1,1
1778777826017,  2519.804,  2519.804, 0.013847, 0.120464,-0.995212, 0.000137, 0.001210,-0.009938, 0.025153,-0.046802,-0.030890,1, 0.005374,-0.004952,-0.000315,1,-0.110484,-1.227988, 9.728835,1,1
1778777826043,  2519.829,  2519.829, 0.012079, 0.126069,-0.985701, 0.000133, 0.001249,-0.009887, 0.044388,-0.056410,-0.062845,1, 0.001326,-0.001986,-0.001579,1,-0.110235,-1.227777, 9.728864,1,1
1778777826064,  2519.854,  2519.849, 0.013615, 0.120041,-0.996391, 0.000128, 0.001203,-0.009944,-0.023615,-0.011336, 0.102879,1, 0.000587, 0.000516, 0.000265,1,-0.110988,-1.228219, 9.728800,1,1
1778777826087,  2519.874,  2519.874, 0.012763, 0.127613,-0.988440, 0.000135, 0.001268,-0.009912, 0.014460, 0.022841, 0.035469,1,-0.004091, 0.001613, 0.000124,1,-0.110747,-1.228746, 9.728736,1,1
1778777826113,  2519.899,  2519.899, 0.010093, 0.125437,-0.978249, 0.000094, 0.001267,-0.009763,-0.012069, 0.001215, 0.135369,1, 0.002026,-0.000755,-0.000078,1,-0.111019,-1.228843, 9.728721,1,1
1778777826134,  2519.924,  2519.919, 0.012519, 0.125881,-0.990134, 0.000134, 0.001249,-0.009926, 0.041658,-0.056008,-0.074397,1, 0.000960,-0.000066,-0.000849,1,-0.110602,-1.228368, 9.728786,1,1
1778777826157,  2519.944,  2519.944, 0.005570, 0.126002,-0.982561, 0.000051, 0.001267,-0.009812,-0.056605, 0.007066, 0.093115,1, 0.001146,-0.000287,-0.000211,1,-0.111214,-1.228557, 9.728755,1,1
1778777826183,  2519.969,  2519.969, 0.014894, 0.120183,-0.998574, 0.000150, 0.001197,-0.009994, 0.035396,-0.049739,-0.063878,1,-0.001469,-0.001398,-0.000357,1,-0.110623,-1.228374, 9.728785,1,1
1778777826204,  2519.994,  2519.989, 0.006591, 0.126300,-0.981493, 0.000056, 0.001269,-0.009792,-0.038374, 0.026000, 0.166113,1,-0.001529, 0.002861, 0.000251,1,-0.111090,-1.228885, 9.728714,1,1
1778777826227,  2520.014,  2520.014, 0.016531, 0.121284,-1.005054, 0.000164, 0.001205,-0.010062, 0.051127,-0.039397,-0.127485,1,-0.003641, 0.000095, 0.000043,1,-0.110989,-1.228903, 9.728713,1,1
1778777826253,  2520.039,  2520.039, 0.005966, 0.132158,-0.974616, 0.000064, 0.001321,-0.009751,-0.053172, 0.065922, 0.170834,1,-0.004082, 0.003562, 0.001278,1,-0.111796,-1.230228, 9.728537,1,1
1778777826274,  2520.064,  2520.059, 0.015993, 0.119978,-1.001606, 0.000151, 0.001194,-0.010023,-0.016783,-0.039912,-0.033475,1, 0.004289,-0.002416,-0.000099,1,-0.111782,-1.229733, 9.728600,1,1
1778777826297,  2520.089,  2520.084, 0.015638, 0.129496,-0.976024, 0.000163, 0.001296,-0.009771, 0.040779, 0.040577, 0.157116,1, 0.001686, 0.005777, 0.000150,1,-0.112761,-1.229296, 9.728643,1,1
1778777826323,  2520.109,  2520.109, 0.015761, 0.120404,-0.984827, 0.000158, 0.001216,-0.009826, 0.041210,-0.047666, 0.070892,1, 0.006417,-0.001268,-0.000568,1,-0.113312,-1.228230, 9.728771,1,1
1778777826345,  2520.134,  2520.129, 0.003856, 0.128427,-0.981700, 0.000052, 0.001281,-0.009832, 0.011242,-0.013907,-0.029354,1,-0.000952,-0.002395,-0.000977,1,-0.112607,-1.227807, 9.728833,1,1
1778777826367,  2520.159,  2520.154, 0.013219, 0.124791,-0.995096, 0.000119, 0.001255,-0.009930, 0.017802,-0.004885,-0.029824,1,-0.001825,-0.005818,-0.000854,1,-0.111668,-1.228706, 9.728730,1,1
1778777826393,  2520.179,  2520.179, 0.016706, 0.128903,-0.989749, 0.000180, 0.001276,-0.009933, 0.052728, 0.035000, 0.022565,1,-0.002666,-0.001163,-0.000625,1,-0.111066,-1.229191, 9.728676,1,1
1778777826415,  2520.204,  2520.199, 0.005333, 0.121861,-0.997073, 0.000042, 0.001224,-0.009944,-0.096473, 0.026752, 0.132196,1, 0.004866,-0.003159,-0.000837,1,-0.110863,-1.228674, 9.728744,1,1
1778777826437,  2520.229,  2520.224, 0.009965, 0.126707,-0.997894, 0.000101, 0.001252,-0.010012,-0.012131, 0.014227,-0.057196,1,-0.004455, 0.002166,-0.000362,1,-0.109918,-1.228479, 9.728779,1,1
1778777826463,  2520.249,  2520.249, 0.010796, 0.128425,-0.975787, 0.000098, 0.001296,-0.009746,-0.004603, 0.030478, 0.159508,1, 0.001456, 0.002279, 0.000560,1,-0.110549,-1.228900, 9.728719,1,1
1778777826485,  2520.274,  2520.269, 0.012509, 0.124599,-0.983697, 0.000141, 0.001233,-0.009863, 0.077749,-0.064807,-0.030173,1, 0.002548, 0.001600,-0.000313,1,-0.110599,-1.228179, 9.728809,1,1
1778777826508,  2520.299,  2520.294, 0.006305, 0.124224,-0.980204, 0.000054, 0.001253,-0.009775,-0.050093,-0.009879, 0.116284,1, 0.002031, 0.001233, 0.000296,1,-0.111966,-1.228035, 9.728811,1,1
1778777826533,  2520.319,  2520.319, 0.019466, 0.118445,-1.003631, 0.000197, 0.001180,-0.010049, 0.079468,-0.066313,-0.113416,1,-0.000192,-0.002462, 0.000065,1,-0.111352,-1.227864, 9.728841,1,1
1778777826555,  2520.344,  2520.339, 0.011417, 0.125983,-0.978633, 0.000115, 0.001268,-0.009772, 0.007427, 0.038439, 0.168009,1,-0.000654, 0.002820,-0.000026,1,-0.111750,-1.228243, 9.728788,1,1
1778777826578,  2520.369,  2520.364, 0.010696, 0.119644,-0.999532, 0.000112, 0.001194,-0.009994,-0.006522,-0.054459,-0.073213,1, 0.000307,-0.002713,-0.000655,1,-0.111328,-1.227754, 9.728854,1,1
1778777826603,  2520.389,  2520.389, 0.005375, 0.127821,-0.986458, 0.000054, 0.001274,-0.009871,-0.058545, 0.025505, 0.054981,1,-0.001279,-0.000564,-0.000400,1,-0.111238,-1.228028, 9.728821,1,1
1778777826625,  2520.414,  2520.409, 0.018306, 0.121900,-0.992521, 0.000185, 0.001218,-0.009933, 0.042997,-0.024856,-0.010731,1, 0.000375,-0.003961,-0.000191,1,-0.110575,-1.228176, 9.728810,1,1
1778777826652,  2520.439,  2520.439, 0.001647, 0.129457,-0.975130, 0.000029, 0.001296,-0.009745,-0.094290, 0.041029, 0.166006,1, 0.000596, 0.000353,-0.000093,1,-0.110453,-1.228490, 9.728771,1,1
1778777826673,  2520.459,  2520.459, 0.007314, 0.120284,-1.001810, 0.000065, 0.001204,-0.010002,-0.038373,-0.048695,-0.095594,1, 0.000832,-0.002722, 0.000194,1,-0.110020,-1.228252, 9.728806,1,1
1778777826695,  2520.484,  2520.479, 0.011493, 0.131511,-0.977436, 0.000118, 0.001319,-0.009784, 0.010654, 0.041028, 0.027256,1,-0.001421, 0.002856,-0.000099,1,-0.110130,-1.228523, 9.728771,1,1
1778777826722,  2520.509,  2520.509, 0.015999, 0.119855,-0.988131, 0.000159, 0.001202,-0.009862, 0.046466,-0.052532, 0.038592,1, 0.004477,-0.001568,-0.000617,1,-0.110375,-1.227769, 9.728864,1,1
1778777826744,  2520.534,  2520.529, 0.005239, 0.129378,-0.983842, 0.000048, 0.001293,-0.009836,-0.029519, 0.018998, 0.035332,1,-0.002624, 0.004384, 0.000157,1,-0.110877,-1.227746, 9.728861,1,1
1778777826765,  2520.554,  2520.549, 0.019208, 0.122373,-1.002255, 0.000182, 0.001226,-0.010012,-0.004071,-0.000290, 0.001554,1, 0.000682,-0.000585, 0.000544,1,-0.111393,-1.227850, 9.728842,1,1
1778777826792,  2520.579,  2520.579, 0.016235, 0.128196,-0.979271, 0.000175, 0.001274,-0.009816, 0.048317, 0.029336, 0.125483,1,-0.000755, 0.002787, 0.000038,1,-0.110978,-1.227856, 9.728846,1,1
1778777826814,  2520.604,  2520.599, 0.011158, 0.118907,-0.998675, 0.000111, 0.001192,-0.009962,-0.014684,-0.025671, 0.100440,1, 0.003301,-0.000962, 0.000171,1,-0.111177,-1.227350, 9.728908,1,1
1778777826835,  2520.624,  2520.619, 0.007912, 0.127317,-0.990760, 0.000084, 0.001268,-0.009932,-0.009255,-0.051872,-0.110825,1,-0.002468,-0.001704,-0.000487,1,-0.110653,-1.227293, 9.728920,1,1
1778777826862,  2520.649,  2520.649, 0.010370, 0.123944,-0.980398, 0.000100, 0.001247,-0.009796,-0.008737,-0.012672, 0.114392,1,-0.000244,-0.003253, 0.000073,1,-0.110329,-1.228152, 9.728816,1,1
1778777826884,  2520.674,  2520.669, 0.006362, 0.126873,-0.981013, 0.000078, 0.001262,-0.009829, 0.028962,-0.047996, 0.015910,1,-0.001412,-0.000769,-0.001186,1,-0.109759,-1.227996, 9.728842,1,1
1778777826905,  2520.694,  2520.689, 0.003071, 0.124491,-0.991577, 0.000014, 0.001249,-0.009891,-0.115066, 0.024894, 0.124245,1,-0.000630, 0.000485, 0.000507,1,-0.110112,-1.228311, 9.728798,1,1
1778777826932,  2520.719,  2520.719, 0.015909, 0.122576,-1.001682, 0.000155, 0.001220,-0.010043, 0.046554,-0.026532,-0.094378,1,-0.003286,-0.000327,-0.000188,1,-0.109451,-1.228697, 9.728757,1,1
1778777826954,  2520.744,  2520.739, 0.010029, 0.125265,-0.980728, 0.000091, 0.001261,-0.009783,-0.017096, 0.046727, 0.193880,1, 0.002361, 0.003077, 0.000199,1,-0.110113,-1.228807, 9.728735,1,1
1778777826975,  2520.764,  2520.759, 0.011783, 0.120992,-1.000831, 0.000118, 0.001201,-0.010021, 0.003526,-0.047188,-0.043172,1, 0.004057,-0.000396, 0.000019,1,-0.110216,-1.227914, 9.728848,1,1
1778777827002,  2520.789,  2520.789, 0.009673, 0.129133,-0.982133, 0.000094, 0.001295,-0.009820,-0.016559, 0.037944, 0.097329,1,-0.001257, 0.003773, 0.001079,1,-0.111538,-1.228457, 9.728764,1,1
1778777827024,  2520.814,  2520.809, 0.020806, 0.121350,-0.990610, 0.000214, 0.001208,-0.009925, 0.096922,-0.045735,-0.011657,1, 0.001076,-0.001790,-0.000313,1,-0.111430,-1.228212, 9.728796,1,1
1778777827046,  2520.834,  2520.829, 0.005364, 0.128272,-0.974124, 0.000058, 0.001285,-0.009733, 0.000836, 0.022813, 0.143006,1,-0.001423, 0.002192, 0.000085,1,-0.111570,-1.228443, 9.728765,1,1
1778777827072,  2520.859,  2520.859, 0.013002, 0.119789,-1.002778, 0.000127, 0.001200,-0.010019, 0.016117,-0.053754,-0.105136,1,-0.000484,-0.004860,-0.000774,1,-0.111233,-1.228495, 9.728762,1,1
1778777827094,  2520.884,  2520.879, 0.008895, 0.130246,-0.975834, 0.000091, 0.001309,-0.009762, 0.011126, 0.048534, 0.048781,1,-0.001601,-0.000826, 0.000054,1,-0.110856,-1.228868, 9.728720,1,1
1778777827116,  2520.904,  2520.899, 0.013809, 0.118732,-0.993423, 0.000133, 0.001194,-0.009912,-0.007738,-0.013908, 0.115516,1, 0.004180,-0.003910,-0.000455,1,-0.110374,-1.228397, 9.728785,1,1
1778777827143,  2520.929,  2520.929, 0.008362, 0.127550,-0.986355, 0.000087, 0.001269,-0.009884,-0.028121, 0.022741, 0.055987,1,-0.002471, 0.004767, 0.000084,1,-0.110273,-1.228179, 9.728813,1,1
1778777827164,  2520.954,  2520.949, 0.015529, 0.120571,-1.001090, 0.000147, 0.001215,-0.009998,-0.032158,-0.005318, 0.025316,1, 0.001364,-0.002300,-0.000224,1,-0.110279,-1.228158, 9.728815,1,1
1778777827187,  2520.974,  2520.974, 0.013006, 0.126646,-0.978593, 0.000142, 0.001265,-0.009815, 0.017648, 0.013739, 0.132089,1,-0.003098, 0.003410, 0.000473,1,-0.110007,-1.228327, 9.728797,1,1
1778777827213,  2520.999,  2520.999, 0.007165, 0.122231,-0.981343, 0.000063, 0.001234,-0.009786,-0.040194,-0.029538, 0.105116,1, 0.002086, 0.000549, 0.000497,1,-0.110476,-1.228150, 9.728814,1,1
1778777827234,  2521.024,  2521.019, 0.008965, 0.131317,-0.988192, 0.000097, 0.001304,-0.009915, 0.004820,-0.022922,-0.123586,1,-0.004093, 0.000132, 0.000016,1,-0.110214,-1.228375, 9.728788,1,1
1778777827257,  2521.044,  2521.044, 0.010860, 0.127360,-0.980133, 0.000102, 0.001281,-0.009784,-0.003909, 0.019788, 0.116859,1, 0.002243,-0.003497, 0.000610,1,-0.110302,-1.229118, 9.728694,1,1
1778777827283,  2521.069,  2521.069, 0.014600, 0.122281,-0.994798, 0.000149, 0.001215,-0.009954, 0.033384,-0.029389,-0.026863,1, 0.000983,-0.000685,-0.000611,1,-0.109769,-1.228524, 9.728775,1,1
1778777827304,  2521.094,  2521.089, 0.009092, 0.126843,-0.991109, 0.000075, 0.001278,-0.009888,-0.063795, 0.051506, 0.104462,1,-0.000147, 0.002793, 0.000407,1,-0.110431,-1.228608, 9.728757,1,1
1778777827327,  2521.114,  2521.114, 0.016954, 0.123736,-0.999644, 0.000173, 0.001232,-0.010017, 0.056370,-0.014927,-0.074367,1, 0.000059,-0.001552,-0.000773,1,-0.109838,-1.228361, 9.728795,1,1
1778777827353,  2521.139,  2521.139, 0.007208, 0.128925,-0.976962, 0.000074, 0.001293,-0.009765,-0.039373, 0.036214, 0.148101,1, 0.003826, 0.001883,-0.000202,1,-0.110120,-1.227991, 9.728838,1,1
1778777827374,  2521.164,  2521.159, 0.016921, 0.119010,-0.997653, 0.000174, 0.001185,-0.009997, 0.043733,-0.056955,-0.074645,1, 0.002930, 0.000912,-0.000112,1,-0.110292,-1.227330, 9.728920,1,1
1778777827397,  2521.184,  2521.184, 0.008493, 0.124809,-0.976800, 0.000086, 0.001252,-0.009763,-0.027810,-0.003336, 0.149784,1, 0.001821,-0.000282,-0.000546,1,-0.111091,-1.227235, 9.728923,1,1
1778777827423,  2521.209,  2521.209, 0.014139, 0.114400,-0.995344, 0.000137, 0.001149,-0.009943, 0.028162,-0.105173,-0.032041,1,-0.002035,-0.004420,-0.000452,1,-0.110356,-1.227118, 9.728946,1,1
1778777827444,  2521.234,  2521.229, 0.006360, 0.127216,-0.976525, 0.000065, 0.001274,-0.009764, 0.003425,-0.007113, 0.094524,1,-0.006659, 0.002646,-0.000248,1,-0.110533,-1.228227, 9.728804,1,1
1778777827467,  2521.254,  2521.254, 0.013268, 0.119964,-0.998467, 0.000130, 0.001201,-0.009971, 0.019813,-0.052588,-0.062914,1,-0.000314,-0.004841,-0.000673,1,-0.110148,-1.229042, 9.728705,1,1
1778777827493,  2521.279,  2521.279, 0.007849, 0.130278,-0.982726, 0.000086, 0.001300,-0.009843,-0.032831, 0.048165, 0.091407,1,-0.002368, 0.000618, 0.000189,1,-0.109824,-1.229502, 9.728651,1,1
1778777827515,  2521.304,  2521.299, 0.014070, 0.122526,-0.999797, 0.000139, 0.001228,-0.009982,-0.016165, 0.005089, 0.059226,1, 0.001928,-0.002035,-0.000103,1,-0.109717,-1.229272, 9.728682,1,1
1778777827537,  2521.329,  2521.324, 0.012441, 0.129523,-0.985105, 0.000129, 0.001293,-0.009872, 0.012369, 0.041012, 0.068114,1,-0.001556, 0.004350,-0.000795,1,-0.109768,-1.229227, 9.728686,1,1
1778777827563,  2521.349,  2521.349, 0.010114, 0.127076,-0.984382, 0.000095, 0.001277,-0.009822,-0.010869, 0.017123, 0.075217,1, 0.002782,-0.001085, 0.000311,1,-0.110020,-1.228976, 9.728715,1,1
1778777827585,  2521.374,  2521.369, 0.009455, 0.129089,-0.986425, 0.000104, 0.001287,-0.009885, 0.029589,-0.018191,-0.065172,1,-0.001633, 0.001135, 0.000102,1,-0.110013,-1.228657, 9.728756,1,1
1778777827607,  2521.399,  2521.394, 0.010251, 0.126873,-0.987635, 0.000090, 0.001278,-0.009857,-0.010087, 0.015490, 0.043350,1, 0.002634,-0.001905, 0.000193,1,-0.110555,-1.228631, 9.728753,1,1
1778777827633,  2521.419,  2521.419, 0.017059, 0.125426,-0.996189, 0.000178, 0.001245,-0.009982, 0.057036, 0.001552,-0.040498,1,-0.001184, 0.000510, 0.000091,1,-0.110268,-1.228498, 9.728772,1,1
1778777827655,  2521.444,  2521.439, 0.007902, 0.123910,-0.987464, 0.000072, 0.001248,-0.009849,-0.061884, 0.045103, 0.168598,1, 0.002939, 0.001124, 0.000589,1,-0.110725,-1.228305, 9.728792,1,1
1778777827678,  2521.469,  2521.464, 0.012019, 0.121922,-0.997777, 0.000121, 0.001211,-0.009996, 0.007788,-0.032226,-0.055996,1,-0.002363,-0.000625,-0.000310,1,-0.110053,-1.227947, 9.728845,1,1
1778777827703,  2521.489,  2521.489, 0.008900, 0.128892,-0.976573, 0.000096, 0.001294,-0.009767,-0.023043, 0.035542, 0.151870,1,-0.000895, 0.000572,-0.000288,1,-0.110338,-1.228488, 9.728773,1,1
1778777827725,  2521.514,  2521.509, 0.012572, 0.119351,-0.994237, 0.000136, 0.001182,-0.009957, 0.041141,-0.065416,-0.021435,1, 0.002445,-0.003128,-0.000602,1,-0.110065,-1.228104, 9.728825,1,1
1778777827748,  2521.539,  2521.534, 0.003803, 0.126930,-0.979181, 0.000034, 0.001274,-0.009787,-0.072984, 0.016334, 0.126300,1, 0.000201, 0.000868, 0.000108,1,-0.110309,-1.228418, 9.728783,1,1
1778777827773,  2521.559,  2521.559, 0.018139, 0.120435,-0.999658, 0.000175, 0.001209,-0.009996, 0.067771,-0.047362,-0.074509,1,-0.000046,-0.000181,-0.000338,1,-0.110075,-1.228452, 9.728781,1,1
1778777827795,  2521.584,  2521.579, 0.009865, 0.125878,-0.974324, 0.000103, 0.001265,-0.009737, 0.045150, 0.014520, 0.115501,1, 0.000874, 0.002914, 0.000173,1,-0.110481,-1.228436, 9.728778,1,1
1778777827818,  2521.609,  2521.604, 0.011808, 0.117770,-0.998165, 0.000116, 0.001181,-0.009964, 0.005312,-0.072842,-0.059790,1,-0.000662,-0.002531,-0.000392,1,-0.110403,-1.227789, 9.728861,1,1
1778777827843,  2521.629,  2521.629, 0.009594, 0.126952,-0.987650, 0.000103, 0.001263,-0.009895,-0.016364, 0.016388, 0.043222,1,-0.004893, 0.001744, 0.000069,1,-0.110507,-1.228735, 9.728740,1,1
1778777827865,  2521.654,  2521.649, 0.015528, 0.119724,-0.998752, 0.000151, 0.001199,-0.009973, 0.000909,-0.013265, 0.034051,1, 0.001811,-0.003872, 0.000643,1,-0.110248,-1.228824, 9.728732,1,1
1778777827892,  2521.679,  2521.679, 0.007459, 0.128361,-0.978694, 0.000089, 0.001284,-0.009807,-0.036643, 0.029958, 0.131024,1,-0.001807, 0.001040, 0.000923,1,-0.109831,-1.228885, 9.728728,1,1
1778777827914,  2521.699,  2521.699, 0.007452, 0.123723,-0.987827, 0.000064, 0.001248,-0.009852,-0.036705,-0.015460, 0.041472,1, 0.001352,-0.002187,-0.000200,1,-0.109716,-1.228727, 9.728750,1,1
1778777827935,  2521.724,  2521.719, 0.010176, 0.132416,-0.980554, 0.000108, 0.001319,-0.009830, 0.026531, 0.005262,-0.062968,1,-0.004016,-0.000246,-0.000223,1,-0.109182,-1.229117, 9.728706,1,1
1778777827962,  2521.749,  2521.749, 0.010032, 0.126181,-0.984028, 0.000089, 0.001269,-0.009817,-0.011048, 0.008160, 0.078665,1, 0.003601,-0.002522,-0.000734,1,-0.109351,-1.229147, 9.728701,1,1
1778777827984,  2521.774,  2521.769, 0.008479, 0.129559,-0.982751, 0.000086, 0.001290,-0.009845, 0.015844,-0.019803,-0.043689,1,-0.000899, 0.001730,-0.000680,1,-0.109198,-1.228893, 9.728735,1,1
1778777828005,  2521.794,  2521.789, 0.011027, 0.125039,-0.990503, 0.000095, 0.001257,-0.009883,-0.046834, 0.026532, 0.112484,1, 0.001399, 0.001448,-0.000406,1,-0.109853,-1.228923, 9.728724,1,1
1778777828032,  2521.819,  2521.819, 0.014134, 0.124090,-0.994259, 0.000149, 0.001228,-0.009964, 0.029304,-0.011722,-0.021581,1,-0.002259, 0.000096, 0.000229,1,-0.109303,-1.228703, 9.728758,1,1
1778777828054,  2521.844,  2521.839, 0.009717, 0.122797,-0.992471, 0.000091, 0.001236,-0.009895,-0.045541, 0.024392, 0.135115,1, 0.002068, 0.002253, 0.000690,1,-0.109987,-1.228633, 9.728759,1,1
1778777828075,  2521.864,  2521.859, 0.013014, 0.123761,-0.998471, 0.000135, 0.001227,-0.010003, 0.024634,-0.053307,-0.104202,1, 0.002025,-0.002183, 0.000009,1,-0.109657,-1.228096, 9.728830,1,1
1778777828102,  2521.889,  2521.889, 0.009379, 0.127533,-0.977565, 0.000093, 0.001282,-0.009774,-0.018060, 0.022214, 0.142143,1,-0.000366, 0.000922, 0.000829,1,-0.110065,-1.228469, 9.728779,1,1
1778777828124,  2521.914,  2521.909, 0.013736, 0.121676,-0.991304, 0.000142, 0.001205,-0.009931, 0.033238,-0.059265,-0.019666,1, 0.000193,-0.000622,-0.000157,1,-0.109875,-1.228397, 9.728790,1,1
1778777828145,  2521.934,  2521.929, 0.007998, 0.127358,-0.980779, 0.000075, 0.001277,-0.009799,-0.016845, 0.008636, 0.093631,1,-0.001378, 0.003398, 0.000557,1,-0.110383,-1.228738, 9.728741,1,1
1778777828172,  2521.959,  2521.959, 0.020456, 0.119129,-0.996053, 0.000198, 0.001193,-0.009954, 0.090228,-0.060300,-0.039175,1, 0.000206,-0.001808, 0.000441,1,-0.110333,-1.228526, 9.728768,1,1
1778777828194,  2521.984,  2521.979, 0.005184, 0.126641,-0.976000, 0.000056, 0.001276,-0.009739, 0.013579, 0.024452, 0.167607,1,-0.000213, 0.001566, 0.000575,1,-0.110660,-1.228631, 9.728751,1,1
1778777828216,  2522.004,  2521.999, 0.013240, 0.117402,-1.004579, 0.000130, 0.001176,-0.010038,-0.023869,-0.046301, 0.013718,1, 0.002892,-0.003262,-0.000513,1,-0.110306,-1.227972, 9.728839,1,1
1778777828243,  2522.029,  2522.029, 0.009533, 0.130438,-0.978915, 0.000103, 0.001305,-0.009808,-0.016718, 0.050117, 0.128829,1,-0.005853, 0.002426, 0.000600,1,-0.110278,-1.229219, 9.728682,1,1
1778777828264,  2522.054,  2522.049, 0.013143, 0.119030,-1.005514, 0.000129, 0.001194,-0.010048,-0.014271,-0.026506, 0.021070,1, 0.003537,-0.005860,-0.000961,1,-0.109793,-1.228965, 9.728719,1,1
1778777828286,  2522.074,  2522.069, 0.004566, 0.131636,-0.980769, 0.000053, 0.001316,-0.009827,-0.005147,-0.003975,-0.066327,1,-0.004069, 0.001433,-0.000398,1,-0.109324,-1.229034, 9.728716,1,1
1778777828313,  2522.099,  2522.099, 0.009107, 0.125672,-0.991728, 0.000084, 0.001260,-0.009893,-0.020396, 0.003013, 0.003133,1, 0.002823,-0.004370, 0.000240,1,-0.109567,-1.229317, 9.728677,1,1
1778777828334,  2522.124,  2522.119, 0.008226, 0.129498,-0.982343, 0.000082, 0.001296,-0.009839, 0.003942,-0.010364,-0.057125,1,-0.000892, 0.000553,-0.000224,1,-0.109089,-1.229020, 9.728720,1,1
1778777828356,  2522.144,  2522.139, 0.012221, 0.126147,-0.986999, 0.000116, 0.001267,-0.009848,-0.028609, 0.044697, 0.147571,1, 0.000437, 0.004025, 0.000301,1,-0.109982,-1.229098, 9.728700,1,1
1778777828383,  2522.169,  2522.169, 0.013552, 0.123952,-0.992485, 0.000143, 0.001231,-0.009945, 0.022808,-0.013476,-0.004242,1,-0.001694, 0.002332, 0.000100,1,-0.110158,-1.229080, 9.728701,1,1
1778777828404,  2522.194,  2522.189, 0.013834, 0.124169,-0.988463, 0.000131, 0.001250,-0.009869,-0.023910, 0.035188, 0.121772,1, 0.001504, 0.001904,-0.000197,1,-0.110594,-1.229040, 9.728701,1,1
1778777828427,  2522.214,  2522.214, 0.017073, 0.124211,-0.988744, 0.000178, 0.001231,-0.009910, 0.056749,-0.010931, 0.032431,1,-0.001500, 0.002667, 0.000112,1,-0.110767,-1.229071, 9.728695,1,1
1778777828453,  2522.239,  2522.239, 0.008960, 0.126828,-0.978895, 0.000090, 0.001275,-0.009777,-0.023248, 0.014841, 0.129025,1, 0.002064, 0.000344, 0.000038,1,-0.111132,-1.228857, 9.728718,1,1
1778777828474,  2522.264,  2522.259, 0.015297, 0.123087,-0.992721, 0.000157, 0.001212,-0.009949, 0.033562,-0.068259,-0.054410,1, 0.001715,-0.001635,-0.000720,1,-0.110724,-1.228498, 9.728767,1,1
1778777828497,  2522.284,  2522.284, 0.007690, 0.126163,-0.979193, 0.000076, 0.001267,-0.009784,-0.035332, 0.008465, 0.126126,1, 0.000562,-0.000687, 0.000305,1,-0.110729,-1.228756, 9.728735,1,1
1778777828523,  2522.309,  2522.309, 0.014646, 0.116621,-1.002202, 0.000139, 0.001169,-0.010015, 0.033549,-0.084899,-0.099476,1,-0.000942,-0.003013,-0.000625,1,-0.109983,-1.228591, 9.728765,1,1
1778777828544,  2522.334,  2522.329, 0.001921, 0.128856,-0.979116, 0.000017, 0.001297,-0.009779,-0.040486, 0.036091, 0.104024,1,-0.003820, 0.002435, 0.000526,1,-0.110257,-1.229310, 9.728670,1,1
1778777828567,  2522.354,  2522.354, 0.012278, 0.118797,-1.005737, 0.000118, 0.001189,-0.010050, 0.010580,-0.064016,-0.134195,1, 0.000145,-0.003371,-0.000426,1,-0.109744,-1.228967, 9.728720,1,1
1778777828593,  2522.379,  2522.379, 0.009264, 0.130365,-0.978433, 0.000096, 0.001299,-0.009803,-0.019421, 0.048954, 0.133501,1,-0.003041, 0.005244, 0.001307,1,-0.110437,-1.229586, 9.728633,1,1
1778777828615,  2522.404,  2522.399, 0.014851, 0.120495,-1.001497, 0.000150, 0.001202,-0.010009, 0.014113,-0.021526, 0.054843,1, 0.003443,-0.001622, 0.000272,1,-0.110668,-1.229278, 9.728669,1,1
1778777828637,  2522.424,  2522.424, 0.008435, 0.130168,-0.979338, 0.000090, 0.001299,-0.009811,-0.028212, 0.046862, 0.124597,1,-0.004396, 0.003947, 0.001083,1,-0.111061,-1.229785, 9.728601,1,1
1778777828663,  2522.449,  2522.449, 0.012398, 0.124852,-0.987396, 0.000118, 0.001254,-0.009854, 0.010460,-0.005356, 0.045557,1, 0.002119,-0.004112,-0.000344,1,-0.110995,-1.229671, 9.728616,1,1
1778777828685,  2522.474,  2522.469, 0.011499, 0.127759,-0.981099, 0.000119, 0.001277,-0.009823, 0.042378,-0.005096,-0.011027,1,-0.000867, 0.000579, 0.000416,1,-0.110593,-1.229572, 9.728633,1,1
1778777828707,  2522.494,  2522.494, 0.012822, 0.124280,-0.987683, 0.000118, 0.001252,-0.009855, 0.014476,-0.010642, 0.042788,1, 0.001770, 0.000228, 0.000303,1,-0.111271,-1.229360, 9.728652,1,1
1778777828733,  2522.519,  2522.519, 0.015113, 0.124323,-0.994418, 0.000157, 0.001234,-0.009965, 0.036959,-0.010295,-0.023270,1,-0.002073, 0.000750,-0.000381,1,-0.111268,-1.229550, 9.728628,1,1
1778777828755,  2522.544,  2522.539, 0.009726, 0.123773,-0.991552, 0.000090, 0.001248,-0.009892,-0.063147, 0.041458, 0.118410,1, 0.002006,-0.001266,-0.000597,1,-0.111266,-1.229508, 9.728634,1,1
1778777828778,  2522.569,  2522.564, 0.015795, 0.122695,-0.995782, 0.000161, 0.001218,-0.009976, 0.043987,-0.026127,-0.036631,1,-0.001035, 0.001113,-0.000098,1,-0.110940,-1.229390, 9.728652,1,1
1778777828803,  2522.589,  2522.589, 0.006671, 0.127071,-0.978436, 0.000066, 0.001277,-0.009779,-0.045829, 0.016739, 0.133466,1, 0.001935, 0.000821,-0.000344,1,-0.111269,-1.229347, 9.728654,1,1
1778777828825,  2522.614,  2522.609, 0.010779, 0.122203,-0.994872, 0.000116, 0.001203,-0.009976, 0.003849,-0.076957,-0.078484,1,-0.000699,-0.003611,-0.000243,1,-0.110544,-1.229068, 9.728698,1,1
1778777828848,  2522.639,  2522.634, 0.006582, 0.128790,-0.978361, 0.000057, 0.001296,-0.009767,-0.046563, 0.032811, 0.134103,1,-0.001614, 0.002119, 0.000651,1,-0.111180,-1.230241, 9.728542,1,1
1778777828873,  2522.659,  2522.659, 0.018948, 0.120611,-1.000974, 0.000189, 0.001204,-0.010007, 0.074934,-0.047330,-0.087640,1, 0.000408,-0.002719,-0.000279,1,-0.110799,-1.230104, 9.728563,1,1
1778777828895,  2522.684,  2522.679, 0.005553, 0.129558,-0.974030, 0.000051, 0.001307,-0.009728,-0.013893, 0.069698, 0.159448,1,-0.000708, 0.003846,-0.000040,1,-0.111126,-1.230286, 9.728537,1,1
1778777828918,  2522.709,  2522.704, 0.014405, 0.119989,-1.004129, 0.000139, 0.001199,-0.010028, 0.030357,-0.053026,-0.118532,1, 0.001951,-0.002412,-0.000754,1,-0.110835,-1.229660, 9.728620,1,1
1778777828943,  2522.729,  2522.729, 0.009783, 0.129196,-0.982111, 0.000104, 0.001292,-0.009833,-0.015071, 0.037343, 0.097399,1, 0.000438, 0.002800,-0.000141,1,-0.111100,-1.229625, 9.728621,1,1
1778777828965,  2522.754,  2522.749, 0.015706, 0.119421,-0.998606, 0.000157, 0.001196,-0.009978, 0.017669,-0.024854, 0.042983,1, 0.003226,-0.002861,-0.000236,1,-0.111000,-1.229092, 9.728689,1,1
1778777828988,  2522.779,  2522.774, 0.007262, 0.126927,-0.980675, 0.000082, 0.001268,-0.009820,-0.040121, 0.015330, 0.111509,1,-0.001903, 0.004059, 0.000232,1,-0.111467,-1.229461, 9.728638,1,1
1778777829014,  2522.799,  2522.799, 0.009478, 0.123866,-0.993170, 0.000090, 0.001243,-0.009913,-0.018358,-0.014679,-0.011026,1, 0.002130,-0.004511,-0.000574,1,-0.111163,-1.229325, 9.728658,1,1
1778777829035,  2522.824,  2522.819, 0.010649, 0.128697,-0.979013, 0.000113, 0.001285,-0.009807, 0.037609,-0.000584,-0.012026,1,-0.002504, 0.000445, 0.000478,1,-0.110816,-1.229585, 9.728629,1,1
1778777829058,  2522.849,  2522.844, 0.011942, 0.121815,-0.988385, 0.000114, 0.001229,-0.009857, 0.006117,-0.034924, 0.035885,1, 0.002373,-0.002034, 0.000560,1,-0.110931,-1.229452, 9.728644,1,1
1778777829084,  2522.869,  2522.869, 0.011654, 0.125646,-0.993019, 0.000126, 0.001239,-0.009955, 0.003417, 0.002445,-0.009577,1,-0.003561, 0.001505,-0.000102,1,-0.110920,-1.229827, 9.728598,1,1
1778777829105,  2522.894,  2522.889, 0.013235, 0.122178,-0.992767, 0.000128, 0.001233,-0.009914,-0.035583, 0.032649, 0.103754,1,-0.000012,-0.000092, 0.000905,1,-0.111017,-1.230083, 9.728564,1,1
1778777829132,  2522.919,  2522.919, 0.014108, 0.125429,-0.988819, 0.000151, 0.001241,-0.009907, 0.027654, 0.000135, 0.031587,1,-0.000501, 0.003115,-0.000179,1,-0.110798,-1.229919, 9.728587,1,1
1778777829154,  2522.939,  2522.939, 0.007325, 0.127730,-0.980225, 0.000069, 0.001283,-0.009789,-0.039546, 0.022892, 0.115884,1, 0.002584, 0.002078,-0.000294,1,-0.111445,-1.229627, 9.728617,1,1
1778777829175,  2522.964,  2522.959, 0.013326, 0.125842,-0.989675, 0.000142, 0.001242,-0.009924, 0.032868,-0.045936,-0.062517,1,-0.000999,-0.001588, 0.000134,1,-0.111075,-1.229480, 9.728640,1,0
1778777829202,  2522.989,  2522.989, 0.008394, 0.128059,-0.979775, 0.000077, 0.001288,-0.009784,-0.029140, 0.026245, 0.120315,1, 0.002742, 0.000179,-0.000062,1,-0.111463,-1.229503, 9.728632,1,0
1778777829224,  2523.014,  2523.009, 0.013144, 0.126750,-0.991638, 0.000138, 0.001254,-0.009940, 0.042231,-0.051249,-0.086373,1,-0.000631,-0.001617,-0.000622,1,-0.110954,-1.229238, 9.728671,1,0
1778777829245,  2523.034,  2523.029, 0.005568, 0.127084,-0.979030, 0.000050, 0.001279,-0.009775,-0.043255, 0.046110, 0.131112,1,-0.001444, 0.001914, 0.000157,1,-0.111361,-1.229747, 9.728602,1,0
1778777829272,  2523.059,  2523.059, 0.014469, 0.119160,-1.002512, 0.000142, 0.001188,-0.010023, 0.031141,-0.060717,-0.102617,1, 0.001142,-0.002289,-0.001111,1,-0.110677,-1.229243, 9.728674,1,0
1778777829294,  2523.084,  2523.079, 0.009214, 0.127298,-0.977861, 0.000089, 0.001282,-0.009766,-0.015037, 0.045661, 0.127136,1,-0.002271, 0.003630, 0.000068,1,-0.111145,-1.229736, 9.728606,1,0
1778777829315,  2523.104,  2523.099, 0.014369, 0.119695,-1.000329, 0.000141, 0.001194,-0.009998, 0.004043,-0.037150, 0.012003,1, 0.002051,-0.004241,-0.000484,1,-0.110877,-1.229410, 9.728650,1,0
1778777829342,  2523.129,  2523.129, 0.007305, 0.128701,-0.978970, 0.000078, 0.001286,-0.009804,-0.039255, 0.032288, 0.128177,1,-0.002166, 0.003982,-0.000104,1,-0.111020,-1.229903, 9.728586,1,0
1778777829364,  2523.154,  2523.149, 0.017204, 0.121994,-1.000191, 0.000168, 0.001216,-0.010007, 0.018151,-0.024327, 0.009407,1, 0.002610,-0.002827, 0.000210,1,-0.111095,-1.229592, 9.728625,1,0
1778777829386,  2523.174,  2523.169, 0.009222, 0.127737,-0.979214, 0.000099, 0.001276,-0.009798, 0.031554,-0.002817, 0.012107,1,-0.002272, 0.000288, 0.000112,1,-0.110878,-1.229700, 9.728614,1,0
1778777829413,  2523.199,  2523.199, 0.011816, 0.122162,-0.991222, 0.000110, 0.001227,-0.009892, 0.004826,-0.031687, 0.008047,1, 0.001707,-0.001973,-0.000381,1,-0.110983,-1.229633, 9.728621,1,0
1778777829434,  2523.224,  2523.219, 0.009791, 0.130043,-0.978891, 0.000105, 0.001303,-0.009799, 0.041239, 0.009305, 0.002919,1,-0.002383, 0.000336, 0.000453,1,-0.110862,-1.229903, 9.728588,1,0
1778777829456,  2523.244,  2523.239, 0.009102, 0.121972,-0.992223, 0.000085, 0.001227,-0.009899,-0.053363, 0.024981, 0.126504,1, 0.001797,-0.002675, 0.000121,1,-0.110600,-1.229871, 9.728596,1,0
1778777829483,  2523.269,  2523.269, 0.011269, 0.126150,-0.995512, 0.000124, 0.001245,-0.009982, 0.000730, 0.007250,-0.034028,1,-0.003897, 0.001784, 0.000116,1,-0.109838,-1.229982, 9.728590,1,0
1778777829504,  2523.294,  2523.289, 0.010658, 0.122944,-0.992684, 0.000100, 0.001234,-0.009910,-0.052999, 0.038886, 0.124605,1, 0.001638, 0.002283, 0.000263,1,-0.110485,-1.230138, 9.728563,1,0
1778777829526,  2523.314,  2523.309, 0.013797, 0.123876,-0.990344, 0.000147, 0.001224,-0.009934, 0.038164,-0.056667,-0.091494,1, 0.001718,-0.000040, 0.000004,1,-0.110254,-1.229501, 9.728646,1,0
1778777829553,  2523.339,  2523.339, 0.006906, 0.127438,-0.975010, 0.000060, 0.001279,-0.009732,-0.043504, 0.020098, 0.167038,1, 0.000668, 0.001767,-0.000571,1,-0.111276,-1.229617, 9.728620,1,0
1778777829574,  2523.364,  2523.359, 0.017474, 0.125416,-0.995460, 0.000181, 0.001237,-0.009985, 0.067081,-0.055126,-0.108329,1,-0.001620,-0.001944,-0.000486,1,-0.110841,-1.229629, 9.728623,1,0
1778777829596,  2523.384,  2523.379, 0.009311, 0.129151,-0.974842, 0.000090, 0.001297,-0.009739, 0.012355, 0.048844, 0.122050,1,-0.002034, 0.003006, 0.000248,1,-0.111190,-1.230259, 9.728539,1,0
1778777829623,  2523.409,  2523.409, 0.012188, 0.119046,-1.000579, 0.000121, 0.001193,-0.010000, 0.009009,-0.062023,-0.083683,1, 0.002318,-0.003040,-0.000526,1,-0.110419,-1.229397, 9.728658,1,0
1778777829644,  2523.434,  2523.429, 0.007638, 0.127345,-0.979961, 0.000064, 0.001278,-0.009788,-0.054234, 0.026697, 0.087487,1,-0.002852, 0.002632, 0.001041,1,-0.110728,-1.229880, 9.728593,1,0
1778777829667,  2523.454,  2523.454, 0.018049, 0.119578,-0.998429, 0.000179, 0.001193,-0.009984, 0.066374,-0.057369,-0.062672,1,-0.000318,-0.001349,-0.000287,1,-0.110587,-1.230035, 9.728575,1,0
1778777829693,  2523.479,  2523.479, 0.007214, 0.128156,-0.977927, 0.000080, 0.001282,-0.009792,-0.040129, 0.026290, 0.138321,1,-0.002059, 0.003845, 0.000326,1,-0.110989,-1.230559, 9.728504,1,0
1778777829715,  2523.504,  2523.499, 0.015283, 0.119321,-1.002521, 0.000145, 0.001191,-0.010026,-0.013780,-0.032927,-0.011123,1, 0.000385,-0.002831, 0.000017,1,-0.110946,-1.230664, 9.728491,1,0
1778777829737,  2523.524,  2523.524, 0.009815, 0.130028,-0.980211, 0.000103, 0.001298,-0.009812,-0.014566, 0.044145, 0.115861,1,-0.000860, 0.001569,-0.000093,1,-0.110870,-1.231022, 9.728447,1,0
1778777829763,  2523.549,  2523.549, 0.013393, 0.123057,-0.989753, 0.000127, 0.001238,-0.009874, 0.020463,-0.024087, 0.022301,1, 0.001435,-0.002071, 0.000681,1,-0.110819,-1.230821, 9.728473,1,0
1778777829785,  2523.574,  2523.569, 0.005399, 0.129650,-0.979298, 0.000067, 0.001296,-0.009798, 0.013360, 0.001139, 0.022864,1,-0.002539, 0.001702, 0.000507,1,-0.110864,-1.231157, 9.728430,1,0
1778777829807,  2523.594,  2523.594, 0.009806, 0.122599,-0.993623, 0.000089, 0.001236,-0.009917,-0.014580,-0.028660,-0.015652,1, 0.002736,-0.003767,-0.000566,1,-0.110621,-1.230860, 9.728470,1,0
1778777829833,  2523.619,  2523.619, 0.014816, 0.127290,-0.991272, 0.000158, 0.001256,-0.009940, 0.034870, 0.017376, 0.007405,1,-0.002153, 0.001597,-0.000504,1,-0.110474,-1.230975, 9.728457,1,0
1778777829855,  2523.644,  2523.639, 0.009873, 0.121810,-0.990703, 0.000097, 0.001223,-0.009884,-0.037784, 0.020315, 0.158841,1, 0.001824, 0.001576, 0.000176,1,-0.111124,-1.230973, 9.728450,1,0
1778777829877,  2523.664,  2523.664, 0.012106, 0.125180,-0.993667, 0.000129, 0.001235,-0.009966, 0.008079,-0.003197,-0.016063,1,-0.002540, 0.000373,-0.001362,1,-0.110648,-1.230875, 9.728468,1,0
1778777829903,  2523.689,  2523.689, 0.012455, 0.127702,-0.979099, 0.000113, 0.001283,-0.009782, 0.011128, 0.021233, 0.126751,1, 0.001178, 0.000103, 0.000125,1,-0.111013,-1.231055, 9.728441,1,0
1778777829925,  2523.714,  2523.709, 0.014586, 0.124528,-0.991198, 0.000151, 0.001232,-0.009928, 0.059794,-0.061939,-0.055633,1, 0.001380,-0.001712,-0.000702,1,-0.110438,-1.230679, 9.728496,1,0
1778777829948,  2523.734,  2523.734, 0.007122, 0.127322,-0.982092, 0.000060, 0.001280,-0.009806,-0.041091, 0.017619, 0.097418,1,-0.000542, 0.001016, 0.000645,1,-0.110968,-1.231000, 9.728449,1,0
1778777829973,  2523.759,  2523.759, 0.016248, 0.121336,-1.001410, 0.000158, 0.001207,-0.010014, 0.048773,-0.041129,-0.092031,1,-0.001220,-0.002251,-0.000319,1,-0.110498,-1.231049, 9.728448,1,0
1778777829995,  2523.784,  2523.779, 0.002480, 0.127778,-0.978631, 0.000021, 0.001284,-0.009772,-0.039855, 0.041164, 0.122707,1,-0.000190, 0.000963, 0.000891,1,-0.110673,-1.231315, 9.728412,1,0
1778777830018,  2523.809,  2523.804, 0.013166, 0.119651,-1.002919, 0.000127, 0.001195,-0.010028, 0.018971,-0.057695,-0.106826,1,-0.001646,-0.000548,-0.000853,1,-0.110125,-1.231126, 9.728442,1,0
1778777830043,  2523.829,  2523.829, 0.008466, 0.131136,-0.976185, 0.000093, 0.001312,-0.009774,-0.027692, 0.054128, 0.155233,1,-0.002375, 0.003133,-0.000251,1,-0.110816,-1.231954, 9.728330,1,0
1778777830065,  2523.854,  2523.849, 0.013877, 0.118698,-1.001915, 0.000140, 0.001187,-0.010017, 0.000420,-0.035313, 0.017246,1, 0.004567,-0.003588,-0.000192,1,-0.110676,-1.231285, 9.728415,1,0
1778777830088,  2523.879,  2523.874, 0.007607, 0.130329,-0.976868, 0.000078, 0.001302,-0.009781,-0.036275, 0.046920, 0.148628,1,-0.001604, 0.005140, 0.000780,1,-0.111034,-1.231225, 9.728419,1,0
1778777830113,  2523.899,  2523.899, 0.013947, 0.122660,-0.993449, 0.000132, 0.001235,-0.009907, 0.025602,-0.028042,-0.013951,1, 0.002904,-0.001604, 0.000253,1,-0.111127,-1.230838, 9.728467,1,0
1778777830135,  2523.924,  2523.919, 0.010159, 0.127389,-0.983728, 0.000108, 0.001279,-0.009843, 0.020231, 0.001450,-0.021177,1,-0.000228, 0.000032,-0.000383,1,-0.110885,-1.230537, 9.728508,1,0
1778777830158,  2523.949,  2523.944, 0.014043, 0.123173,-0.989983, 0.000139, 0.001224,-0.009896, 0.026316,-0.022716, 0.020074,1,-0.000972,-0.000750,-0.000489,1,-0.111369,-1.230663, 9.728486,1,0
1778777830184,  2523.969,  2523.969, 0.015917, 0.125839,-0.996100, 0.000163, 0.001245,-0.009983, 0.044949, 0.003314,-0.039924,1, 0.000874,-0.000037,-0.000968,1,-0.111138,-1.230720, 9.728482,1,0
1778777830205,  2523.994,  2523.989, 0.015733, 0.124972,-0.988879, 0.000148, 0.001258,-0.009875,-0.030869, 0.059885, 0.108049,1,-0.001627, 0.000648,-0.000233,1,-0.111191,-1.231223, 9.728417,1,0
1778777830228,  2524.019,  2524.014, 0.014586, 0.128622,-0.984405, 0.000156, 0.001264,-0.009872, 0.032279, 0.030026, 0.074689,1, 0.000891, 0.001636,-0.001284,1,-0.110812,-1.231296, 9.728413,1,0
1778777830254,  2524.039,  2524.039, 0.010095, 0.129238,-0.984238, 0.000084, 0.001301,-0.009819,-0.012045, 0.036717, 0.076415,1, 0.004818, 0.002737,-0.000796,1,-0.111125,-1.230525, 9.728507,1,0
1778777830275,  2524.064,  2524.059, 0.024132, 0.122747,-0.969478, 0.000299, 0.001199,-0.009761, 0.406368,-0.116684,-0.171913,1, 0.000202, 0.003615, 0.001636,1,-0.111928,-1.230036, 9.728559,1,0
1778777830298,  2524.089,  2524.084, 0.028891, 0.121854,-0.979264, 0.000245, 0.001249,-0.009685, 0.169444,-0.034450, 0.125309,1, 0.009443, 0.000999, 0.000909,1,-0.113917,-1.229135, 9.728650,1,0
1778777830324,  2524.109,  2524.109, 0.048078, 0.123474,-1.010433, 0.000470, 0.001227,-0.010163, 0.356597,-0.019368,-0.180465,1,-0.013779, 0.014629, 0.003857,1,-0.115353,-1.230662, 9.728440,1,0
1778777830345,  2524.134,  2524.129, 0.021365, 0.125227,-0.975176, 0.000200, 0.001268,-0.009725, 0.076931, 0.076793, 0.278197,1, 0.004805,-0.002271, 0.001395,1,-0.116254,-1.231119, 9.728372,1,0
1778777830372,  2524.159,  2524.159, 0.013734, 0.114756,-1.005355, 0.000150, 0.001146,-0.010096, 0.020481,-0.103752,-0.130516,1,-0.002333,-0.002833, 0.001416,1,-0.114275,-1.229189, 9.728640,1,0
1778777830394,  2524.179,  2524.179, 0.015522, 0.134578,-0.989424, 0.000144, 0.001337,-0.009878, 0.037735, 0.089486, 0.025568,1,-0.002548,-0.002740,-0.000805,1,-0.114399,-1.230355, 9.728490,1,0
1778777830415,  2524.204,  2524.199,-0.005067, 0.121266,-0.989175,-0.000034, 0.001190,-0.009886,-0.019811, 0.018280,-0.083885,1, 0.003859,-0.013146,-0.001411,1,-0.112320,-1.230317, 9.728519,1,0
1778777830442,  2524.229,  2524.229,-0.007236, 0.124937,-0.996013,-0.000084, 0.001238,-0.009928,-0.179766,-0.003477,-0.038789,1, 0.000787,-0.007118,-0.000097,1,-0.108588,-1.228670, 9.728770,1,0
1778777830464,  2524.254,  2524.249, 0.019307, 0.126137,-0.989070, 0.000194, 0.001245,-0.009888, 0.135693,-0.111854,-0.037974,1,-0.008725, 0.007976, 0.000557,1,-0.109980,-1.229933, 9.728595,1,0
1778777830485,  2524.274,  2524.269, 0.015777, 0.127648,-0.980793, 0.000172, 0.001275,-0.009796, 0.057427, 0.003369, 0.138963,1, 0.002689, 0.001941,-0.001185,1,-0.110459,-1.230502, 9.728518,1,0
1778777830512,  2524.299,  2524.299, 0.000814, 0.118660,-0.975504,-0.000001, 0.001189,-0.009749,-0.102621,-0.066737, 0.162107,1,-0.005728, 0.004618, 0.001618,1,-0.110756,-1.230567, 9.728506,1,0
1778777830534,  2524.324,  2524.319, 0.026213, 0.131113,-0.989908, 0.000264, 0.001300,-0.009921, 0.145053,-0.067801,-0.071611,1,-0.004842, 0.005977, 0.001007,1,-0.111837,-1.231312, 9.728399,1,0
1778777830556,  2524.344,  2524.339, 0.021800, 0.126874,-0.977767, 0.000217, 0.001263,-0.009767, 0.111984, 0.031966, 0.160389,1, 0.002500, 0.004238, 0.001923,1,-0.113170,-1.231423, 9.728370,1,0
1778777830583,  2524.369,  2524.369, 0.023618, 0.124598,-0.980861, 0.000248, 0.001228,-0.009821, 0.118074,-0.009702, 0.109385,1,-0.003486, 0.003764, 0.002284,1,-0.113670,-1.231693, 9.728330,1,0
1778777830604,  2524.394,  2524.389, 0.007341, 0.126167,-0.999512, 0.000059, 0.001269,-0.009947,-0.092665, 0.015042, 0.159964,1, 0.002979, 0.000773, 0.001718,1,-0.114309,-1.231625, 9.728331,1,0
1778777830626,  2524.414,  2524.409, 0.020951, 0.132426,-1.003625, 0.000209, 0.001312,-0.010077, 0.046568,-0.003173,-0.259692,1, 0.000718,-0.005770, 0.000207,1,-0.113128,-1.231052, 9.728417,1,0
1778777830653,  2524.439,  2524.439, 0.012226, 0.130540,-0.968993, 0.000121, 0.001312,-0.009678, 0.006539, 0.048146, 0.225718,1, 0.001392,-0.000826, 0.001405,1,-0.113334,-1.231970, 9.728298,1,0
1778777830674,  2524.464,  2524.459,-0.001384, 0.125688,-0.999559, 0.000006, 0.001242,-0.010016,-0.010222,-0.071733,-0.115720,1, 0.004075,-0.001663,-0.000821,1,-0.112585,-1.230764, 9.728459,1,0
1778777830696,  2524.484,  2524.479, 0.005708, 0.128361,-0.997613, 0.000026, 0.001292,-0.009947,-0.178988, 0.044001, 0.022155,1,-0.002189, 0.000877, 0.000557,1,-0.112794,-1.230887, 9.728442,1,0
1778777830723,  2524.509,  2524.509, 0.033174, 0.127271,-0.995266, 0.000349, 0.001259,-0.009996, 0.212572, 0.016218,-0.031914,1,-0.003659, 0.001992, 0.000133,1,-0.112813,-1.231993, 9.728302,1,0
1778777830744,  2524.534,  2524.529, 0.015164, 0.117423,-0.999515, 0.000114, 0.001192,-0.009926,-0.094128,-0.000089, 0.294528,1, 0.014339,-0.001980, 0.000602,1,-0.112919,-1.230554, 9.728482,1,0
1778777830766,  2524.554,  2524.549, 0.043914, 0.120970,-1.006609, 0.000457, 0.001179,-0.010175, 0.266699,-0.088786,-0.365337,1, 0.003623, 0.000902, 0.000241,1,-0.112397,-1.228707, 9.728722,1,0
1778777830793,  2524.579,  2524.579, 0.009152, 0.125238,-0.919240, 0.000080, 0.001277,-0.009163,-0.028066,-0.004507, 0.713491,1, 0.002507, 0.005504, 0.001880,1,-0.117998,-1.232593, 9.728164,1,0
1778777830814,  2524.604,  2524.599, 0.033910, 0.130957,-1.015975, 0.000369, 0.001251,-0.010295, 0.321777,-0.157501,-0.453814,1, 0.011337,-0.009685,-0.000597,1,-0.115226,-1.228645, 9.728697,1,0
1778777830836,  2524.624,  2524.619, 0.014837, 0.127105,-0.954619, 0.000141, 0.001311,-0.009473, 0.053352, 0.104468, 0.378705,1,-0.024368, 0.024936, 0.004868,1,-0.119790,-1.233519, 9.728024,1,0
1778777830863,  2524.649,  2524.649, 0.011969, 0.128188,-1.019128, 0.000150, 0.001275,-0.010219, 0.002444, 0.027082,-0.265702,1, 0.007156,-0.021554,-0.000400,1,-0.114258,-1.229792, 9.728563,1,0
1778777830885,  2524.674,  2524.669, 0.047510, 0.116770,-0.995690, 0.000453, 0.001133,-0.009934, 0.139747,-0.099344, 0.030906,1,-0.006164, 0.005925, 0.005322,1,-0.114664,-1.231235, 9.728375,1,0
1778777830907,  2524.694,  2524.694, 0.034818, 0.136243,-0.973311, 0.000366, 0.001396,-0.009719, 0.223991, 0.103388, 0.183235,1,-0.002766, 0.009698, 0.004649,1,-0.117778,-1.232785, 9.728143,1,0
1778777830933,  2524.719,  2524.719, 0.025433, 0.120535,-0.982138, 0.000265, 0.001181,-0.009804, 0.131226,-0.050126, 0.096729,1, 0.008401,-0.005584, 0.000814,1,-0.118021,-1.231914, 9.728250,1,0
1778777830955,  2524.744,  2524.739, 0.044425, 0.129526,-0.994496, 0.000416, 0.001288,-0.009960, 0.157207,-0.033794,-0.143362,1,-0.005850, 0.004945, 0.002707,1,-0.117545,-1.231277, 9.728336,1,0
1778777830977,  2524.764,  2524.764, 0.066539, 0.117060,-1.001264, 0.000676, 0.001184,-0.010034, 0.532481,-0.083601,-0.090777,1, 0.004929, 0.002357, 0.003239,1,-0.120141,-1.231411, 9.728288,1,0
1778777831003,  2524.789,  2524.789, 0.090365, 0.128047,-0.981199, 0.000862, 0.001311,-0.009794, 0.763740, 0.024845, 0.106051,1, 0.003073, 0.018363, 0.006231,1,-0.123030,-1.230768, 9.728333,1,0
1778777831025,  2524.814,  2524.809, 0.127176, 0.119905,-0.949990, 0.001246, 0.001200,-0.009503, 1.042837,-0.076116, 0.261780,1,-0.012821, 0.038434, 0.007859,1,-0.129425,-1.233084, 9.727957,1,0
1778777831047,  2524.834,  2524.834, 0.119526, 0.121282,-0.957902, 0.001205, 0.001219,-0.009569, 1.033508,-0.044122, 0.333970,1, 0.000689, 0.029474, 0.008286,1,-0.139592,-1.233470, 9.727767,1,0
1778777831073,  2524.859,  2524.859, 0.140559, 0.117622,-0.976442, 0.001379, 0.001145,-0.009743, 1.233462,-0.080570, 0.151985,1,-0.007131, 0.031108, 0.007191,1,-0.145944,-1.234266, 9.727572,1,0
1778777831095,  2524.884,  2524.879, 0.152129, 0.129876,-0.960103, 0.001530, 0.001264,-0.009644, 1.414940,-0.011083, 0.045362,1,-0.007375, 0.035494, 0.012218,1,-0.152450,-1.235582, 9.727306,1,0
1778777831118,  2524.904,  2524.904, 0.124212, 0.113990,-0.959080, 0.001296, 0.001139,-0.009627, 1.059138,-0.116567, 0.321986,1, 0.014706, 0.005851, 0.010865,1,-0.159191,-1.233967, 9.727403,1,0
1778777831143,  2524.929,  2524.929, 0.165364, 0.116116,-1.007885, 0.001631, 0.001200,-0.010116, 1.458668,-0.093619,-0.156433,1, 0.005549, 0.027791, 0.017035,1,-0.163922,-1.232145, 9.727555,1,0
1778777831165,  2524.954,  2524.949, 0.162260, 0.120781,-0.967025, 0.001645, 0.001225,-0.009658, 1.437082, 0.178065, 0.255006,1,-0.002883, 0.036801, 0.015619,1,-0.171563,-1.234976, 9.727064,1,0
1778777831188,  2524.974,  2524.974, 0.156172, 0.126983,-1.011141, 0.001544, 0.001324,-0.010087, 1.355535, 0.012961,-0.188585,1, 0.019114, 0.009915, 0.013403,1,-0.176352,-1.231713, 9.727392,1,0
1778777831213,  2524.999,  2524.999, 0.146122, 0.138161,-1.012784, 0.001454, 0.001401,-0.010136, 1.254700, 0.122491,-0.204751,1,-0.005259, 0.014364, 0.014205,1,-0.178769,-1.232558, 9.727242,1,0
1778777831235,  2525.024,  2525.019, 0.154005, 0.119750,-1.001635, 0.001533, 0.001239,-0.010007, 1.314903, 0.117681, 0.003510,1,-0.002030, 0.007945, 0.013946,1,-0.181688,-1.233000, 9.727131,1,0
1778777831258,  2525.049,  2525.044, 0.158065, 0.120417,-1.003974, 0.001571, 0.001237,-0.010030, 1.365175,-0.049972,-0.118278,1, 0.005571, 0.016245, 0.014269,1,-0.185474,-1.230675, 9.727354,1,0
1778777831283,  2525.069,  2525.069, 0.164566, 0.125800,-0.994492, 0.001664, 0.001313,-0.009946, 1.424933, 0.003190,-0.025321,1, 0.003275, 0.014529, 0.016491,1,-0.189423,-1.230371, 9.727317,1,0
1778777831305,  2525.094,  2525.089, 0.153543, 0.109828,-1.003967, 0.001531, 0.001101,-0.010038, 1.311167, 0.082737,-0.008705,1, 0.003593, 0.003659, 0.016913,1,-0.191405,-1.229357, 9.727407,1,0
1778777831328,  2525.119,  2525.114, 0.164473, 0.108547,-1.000088, 0.001643, 0.001142,-0.010021, 1.420077,-0.164589,-0.080100,1, 0.003203, 0.007328, 0.019019,1,-0.193150,-1.228965, 9.727421,1,0
1778777831354,  2525.139,  2525.139, 0.167925, 0.118294,-0.989672, 0.001687, 0.001241,-0.009882, 1.451833,-0.068658, 0.022047,1, 0.011370, 0.004178, 0.020612,1,-0.195162,-1.228359, 9.727457,1,0
1778777831375,  2525.164,  2525.159, 0.150464, 0.116580,-0.988805, 0.001511, 0.001114,-0.009905, 1.383993, 0.004650,-0.081626,1, 0.003149,-0.001363, 0.022296,1,-0.195845,-1.227133, 9.727598,1,0
1778777831398,  2525.189,  2525.184, 0.154592, 0.115566,-0.993868, 0.001541, 0.001147,-0.009933, 1.321251,-0.094581,-0.018993,1,-0.004536,-0.008475, 0.020625,1,-0.194601,-1.228024, 9.727511,1,0
1778777831424,  2525.209,  2525.209, 0.165982, 0.116688,-0.982941, 0.001666, 0.001233,-0.009832, 1.433674,-0.084724, 0.088036,1, 0.001434,-0.008197, 0.022842,1,-0.193893,-1.228986, 9.727404,1,0
1778777831445,  2525.234,  2525.229, 0.153061, 0.117763,-0.968067, 0.001534, 0.001119,-0.009682, 1.312146,-0.017794, 0.245792,1, 0.006590,-0.007465, 0.024316,1,-0.192960,-1.228381, 9.727499,1,0
1778777831468,  2525.259,  2525.254, 0.161682, 0.110700,-0.974457, 0.001611, 0.001125,-0.009754, 1.392967,-0.143840, 0.171213,1,-0.008257, 0.000786, 0.023926,1,-0.192711,-1.229680, 9.727340,1,0
1778777831494,  2525.279,  2525.279, 0.162156, 0.123645,-0.973410, 0.001633, 0.001278,-0.009720, 1.397449,-0.018147, 0.181318,1, 0.003381,-0.008562, 0.025619,1,-0.192592,-1.230571, 9.727229,1,0
1778777831515,  2525.304,  2525.299, 0.163050, 0.110364,-0.987598, 0.001644, 0.001124,-0.009881, 1.408741, 0.046669, 0.133703,1, 0.004445,-0.011084, 0.027003,1,-0.191417,-1.230246, 9.727293,1,0
1778777831538,  2525.329,  2525.324, 0.169007, 0.126294,-0.977652, 0.001673, 0.001324,-0.009760, 1.465624, 0.007584, 0.139711,1, 0.000127, 0.004055, 0.029339,1,-0.192011,-1.230916, 9.727197,1,0
1778777831564,  2525.349,  2525.349, 0.158410, 0.148865,-0.996371, 0.001605, 0.001494,-0.009959, 1.361600, 0.228165,-0.043961,1, 0.002230,-0.007166, 0.028925,1,-0.191766,-1.231611, 9.727114,1,0
1778777831585,  2525.374,  2525.369, 0.145782, 0.128870,-0.994720, 0.001460, 0.001365,-0.009940, 1.280199, 0.202411, 0.051901,1, 0.001799,-0.016972, 0.026456,1,-0.190221,-1.231483, 9.727160,1,0
1778777831612,  2525.399,  2525.399, 0.154023, 0.132141,-0.972624, 0.001526, 0.001354,-0.009689, 1.320627, 0.064159, 0.188962,1, 0.000801, 0.002627, 0.030042,1,-0.190026,-1.231654, 9.727142,1,0
1778777831634,  2525.419,  2525.419, 0.145998, 0.134932,-0.989686, 0.001478, 0.001305,-0.009876, 1.241791, 0.091958, 0.021684,1,-0.001434,-0.003761, 0.030497,1,-0.189960,-1.231296, 9.727189,1,0
1778777831656,  2525.444,  2525.439, 0.143989, 0.140013,-1.012508, 0.001434, 0.001404,-0.010127, 1.346986,-0.090879,-0.182051,1,-0.001879,-0.011420, 0.029531,1,-0.189920,-1.230378, 9.727306,1,0
1778777831683,  2525.469,  2525.469, 0.152800, 0.125098,-0.985445, 0.001549, 0.001231,-0.009875, 1.310588,-0.004989, 0.063254,1,-0.011750,-0.012847, 0.033579,1,-0.187600,-1.232120, 9.727131,1,0
1778777831704,  2525.494,  2525.489, 0.154987, 0.129472,-0.988097, 0.001578, 0.001280,-0.009895, 1.391577, 0.056849, 0.040937,1, 0.002238,-0.005341, 0.035665,1,-0.186726,-1.231613, 9.727212,1,0
1778777831726,  2525.514,  2525.509, 0.173314, 0.121873,-0.983328, 0.001722, 0.001212,-0.009840, 1.380797, 0.099391, 0.054754,1, 0.004925, 0.003554, 0.037035,1,-0.187451,-1.231751, 9.727180,1,0
1778777831753,  2525.539,  2525.539, 0.164335, 0.126572,-0.979664, 0.001631, 0.001331,-0.009816, 1.424259, 0.010242, 0.120056,1, 0.000899,-0.003993, 0.039766,1,-0.187347,-1.230952, 9.727283,1,0
1778777831774,  2525.564,  2525.559, 0.164991, 0.126657,-0.984479, 0.001658, 0.001288,-0.009844, 1.422648, 0.019392, 0.168021,1, 0.002793,-0.008098, 0.036287,1,-0.187186,-1.232580, 9.727080,1,0
1778777831796,  2525.584,  2525.579, 0.177571, 0.128618,-0.980285, 0.001716, 0.001329,-0.009785, 1.317350, 0.015511, 0.158260,1,-0.014852,-0.001867, 0.039814,1,-0.187045,-1.233800, 9.726929,1,0
1778777831823,  2525.609,  2525.609, 0.145772, 0.131777,-0.969572, 0.001480, 0.001271,-0.009714, 1.243455, 0.059221, 0.218787,1, 0.001388,-0.013219, 0.039695,1,-0.185829,-1.233002, 9.727053,1,0
1778777831844,  2525.634,  2525.629, 0.152696, 0.131549,-0.978192, 0.001525, 0.001308,-0.009814, 1.451267,-0.091163, 0.075383,1,-0.007533,-0.009795, 0.039601,1,-0.185424,-1.231903, 9.727200,1,0
1778777831866,  2525.654,  2525.649, 0.167674, 0.106736,-0.986926, 0.001720, 0.001078,-0.009858, 1.515437, 0.193225, 0.169718,1, 0.007050,-0.003101, 0.044905,1,-0.186079,-1.232008, 9.727174,1,0
1778777831893,  2525.679,  2525.679, 0.167359, 0.112905,-0.982335, 0.001653, 0.001222,-0.009789, 1.455321,-0.123335, 0.093942,1, 0.018735,-0.005556, 0.045154,1,-0.185913,-1.229944, 9.727438,1,0
1778777831914,  2525.704,  2525.699, 0.174309, 0.111808,-0.978420, 0.001714, 0.001141,-0.009813, 1.354237, 0.029935,-0.115498,1,-0.000538, 0.004006, 0.044826,1,-0.185926,-1.230716, 9.727341,1,0
1778777831936,  2525.724,  2525.719, 0.151100, 0.115995,-0.970472, 0.001484, 0.001200,-0.009753, 1.414779,-0.129376, 0.039885,1,-0.013184,-0.010657, 0.046571,1,-0.186621,-1.232610, 9.727087,1,0
1778777831963,  2525.749,  2525.749, 0.150943, 0.128117,-0.982720, 0.001509, 0.001307,-0.009765, 1.290295, 0.020742, 0.089442,1,-0.018113, 0.011777, 0.053834,1,-0.190523,-1.236184, 9.726558,1,0
1778777831984,  2525.769,  2525.769, 0.175194, 0.130939,-1.014012, 0.001803, 0.001274,-0.010144, 1.523303, 0.045810,-0.217852,1,-0.008850, 0.005071, 0.049216,1,-0.195116,-1.238518, 9.726171,1,0
1778777832006,  2525.794,  2525.789, 0.147806, 0.143421,-0.982559, 0.001443, 0.001378,-0.009837, 1.222021, 0.091381,-0.180964,1, 0.002071,-0.017106, 0.052704,1,-0.193676,-1.237115, 9.726377,1,0
1778777832033,  2525.819,  2525.819, 0.178089, 0.135149,-0.958207, 0.001779, 0.001220,-0.009606, 1.554401, 0.086133, 0.329343,1,-0.015564, 0.000185, 0.054258,1,-0.192274,-1.239676, 9.726079,1,0
1778777832055,  2525.844,  2525.839, 0.201415, 0.180059,-1.006383, 0.001867, 0.002017,-0.009897, 1.099361, 0.407101, 0.402953,1,-0.035100, 0.053293, 0.049115,1,-0.200279,-1.244494, 9.725303,1,0
1778777832076,  2525.864,  2525.859, 0.087889, 0.175842,-1.088995, 0.000863, 0.001722,-0.010919, 1.143643, 0.087188,-0.764249,1, 0.009068,-0.025280, 0.041911,1,-0.203206,-1.241718, 9.725596,1,0
1778777832103,  2525.889,  2525.889, 0.145876, 0.147925,-1.064764, 0.001576, 0.001553,-0.010509, 1.230542, 0.212017,-0.715711,1, 0.019920,-0.077680, 0.039902,1,-0.197770,-1.237987, 9.726184,1,0
1778777832125,  2525.914,  2525.909, 0.177853, 0.137668,-1.020193, 0.001909, 0.001491,-0.010131, 0.863609, 0.342199,-0.507034,1, 0.004198,-0.037654, 0.036463,1,-0.193295,-1.237568, 9.726328,1,0
1778777832147,  2525.934,  2525.934, 0.167634, 0.167961,-1.001216, 0.001633, 0.001752,-0.010231, 1.453518, 0.422785,-0.090517,1, 0.026200, 0.019315, 0.041493,1,-0.191170,-1.223515, 9.728148,1,0
1778777832173,  2525.959,  2525.959, 0.148142, 0.132872,-1.023063, 0.001443, 0.001453,-0.010212, 1.266801, 0.085388,-0.303839,1, 0.045289,-0.046356, 0.045735,1,-0.184734,-1.216276, 9.729179,1,0
1778777832195,  2525.984,  2525.979, 0.156614, 0.141382,-0.946042, 0.001575, 0.001454,-0.009408, 1.461418,-0.286654, 0.588405,1, 0.041582,-0.045547, 0.034738,1,-0.178730,-1.207361, 9.730402,1,0
1778777832218,  2526.004,  2526.004, 0.197762, 0.114625,-0.953990, 0.001975, 0.001105,-0.009501, 1.762565,-0.076452, 0.375832,1, 0.011214, 0.001307, 0.051297,1,-0.177057,-1.200165, 9.731322,1,0
1778777832243,  2526.029,  2526.029, 0.205947, 0.124590,-1.006102, 0.001970, 0.001155,-0.010022, 1.844041, 0.027027,-0.134482,1, 0.038015,-0.008814, 0.049908,1,-0.175530,-1.193580, 9.732161,1,0
1778777832265,  2526.054,  2526.049, 0.167310, 0.111808,-0.945374, 0.001607, 0.001163,-0.009471, 1.380878, 0.001482, 0.382650,1, 0.025681,-0.030064, 0.051947,1,-0.171450,-1.185698, 9.733196,1,0
1778777832288,  2526.074,  2526.074, 0.180219, 0.097848,-0.946532, 0.001827, 0.000951,-0.009466, 1.597470,-0.222908, 0.451308,1,-0.007820, 0.000021, 0.054349,1,-0.170079,-1.182686, 9.733587,1,0
1778777832313,  2526.099,  2526.099, 0.206709, 0.119904,-0.929857, 0.002089, 0.001220,-0.009290, 1.851967,-0.007313, 0.614651,1, 0.010891, 0.017008, 0.052755,1,-0.175886,-1.182801, 9.733470,1,0
1778777832335,  2526.124,  2526.119, 0.212536, 0.105219,-0.936145, 0.002115, 0.001072,-0.009386, 1.688522,-0.087523, 0.439414,1, 0.019099, 0.027335, 0.049552,1,-0.180530,-1.179801, 9.733748,1,0
1778777832358,  2526.144,  2526.144, 0.177445, 0.112424,-0.936871, 0.001714, 0.001092,-0.009401, 1.555399,-0.069847, 0.547007,1, 0.011297, 0.026901, 0.046274,1,-0.185744,-1.171970, 9.734596,1,0
1778777832383,  2526.169,  2526.169, 0.203618, 0.091437,-0.936688, 0.002060, 0.000885,-0.009310, 1.804811,-0.274862, 0.548750,1,-0.015180, 0.029299, 0.048512,1,-0.193091,-1.171989, 9.734451,1,0
1778777832405,  2526.194,  2526.189, 0.212507, 0.114750,-0.952228, 0.002167, 0.001158,-0.009449, 1.994141,-0.093680, 0.685550,1, 0.012630, 0.037570, 0.048071,1,-0.202720,-1.171119, 9.734361,1,0
1778777832428,  2526.214,  2526.214, 0.211332, 0.108115,-0.981698, 0.002044, 0.001126,-0.009800, 1.862976,-0.104689, 0.107792,1, 0.017885, 0.033303, 0.046640,1,-0.210690,-1.164346, 9.735003,1,0
1778777832454,  2526.239,  2526.239, 0.195817, 0.118212,-0.995101, 0.002005, 0.001177,-0.009959, 1.706673,-0.002903,-0.023412,1,-0.000793, 0.011196, 0.051606,1,-0.214173,-1.162151, 9.735189,1,0
1778777832475,  2526.264,  2526.259, 0.212750, 0.107644,-1.000235, 0.002156, 0.000992,-0.009952, 1.919867,-0.182773, 0.176353,1,-0.005958, 0.011875, 0.051851,1,-0.219588,-1.161996, 9.735087,1,0
1778777832498,  2526.289,  2526.284, 0.220822, 0.104075,-0.980921, 0.002160, 0.001008,-0.009821, 1.943026,-0.146785, 0.114827,1,-0.036936, 0.013746, 0.053308,1,-0.223127,-1.168521, 9.734226,1,0
1778777832524,  2526.309,  2526.309, 0.216017, 0.090631,-0.980444, 0.002177, 0.000946,-0.009855, 1.893755,-0.286500, 0.118504,1,-0.046895, 0.004111, 0.061349,1,-0.225005,-1.176698, 9.733198,1,0
1778777832545,  2526.334,  2526.329, 0.228427, 0.112328,-0.994603, 0.002284, 0.001042,-0.009925, 2.052570,-0.289964, 0.129279,1,-0.036043,-0.002229, 0.063164,1,-0.227303,-1.183509, 9.732319,1,0
1778777832568,  2526.359,  2526.354, 0.239546, 0.121120,-0.976921, 0.002397, 0.001115,-0.009734, 2.118083,-0.009317, 0.150242,1,-0.061352, 0.004561, 0.058863,1,-0.231429,-1.198889, 9.730339,1,0
1778777832594,  2526.379,  2526.379, 0.227970, 0.127214,-1.002350, 0.002271, 0.001285,-0.010041, 2.003342, 0.040222,-0.100417,1,-0.050502, 0.003117, 0.058197,1,-0.232601,-1.208839, 9.729079,1,0
1778777832615,  2526.404,  2526.399, 0.217359, 0.177112,-1.012811, 0.002163, 0.001624,-0.010173, 1.920244, 0.231681,-0.200846,1,-0.033391,-0.016276, 0.057796,1,-0.232073,-1.216346, 9.728156,1,0
1778777832638,  2526.429,  2526.424, 0.231147, 0.187496,-0.999679, 0.002306, 0.001817,-0.009994, 2.035273, 0.613320,-0.076470,1,-0.023885,-0.012056, 0.053727,1,-0.231342,-1.226092, 9.726951,1,0
1778777832664,  2526.449,  2526.449, 0.221300, 0.175411,-0.979931, 0.002167, 0.001702,-0.009815, 1.938924, 0.490915, 0.116713,1,-0.012100,-0.000869, 0.043836,1,-0.231434,-1.229621, 9.726502,1,0
1778777832685,  2526.474,  2526.469, 0.211420, 0.160860,-1.002843, 0.002076, 0.001710,-0.010009, 1.520354, 0.759715, 0.054071,1,-0.004337,-0.017892, 0.045404,1,-0.228069,-1.230075, 9.726524,1,0
1778777832708,  2526.499,  2526.494, 0.162922, 0.176071,-1.002565, 0.001578, 0.001818,-0.009941, 1.372150, 0.499352,-0.104873,1, 0.023219,-0.019915, 0.044207,1,-0.225125,-1.226562, 9.727036,1,0
1778777832734,  2526.519,  2526.519, 0.149479, 0.170260,-1.010656, 0.001545, 0.001696,-0.010097, 1.244301, 0.448391,-0.183366,1, 0.011168,-0.034125, 0.048423,1,-0.220718,-1.220911, 9.727849,1,0
1778777832755,  2526.544,  2526.539, 0.129817, 0.149011,-1.027728, 0.001335, 0.001603,-0.010240, 1.321053, 0.267394,-0.202847,1, 0.023234,-0.034087, 0.053117,1,-0.216225,-1.216287, 9.728529,1,0
1778777832778,  2526.569,  2526.564, 0.131559, 0.138075,-1.005382, 0.001331, 0.001343,-0.010038, 1.080471, 0.140903,-0.130370,1, 0.015306,-0.035729, 0.058515,1,-0.208806,-1.212641, 9.729146,1,0
1778777832804,  2526.589,  2526.589, 0.110678, 0.111974,-1.015285, 0.001066, 0.001184,-0.010189, 0.881893,-0.113186,-0.227117,1,-0.006224,-0.026753, 0.065390,1,-0.202907,-1.211422, 9.729423,1,0
1778777832826,  2526.614,  2526.609, 0.101309, 0.136326,-0.988801, 0.001030, 0.001342,-0.009921, 0.831097, 0.015659, 0.103521,1,-0.006548,-0.044431, 0.068591,1,-0.197400,-1.211667, 9.729506,1,0
1778777832853,  2526.639,  2526.639, 0.110027, 0.114811,-0.980547, 0.001097, 0.001242,-0.009788, 0.887419,-0.086435, 0.113659,1, 0.001625,-0.030254, 0.069147,1,-0.190904,-1.212256, 9.729562,1,0
1778777832874,  2526.659,  2526.659, 0.114006, 0.135981,-1.002708, 0.001147, 0.001448,-0.010015, 0.931280, 0.123721,-0.103259,1, 0.020284,-0.029028, 0.073113,1,-0.186123,-1.209130, 9.730043,1,0
1778777832896,  2526.684,  2526.679, 0.120075, 0.127000,-0.982354, 0.001225, 0.001350,-0.009822, 0.869101, 0.227702, 0.197147,1, 0.021820,-0.013046, 0.064802,1,-0.184521,-1.206226, 9.730434,1,0
1778777832923,  2526.709,  2526.709, 0.117835, 0.113190,-0.963930, 0.001176, 0.001166,-0.009697, 0.971924,-0.090045, 0.278285,1, 0.012709, 0.006315, 0.063770,1,-0.184086,-1.199627, 9.731258,1,0
1778777832944,  2526.734,  2526.729, 0.148319, 0.114836,-0.953496, 0.001448, 0.001132,-0.009574, 1.250586,-0.062631, 0.290635,1, 0.005697, 0.004429, 0.063300,1,-0.186700,-1.198056, 9.731402,1,0
1778777832966,  2526.754,  2526.749, 0.156083, 0.120356,-0.928893, 0.001561, 0.001129,-0.009291, 1.431695,-0.048344, 0.509185,1,-0.010337, 0.021244, 0.060250,1,-0.192189,-1.200472, 9.730998,1,0
1778777832993,  2526.779,  2526.779, 0.170424, 0.130994,-0.951052, 0.001691, 0.001185,-0.009518, 1.471729, 0.082892, 0.404062,1,-0.010250, 0.028145, 0.054424,1,-0.200637,-1.202008, 9.730638,1,0
1778777833014,  2526.804,  2526.799, 0.186846, 0.130778,-0.946194, 0.001847, 0.001234,-0.009460, 1.708582,-0.125760, 0.340942,1, 0.003541, 0.025168, 0.057292,1,-0.207525,-1.202145, 9.730476,1,0
1778777833036,  2526.824,  2526.819, 0.197837, 0.138565,-0.958926, 0.001979, 0.001341,-0.009544, 1.674079, 0.100850, 0.496927,1, 0.028167, 0.017667, 0.054981,1,-0.213215,-1.198745, 9.730772,1,0
1778777833063,  2526.849,  2526.849, 0.206961, 0.147527,-0.950592, 0.002018, 0.001400,-0.009542, 1.808527, 0.251361, 0.408887,1, 0.008756, 0.035712, 0.054793,1,-0.222380,-1.195071, 9.731019,1,0
1778777833084,  2526.874,  2526.869, 0.201738, 0.117688,-1.017002, 0.001952, 0.001457,-0.010133, 1.324223, 0.320386, 0.035063,1, 0.005299, 0.014420, 0.050641,1,-0.225684,-1.191740, 9.731352,1,0
1778777833106,  2526.894,  2526.889, 0.161482, 0.135322,-1.039646, 0.001604, 0.001418,-0.010385, 1.627256, 0.100730,-0.281148,1, 0.010827,-0.004786, 0.049916,1,-0.229214,-1.187258, 9.731817,1,0
1778777833133,  2526.919,  2526.919, 0.190983, 0.134963,-1.014463, 0.001971, 0.001364,-0.010099, 1.640366, 0.136645,-0.216706,1,-0.007629,-0.014118, 0.053005,1,-0.232299,-1.187092, 9.731764,1,0
1778777833155,  2526.944,  2526.939, 0.184455, 0.125900,-1.020796, 0.001884, 0.001294,-0.010174, 1.425809, 0.190001,-0.086937,1,-0.009416, 0.009276, 0.047913,1,-0.233325,-1.189065, 9.731499,1,0
1778777833176,  2526.964,  2526.959, 0.150310, 0.157122,-1.006863, 0.001449, 0.001505,-0.010106, 1.176428, 0.079181,-0.318743,1,-0.029138,-0.016842, 0.047003,1,-0.230764,-1.191691, 9.731238,1,0
1778777833203,  2526.989,  2526.989, 0.129221, 0.127337,-1.006532, 0.001346, 0.001336,-0.010004, 1.039793, 0.055904,-0.139534,1, 0.001750,-0.045497, 0.037689,1,-0.226164,-1.192761, 9.731215,1,0
1778777833225,  2527.014,  2527.009, 0.095556, 0.109639,-1.006675, 0.001044, 0.001097,-0.010058, 1.194772, 0.519287, 0.168637,1, 0.026677,-0.052667, 0.039102,1,-0.219189,-1.189108, 9.731822,1,0
1778777833246,  2527.034,  2527.029, 0.143930, 0.106500,-0.965962, 0.001548, 0.001061,-0.009702, 1.010828, 0.263485, 0.090322,1,-0.002254, 0.000241, 0.030456,1,-0.215189,-1.189872, 9.731818,1,0
1778777833273,  2527.059,  2527.059, 0.102866, 0.115910,-1.029017, 0.000946, 0.001378,-0.010321, 0.804539,-0.046517,-0.358342,1, 0.035778,-0.029745, 0.029556,1,-0.203419,-1.182079, 9.733021,1,0
1778777833295,  2527.084,  2527.079, 0.091737, 0.125815,-1.010905, 0.000824, 0.001113,-0.010198, 0.741652, 0.103966,-0.304647,1, 0.040893,-0.074978, 0.030593,1,-0.192519,-1.177222, 9.733831,1,0
1778777833316,  2527.104,  2527.099, 0.064130, 0.117894,-0.978462, 0.000741, 0.001164,-0.009830, 1.124446, 0.182157,-0.350136,1, 0.044099,-0.056812, 0.033547,1,-0.183293,-1.169998, 9.734880,1,0
1778777833343,  2527.129,  2527.129, 0.125885, 0.107444,-0.994292, 0.001249, 0.001024,-0.009920, 1.064064,-0.108322,-0.014601,1, 0.037411,-0.059800, 0.029237,1,-0.168702,-1.160816, 9.736243,1,0
1778777833365,  2527.154,  2527.149, 0.151118, 0.149559,-0.944041, 0.001386, 0.001468,-0.009389, 0.596728,-0.309625, 0.121157,1,-0.009924,-0.008360, 0.029813,1,-0.161254,-1.162277, 9.736195,1,0
1778777833388,  2527.174,  2527.174, 0.113588, 0.129482,-0.985541, 0.001007, 0.001121,-0.009912, 0.959275, 0.104167, 0.071048,1,-0.034775, 0.000979, 0.033606,1,-0.154795,-1.166682, 9.735773,1,0
1778777833413,  2527.199,  2527.199, 0.107817, 0.086262,-0.938473, 0.001164, 0.000748,-0.009318, 0.904132,-0.321004, 0.532487,1,-0.032029,-0.028070, 0.032570,1,-0.152446,-1.167919, 9.735662,1,0
1778777833435,  2527.224,  2527.219, 0.133393, 0.101739,-0.958813, 0.001411, 0.000880,-0.009517, 1.216217,-0.223839, 0.685869,1,-0.018170, 0.015505, 0.038792,1,-0.155462,-1.171327, 9.735205,1,0
1778777833458,  2527.244,  2527.244, 0.138669, 0.110655,-0.951156, 0.001353, 0.000992,-0.009508, 1.198851,-0.088728, 0.407148,1, 0.004161, 0.029681, 0.030634,1,-0.162058,-1.173735, 9.734807,1,0
1778777833483,  2527.269,  2527.269, 0.089372, 0.129090,-0.974767, 0.000901, 0.001185,-0.009804, 0.712148, 0.093755, 0.175756,1, 0.011392, 0.026388, 0.028507,1,-0.165217,-1.171816, 9.734985,1,0
1778777833505,  2527.294,  2527.289, 0.097369, 0.132513,-0.997250, 0.001064, 0.001239,-0.010068, 1.219848, 0.104790, 0.033317,1, 0.033587, 0.003143, 0.033056,1,-0.170283,-1.165092, 9.735704,1,0
1778777833528,  2527.314,  2527.314, 0.131126, 0.123096,-0.988208, 0.001386, 0.001433,-0.009812, 1.108232, 0.050425, 0.045563,1, 0.044941, 0.002190, 0.027465,1,-0.177847,-1.155327, 9.736733,1,0
1778777833553,  2527.339,  2527.339, 0.110854, 0.125982,-0.975774, 0.001036, 0.001514,-0.009836, 0.906311, 0.082015, 0.167826,1, 0.023728, 0.026906, 0.023398,1,-0.181711,-1.152694, 9.736974,1,0
1778777833575,  2527.364,  2527.359, 0.074157, 0.096449,-0.970120, 0.000694, 0.000932,-0.009801, 0.858351,-0.111912,-0.366165,1, 0.025132,-0.014425, 0.028237,1,-0.180647,-1.148109, 9.737535,1,0
1778777833598,  2527.384,  2527.384, 0.081245, 0.115461,-1.011014, 0.000823, 0.001121,-0.010066, 0.617958,-0.013078,-0.176765,1, 0.014113,-0.041790, 0.028527,1,-0.177595,-1.144910, 9.737968,1,0
1778777833624,  2527.409,  2527.409, 0.080817, 0.136523,-0.971389, 0.000793, 0.001317,-0.009857, 0.617544, 0.191154, 0.211622,1,-0.021813,-0.016238, 0.030796,1,-0.174612,-1.148335, 9.737618,1,0
1778777833645,  2527.434,  2527.429, 0.090796, 0.144239,-0.971363, 0.000820, 0.001564,-0.009641, 0.368203, 0.255336, 0.192278,1,-0.015322,-0.040396, 0.028811,1,-0.167000,-1.150937, 9.737445,1,0
1778777833668,  2527.454,  2527.454, 0.067026, 0.179073,-0.998510, 0.000623, 0.001608,-0.009916, 0.497038, 0.602744,-0.054771,1, 0.000564,-0.025060, 0.029296,1,-0.159591,-1.153329, 9.737287,1,0
1778777833694,  2527.479,  2527.479, 0.041551, 0.138307,-1.016519, 0.000448, 0.001090,-0.010182, 0.251148, 0.204872,-0.231085,1,-0.013255,-0.015435, 0.020358,1,-0.155920,-1.151861, 9.737519,1,0
1778777833715,  2527.499,  2527.499, 0.064108, 0.090791,-1.031917, 0.000657, 0.000882,-0.010285, 0.475034,-0.258220,-0.381705,1, 0.001456,-0.024088, 0.024160,1,-0.152988,-1.148521, 9.737961,1,0
1778777833738,  2527.529,  2527.524, 0.040203, 0.061605,-1.019846, 0.000468, 0.000544,-0.010161, 0.242111,-0.549310,-0.263882,1,-0.032929,-0.018086, 0.022197,1,-0.151670,-1.154463, 9.737279,1,0
1778777833764,  2527.549,  2527.549, 0.038535, 0.093229,-1.035846, 0.000364, 0.001046,-0.010347, 0.227538,-0.247684,-0.421772,1,-0.037402,-0.011259, 0.026299,1,-0.150110,-1.163097, 9.736276,1,0
1778777833785,  2527.574,  2527.569,-0.019613, 0.134456,-0.956733,-0.000209, 0.001282,-0.009595,-0.235248, 0.129854,-0.002289,1,-0.031732,-0.038309, 0.030380,1,-0.144506,-1.172017, 9.735291,1,0
