Time,GPS_ts,fGPS_ts,scaledAccelX,scaledAccelY,scaledAccelZ,deltaVelX,deltaVelY,deltaVelZ,estLinearAccelX,estLinearAccelY,estLinearAccelZ,estLinearAccel:valid,estAngularRateX,estAngularRateY,estAngularRateZ,estAngularRate:valid,estGravityX,estGravityY,estGravityZ,estGravity:valid,flag
1778777321705,  2007.225,  2007.225, 0.008622, 0.088473,-1.001660, 0.000087, 0.000887,-0.010022,-0.014672,-0.075094,-0.062197,1, 0.000989,-0.000974,-0.000948,1,-0.099194,-0.942685, 9.760732,1,0
1778777321705,  2007.250,  2007.245, 0.008563, 0.097700,-0.987378, 0.000084, 0.000992,-0.009859,-0.016631, 0.005938, 0.052347,1,-0.004430, 0.001252,-0.001156,1,-0.099297,-0.943047, 9.760696,1,0
1778777321705,  2007.275,  2007.275, 0.012564, 0.088016,-1.004885, 0.000125, 0.000885,-0.010059, 0.024007,-0.079562,-0.093824,1, 0.001682,-0.000212, 0.000050,1,-0.099195,-0.942652, 9.760736,1,0
1778777321705,  2007.300,  2007.295, 0.007444, 0.096328,-0.984121, 0.000078, 0.000982,-0.009828, 0.005815, 0.065175, 0.161328,1,-0.002816, 0.002152,-0.000316,1,-0.099204,-0.943396, 9.760663,1,0
1778777321705,  2007.325,  2007.320, 0.007348, 0.091593,-0.997184, 0.000076, 0.000919,-0.009951,-0.023221,-0.066757,-0.086780,1,-0.000567,-0.000331,-0.000075,1,-0.098951,-0.942868, 9.760716,1,0
1778777321705,  2007.350,  2007.345, 0.010271, 0.097401,-0.989980, 0.000100, 0.000988,-0.009890, 0.006140, 0.061425, 0.086893,1,-0.003591, 0.001427,-0.000442,1,-0.099437,-0.943824, 9.760619,1,0
1778777321705,  2007.370,  2007.370, 0.013908, 0.090712,-0.998545, 0.000137, 0.000908,-0.010000, 0.037362,-0.053648,-0.031702,1, 0.000815,-0.001120,-0.000473,1,-0.098998,-0.943207, 9.760684,1,0
1778777321705,  2007.395,  2007.395, 0.009372, 0.103502,-0.977989, 0.000102, 0.001037,-0.009776,-0.007405, 0.071286, 0.169835,1,-0.002098, 0.002270,-0.000138,1,-0.099382,-0.943790, 9.760623,1,0
1778777321705,  2007.420,  2007.415, 0.009196, 0.089354,-1.006827, 0.000090, 0.000899,-0.010082,-0.033405,-0.037362,-0.054849,1, 0.003799,-0.003993, 0.000411,1,-0.099042,-0.942931, 9.760710,1,0
1778777321705,  2007.445,  2007.445, 0.012561, 0.103477,-0.981098, 0.000123, 0.001042,-0.009807, 0.024050, 0.071052, 0.139344,1,-0.004846, 0.001626, 0.000060,1,-0.099178,-0.943866, 9.760618,1,0
1778777321705,  2007.460,  2007.455, 0.010151, 0.091867,-0.995550, 0.000102, 0.000925,-0.009930, 0.003761, 0.003203, 0.109308,1, 0.001979,-0.000367, 0.000926,1,-0.099166,-0.943728, 9.760632,1,0
1778777321716,  2015.555,  2015.555, 0.009821, 0.088859,-1.000252, 0.000099, 0.000888,-0.010017,-0.039320, 0.051521, 0.083937,1,-0.003618, 0.001926,-0.000965,1,-0.096557,-0.941487, 9.760874,1,0
1778777321738,  2015.580,  2015.575, 0.014308, 0.089476,-1.002463, 0.000143, 0.000881,-0.010042, 0.014079,-0.065534,-0.069501,1, 0.005159,-0.002401, 0.000591,1,-0.096319,-0.940888, 9.760934,1,0
1778777321760,  2015.605,  2015.600, 0.009741, 0.100902,-0.975942, 0.000115, 0.001012,-0.009766,-0.001052, 0.048250, 0.190176,1,-0.003080, 0.001755,-0.000406,1,-0.096635,-0.941353, 9.760886,1,0
1778777321786,  2015.625,  2015.625, 0.003965, 0.088129,-1.000805, 0.000040, 0.000893,-0.009984,-0.057505,-0.076593,-0.053606,1, 0.005316,-0.004010,-0.000257,1,-0.096268,-0.940678, 9.760955,1,0
1778777321808,  2015.645,  2015.645, 0.010800, 0.098188,-0.997385, 0.000102, 0.000965,-0.009992, 0.009644, 0.022110,-0.020060,1,-0.005843, 0.001475,-0.001303,1,-0.096307,-0.940966, 9.760927,1,0
1778777321831,  2015.675,  2015.670, 0.012991, 0.089363,-0.993203, 0.000130, 0.000904,-0.009928, 0.030921,-0.065007, 0.020896,1, 0.004419,-0.002696, 0.000585,1,-0.096397,-0.941224, 9.760901,1,0
1778777321856,  2015.695,  2015.695, 0.009055, 0.098342,-0.985688, 0.000096, 0.000966,-0.009870,-0.007611, 0.023398, 0.094628,1,-0.001336, 0.003478,-0.000825,1,-0.096518,-0.941048, 9.760917,1,0
1778777321878,  2015.720,  2015.715, 0.007769, 0.089932,-1.003936, 0.000078, 0.000897,-0.010035,-0.026779, 0.020433, 0.019852,1, 0.002806,-0.000590, 0.000161,1,-0.096850,-0.940964, 9.760921,1,0
1778777321901,  2015.745,  2015.740, 0.014443, 0.098584,-0.986836, 0.000150, 0.000967,-0.009899, 0.045010, 0.025909, 0.083376,1,-0.005946, 0.001680,-0.000533,1,-0.096673,-0.941058, 9.760914,1,0
1778777321926,  2015.765,  2015.765, 0.009772, 0.097750,-0.981683, 0.000102, 0.000995,-0.009797,-0.001063, 0.017011, 0.133844,1, 0.001988,-0.000955, 0.000698,1,-0.096862,-0.941526, 9.760867,1,0
1778777321948,  2015.790,  2015.785, 0.010704, 0.098878,-0.993148, 0.000106, 0.000977,-0.009947, 0.011539,-0.058704,-0.079474,1, 0.001815, 0.000235,-0.000334,1,-0.096630,-0.940728, 9.760946,1,0
1778777321971,  2015.815,  2015.810, 0.006834, 0.095522,-0.990404, 0.000071, 0.000974,-0.009897,-0.029811,-0.004470, 0.048355,1, 0.002556,-0.002783, 0.000760,1,-0.096741,-0.941146, 9.760905,1,0
1778777321996,  2015.835,  2015.835, 0.011635, 0.089739,-0.995167, 0.000116, 0.000892,-0.009973, 0.017930,-0.060865, 0.001679,1, 0.000135,-0.001140,-0.000490,1,-0.096131,-0.940898, 9.760935,1,0
1778777322018,  2015.860,  2015.855, 0.005721, 0.094869,-0.991838, 0.000064, 0.000960,-0.009899,-0.015135, 0.070376, 0.143105,1, 0.000430, 0.003129,-0.000824,1,-0.096678,-0.941453, 9.760877,1,0
1778777322045,  2015.885,  2015.885, 0.008851, 0.090541,-1.003979, 0.000086, 0.000890,-0.010070,-0.009402,-0.052582,-0.084694,1,-0.001225, 0.001318,-0.000820,1,-0.096241,-0.940536, 9.760969,1,0
1778777322067,  2015.905,  2015.905, 0.010175, 0.101053,-0.978664, 0.000109, 0.001015,-0.009794, 0.003169, 0.049560, 0.163459,1,-0.002787, 0.001304,-0.000361,1,-0.096653,-0.941517, 9.760870,1,0
1778777322088,  2015.930,  2015.925, 0.009989, 0.089748,-1.002118, 0.000098, 0.000887,-0.010033,-0.007548,-0.072165,-0.037860,1, 0.005812,-0.002343, 0.000032,1,-0.096478,-0.940802, 9.760941,1,0
1778777322115,  2015.955,  2015.955, 0.008097, 0.100098,-0.986436, 0.000082, 0.001008,-0.009864,-0.017591, 0.040424, 0.087261,1,-0.002307, 0.002131,-0.000637,1,-0.097057,-0.941269, 9.760890,1,0
1778777322137,  2015.980,  2015.975, 0.013855, 0.091486,-0.993751, 0.000132, 0.000906,-0.009964, 0.010716,-0.068588,-0.063767,1, 0.002800,-0.002983, 0.000136,1,-0.096510,-0.940747, 9.760946,1,0
1778777322158,  2016.000,  2015.995, 0.010450, 0.100740,-0.979752, 0.000112, 0.001009,-0.009797, 0.049521, 0.038209, 0.135086,1,-0.004609, 0.003271,-0.000729,1,-0.096814,-0.941424, 9.760878,1,0
1778777322185,  2016.025,  2016.025, 0.004377, 0.090149,-1.001593, 0.000050, 0.000901,-0.010015,-0.053516,-0.056935,-0.061345,1, 0.003674,-0.004987, 0.000322,1,-0.096284,-0.940879, 9.760936,1,0
1778777322207,  2016.050,  2016.045, 0.011361, 0.102385,-0.979763, 0.000114, 0.001019,-0.009802, 0.020792, 0.022136, 0.066211,1,-0.005848, 0.003079,-0.000851,1,-0.096389,-0.941636, 9.760861,1,0
1778777322228,  2016.070,  2016.065, 0.013751, 0.089571,-0.999092, 0.000138, 0.000891,-0.009985, 0.035104,-0.001532, 0.066788,1, 0.003159,-0.001270, 0.000358,1,-0.096604,-0.941778, 9.760845,1,0
1778777322255,  2016.095,  2016.095, 0.007554, 0.100287,-0.984823, 0.000081, 0.000998,-0.009862,-0.022449, 0.042188, 0.103079,1,-0.004135, 0.001961,-0.000402,1,-0.096589,-0.941419, 9.760880,1,0
1778777322277,  2016.120,  2016.115, 0.009032, 0.089131,-1.005807, 0.000077, 0.000888,-0.010045,-0.065821,-0.028501, 0.014518,1, 0.004959,-0.002781, 0.000346,1,-0.096434,-0.941247, 9.760899,1,0
1778777322298,  2016.140,  2016.135, 0.016496, 0.100412,-0.985844, 0.000173, 0.000987,-0.009881, 0.072376,-0.066663,-0.084161,1, 0.000537, 0.002552,-0.001089,1,-0.096390,-0.940578, 9.760963,1,0
1778777322325,  2016.165,  2016.165, 0.007166, 0.093590,-0.985281, 0.000081, 0.000947,-0.009844,-0.026415,-0.023360, 0.098599,1, 0.003209,-0.003327,-0.000200,1,-0.096582,-0.941065, 9.760915,1,0
1778777322347,  2016.190,  2016.185, 0.007051, 0.100236,-0.984464, 0.000073, 0.000985,-0.009859,-0.018438,-0.056508,-0.015467,1,-0.001865, 0.001414,-0.000889,1,-0.096327,-0.940962, 9.760927,1,0
1778777322368,  2016.210,  2016.205, 0.009912, 0.094620,-1.001166, 0.000099, 0.000952,-0.009994,-0.008672, 0.058266, 0.067401,1, 0.001095, 0.000549,-0.000639,1,-0.096804,-0.941429, 9.760878,1,0
1778777322395,  2016.235,  2016.235, 0.012699, 0.092498,-0.995953, 0.000124, 0.000914,-0.009993, 0.028537,-0.033508,-0.005994,1,-0.002593, 0.000448,-0.000495,1,-0.096011,-0.940682, 9.760957,1,0
1778777322417,  2016.260,  2016.255, 0.005786, 0.094378,-0.987992, 0.000055, 0.000950,-0.009848, 0.002860, 0.044455, 0.195453,1, 0.000190, 0.002492,-0.000018,1,-0.096514,-0.941448, 9.760879,1,0
1778777322439,  2016.280,  2016.275, 0.006208, 0.092658,-1.005521, 0.000055, 0.000908,-0.010081,-0.050132,-0.063977,-0.113411,1, 0.004611,-0.003108,-0.000450,1,-0.096155,-0.940495, 9.760974,1,0
1778777322466,  2016.305,  2016.305, 0.010994, 0.099593,-0.981722, 0.000111, 0.001003,-0.009828, 0.011537, 0.035346, 0.133491,1,-0.003352, 0.000847,-0.000125,1,-0.096304,-0.941431, 9.760882,1,0
1778777322487,  2016.330,  2016.325, 0.013640, 0.092228,-0.985187, 0.000147, 0.000904,-0.009877, 0.072217,-0.072963, 0.025252,1, 0.002690,-0.001100, 0.000259,1,-0.096154,-0.941073, 9.760918,1,0
1778777322509,  2016.350,  2016.345, 0.002129, 0.099771,-0.986110, 0.000026, 0.001001,-0.009847,-0.025154, 0.047375, 0.154170,1,-0.001543, 0.003099,-0.001320,1,-0.096578,-0.941238, 9.760898,1,0
1778777322536,  2016.375,  2016.375, 0.008335, 0.090956,-1.012231, 0.000080, 0.000903,-0.010129,-0.014194,-0.048121,-0.165578,1, 0.000772,-0.003292, 0.000035,1,-0.095834,-0.940066, 9.761018,1,0
1778777322557,  2016.400,  2016.395, 0.014365, 0.099680,-0.976832, 0.000148, 0.001000,-0.009760, 0.092654, 0.042794, 0.144298,1,-0.004622, 0.002930,-0.000607,1,-0.096334,-0.941022, 9.760921,1,0
1778777322580,  2016.420,  2016.420, 0.005517, 0.089731,-1.001988, 0.000057, 0.000890,-0.010015,-0.041740,-0.060221,-0.065136,1, 0.003896,-0.002479,-0.000108,1,-0.095764,-0.940064, 9.761019,1,0
1778777322606,  2016.445,  2016.445, 0.005363, 0.101583,-0.990647, 0.000054, 0.001009,-0.009917,-0.043486, 0.055815, 0.046052,1,-0.004368, 0.003544,-0.001048,1,-0.096185,-0.940507, 9.760972,1,0
1778777322627,  2016.470,  2016.465, 0.011884, 0.090620,-1.000842, 0.000121, 0.000893,-0.010026, 0.015052,-0.045790,-0.050190,1, 0.002913,-0.002809, 0.000276,1,-0.096123,-0.940438, 9.760980,1,0
1778777322650,  2016.490,  2016.490, 0.009825, 0.101179,-0.976254, 0.000106, 0.001005,-0.009770, 0.000107, 0.051328, 0.187156,1,-0.001769, 0.002772,-0.000192,1,-0.096323,-0.940951, 9.760928,1,0
1778777322676,  2016.515,  2016.515, 0.007901, 0.090697,-0.997686, 0.000083, 0.000914,-0.009965,-0.018872,-0.050961,-0.022978,1, 0.005912,-0.001673, 0.000157,1,-0.096304,-0.940210, 9.761000,1,0
1778777322697,  2016.540,  2016.535, 0.009258, 0.101375,-0.985876, 0.000092, 0.001010,-0.009862,-0.004169,-0.008837,-0.006740,1,-0.003836, 0.000767,-0.000792,1,-0.096219,-0.940427, 9.760980,1,0
1778777322720,  2016.560,  2016.560, 0.010953, 0.092497,-0.992481, 0.000109, 0.000929,-0.009916, 0.011288,-0.033842, 0.028018,1, 0.002490,-0.002960, 0.000803,1,-0.096037,-0.940852, 9.760941,1,0
1778777322746,  2016.585,  2016.585, 0.011870, 0.095369,-0.985847, 0.000121, 0.000943,-0.009872, 0.020379,-0.005670, 0.093079,1,-0.001776, 0.002204,-0.000429,1,-0.096088,-0.940978, 9.760928,1,0
1778777322768,  2016.610,  2016.605, 0.005756, 0.092410,-1.001247, 0.000055, 0.000922,-0.010003,-0.031665, 0.005574, 0.044456,1, 0.004456,-0.000970, 0.000160,1,-0.096220,-0.940737, 9.760950,1,0
1778777322790,  2016.630,  2016.630, 0.010903, 0.098861,-0.987993, 0.000117, 0.000966,-0.009909, 0.010905, 0.028923, 0.072070,1,-0.006121, 0.001610,-0.000390,1,-0.096064,-0.940760, 9.760949,1,0
1778777322816,  2016.655,  2016.655, 0.006823, 0.096607,-0.984377, 0.000075, 0.000980,-0.009831,-0.029444, 0.006241, 0.107463,1, 0.002771,-0.001028, 0.000556,1,-0.096320,-0.941063, 9.760918,1,0
1778777322838,  2016.680,  2016.675, 0.012993, 0.098650,-0.992799, 0.000132, 0.000971,-0.009946, 0.014082,-0.061024,-0.093756,1, 0.003039,-0.000156,-0.001149,1,-0.095908,-0.940203, 9.761004,1,0
1778777322860,  2016.700,  2016.700, 0.009365, 0.095399,-0.989769, 0.000096, 0.000968,-0.009883,-0.004325,-0.004939, 0.054654,1, 0.003602,-0.000955, 0.000537,1,-0.096131,-0.940373, 9.760985,1,0
1778777322886,  2016.725,  2016.725, 0.010023, 0.089200,-0.999382, 0.000099, 0.000890,-0.010013, 0.002565,-0.065409,-0.039582,1,-0.001243,-0.000122,-0.000387,1,-0.095720,-0.940199, 9.761006,1,0
1778777322908,  2016.750,  2016.745, 0.007639, 0.096701,-0.993485, 0.000071, 0.000974,-0.009913,-0.018600, 0.052778, 0.129722,1,-0.000904, 0.002832, 0.000099,1,-0.096316,-0.940998, 9.760923,1,0
1778777322930,  2016.775,  2016.770, 0.010667, 0.091243,-1.002088, 0.000102, 0.000902,-0.010054, 0.008999,-0.045285,-0.066109,1,-0.001731,-0.000012,-0.000532,1,-0.095605,-0.940126, 9.761015,1,0
1778777322956,  2016.795,  2016.795, 0.014106, 0.098856,-0.977113, 0.000155, 0.000988,-0.009778, 0.042177, 0.028619, 0.178738,1,-0.001334, 0.001836,-0.000444,1,-0.096208,-0.940871, 9.760937,1,0
1778777322978,  2016.820,  2016.815, 0.004239, 0.091243,-0.999707, 0.000039, 0.000906,-0.010001,-0.039493,-0.049548,-0.000029,1, 0.004037,-0.002607, 0.000189,1,-0.096056,-0.940249, 9.760999,1,0
1778777323001,  2016.845,  2016.840, 0.009452, 0.099837,-0.987759, 0.000091, 0.001001,-0.009882,-0.003616, 0.038299, 0.074336,1,-0.002208, 0.002276,-0.000474,1,-0.096375,-0.940835, 9.760939,1,0
1778777323026,  2016.865,  2016.865, 0.014861, 0.090388,-0.997779, 0.000147, 0.000916,-0.009975, 0.049551,-0.053985,-0.023884,1, 0.004638,-0.002332, 0.000205,1,-0.096117,-0.940242, 9.760999,1,0
1778777323048,  2016.890,  2016.885, 0.005347, 0.101524,-0.977228, 0.000064, 0.001013,-0.009771, 0.035559, 0.018687, 0.124635,1,-0.003708, 0.002231,-0.001618,1,-0.096319,-0.940401, 9.760982,1,0
1778777323071,  2016.915,  2016.910, 0.003551, 0.091480,-1.005618, 0.000031, 0.000915,-0.010042,-0.061558,-0.042852,-0.100722,1, 0.004309,-0.001603,-0.000021,1,-0.096332,-0.939827, 9.761036,1,0
1778777323096,  2016.935,  2016.935, 0.013078, 0.097767,-0.992083, 0.000135, 0.000962,-0.009954, 0.031902, 0.018731, 0.031999,1,-0.005159, 0.000711,-0.001085,1,-0.096372,-0.940200, 9.761000,1,0
1778777323118,  2016.960,  2016.955, 0.010757, 0.090600,-0.995315, 0.000111, 0.000902,-0.009938, 0.006375, 0.010329, 0.119015,1, 0.002932,-0.001884, 0.000126,1,-0.096422,-0.940520, 9.760968,1,0
1778777323141,  2016.985,  2016.980, 0.010192, 0.096758,-0.987382, 0.000106, 0.000951,-0.009893, 0.003508, 0.008922, 0.078117,1,-0.003762, 0.003197,-0.000907,1,-0.096540,-0.940071, 9.761011,1,0
1778777323166,  2017.005,  2017.005, 0.004708, 0.095605,-0.994527, 0.000048, 0.000978,-0.009928,-0.050418,-0.002626, 0.008020,1, 0.004581,-0.003494, 0.000505,1,-0.096485,-0.940049, 9.761013,1,0
1778777323188,  2017.030,  2017.025, 0.016172, 0.096320,-0.983619, 0.000159, 0.000944,-0.009870, 0.019105,-0.061318,-0.079955,1,-0.002431,-0.000959,-0.000250,1,-0.095771,-0.939987, 9.761026,1,0
1778777323211,  2017.055,  2017.050, 0.011751, 0.096270,-0.982232, 0.000127, 0.000977,-0.009803, 0.018516, 0.003316, 0.128531,1, 0.005316,-0.000151, 0.000134,1,-0.096715,-0.940607, 9.760958,1,0
1778777323237,  2017.075,  2017.075, 0.006279, 0.090181,-1.004393, 0.000064, 0.000899,-0.010063,-0.034682,-0.055604,-0.088709,1, 0.000719,-0.001133,-0.000680,1,-0.096222,-0.939954, 9.761025,1,0
1778777323258,  2017.100,  2017.095, 0.008524, 0.098866,-0.985028, 0.000083, 0.000993,-0.009838,-0.022874, 0.066239, 0.133683,1,-0.003473, 0.001266,-0.000447,1,-0.096646,-0.940948, 9.760925,1,0
1778777323285,  2017.125,  2017.125, 0.013133, 0.088974,-1.000137, 0.000128, 0.000887,-0.010018, 0.032584,-0.067628,-0.046986,1, 0.002012,-0.000252,-0.000593,1,-0.096195,-0.940105, 9.761011,1,0
1778777323307,  2017.145,  2017.145, 0.011429, 0.099269,-0.981104, 0.000123, 0.000998,-0.009810, 0.015555, 0.032987, 0.139627,1, 0.000034, 0.001379,-0.000992,1,-0.096569,-0.940508, 9.760968,1,0
1778777323328,  2017.170,  2017.165, 0.006340, 0.090160,-1.003691, 0.000056, 0.000899,-0.010050,-0.045819,-0.035642,-0.061945,1, 0.003569,-0.002884, 0.000125,1,-0.096161,-0.939821, 9.761039,1,0
1778777323355,  2017.195,  2017.195, 0.010620, 0.098962,-0.983856, 0.000107, 0.000989,-0.009848, 0.007756, 0.029764, 0.112615,1,-0.003407, 0.002438,-0.000181,1,-0.096463,-0.940828, 9.760939,1,0
1778777323377,  2017.220,  2017.215, 0.012620, 0.090465,-0.998406, 0.000123, 0.000896,-0.009998, 0.015595,-0.051802,-0.032279,1, 0.003488,-0.002731,-0.000227,1,-0.096152,-0.940384, 9.760984,1,0
1778777323398,  2017.240,  2017.235, 0.007320, 0.101201,-0.978330, 0.000082, 0.001009,-0.009787, 0.028984, 0.000896, 0.090889,1,-0.004626, 0.002379,-0.000535,1,-0.096337,-0.940804, 9.760942,1,0
1778777323425,  2017.265,  2017.265, 0.006041, 0.089775,-1.005650, 0.000055, 0.000902,-0.010037,-0.037220,-0.060251,-0.101101,1, 0.004311,-0.003504,-0.000062,1,-0.096358,-0.940512, 9.760970,1,0
1778777323447,  2017.290,  2017.285, 0.012441, 0.104222,-0.978230, 0.000121, 0.001041,-0.009783, 0.039443, 0.018190, 0.038179,1,-0.005882, 0.002109,-0.000102,1,-0.096272,-0.940960, 9.760928,1,0
1778777323468,  2017.310,  2017.305, 0.009690, 0.090486,-0.995089, 0.000098, 0.000908,-0.009935, 0.039443, 0.018190, 0.038179,1,-0.005882, 0.002109,-0.000102,1,-0.096272,-0.940960, 9.760928,1,0
1778777323495,  2017.335,  2017.335, 0.009115, 0.096198,-0.988177, 0.000097, 0.000942,-0.009908,-0.006761, 0.002618, 0.070245,1,-0.003243, 0.002529,-0.000928,1,-0.096225,-0.940861, 9.760938,1,0
1778777323517,  2017.360,  2017.355, 0.008764, 0.093374,-1.002009, 0.000085, 0.000930,-0.010016,-0.029756, 0.013872, 0.022867,1, 0.003814,-0.001781,-0.000062,1,-0.096279,-0.940717, 9.760951,1,0
1778777323538,  2017.380,  2017.375, 0.012731, 0.097147,-0.982992, 0.000129, 0.000950,-0.009854, 0.019812,-0.043069,-0.039544,1,-0.002740,-0.000262,-0.000630,1,-0.095902,-0.940744, 9.760952,1,0
1778777323565,  2017.405,  2017.405, 0.007607, 0.095398,-0.988279, 0.000084, 0.000965,-0.009865,-0.021763,-0.005265, 0.069235,1, 0.006162,-0.002269,-0.000536,1,-0.096290,-0.940609, 9.760962,1,0
1778777323587,  2017.430,  2017.425, 0.010050, 0.097526,-0.988844, 0.000096, 0.000957,-0.009905,-0.010523,-0.063466,-0.085670,1, 0.001835,-0.000054,-0.000122,1,-0.095764,-0.939774, 9.761047,1,0
1778777323609,  2017.450,  2017.445, 0.009832, 0.095689,-0.987427, 0.000097, 0.000964,-0.009863, 0.011114, 0.044958, 0.113926,1,-0.003028, 0.001470, 0.000147,1,-0.096165,-0.940589, 9.760964,1,0
1778777323636,  2017.475,  2017.475, 0.011457, 0.090521,-0.997284, 0.000112, 0.000899,-0.009991, 0.016530,-0.052787,-0.019037,1,-0.001271, 0.000305,-0.001073,1,-0.095827,-0.940537, 9.760973,1,0
1778777323657,  2017.500,  2017.495, 0.007742, 0.096892,-0.992058, 0.000073, 0.000973,-0.009904,-0.015118, 0.043261, 0.110597,1, 0.000226, 0.001309,-0.000343,1,-0.096256,-0.941109, 9.760914,1,0
1778777323679,  2017.520,  2017.515, 0.010508, 0.090904,-0.997029, 0.000111, 0.000897,-0.010003, 0.003941,-0.055640,-0.082994,1, 0.003469,-0.002464, 0.000114,1,-0.095859,-0.940294, 9.760996,1,0
1778777323706,  2017.545,  2017.545, 0.008102, 0.099454,-0.981702, 0.000085, 0.000995,-0.009815,-0.016774, 0.034449, 0.133726,1, 0.000841, 0.000331,-0.000645,1,-0.096238,-0.940835, 9.760941,1,0
1778777323727,  2017.570,  2017.565, 0.011882, 0.091352,-0.997494, 0.000111, 0.000908,-0.009995,-0.015780,-0.056731,-0.080713,1, 0.002597,-0.002175, 0.000178,1,-0.095804,-0.940144, 9.761011,1,0
1778777323749,  2017.590,  2017.585, 0.010554, 0.099146,-0.984797, 0.000111, 0.000994,-0.009847, 0.043135, 0.019947, 0.066586,1,-0.002006, 0.002273,-0.000491,1,-0.096219,-0.940539, 9.760969,1,0
1778777323776,  2017.615,  2017.615, 0.009156, 0.090377,-1.000147, 0.000091, 0.000906,-0.010002,-0.006226,-0.053831,-0.047084,1, 0.001899,-0.002235,-0.000486,1,-0.095947,-0.940072, 9.761017,1,0
1778777323797,  2017.640,  2017.635, 0.007410, 0.102274,-0.981428, 0.000071, 0.001024,-0.009805,-0.011506, 0.043533, 0.122671,1,-0.004332, 0.003182,-0.000553,1,-0.096251,-0.940751, 9.760948,1,0
1778777323820,  2017.660,  2017.660, 0.010838, 0.090596,-1.005602, 0.000108, 0.000894,-0.010065, 0.010293,-0.051791,-0.100584,1, 0.001229,-0.002334,-0.000224,1,-0.095914,-0.940192, 9.761005,1,0
1778777323846,  2017.685,  2017.685, 0.013732, 0.100925,-0.981210, 0.000147, 0.000997,-0.009830, 0.038531, 0.049024, 0.138569,1,-0.004114, 0.001669,-0.000196,1,-0.096183,-0.940832, 9.760941,1,0
1778777323867,  2017.710,  2017.705, 0.007646, 0.090662,-0.999148, 0.000081, 0.000897,-0.009988,-0.005041,-0.034083, 0.047379,1, 0.005262,-0.003081,-0.000172,1,-0.096033,-0.940301, 9.760994,1,0
1778777323890,  2017.730,  2017.730, 0.006947, 0.099209,-0.988162, 0.000067, 0.000988,-0.009885,-0.027627, 0.032582, 0.070434,1,-0.002202, 0.001526,-0.000671,1,-0.095803,-0.940395, 9.760987,1,0
1778777323916,  2017.755,  2017.755, 0.010735, 0.091605,-1.000944, 0.000104, 0.000926,-0.009999, 0.009690,-0.041661,-0.054884,1, 0.003980,-0.003494, 0.000121,1,-0.095477,-0.939874, 9.761040,1,0
1778777323938,  2017.780,  2017.775, 0.010670, 0.099409,-0.977766, 0.000111, 0.000988,-0.009781, 0.042442,-0.027202, 0.082560,1,-0.003990, 0.002306,-0.000972,1,-0.095429,-0.940377, 9.760992,1,0
1778777323960,  2017.800,  2017.800, 0.003914, 0.092479,-1.000012, 0.000042, 0.000925,-0.009986,-0.057297,-0.033233,-0.045754,1, 0.004515,-0.002632,-0.000117,1,-0.095600,-0.940004, 9.761026,1,0
1778777323986,  2017.825,  2017.825, 0.009082, 0.095584,-0.996435, 0.000093, 0.000939,-0.009993,-0.006329,-0.002826,-0.010678,1,-0.005194, 0.000421,-0.000519,1,-0.095403,-0.940349, 9.760995,1,0
1778777324008,  2017.850,  2017.845, 0.010591, 0.092121,-0.991517, 0.000104, 0.000923,-0.009900, 0.009940, 0.023406, 0.114665,1, 0.001421,-0.001296, 0.000376,1,-0.095552,-0.940889, 9.760942,1,0
1778777324030,  2017.870,  2017.870, 0.010962, 0.095739,-0.987648, 0.000117, 0.000941,-0.009898, 0.012135,-0.001443, 0.075480,1,-0.002538, 0.001729,-0.000562,1,-0.095418,-0.940398, 9.760990,1,0
1778777324056,  2017.895,  2017.895, 0.005916, 0.096569,-0.990697, 0.000060, 0.000985,-0.009888,-0.037644, 0.006603, 0.045569,1, 0.003931,-0.001986,-0.000209,1,-0.095603,-0.940294, 9.760999,1,0
1778777324078,  2017.920,  2017.915, 0.011784, 0.097482,-0.984867, 0.000121, 0.000957,-0.009879, 0.015560,-0.055536,-0.071001,1,-0.001197,-0.000393,-0.000555,1,-0.095138,-0.939984, 9.761033,1,0
1778777324100,  2017.940,  2017.935, 0.010117, 0.096585,-0.986388, 0.000104, 0.000976,-0.009845, 0.025432, 0.048937, 0.171703,1,-0.002036, 0.002388,-0.001042,1,-0.095561,-0.940879, 9.760942,1,0
1778777324126,  2017.965,  2017.965, 0.009095, 0.090525,-1.001254, 0.000095, 0.000908,-0.010034,-0.006011,-0.052043,-0.057896,1, 0.000815, 0.000909,-0.000724,1,-0.095230,-0.939761, 9.761053,1,0
1778777324148,  2017.990,  2017.985, 0.006270, 0.096362,-0.990536, 0.000067, 0.000966,-0.009891,-0.018658, 0.039855, 0.102741,1,-0.001710, 0.001422,-0.000490,1,-0.095749,-0.940548, 9.760973,1,0
1778777324171,  2018.015,  2018.010, 0.012070, 0.090070,-0.998857, 0.000119, 0.000901,-0.010009, 0.022991,-0.056802,-0.034419,1,-0.000675, 0.000708,-0.000692,1,-0.095391,-0.940111, 9.761018,1,0
1778777324196,  2018.035,  2018.035, 0.011314, 0.099780,-0.982750, 0.000117, 0.001006,-0.009819, 0.015146, 0.037832, 0.123470,1, 0.000532, 0.002565,-0.000672,1,-0.095882,-0.940661, 9.760961,1,0
1778777324218,  2018.060,  2018.055, 0.009199, 0.091127,-0.998799, 0.000092, 0.000906,-0.010013,-0.002753,-0.062108,-0.085609,1, 0.004223,-0.002544, 0.000202,1,-0.095651,-0.939775, 9.761048,1,0
1778777324241,  2018.085,  2018.080, 0.007626, 0.100015,-0.982133, 0.000079, 0.001003,-0.009821,-0.021077, 0.040224, 0.129532,1,-0.000619, 0.000135,-0.000358,1,-0.095867,-0.940606, 9.760966,1,0
1778777324266,  2018.105,  2018.105, 0.010936, 0.090270,-1.001010, 0.000104, 0.000899,-0.010011, 0.011747,-0.054835,-0.055534,1, 0.002727,-0.001668,-0.000817,1,-0.095448,-0.940002, 9.761028,1,0
1778777324288,  2018.130,  2018.125, 0.007973, 0.098968,-0.981015, 0.000083, 0.000988,-0.009806, 0.013792, 0.024209, 0.117238,1,-0.004550, 0.001886,-0.001213,1,-0.095576,-0.940647, 9.760964,1,0
1778777324311,  2018.155,  2018.150, 0.008796, 0.090403,-1.001193, 0.000086, 0.000896,-0.010017,-0.009193,-0.053459,-0.057322,1, 0.002657,-0.001611,-0.000147,1,-0.095404,-0.939926, 9.761036,1,0
1778777324336,  2018.175,  2018.175, 0.010091, 0.098904,-0.986181, 0.000103, 0.000989,-0.009866, 0.003198, 0.029378, 0.089837,1,-0.003965, 0.002802,-0.000005,1,-0.095844,-0.940662, 9.760961,1,0
1778777324358,  2018.200,  2018.195, 0.009515, 0.091952,-0.999870, 0.000093, 0.000912,-0.010003,-0.006592,-0.029189,-0.014811,1, 0.004594,-0.002631, 0.000933,1,-0.095628,-0.940331, 9.760995,1,0
1778777324381,  2018.225,  2018.220, 0.011099, 0.099500,-0.982015, 0.000113, 0.000995,-0.009830, 0.013188, 0.034975, 0.130673,1,-0.003504, 0.002974,-0.000316,1,-0.095748,-0.940901, 9.760939,1,0
1778777324407,  2018.245,  2018.245, 0.009604, 0.091426,-0.995951, 0.000098, 0.000923,-0.009945,-0.001703,-0.043952,-0.005967,1, 0.006025,-0.001899, 0.000357,1,-0.095826,-0.940344, 9.760991,1,0
1778777324428,  2018.270,  2018.265, 0.007215, 0.100949,-0.981571, 0.000077, 0.001007,-0.009827, 0.004101, 0.004015, 0.019960,1,-0.003514, 0.000375,-0.000652,1,-0.095643,-0.940433, 9.760984,1,0
1778777324451,  2018.295,  2018.290, 0.009432, 0.090234,-0.998154, 0.000094, 0.000909,-0.009973,-0.002999,-0.055478,-0.027557,1, 0.006023,-0.002831, 0.000308,1,-0.095411,-0.940186, 9.761011,1,0
1778777324477,  2018.315,  2018.315, 0.013259, 0.095679,-0.992302, 0.000137, 0.000944,-0.009947, 0.034669,-0.001849, 0.029861,1,-0.003172, 0.001791,-0.000679,1,-0.095411,-0.940239, 9.761005,1,0
1778777324498,  2018.340,  2018.335, 0.007566, 0.092202,-0.997410, 0.000072, 0.000919,-0.009960,-0.016752, 0.005973, 0.074255,1, 0.002239,-0.001636, 0.000047,1,-0.095600,-0.940427, 9.760985,1,0
1778777324525,  2018.365,  2018.365, 0.010519, 0.097961,-0.988565, 0.000106, 0.000961,-0.009908, 0.007751, 0.020299, 0.066477,1,-0.004736, 0.002074,-0.000699,1,-0.095472,-0.940517, 9.760979,1,0
1778777324547,  2018.385,  2018.385, 0.008132, 0.095407,-0.990059, 0.000088, 0.000967,-0.009886,-0.015864,-0.005005, 0.051806,1, 0.004231,-0.002275, 0.000458,1,-0.095537,-0.940495, 9.760980,1,0
1778777324568,  2018.410,  2018.405, 0.011343, 0.098145,-0.985289, 0.000119, 0.000960,-0.009887, 0.008438,-0.041371,-0.071370,1,-0.001020, 0.000590,-0.000608,1,-0.095111,-0.939884, 9.761043,1,0
1778777324595,  2018.435,  2018.435, 0.008506, 0.095213,-0.984063, 0.000091, 0.000959,-0.009827,-0.012468,-0.006927, 0.110601,1, 0.003897,-0.000717, 0.000620,1,-0.095863,-0.940530, 9.760973,1,0
1778777324617,  2018.460,  2018.455, 0.008257, 0.100204,-0.986712, 0.000082, 0.000984,-0.009890,-0.003461,-0.048699,-0.065731,1, 0.000157,-0.000885,-0.000492,1,-0.095383,-0.939938, 9.761035,1,0
1778777324638,  2018.480,  2018.475, 0.010875, 0.095174,-0.989116, 0.000104, 0.000961,-0.009870, 0.009058, 0.050257, 0.119403,1,-0.001790, 0.001427,-0.000173,1,-0.095792,-0.940850, 9.760943,1,0
1778777324665,  2018.505,  2018.505, 0.012474, 0.090605,-0.996890, 0.000128, 0.000902,-0.009991, 0.027142,-0.051492,-0.015120,1,-0.000747,-0.000794,-0.001230,1,-0.095155,-0.940047, 9.761026,1,0
1778777324687,  2018.530,  2018.525, 0.005832, 0.095903,-0.992560, 0.000058, 0.000963,-0.009904,-0.023703, 0.025310, 0.113957,1, 0.000338, 0.001120,-0.000934,1,-0.095387,-0.940623, 9.760969,1,0
1778777324709,  2018.550,  2018.545, 0.011280, 0.092658,-0.999930, 0.000110, 0.000921,-0.010027,-0.020136,-0.049124,-0.101809,1, 0.002458,-0.002419,-0.000564,1,-0.094897,-0.939871, 9.761046,1,0
1778777324736,  2018.575,  2018.575, 0.011416, 0.098931,-0.983130, 0.000121, 0.000991,-0.009833, 0.016449, 0.029367, 0.119738,1,-0.001154, 0.001576,-0.000661,1,-0.095550,-0.940853, 9.760945,1,0
1778777324757,  2018.600,  2018.595, 0.007524, 0.093218,-0.994807, 0.000071, 0.000925,-0.009965,-0.001657, 0.003086, 0.053771,1, 0.003742,-0.002477, 0.001118,1,-0.095390,-0.940526, 9.760979,1,0
1778777324779,  2018.620,  2018.615, 0.009377, 0.098854,-0.984248, 0.000094, 0.000990,-0.009839, 0.012388, 0.043255, 0.085325,1,-0.003912, 0.002817,-0.000891,1,-0.095242,-0.940572, 9.760975,1,0
1778777324806,  2018.645,  2018.645, 0.012122, 0.089594,-1.001892, 0.000119, 0.000893,-0.010017, 0.023673,-0.061433,-0.064181,1, 0.003190,-0.002345, 0.000050,1,-0.095132,-0.939954, 9.761036,1,0
1778777324827,  2018.670,  2018.665, 0.006295, 0.100514,-0.978127, 0.000063, 0.001007,-0.009769,-0.013029, 0.047581, 0.122901,1,-0.005808, 0.001679,-0.000611,1,-0.095223,-0.940819, 9.760952,1,0
1778777324849,  2018.690,  2018.685, 0.010069, 0.090484,-1.003874, 0.000096, 0.000891,-0.010039,-0.020115,-0.026585, 0.023367,1, 0.006121,-0.002695, 0.000735,1,-0.095236,-0.940541, 9.760979,1,0
1778777324876,  2018.715,  2018.715, 0.009953, 0.100127,-0.985185, 0.000112, 0.000999,-0.009870, 0.002483, 0.041498, 0.099628,1,-0.004882, 0.001331,-0.000669,1,-0.095161,-0.940566, 9.760977,1,0
1778777324897,  2018.740,  2018.735, 0.010179, 0.092113,-0.999217, 0.000099, 0.000907,-0.009990,-0.016656,-0.039264, 0.023736,1, 0.004010,-0.002119, 0.000628,1,-0.095013,-0.940402, 9.760994,1,0
1778777324919,  2018.760,  2018.755, 0.009164, 0.100589,-0.981990, 0.000093, 0.001001,-0.009822, 0.025726,-0.019030, 0.031620,1,-0.003007, 0.002050,-0.000790,1,-0.095021,-0.940511, 9.760983,1,0
1778777324946,  2018.785,  2018.785, 0.007067, 0.090832,-1.002358, 0.000069, 0.000922,-0.010005,-0.025912,-0.049576,-0.068777,1, 0.006618,-0.004379, 0.000502,1,-0.095084,-0.940131, 9.761019,1,0
1778777324967,  2018.810,  2018.805, 0.013748, 0.101274,-0.978159, 0.000136, 0.001007,-0.009791, 0.034495,-0.013771, 0.011511,1,-0.003727, 0.002662,-0.000493,1,-0.094933,-0.940260, 9.761008,1,0
1778777324989,  2018.830,  2018.825, 0.009821, 0.091223,-0.992273, 0.000100, 0.000916,-0.009906, 0.031124, 0.018353, 0.152525,1, 0.001629, 0.002313, 0.000529,1,-0.095571,-0.940814, 9.760949,1,0
1778777325016,  2018.855,  2018.855, 0.005500, 0.096019,-0.995483, 0.000066, 0.000945,-0.009983,-0.041207, 0.001584,-0.001322,1,-0.003251, 0.001401,-0.001788,1,-0.095178,-0.940140, 9.761018,1,0
1778777325037,  2018.880,  2018.875, 0.011419, 0.092268,-0.997029, 0.000108, 0.000925,-0.009953,-0.013923, 0.018676, 0.075620,1, 0.000789,-0.001926, 0.000519,1,-0.095274,-0.940707, 9.760962,1,0
1778777325060,  2018.900,  2018.900, 0.013535, 0.096017,-0.987670, 0.000143, 0.000944,-0.009901, 0.037781, 0.001474, 0.075286,1,-0.002586, 0.001534,-0.001452,1,-0.094993,-0.940216, 9.761012,1,0
1778777325086,  2018.925,  2018.925, 0.005304, 0.095324,-0.987875, 0.000057, 0.000963,-0.009865,-0.043120,-0.005483, 0.073254,1, 0.003399,-0.001151, 0.000301,1,-0.095097,-0.940190, 9.761013,1,0
1778777325108,  2018.950,  2018.945, 0.009973, 0.095578,-0.991390, 0.000094, 0.000937,-0.009936,-0.031876,-0.054352,-0.065624,1, 0.000323,-0.000403, 0.000134,1,-0.094727,-0.939770, 9.761058,1,0
1778777325130,  2018.970,  2018.970, 0.012677, 0.096563,-0.985542, 0.000131, 0.000967,-0.009848, 0.029026, 0.006347, 0.096105,1, 0.002075, 0.000880, 0.000496,1,-0.095317,-0.940546, 9.760977,1,0
1778777325156,  2018.995,  2018.995, 0.013572, 0.091226,-0.998488, 0.000139, 0.000906,-0.010002, 0.037924,-0.045339,-0.030792,1, 0.001857, 0.000199,-0.001013,1,-0.095175,-0.939899, 9.761041,1,0
1778777325178,  2019.020,  2019.015, 0.001446, 0.097287,-0.987489, 0.000011, 0.000979,-0.009852,-0.053092, 0.052314, 0.154537,1,-0.003629, 0.000979, 0.000184,1,-0.095556,-0.940851, 9.760945,1,0
1778777325200,  2019.040,  2019.040, 0.012305, 0.089911,-1.008137, 0.000118, 0.000894,-0.010102, 0.025742,-0.057946,-0.125379,1, 0.000773,-0.001229,-0.000761,1,-0.094884,-0.939644, 9.761068,1,0
1778777325226,  2019.065,  2019.065, 0.015954, 0.100166,-0.982440, 0.000165, 0.001016,-0.009826, 0.061292, 0.041994, 0.126552,1,-0.002061, 0.001496,-0.000197,1,-0.095211,-0.940365, 9.760996,1,0
1778777325248,  2019.090,  2019.085, 0.005309, 0.092746,-0.995260, 0.000051, 0.000919,-0.009961,-0.019300,-0.069588, 0.018945,1, 0.003439,-0.002802, 0.000542,1,-0.095113,-0.939878, 9.761044,1,0
1778777325271,  2019.110,  2019.110, 0.004246, 0.099861,-0.988178, 0.000042, 0.001005,-0.009881,-0.053717, 0.038786, 0.070261,1,-0.001097, 0.001174, 0.000134,1,-0.095395,-0.940546, 9.760976,1,0
1778777325296,  2019.135,  2019.135, 0.013659, 0.091459,-1.006396, 0.000132, 0.000915,-0.010065, 0.038832,-0.042989,-0.108334,1, 0.004708,-0.003070,-0.000201,1,-0.095022,-0.939752, 9.761056,1,0
1778777325318,  2019.160,  2019.155, 0.009651, 0.100275,-0.971786, 0.000109, 0.001001,-0.009714, 0.065638, 0.033468, 0.161475,1,-0.005553, 0.002874,-0.000684,1,-0.095151,-0.940374, 9.760995,1,0
1778777325341,  2019.180,  2019.180, 0.000956, 0.089164,-1.004274, 0.000009, 0.000888,-0.010024,-0.085752,-0.065286,-0.087506,1, 0.007114,-0.004172, 0.000003,1,-0.094999,-0.939470, 9.761084,1,0
1778777325366,  2019.205,  2019.205, 0.012135, 0.098646,-0.995910, 0.000113, 0.000976,-0.009984, 0.023853, 0.027601,-0.005487,1,-0.005652, 0.002520,-0.000653,1,-0.095223,-0.939958, 9.761035,1,0
1778777325388,  2019.230,  2019.225, 0.014945, 0.090514,-0.989238, 0.000151, 0.000903,-0.009885, 0.054683,-0.004038, 0.111477,1, 0.000437,-0.000694, 0.000616,1,-0.095380,-0.940633, 9.760968,1,0
1778777325411,  2019.255,  2019.250, 0.005862, 0.098721,-0.980959, 0.000072, 0.000974,-0.009824,-0.037904, 0.027743, 0.141073,1,-0.003104, 0.002181,-0.000964,1,-0.095458,-0.940479, 9.760983,1,0
1778777325436,  2019.275,  2019.275, 0.002797, 0.093939,-1.001122, 0.000030, 0.000954,-0.009989,-0.068002,-0.018881,-0.056633,1, 0.006723,-0.003603,-0.000130,1,-0.095316,-0.939904, 9.761039,1,0
1778777325458,  2019.300,  2019.295, 0.015201, 0.098481,-0.981072, 0.000161, 0.000970,-0.009842, 0.047683,-0.039367,-0.088283,1,-0.001945, 0.000375,-0.000920,1,-0.094703,-0.939688, 9.761065,1,0
1778777325481,  2019.325,  2019.320, 0.009722, 0.093381,-0.982306, 0.000103, 0.000948,-0.009800, 0.000210,-0.024890, 0.127832,1, 0.005027,-0.000831, 0.000153,1,-0.095106,-0.940489, 9.760984,1,0
1778777325507,  2019.345,  2019.345, 0.006509, 0.090957,-1.003363, 0.000063, 0.000910,-0.010043,-0.031079,-0.047770,-0.078572,1, 0.001542, 0.001671,-0.000814,1,-0.094962,-0.939705, 9.761062,1,0
1778777325528,  2019.370,  2019.365, 0.009393, 0.095051,-0.995291, 0.000084, 0.000962,-0.009946,-0.025725, 0.053782, 0.036819,1,-0.000795,-0.000028,-0.000002,1,-0.095297,-0.940473, 9.760984,1,0
1778777325551,  2019.395,  2019.390, 0.015088, 0.091395,-0.990999, 0.000151, 0.000910,-0.009938, 0.053236,-0.043856, 0.042641,1,-0.001853, 0.002172,-0.000318,1,-0.094789,-0.940193, 9.761016,1,0
1778777325577,  2019.410,  2019.415, 0.008839, 0.099034,-0.978394, 0.000099, 0.000996,-0.009772,-0.008703, 0.030405, 0.166181,1, 0.000726, 0.002114,-0.000682,1,-0.095444,-0.940760, 9.760955,1,0
1778777325598,  2019.440,  2019.435, 0.007524, 0.094057,-1.001346, 0.000074, 0.000924,-0.010048,-0.026713,-0.051998,-0.142280,1, 0.004288,-0.002627,-0.000231,1,-0.095058,-0.939595, 9.761071,1,0
1778777325621,  2019.465,  2019.460, 0.009415, 0.099211,-0.980581, 0.000099, 0.001000,-0.009801,-0.002921, 0.031821, 0.144710,1,-0.002134, 0.000085,-0.000310,1,-0.095254,-0.941174, 9.760917,1,0
1778777325647,  2019.485,  2019.485, 0.012413, 0.089381,-0.998941, 0.000124, 0.000895,-0.009982, 0.026932,-0.063988,-0.035277,1, 0.004738,-0.002586, 0.000254,1,-0.094714,-0.940366, 9.761001,1,0
1778777325668,  2019.510,  2019.505, 0.006076, 0.097507,-0.985815, 0.000067, 0.000977,-0.009857, 0.013603, 0.037899, 0.087560,1,-0.001990, 0.003593,-0.000604,1,-0.095132,-0.940530, 9.760981,1,0
1778777325691,  2019.535,  2019.530, 0.008659, 0.089941,-1.003488, 0.000084, 0.000897,-0.010040,-0.010001,-0.058040,-0.079824,1, 0.000023,-0.001900,-0.000111,1,-0.094861,-0.940055, 9.761028,1,0
1778777325717,  2019.555,  2019.555, 0.011435, 0.099859,-0.981541, 0.000115, 0.001000,-0.009820, 0.016855, 0.038329, 0.135310,1,-0.005693, 0.004029,-0.001079,1,-0.095407,-0.941133, 9.760920,1,0
1778777325738,  2019.580,  2019.575, 0.009982, 0.091462,-1.004726, 0.000099, 0.000905,-0.010053,-0.001943,-0.023610,-0.019035,1, 0.007119,-0.002852, 0.000555,1,-0.095320,-0.940455, 9.760985,1,0
1778777325765,  2019.605,  2019.605, 0.011074, 0.099804,-0.983142, 0.000118, 0.001000,-0.009844, 0.013226, 0.038106, 0.119637,1,-0.004242, 0.002253,-0.000223,1,-0.095445,-0.940770, 9.760954,1,0
1778777325787,  2019.625,  2019.625, 0.007696, 0.092261,-0.994685, 0.000076, 0.000936,-0.009922,-0.019969,-0.035803, 0.006449,1, 0.005363,-0.002749, 0.000703,1,-0.095356,-0.940412, 9.760989,1,0
1778777325808,  2019.650,  2019.645, 0.009584, 0.100296,-0.984741, 0.000099, 0.001003,-0.009858, 0.011343,-0.004535,-0.009575,1,-0.002182, 0.001617,-0.000564,1,-0.095198,-0.940243, 9.761007,1,0
1778777325836,  2019.675,  2019.675, 0.010052, 0.090672,-0.995762, 0.000101, 0.000918,-0.009948, 0.003288,-0.051160,-0.004094,1, 0.005129,-0.002696, 0.000288,1,-0.095203,-0.940191, 9.761012,1,0
1778777325857,  2019.700,  2019.695, 0.007403, 0.100374,-0.980822, 0.000081, 0.001004,-0.009816, 0.016998,-0.015995, 0.047181,1,-0.003171, 0.002110,-0.000787,1,-0.095231,-0.940270, 9.761004,1,0
1778777325879,  2019.720,  2019.715, 0.004843, 0.092327,-0.998102, 0.000053, 0.000928,-0.009970,-0.039729, 0.038705, 0.089674,1, 0.001729,-0.000136, 0.000078,1,-0.095518,-0.940612, 9.760969,1,0
1778777325906,  2019.745,  2019.745, 0.012700, 0.094170,-0.993480, 0.000123, 0.000929,-0.009963, 0.029367,-0.016834, 0.018290,1,-0.002959, 0.003268,-0.000863,1,-0.095279,-0.940417, 9.760990,1,0
1778777325927,  2019.770,  2019.765, 0.010835, 0.091977,-0.992954, 0.000108, 0.000924,-0.009908, 0.025451, 0.022777, 0.120994,1, 0.002194, 0.000640,-0.000378,1,-0.095684,-0.940765, 9.760952,1,0
1778777325949,  2019.790,  2019.785, 0.009061, 0.095777,-0.991545, 0.000095, 0.000942,-0.009939, 0.010010,-0.048538,-0.056461,1, 0.002357,-0.001111,-0.000422,1,-0.095480,-0.939967, 9.761031,1,0
1778777325976,  2019.815,  2019.815, 0.004912, 0.097424,-0.987631, 0.000049, 0.000992,-0.009857,-0.047718, 0.014573, 0.075596,1, 0.002520,-0.001165, 0.000509,1,-0.095858,-0.940751, 9.760952,1,0
1778777325997,  2019.840,  2019.835, 0.014896, 0.096627,-0.990640, 0.000152, 0.000944,-0.009942, 0.033554,-0.058342,-0.122431,1, 0.002394,-0.001025,-0.000671,1,-0.095347,-0.939941, 9.761035,1,0
1778777326019,  2019.860,  2019.855, 0.009852, 0.097086,-0.982026, 0.000107, 0.000978,-0.009814, 0.044753, 0.056757, 0.147413,1,-0.003187, 0.002283,-0.000569,1,-0.095705,-0.940562, 9.760972,1,0
1778777326046,  2019.885,  2019.885, 0.005732, 0.090486,-1.002289, 0.000056, 0.000902,-0.010027,-0.039241,-0.052350,-0.068044,1, 0.001807,-0.001560,-0.000351,1,-0.095408,-0.939661, 9.761062,1,1
1778777326067,  2019.910,  2019.905, 0.008787, 0.097923,-0.989374, 0.000086, 0.000984,-0.009881,-0.011378, 0.037321, 0.096660,1,-0.003804, 0.002039,-0.000167,1,-0.095834,-0.940572, 9.760969,1,1
1778777326089,  2019.930,  2019.925, 0.013754, 0.091191,-1.002503, 0.000137, 0.000910,-0.010041, 0.024560,-0.031270,-0.057121,1, 0.003841,-0.003886, 0.000611,1,-0.095534,-0.940029, 9.761024,1,1
1778777326116,  2019.955,  2019.955, 0.011838, 0.098275,-0.976757, 0.000125, 0.000992,-0.009768, 0.020188, 0.023120, 0.182245,1,-0.002191, 0.003369,-0.000671,1,-0.096004,-0.940692, 9.760956,1,1
1778777326137,  2019.980,  2019.975, 0.006242, 0.090972,-1.005954, 0.000058, 0.000902,-0.010072,-0.045037,-0.034023,-0.035986,1, 0.006230,-0.002031, 0.000568,1,-0.095824,-0.939824, 9.761042,1,1
1778777326159,  2020.000,  2019.995, 0.012165, 0.099692,-0.983666, 0.000124, 0.000999,-0.009849, 0.016435, 0.013854, 0.006242,1,-0.004387, 0.001955, 0.000024,1,-0.095744,-0.940002, 9.761025,1,1
1778777326186,  2020.025,  2020.025, 0.012728, 0.091459,-0.993996, 0.000127, 0.000924,-0.009924, 0.028978,-0.043181, 0.013246,1, 0.004696,-0.001563, 0.000209,1,-0.095793,-0.939940, 9.761031,1,1
1778777326207,  2020.050,  2020.045, 0.006267, 0.099511,-0.983150, 0.000068, 0.000994,-0.009827, 0.012884, 0.001280, 0.070332,1,-0.002878, 0.001251,-0.001690,1,-0.095738,-0.939874, 9.761038,1,1
1778777326229,  2020.070,  2020.065, 0.004802, 0.091194,-1.005146, 0.000044, 0.000921,-0.010037,-0.049671, 0.026833, 0.035966,1, 0.002490,-0.001433, 0.000356,1,-0.095917,-0.939854, 9.761038,1,1
1778777326256,  2020.095,  2020.095, 0.014769, 0.093776,-0.991014, 0.000145, 0.000930,-0.009939, 0.049600,-0.020133, 0.042522,1,-0.004704, 0.001610,-0.000914,1,-0.095281,-0.939911, 9.761039,1,1
1778777326278,  2020.120,  2020.115, 0.009432, 0.091490,-0.994581, 0.000099, 0.000917,-0.009928, 0.029764, 0.019473, 0.141847,1, 0.003702, 0.001487, 0.000341,1,-0.095765,-0.940282, 9.760998,1,1
1778777326300,  2020.140,  2020.140, 0.008348, 0.095962,-0.992884, 0.000087, 0.000942,-0.009956,-0.013711, 0.001508, 0.024205,1,-0.003201, 0.002176,-0.000730,1,-0.095641,-0.939655, 9.761060,1,1
1778777326326,  2020.165,  2020.165, 0.005506, 0.098335,-0.990640, 0.000057, 0.000997,-0.009895,-0.041684, 0.024328, 0.046170,1, 0.001201,-0.002049, 0.000408,1,-0.095612,-0.939966, 9.761030,1,1
1778777326348,  2020.190,  2020.185, 0.015691, 0.095203,-0.986855, 0.000165, 0.000933,-0.009899, 0.043020,-0.049073,-0.068647,1, 0.000586, 0.000032,-0.000369,1,-0.095193,-0.939576, 9.761071,1,1
1778777326370,  2020.210,  2020.210, 0.008392, 0.096214,-0.983305, 0.000088, 0.000979,-0.009814,-0.013575, 0.003526, 0.118090,1, 0.004117,-0.000016, 0.000842,1,-0.095874,-0.939885, 9.761035,1,1
1778777326396,  2020.235,  2020.235, 0.006613, 0.089647,-1.005514, 0.000058, 0.000899,-0.010062,-0.030554,-0.060093,-0.099622,1, 0.000800,-0.000703,-0.000514,1,-0.095380,-0.939201, 9.761106,1,1
1778777326418,  2020.260,  2020.255, 0.008899, 0.097941,-0.986131, 0.000092, 0.000986,-0.009853, 0.005393, 0.054603, 0.114727,1,-0.004476, 0.001592,-0.000632,1,-0.095690,-0.940114, 9.761015,1,1
1778777326441,  2020.280,  2020.280, 0.012809, 0.089625,-1.000521, 0.000128, 0.000896,-0.010019, 0.030452,-0.060800,-0.050700,1, 0.000548,-0.000793, 0.000112,1,-0.095131,-0.939707, 9.761060,1,1
1778777326466,  2020.305,  2020.305, 0.009832, 0.099330,-0.979501, 0.000104, 0.000997,-0.009795, 0.000875, 0.033865, 0.155377,1,-0.001728, 0.001746,-0.000557,1,-0.095593,-0.940286, 9.761000,1,1
1778777326488,  2020.330,  2020.325, 0.008156, 0.089682,-1.006281, 0.000077, 0.000893,-0.010080,-0.031099,-0.032243,-0.073397,1, 0.005028,-0.004473, 0.000688,1,-0.095104,-0.939537, 9.761076,1,1
1778777326511,  2020.350,  2020.350, 0.011721, 0.098735,-0.982138, 0.000118, 0.000993,-0.009821, 0.019535, 0.028103, 0.129526,1,-0.003273, 0.002356,-0.000018,1,-0.095479,-0.940255, 9.761003,1,1
1778777326536,  2020.375,  2020.375, 0.011954, 0.091404,-0.998507, 0.000113, 0.000930,-0.009960, 0.021962,-0.043514,-0.030969,1, 0.004043,-0.003076,-0.000294,1,-0.095174,-0.939760, 9.761054,1,1
1778777326558,  2020.400,  2020.395, 0.006370, 0.100403,-0.982049, 0.000068, 0.001004,-0.009820, 0.012816, 0.014307, 0.070124,1,-0.003542, 0.002422,-0.000390,1,-0.095317,-0.940034, 9.761026,1,1
1778777326581,  2020.420,  2020.420, 0.006880, 0.091078,-1.004137, 0.000064, 0.000921,-0.010027,-0.027623,-0.046490,-0.086160,1, 0.004411,-0.003527,-0.000527,1,-0.094982,-0.939518, 9.761079,1,1
1778777326606,  2020.445,  2020.445, 0.013097, 0.096007,-0.987162, 0.000136, 0.000948,-0.009899, 0.033508, 0.001798, 0.080307,1,-0.004999, 0.001671,-0.000546,1,-0.094976,-0.939868, 9.761045,1,1
1778777326628,  2020.470,  2020.465, 0.008319, 0.090917,-0.998095, 0.000087, 0.000913,-0.009964, 0.010324, 0.022339, 0.101873,1, 0.002311,-0.001177, 0.000001,1,-0.095153,-0.939990, 9.761032,1,1
1778777326651,  2020.495,  2020.490, 0.007961, 0.095091,-0.990843, 0.000082, 0.000936,-0.009927,-0.016959,-0.007199, 0.044204,1,-0.003113, 0.002251,-0.000669,1,-0.095102,-0.939818, 9.761049,1,1
1778777326677,  2020.515,  2020.515, 0.009106, 0.098566,-0.990982, 0.000087, 0.001000,-0.009890,-0.005968, 0.026575, 0.042809,1, 0.002321,-0.000862, 0.000517,1,-0.095243,-0.939953, 9.761035,1,1
1778777326698,  2020.540,  2020.535, 0.012665, 0.095021,-0.986159, 0.000127, 0.000933,-0.009883, 0.014558,-0.046588,-0.029179,1,-0.001426, 0.000212, 0.000556,1,-0.094844,-0.939771, 9.761056,1,1
1778777326721,  2020.565,  2020.560, 0.008550, 0.096634,-0.987906, 0.000090, 0.000979,-0.009865,-0.011720, 0.007644, 0.072975,1, 0.004154, 0.001688,-0.000336,1,-0.095616,-0.939884, 9.761038,1,1
1778777326747,  2020.585,  2020.585, 0.011468, 0.091453,-1.000789, 0.000114, 0.000918,-0.010025, 0.016995,-0.042635,-0.053307,1, 0.000029, 0.000610,-0.001242,1,-0.095479,-0.939484, 9.761078,1,1
1778777326768,  2020.610,  2020.605, 0.005606, 0.096145,-0.988458, 0.000062, 0.000972,-0.009869,-0.017977, 0.062021, 0.134874,1,-0.002793, 0.000670, 0.000518,1,-0.095628,-0.940311, 9.760997,1,1
1778777326791,  2020.635,  2020.630, 0.013170, 0.089856,-1.003382, 0.000128, 0.000899,-0.010051, 0.034124,-0.058209,-0.078723,1, 0.001844,-0.000548,-0.001273,1,-0.095012,-0.939339, 9.761096,1,1
1778777326817,  2020.655,  2020.655, 0.011040, 0.100337,-0.983136, 0.000114, 0.001013,-0.009822, 0.012974, 0.044185, 0.119775,1,-0.000640, 0.000329,-0.000900,1,-0.095300,-0.939807, 9.761048,1,1
1778777326838,  2020.680,  2020.675, 0.008648, 0.090066,-0.999556, 0.000077, 0.000897,-0.010016,-0.025448,-0.037635,-0.045496,1, 0.002286,-0.003214, 0.001039,1,-0.094782,-0.939297, 9.761103,1,1
1778777326861,  2020.705,  2020.700, 0.010262, 0.100230,-0.983075, 0.000101, 0.001009,-0.009822, 0.005605, 0.042934, 0.120357,1,-0.000390, 0.002321,-0.000508,1,-0.095103,-0.939998, 9.761032,1,1
1778777326887,  2020.725,  2020.725, 0.009381, 0.092395,-1.003053, 0.000099, 0.000937,-0.010016,-0.002733,-0.033194,-0.075486,1, 0.004196,-0.003829,-0.000154,1,-0.094613,-0.939147, 9.761119,1,1
1778777326908,  2020.750,  2020.745, 0.011181, 0.099075,-0.978280, 0.000119, 0.000985,-0.009786, 0.034597, 0.012005, 0.120053,1,-0.003686, 0.003335, 0.000529,1,-0.094941,-0.939417, 9.761089,1,1
1778777326931,  2020.775,  2020.770, 0.007050, 0.091212,-1.002301, 0.000067, 0.000922,-0.010002,-0.025703,-0.044431,-0.068075,1, 0.003513,-0.003633,-0.000727,1,-0.094729,-0.938810, 9.761150,1,1
1778777326957,  2020.795,  2020.795, 0.009559, 0.097814,-0.990628, 0.000095, 0.000970,-0.009917,-0.001055, 0.020175, 0.046380,1,-0.004763, 0.001337,-0.000192,1,-0.094835,-0.939197, 9.761111,1,1
1778777326979,  2020.820,  2020.815, 0.010710, 0.089754,-1.001128, 0.000105, 0.000906,-0.010000,-0.008574, 0.025819, 0.056957,1, 0.002054,-0.001488, 0.000879,1,-0.094996,-0.939314, 9.761099,1,1
1778777327006,  2020.845,  2020.845, 0.011989, 0.096703,-0.986725, 0.000127, 0.000951,-0.009880, 0.022638, 0.009327, 0.084658,1,-0.003386, 0.001479,-0.001141,1,-0.094976,-0.939107, 9.761119,1,1
1778777327027,  2020.865,  2020.865, 0.005947, 0.097292,-0.990922, 0.000062, 0.000985,-0.009890,-0.036700, 0.015094, 0.043504,1, 0.003802,-0.002474, 0.000527,1,-0.094947,-0.938897, 9.761139,1,1
1778777327049,  2020.890,  2020.885, 0.011011, 0.096037,-0.985844, 0.000119, 0.000945,-0.009888, 0.017884,-0.046725,-0.051607,1,-0.002109,-0.000051,-0.000362,1,-0.094484,-0.938752, 9.761158,1,1
1778777327076,  2020.915,  2020.915, 0.009429, 0.096414,-0.989313, 0.000097, 0.000978,-0.009873,-0.002119, 0.006157, 0.059248,1, 0.003898,-0.001757, 0.000058,1,-0.094533,-0.939223, 9.761112,1,1
1778777327097,  2020.940,  2020.935, 0.011189, 0.097860,-0.983594, 0.000118, 0.000959,-0.009859, 0.021462,-0.051519,-0.048345,1,-0.001347, 0.002383,-0.000965,1,-0.094360,-0.938877, 9.761147,1,1
1778777327119,  2020.960,  2020.955, 0.007192, 0.095095,-0.991552, 0.000071, 0.000968,-0.009898,-0.003822, 0.054939, 0.141867,1,-0.000574, 0.002315, 0.000457,1,-0.095012,-0.939485, 9.761083,1,1
1778777327146,  2020.985,  2020.985, 0.010400, 0.090777,-1.000235, 0.000101, 0.000910,-0.010023, 0.007283,-0.048680,-0.047811,1,-0.000588,-0.000032,-0.000221,1,-0.094709,-0.938918, 9.761140,1,1
1778777327167,  2021.010,  2021.005, 0.009371, 0.095882,-0.988287, 0.000097, 0.000961,-0.009874, 0.019802, 0.057360, 0.136718,1,-0.001943, 0.001378, 0.000326,1,-0.095077,-0.939702, 9.761061,1,1
1778777327189,  2021.030,  2021.025, 0.010610, 0.090175,-0.999193, 0.000105, 0.000894,-0.010019,-0.004220,-0.037716,-0.043331,1, 0.002832,-0.001570, 0.000407,1,-0.094771,-0.938934, 9.761138,1,1
1778777327216,  2021.055,  2021.055, 0.007939, 0.099993,-0.983919, 0.000083, 0.001008,-0.009829,-0.017216, 0.041050, 0.112125,1,-0.001060, 0.000875, 0.000233,1,-0.095100,-0.939583, 9.761072,1,1
1778777327237,  2021.080,  2021.075, 0.011639, 0.090386,-0.999262, 0.000114, 0.000898,-0.010015,-0.003992,-0.035717,-0.072799,1, 0.002854,-0.001884, 0.000516,1,-0.094775,-0.938980, 9.761133,1,1
1778777327259,  2021.100,  2021.095, 0.010259, 0.098475,-0.982429, 0.000110, 0.000992,-0.009819, 0.024802, 0.031679, 0.104371,1,-0.004303, 0.002585, 0.000651,1,-0.094917,-0.939450, 9.761086,1,1
1778777327286,  2021.125,  2021.125, 0.008291, 0.091125,-1.003412, 0.000082, 0.000921,-0.010021,-0.013404,-0.045457,-0.078983,1, 0.001758,-0.002170, 0.000057,1,-0.094646,-0.939034, 9.761129,1,1
1778777327307,  2021.150,  2021.145, 0.008946, 0.098983,-0.983014, 0.000095, 0.000987,-0.009833, 0.017963, 0.020543, 0.093064,1,-0.005884, 0.002759,-0.000165,1,-0.095009,-0.939701, 9.761062,1,1
1778777327329,  2021.170,  2021.165, 0.008393, 0.091597,-1.000813, 0.000085, 0.000921,-0.010005,-0.024910, 0.025644, 0.056005,1, 0.001701,-0.001094, 0.000534,1,-0.095160,-0.939852, 9.761045,1,1
1778777327356,  2021.195,  2021.195, 0.011112, 0.098029,-0.984251, 0.000116, 0.000969,-0.009859, 0.013810, 0.021404, 0.108829,1,-0.004023, 0.002674,-0.000291,1,-0.095247,-0.940054, 9.761025,1,1
1778777327378,  2021.220,  2021.215, 0.008412, 0.089957,-1.004697, 0.000083, 0.000900,-0.010041,-0.027305, 0.010596, 0.035206,1, 0.003915,-0.001400, 0.000812,1,-0.095395,-0.939833, 9.761045,1,1
1778777327399,  2021.240,  2021.235, 0.011102, 0.098524,-0.985382, 0.000114, 0.000979,-0.009873, 0.028207,-0.043678,-0.033404,1,-0.001361, 0.000424, 0.000429,1,-0.095193,-0.939535, 9.761076,1,1
1778777327426,  2021.265,  2021.265, 0.008040, 0.095637,-0.989225, 0.000079, 0.000974,-0.009869,-0.016452,-0.002149, 0.060044,1, 0.003487,-0.002378, 0.000472,1,-0.095225,-0.939914, 9.761039,1,1
1778777327448,  2021.290,  2021.285, 0.011420, 0.097415,-0.984941, 0.000120, 0.000959,-0.009869, 0.026784,-0.049579,-0.024805,1,-0.000938, 0.001564,-0.000270,1,-0.094956,-0.939670, 9.761065,1,1
1778777327469,  2021.310,  2021.305, 0.008902, 0.095976,-0.993005, 0.000087, 0.000976,-0.009913, 0.002409, 0.055717, 0.122181,1,-0.000210, 0.001127, 0.000448,1,-0.095320,-0.940059, 9.761024,1,1
1778777327496,  2021.335,  2021.335, 0.011126, 0.091225,-0.996331, 0.000108, 0.000914,-0.009982, 0.014323,-0.044936,-0.009592,1,-0.002075, 0.000648,-0.000423,1,-0.094805,-0.939612, 9.761072,1,1
1778777327518,  2021.360,  2021.355, 0.006898, 0.095522,-0.993898, 0.000071, 0.000966,-0.009920, 0.006532, 0.052210, 0.124576,1, 0.000430, 0.000809, 0.000141,1,-0.095277,-0.940149, 9.761016,1,1
1778777327541,  2021.380,  2021.380, 0.011931, 0.090352,-1.001088, 0.000110, 0.000904,-0.010030, 0.022253,-0.053171,-0.056209,1,-0.000373, 0.000786,-0.000558,1,-0.094775,-0.939230, 9.761109,1,1
1778777327566,  2021.405,  2021.405, 0.012423, 0.101062,-0.982643, 0.000125, 0.001019,-0.009819, 0.026591, 0.051215, 0.124611,1,-0.000743, 0.002837,-0.000231,1,-0.095325,-0.939883, 9.761041,1,1
1778777327588,  2021.430,  2021.425, 0.009046, 0.089465,-0.999703, 0.000084, 0.000892,-0.010016,-0.026019,-0.040730,-0.042162,1, 0.003912,-0.002573,-0.000468,1,-0.094946,-0.939206, 9.761109,1,1
1778777327611,  2021.450,  2021.450, 0.010952, 0.099983,-0.983647, 0.000113, 0.001006,-0.009835, 0.012184, 0.040674, 0.114764,1,-0.001101, 0.001167, 0.000022,1,-0.095255,-0.939856, 9.761045,1,1
1778777327636,  2021.475,  2021.475, 0.010842, 0.090733,-1.000581, 0.000112, 0.000919,-0.009999, 0.011455,-0.049716,-0.051266,1, 0.002066,-0.003338, 0.000353,1,-0.094770,-0.939438, 9.761089,1,1
1778777327658,  2021.500,  2021.495, 0.006215, 0.100020,-0.982209, 0.000069, 0.001004,-0.009812, 0.001869, 0.028134, 0.134739,1,-0.003936, 0.001641,-0.000338,1,-0.094982,-0.939907, 9.761042,1,1
1778777327681,  2021.520,  2021.520, 0.005106, 0.090667,-1.005368, 0.000053, 0.000921,-0.010045,-0.044558,-0.050252,-0.098196,1, 0.003514,-0.002412, 0.000378,1,-0.094554,-0.939281, 9.761106,1,1
1778777327706,  2021.545,  2021.545, 0.017030, 0.095193,-0.988626, 0.000167, 0.000947,-0.009897, 0.072272,-0.006001, 0.065969,1,-0.003167, 0.001897,-0.000407,1,-0.094790,-0.939625, 9.761071,1,1
1778777327728,  2021.570,  2021.565, 0.008056, 0.090328,-0.997305, 0.000080, 0.000915,-0.009957,-0.000788, 0.031007, 0.120396,1, 0.002008, 0.000346,-0.000012,1,-0.095019,-0.939662, 9.761065,1,1
1778777327751,  2021.590,  2021.590, 0.007765, 0.098563,-0.989901, 0.000084, 0.000973,-0.009918,-0.018875, 0.026860, 0.053443,1,-0.006220, 0.002072,-0.000476,1,-0.095083,-0.939908, 9.761041,1,1
1778777327777,  2021.615,  2021.615, 0.005386, 0.098731,-0.992824, 0.000052, 0.001001,-0.009909,-0.042321, 0.028048, 0.024734,1, 0.002930,-0.002439, 0.001174,1,-0.095065,-0.940079, 9.761024,1,1
1778777327798,  2021.640,  2021.635, 0.018258, 0.096592,-0.982873, 0.000193, 0.000952,-0.009856, 0.056563,-0.059788,-0.051080,1,-0.000834, 0.000870,-0.000259,1,-0.094689,-0.939580, 9.761076,1,1
1778777327821,  2021.660,  2021.660, 0.008090, 0.097112,-0.982406, 0.000088, 0.000985,-0.009798,-0.015880, 0.012345, 0.126917,1, 0.003843,-0.001228, 0.000207,1,-0.095182,-0.939883, 9.761043,1,1
1778777327847,  2021.685,  2021.685, 0.004496, 0.088399,-1.005947, 0.000034, 0.000892,-0.010058,-0.050769,-0.072452,-0.103877,1, 0.000585,-0.002062, 0.000490,1,-0.094811,-0.939334, 9.761099,1,1
1778777327868,  2021.710,  2021.705, 0.011792, 0.099705,-0.990196, 0.000119, 0.001006,-0.009894, 0.016242, 0.061601, 0.085998,1,-0.002720, 0.000638, 0.000089,1,-0.095001,-0.940028, 9.761030,1,1
1778777327891,  2021.735,  2021.730, 0.013657, 0.089671,-0.999608, 0.000137, 0.000899,-0.010014, 0.039264,-0.060164,-0.041723,1,-0.001136, 0.000479,-0.000573,1,-0.094683,-0.939570, 9.761077,1,1
1778777327917,  2021.755,  2021.755, 0.007860, 0.101336,-0.978036, 0.000089, 0.001011,-0.009778,-0.018178, 0.053509, 0.169750,1,-0.002807, 0.002817,-0.000063,1,-0.095344,-0.940348, 9.760996,1,1
1778777327938,  2021.780,  2021.775, 0.009989, 0.087023,-1.009730, 0.000088, 0.000880,-0.010112,-0.056799,-0.012789,-0.069609,1, 0.004561,-0.002197, 0.000366,1,-0.095178,-0.939687, 9.761061,1,1
1778777327961,  2021.805,  2021.800, 0.017815, 0.101084,-0.980588, 0.000177, 0.001017,-0.009810, 0.079563, 0.050982, 0.144716,1,-0.005342, 0.002443,-0.000104,1,-0.095220,-0.940475, 9.760984,1,1
1778777327987,  2021.825,  2021.825, 0.010189, 0.092745,-0.993086, 0.000100, 0.000947,-0.009896, 0.004858,-0.030693, 0.022167,1, 0.004330,-0.002891,-0.000089,1,-0.094971,-0.940079, 9.761025,1,1
1778777328008,  2021.850,  2021.845, 0.005790, 0.101788,-0.984828, 0.000062, 0.001021,-0.009848,-0.024054,-0.012396, 0.018757,1,-0.004079, 0.002092,-0.000197,1,-0.094929,-0.939972, 9.761036,1,1
1778777328031,  2021.875,  2021.870, 0.008090, 0.093806,-1.001618, 0.000075, 0.000955,-0.009997,-0.015370,-0.020532,-0.061529,1, 0.001922,-0.003878,-0.000026,1,-0.094590,-0.940398, 9.760999,1,1
1778777328057,  2021.895,  2021.895, 0.016104, 0.092969,-0.986715, 0.000163, 0.000916,-0.009895, 0.063791,-0.028759, 0.084630,1,-0.003824, 0.001673,-0.000617,1,-0.094189,-0.940596, 9.760983,1,1
1778777328078,  2021.920,  2021.915, 0.004110, 0.092243,-0.997461, 0.000049, 0.000942,-0.009945,-0.017176, 0.055754, 0.161584,1, 0.001795, 0.000469,-0.000032,1,-0.094582,-0.940806, 9.760959,1,1
1778777328101,  2021.945,  2021.940, 0.010914, 0.091457,-1.001705, 0.000102, 0.000903,-0.010038, 0.012808,-0.043105,-0.062333,1,-0.002354, 0.001589, 0.000145,1,-0.094275,-0.940061, 9.761034,1,1
1778777328127,  2021.965,  2021.965, 0.012285, 0.102526,-0.982621, 0.000120, 0.001031,-0.009814, 0.025867, 0.064517, 0.124724,1,-0.002188, 0.000495, 0.000049,1,-0.094626,-0.940989, 9.760942,1,1
1778777328149,  2021.990,  2021.985, 0.011272, 0.090828,-0.992194, 0.000115, 0.000898,-0.009944, 0.014727,-0.061551,-0.018786,1, 0.003134,-0.002148, 0.000853,1,-0.094106,-0.940469, 9.760996,1,1
1778777328171,  2022.015,  2022.010, 0.003977, 0.102116,-0.987513, 0.000043, 0.001030,-0.009854,-0.055553, 0.060511, 0.076760,1, 0.000976, 0.000163, 0.000023,1,-0.094560,-0.940876, 9.760953,1,1
1778777328197,  2022.035,  2022.035, 0.009349, 0.090722,-1.011069, 0.000087, 0.000908,-0.010117,-0.002421,-0.050474,-0.154171,1, 0.002041,-0.002268, 0.000448,1,-0.094032,-0.940094, 9.761033,1,1
1778777328219,  2022.060,  2022.055, 0.010478, 0.100726,-0.976089, 0.000115, 0.001015,-0.009748, 0.042300, 0.055629, 0.176988,1,-0.007076, 0.002527,-0.000235,1,-0.094432,-0.940968, 9.760945,1,1
1778777328246,  2022.085,  2022.085, 0.008083, 0.088694,-1.004073, 0.000078, 0.000893,-0.010024,-0.015153,-0.070729,-0.085602,1, 0.004979,-0.002882, 0.000034,1,-0.094349,-0.940364, 9.761004,1,1
1778777328267,  2022.105,  2022.105, 0.011024, 0.101553,-0.988283, 0.000105, 0.001006,-0.009886, 0.013503, 0.055292, 0.069237,1,-0.004653, 0.001568,-0.000059,1,-0.094655,-0.940747, 9.760964,1,1
1778777328289,  2022.130,  2022.125, 0.011825, 0.089463,-1.000978, 0.000115, 0.000903,-0.010011, 0.001252, 0.012019, 0.019826,1, 0.000557,-0.004139, 0.000422,1,-0.094262,-0.940926, 9.760951,1,1
1778777328316,  2022.155,  2022.155, 0.011073, 0.100929,-0.979603, 0.000116, 0.001006,-0.009799, 0.014125, 0.048553, 0.154297,1,-0.003404, 0.004430,-0.000394,1,-0.094597,-0.941328, 9.760909,1,1
1778777328337,  2022.180,  2022.175, 0.007450, 0.088857,-1.009643, 0.000077, 0.000887,-0.010097,-0.045590, 0.005354,-0.000127,1, 0.004756,-0.002341, 0.000648,1,-0.094520,-0.940761, 9.760964,1,1
1778777328359,  2022.200,  2022.195, 0.013960, 0.100121,-0.983474, 0.000145, 0.000994,-0.009851, 0.029268,-0.037076,-0.032810,1,-0.001939, 0.000677, 0.001057,1,-0.094276,-0.940196, 9.761021,1,1
1778777328386,  2022.225,  2022.225, 0.008478, 0.094670,-0.988825, 0.000086, 0.000967,-0.009855,-0.011550,-0.012476, 0.063887,1, 0.002755,-0.001868, 0.000597,1,-0.094631,-0.940785, 9.760961,1,1
1778777328407,  2022.250,  2022.245, 0.008400, 0.100308,-0.987980, 0.000088, 0.000994,-0.009897, 0.004515,-0.051675,-0.038175,1,-0.000134, 0.001012,-0.000329,1,-0.094434,-0.940255, 9.761014,1,1
1778777328429,  2022.270,  2022.265, 0.008891, 0.094365,-0.994110, 0.000084, 0.000966,-0.009921,-0.019412, 0.063567, 0.107735,1,-0.001637,-0.000015,-0.000313,1,-0.094655,-0.940865, 9.760953,1,1
1778777328456,  2022.295,  2022.295, 0.011407, 0.089232,-1.001490, 0.000110, 0.000887,-0.010020, 0.047543,-0.048682, 0.018914,1,-0.002222, 0.002600,-0.000658,1,-0.094197,-0.940578, 9.760984,1,1
1778777328477,  2022.320,  2022.315, 0.005829, 0.094480,-0.994846, 0.000062, 0.000959,-0.009928,-0.020310, 0.060198, 0.149217,1,-0.000141, 0.000941,-0.000374,1,-0.094625,-0.941107, 9.760930,1,1
1778777328499,  2022.340,  2022.335, 0.011639, 0.090808,-1.000778, 0.000109, 0.000903,-0.010031,-0.034253,-0.036650,-0.089766,1, 0.002134,-0.002977, 0.001074,1,-0.094093,-0.940352, 9.761007,1,1
1778777328526,  2022.365,  2022.365, 0.011823, 0.101697,-0.981299, 0.000121, 0.001023,-0.009804, 0.021440, 0.056092, 0.137663,1,-0.001957, 0.001018, 0.000054,1,-0.094541,-0.941279, 9.760914,1,1
1778777328548,  2022.390,  2022.385, 0.009711, 0.090708,-0.996930, 0.000095, 0.000901,-0.009984,-0.004395,-0.044562,-0.030739,1, 0.002875,-0.002216, 0.000748,1,-0.094272,-0.940695, 9.760973,1,1
1778777328569,  2022.410,  2022.405, 0.008103, 0.102206,-0.986107, 0.000081, 0.001032,-0.009846,-0.009703, 0.054486, 0.112616,1,-0.004396, 0.003675, 0.000612,1,-0.094637,-0.941055, 9.760935,1,1
1778777328596,  2022.435,  2022.435, 0.010898, 0.090225,-1.005830, 0.000103, 0.000905,-0.010051, 0.012680,-0.055794,-0.102840,1, 0.002943,-0.003682, 0.000571,1,-0.094077,-0.940512, 9.760992,1,1
1778777328618,  2022.460,  2022.455, 0.008442, 0.101219,-0.979514, 0.000095, 0.001019,-0.009789, 0.023611, 0.057507, 0.141023,1,-0.005555, 0.002202, 0.000180,1,-0.094190,-0.941052, 9.760940,1,1
1778777328639,  2022.480,  2022.475, 0.006213, 0.088879,-1.004128, 0.000066, 0.000893,-0.010028,-0.033030,-0.005777, 0.067314,1, 0.002964,-0.001273, 0.001099,1,-0.094214,-0.940806, 9.760962,1,1
1778777328666,  2022.505,  2022.505, 0.010422, 0.101015,-0.986801, 0.000104, 0.001002,-0.009883, 0.007849, 0.049815, 0.083748,1,-0.005781, 0.002167,-0.000218,1,-0.094421,-0.940979, 9.760944,1,1
1778777328688,  2022.530,  2022.525, 0.013408, 0.089731,-1.000128, 0.000130, 0.000904,-0.009996, 0.011111, 0.005682, 0.049505,1, 0.001268,-0.001583, 0.000986,1,-0.094355,-0.941095, 9.760933,1,1
1778777328709,  2022.550,  2022.545, 0.010476, 0.100283,-0.981680, 0.000106, 0.001002,-0.009815, 0.037784,-0.041422, 0.044238,1,-0.000650, 0.001338, 0.000459,1,-0.094346,-0.940903, 9.760952,1,1
1778777328736,  2022.575,  2022.575, 0.004275, 0.095523,-0.996083, 0.000038, 0.000968,-0.009932,-0.052662,-0.004319,-0.007307,1, 0.004113,-0.002864, 0.000475,1,-0.094500,-0.940952, 9.760945,1,1
1778777328758,  2022.600,  2022.595, 0.014620, 0.100101,-0.983985, 0.000150, 0.000992,-0.009857, 0.036289,-0.033096,-0.029936,1,-0.001720, 0.001275, 0.000209,1,-0.094243,-0.940598, 9.760983,1,1
1778777328781,  2022.620,  2022.620, 0.009186, 0.094691,-0.989205, 0.000096, 0.000963,-0.009866,-0.004572,-0.012635, 0.060128,1, 0.003819,-0.001560, 0.000802,1,-0.094613,-0.941117, 9.760929,1,1
1778777328806,  2022.645,  2022.645, 0.009143, 0.092402,-0.996907, 0.000089, 0.000916,-0.009987,-0.004816,-0.034427,-0.015334,1,-0.000237, 0.000705,-0.000704,1,-0.094497,-0.940593, 9.760981,1,1
1778777328828,  2022.670,  2022.665, 0.008705, 0.094095,-0.998120, 0.000084, 0.000958,-0.009960,-0.032833, 0.060854, 0.089603,1,-0.001160,-0.000637, 0.000297,1,-0.094660,-0.941065, 9.760933,1,1
1778777328851,  2022.690,  2022.690, 0.014354, 0.091176,-0.993075, 0.000141, 0.000907,-0.009952, 0.046782,-0.046490, 0.022243,1,-0.002009, 0.001415,-0.000586,1,-0.094028,-0.940684, 9.760976,1,1
1778777328876,  2022.715,  2022.715, 0.009674, 0.100810,-0.980065, 0.000098, 0.001017,-0.009782, 0.000481, 0.047526, 0.149782,1, 0.000255, 0.000953,-0.000354,1,-0.094416,-0.941071, 9.760935,1,1
1778777328898,  2022.740,  2022.735, 0.009708, 0.090667,-0.999827, 0.000092, 0.000898,-0.010017,-0.032616,-0.039669,-0.074796,1, 0.001212,-0.001730, 0.000100,1,-0.094040,-0.940532, 9.760991,1,1
1778777328921,  2022.760,  2022.760, 0.010570, 0.101707,-0.984623, 0.000108, 0.001018,-0.009840, 0.009319, 0.056089, 0.105060,1,-0.001311, 0.000405,-0.000502,1,-0.094349,-0.941356, 9.760908,1,1
1778777328947,  2022.785,  2022.785, 0.012679, 0.091297,-0.998423, 0.000125, 0.000911,-0.009977, 0.030328,-0.045573,-0.030226,1, 0.002378,-0.002093, 0.000665,1,-0.093952,-0.940815, 9.760964,1,1
1778777328968,  2022.810,  2022.805, 0.004433, 0.100576,-0.984458, 0.000055, 0.001014,-0.009827,-0.009819, 0.056866, 0.144669,1,-0.003652, 0.002619, 0.000347,1,-0.094309,-0.941152, 9.760928,1,1
1778777328991,  2022.830,  2022.830, 0.009249, 0.089671,-1.007992, 0.000084, 0.000898,-0.010078,-0.003312,-0.061166,-0.124035,1, 0.002469,-0.001546, 0.000196,1,-0.093963,-0.940459, 9.760999,1,1
1778777329017,  2022.855,  2022.855, 0.012783, 0.102512,-0.981846, 0.000125, 0.001021,-0.009825, 0.031047, 0.064226, 0.132318,1,-0.005721, 0.003126,-0.000505,1,-0.094411,-0.941248, 9.760919,1,1
1778777329038,  2022.880,  2022.875, 0.008488, 0.089212,-1.001804, 0.000082, 0.000896,-0.010011,-0.016232,-0.013080, 0.045686,1, 0.004205,-0.002138, 0.000611,1,-0.094314,-0.940941, 9.760949,1,1
1778777329061,  2022.900,  2022.900, 0.009841, 0.100282,-0.985073, 0.000097, 0.000997,-0.009852, 0.002017, 0.042607, 0.100688,1,-0.002487, 0.003560,-0.000189,1,-0.094603,-0.940899, 9.760950,1,1
1778777329087,  2022.925,  2022.925, 0.010525, 0.094562,-0.995801, 0.000098, 0.000953,-0.009941, 0.008742,-0.013373,-0.004499,1, 0.001755,-0.001848, 0.000756,1,-0.094422,-0.940651, 9.760976,1,1
1778777329108,  2022.950,  2022.945, 0.009982, 0.100867,-0.980892, 0.000109, 0.001009,-0.009811, 0.024956,-0.017949, 0.057380,1,-0.004701, 0.002263, 0.000053,1,-0.094393,-0.940882, 9.760954,1,1
1778777329131,  2022.975,  2022.970, 0.005497, 0.094262,-0.999316, 0.000054, 0.000957,-0.009968,-0.040575,-0.016557,-0.038992,1, 0.005053,-0.004023, 0.000504,1,-0.094355,-0.940790, 9.760962,1,1
1778777329157,  2022.995,  2022.995, 0.013461, 0.094585,-0.999164, 0.000125, 0.000930,-0.010014, 0.037806,-0.012899,-0.037457,1,-0.002185, 0.001389,-0.000262,1,-0.094245,-0.940526, 9.760989,1,1
1778777329178,  2023.020,  2023.015, 0.011316, 0.091879,-0.991106, 0.000110, 0.000939,-0.009883, 0.002347, 0.046634, 0.149251,1,-0.002079, 0.001479, 0.000584,1,-0.094570,-0.941233, 9.760918,1,1
1778777329201,  2023.045,  2023.040, 0.010221, 0.094731,-0.991231, 0.000103, 0.000934,-0.009927, 0.005749,-0.011847, 0.040296,1,-0.002449, 0.001509,-0.000660,1,-0.094532,-0.940921, 9.760948,1,1
1778777329227,  2023.065,  2023.065, 0.006219, 0.102209,-0.988753, 0.000060, 0.001031,-0.009865,-0.033704, 0.061121, 0.064562,1, 0.001722,-0.001358, 0.000387,1,-0.094649,-0.941152, 9.760925,1,1
1778777329248,  2023.090,  2023.085, 0.014774, 0.094282,-0.987895, 0.000146, 0.000932,-0.009905, 0.010824,-0.050934,-0.059703,1,-0.000887,-0.000757, 0.000488,1,-0.094025,-0.940731, 9.760972,1,1
1778777329271,  2023.115,  2023.110, 0.008875, 0.099740,-0.982068, 0.000098, 0.001005,-0.009799,-0.007548, 0.036930, 0.130129,1, 0.001812, 0.000360, 0.000582,1,-0.094593,-0.941130, 9.760928,1,1
1778777329297,  2023.135,  2023.135, 0.006808, 0.090892,-1.001942, 0.000061, 0.000906,-0.010017,-0.027422,-0.049225,-0.064709,1, 0.002464,-0.001506, 0.000783,1,-0.094143,-0.940496, 9.760993,1,1
1778777329319,  2023.160,  2023.155, 0.010498, 0.099811,-0.988462, 0.000105, 0.001012,-0.009870, 0.008217, 0.046961, 0.076303,1,-0.004146, 0.002141,-0.000011,1,-0.094430,-0.941054, 9.760937,1,1
1778777329341,  2023.185,  2023.180, 0.013998, 0.091417,-1.000996, 0.000133, 0.000918,-0.010015, 0.043058,-0.044259,-0.055448,1, 0.000486,-0.000198, 0.000197,1,-0.094210,-0.940743, 9.760969,1,1
1778777329367,  2023.205,  2023.205, 0.006637, 0.102878,-0.978126, 0.000066, 0.001029,-0.009776,-0.029480, 0.067655, 0.168779,1,-0.002450, 0.002712, 0.000532,1,-0.094653,-0.941305, 9.760910,1,1
1778777329389,  2023.230,  2023.225, 0.010088, 0.089292,-1.008886, 0.000094, 0.000892,-0.010097,-0.051119,-0.039815,-0.061257,1, 0.005310,-0.002863, 0.000528,1,-0.094325,-0.940442, 9.760997,1,1
1778777329412,  2023.255,  2023.250, 0.014099, 0.101925,-0.980812, 0.000144, 0.001024,-0.009815, 0.043650, 0.058512, 0.142453,1,-0.006558, 0.002894, 0.000606,1,-0.094706,-0.941234, 9.760917,1,1
1778777329437,  2023.275,  2023.275, 0.009728, 0.092759,-0.990598, 0.000100, 0.000932,-0.009888, 0.000706,-0.031585, 0.046465,1, 0.001619,-0.002223, 0.000629,1,-0.094627,-0.941186, 9.760922,1,1
1778777329459,  2023.300,  2023.295, 0.005724, 0.100910,-0.983863, 0.000052, 0.001016,-0.009829,-0.011538,-0.004175, 0.073963,1,-0.001910, 0.002531,-0.000853,1,-0.094966,-0.941167, 9.760921,1,1
1778777329486,  2023.325,  2023.325, 0.011771, 0.092023,-1.005054, 0.000109, 0.000941,-0.010036, 0.020900,-0.038210,-0.095236,1, 0.004904,-0.004979, 0.000614,1,-0.094377,-0.940493, 9.760991,1,1
1778777329507,  2023.345,  2023.345, 0.016188, 0.095802,-0.984360, 0.000160, 0.000948,-0.009869, 0.064537,-0.001238, 0.107696,1,-0.005045, 0.002337, 0.000259,1,-0.094287,-0.940890, 9.760954,1,1
1778777329529,  2023.370,  2023.365, 0.006238, 0.092668,-0.999446, 0.000062, 0.000943,-0.009968,-0.019464, 0.018273, 0.143749,1, 0.002504, 0.000229, 0.000488,1,-0.094663,-0.941063, 9.760934,1,1
1778777329556,  2023.395,  2023.395, 0.006910, 0.097794,-0.995606, 0.000060, 0.000965,-0.009973,-0.026573, 0.018353,-0.002586,1,-0.003518, 0.002793, 0.000708,1,-0.094428,-0.940786, 9.760962,1,1
1778777329577,  2023.420,  2023.415, 0.016520, 0.090561,-0.999217, 0.000176, 0.000913,-0.009986, 0.025789, 0.032470, 0.059013,1, 0.001698,-0.001530, 0.001241,1,-0.094507,-0.940905, 9.760950,1,1
1778777329599,  2023.440,  2023.435, 0.011071, 0.098829,-0.979395, 0.000111, 0.000968,-0.009794, 0.022402,-0.054678, 0.048878,1,-0.001544, 0.000995,-0.000592,1,-0.094154,-0.940707, 9.760973,1,1
1778777329626,  2023.465,  2023.465, 0.008479, 0.099487,-0.984022, 0.000088, 0.001012,-0.009828,-0.031638, 0.000169,-0.000124,1, 0.001998,-0.001839, 0.000855,1,-0.094512,-0.940691, 9.760971,1,1
1778777329648,  2023.490,  2023.485, 0.008744, 0.099871,-0.990522, 0.000080, 0.000996,-0.009909,-0.034058,-0.037098,-0.028519,1,-0.002103,-0.000654,-0.000452,1,-0.094378,-0.940755, 9.760966,1,1
1778777329669,  2023.510,  2023.505, 0.013954, 0.096663,-0.986151, 0.000126, 0.000971,-0.009857, 0.001166, 0.007567, 0.087083,1,-0.001196, 0.000326, 0.000820,1,-0.094360,-0.941306, 9.760913,1,1
1778777329696,  2023.535,  2023.535, 0.010071, 0.094189,-0.989681, 0.000112, 0.000925,-0.009905, 0.004091,-0.017344, 0.055480,1,-0.000750, 0.003201,-0.000907,1,-0.094765,-0.941047, 9.760934,1,1
1778777329718,  2023.560,  2023.555, 0.005308, 0.092890,-1.001546, 0.000043, 0.000933,-0.010004,-0.067459, 0.037121, 0.036693,1, 0.001106,-0.002025,-0.000258,1,-0.094948,-0.941114, 9.760926,1,1
1778777329739,  2023.580,  2023.575, 0.012432, 0.097607,-0.985162, 0.000122, 0.000965,-0.009874, 0.017316,-0.033235,-0.044578,1,-0.001548,-0.000289,-0.000280,1,-0.094435,-0.940890, 9.760952,1,1
1778777329766,  2023.605,  2023.605, 0.013186, 0.094965,-0.989682, 0.000144, 0.000963,-0.009889, 0.034683,-0.009607, 0.055486,1, 0.004344,-0.003077, 0.000478,1,-0.094536,-0.940761, 9.760963,1,1
1778777329788,  2023.625,  2023.625, 0.008604, 0.091506,-0.993354, 0.000089, 0.000909,-0.009948,-0.009921,-0.043020, 0.019524,1,-0.001419,-0.000408,-0.000746,1,-0.094283,-0.940428, 9.760999,1,1
1778777329809,  2023.650,  2023.645, 0.009844, 0.094141,-0.997984, 0.000100, 0.000950,-0.009969,-0.040303, 0.043461, 0.054858,1,-0.000166, 0.001219, 0.000595,1,-0.094530,-0.940883, 9.760952,1,1
1778777329836,  2023.675,  2023.675, 0.011886, 0.094028,-0.993411, 0.000112, 0.000932,-0.009938, 0.022431,-0.018611, 0.018939,1,-0.002342, 0.000424,-0.001161,1,-0.094144,-0.940782, 9.760965,1,1
1778777329858,  2023.700,  2023.695, 0.012020, 0.091295,-0.993566, 0.000117, 0.000926,-0.009920, 0.002837, 0.022845, 0.104181,1, 0.001565, 0.000357, 0.000641,1,-0.094164,-0.940885, 9.760956,1,1
1778777329879,  2023.720,  2023.715, 0.007383, 0.094733,-0.990661, 0.000076, 0.000936,-0.009913, 0.018399,-0.056339,-0.013520,1, 0.001736,-0.000530, 0.000359,1,-0.094085,-0.940271, 9.761016,1,1
1778777329906,  2023.745,  2023.745, 0.007884, 0.097617,-0.993189, 0.000078, 0.000987,-0.009921,-0.017099, 0.016391, 0.021098,1,-0.000742,-0.001722, 0.001146,1,-0.094363,-0.940928, 9.760949,1,1
1778777329928,  2023.770,  2023.765, 0.011835, 0.099589,-0.984965, 0.000122, 0.000982,-0.009869, 0.030361,-0.038214,-0.009616,1,-0.001901, 0.000386,-0.000224,1,-0.094167,-0.940931, 9.760951,1,1
1778777329949,  2023.790,  2023.785, 0.010145, 0.096436,-0.989150, 0.000102, 0.000972,-0.009877, 0.005641, 0.060176, 0.132037,1,-0.000200, 0.002165,-0.000520,1,-0.094521,-0.941465, 9.760896,1,1
1778777329976,  2023.815,  2023.815, 0.007655, 0.091150,-0.997208, 0.000076, 0.000902,-0.009983,-0.019041,-0.046326,-0.018250,1, 0.001002,-0.001070,-0.000508,1,-0.094078,-0.940174, 9.761024,1,1
1778777329998,  2023.840,  2023.835, 0.008495, 0.093713,-0.991568, 0.000079, 0.000945,-0.009895,-0.024107, 0.052571, 0.111762,1,-0.002362, 0.000645, 0.000388,1,-0.094270,-0.940836, 9.760960,1,1
1778777330021,  2023.860,  2023.860, 0.012492, 0.092348,-0.994400, 0.000131, 0.000916,-0.009958, 0.028359,-0.034797, 0.009264,1,-0.001236, 0.000572,-0.000580,1,-0.094166,-0.940462, 9.760996,1,1
1778777330046,  2023.885,  2023.885, 0.009197, 0.101422,-0.985623, 0.000090, 0.001021,-0.009846,-0.004477, 0.053709, 0.095293,1,-0.000183, 0.000556, 0.000561,1,-0.094698,-0.940903, 9.760948,1,1
1778777330068,  2023.910,  2023.905, 0.012716, 0.094669,-0.994541, 0.000124, 0.000932,-0.009962,-0.020958,-0.055835,-0.034121,1, 0.000998,-0.000809, 0.000396,1,-0.094266,-0.940358, 9.761005,1,1
1778777330091,  2023.930,  2023.930, 0.007527, 0.099709,-0.986521, 0.000070, 0.001005,-0.009852,-0.020841, 0.036811, 0.086473,1,-0.000971, 0.001712, 0.000485,1,-0.094713,-0.941035, 9.760936,1,1
1778777330117,  2023.955,  2023.955, 0.010257, 0.089267,-0.999858, 0.000112, 0.000886,-0.010006, 0.006072,-0.064942,-0.044259,1, 0.001836,-0.001986,-0.000019,1,-0.094452,-0.940293, 9.761010,1,1
1778777330138,  2023.980,  2023.975, 0.008153, 0.097300,-0.987006, 0.000087, 0.000988,-0.009857,-0.002278, 0.057351, 0.122240,1,-0.003032, 0.002652,-0.000510,1,-0.094936,-0.941011, 9.760936,1,1
1778777330161,  2024.000,  2024.000, 0.012135, 0.089614,-1.001808, 0.000120, 0.000893,-0.010023, 0.024247,-0.061494,-0.063376,1, 0.002376,-0.000550,-0.000003,1,-0.094736,-0.940236, 9.761012,1,1
1778777330187,  2024.025,  2024.025, 0.008264, 0.101773,-0.983915, 0.000081, 0.001025,-0.009844,-0.013835, 0.057248, 0.112045,1,-0.003108, 0.002575,-0.000540,1,-0.094956,-0.940900, 9.760946,1,1
1778777330208,  2024.050,  2024.045, 0.008920, 0.091216,-0.994109, 0.000088, 0.000906,-0.009949, 0.017468,-0.066898, 0.008304,1, 0.001912,-0.002360, 0.001010,1,-0.094799,-0.940749, 9.760962,1,1
1778777330231,  2024.070,  2024.070, 0.008324, 0.101407,-0.987005, 0.000084, 0.001017,-0.009868,-0.013479, 0.053190, 0.081700,1,-0.001195,-0.000038,-0.000540,1,-0.095105,-0.941315, 9.760905,1,1
1778777330257,  2024.095,  2024.095, 0.010190, 0.090131,-0.999013, 0.000090, 0.000905,-0.009984, 0.005125,-0.057161,-0.036039,1, 0.002507,-0.001317, 0.000393,1,-0.094767,-0.940971, 9.760942,1,1
1778777330278,  2024.120,  2024.115, 0.007480, 0.100721,-0.981776, 0.000075, 0.001009,-0.009816, 0.005793, 0.034439, 0.093717,1,-0.003564, 0.000845,-0.000859,1,-0.094692,-0.941245, 9.760916,1,1
1778777330301,  2024.140,  2024.140, 0.010106, 0.089070,-1.000339, 0.000105, 0.000890,-0.010001, 0.004444,-0.067389,-0.049020,1, 0.003241,-0.002503, 0.000450,1,-0.094586,-0.940763, 9.760963,1,1
1778777330327,  2024.165,  2024.165, 0.010161, 0.102268,-0.987364, 0.000099, 0.001018,-0.009881, 0.004748, 0.061643, 0.078178,1,-0.004478, 0.001933,-0.000142,1,-0.094955,-0.941401, 9.760898,1,1
1778777330348,  2024.190,  2024.185, 0.013151, 0.090010,-0.996522, 0.000123, 0.000895,-0.009965,-0.001383,-0.038956, 0.013703,1, 0.001694,-0.001218, 0.001572,1,-0.094885,-0.941367, 9.760902,1,1
1778777330371,  2024.215,  2024.210, 0.007953, 0.102228,-0.986584, 0.000086, 0.001023,-0.009868,-0.016890, 0.061130, 0.085819,1,-0.001674, 0.000738,-0.000377,1,-0.094903,-0.941437, 9.760895,1,1
1778777330397,  2024.235,  2024.235, 0.007646, 0.090053,-0.998160, 0.000076, 0.000916,-0.009967,-0.019864,-0.058118,-0.027687,1, 0.003615,-0.002235, 0.001081,1,-0.094776,-0.941121, 9.760927,1,1
1778777330419,  2024.260,  2024.255, 0.009593, 0.102527,-0.984142, 0.000094, 0.001025,-0.009843,-0.011311, 0.021698, 0.041914,1,-0.003304, 0.002611,-0.000458,1,-0.094769,-0.941181, 9.760921,1,1
1778777330441,  2024.285,  2024.280, 0.010690, 0.092131,-0.995512, 0.000107, 0.000925,-0.009951, 0.010046,-0.037787,-0.001724,1, 0.003627,-0.000818, 0.000389,1,-0.094757,-0.941175, 9.760921,1,1
1778777330467,  2024.305,  2024.305, 0.008972, 0.099314,-0.989335, 0.000094, 0.000976,-0.009902,-0.006893, 0.032888, 0.058865,1,-0.000999, 0.002406,-0.000933,1,-0.094949,-0.941081, 9.760929,1,1
1778777330489,  2024.330,  2024.325, 0.008888, 0.090459,-0.997008, 0.000084, 0.000909,-0.009967,-0.033358, 0.004763, 0.059001,1, 0.000473,-0.001862, 0.000137,1,-0.094958,-0.941134, 9.760923,1,1
1778777330511,  2024.355,  2024.350, 0.012165, 0.099903,-0.987557, 0.000122, 0.000985,-0.009886, 0.024642, 0.038853, 0.076324,1,-0.002801, 0.000904,-0.000362,1,-0.094681,-0.940953, 9.760944,1,1
1778777330537,  2024.375,  2024.375, 0.009908, 0.093454,-0.989296, 0.000100, 0.000951,-0.009877, 0.002274,-0.024655, 0.059240,1, 0.001823,-0.000274, 0.000828,1,-0.094884,-0.941073, 9.760930,1,1
1778777330559,  2024.400,  2024.395, 0.005856, 0.099959,-0.987110, 0.000058, 0.000996,-0.009875,-0.008341,-0.040291, 0.006516,1,-0.000406,-0.000359, 0.000335,1,-0.094646,-0.940766, 9.760962,1,1
1778777330581,  2024.425,  2024.420, 0.008635, 0.094322,-0.994845, 0.000084, 0.000959,-0.009932,-0.010160,-0.016265, 0.004818,1, 0.002679,-0.001432, 0.000565,1,-0.094801,-0.941162, 9.760922,1,1
1778777330607,  2024.445,  2024.445, 0.013151, 0.093014,-0.994129, 0.000130, 0.000914,-0.009959, 0.034366,-0.028659, 0.011881,1,-0.000307, 0.000586,-0.000286,1,-0.094619,-0.940823, 9.760957,1,1
1778777330629,  2024.470,  2024.465, 0.007366, 0.093610,-0.992088, 0.000077, 0.000946,-0.009910,-0.015994, 0.048240, 0.106188,1,-0.000592, 0.000412, 0.000525,1,-0.094754,-0.941080, 9.760931,1,1
1778777330652,  2024.495,  2024.490, 0.010837, 0.094009,-0.996787, 0.000113, 0.000919,-0.009981, 0.011562,-0.018771,-0.014175,1,-0.001138, 0.001067, 0.000068,1,-0.094743,-0.940722, 9.760965,1,1
1778777330677,  2024.515,  2024.515, 0.007185, 0.101453,-0.986805, 0.000067, 0.001024,-0.009858,-0.024505, 0.053571, 0.083648,1,-0.001590, 0.000114, 0.000643,1,-0.094975,-0.941388, 9.760900,1,1
1778777330699,  2024.540,  2024.535, 0.012312, 0.095952,-0.990538, 0.000122, 0.000941,-0.009925, 0.026127,-0.065013,-0.053452,1, 0.001594,-0.002640, 0.000271,1,-0.094395,-0.940902, 9.760952,1,1
1778777330726,  2024.565,  2024.565, 0.009646, 0.098645,-0.984795, 0.000094, 0.000999,-0.009829,-0.000282, 0.025934, 0.103350,1, 0.002309, 0.000536, 0.000759,1,-0.094892,-0.941374, 9.760901,1,1
1778777330747,  2024.585,  2024.585, 0.007278, 0.089209,-1.000108, 0.000072, 0.000890,-0.010003,-0.023056,-0.065979,-0.046750,1, 0.002183,-0.002312,-0.000054,1,-0.094355,-0.940752, 9.760966,1,1
1778777330769,  2024.610,  2024.605, 0.010073, 0.099210,-0.986042, 0.000100, 0.000998,-0.009850,-0.003170, 0.049129, 0.089146,1,-0.002754, 0.001970,-0.000869,1,-0.094564,-0.941299, 9.760912,1,1
1778777330796,  2024.635,  2024.635, 0.013274, 0.088660,-0.997594, 0.000130, 0.000887,-0.009973, 0.035635,-0.071354,-0.022099,1, 0.003529,-0.000725,-0.000812,1,-0.094509,-0.940700, 9.760970,1,1
1778777330818,  2024.660,  2024.655, 0.004660, 0.099201,-0.986144, 0.000047, 0.001002,-0.009846,-0.031075, 0.055208, 0.113414,1,-0.002858, 0.001104,-0.000840,1,-0.094686,-0.941080, 9.760932,1,1
1778777330839,  2024.680,  2024.675, 0.011048, 0.089717,-1.001610, 0.000108, 0.000892,-0.010027,-0.023896,-0.040834,-0.024686,1, 0.003971,-0.002958, 0.000463,1,-0.094443,-0.940635, 9.760977,1,1
1778777330866,  2024.705,  2024.705, 0.009742, 0.102034,-0.984266, 0.000100, 0.001019,-0.009847, 0.000980, 0.059531, 0.108576,1,-0.003206, 0.002330,-0.000259,1,-0.094624,-0.941185, 9.760922,1,1
1778777330888,  2024.730,  2024.725, 0.008565, 0.090521,-0.999625, 0.000084, 0.000899,-0.010003,-0.011799,-0.048296,-0.014550,1, 0.003576,-0.002806, 0.000732,1,-0.094454,-0.940723, 9.760968,1,1
1778777330909,  2024.750,  2024.745, 0.008426, 0.100540,-0.982761, 0.000083, 0.001008,-0.009826,-0.006558, 0.017534, 0.051058,1,-0.002822, 0.002373,-0.000545,1,-0.094466,-0.940885, 9.760953,1,1
1778777330936,  2024.775,  2024.775, 0.011514, 0.091325,-0.998116, 0.000112, 0.000919,-0.009972, 0.018079,-0.045138,-0.027209,1, 0.004007,-0.000941, 0.000367,1,-0.094807,-0.940602, 9.760977,1,1
1778777330958,  2024.800,  2024.795, 0.010080, 0.101742,-0.980639, 0.000109, 0.001019,-0.009814, 0.027264, 0.026961, 0.063964,1,-0.003933, 0.001350,-0.000741,1,-0.094846,-0.940707, 9.760966,1,1
1778777330979,  2024.820,  2024.815, 0.007977, 0.090209,-0.995490, 0.000082, 0.000908,-0.009947,-0.014483, 0.016812, 0.107067,1, 0.001190,-0.001365, 0.000776,1,-0.094896,-0.940964, 9.760941,1,1
1778777331006,  2024.845,  2024.845, 0.008194, 0.096513,-0.995250, 0.000085, 0.000950,-0.009963,-0.014129, 0.006195, 0.000939,1,-0.002431, 0.000618,-0.000015,1,-0.094507,-0.940347, 9.761004,1,1
1778777331028,  2024.870,  2024.865, 0.006977, 0.091315,-0.992621, 0.000073, 0.000922,-0.009916,-0.016246, 0.027255, 0.053770,1,-0.000878, 0.000203, 0.000202,1,-0.094861,-0.940849, 9.760952,1,1
1778777331049,  2024.890,  2024.885, 0.014902, 0.095150,-0.986987, 0.000158, 0.000952,-0.009883, 0.038225,-0.034760, 0.002284,1,-0.001559, 0.002762, 0.000152,1,-0.094846,-0.940913, 9.760946,1,1
1778777331076,  2024.915,  2024.915, 0.007492, 0.097858,-0.988530, 0.000068, 0.000992,-0.009868,-0.021917, 0.018616, 0.066755,1, 0.003387, 0.001320, 0.000042,1,-0.095433,-0.940942, 9.760938,1,1
1778777331098,  2024.940,  2024.935, 0.013156, 0.097326,-0.986893, 0.000132, 0.000961,-0.009892, 0.014263,-0.041135,-0.057314,1, 0.000571,-0.002166, 0.000136,1,-0.094928,-0.940262, 9.761008,1,1
1778777331119,  2024.960,  2024.955, 0.006849, 0.097113,-0.985476, 0.000074, 0.000984,-0.009831, 0.008316, 0.054479, 0.171867,1,-0.004043, 0.000136,-0.000186,1,-0.095046,-0.941201, 9.760917,1,1
1778777331146,  2024.985,  2024.985, 0.009304, 0.090622,-1.005008, 0.000092, 0.000899,-0.010059,-0.002934,-0.051837,-0.094771,1, 0.000165,-0.002273,-0.000951,1,-0.094102,-0.940529, 9.760990,1,1
1778777331168,  2025.010,  2025.005, 0.007102, 0.098474,-0.984198, 0.000073, 0.000991,-0.009834,-0.007191, 0.057836, 0.107925,1,-0.003115, 0.001031, 0.000273,1,-0.094264,-0.941274, 9.760917,1,1
1778777331190,  2025.030,  2025.025, 0.008351, 0.089295,-0.997113, 0.000085, 0.000888,-0.009971,-0.006324,-0.038573, 0.023620,1, 0.003515,-0.003823, 0.000630,1,-0.093877,-0.940933, 9.760954,1,1
1778777331218,  2025.055,  2025.055, 0.008149, 0.099515,-0.985050, 0.000082, 0.000998,-0.009852,-0.014143, 0.034763, 0.100890,1,-0.000697, 0.004187,-0.000175,1,-0.094184,-0.941172, 9.760927,1,1
1778777331238,  2025.080,  2025.075, 0.018442, 0.091313,-1.000307, 0.000174, 0.000907,-0.010011, 0.016099,-0.047318,-0.025127,1, 0.004697,-0.001466,-0.000141,1,-0.094314,-0.940273, 9.761013,1,1
1778777331261,  2025.100,  2025.100, 0.005213, 0.098853,-0.979171, 0.000057, 0.000983,-0.009792,-0.043016, 0.028984, 0.158614,1,-0.002090,-0.000121,-0.000832,1,-0.094136,-0.940501, 9.760993,1,1
1778777331287,  2025.120,  2025.125, 0.004457, 0.091662,-1.000134, 0.000042, 0.000925,-0.009981,-0.050105,-0.040909,-0.046900,1, 0.006051,-0.003716,-0.000056,1,-0.093694,-0.939621, 9.761082,1,1
1778777331308,  2025.150,  2025.145, 0.010451, 0.100799,-0.983932, 0.000116, 0.001008,-0.009856, 0.042681, 0.014950,-0.036873,1,-0.004288, 0.002344,-0.000187,1,-0.093671,-0.939906, 9.761055,1,1
1778777331331,  2025.170,  2025.170, 0.009885, 0.091992,-0.991787, 0.000098, 0.000928,-0.009908, 0.002878,-0.038103, 0.034910,1, 0.003983, 0.000153, 0.000688,1,-0.094067,-0.940112, 9.761031,1,1
1778777331357,  2025.195,  2025.195, 0.008581, 0.097199,-0.987793, 0.000092, 0.000961,-0.009896,-0.010061, 0.013039, 0.074080,1,-0.003054, 0.003010,-0.001188,1,-0.094297,-0.940251, 9.761015,1,1
1778777331378,  2025.220,  2025.215, 0.011125, 0.092123,-0.999849, 0.000105, 0.000929,-0.009983,-0.011125, 0.021580, 0.051128,1, 0.002352,-0.000183,-0.000061,1,-0.094694,-0.940394, 9.760998,1,1
1778777331401,  2025.240,  2025.240, 0.014661, 0.095617,-0.986899, 0.000147, 0.000949,-0.009885, 0.049267,-0.002676, 0.082833,1,-0.004931, 0.003029,-0.000362,1,-0.094604,-0.940510, 9.760987,1,1
1778777331427,  2025.265,  2025.265, 0.010600, 0.098449,-0.983707, 0.000107, 0.000992,-0.009815, 0.009090, 0.024866, 0.114111,1, 0.003279,-0.000283, 0.000206,1,-0.094848,-0.940486, 9.760987,1,1
1778777331448,  2025.290,  2025.285, 0.007300, 0.094268,-0.998231, 0.000071, 0.000932,-0.009992,-0.047746,-0.050606,-0.063544,1, 0.002062,-0.002311,-0.000721,1,-0.094468,-0.939785, 9.761059,1,1
1778777331471,  2025.310,  2025.310, 0.009832, 0.098382,-0.988947, 0.000094, 0.000988,-0.009884, 0.001782, 0.024454, 0.062744,1,-0.000603, 0.001119, 0.000254,1,-0.094672,-0.940359, 9.761002,1,1
1778777331497,  2025.335,  2025.335, 0.013300, 0.090757,-0.997122, 0.000137, 0.000905,-0.009979, 0.035877,-0.049921,-0.017386,1, 0.001240,-0.000265,-0.000336,1,-0.094546,-0.939902, 9.761046,1,1
1778777331518,  2025.360,  2025.355, 0.000817, 0.099354,-0.988247, 0.000004, 0.000999,-0.009859,-0.063930, 0.048729, 0.133154,1,-0.004264, 0.000682, 0.000315,1,-0.094803,-0.940619, 9.760975,1,1
1778777331541,  2025.380,  2025.380, 0.011950, 0.090184,-1.008583, 0.000108, 0.000893,-0.010091, 0.022696,-0.055450,-0.129774,1, 0.001396,-0.000829, 0.000024,1,-0.094466,-0.939806, 9.761057,1,1
1778777331567,  2025.405,  2025.405, 0.015222, 0.099746,-0.979481, 0.000157, 0.001002,-0.009806, 0.054302, 0.037604, 0.155553,1,-0.004729, 0.002771, 0.000140,1,-0.095061,-0.940717, 9.760963,1,1
1778777331589,  2025.430,  2025.425, 0.005519, 0.089557,-0.998013, 0.000052, 0.000898,-0.009975,-0.019175,-0.034549, 0.049339,1, 0.003669,-0.002107, 0.000016,1,-0.095002,-0.940483, 9.760986,1,1
1778777331611,  2025.455,  2025.450, 0.009126, 0.100504,-0.985765, 0.000090, 0.001003,-0.009860,-0.005704, 0.044780, 0.093900,1,-0.002940, 0.002605,-0.000087,1,-0.095284,-0.940922, 9.760942,1,1
1778777331637,  2025.475,  2025.475, 0.012621, 0.095523,-0.997434, 0.000123, 0.000963,-0.009966, 0.028606,-0.003845,-0.020514,1, 0.003349,-0.001968, 0.000432,1,-0.095108,-0.940502, 9.760983,1,1
1778777331659,  2025.500,  2025.495, 0.010996, 0.098558,-0.977108, 0.000115, 0.000979,-0.009778, 0.039437,-0.017496, 0.086560,1,-0.003181, 0.000711,-0.000051,1,-0.094602,-0.940593, 9.760980,1,1
1778777331681,  2025.525,  2025.520, 0.002767, 0.093874,-0.997966, 0.000028, 0.000948,-0.009953,-0.067866,-0.019748,-0.025703,1, 0.007119,-0.001884, 0.000016,1,-0.094946,-0.940118, 9.761022,1,1
1778777331707,  2025.545,  2025.545, 0.009273, 0.093922,-1.004278, 0.000093, 0.000925,-0.010067,-0.003777,-0.018674,-0.087540,1,-0.003002, 0.000758,-0.000318,1,-0.094741,-0.939825, 9.761052,1,1
1778777331729,  2025.570,  2025.565, 0.013486, 0.094233,-0.987957, 0.000134, 0.000957,-0.009858, 0.034761, 0.042980, 0.139270,1,-0.003335, 0.002015, 0.000439,1,-0.095287,-0.940923, 9.760941,1,1
1778777331752,  2025.595,  2025.590, 0.010051, 0.093145,-0.991298, 0.000100, 0.000918,-0.009921, 0.003407,-0.026871, 0.039692,1, 0.000285, 0.000602,-0.000459,1,-0.095178,-0.940299, 9.761003,1,1
1778777331777,  2025.615,  2025.615, 0.004086, 0.100141,-0.991828, 0.000036, 0.001008,-0.009902,-0.055082, 0.041743, 0.034491,1, 0.002076,-0.001436, 0.000405,1,-0.095105,-0.940241, 9.761008,1,1
1778777331799,  2025.640,  2025.635, 0.014819, 0.092078,-0.991855, 0.000146, 0.000908,-0.009945, 0.012018,-0.056460,-0.073281,1, 0.000771,-0.002137, 0.000329,1,-0.094604,-0.939788, 9.761057,1,1
1778777331822,  2025.665,  2025.660, 0.010913, 0.100841,-0.977449, 0.000117, 0.001011,-0.009765, 0.012023, 0.048340, 0.175480,1,-0.000375, 0.002571,-0.000440,1,-0.095075,-0.940586, 9.760976,1,1
1778777331847,  2025.685,  2025.685, 0.006427, 0.090405,-0.999606, 0.000067, 0.000908,-0.009989,-0.032040,-0.053425,-0.041755,1, 0.003012,-0.001334, 0.000193,1,-0.095032,-0.939900, 9.761042,1,1
1778777331869,  2025.710,  2025.705, 0.008641, 0.100346,-0.986800, 0.000086, 0.001005,-0.009863,-0.020423, 0.039174, 0.050142,1,-0.004969, 0.001771, 0.000373,1,-0.095142,-0.940570, 9.760977,1,1
1778777331892,  2025.735,  2025.730, 0.014691, 0.090151,-0.997481, 0.000140, 0.000904,-0.009975, 0.049123,-0.056215,-0.020937,1, 0.002961,-0.001772, 0.000357,1,-0.094893,-0.940200, 9.761015,1,1
1778777331918,  2025.755,  2025.755, 0.009799, 0.099375,-0.982584, 0.000106, 0.000991,-0.009830, 0.001034, 0.034155, 0.125133,1,-0.002882, 0.001734,-0.000316,1,-0.095116,-0.940467, 9.760986,1,1
1778777331939,  2025.780,  2025.775, 0.008428, 0.090075,-1.008023, 0.000075, 0.000905,-0.010075,-0.056848,-0.018350,-0.011927,1, 0.004671,-0.001181, 0.000068,1,-0.095048,-0.939953, 9.761037,1,1
1778777331966,  2025.805,  2025.805, 0.012017, 0.099928,-0.985695, 0.000118, 0.000993,-0.009869, 0.022788, 0.039843, 0.094658,1,-0.004807, 0.003313,-0.000570,1,-0.095163,-0.940261, 9.761006,1,1
1778777331988,  2025.825,  2025.825, 0.010536, 0.094937,-0.989326, 0.000110, 0.000957,-0.009881, 0.028736, 0.039108, 0.128266,1,-0.000841,-0.000197,-0.000206,1,-0.095180,-0.940410, 9.760991,1,1
1778777332009,  2025.850,  2025.845, 0.009452, 0.097466,-0.985730, 0.000095, 0.000970,-0.009862,-0.006711,-0.031062, 0.036980,1,-0.001178, 0.001123,-0.000609,1,-0.094685,-0.939799, 9.761055,1,1
1778777332036,  2025.875,  2025.875, 0.009812, 0.096448,-0.996884, 0.000101, 0.000972,-0.009958, 0.001316, 0.005874,-0.015051,1, 0.000741,-0.001512, 0.000174,1,-0.094861,-0.939931, 9.761041,1,1
1778777332058,  2025.900,  2025.895, 0.010554, 0.099200,-0.983625, 0.000106, 0.000987,-0.009844, 0.020625,-0.023927, 0.015706,1,-0.003502,-0.000392, 0.000773,1,-0.094595,-0.940000, 9.761037,1,1
1778777332079,  2025.920,  2025.915, 0.006806, 0.095782,-0.992308, 0.000064, 0.000971,-0.009898,-0.018613, 0.049026, 0.140909,1,-0.000545, 0.001136, 0.000225,1,-0.094961,-0.940569, 9.760979,1,1
1778777332106,  2025.945,  2025.945, 0.011921, 0.093040,-1.000219, 0.000119, 0.000919,-0.010018, 0.022121,-0.027087,-0.047720,1, 0.000301,-0.000030,-0.000355,1,-0.094785,-0.939485, 9.761085,1,1
1778777332128,  2025.970,  2025.965, 0.008342, 0.093837,-0.989977, 0.000082, 0.000950,-0.009887,-0.011897, 0.033178, 0.117672,1,-0.000858,-0.000055, 0.000460,1,-0.094842,-0.940063, 9.761028,1,1
1778777332149,  2025.990,  2025.985, 0.010771, 0.093382,-0.991618, 0.000111, 0.000920,-0.009938, 0.009644,-0.062031,-0.023766,1, 0.001246,-0.000851, 0.000583,1,-0.094575,-0.939645, 9.761071,1,1
1778777332176,  2026.015,  2026.015, 0.006353, 0.099837,-0.987727, 0.000066, 0.001003,-0.009866,-0.032757, 0.038817, 0.074710,1, 0.000957, 0.000240,-0.000011,1,-0.095065,-0.940217, 9.761011,1,1
1778777332198,  2026.040,  2026.035, 0.012303, 0.093314,-0.991815, 0.000121, 0.000922,-0.009944,-0.005953,-0.056199,-0.069335,1, 0.000202,-0.002817, 0.000183,1,-0.094414,-0.939834, 9.761054,1,1
1778777332219,  2026.060,  2026.055, 0.011316, 0.098441,-0.980283, 0.000119, 0.000989,-0.009792, 0.033000, 0.032188, 0.143294,1,-0.003995, 0.003194,-0.000468,1,-0.094837,-0.940522, 9.760984,1,1
1778777332246,  2026.085,  2026.085, 0.006460, 0.091338,-1.001308, 0.000067, 0.000913,-0.010007,-0.031214,-0.044350,-0.058451,1, 0.002956,-0.002376,-0.000075,1,-0.094493,-0.939978, 9.761040,1,1
1778777332268,  2026.110,  2026.105, 0.008786, 0.099248,-0.987841, 0.000085, 0.000999,-0.009871,-0.024065, 0.031952, 0.054185,1,-0.002919, 0.001820,-0.000622,1,-0.094690,-0.940488, 9.760988,1,1
1778777332290,  2026.130,  2026.125, 0.014775, 0.091054,-0.998228, 0.000144, 0.000911,-0.009985, 0.021360,-0.010277, 0.010792,1, 0.003215,-0.000767, 0.000369,1,-0.094691,-0.940209, 9.761016,1,1
1778777332316,  2026.155,  2026.155, 0.008961, 0.100216,-0.983616, 0.000092, 0.001002,-0.009838,-0.006822, 0.042616, 0.115043,1,-0.002952, 0.001646,-0.000683,1,-0.094752,-0.940261, 9.761010,1,1
1778777332338,  2026.180,  2026.175, 0.008181, 0.091447,-1.002909, 0.000076, 0.000911,-0.010032,-0.044318,-0.013246,-0.020762,1, 0.002930,-0.002656, 0.000416,1,-0.094583,-0.939976, 9.761039,1,1
1778777332360,  2026.200,  2026.195, 0.011569, 0.100308,-0.984301, 0.000120, 0.000999,-0.009854, 0.016834,-0.004193, 0.015695,1,-0.003284, 0.000401,-0.000589,1,-0.094374,-0.940174, 9.761022,1,1
1778777332387,  2026.225,  2026.225, 0.012578, 0.092011,-0.993014, 0.000127, 0.000930,-0.009917, 0.028950,-0.038016, 0.022870,1, 0.003329,-0.001819,-0.000471,1,-0.094339,-0.940230, 9.761017,1,1
1778777332408,  2026.250,  2026.245, 0.005026, 0.100259,-0.982625, 0.000053, 0.001000,-0.009822,-0.010317,-0.005360, 0.084711,1,-0.002800, 0.000981, 0.000381,1,-0.094370,-0.940210, 9.761019,1,1
1778777332430,  2026.270,  2026.265, 0.008529, 0.091304,-1.004710, 0.000075, 0.000923,-0.010034,-0.044035, 0.013607, 0.039075,1, 0.002978,-0.002242, 0.000507,1,-0.094383,-0.940199, 9.761020,1,1
1778777332457,  2026.295,  2026.295, 0.014698, 0.096111,-0.990021, 0.000143, 0.000946,-0.009920, 0.050127, 0.002438, 0.052244,1,-0.003656, 0.002489,-0.000346,1,-0.094089,-0.940201, 9.761023,1,1
1778777332478,  2026.320,  2026.315, 0.006201, 0.092880,-0.992301, 0.000067, 0.000934,-0.009914, 0.017771, 0.012096, 0.105735,1, 0.002160,-0.000924, 0.000421,1,-0.094329,-0.940178, 9.761023,1,1
1778777332501,  2026.340,  2026.340, 0.004667, 0.096725,-0.992486, 0.000049, 0.000951,-0.009932,-0.048140, 0.008642, 0.028090,1,-0.001757, 0.001278,-0.000507,1,-0.093947,-0.939957, 9.761047,1,1
1778777332527,  2026.365,  2026.365, 0.011572, 0.097192,-0.993675, 0.000110, 0.000979,-0.009932, 0.019322, 0.013161, 0.016421,1, 0.001231, 0.000833, 0.000563,1,-0.094186,-0.939931, 9.761047,1,1
1778777332548,  2026.390,  2026.385, 0.010926, 0.098882,-0.981450, 0.000120, 0.000979,-0.009829, 0.059826,-0.036659, 0.029455,1,-0.001061,-0.000991,-0.000285,1,-0.093881,-0.939711, 9.761071,1,1
1778777332571,  2026.410,  2026.410, 0.002772, 0.096097,-0.989661, 0.000022, 0.000970,-0.009873,-0.066974, 0.002225, 0.055761,1, 0.003743,-0.001139, 0.000383,1,-0.094119,-0.940052, 9.761036,1,1
1778777332597,  2026.435,  2026.435, 0.009058, 0.091172,-1.005866, 0.000084, 0.000901,-0.010074,-0.005067,-0.045433,-0.103086,1, 0.000213,-0.000105, 0.000118,1,-0.093897,-0.939515, 9.761090,1,1
1778777332618,  2026.460,  2026.455, 0.012535, 0.095667,-0.986231, 0.000126, 0.000968,-0.009854, 0.032516, 0.032119, 0.086863,1,-0.001522,-0.000241,-0.000104,1,-0.094057,-0.940074, 9.761035,1,1
1778777332641,  2026.480,  2026.480, 0.011012, 0.091914,-0.987705, 0.000110, 0.000913,-0.009882, 0.014009,-0.038492, 0.074976,1,-0.000718, 0.001573,-0.000114,1,-0.094039,-0.939882, 9.761053,1,1
1778777332667,  2026.505,  2026.505, 0.004719, 0.099660,-0.991943, 0.000047, 0.000998,-0.009904,-0.048054, 0.037386, 0.033402,1, 0.002032, 0.000663,-0.000425,1,-0.094350,-0.939883, 9.761050,1,1
1778777332688,  2026.530,  2026.525, 0.014124, 0.094720,-0.995129, 0.000141, 0.000934,-0.009985, 0.011574,-0.042142,-0.120906,1, 0.000449,-0.002121, 0.000685,1,-0.093867,-0.939283, 9.761112,1,1
1778777332711,  2026.550,  2026.550, 0.010551, 0.101125,-0.975548, 0.000114, 0.001015,-0.009742, 0.009260, 0.051155, 0.194133,1,-0.000504, 0.001252, 0.000502,1,-0.094253,-0.940561, 9.760986,1,1
1778777332737,  2026.575,  2026.575, 0.005283, 0.089597,-1.001162, 0.000054, 0.000891,-0.010008,-0.042177,-0.060939,-0.056967,1, 0.005531,-0.002101, 0.000218,1,-0.093917,-0.939411, 9.761100,1,1
1778777332759,  2026.600,  2026.595, 0.011995, 0.099458,-0.990390, 0.000119, 0.001000,-0.009902,-0.004820, 0.040432, 0.011285,1,-0.003506, 0.001683,-0.000168,1,-0.094111,-0.939744, 9.761066,1,1
1778777332781,  2026.620,  2026.620, 0.015838, 0.091380,-0.991287, 0.000160, 0.000916,-0.009915, 0.061204,-0.043975, 0.039823,1,-0.001344,-0.000944, 0.000276,1,-0.094085,-0.940146, 9.761027,1,1
1778777332807,  2026.645,  2026.645, 0.006387, 0.099215,-0.979639, 0.000065, 0.000994,-0.009788,-0.031665, 0.032325, 0.153996,1,-0.001139, 0.001697, 0.000250,1,-0.094358,-0.940675, 9.760974,1,1
1778777332829,  2026.670,  2026.665, 0.008833, 0.090641,-1.010514, 0.000077, 0.000909,-0.010111,-0.059522,-0.013579,-0.101776,1, 0.007142,-0.003912, 0.000638,1,-0.094009,-0.939523, 9.761088,1,1
1778777332851,  2026.695,  2026.690, 0.016709, 0.098572,-0.982398, 0.000169, 0.000983,-0.009839, 0.069849, 0.026791, 0.127023,1,-0.005157, 0.002280,-0.000543,1,-0.094076,-0.940034, 9.761039,1,1
1778777332877,  2026.715,  2026.715, 0.008191, 0.092684,-0.986503, 0.000091, 0.000935,-0.009848,-0.013729,-0.030988, 0.086758,1, 0.003759,-0.001396, 0.000785,1,-0.094015,-0.939787, 9.761063,1,1
1778777332899,  2026.740,  2026.735, 0.004866, 0.100507,-0.991396, 0.000045, 0.001005,-0.009919,-0.060004,-0.004819,-0.000852,1,-0.003193, 0.001448,-0.000671,1,-0.093991,-0.939791, 9.761063,1,1
1778777332922,  2026.765,  2026.760, 0.014932, 0.091856,-1.000260, 0.000143, 0.000927,-0.010002, 0.052403,-0.039284,-0.048167,1, 0.002273,-0.002076, 0.000823,1,-0.093972,-0.940009, 9.761042,1,1
1778777332947,  2026.785,  2026.785, 0.014563, 0.096499,-0.979765, 0.000157, 0.000954,-0.009822, 0.048942, 0.006006, 0.152799,1,-0.003995, 0.000928,-0.000147,1,-0.093897,-0.940447, 9.761001,1,1
1778777332969,  2026.810,  2026.805, 0.002834, 0.091164,-1.002134, 0.000025, 0.000922,-0.009989,-0.060624, 0.013927, 0.126353,1, 0.004435,-0.000672, 0.001110,1,-0.094123,-0.940371, 9.761005,1,1
1778777332992,  2026.835,  2026.830, 0.009595, 0.096083,-0.998889, 0.000090, 0.000950,-0.010012, 0.000234, 0.002440,-0.034690,1,-0.003852, 0.000882,-0.000058,1,-0.093888,-0.939930, 9.761050,1,1
1778777333017,  2026.855,  2026.855, 0.015650, 0.097472,-0.986778, 0.000153, 0.000982,-0.009865, 0.059529, 0.015513, 0.084021,1,-0.000106,-0.000302, 0.001328,1,-0.093944,-0.940360, 9.761008,1,1
1778777333039,  2026.880,  2026.875, 0.005891, 0.097763,-0.981744, 0.000066, 0.000964,-0.009822, 0.029960,-0.043100, 0.087718,1,-0.000345, 0.001961,-0.000121,1,-0.094053,-0.940144, 9.761028,1,1
1778777333062,  2026.905,  2026.900, 0.000780, 0.096965,-1.000896, 0.000006, 0.000977,-0.009987,-0.086789, 0.010984,-0.054387,1, 0.005632,-0.002715, 0.000676,1,-0.094358,-0.939743, 9.761064,1,1
1778777333087,  2026.925,  2026.925, 0.013432, 0.091922,-1.005179, 0.000126, 0.000916,-0.010084, 0.037920,-0.037962,-0.096337,1,-0.002833,-0.000705,-0.000282,1,-0.093782,-0.939498, 9.761093,1,1
1778777333109,  2026.950,  2026.945, 0.014133, 0.094168,-0.978456, 0.000150, 0.000956,-0.009771, 0.071984, 0.041951, 0.205592,1,-0.003127, 0.002126, 0.000255,1,-0.094185,-0.940508, 9.760992,1,1
1778777333132,  2026.975,  2026.970, 0.001407, 0.091766,-0.997182, 0.000018, 0.000914,-0.009970,-0.080443,-0.039897,-0.017954,1,-0.000832, 0.000033,-0.001276,1,-0.094236,-0.939840, 9.761056,1,1
1778777333158,  2026.995,  2026.995, 0.005067, 0.100351,-0.997084, 0.000039, 0.001010,-0.009964,-0.044616, 0.043834,-0.017045,1,-0.000811,-0.001120, 0.000599,1,-0.094275,-0.940301, 9.761011,1,1
1778777333179,  2027.020,  2027.015, 0.019901, 0.093487,-0.983856, 0.000204, 0.000926,-0.009861, 0.095845,-0.042126,-0.026836,1, 0.000083,-0.000568, 0.000237,1,-0.093997,-0.940185, 9.761024,1,1
1778777333206,  2027.045,  2027.045, 0.007186, 0.097511,-0.976708, 0.000079, 0.000981,-0.009750,-0.023911, 0.015610, 0.182747,1, 0.004140, 0.000441,-0.000142,1,-0.094397,-0.940520, 9.760988,1,1
1778777333228,  2027.065,  2027.065, 0.003658, 0.091253,-1.007675, 0.000031, 0.000914,-0.010069,-0.058260,-0.044706,-0.120837,1, 0.003794,-0.000835,-0.000446,1,-0.094106,-0.939474, 9.761092,1,1
1778777333249,  2027.090,  2027.085, 0.012005, 0.098000,-0.988512, 0.000119, 0.000984,-0.009888,-0.001959, 0.041608, 0.029678,1,-0.005353, 0.001910,-0.000445,1,-0.094253,-0.940159, 9.761024,1,1
1778777333276,  2027.115,  2027.115, 0.013114, 0.091235,-0.988972, 0.000137, 0.000909,-0.009896, 0.034856,-0.045416, 0.062533,1, 0.000575,-0.000176,-0.000019,1,-0.093745,-0.940112, 9.761034,1,1
1778777333298,  2027.140,  2027.135, 0.004561, 0.097301,-0.993828, 0.000046, 0.000981,-0.009919, 0.016258,-0.005692, 0.115947,1,-0.001495, 0.002733,-0.000990,1,-0.094054,-0.940203, 9.761023,1,1
1778777333319,  2027.160,  2027.155, 0.008676, 0.091235,-1.007774, 0.000082, 0.000907,-0.010093,-0.042898,-0.043159,-0.119494,1, 0.003921,-0.003018, 0.000970,1,-0.094304,-0.939452, 9.761092,1,1
1778777333346,  2027.185,  2027.185, 0.012413, 0.100208,-0.979608, 0.000121, 0.001004,-0.009799, 0.027570, 0.042097, 0.154308,1,-0.005970, 0.001304, 0.000294,1,-0.094204,-0.940789, 9.760964,1,1
1778777333368,  2027.210,  2027.205, 0.009926, 0.090750,-0.997215, 0.000099, 0.000904,-0.009974, 0.023994,-0.063722, 0.033662,1, 0.005177,-0.001826, 0.000541,1,-0.094043,-0.940135, 9.761029,1,1
1778777333389,  2027.230,  2027.225, 0.006549, 0.100127,-0.992005, 0.000067, 0.001005,-0.009921,-0.019173, 0.009056, 0.012510,1,-0.002017, 0.001716,-0.001190,1,-0.094086,-0.940167, 9.761025,1,1
1778777333416,  2027.255,  2027.255, 0.008396, 0.092425,-0.995741, 0.000081, 0.000925,-0.009957,-0.011470,-0.034098,-0.003884,1,-0.000566,-0.001294, 0.000421,1,-0.093770,-0.940498, 9.760997,1,1
1778777333438,  2027.280,  2027.275, 0.009457, 0.099952,-0.981479, 0.000101, 0.001001,-0.009812, 0.018755, 0.024458, 0.131143,1,-0.004282, 0.002488,-0.000348,1,-0.093882,-0.941130, 9.760935,1,1
1778777333460,  2027.300,  2027.295, 0.010122, 0.091696,-1.001599, 0.000099, 0.000915,-0.010008,-0.007387, 0.000752, 0.043002,1, 0.005062,-0.000607, 0.000984,1,-0.094053,-0.940598, 9.760984,1,1
1778777333487,  2027.325,  2027.325, 0.009012, 0.101325,-0.986367, 0.000091, 0.001005,-0.009876,-0.005524, 0.053282, 0.088047,1,-0.006424, 0.002390,-0.000166,1,-0.093978,-0.940576, 9.760987,1,1
1778777333508,  2027.350,  2027.345, 0.008436, 0.090364,-1.002353, 0.000078, 0.000904,-0.010015,-0.031996,-0.008790, 0.048754,1, 0.004296,-0.001961, 0.001282,1,-0.093919,-0.940483, 9.760997,1,1
1778777333530,  2027.370,  2027.365, 0.009392, 0.100999,-0.988111, 0.000091, 0.001008,-0.009888, 0.010967,-0.021352,-0.034326,1,-0.000382, 0.000578,-0.000916,1,-0.093801,-0.939990, 9.761045,1,1
1778777333557,  2027.395,  2027.395, 0.012165, 0.092122,-0.992551, 0.000122, 0.000934,-0.009912, 0.025225,-0.036923, 0.027412,1, 0.002555,-0.002314, 0.001043,1,-0.094008,-0.940251, 9.761018,1,1
1778777333578,  2027.420,  2027.415, 0.008431, 0.100245,-0.982083, 0.000086, 0.000997,-0.009822, 0.016200,-0.025268, 0.054693,1,-0.003835, 0.002324,-0.000670,1,-0.094028,-0.940408, 9.761003,1,1
1778777333600,  2027.440,  2027.435, 0.007556, 0.093324,-0.997355, 0.000074, 0.000941,-0.009962,-0.024197, 0.025594, 0.084346,1,-0.000098, 0.001028, 0.000360,1,-0.094377,-0.940981, 9.760944,1,1
1778777333627,  2027.465,  2027.465, 0.012579, 0.095007,-0.995081, 0.000128, 0.000940,-0.009974, 0.029512,-0.008968, 0.002564,1,-0.002881, 0.000261,-0.000476,1,-0.093848,-0.940760, 9.760970,1,1
1778777333648,  2027.490,  2027.485, 0.009843, 0.093023,-0.992105, 0.000102, 0.000939,-0.009902, 0.012855, 0.021417, 0.127703,1, 0.001506, 0.000647, 0.000515,1,-0.094250,-0.941034, 9.760941,1,1
1778777333670,  2027.510,  2027.505, 0.006834, 0.095899,-0.994441, 0.000070, 0.000946,-0.009961,-0.014585,-0.051291,-0.043601,1, 0.003022,-0.002710,-0.000209,1,-0.093773,-0.940038, 9.761041,1,1
1778777333697,  2027.535,  2027.535, 0.008434, 0.097599,-0.989372, 0.000079, 0.000988,-0.009882,-0.011249, 0.016558, 0.058565,1, 0.000850, 0.000088, 0.001549,1,-0.093966,-0.940536, 9.760991,1,1
1778777333718,  2027.560,  2027.555, 0.011661, 0.096460,-0.986570, 0.000120, 0.000954,-0.009883, 0.040943,-0.055894,-0.026195,1, 0.000807,-0.000908,-0.000513,1,-0.093656,-0.939961, 9.761049,1,1
1778777333741,  2027.580,  2027.580, 0.007097, 0.097304,-0.986049, 0.000070, 0.000979,-0.009845,-0.024400, 0.013667, 0.091148,1, 0.001599, 0.000420,-0.000120,1,-0.094014,-0.940514, 9.760993,1,1
1778777333767,  2027.605,  2027.605, 0.009140, 0.091219,-1.001257, 0.000088, 0.000910,-0.010020,-0.004189,-0.045476,-0.057936,1,-0.000829,-0.000441,-0.000516,1,-0.093808,-0.940053, 9.761039,1,1
1778777333788,  2027.630,  2027.625, 0.009674, 0.097162,-0.987122, 0.000097, 0.000975,-0.009861,-0.007184, 0.047811, 0.106206,1,-0.004034, 0.001161,-0.000204,1,-0.094013,-0.940909, 9.760955,1,1
1778777333811,  2027.650,  2027.650, 0.012833, 0.091108,-0.994864, 0.000131, 0.000907,-0.009962, 0.032074,-0.046794, 0.004736,1, 0.000664, 0.000493, 0.000018,1,-0.093786,-0.940233, 9.761022,1,1
1778777333837,  2027.675,  2027.675, 0.008299, 0.099423,-0.985428, 0.000086, 0.000999,-0.009847,-0.012752, 0.034313, 0.097228,1,-0.001021, 0.000187,-0.000105,1,-0.094145,-0.940727, 9.760971,1,1
1778777333859,  2027.700,  2027.695, 0.008972, 0.092238,-1.000321, 0.000085, 0.000917,-0.010017,-0.039545,-0.051791,-0.079836,1, 0.003357,-0.003249, 0.000645,1,-0.093866,-0.940045, 9.761040,1,1
1778777333881,  2027.720,  2027.720, 0.010384, 0.100987,-0.981132, 0.000101, 0.001020,-0.009810, 0.007622, 0.049293, 0.139324,1,-0.001312, 0.002341,-0.000160,1,-0.094280,-0.941090, 9.760935,1,1
1778777333907,  2027.745,  2027.745, 0.012323, 0.089024,-0.999061, 0.000125, 0.000891,-0.009976, 0.026660,-0.067281,-0.036432,1, 0.005552,-0.001498,-0.000036,1,-0.094143,-0.940140, 9.761027,1,1
1778777333929,  2027.770,  2027.765, 0.006950, 0.099530,-0.986308, 0.000072, 0.001003,-0.009858,-0.017922, 0.040514, 0.070939,1,-0.003849, 0.001734,-0.000712,1,-0.094277,-0.940360, 9.761005,1,1
1778777333951,  2027.790,  2027.790, 0.008361, 0.091003,-0.998930, 0.000082, 0.000905,-0.009992,-0.011963,-0.047683,-0.035123,1, 0.001074,-0.001989, 0.000458,1,-0.093891,-0.940082, 9.761036,1,1
1778777333977,  2027.815,  2027.815, 0.011054, 0.099770,-0.986775, 0.000115, 0.000991,-0.009879, 0.014508, 0.037891, 0.084032,1,-0.003618, 0.000681,-0.000504,1,-0.093919,-0.940636, 9.760982,1,1
1778777333999,  2027.840,  2027.835, 0.012628, 0.091679,-0.998331, 0.000127, 0.000913,-0.009981, 0.021156,-0.007293, 0.044580,1, 0.003843,-0.000940, 0.000498,1,-0.094029,-0.940429, 9.761001,1,1
1778777334022,  2027.860,  2027.860, 0.008487, 0.099561,-0.984266, 0.000084, 0.000993,-0.009843,-0.010769, 0.035965, 0.108654,1,-0.003977, 0.001586,-0.000096,1,-0.094047,-0.940514, 9.760992,1,1
1778777334047,  2027.885,  2027.885, 0.006946, 0.093033,-0.995251, 0.000063, 0.000944,-0.009931,-0.025760,-0.028151, 0.000913,1, 0.003243,-0.003203, 0.000917,1,-0.093775,-0.940400, 9.761006,1,1
1778777334069,  2027.910,  2027.905, 0.012189, 0.101721,-0.984337, 0.000121, 0.001014,-0.009848, 0.038280,-0.007823, 0.002727,1,-0.002547, 0.001011,-0.000123,1,-0.093673,-0.940366, 9.761010,1,1
1778777334092,  2027.935,  2027.930, 0.009407, 0.091573,-0.991989, 0.000097, 0.000931,-0.009902,-0.001710,-0.042631, 0.032893,1, 0.004675,-0.001934, 0.000513,1,-0.093900,-0.940509, 9.760994,1,1
1778777334117,  2027.955,  2027.955, 0.008083, 0.096265,-0.992418, 0.000085, 0.000950,-0.009941,-0.014422, 0.003730, 0.028722,1,-0.002692, 0.000796,-0.000443,1,-0.093712,-0.940390, 9.761007,1,1
1778777334139,  2027.980,  2027.975, 0.008710, 0.091864,-0.998996, 0.000090, 0.000926,-0.009981,-0.025074, 0.027689, 0.048827,1, 0.001440,-0.000502, 0.000515,1,-0.093884,-0.940693, 9.760977,1,1
1778777334162,  2028.005,  2028.000, 0.011916, 0.094766,-0.989228, 0.000123, 0.000933,-0.009917, 0.023348,-0.010884, 0.060008,1,-0.002839, 0.001104,-0.000752,1,-0.093543,-0.940312, 9.761017,1,1
1778777334187,  2028.025,  2028.025, 0.010195, 0.097457,-0.983563, 0.000104, 0.000979,-0.009825, 0.006069, 0.015198, 0.115531,1, 0.001325, 0.000656,-0.000234,1,-0.093931,-0.940485, 9.760996,1,1
1778777334209,  2028.050,  2028.045, 0.009006, 0.095689,-0.995221, 0.000086, 0.000941,-0.009965,-0.008873,-0.061268,-0.050407,1, 0.000608,-0.000881,-0.000100,1,-0.093792,-0.939864, 9.761058,1,1
1778777334232,  2028.075,  2028.070, 0.008711, 0.098151,-0.988178, 0.000083, 0.000988,-0.009870,-0.008716, 0.021581, 0.070229,1,-0.001271, 0.000031, 0.000544,1,-0.094145,-0.940990, 9.760945,1,1
1778777334258,  2028.095,  2028.095, 0.013149, 0.090511,-0.996464, 0.000125, 0.000901,-0.009967, 0.035109,-0.052941,-0.010983,1, 0.001012,-0.001159,-0.000221,1,-0.093797,-0.940518, 9.760995,1,1
1778777334279,  2028.120,  2028.115, 0.002956, 0.098253,-0.986076, 0.000027, 0.000986,-0.009846,-0.036731, 0.047963, 0.139625,1,-0.002279, 0.001000,-0.000635,1,-0.093925,-0.941074, 9.760940,1,1
1778777334302,  2028.145,  2028.140, 0.007011, 0.091824,-1.004141, 0.000070, 0.000903,-0.010054,-0.024668,-0.039619,-0.086223,1, 0.000783,-0.001396,-0.001562,1,-0.093377,-0.940082, 9.761041,1,1
1778777334328,  2028.165,  2028.165, 0.007280, 0.101417,-0.983416, 0.000073, 0.001018,-0.009837,-0.022201, 0.053757, 0.116949,1,-0.003258, 0.000815,-0.000569,1,-0.093621,-0.940910, 9.760959,1,1
1778777334349,  2028.190,  2028.185, 0.008624, 0.090759,-0.999384, 0.000084, 0.000901,-0.010003,-0.017107,-0.057143,-0.032915,1, 0.005810,-0.002492,-0.000287,1,-0.093309,-0.940068, 9.761043,1,1
1778777334372,  2028.215,  2028.210, 0.007346, 0.101373,-0.985294, 0.000075, 0.001020,-0.009849,-0.021633, 0.053990, 0.098601,1,-0.002031, 0.002653,-0.000039,1,-0.093752,-0.940206, 9.761024,1,1
1778777334398,  2028.235,  2028.235, 0.010799, 0.092867,-1.000428, 0.000097, 0.000937,-0.009989, 0.012226,-0.029162,-0.049795,1, 0.003314,-0.001488, 0.000539,1,-0.093635,-0.939772, 9.761068,1,1
1778777334419,  2028.260,  2028.255, 0.010803, 0.101647,-0.977428, 0.000112, 0.001011,-0.009775, 0.040892, 0.016685, 0.083436,1,-0.005826, 0.002601,-0.000465,1,-0.093734,-0.940373, 9.761009,1,1
1778777334446,  2028.285,  2028.285, 0.013468, 0.089786,-1.000634, 0.000138, 0.000901,-0.009997, 0.038468,-0.059611,-0.051835,1, 0.007231,-0.002565, 0.000548,1,-0.093511,-0.939891, 9.761058,1,1
1778777334468,  2028.305,  2028.305, 0.010476, 0.097916,-0.984011, 0.000105, 0.000964,-0.009864, 0.009267, 0.020073, 0.111176,1,-0.005120, 0.002553, 0.000222,1,-0.093544,-0.940313, 9.761017,1,1
1778777334489,  2028.330,  2028.325, 0.011816, 0.089655,-0.995827, 0.000118, 0.000893,-0.009961, 0.015622,-0.026605, 0.064622,1, 0.001447,-0.001784, 0.000750,1,-0.093525,-0.940412, 9.761007,1,1
1778777334516,  2028.355,  2028.355, 0.013115, 0.097493,-0.983525, 0.000132, 0.000964,-0.009852, 0.035045, 0.015451, 0.115905,1,-0.004747, 0.001845,-0.000071,1,-0.093625,-0.940780, 9.760971,1,1
1778777334538,  2028.380,  2028.375, 0.010063, 0.090998,-0.999456, 0.000095, 0.000914,-0.009986,-0.003999, 0.005996, 0.065235,1, 0.001994,-0.000635, 0.000277,1,-0.093790,-0.940909, 9.760957,1,1
1778777334559,  2028.400,  2028.395, 0.009503, 0.099868,-0.991715, 0.000098, 0.000986,-0.009928, 0.019428,-0.051060,-0.061313,1, 0.000841,-0.001034,-0.000139,1,-0.093444,-0.940295, 9.761020,1,1
1778777334586,  2028.425,  2028.425, 0.006711, 0.096945,-0.995542, 0.000065, 0.000985,-0.009937,-0.027569, 0.010258,-0.001931,1, 0.004323,-0.002163, 0.001076,1,-0.093314,-0.940317, 9.761019,1,1
1778777334608,  2028.450,  2028.445, 0.009054, 0.099873,-0.990694, 0.000097, 0.000987,-0.009920, 0.017303,-0.053742,-0.081512,1,-0.000241, 0.000609,-0.000102,1,-0.092976,-0.939735, 9.761078,1,1
1778777334630,  2028.470,  2028.465, 0.006749, 0.094606,-0.993671, 0.000065, 0.000958,-0.009919,-0.024726, 0.033887, 0.087295,1,-0.000652, 0.002863,-0.000637,1,-0.093495,-0.940199, 9.761028,1,1
1778777334657,  2028.495,  2028.495, 0.008069, 0.092082,-0.997808, 0.000081, 0.000908,-0.010002,-0.014421,-0.036512,-0.024059,1,-0.003309, 0.000861,-0.000698,1,-0.093579,-0.939631, 9.761082,1,1
1778777334678,  2028.520,  2028.515, 0.013427, 0.093473,-0.989699, 0.000132, 0.000948,-0.009884,-0.008172, 0.034496, 0.149566,1,-0.003574, 0.003205, 0.000411,1,-0.094307,-0.940764, 9.760965,1,1
1778777334700,  2028.540,  2028.535, 0.014254, 0.093257,-0.988738, 0.000145, 0.000919,-0.009907, 0.050759,-0.068712,-0.001038,1, 0.000071,-0.000917, 0.000364,1,-0.094400,-0.940672, 9.760974,1,1
1778777334727,  2028.565,  2028.565, 0.010332, 0.100671,-0.979517, 0.000106, 0.001014,-0.009790, 0.006664, 0.045304, 0.155073,1,-0.001761, 0.001338, 0.001294,1,-0.094708,-0.941994, 9.760843,1,1
1778777334748,  2028.590,  2028.585, 0.011854, 0.095076,-0.997478, 0.000117, 0.000943,-0.009981, 0.014918,-0.039278,-0.012176,1, 0.003435,-0.003519, 0.001514,1,-0.094218,-0.941495, 9.760896,1,1
1778777334770,  2028.610,  2028.605, 0.011987, 0.100316,-0.984670, 0.000124, 0.001008,-0.009843, 0.032458, 0.062187, 0.039600,1,-0.001681, 0.002507, 0.000159,1,-0.094270,-0.941707, 9.760876,1,1
1778777334797,  2028.635,  2028.635, 0.014279, 0.092452,-1.000911, 0.000138, 0.000921,-0.010012, 0.046351,-0.033857,-0.054585,1, 0.004834,-0.001923,-0.000110,1,-0.093616,-0.940355, 9.761012,1,1
1778777334818,  2028.660,  2028.655, 0.007910, 0.096518,-0.991923, 0.000080, 0.000974,-0.009910, 0.003595, 0.045041, 0.069243,1, 0.000214, 0.002953,-0.000511,1,-0.093963,-0.940224, 9.761022,1,1
1778777334840,  2028.680,  2028.675, 0.010072, 0.090121,-1.007179, 0.000099, 0.000900,-0.010083,-0.016446,-0.028357,-0.078447,1, 0.004709,-0.002302,-0.000279,1,-0.093810,-0.939416, 9.761101,1,1
1778777334867,  2028.705,  2028.705, 0.010722, 0.097910,-0.981431, 0.000108, 0.000974,-0.009825, 0.010904, 0.020171, 0.136486,1,-0.005563, 0.004454,-0.000036,1,-0.094377,-0.940172, 9.761023,1,1
1778777334888,  2028.730,  2028.725, 0.013164, 0.087217,-0.998041, 0.000138, 0.000866,-0.009991, 0.046949,-0.065680, 0.014332,1, 0.001875,-0.001530,-0.000090,1,-0.094536,-0.939994, 9.761038,1,1
1778777334910,  2028.750,  2028.745, 0.002520, 0.098253,-0.978494, 0.000026, 0.000981,-0.009778,-0.007887,-0.035122, 0.084602,1,-0.006297, 0.000919,-0.001471,1,-0.094541,-0.940521, 9.760987,1,1
1778777334937,  2028.775,  2028.775, 0.008008, 0.091817,-0.997002, 0.000067, 0.000929,-0.009952,-0.015752,-0.040932,-0.016338,1, 0.000749,-0.002418,-0.000121,1,-0.094206,-0.941324, 9.760913,1,1
1778777334958,  2028.800,  2028.795, 0.011199, 0.100794,-0.975758, 0.000117, 0.001007,-0.009749, 0.042449, 0.010070, 0.103234,1,-0.005971, 0.002188,-0.001345,1,-0.094219,-0.942129, 9.760835,1,1
1778777334981,  2028.820,  2028.820, 0.006716, 0.094889,-0.995783, 0.000066, 0.000967,-0.009944,-0.028006,-0.011562,-0.004451,1, 0.004795,-0.004161, 0.000327,1,-0.093738,-0.941954, 9.760857,1,1
1778777335007,  2028.845,  2028.845, 0.007238, 0.099729,-0.988317, 0.000073, 0.000989,-0.009902,-0.022649, 0.036038, 0.068775,1,-0.002740, 0.001336, 0.000142,1,-0.093672,-0.942053, 9.760848,1,1
1778777335029,  2028.870,  2028.865, 0.009415, 0.096135,-1.003004, 0.000093, 0.000980,-0.010024,-0.026541, 0.077233, 0.034986,1, 0.004643,-0.001878, 0.000515,1,-0.093648,-0.941883, 9.760864,1,1
1778777335051,  2028.890,  2028.890, 0.009732, 0.101490,-0.990125, 0.000099, 0.001010,-0.009926, 0.002226, 0.054045, 0.051122,1,-0.002089, 0.002728, 0.000777,1,-0.093303,-0.941292, 9.760924,1,1
1778777335077,  2028.915,  2028.915, 0.003713, 0.101622,-0.989609, 0.000044, 0.001019,-0.009872,-0.057231, 0.055532, 0.056191,1, 0.006725,-0.001753, 0.000869,1,-0.093589,-0.940836, 9.760965,1,1
1778777335099,  2028.940,  2028.935, 0.005453, 0.094099,-0.995411, 0.000055, 0.000928,-0.009988,-0.040626,-0.057747,-0.147871,1, 0.004122,-0.002246, 0.000404,1,-0.093063,-0.939315, 9.761117,1,1
1778777335121,  2028.960,  2028.960, 0.006947, 0.095347,-0.990132, 0.000064, 0.000959,-0.009883,-0.025360,-0.004279, 0.051234,1, 0.003616,-0.000045, 0.001107,1,-0.093487,-0.939203, 9.761124,1,1
1778777335147,  2028.985,  2028.985, 0.008250, 0.086250,-0.995787, 0.000084, 0.000852,-0.009974,-0.012524,-0.093051,-0.004175,1,-0.003676, 0.001417, 0.000310,1,-0.093475,-0.938986, 9.761145,1,1
1778777335169,  2029.010,  2029.005, 0.014763, 0.091896,-0.994941, 0.000122, 0.000946,-0.009934,-0.036204, 0.017927, 0.110906,1,-0.003512, 0.002728,-0.000871,1,-0.094087,-0.939874, 9.761054,1,1
1778777335192,  2029.030,  2029.030, 0.015577, 0.086197,-0.980120, 0.000194, 0.000852,-0.009852, 0.058443,-0.094423, 0.149371,1,-0.007175, 0.000370, 0.000937,1,-0.094328,-0.939950, 9.761045,1,1
1778777335218,  2029.055,  2029.055, 0.022680, 0.097854,-0.972399, 0.000200, 0.000980,-0.009673, 0.127079, 0.018603, 0.224953,1,-0.000503, 0.004056,-0.001418,1,-0.095456,-0.941037, 9.760928,1,1
1778777335239,  2029.080,  2029.075, 0.017268, 0.093912,-0.983596, 0.000162, 0.000923,-0.009843, 0.066010,-0.055665, 0.002243,1,-0.004717, 0.004543,-0.000063,1,-0.095658,-0.940751, 9.760954,1,1
1778777335262,  2029.100,  2029.100, 0.009877, 0.093658,-0.992279, 0.000117, 0.000933,-0.009932, 0.001069,-0.022540, 0.029996,1,-0.001193,-0.005237,-0.000659,1,-0.095622,-0.941046, 9.760926,1,1
1778777335287,  2029.125,  2029.125, 0.022508, 0.096901,-0.997451, 0.000209, 0.000980,-0.009971, 0.125007, 0.009503,-0.020701,1, 0.007109,-0.000025,-0.000237,1,-0.095715,-0.940555, 9.760972,1,1
1778777335309,  2029.150,  2029.145, 0.004177, 0.100991,-0.979526, 0.000060, 0.001014,-0.009796, 0.074476, 0.033237, 0.048221,1,-0.002075, 0.001685,-0.001593,1,-0.095690,-0.940269, 9.761000,1,1
1778777335332,  2029.175,  2029.170,-0.000648, 0.094640,-1.017696,-0.000018, 0.000960,-0.010174,-0.100360,-0.011178,-0.219075,1, 0.006864,-0.005698, 0.000081,1,-0.093825,-0.939065, 9.761134,1,1
1778777335357,  2029.195,  2029.195,-0.000261, 0.103875,-0.995462, 0.000003, 0.001050,-0.009974,-0.096455, 0.078864,-0.001090,1,-0.005950, 0.002924, 0.000354,1,-0.093983,-0.939988, 9.761044,1,1
1778777335379,  2029.220,  2029.215, 0.002472, 0.087782,-1.003062,-0.000000, 0.000900,-0.010015,-0.150915,-0.027029, 0.052371,1, 0.008229,-0.011196, 0.001112,1,-0.093034,-0.939275, 9.761122,1,1
1778777335402,  2029.245,  2029.240, 0.008307, 0.097513,-0.989860, 0.000102, 0.000966,-0.009925,-0.010890, 0.017115, 0.053931,1,-0.002207, 0.005309, 0.001227,1,-0.092518,-0.939234, 9.761130,1,1
1778777335428,  2029.265,  2029.265, 0.003759, 0.097865,-0.979223, 0.000031, 0.000980,-0.009753,-0.056882, 0.019667, 0.158140,1,-0.006200, 0.004495, 0.001805,1,-0.093889,-0.940249, 9.761020,1,1
1778777335449,  2029.290,  2029.285, 0.000383, 0.101088,-0.979350,-0.000004, 0.000997,-0.009779, 0.007745,-0.052864, 0.118850,1,-0.005316, 0.000092, 0.001490,1,-0.093947,-0.941043, 9.760942,1,1
1778777335472,  2029.315,  2029.310, 0.015175, 0.092331,-0.998357, 0.000152, 0.000941,-0.009952, 0.054377,-0.035233,-0.029571,1, 0.009177,-0.003336, 0.001676,1,-0.094342,-0.940409, 9.761000,1,1
1778777335498,  2029.335,  2029.335, 0.021914, 0.091366,-0.987105, 0.000216, 0.000906,-0.009901, 0.120412,-0.043685, 0.080873,1,-0.000717, 0.003042,-0.000178,1,-0.094582,-0.939697, 9.761065,1,1
1778777335519,  2029.360,  2029.355,-0.000787, 0.091036,-0.988189,-0.000013, 0.000911,-0.009855,-0.067649,-0.002539, 0.174545,1, 0.000392,-0.001919, 0.000103,1,-0.094359,-0.940012, 9.761038,1,1
1778777335542,  2029.385,  2029.380, 0.006474, 0.092750,-1.005826, 0.000064, 0.000916,-0.010077,-0.030634,-0.029971,-0.102703,1,-0.002064, 0.001744,-0.001258,1,-0.094172,-0.939598, 9.761080,1,1
1778777335568,  2029.405,  2029.405, 0.014972, 0.103456,-0.992189, 0.000143, 0.001036,-0.009920, 0.052038, 0.074392, 0.030969,1, 0.002390, 0.001136, 0.000025,1,-0.094817,-0.940086, 9.761026,1,1
1778777335589,  2029.430,  2029.425, 0.006254, 0.097030,-0.980507, 0.000065, 0.000955,-0.009822, 0.009791,-0.044082, 0.000539,1, 0.000700,-0.004632,-0.000419,1,-0.093745,-0.939368, 9.761106,1,1
1778777335612,  2029.455,  2029.450, 0.002327, 0.100021,-0.994064, 0.000021, 0.001001,-0.009907,-0.071166, 0.041584, 0.012675,1, 0.005964,-0.002154,-0.000480,1,-0.093920,-0.939099, 9.761129,1,1
1778777335638,  2029.475,  2029.475, 0.006326, 0.092888,-1.006783, 0.000056, 0.000916,-0.010081,-0.031470,-0.027684,-0.111983,1,-0.003457,-0.002087,-0.000186,1,-0.093443,-0.938715, 9.761171,1,1
1778777335659,  2029.500,  2029.495, 0.010293, 0.097888,-0.975168, 0.000110, 0.000985,-0.009735, 0.025615, 0.035129, 0.184550,1,-0.009860, 0.001482, 0.000642,1,-0.093488,-0.940495, 9.761000,1,1
1778777335686,  2029.525,  2029.525, 0.007248, 0.090392,-0.987954, 0.000084, 0.000901,-0.009865,-0.022798,-0.054185, 0.072468,1, 0.004264,-0.001916,-0.000529,1,-0.093811,-0.940495, 9.760997,1,1
1778777335708,  2029.545,  2029.545,-0.001734, 0.100858,-0.992912,-0.000019, 0.001006,-0.009932,-0.110596, 0.048906, 0.023894,1,-0.000602, 0.000728,-0.000587,1,-0.093609,-0.940191, 9.761027,1,1
1778777335730,  2029.570,  2029.565, 0.014074, 0.087554,-1.001077, 0.000130, 0.000869,-0.010032,-0.040547,-0.061670,-0.071013,1, 0.005467,-0.004437, 0.001156,1,-0.092891,-0.939515, 9.761100,1,1
1778777335756,  2029.595,  2029.595, 0.009864, 0.100206,-0.975340, 0.000111, 0.001004,-0.009750, 0.003124, 0.042946, 0.196252,1, 0.000463, 0.004575,-0.000752,1,-0.093748,-0.939722, 9.761071,1,1
1778777335778,  2029.620,  2029.615, 0.003101, 0.088816,-1.011588, 0.000033, 0.000887,-0.010120,-0.028897,-0.052646,-0.117301,1, 0.007572,-0.001909,-0.000568,1,-0.093712,-0.938262, 9.761212,1,1
1778777335800,  2029.640,  2029.635, 0.011133, 0.099805,-0.988049, 0.000107, 0.001002,-0.009879,-0.044011, 0.020740,-0.021859,1,-0.008976, 0.007108,-0.000204,1,-0.094218,-0.939037, 9.761133,1,1
1778777335827,  2029.665,  2029.665, 0.016434, 0.088914,-0.997331, 0.000161, 0.000895,-0.009971, 0.066566,-0.067663,-0.019404,1, 0.001044,-0.001026,-0.000005,1,-0.094562,-0.939576, 9.761078,1,1
1778777335848,  2029.690,  2029.685, 0.008394, 0.098729,-0.984855, 0.000091, 0.000995,-0.009838, 0.022492, 0.024382, 0.124650,1,-0.003625, 0.001582,-0.000626,1,-0.094465,-0.939839, 9.761053,1,1
1778777335870,  2029.710,  2029.705, 0.010644, 0.091282,-0.995957, 0.000104, 0.000911,-0.009953, 0.011265,-0.036110, 0.027750,1, 0.001730, 0.000569, 0.000739,1,-0.094683,-0.939817, 9.761053,1,1
