Time,GPS_ts,fGPS_ts,scaledAccelX,scaledAccelY,scaledAccelZ,deltaVelX,deltaVelY,deltaVelZ,estLinearAccelX,estLinearAccelY,estLinearAccelZ,estLinearAccel:valid,estAngularRateX,estAngularRateY,estAngularRateZ,estAngularRate:valid,estGravityX,estGravityY,estGravityZ,estGravity:valid,flag
1778778376763,  3043.411,  3043.411, 0.000827, 0.140431,-0.997013, 0.000049, 0.001365,-0.010024, 0.003118, 0.075380,-0.057491,1,-0.016305, 0.003980,-0.001402,1,-0.005106,-1.302278, 9.719796,1,0
1778778376763,  3043.436,  3043.431, 0.003681, 0.128600,-0.989197, 0.000032, 0.001285,-0.009862,-0.050334, 0.044732, 0.212363,1, 0.003700,-0.006225, 0.000359,1,-0.005544,-1.303481, 9.719634,1,0
1778778376763,  3043.456,  3043.456,-0.005756, 0.132687,-0.987382,-0.000033, 0.001289,-0.009912,-0.060999,-0.001053, 0.036883,1,-0.005278, 0.007699,-0.001076,1,-0.004787,-1.302431, 9.719775,1,0
1778778376763,  3043.481,  3043.481,-0.002064, 0.133641,-0.988846,-0.000040, 0.001344,-0.009855,-0.025885, 0.008637, 0.022569,1, 0.008840,-0.000475, 0.000853,1,-0.005635,-1.301664, 9.719878,1,0
1778778376763,  3043.506,  3043.501, 0.006482, 0.133095,-0.976640, 0.000087, 0.001312,-0.009775, 0.151048,-0.103588,-0.004890,1,-0.002540, 0.004083,-0.001184,1,-0.005974,-1.301363, 9.719918,1,0
1778778376763,  3043.531,  3043.531,-0.011960, 0.135986,-0.975521,-0.000133, 0.001369,-0.009728,-0.122961, 0.031729, 0.153261,1, 0.004265,-0.006617,-0.000485,1,-0.005465,-1.301701, 9.719872,1,0
1778778376763,  3043.556,  3043.551, 0.003893, 0.134216,-1.006597, 0.000045, 0.001325,-0.010101, 0.030194,-0.083619,-0.273031,1,-0.000357,-0.005451,-0.000905,1,-0.003565,-1.300809, 9.719994,1,0
1778778376763,  3043.581,  3043.576,-0.003155, 0.137445,-0.969939,-0.000040, 0.001390,-0.009693,-0.035649, 0.045192, 0.207891,1, 0.004328, 0.002642, 0.001217,1,-0.004689,-1.302529, 9.719763,1,0
1778778376763,  3043.606,  3043.601, 0.001602, 0.128087,-0.985423, 0.000043, 0.001259,-0.009883, 0.104851,-0.114788,-0.005064,1, 0.008194, 0.002893,-0.000588,1,-0.004775,-1.300253, 9.720067,1,0
1778778376763,  3043.626,  3043.621,-0.011999, 0.138308,-0.980989,-0.000130, 0.001388,-0.009781,-0.126302, 0.058553, 0.179567,1,-0.005485, 0.005299, 0.000108,1,-0.006137,-1.301354, 9.719919,1,0
1778778376764,  3043.646,  3043.641, 0.013213, 0.123575,-1.014815, 0.000128, 0.001234,-0.010167, 0.014691,-0.016904,-0.153832,1, 0.009912,-0.014277,-0.000327,1,-0.004150,-1.299970, 9.720105,1,0
1778778376774,  3070.506,  3070.501,-0.006517, 0.138066,-0.977270,-0.000080, 0.001387,-0.009745, 0.125949,-0.088054,-0.231822,1,-0.003211,-0.005330,-0.000931,1,-0.003453,-1.300008, 9.720100,1,0
1778778376797,  3070.531,  3070.526, 0.014752, 0.123401,-1.003644, 0.000155, 0.001224,-0.010065, 0.135123,-0.093310,-0.122754,1,-0.003501, 0.001649,-0.000517,1,-0.009596,-1.303567, 9.719620,1,0
1778778376823,  3070.551,  3070.551,-0.008947, 0.141167,-0.966104,-0.000081, 0.001411,-0.009672,-0.098460, 0.079140, 0.245154,1,-0.001730, 0.003057, 0.000183,1,-0.010819,-1.305287, 9.719387,1,0
1778778376844,  3070.576,  3070.571, 0.009494, 0.122375,-1.008711, 0.000092, 0.001212,-0.010100, 0.040031,-0.065513,-0.123238,1, 0.011273,-0.008085,-0.000308,1,-0.009303,-1.303144, 9.719677,1,0
1778778376867,  3070.601,  3070.596,-0.006864, 0.141385,-0.971218,-0.000070, 0.001410,-0.009715,-0.077907, 0.081226, 0.194992,1,-0.003679, 0.003543, 0.000786,1,-0.010710,-1.305401, 9.719372,1,0
1778778376893,  3070.621,  3070.621, 0.008654, 0.127124,-0.996965, 0.000075, 0.001291,-0.009946, 0.075003,-0.057272,-0.057313,1, 0.009266,-0.004882,-0.000275,1,-0.009707,-1.303647, 9.719608,1,0
1778778376915,  3070.646,  3070.641,-0.010314, 0.139843,-0.970438,-0.000100, 0.001401,-0.009707,-0.027820, 0.024866, 0.083011,1,-0.010124, 0.007377, 0.000216,1,-0.010555,-1.304834, 9.719449,1,0
1778778376937,  3070.671,  3070.666, 0.005915, 0.125505,-1.004632, 0.000050, 0.001268,-0.010031, 0.048240,-0.072596,-0.132431,1, 0.008907,-0.006102,-0.000145,1,-0.009579,-1.303104, 9.719682,1,0
1778778376963,  3070.691,  3070.691, 0.000759, 0.137342,-0.981427, 0.000031, 0.001354,-0.009853,-0.002690, 0.042441, 0.094992,1,-0.012409, 0.006375,-0.000111,1,-0.010329,-1.304803, 9.719453,1,0
1778778376985,  3070.716,  3070.711, 0.007279, 0.124909,-0.997598, 0.000072, 0.001246,-0.009957,-0.028736, 0.032596, 0.140336,1, 0.009752,-0.004900, 0.000535,1,-0.010336,-1.304454, 9.719500,1,0
1778778377007,  3070.741,  3070.736,-0.001490, 0.135983,-0.986109,-0.000004, 0.001345,-0.009884,-0.024724, 0.029268, 0.049101,1,-0.009134, 0.006832,-0.000237,1,-0.010319,-1.304556, 9.719486,1,0
1778778377033,  3070.761,  3070.761,-0.000381, 0.135281,-0.985170,-0.000026, 0.001361,-0.009822,-0.014021, 0.022339, 0.058304,1, 0.007718,-0.005400, 0.000049,1,-0.010120,-1.304079, 9.719550,1,0
1778778377055,  3070.786,  3070.781, 0.001444, 0.135199,-0.978496, 0.000031, 0.001346,-0.009799, 0.103757,-0.066314,-0.048411,1,-0.005806, 0.004601,-0.000835,1,-0.009896,-1.303754, 9.719594,1,0
1778778377082,  3070.811,  3070.811,-0.006222, 0.132567,-0.984451,-0.000075, 0.001341,-0.009809,-0.071520,-0.004017, 0.065381,1, 0.010701,-0.005876,-0.000239,1,-0.010321,-1.303727, 9.719598,1,0
1778778377103,  3070.831,  3070.831, 0.008695, 0.125588,-1.007180, 0.000095, 0.001242,-0.010093, 0.075727,-0.071401,-0.157363,1,-0.006851, 0.001503,-0.000398,1,-0.009587,-1.303205, 9.719668,1,0
1778778377125,  3070.856,  3070.851,-0.003766, 0.135210,-0.975708,-0.000046, 0.001367,-0.009726,-0.079315, 0.081275, 0.247710,1,-0.003956, 0.002997, 0.001096,1,-0.010826,-1.305291, 9.719387,1,0
1778778377152,  3070.881,  3070.881, 0.008959, 0.124645,-1.004091, 0.000096, 0.001226,-0.010065, 0.078538,-0.080656,-0.127070,1,-0.003029, 0.002793,-0.000836,1,-0.009402,-1.303101, 9.719683,1,0
1778778377173,  3070.906,  3070.901,-0.002788, 0.136225,-0.981266,-0.000047, 0.001371,-0.009778,-0.093705, 0.083762, 0.203316,1,-0.004046, 0.004094, 0.000158,1,-0.010806,-1.305010, 9.719424,1,0
1778778377195,  3070.926,  3070.921, 0.011698, 0.125202,-1.001928, 0.000121, 0.001235,-0.010042, 0.085772,-0.069861,-0.103661,1, 0.010329,-0.007886,-0.000674,1,-0.009512,-1.303074, 9.719686,1,0
1778778377222,  3070.951,  3070.951,-0.009123, 0.140784,-0.967696,-0.000095, 0.001409,-0.009669,-0.100155, 0.075801, 0.229592,1,-0.001444, 0.003146, 0.000594,1,-0.010792,-1.304868, 9.719444,1,0
1778778377243,  3070.976,  3070.971, 0.011206, 0.124457,-1.003937, 0.000118, 0.001234,-0.010065, 0.069264,-0.074347,-0.133621,1, 0.009119,-0.006033,-0.000851,1,-0.009621,-1.302806, 9.719722,1,0
1778778377265,  3070.996,  3070.991,-0.007981, 0.140018,-0.968027,-0.000077, 0.001404,-0.009679,-0.011834, 0.025321, 0.083643,1,-0.011434, 0.007964, 0.000472,1,-0.010596,-1.304410, 9.719505,1,0
1778778377292,  3071.021,  3071.021, 0.006608, 0.125694,-0.999794, 0.000060, 0.001275,-0.009981, 0.054898,-0.070566,-0.084959,1, 0.007875,-0.005603,-0.000019,1,-0.009735,-1.302963, 9.719701,1,0
1778778377314,  3071.046,  3071.041,-0.008999, 0.140523,-0.973210,-0.000089, 0.001407,-0.009735,-0.028875, 0.039891, 0.072580,1,-0.010337, 0.005232, 0.000304,1,-0.010460,-1.304410, 9.719505,1,0
1778778377335,  3071.066,  3071.061, 0.008714, 0.125647,-1.001690, 0.000073, 0.001266,-0.010008,-0.043538, 0.029127, 0.053630,1, 0.009293,-0.006028,-0.000181,1,-0.010135,-1.303769, 9.719592,1,0
1778778377362,  3071.091,  3071.091,-0.000091, 0.136918,-0.978988, 0.000015, 0.001359,-0.009818,-0.011211, 0.038499, 0.118935,1,-0.010247, 0.007493, 0.000047,1,-0.010548,-1.304527, 9.719490,1,0
1778778377384,  3071.116,  3071.111, 0.007842, 0.124172,-1.004448, 0.000062, 0.001254,-0.010019,-0.043518, 0.016621, 0.085321,1, 0.011623,-0.007817, 0.000526,1,-0.010126,-1.303657, 9.719607,1,0
1778778377405,  3071.136,  3071.131,-0.000799, 0.136100,-0.986506, 0.000006, 0.001349,-0.009888, 0.091519,-0.087343,-0.147112,1,-0.005334, 0.003436,-0.001576,1,-0.009521,-1.302775, 9.719726,1,0
1778778377432,  3071.161,  3071.161,-0.001687, 0.135154,-0.981797,-0.000030, 0.001369,-0.009781,-0.026872, 0.021341, 0.091410,1, 0.008228,-0.006444, 0.000676,1,-0.010135,-1.303817, 9.719585,1,0
1778778377454,  3071.186,  3071.181,-0.001877, 0.133246,-0.982777,-0.000006, 0.001327,-0.009845, 0.047090,-0.076854,-0.040041,1,-0.005153, 0.001548,-0.000115,1,-0.009488,-1.303358, 9.719647,1,0
1778778377475,  3071.206,  3071.201,-0.000106, 0.133981,-0.986323,-0.000007, 0.001348,-0.009850,-0.066731, 0.033726, 0.132546,1,-0.001565, 0.001784, 0.000559,1,-0.010302,-1.304454, 9.719500,1,0
1778778377502,  3071.231,  3071.231, 0.009954, 0.130407,-0.991629, 0.000109, 0.001291,-0.009940, 0.087389,-0.025351,-0.005024,1,-0.004400, 0.003225, 0.000020,1,-0.010331,-1.304344, 9.719515,1,0
1778778377524,  3071.256,  3071.251,-0.009680, 0.135156,-0.982365,-0.000116, 0.001355,-0.009790,-0.109328, 0.056702, 0.194433,1, 0.002398,-0.001357, 0.000054,1,-0.010553,-1.304804, 9.719453,1,0
1778778377545,  3071.276,  3071.271, 0.012176, 0.125325,-1.011851, 0.000113, 0.001236,-0.010130, 0.007693,-0.065775,-0.131980,1, 0.009023,-0.006197,-0.000749,1,-0.009219,-1.302931, 9.719706,1,0
1778778377572,  3071.301,  3071.301,-0.002086, 0.141910,-0.970589,-0.000013, 0.001422,-0.009725,-0.031011, 0.086633, 0.201201,1,-0.006463, 0.005557, 0.000400,1,-0.010723,-1.305224, 9.719396,1,0
1778778377594,  3071.326,  3071.321, 0.005912, 0.119808,-1.003601, 0.000063, 0.001196,-0.010027, 0.000225,-0.055627, 0.033053,1, 0.015191,-0.010280,-0.000515,1,-0.009380,-1.303084, 9.719685,1,0
1778778377617,  3071.346,  3071.346,-0.007969, 0.139471,-0.977213,-0.000072, 0.001392,-0.009789,-0.088384, 0.063173, 0.136302,1,-0.009780, 0.006197, 0.000089,1,-0.010425,-1.304869, 9.719444,1,0
1778778377642,  3071.371,  3071.371, 0.009365, 0.131665,-0.997791, 0.000076, 0.001335,-0.009958, 0.082014,-0.012858,-0.065432,1, 0.010246,-0.006313,-0.000159,1,-0.009630,-1.303738, 9.719597,1,0
1778778377664,  3071.396,  3071.391,-0.008332, 0.139752,-0.961645,-0.000066, 0.001389,-0.009637, 0.071392,-0.020001, 0.068712,1,-0.010342, 0.007377, 0.000894,1,-0.010088,-1.304444, 9.719501,1,0
1778778377687,  3071.416,  3071.416,-0.002551, 0.129324,-0.997976,-0.000049, 0.001313,-0.009933,-0.035096,-0.035214,-0.067165,1, 0.014646,-0.010204,-0.000106,1,-0.009766,-1.302995, 9.719696,1,0
1778778377713,  3071.441,  3071.441, 0.008348, 0.129706,-1.006812, 0.000095, 0.001273,-0.010112, 0.072545,-0.031088,-0.153763,1,-0.011682, 0.004168,-0.000630,1,-0.009446,-1.303426, 9.719639,1,0
1778778377734,  3071.466,  3071.461, 0.005604, 0.132421,-0.978157, 0.000038, 0.001347,-0.009744,-0.048079, 0.092820, 0.254434,1,-0.001789, 0.001921, 0.000947,1,-0.010517,-1.305241, 9.719394,1,0
1778778377757,  3071.486,  3071.486, 0.000681, 0.127413,-0.990901, 0.000034, 0.001253,-0.009928,-0.003330,-0.054034, 0.002208,1,-0.002717, 0.004372,-0.001057,1,-0.010134,-1.303615, 9.719613,1,0
1778778377783,  3071.511,  3071.511,-0.013610, 0.139345,-0.982946,-0.000151, 0.001404,-0.009807,-0.144030, 0.062462, 0.080143,1, 0.003640,-0.002850, 0.000079,1,-0.010478,-1.303930, 9.719570,1,0
1778778377804,  3071.536,  3071.531, 0.013826, 0.128757,-0.989023, 0.000164, 0.001263,-0.009936, 0.145843,-0.103159,-0.159776,1, 0.000881,-0.003104,-0.000187,1,-0.009183,-1.302967, 9.719701,1,0
1778778377827,  3071.556,  3071.556,-0.008054, 0.139967,-0.961392,-0.000079, 0.001408,-0.009606,-0.089564, 0.067780, 0.291409,1, 0.002593, 0.001706, 0.000089,1,-0.010631,-1.304747, 9.719460,1,0
1778778377853,  3071.581,  3071.581, 0.002474, 0.122285,-1.003863, 0.000019, 0.001229,-0.010019, 0.014391,-0.103652,-0.124824,1, 0.009445,-0.005914, 0.000024,1,-0.009714,-1.302584, 9.719751,1,0
1778778377874,  3071.601,  3071.601,-0.003750, 0.137684,-0.992730,-0.000031, 0.001366,-0.009956,-0.046807, 0.046689,-0.015730,1,-0.010176, 0.005186, 0.000272,1,-0.010197,-1.303840, 9.719583,1,0
1778778377897,  3071.626,  3071.626, 0.017560, 0.124611,-0.991952, 0.000165, 0.001256,-0.009901, 0.161892,-0.081822,-0.008142,1, 0.006803,-0.001243,-0.000421,1,-0.010272,-1.303631, 9.719610,1,0
1778778377923,  3071.651,  3071.651,-0.007327, 0.137130,-0.976268,-0.000045, 0.001364,-0.009778, 0.112004,-0.054277, 0.007305,1,-0.001495, 0.004050,-0.000792,1,-0.010498,-1.303654, 9.719607,1,0
1778778377944,  3071.676,  3071.671, 0.007381, 0.121396,-1.016080, 0.000057, 0.001232,-0.010134,-0.100063,-0.005115,-0.009211,1, 0.011497,-0.008135,-0.000163,1,-0.010453,-1.303092, 9.719683,1,0
1778778377967,  3071.701,  3071.696, 0.004750, 0.138968,-0.980711, 0.000070, 0.001375,-0.009856, 0.036205, 0.059028, 0.102099,1,-0.017549, 0.010230, 0.000640,1,-0.010696,-1.304327, 9.719517,1,0
1778778377993,  3071.721,  3071.721,-0.001891, 0.136407,-0.965622,-0.000030, 0.001385,-0.009618,-0.029576, 0.033101, 0.249966,1, 0.012252,-0.006193,-0.000183,1,-0.010835,-1.304212, 9.719532,1,0
1778778378014,  3071.746,  3071.741,-0.008018, 0.135693,-0.991817,-0.000059, 0.001334,-0.009958, 0.049243,-0.128617,-0.163357,1, 0.000169, 0.000937,-0.001006,1,-0.009776,-1.302104, 9.719815,1,0
1778778378037,  3071.771,  3071.766,-0.002654, 0.138777,-0.984773,-0.000056, 0.001403,-0.009815,-0.036683, 0.056790, 0.062218,1, 0.005220,-0.006945, 0.000096,1,-0.010438,-1.303990, 9.719562,1,0
1778778378063,  3071.791,  3071.791, 0.019918, 0.122312,-0.998816, 0.000212, 0.001207,-0.010017, 0.185761,-0.103598,-0.075357,1,-0.004320, 0.002586,-0.000231,1,-0.009647,-1.303206, 9.719668,1,0
1778778378085,  3071.816,  3071.811,-0.009318, 0.135926,-0.975564,-0.000112, 0.001377,-0.009703,-0.132759, 0.097272, 0.303149,1,-0.002539, 0.005243,-0.000073,1,-0.011178,-1.304807, 9.719452,1,0
1778778378107,  3071.841,  3071.836, 0.006820, 0.120718,-1.017607, 0.000070, 0.001198,-0.010184, 0.057500,-0.118445,-0.259529,1,-0.002254,-0.001836,-0.000531,1,-0.009325,-1.302352, 9.719783,1,0
1778778378133,  3071.861,  3071.861,-0.006243, 0.145036,-0.971316,-0.000061, 0.001433,-0.009737,-0.071472, 0.117759, 0.194126,1,-0.011874, 0.005479, 0.000070,1,-0.010422,-1.304928, 9.719436,1,0
1778778378155,  3071.886,  3071.881, 0.010830, 0.124442,-0.994230, 0.000113, 0.001246,-0.009938, 0.114860,-0.085854, 0.061584,1, 0.011520,-0.005425,-0.000815,1,-0.009777,-1.303886, 9.719577,1,0
1778778378177,  3071.911,  3071.906,-0.016168, 0.141610,-0.978897,-0.000149, 0.001411,-0.009804,-0.168858, 0.084982, 0.119898,1,-0.004162, 0.002760, 0.000116,1,-0.010393,-1.303865, 9.719579,1,0
1778778378203,  3071.931,  3071.931, 0.005487, 0.126577,-1.002129, 0.000037, 0.001280,-0.010008, 0.044095,-0.061930,-0.107866,1, 0.005833,-0.007174, 0.000476,1,-0.009494,-1.303044, 9.719690,1,0
1778778378225,  3071.956,  3071.951,-0.004566, 0.141766,-0.968061,-0.000038, 0.001410,-0.009698, 0.062893, 0.014459, 0.046822,1,-0.011866, 0.003473,-0.000081,1,-0.009466,-1.304026, 9.719558,1,0
1778778378248,  3071.981,  3071.976, 0.003720, 0.127329,-0.989380, 0.000025, 0.001290,-0.009850, 0.026531,-0.055343, 0.017052,1, 0.012965,-0.006778, 0.000048,1,-0.009778,-1.303621, 9.719612,1,0
1778778378273,  3072.001,  3072.001,-0.000249, 0.131195,-1.001660, 0.000009, 0.001298,-0.010040,-0.011962,-0.016597,-0.103258,1,-0.008809, 0.005194,-0.000598,1,-0.009677,-1.303449, 9.719635,1,0
1778778378295,  3072.026,  3072.021, 0.008508, 0.129491,-0.986870, 0.000068, 0.001313,-0.009842,-0.054348, 0.056799, 0.159164,1,-0.001762,-0.001802,-0.000050,1,-0.010166,-1.304966, 9.719431,1,0
1778778378322,  3072.051,  3072.051, 0.005719, 0.133305,-0.986881, 0.000087, 0.001310,-0.009898, 0.046559, 0.003192, 0.041550,1,-0.008049, 0.005557, 0.000049,1,-0.009693,-1.304329, 9.719518,1,0
1778778378343,  3072.071,  3072.071,-0.011464, 0.138272,-0.972526,-0.000120, 0.001396,-0.009702,-0.122840, 0.051030, 0.182214,1, 0.005490,-0.002853, 0.000650,1,-0.010329,-1.304783, 9.719456,1,0
1778778378365,  3072.096,  3072.091, 0.006588, 0.130428,-1.002833, 0.000079, 0.001280,-0.010072, 0.069425,-0.115197,-0.240782,1, 0.006294,-0.006126, 0.000006,1,-0.008623,-1.302386, 9.719779,1,0
1778778378392,  3072.121,  3072.121,-0.004066, 0.142034,-0.961198,-0.000052, 0.001429,-0.009607,-0.049933, 0.087283, 0.293210,1,-0.002786, 0.000892,-0.000248,1,-0.010081,-1.305685, 9.719335,1,0
1778778378413,  3072.146,  3072.141, 0.002912, 0.127696,-1.002521, 0.000047, 0.001252,-0.010042, 0.102171,-0.122867,-0.105871,1, 0.011509,-0.005549,-0.000711,1,-0.008703,-1.303250, 9.719663,1,0
1778778378435,  3072.166,  3072.161,-0.011870, 0.140678,-0.974639,-0.000134, 0.001418,-0.009734,-0.116976, 0.061842, 0.067969,1,-0.011678, 0.007717, 0.000507,1,-0.009557,-1.304674, 9.719471,1,0
1778778378462,  3072.191,  3072.191, 0.016081, 0.122316,-1.006608, 0.000155, 0.001234,-0.010057, 0.149155,-0.104070,-0.151838,1, 0.006271,-0.004402, 0.000213,1,-0.008409,-1.303389, 9.719645,1,0
1778778378484,  3072.216,  3072.211,-0.010747, 0.141066,-0.962623,-0.000109, 0.001422,-0.009617,-0.042019, 0.059242, 0.196047,1,-0.011289, 0.009404, 0.000050,1,-0.009814,-1.305246, 9.719394,1,0
1778778378505,  3072.236,  3072.231, 0.006122, 0.121630,-1.008843, 0.000056, 0.001226,-0.010074,-0.044286,-0.001816, 0.069949,1, 0.013080,-0.009090, 0.000001,1,-0.009308,-1.304199, 9.719535,1,0
1778778378532,  3072.261,  3072.261,-0.004485, 0.139990,-0.983715,-0.000029, 0.001388,-0.009879,-0.052928, 0.068125, 0.072520,1,-0.015799, 0.007287,-0.000347,1,-0.009168,-1.305196, 9.719401,1,0
1778778378554,  3072.286,  3072.281, 0.011741, 0.122918,-0.998279, 0.000108, 0.001244,-0.009959, 0.023790, 0.015639, 0.128462,1, 0.009751,-0.005805, 0.000415,1,-0.009130,-1.305214, 9.719399,1,0
1778778378575,  3072.306,  3072.301,-0.005430, 0.138485,-0.982631,-0.000039, 0.001374,-0.009847, 0.068040,-0.065176,-0.074645,1,-0.001944, 0.002771,-0.001613,1,-0.008504,-1.303718, 9.719601,1,0
1778778378602,  3072.331,  3072.331,-0.002003, 0.133392,-0.986015,-0.000042, 0.001354,-0.009819,-0.029131, 0.003197, 0.049929,1, 0.009893,-0.006332, 0.000022,1,-0.009288,-1.304625, 9.719478,1,0
1778778378624,  3072.356,  3072.351,-0.000217, 0.137051,-0.982703, 0.000016, 0.001365,-0.009862, 0.093778,-0.072882,-0.148376,1,-0.004203, 0.001342,-0.000930,1,-0.008283,-1.303525, 9.719626,1,0
1778778378645,  3072.376,  3072.371,-0.001365, 0.135479,-0.972441,-0.000027, 0.001371,-0.009685,-0.079981, 0.081667, 0.274884,1,-0.006711, 0.005239, 0.001182,1,-0.009684,-1.305794, 9.719320,1,0
1778778378672,  3072.401,  3072.401, 0.008977, 0.123750,-1.006987, 0.000104, 0.001223,-0.010085, 0.079287,-0.089924,-0.155543,1, 0.000037, 0.001054,-0.000509,1,-0.008776,-1.303498, 9.719629,1,0
1778778378694,  3072.426,  3072.421,-0.003292, 0.136363,-0.978257,-0.000049, 0.001376,-0.009759,-0.117874, 0.080037, 0.184962,1,-0.006286, 0.003558,-0.000383,1,-0.010032,-1.305395, 9.719374,1,0
1778778378715,  3072.446,  3072.441, 0.013188, 0.124372,-1.001989, 0.000142, 0.001226,-0.010043, 0.096630,-0.070917,-0.079394,1, 0.010419,-0.007658,-0.000250,1,-0.008739,-1.303782, 9.719591,1,0
1778778378742,  3072.471,  3072.471,-0.011017, 0.143242,-0.965656,-0.000114, 0.001432,-0.009657,-0.118008, 0.099064, 0.249486,1,-0.003989, 0.003221,-0.000304,1,-0.010063,-1.305780, 9.719322,1,0
1778778378764,  3072.496,  3072.491, 0.011199, 0.122971,-1.012926, 0.000116, 0.001210,-0.010146, 0.057707,-0.091149,-0.159379,1, 0.016067,-0.008493,-0.000631,1,-0.008513,-1.303151, 9.719676,1,0
1778778378785,  3072.516,  3072.511,-0.006656, 0.142364,-0.963674,-0.000068, 0.001425,-0.009648, 0.009856, 0.045348, 0.023465,1,-0.016682, 0.009679,-0.000350,1,-0.009280,-1.304756, 9.719460,1,0
1778778378812,  3072.541,  3072.541, 0.006955, 0.124988,-0.995389, 0.000061, 0.001273,-0.009912, 0.059095,-0.078363,-0.041883,1, 0.016803,-0.009802,-0.000114,1,-0.008807,-1.303555, 9.719622,1,0
1778778378834,  3072.566,  3072.561,-0.012684, 0.141896,-0.973218,-0.000122, 0.001416,-0.009750,-0.045183, 0.014566,-0.004192,1,-0.012817, 0.006131,-0.000550,1,-0.009041,-1.304183, 9.719538,1,0
1778778378857,  3072.586,  3072.586, 0.010848, 0.126535,-0.998419, 0.000098, 0.001283,-0.009967, 0.097440,-0.063369,-0.071614,1, 0.010213,-0.006991,-0.000428,1,-0.008723,-1.303937, 9.719571,1,0
1778778378883,  3072.611,  3072.611, 0.001349, 0.136282,-0.981973, 0.000043, 0.001341,-0.009860, 0.003923, 0.031824, 0.089613,1,-0.011297, 0.007550, 0.000024,1,-0.009543,-1.304999, 9.719427,1,0
1778778378904,  3072.636,  3072.631, 0.005052, 0.126265,-1.002618, 0.000035, 0.001278,-0.009997,-0.074209, 0.028111, 0.145007,1, 0.009048,-0.006221,-0.000055,1,-0.009517,-1.304788, 9.719456,1,0
1778778378927,  3072.656,  3072.656, 0.001263, 0.137189,-0.990752, 0.000028, 0.001351,-0.009942, 0.003639, 0.040997, 0.003556,1,-0.014078, 0.005859,-0.000632,1,-0.008929,-1.304805, 9.719454,1,0
1778778378953,  3072.681,  3072.681,-0.001376, 0.135946,-0.975137,-0.000036, 0.001377,-0.009716,-0.022673, 0.027802, 0.156551,1, 0.007832,-0.004278,-0.000079,1,-0.009044,-1.305130, 9.719411,1,0
1778778378974,  3072.706,  3072.701,-0.002006, 0.136498,-0.986773, 0.000004, 0.001344,-0.009894, 0.091200,-0.093099,-0.126250,1,-0.000126, 0.002450,-0.000895,1,-0.008335,-1.303485, 9.719632,1,0
1778778378997,  3072.726,  3072.726,-0.006881, 0.137441,-0.979566,-0.000083, 0.001373,-0.009760,-0.076878, 0.042696, 0.113146,1, 0.009573,-0.006252,-0.000409,1,-0.009203,-1.304839, 9.719449,1,0
1778778379023,  3072.751,  3072.751, 0.010502, 0.124767,-1.008093, 0.000125, 0.001213,-0.010106, 0.095003,-0.079796,-0.166363,1,-0.002623,-0.001097,-0.001125,1,-0.007947,-1.303427, 9.719640,1,0
1778778379044,  3072.776,  3072.771,-0.000213, 0.135970,-0.972166,-0.000018, 0.001374,-0.009688,-0.091267, 0.102486, 0.267315,1,-0.008347, 0.007272, 0.000083,1,-0.009614,-1.305909, 9.719305,1,0
1778778379067,  3072.796,  3072.796, 0.008027, 0.124243,-1.003432, 0.000090, 0.001230,-0.010054, 0.070085,-0.085533,-0.120734,1,-0.001564, 0.001886,-0.000116,1,-0.008692,-1.303992, 9.719563,1,0
1778778379093,  3072.821,  3072.821,-0.009891, 0.139845,-0.974966,-0.000106, 0.001396,-0.009750,-0.106464, 0.066137, 0.158242,1,-0.002565, 0.001341, 0.000085,1,-0.009512,-1.305358, 9.719379,1,0
1778778379114,  3072.846,  3072.841, 0.010661, 0.127261,-0.997379, 0.000109, 0.001259,-0.009989, 0.086212,-0.055153,-0.068195,1, 0.005705,-0.004909,-0.000632,1,-0.008537,-1.304193, 9.719537,1,0
1778778379137,  3072.866,  3072.866,-0.007607, 0.139086,-0.971868,-0.000078, 0.001396,-0.009720,-0.083863, 0.058605, 0.188604,1,-0.001838, 0.004172, 0.000062,1,-0.009392,-1.305422, 9.719371,1,0
1778778379163,  3072.891,  3072.891, 0.005704, 0.124817,-1.000011, 0.000045, 0.001255,-0.009971, 0.047159,-0.079926,-0.087195,1, 0.009792,-0.004625,-0.000370,1,-0.008635,-1.303657, 9.719608,1,0
1778778379184,  3072.916,  3072.911,-0.007860, 0.142167,-0.968724,-0.000071, 0.001421,-0.009699,-0.008430, 0.035848, 0.042565,1,-0.012976, 0.007075, 0.000011,1,-0.009400,-1.304992, 9.719429,1,0
1778778379207,  3072.941,  3072.936, 0.006084, 0.125578,-0.998039, 0.000054, 0.001274,-0.009953, 0.051134,-0.072658,-0.067877,1, 0.013577,-0.009974, 0.000049,1,-0.008226,-1.303738, 9.719598,1,0
1778778379233,  3072.961,  3072.961, 0.001394, 0.135454,-0.990199, 0.000037, 0.001333,-0.009945, 0.005077, 0.024013, 0.008982,1,-0.014162, 0.010350, 0.000548,1,-0.008919,-1.304771, 9.719459,1,0
1778778379255,  3072.986,  3072.981, 0.007679, 0.126663,-0.995960, 0.000059, 0.001284,-0.009930,-0.048825, 0.043663, 0.176226,1, 0.007275,-0.003914,-0.000345,1,-0.009527,-1.305211, 9.719399,1,0
1778778379277,  3073.011,  3073.006, 0.000672, 0.133888,-0.987857, 0.000024, 0.001319,-0.009910,-0.002456, 0.008836, 0.031971,1,-0.013116, 0.007584, 0.000130,1,-0.009280,-1.304563, 9.719486,1,0
1778778379303,  3073.031,  3073.031,-0.003620, 0.136047,-0.977628,-0.000057, 0.001373,-0.009739,-0.045181, 0.029022, 0.132151,1, 0.006465,-0.004941, 0.000618,1,-0.009534,-1.304947, 9.719435,1,0
1778778379325,  3073.056,  3073.051, 0.001374, 0.135517,-0.987248, 0.000035, 0.001338,-0.009906, 0.113492,-0.098328,-0.164002,1,-0.000882,-0.000584,-0.000796,1,-0.008340,-1.303568, 9.719621,1,0
1778778379347,  3073.081,  3073.076,-0.006277, 0.136263,-0.971744,-0.000073, 0.001382,-0.009679,-0.071199, 0.030763, 0.189808,1, 0.007979,-0.003318, 0.000578,1,-0.009545,-1.305273, 9.719391,1,0
1778778379373,  3073.101,  3073.101, 0.008944, 0.122723,-1.009258, 0.000097, 0.001219,-0.010099, 0.079253,-0.099910,-0.177804,1, 0.001131,-0.001367,-0.001312,1,-0.008412,-1.303374, 9.719646,1,0
1778778379395,  3073.126,  3073.121,-0.003993, 0.137324,-0.975148,-0.000053, 0.001386,-0.009729,-0.103354, 0.079015, 0.190514,1,-0.007501, 0.004564, 0.000500,1,-0.009563,-1.305331, 9.719383,1,0
1778778379418,  3073.151,  3073.146, 0.013273, 0.121610,-1.001401, 0.000141, 0.001214,-0.010029, 0.121904,-0.110968,-0.100770,1,-0.000178,-0.000260,-0.000448,1,-0.008246,-1.303557, 9.719623,1,0
1778778379443,  3073.171,  3073.171,-0.011034, 0.140801,-0.969681,-0.000108, 0.001413,-0.009705,-0.117463, 0.075791, 0.210110,1,-0.003648, 0.003629, 0.000163,1,-0.009365,-1.305105, 9.719414,1,0
1778778379465,  3073.196,  3073.191, 0.011216, 0.124651,-1.010257, 0.000103, 0.001241,-0.010109, 0.053910,-0.078069,-0.118170,1, 0.011092,-0.009242,-0.000892,1,-0.008077,-1.303250, 9.719664,1,0
1778778379488,  3073.221,  3073.216,-0.005192, 0.140852,-0.968690,-0.000050, 0.001406,-0.009699,-0.060269, 0.075980, 0.219778,1,-0.007097, 0.007305, 0.001055,1,-0.009579,-1.305528, 9.719357,1,0
1778778379513,  3073.241,  3073.241, 0.007567, 0.126681,-0.994181, 0.000067, 0.001281,-0.009906, 0.065281,-0.061879,-0.030051,1, 0.012092,-0.006395, 0.000178,1,-0.008725,-1.303826, 9.719585,1,0
1778778379535,  3073.266,  3073.261,-0.012823, 0.142762,-0.971218,-0.000115, 0.001427,-0.009730,-0.016754, 0.013888, 0.030051,1,-0.012774, 0.005928, 0.000579,1,-0.009124,-1.304682, 9.719470,1,0
1778778379562,  3073.291,  3073.291, 0.006987, 0.127168,-1.000139, 0.000061, 0.001285,-0.009978, 0.060025,-0.057233,-0.088491,1, 0.011636,-0.010334,-0.000302,1,-0.008172,-1.303968, 9.719567,1,0
1778778379583,  3073.311,  3073.311, 0.003209, 0.136010,-0.988676, 0.000054, 0.001336,-0.009934, 0.023158, 0.029207, 0.023887,1,-0.013954, 0.007595,-0.000089,1,-0.008548,-1.305026, 9.719425,1,0
1778778379605,  3073.336,  3073.331, 0.005876, 0.127038,-0.993752, 0.000043, 0.001284,-0.009907,-0.066731, 0.050668, 0.215300,1, 0.006015,-0.002860, 0.000749,1,-0.009237,-1.305594, 9.719348,1,0
1778778379632,  3073.361,  3073.361,-0.002022, 0.134299,-0.992517,-0.000004, 0.001320,-0.009961,-0.028301, 0.012756,-0.013744,1,-0.011554, 0.005536,-0.000240,1,-0.008639,-1.304630, 9.719478,1,0
1778778379654,  3073.386,  3073.381, 0.011344, 0.127529,-0.998807, 0.000092, 0.001291,-0.009959,-0.042058, 0.043203, 0.103420,1, 0.004706,-0.003390, 0.000442,1,-0.008870,-1.305160, 9.719406,1,0
1778778379675,  3073.406,  3073.401, 0.003613, 0.134946,-0.982826, 0.000059, 0.001335,-0.009861, 0.146751,-0.093733,-0.111531,1,-0.002524, 0.002521,-0.000181,1,-0.008363,-1.304203, 9.719536,1,0
1778778379702,  3073.431,  3073.431,-0.008893, 0.135190,-0.975119,-0.000101, 0.001368,-0.009710,-0.096643, 0.020506, 0.156743,1, 0.011031,-0.005188,-0.000137,1,-0.009270,-1.304914, 9.719440,1,0
1778778379724,  3073.456,  3073.451,-0.000090, 0.136530,-0.991777, 0.000025, 0.001347,-0.009959, 0.078608,-0.102294,-0.196275,1,-0.002498,-0.001179,-0.000847,1,-0.008074,-1.303398, 9.719644,1,0
1778778379745,  3073.476,  3073.471,-0.001072, 0.136625,-0.973475,-0.000026, 0.001378,-0.009710,-0.082404, 0.088643, 0.209157,1,-0.008877, 0.003956, 0.001059,1,-0.009294,-1.306002, 9.719293,1,0
1778778379772,  3073.501,  3073.501, 0.010135, 0.122365,-1.001482, 0.000114, 0.001210,-0.010032, 0.091403,-0.104007,-0.101617,1,-0.000693, 0.001172,-0.000184,1,-0.008024,-1.304016, 9.719561,1,1
1778778379794,  3073.526,  3073.521,-0.005711, 0.137401,-0.980288,-0.000079, 0.001385,-0.009766,-0.125643, 0.087378, 0.204067,1,-0.006401, 0.003930, 0.000817,1,-0.009318,-1.306127, 9.719276,1,1
1778778379815,  3073.546,  3073.541, 0.011188, 0.123958,-1.007709, 0.000113, 0.001229,-0.010090, 0.059512,-0.072842,-0.112772,1, 0.011697,-0.009719,-0.000952,1,-0.007837,-1.304556, 9.719488,1,1
1778778379842,  3073.571,  3073.571,-0.007243, 0.141483,-0.968320,-0.000073, 0.001418,-0.009694,-0.079641, 0.081209, 0.223277,1,-0.005694, 0.005068, 0.001226,1,-0.008770,-1.306444, 9.719234,1,1
1778778379864,  3073.596,  3073.591, 0.009953, 0.123874,-1.001930, 0.000110, 0.001231,-0.010029, 0.075616,-0.067904,-0.044601,1, 0.011141,-0.004692,-0.000240,1,-0.008071,-1.304689, 9.719470,1,1
1778778379885,  3073.616,  3073.611,-0.011639, 0.140212,-0.972807,-0.000110, 0.001411,-0.009728,-0.030812, 0.028747, 0.051986,1,-0.009842, 0.007080,-0.000405,1,-0.008791,-1.305443, 9.719369,1,1
1778778379912,  3073.641,  3073.641, 0.008341, 0.125839,-1.001084, 0.000072, 0.001275,-0.009990, 0.073676,-0.070591,-0.097804,1, 0.007224,-0.006986,-0.000441,1,-0.007899,-1.304426, 9.719506,1,1
1778778379934,  3073.666,  3073.661,-0.007910, 0.142753,-0.967780,-0.000074, 0.001429,-0.009692,-0.002322, 0.051038, 0.071405,1,-0.013219, 0.007344, 0.000169,1,-0.008476,-1.305993, 9.719296,1,1
1778778379955,  3073.686,  3073.681, 0.003666, 0.125576,-0.998207, 0.000032, 0.001269,-0.009965,-0.047745, 0.028009, 0.127104,1, 0.009097,-0.006369,-0.000106,1,-0.008544,-1.305802, 9.719320,1,1
1778778379982,  3073.711,  3073.711,-0.002204, 0.135895,-0.989154,-0.000009, 0.001342,-0.009924,-0.029610, 0.027557, 0.019126,1,-0.011680, 0.006785,-0.000667,1,-0.008201,-1.305479, 9.719364,1,1
1778778380004,  3073.736,  3073.731, 0.010819, 0.125555,-0.996285, 0.000094, 0.001267,-0.009934, 0.000308, 0.031967, 0.118169,1, 0.005182,-0.002275, 0.000581,1,-0.008680,-1.306039, 9.719289,1,1
1778778380026,  3073.756,  3073.751,-0.001590, 0.135796,-0.984641, 0.000002, 0.001347,-0.009868, 0.097597,-0.072239,-0.093398,1, 0.001091, 0.000917,-0.000931,1,-0.008159,-1.304772, 9.719460,1,1
1778778380053,  3073.781,  3073.781,-0.006228, 0.134493,-0.980961,-0.000081, 0.001360,-0.009770,-0.070068, 0.013269, 0.099399,1, 0.008652,-0.005751, 0.000322,1,-0.008825,-1.305403, 9.719374,1,1
1778778380074,  3073.806,  3073.801, 0.003122, 0.135958,-0.985332, 0.000053, 0.001348,-0.009894, 0.109645,-0.088791,-0.174549,1,-0.004375, 0.003648,-0.000106,1,-0.008234,-1.304316, 9.719521,1,1
1778778380097,  3073.826,  3073.826,-0.003443, 0.135454,-0.972347,-0.000047, 0.001371,-0.009694,-0.042999, 0.022421, 0.183838,1, 0.010725,-0.007487,-0.000456,1,-0.008998,-1.305595, 9.719348,1,1
1778778380123,  3073.851,  3073.851, 0.008789, 0.122224,-1.003692, 0.000102, 0.001209,-0.010062, 0.078246,-0.105495,-0.123303,1,-0.003218, 0.000073,-0.000711,1,-0.007946,-1.304198, 9.719537,1,1
1778778380144,  3073.876,  3073.871,-0.003594, 0.136529,-0.979964,-0.000060, 0.001376,-0.009766,-0.116935, 0.089888, 0.210591,1,-0.004968, 0.003314, 0.000634,1,-0.009321,-1.306428, 9.719235,1,1
1778778380167,  3073.896,  3073.896, 0.012896, 0.123297,-1.006158, 0.000133, 0.001217,-0.010085, 0.118881,-0.095069,-0.147500,1,-0.003134, 0.001762,-0.000617,1,-0.007638,-1.304293, 9.719523,1,1
1778778380193,  3073.921,  3073.921,-0.009961, 0.141545,-0.965057,-0.000100, 0.001420,-0.009654,-0.106688, 0.081719, 0.255269,1,-0.005661, 0.005724, 0.001081,1,-0.009181,-1.306536, 9.719221,1,1
1778778380214,  3073.946,  3073.941, 0.008580, 0.122493,-1.009276, 0.000096, 0.001214,-0.010104, 0.067633,-0.085248,-0.099979,1, 0.014010,-0.008664,-0.000455,1,-0.007940,-1.304343, 9.719517,1,1
1778778380237,  3073.966,  3073.966,-0.008818, 0.141072,-0.971102,-0.000090, 0.001414,-0.009717,-0.095134, 0.077278, 0.196016,1,-0.007313, 0.003844,-0.000096,1,-0.008775,-1.306395, 9.719241,1,1
1778778380263,  3073.991,  3073.991, 0.009842, 0.126430,-0.996993, 0.000087, 0.001282,-0.009948, 0.088548,-0.065486,-0.057780,1, 0.008403,-0.004689, 0.000123,1,-0.007822,-1.305081, 9.719419,1,1
1778778380284,  3074.016,  3074.011,-0.012786, 0.140690,-0.973392,-0.000120, 0.001411,-0.009743,-0.035676, 0.028729, 0.078404,1,-0.007033, 0.005151,-0.000659,1,-0.008449,-1.305757, 9.719327,1,1
1778778380307,  3074.036,  3074.036, 0.007733, 0.124962,-1.002459, 0.000064, 0.001257,-0.010010, 0.067882,-0.079078,-0.111270,1, 0.006684,-0.005072,-0.000534,1,-0.007798,-1.304334, 9.719519,1,1
1778778380333,  3074.061,  3074.061, 0.001312, 0.139391,-0.981158, 0.000030, 0.001374,-0.009845, 0.004459, 0.061317, 0.097467,1,-0.012526, 0.007101,-0.000242,1,-0.008630,-1.306028, 9.719290,1,1
1778778380355,  3074.086,  3074.081, 0.006176, 0.124476,-0.999539, 0.000051, 0.001251,-0.009970,-0.029659, 0.020834, 0.127433,1, 0.010547,-0.005626,-0.000408,1,-0.008472,-1.305634, 9.719343,1,1
1778778380377,  3074.106,  3074.106,-0.001917, 0.136240,-0.988374,-0.000009, 0.001350,-0.009908,-0.026991, 0.031021, 0.026784,1,-0.012030, 0.008040,-0.000012,1,-0.008435,-1.305410, 9.719374,1,1
1778778380403,  3074.131,  3074.131, 0.000230, 0.135685,-0.977673,-0.000016, 0.001371,-0.009742,-0.006505, 0.024647, 0.131602,1, 0.007040,-0.005293, 0.000183,1,-0.008597,-1.305755, 9.719327,1,1
1778778380425,  3074.156,  3074.151,-0.002906, 0.135555,-0.983399,-0.000000, 0.001339,-0.009862, 0.092278,-0.080792,-0.100540,1,-0.001408, 0.001695,-0.000647,1,-0.007735,-1.304465, 9.719501,1,1
1778778380447,  3074.181,  3074.176,-0.004736, 0.135136,-0.981990,-0.000066, 0.001370,-0.009784,-0.055016, 0.019388, 0.089283,1, 0.007794,-0.005775, 0.001012,1,-0.008410,-1.305611, 9.719346,1,1
1778778380473,  3074.201,  3074.201, 0.012277, 0.125141,-1.003567, 0.000136, 0.001231,-0.010065, 0.112545,-0.077341,-0.122144,1,-0.004114, 0.002996,-0.000079,1,-0.007945,-1.304686, 9.719471,1,1
1778778380495,  3074.226,  3074.221,-0.004682, 0.134085,-0.978818,-0.000063, 0.001354,-0.009753,-0.117846, 0.082925, 0.245007,1,-0.001121, 0.002900, 0.000107,1,-0.009141,-1.306040, 9.719288,1,1
1778778380518,  3074.251,  3074.246, 0.009103, 0.123981,-1.006626, 0.000098, 0.001221,-0.010090, 0.081321,-0.088080,-0.152055,1,-0.004743, 0.002738,-0.000243,1,-0.008037,-1.304062, 9.719555,1,1
1778778380543,  3074.271,  3074.271,-0.008375, 0.141837,-0.970515,-0.000091, 0.001421,-0.009705,-0.091273, 0.085018, 0.201802,1,-0.003715, 0.001964, 0.000348,1,-0.009202,-1.306039, 9.719288,1,1
1778778380565,  3074.296,  3074.291, 0.009572, 0.126147,-1.000521, 0.000110, 0.001233,-0.010023, 0.092942,-0.092666,-0.116592,1, 0.009864,-0.005051,-0.000643,1,-0.008009,-1.304071, 9.719553,1,1
1778778380588,  3074.321,  3074.316,-0.009530, 0.140364,-0.967169,-0.000103, 0.001416,-0.009664,-0.102776, 0.070388, 0.234588,1,-0.002134, 0.002878, 0.000902,1,-0.009410,-1.306182, 9.719269,1,1
1778778380613,  3074.341,  3074.341, 0.009381, 0.123637,-1.005204, 0.000086, 0.001250,-0.010031, 0.083827,-0.092057,-0.138190,1, 0.009236,-0.006090,-0.000884,1,-0.007980,-1.304233, 9.719532,1,1
1778778380635,  3074.366,  3074.361,-0.010801, 0.142299,-0.967131,-0.000103, 0.001428,-0.009677,-0.038569, 0.050737, 0.098488,1,-0.011355, 0.006601,-0.000781,1,-0.008732,-1.305722, 9.719331,1,1
1778778380658,  3074.391,  3074.386, 0.009327, 0.123056,-0.999874, 0.000091, 0.001241,-0.009989, 0.083476,-0.097735,-0.085916,1, 0.008811,-0.004217, 0.000139,1,-0.007857,-1.304227, 9.719533,1,1
1778778380683,  3074.411,  3074.411,-0.004548, 0.137973,-0.982105,-0.000026, 0.001369,-0.009845,-0.053220, 0.047947, 0.088254,1,-0.007977, 0.006301,-0.000405,1,-0.008810,-1.305355, 9.719380,1,1
1778778380705,  3074.436,  3074.431, 0.012184, 0.125021,-1.001075, 0.000117, 0.001251,-0.010001, 0.019709,-0.001801, 0.030026,1, 0.007746,-0.004488, 0.000295,1,-0.008744,-1.304764, 9.719460,1,1
1778778380728,  3074.461,  3074.456,-0.004324, 0.139582,-0.975343,-0.000032, 0.001388,-0.009775,-0.051357, 0.063422, 0.154520,1,-0.009188, 0.005933, 0.000169,1,-0.009139,-1.305697, 9.719335,1,1
1778778380753,  3074.481,  3074.481,-0.003425, 0.132889,-0.990722,-0.000057, 0.001345,-0.009863,-0.042140,-0.001769, 0.003765,1, 0.012651,-0.009385,-0.000239,1,-0.008264,-1.304572, 9.719486,1,1
1778778380775,  3074.506,  3074.501,-0.002992, 0.140529,-0.980842,-0.000012, 0.001397,-0.009842, 0.083153,-0.050252,-0.145853,1,-0.008967, 0.005895,-0.000515,1,-0.007997,-1.304153, 9.719543,1,1
1778778380802,  3074.531,  3074.531, 0.002852, 0.131347,-0.977629, 0.000007, 0.001333,-0.009736, 0.018911,-0.017198, 0.132122,1, 0.012990,-0.005901, 0.000133,1,-0.008871,-1.304870, 9.719445,1,1
1778778380824,  3074.551,  3074.551, 0.003361, 0.125843,-0.997790, 0.000063, 0.001228,-0.010010, 0.024648,-0.069694,-0.065384,1,-0.006640, 0.004561,-0.001443,1,-0.008447,-1.304002, 9.719563,1,1
1778778380845,  3074.576,  3074.571, 0.002662, 0.132565,-0.994932, 0.000005, 0.001338,-0.009919,-0.123134, 0.069052, 0.165333,1, 0.001582,-0.001920, 0.000725,1,-0.009210,-1.305188, 9.719402,1,1
1778778380872,  3074.601,  3074.601, 0.010676, 0.130555,-0.992292, 0.000130, 0.001276,-0.009965, 0.096369,-0.024118,-0.011551,1,-0.011185, 0.006598,-0.000398,1,-0.008531,-1.304766, 9.719460,1,1
1778778380894,  3074.626,  3074.621, 0.000382, 0.129531,-0.987916,-0.000013, 0.001309,-0.009835,-0.052746, 0.066656, 0.228687,1,-0.008702, 0.008215, 0.000368,1,-0.009391,-1.305798, 9.719320,1,1
1778778380915,  3074.646,  3074.641, 0.004036, 0.129785,-1.000702, 0.000056, 0.001267,-0.010037, 0.075977,-0.119885,-0.172919,1, 0.005512,-0.004382,-0.001098,1,-0.008217,-1.303231, 9.719666,1,1
1778778380942,  3074.671,  3074.671,-0.004408, 0.139231,-0.974220,-0.000063, 0.001408,-0.009718,-0.052148, 0.059992, 0.165543,1, 0.001274,-0.003526, 0.001043,1,-0.008817,-1.305363, 9.719379,1,1
1778778380964,  3074.696,  3074.691, 0.003486, 0.131104,-0.988638, 0.000063, 0.001287,-0.009918, 0.121456,-0.107125,-0.101282,1, 0.002688,-0.000929,-0.000594,1,-0.007727,-1.303868, 9.719581,1,1
1778778380985,  3074.716,  3074.711,-0.009500, 0.138867,-0.975704,-0.000109, 0.001403,-0.009727,-0.109313, 0.072056, 0.192591,1,-0.006213, 0.005701, 0.000560,1,-0.008887,-1.305490, 9.719362,1,1
1778778381012,  3074.741,  3074.741, 0.010643, 0.122791,-1.007901, 0.000110, 0.001233,-0.010088, 0.096461,-0.099621,-0.164537,1, 0.001716,-0.001445,-0.000732,1,-0.007865,-1.303733, 9.719599,1,1
1778778381034,  3074.766,  3074.761,-0.005660, 0.138994,-0.971825,-0.000067, 0.001400,-0.009697,-0.087454, 0.088695, 0.195148,1,-0.006371, 0.003598, 0.000258,1,-0.008778,-1.305420, 9.719372,1,1
1778778381055,  3074.786,  3074.781, 0.011318, 0.122219,-1.005454, 0.000114, 0.001216,-0.010059, 0.049183,-0.043196,-0.024597,1, 0.012330,-0.006586, 0.000327,1,-0.007906,-1.303874, 9.719580,1,1
1778778381082,  3074.811,  3074.811,-0.008739, 0.141339,-0.975696,-0.000083, 0.001409,-0.009773,-0.094817, 0.081093, 0.151123,1,-0.006403, 0.006004,-0.000000,1,-0.009298,-1.305165, 9.719405,1,1
1778778381104,  3074.836,  3074.831, 0.010253, 0.122951,-1.002015, 0.000101, 0.001224,-0.010024, 0.045361,-0.059600,-0.040459,1, 0.008917,-0.006272,-0.000456,1,-0.008555,-1.303941, 9.719570,1,1
1778778381126,  3074.856,  3074.851,-0.007120, 0.141470,-0.970629,-0.000066, 0.001414,-0.009711, 0.010644, 0.007996, 0.041155,1,-0.012415, 0.006137,-0.000162,1,-0.008812,-1.305012, 9.719426,1,1
1778778381153,  3074.881,  3074.881,-0.003806, 0.136388,-0.976341,-0.000056, 0.001382,-0.009720, 0.059825,-0.063876,-0.073520,1, 0.010612,-0.006094, 0.000215,1,-0.008434,-1.304489, 9.719497,1,1
1778778381174,  3074.906,  3074.901,-0.009890, 0.142196,-0.967458,-0.000089, 0.001420,-0.009694, 0.003913, 0.018778, 0.034090,1,-0.012812, 0.008256,-0.000203,1,-0.009115,-1.305490, 9.719362,1,1
1778778381196,  3074.926,  3074.921, 0.006605, 0.126072,-0.995566, 0.000050, 0.001275,-0.009928,-0.067866, 0.036432, 0.187572,1, 0.006105,-0.003706, 0.001222,1,-0.009574,-1.305953, 9.719299,1,1
1778778381223,  3074.951,  3074.951, 0.001376, 0.135418,-0.989227, 0.000040, 0.001330,-0.009937, 0.004627, 0.022946, 0.018420,1,-0.011860, 0.006614,-0.000656,1,-0.009073,-1.305416, 9.719372,1,1
1778778381244,  3074.976,  3074.971, 0.008969, 0.127063,-0.999320, 0.000076, 0.001287,-0.009968,-0.031281, 0.044823, 0.146725,1, 0.008648,-0.007322,-0.000172,1,-0.008927,-1.305492, 9.719362,1,1
1778778381266,  3074.996,  3074.991,-0.000813, 0.135525,-0.983920, 0.000013, 0.001333,-0.009874, 0.110043,-0.099764,-0.118057,1,-0.002915, 0.001747,-0.001264,1,-0.008019,-1.304234, 9.719532,1,1
1778778381293,  3075.021,  3075.021,-0.004984, 0.134842,-0.982468,-0.000076, 0.001360,-0.009779,-0.057648, 0.016975, 0.084660,1, 0.009737,-0.006743,-0.000659,1,-0.008561,-1.305073, 9.719419,1,1
1778778381314,  3075.046,  3075.041,-0.001014, 0.136907,-0.983889, 0.000009, 0.001354,-0.009872, 0.094391,-0.082544,-0.153020,1,-0.006337, 0.002285,-0.000789,1,-0.007740,-1.304345, 9.719517,1,1
1778778381337,  3075.066,  3075.066,-0.003026, 0.134408,-0.978431,-0.000046, 0.001361,-0.009743,-0.038304, 0.012239, 0.124185,1, 0.009264,-0.007058, 0.000337,1,-0.008410,-1.305563, 9.719353,1,1
1778778381363,  3075.091,  3075.091, 0.007784, 0.124342,-1.003224, 0.000093, 0.001228,-0.010057, 0.068703,-0.084947,-0.118742,1,-0.003719, 0.001775,-0.000931,1,-0.007685,-1.304436, 9.719504,1,1
1778778381384,  3075.116,  3075.111,-0.000660, 0.134525,-0.979406,-0.000023, 0.001358,-0.009771,-0.102610, 0.087079, 0.208696,1,-0.004417, 0.002430, 0.001289,1,-0.008694,-1.306335, 9.719249,1,1
1778778381407,  3075.136,  3075.136, 0.009427, 0.125562,-0.997084, 0.000109, 0.001239,-0.009999, 0.084811,-0.073537,-0.058607,1,-0.003865, 0.001340,-0.000417,1,-0.007677,-1.305004, 9.719429,1,1
1778778381433,  3075.161,  3075.161,-0.008476, 0.140533,-0.973149,-0.000092, 0.001409,-0.009725,-0.091571, 0.072087, 0.175947,1,-0.000706, 0.001542, 0.000364,1,-0.008500,-1.306097, 9.719281,1,1
1778778381454,  3075.186,  3075.181, 0.010427, 0.127244,-1.000948, 0.000110, 0.001253,-0.010029, 0.074513,-0.073622,-0.111747,1, 0.005059,-0.004588,-0.000171,1,-0.007450,-1.304752, 9.719462,1,1
1778778381477,  3075.206,  3075.206,-0.007331, 0.141173,-0.971813,-0.000075, 0.001416,-0.009714,-0.080246, 0.077965, 0.189004,1,-0.001886, 0.002178, 0.000112,1,-0.008417,-1.306532, 9.719223,1,1
1778778381503,  3075.231,  3075.231, 0.007064, 0.124972,-1.000667, 0.000061, 0.001264,-0.009976, 0.061567,-0.079576,-0.093783,1, 0.008180,-0.004030,-0.000529,1,-0.007578,-1.304879, 9.719445,1,1
1778778381525,  3075.256,  3075.251,-0.009242, 0.141531,-0.970842,-0.000093, 0.001422,-0.009713,-0.034938, 0.054604, 0.061476,1,-0.009921, 0.007164,-0.000078,1,-0.008397,-1.306156, 9.719274,1,1
1778778381547,  3075.276,  3075.276, 0.008969, 0.123906,-1.001447, 0.000084, 0.001251,-0.010000, 0.080280,-0.089570,-0.101366,1, 0.010400,-0.006375,-0.000770,1,-0.007479,-1.304351, 9.719516,1,1
1778778381573,  3075.301,  3075.301,-0.000138, 0.138417,-0.980429, 0.000020, 0.001367,-0.009842,-0.009600, 0.051938, 0.104642,1,-0.013696, 0.008606, 0.000294,1,-0.008516,-1.305890, 9.719309,1,1
1778778381595,  3075.326,  3075.321, 0.007667, 0.124580,-1.003651, 0.000060, 0.001256,-0.010006,-0.050436, 0.021784, 0.138673,1, 0.011452,-0.007861,-0.000500,1,-0.008402,-1.305540, 9.719356,1,1
1778778381617,  3075.346,  3075.346,-0.002408, 0.137551,-0.985146,-0.000011, 0.001357,-0.009885,-0.031659, 0.043557, 0.058398,1,-0.014754, 0.008788,-0.000332,1,-0.008313,-1.305815, 9.719319,1,1
1778778381643,  3075.371,  3075.371,-0.001420, 0.135674,-0.979759,-0.000039, 0.001373,-0.009754,-0.022350, 0.024615, 0.111151,1, 0.010884,-0.006372,-0.000268,1,-0.008225,-1.305559, 9.719354,1,1
1778778381665,  3075.396,  3075.391,-0.002108, 0.134984,-0.979952, 0.000002, 0.001340,-0.009826, 0.112045,-0.093844,-0.107381,1,-0.005562, 0.004136,-0.000789,1,-0.007786,-1.304718, 9.719467,1,1
1778778381688,  3075.421,  3075.416,-0.005630, 0.134638,-0.982220,-0.000074, 0.001362,-0.009778,-0.063951, 0.014703, 0.087057,1, 0.010387,-0.006823, 0.000375,1,-0.008528,-1.305327, 9.719384,1,1
1778778381713,  3075.441,  3075.441, 0.009938, 0.125117,-1.005331, 0.000110, 0.001231,-0.010083, 0.089711,-0.077503,-0.139433,1,-0.006937, 0.002486,-0.001034,1,-0.007817,-1.304698, 9.719469,1,1
1778778381735,  3075.466,  3075.461,-0.002303, 0.135214,-0.978758,-0.000036, 0.001365,-0.009760,-0.086783, 0.074430, 0.232552,1,-0.002162, 0.002607, 0.001059,1,-0.009003,-1.306438, 9.719234,1,1
1778778381758,  3075.491,  3075.486, 0.009518, 0.124092,-1.000695, 0.000107, 0.001226,-0.010034, 0.085168,-0.087578,-0.093973,1,-0.003949, 0.002998,-0.001136,1,-0.008262,-1.304632, 9.719478,1,1
1778778381783,  3075.511,  3075.511,-0.009958, 0.141745,-0.971090,-0.000101, 0.001416,-0.009713,-0.106964, 0.084051, 0.196157,1,-0.002127, 0.001577, 0.000426,1,-0.009364,-1.306057, 9.719286,1,1
1778778381805,  3075.536,  3075.531, 0.011034, 0.124813,-1.002524, 0.000114, 0.001235,-0.010038, 0.074261,-0.069158,-0.098659,1, 0.007372,-0.005681,-0.000228,1,-0.008232,-1.304520, 9.719493,1,1
1778778381828,  3075.561,  3075.556,-0.007503, 0.142051,-0.970822,-0.000075, 0.001422,-0.009710,-0.082754, 0.086815, 0.198752,1,-0.002322, 0.003877, 0.000063,1,-0.009300,-1.306304, 9.719253,1,1
1778778381853,  3075.581,  3075.581, 0.006396, 0.125908,-0.997962, 0.000051, 0.001279,-0.009956, 0.054164,-0.070196,-0.067229,1, 0.009711,-0.005463, 0.000575,1,-0.008400,-1.304626, 9.719479,1,1
1778778381875,  3075.606,  3075.601,-0.009272, 0.140837,-0.972649,-0.000086, 0.001411,-0.009737,-0.014904, 0.012933, 0.051270,1,-0.009148, 0.005998,-0.000868,1,-0.008955,-1.305454, 9.719367,1,1
1778778381898,  3075.631,  3075.626, 0.008096, 0.125966,-0.998154, 0.000071, 0.001276,-0.009963, 0.070917,-0.069589,-0.069101,1, 0.008822,-0.006778,-0.000141,1,-0.008265,-1.304621, 9.719480,1,1
1778778381924,  3075.651,  3075.651,-0.000651, 0.137520,-0.984789, 0.000017, 0.001357,-0.009889,-0.015069, 0.043106, 0.061881,1,-0.011924, 0.007018, 0.000032,1,-0.008906,-1.305871, 9.719311,1,1
1778778381945,  3075.676,  3075.671, 0.006440, 0.125122,-1.002373, 0.000044, 0.001269,-0.009997,-0.082645, 0.035937, 0.138528,1, 0.009245,-0.006439, 0.000416,1,-0.008880,-1.305677, 9.719337,1,1
1778778381968,  3075.701,  3075.696, 0.002559, 0.136197,-0.985306, 0.000044, 0.001341,-0.009894, 0.016260, 0.030421, 0.056845,1,-0.014306, 0.009286,-0.000283,1,-0.009118,-1.305662, 9.719338,1,1
1778778381994,  3075.721,  3075.721,-0.002366, 0.136187,-0.971847,-0.000051, 0.001375,-0.009670,-0.032615, 0.029586, 0.188737,1, 0.010494,-0.007055,-0.000050,1,-0.009194,-1.305625, 9.719344,1,1
1778778382015,  3075.746,  3075.741,-0.003179, 0.135970,-0.986744,-0.000008, 0.001342,-0.009900, 0.107244,-0.116000,-0.155630,1,-0.003788, 0.000180,-0.000744,1,-0.008009,-1.304210, 9.719535,1,1
1778778382042,  3075.771,  3075.771,-0.005628, 0.136914,-0.983850,-0.000078, 0.001384,-0.009792,-0.063704, 0.036614, 0.071013,1, 0.007323,-0.009367, 0.000104,1,-0.008224,-1.305825, 9.719317,1,1
1778778382064,  3075.791,  3075.791, 0.012821, 0.123175,-1.003712, 0.000143, 0.001220,-0.010071, 0.118227,-0.097105,-0.123630,1,-0.007030, 0.003526,-0.000604,1,-0.007608,-1.305254, 9.719395,1,1
1778778382085,  3075.816,  3075.811,-0.003455, 0.135768,-0.980155,-0.000052, 0.001370,-0.009765,-0.108031, 0.070603, 0.250750,1,-0.001190, 0.004091, 0.001124,1,-0.009099,-1.306875, 9.719176,1,1
1778778382112,  3075.841,  3075.841, 0.008455, 0.125270,-1.000792, 0.000101, 0.001233,-0.010039, 0.074636,-0.076735,-0.095013,1,-0.005318, 0.001578,-0.000677,1,-0.008324,-1.305376, 9.719378,1,1
1778778382134,  3075.866,  3075.861, 0.000672, 0.134799,-0.985528,-0.000019, 0.001362,-0.009818,-0.099840, 0.079417, 0.198632,1,-0.000450,-0.000454, 0.000448,1,-0.008828,-1.306650, 9.719207,1,1
1778778382155,  3075.886,  3075.881, 0.010609, 0.127336,-0.997343, 0.000119, 0.001254,-0.009996, 0.115209,-0.090397,-0.104510,1, 0.005280,-0.003943,-0.000437,1,-0.007812,-1.305254, 9.719395,1,1
1778778382182,  3075.911,  3075.911,-0.010286, 0.140091,-0.971044,-0.000108, 0.001412,-0.009697,-0.109546, 0.067144, 0.196510,1, 0.002017,-0.000166,-0.000738,1,-0.008663,-1.306614, 9.719212,1,1
1778778382204,  3075.936,  3075.931, 0.006918, 0.127219,-0.999676, 0.000086, 0.001249,-0.010020, 0.068816,-0.098079,-0.128864,1, 0.003980,-0.004210,-0.000456,1,-0.007516,-1.305143, 9.719410,1,1
1778778382226,  3075.956,  3075.951,-0.007406, 0.141374,-0.971908,-0.000078, 0.001428,-0.009709,-0.050432, 0.058853, 0.107721,1,-0.010543, 0.006374,-0.000109,1,-0.008418,-1.307020, 9.719157,1,1
1778778382252,  3075.981,  3075.981, 0.010653, 0.123466,-1.002312, 0.000111, 0.001242,-0.010017, 0.096780,-0.094651,-0.109952,1, 0.007105,-0.002551,-0.000268,1,-0.007619,-1.305222, 9.719399,1,1
1778778382274,  3076.006,  3076.001,-0.008433, 0.139001,-0.970716,-0.000091, 0.001397,-0.009697,-0.059662, 0.033210, 0.136862,1,-0.007573, 0.007147, 0.000439,1,-0.008855,-1.306574, 9.719216,1,1
1778778382296,  3076.026,  3076.021, 0.009602, 0.123458,-1.004586, 0.000092, 0.001234,-0.010041,-0.009735,-0.016981, 0.024644,1, 0.009619,-0.008333, 0.000211,1,-0.008192,-1.305639, 9.719343,1,1
1778778382323,  3076.051,  3076.051,-0.004453, 0.140241,-0.978861,-0.000034, 0.001398,-0.009813,-0.051826, 0.068347, 0.119817,1,-0.011102, 0.006046, 0.000701,1,-0.008345,-1.307288, 9.719121,1,1
1778778382344,  3076.076,  3076.071, 0.008827, 0.125379,-1.000564, 0.000081, 0.001256,-0.009997, 0.010153,-0.009087, 0.019602,1, 0.008576,-0.005500,-0.000716,1,-0.007885,-1.306761, 9.719193,1,1
1778778382366,  3076.096,  3076.091,-0.006641, 0.138410,-0.976706,-0.000055, 0.001384,-0.009784, 0.038070,-0.017375,-0.025486,1,-0.007354, 0.005378,-0.000872,1,-0.007983,-1.306794, 9.719188,1,1
1778778382393,  3076.121,  3076.121, 0.002519, 0.130093,-0.991400, 0.000007, 0.001320,-0.009877, 0.016497,-0.030702,-0.003085,1, 0.010891,-0.006305,-0.000027,1,-0.008013,-1.306142, 9.719275,1,1
1778778382414,  3076.146,  3076.141,-0.007299, 0.139799,-0.975729,-0.000051, 0.001396,-0.009781, 0.046451,-0.017403,-0.030896,1,-0.008428, 0.005055,-0.000580,1,-0.008039,-1.306424, 9.719237,1,1
1778778382436,  3076.166,  3076.161,-0.000839, 0.130067,-0.993244,-0.000018, 0.001315,-0.009907,-0.108766, 0.048004, 0.168035,1, 0.005613,-0.004079, 0.000346,1,-0.008209,-1.306808, 9.719186,1,1
1778778382463,  3076.191,  3076.191, 0.005863, 0.129991,-0.993867, 0.000076, 0.001277,-0.009975, 0.049729,-0.031028,-0.027189,1,-0.009752, 0.008173, 0.000204,1,-0.008025,-1.306105, 9.719280,1,1
1778778382484,  3076.216,  3076.211, 0.004529, 0.130806,-0.990006, 0.000025, 0.001318,-0.009869,-0.055473, 0.052148, 0.184279,1, 0.005411, 0.000074,-0.000235,1,-0.009276,-1.306674, 9.719203,1,1
1778778382506,  3076.236,  3076.231, 0.006094, 0.129578,-0.993129, 0.000077, 0.001274,-0.009958, 0.104766,-0.099468,-0.124325,1, 0.004596,-0.001557,-0.000234,1,-0.008506,-1.304778, 9.719459,1,1
1778778382533,  3076.261,  3076.261,-0.007138, 0.139195,-0.973853,-0.000085, 0.001399,-0.009709,-0.079403, 0.058480, 0.168979,1, 0.003117,-0.002920, 0.001364,1,-0.009318,-1.306458, 9.719232,1,1
1778778382554,  3076.286,  3076.281, 0.008340, 0.130652,-0.994809, 0.000101, 0.001292,-0.009980, 0.107684,-0.094880,-0.150487,1, 0.002757,-0.003704,-0.001064,1,-0.007908,-1.305071, 9.719419,1,1
1778778382577,  3076.306,  3076.306,-0.007721, 0.140367,-0.967227,-0.000085, 0.001403,-0.009661,-0.084782, 0.069580, 0.233913,1, 0.002695,-0.000961,-0.000230,1,-0.009037,-1.306863, 9.719177,1,1
1778778382603,  3076.331,  3076.331, 0.007847, 0.123326,-1.005390, 0.000080, 0.001234,-0.010048, 0.069111,-0.095685,-0.140091,1, 0.004981,-0.004072,-0.000775,1,-0.007713,-1.304944, 9.719437,1,1
1778778382625,  3076.356,  3076.351,-0.009332, 0.140515,-0.974381,-0.000103, 0.001409,-0.009729,-0.088760, 0.081343, 0.123211,1,-0.008966, 0.004128,-0.000334,1,-0.008529,-1.306731, 9.719195,1,1
1778778382647,  3076.376,  3076.376, 0.012428, 0.123064,-1.002852, 0.000117, 0.001235,-0.010030, 0.114296,-0.098400,-0.115227,1, 0.003599,-0.001418,-0.000595,1,-0.007538,-1.305133, 9.719411,1,1
1778778382673,  3076.401,  3076.401,-0.005619, 0.138902,-0.972742,-0.000045, 0.001378,-0.009743,-0.063939, 0.055748, 0.179901,1,-0.006329, 0.008606, 0.000978,1,-0.009109,-1.306608, 9.719212,1,1
1778778382695,  3076.426,  3076.421, 0.009118, 0.122475,-1.008826, 0.000076, 0.001229,-0.010075,-0.023596,-0.015326,-0.007709,1, 0.012414,-0.006387,-0.000169,1,-0.008735,-1.305046, 9.719422,1,1
1778778382717,  3076.446,  3076.446,-0.003314, 0.139017,-0.977863,-0.000019, 0.001384,-0.009804,-0.041481, 0.057090, 0.129703,1,-0.012076, 0.005952, 0.001294,1,-0.009174,-1.306571, 9.719216,1,1
1778778382743,  3076.471,  3076.471, 0.002491, 0.131547,-0.985075, 0.000008, 0.001341,-0.009809, 0.015711,-0.015986, 0.059001,1, 0.012228,-0.007155,-0.000479,1,-0.008495,-1.305645, 9.719341,1,1
1778778382765,  3076.496,  3076.491,-0.008040, 0.139259,-0.978621,-0.000058, 0.001382,-0.009820, 0.047998,-0.040673,-0.073008,1,-0.007919, 0.005044,-0.000795,1,-0.008371,-1.305243, 9.719396,1,1
1778778382787,  3076.516,  3076.516, 0.000633, 0.131985,-0.988461,-0.000011, 0.001335,-0.009858,-0.002530,-0.011205, 0.025867,1, 0.010341,-0.008709,-0.000371,1,-0.008464,-1.305213, 9.719399,1,1
1778778382813,  3076.541,  3076.541, 0.009037, 0.128297,-0.995145, 0.000111, 0.001257,-0.009989, 0.080356,-0.046749,-0.039595,1,-0.008419, 0.004686,-0.001428,1,-0.008407,-1.305169, 9.719406,1,1
1778778382835,  3076.566,  3076.561, 0.001227, 0.133608,-0.986655,-0.000013, 0.001352,-0.009828,-0.089651, 0.068884, 0.220720,1, 0.000926, 0.000522, 0.000743,1,-0.009208,-1.306334, 9.719249,1,1
1778778382858,  3076.586,  3076.586, 0.008383, 0.126932,-0.997232, 0.000097, 0.001247,-0.009998, 0.073707,-0.060505,-0.060119,1,-0.008176, 0.004878,-0.000274,1,-0.008650,-1.305536, 9.719357,1,1
1778778382883,  3076.611,  3076.611,-0.009944, 0.140264,-0.970639,-0.000107, 0.001409,-0.009692,-0.106799, 0.068897, 0.200491,1, 0.000769,-0.000927, 0.000082,1,-0.009249,-1.306602, 9.719213,1,1
1778778382905,  3076.636,  3076.631, 0.010048, 0.127413,-0.999074, 0.000120, 0.001253,-0.010017, 0.102582,-0.094882,-0.117194,1, 0.005470,-0.004952,-0.000426,1,-0.007907,-1.305028, 9.719425,1,1
1778778382928,  3076.661,  3076.656,-0.010520, 0.142018,-0.969158,-0.000103, 0.001427,-0.009689,-0.111927, 0.085806, 0.214980,1, 0.000833,-0.000686, 0.000502,1,-0.008741,-1.306893, 9.719173,1,1
1778778382953,  3076.681,  3076.681, 0.007577, 0.123230,-1.004736, 0.000069, 0.001241,-0.010041, 0.066753,-0.096597,-0.133674,1, 0.009221,-0.005642,-0.000603,1,-0.007373,-1.304786, 9.719458,1,1
1778778382975,  3076.706,  3076.701,-0.009135, 0.142246,-0.968761,-0.000098, 0.001423,-0.009688,-0.051175, 0.059987, 0.109961,1,-0.011326, 0.006361, 0.000014,1,-0.008271,-1.306393, 9.719241,1,1
1778778382998,  3076.731,  3076.726, 0.010987, 0.123922,-1.004448, 0.000095, 0.001248,-0.010027, 0.100171,-0.089843,-0.130852,1, 0.007873,-0.005477,-0.000961,1,-0.007397,-1.304858, 9.719448,1,1
1778778383023,  3076.751,  3076.751,-0.004123, 0.138011,-0.981398,-0.000021, 0.001367,-0.009839, 0.092005,-0.071573,-0.100309,1,-0.005483, 0.003460,-0.000908,1,-0.007609,-1.305211, 9.719400,1,1
1778778383045,  3076.776,  3076.771, 0.009330, 0.124267,-1.001930, 0.000078, 0.001253,-0.009998,-0.025990, 0.019461, 0.069317,1, 0.007914,-0.005824, 0.000510,1,-0.008134,-1.305735, 9.719330,1,1
1778778383068,  3076.801,  3076.796,-0.000962, 0.135644,-0.984185, 0.000004, 0.001347,-0.009859,-0.017567, 0.024155, 0.067724,1,-0.008368, 0.006951, 0.000444,1,-0.008346,-1.306315, 9.719252,1,1
1778778383094,  3076.821,  3076.821,-0.000353, 0.135072,-0.983144,-0.000016, 0.001365,-0.009806,-0.012023, 0.018250, 0.077896,1, 0.005371,-0.003232, 0.000351,1,-0.008459,-1.306187, 9.719269,1,1
1778778383115,  3076.846,  3076.841,-0.004389, 0.137151,-0.979664,-0.000018, 0.001359,-0.009824, 0.072329,-0.055040,-0.039745,1,-0.003539, 0.002077,-0.000262,1,-0.008080,-1.305842, 9.719316,1,1
1778778383138,  3076.871,  3076.866,-0.003471, 0.133636,-0.985900,-0.000059, 0.001355,-0.009824,-0.042255, 0.004389, 0.050896,1, 0.009820,-0.006490, 0.000053,1,-0.008014,-1.305832, 9.719317,1,1
1778778383164,  3076.891,  3076.891, 0.013842, 0.127023,-1.004445, 0.000144, 0.001249,-0.010069, 0.128094,-0.059445,-0.130824,1,-0.005858, 0.005367,-0.000933,1,-0.007808,-1.305296, 9.719389,1,1
1778778383185,  3076.916,  3076.911,-0.005698, 0.134844,-0.975989,-0.000074, 0.001364,-0.009718,-0.107442, 0.089393, 0.272046,1,-0.001102, 0.001867, 0.000425,1,-0.008932,-1.306772, 9.719190,1,1
1778778383208,  3076.941,  3076.936, 0.008382, 0.122100,-1.008551, 0.000099, 0.001195,-0.010110, 0.074982,-0.107032,-0.171000,1,-0.005664, 0.001700,-0.001329,1,-0.007261,-1.304597, 9.719483,1,1
1778778383234,  3076.961,  3076.961,-0.011659, 0.143615,-0.970345,-0.000118, 0.001439,-0.009702,-0.122820, 0.101680, 0.203365,1,-0.005539, 0.001652, 0.000375,1,-0.008542,-1.306871, 9.719177,1,1
1778778383255,  3076.986,  3076.981, 0.015267, 0.123400,-1.001504, 0.000172, 0.001212,-0.010042, 0.147341,-0.091485,-0.135586,1, 0.011268,-0.005392, 0.000107,1,-0.007282,-1.304865, 9.719447,1,1
1778778383282,  3077.011,  3077.011,-0.015732, 0.144035,-0.959950,-0.000150, 0.001436,-0.009597,-0.163475, 0.105609, 0.305279,1,-0.000649, 0.002741, 0.000542,1,-0.009285,-1.306915, 9.719171,1,1
1778778383304,  3077.031,  3077.031, 0.007755, 0.122466,-1.012807, 0.000059, 0.001242,-0.010101, 0.068344,-0.103509,-0.212752,1, 0.013498,-0.009444,-0.001313,1,-0.007409,-1.304074, 9.719554,1,1
1778778383325,  3077.056,  3077.051,-0.008610, 0.144305,-0.962926,-0.000094, 0.001447,-0.009632,-0.016459, 0.062267, 0.060001,1,-0.016450, 0.009338, 0.000633,1,-0.008544,-1.306228, 9.719263,1,1
1778778383352,  3077.081,  3077.081, 0.011789, 0.122425,-0.999133, 0.000110, 0.001242,-0.009969, 0.107441,-0.104383,-0.078716,1, 0.013081,-0.005544,-0.001043,1,-0.007989,-1.304555, 9.719488,1,1
1778778383374,  3077.106,  3077.101,-0.015333, 0.142628,-0.970992,-0.000167, 0.001431,-0.009708,-0.101487, 0.052187, 0.100897,1,-0.010713, 0.007491, 0.000054,1,-0.008974,-1.305820, 9.719317,1,1
1778778383396,  3077.126,  3077.121, 0.015574, 0.121606,-1.008557, 0.000140, 0.001226,-0.010076,-0.016335, 0.010119, 0.010117,1, 0.009906,-0.007157, 0.000176,1,-0.008654,-1.305167, 9.719406,1,1
1778778383423,  3077.151,  3077.151,-0.004238, 0.140290,-0.971531,-0.000018, 0.001392,-0.009741,-0.050801, 0.069970, 0.191850,1,-0.008784, 0.007990,-0.000016,1,-0.009485,-1.306079, 9.719282,1,1
1778778383444,  3077.176,  3077.171, 0.012773, 0.120171,-1.008818, 0.000126, 0.001206,-0.010080,-0.002953,-0.016937, 0.048213,1, 0.014180,-0.005478, 0.000384,1,-0.009143,-1.304682, 9.719470,1,1
1778778383466,  3077.196,  3077.191,-0.008744, 0.141368,-0.975415,-0.000071, 0.001409,-0.009785, 0.062083,-0.041859,-0.087019,1,-0.010208, 0.008570,-0.000736,1,-0.009698,-1.304641, 9.719476,1,1
1778778383493,  3077.221,  3077.221, 0.004073, 0.129430,-0.994300, 0.000012, 0.001314,-0.009899, 0.030388,-0.035235,-0.031265,1, 0.013068,-0.010387, 0.000028,1,-0.009230,-1.304110, 9.719547,1,1
1778778383514,  3077.246,  3077.241,-0.008623, 0.142881,-0.968823,-0.000071, 0.001424,-0.009706, 0.056064,-0.030206,-0.005716,1,-0.015886, 0.007121, 0.000506,1,-0.009313,-1.305162, 9.719406,1,1
1778778383536,  3077.266,  3077.261, 0.004145, 0.128994,-0.996037, 0.000023, 0.001310,-0.009928,-0.101796, 0.068295, 0.202187,1, 0.003756,-0.003403, 0.000789,1,-0.009989,-1.306294, 9.719253,1,1
1778778383563,  3077.291,  3077.291, 0.000381, 0.133722,-0.991272, 0.000032, 0.001307,-0.009957,-0.005618, 0.005447,-0.001750,1,-0.015294, 0.005781,-0.000217,1,-0.009537,-1.306388, 9.719241,1,1
1778778383584,  3077.316,  3077.311, 0.010003, 0.126994,-0.997205, 0.000077, 0.001293,-0.009939,-0.058840, 0.053396, 0.180172,1, 0.003117,-0.004601, 0.001073,1,-0.009779,-1.307343, 9.719112,1,1
1778778383606,  3077.336,  3077.331, 0.001709, 0.136941,-0.983589, 0.000058, 0.001346,-0.009879, 0.163697,-0.114758,-0.130681,1,-0.002349, 0.000799,-0.001027,1,-0.008787,-1.306330, 9.719250,1,1
1778778383633,  3077.361,  3077.361,-0.007774, 0.136901,-0.977283,-0.000097, 0.001387,-0.009735,-0.085375, 0.035363, 0.135259,1, 0.011203,-0.008274,-0.000368,1,-0.008884,-1.306830, 9.719182,1,1
1778778383654,  3077.386,  3077.381,-0.002443, 0.138433,-0.981868, 0.000004, 0.001367,-0.009854, 0.101832,-0.097039,-0.140566,1,-0.005466, 0.003232,-0.000649,1,-0.008219,-1.305750, 9.719328,1,1
1778778383676,  3077.406,  3077.401,-0.002483, 0.134194,-0.986633,-0.000052, 0.001362,-0.009814,-0.129646, 0.100988, 0.230904,1, 0.000814, 0.001959, 0.000021,1,-0.009439,-1.307336, 9.719113,1,1
1778778383703,  3077.431,  3077.431, 0.011249, 0.124457,-1.002284, 0.000133, 0.001216,-0.010068, 0.101978,-0.084776,-0.109659,1,-0.011938, 0.007992,-0.000293,1,-0.008581,-1.305652, 9.719340,1,1
1778778383724,  3077.456,  3077.451,-0.001893, 0.132707,-0.986664,-0.000042, 0.001341,-0.009819,-0.126191, 0.101936, 0.283816,1,-0.000006,-0.000634, 0.001454,1,-0.009934,-1.307838, 9.719046,1,1
1778778383746,  3077.476,  3077.471, 0.007063, 0.126916,-1.003739, 0.000089, 0.001240,-0.010079, 0.105224,-0.125330,-0.188255,1, 0.008392,-0.007407,-0.000818,1,-0.008124,-1.305392, 9.719376,1,1
1778778383773,  3077.501,  3077.501,-0.007894, 0.141491,-0.967127,-0.000100, 0.001426,-0.009659,-0.086723, 0.079395, 0.234726,1,-0.000867, 0.000080, 0.001483,1,-0.009321,-1.308180, 9.719000,1,1
1778778383795,  3077.526,  3077.521, 0.005189, 0.131256,-0.990067, 0.000085, 0.001278,-0.009948, 0.144264,-0.116677,-0.128013,1, 0.005640,-0.001777,-0.000060,1,-0.008237,-1.306216, 9.719265,1,1
1778778383817,  3077.546,  3077.546,-0.014588, 0.140021,-0.971452,-0.000160, 0.001415,-0.009683,-0.152453, 0.065766, 0.192416,1, 0.009082,-0.006366, 0.000398,1,-0.009197,-1.307090, 9.719147,1,1
1778778383843,  3077.571,  3077.571, 0.014529, 0.120502,-1.013002, 0.000136, 0.001207,-0.010133, 0.134577,-0.123503,-0.214758,1,-0.000199,-0.001513,-0.000620,1,-0.007854,-1.305233, 9.719398,1,1
1778778383865,  3077.596,  3077.591,-0.004114, 0.139180,-0.967269,-0.000056, 0.001413,-0.009634,-0.054987, 0.098852, 0.241588,1,-0.009203, 0.007698, 0.000435,1,-0.009509,-1.307847, 9.719045,1,1
1778778383887,  3077.616,  3077.616, 0.009468, 0.119981,-1.007090, 0.000105, 0.001199,-0.010083, 0.084507,-0.128485,-0.156767,1, 0.000220, 0.000479,-0.000702,1,-0.008354,-1.305087, 9.719417,1,1
1778778383913,  3077.641,  3077.641,-0.014948, 0.144085,-0.968029,-0.000138, 0.001441,-0.009699,-0.156097, 0.105463, 0.225971,1,-0.008802, 0.002146, 0.000497,1,-0.009579,-1.307796, 9.719051,1,1
1778778383935,  3077.666,  3077.661, 0.016223, 0.122501,-1.013169, 0.000165, 0.001218,-0.010146, 0.079321,-0.069046,-0.147181,1, 0.014029,-0.010930,-0.000115,1,-0.007719,-1.305655, 9.719341,1,1
1778778383958,  3077.686,  3077.686,-0.009265, 0.145093,-0.961676,-0.000087, 0.001451,-0.009638,-0.100085, 0.114631, 0.288172,1,-0.008484, 0.008620, 0.001313,1,-0.009502,-1.308507, 9.718956,1,1
1778778383983,  3077.711,  3077.711, 0.007002, 0.125077,-0.999946, 0.000053, 0.001267,-0.009965, 0.060157,-0.079958,-0.086900,1, 0.017048,-0.008727,-0.000052,1,-0.008243,-1.306018, 9.719292,1,1
1778778384005,  3077.736,  3077.731,-0.014314, 0.143606,-0.967834,-0.000147, 0.001436,-0.009689,-0.066327, 0.046031, 0.032851,1,-0.016460, 0.008704,-0.000984,1,-0.008978,-1.307331, 9.719114,1,1
1778778384028,  3077.756,  3077.756, 0.015820, 0.124351,-1.008101, 0.000136, 0.001260,-0.010056, 0.147010,-0.086624,-0.166814,1, 0.012739,-0.006588,-0.000256,1,-0.007925,-1.305697, 9.719336,1,1
1778778384053,  3077.781,  3077.781, 0.001913, 0.139087,-0.973711, 0.000048, 0.001375,-0.009782, 0.009359, 0.056491, 0.170250,1,-0.017330, 0.013075, 0.000357,1,-0.009835,-1.308017, 9.719022,1,1
1778778384075,  3077.806,  3077.801, 0.007401, 0.121525,-1.011479, 0.000067, 0.001230,-0.010084,-0.078415,-0.000866, 0.135389,1, 0.018652,-0.009584,-0.000249,1,-0.009577,-1.306702, 9.719198,1,1
1778778384098,  3077.826,  3077.826,-0.005269, 0.142168,-0.980530,-0.000033, 0.001405,-0.009857,-0.060882, 0.087017, 0.103421,1,-0.020966, 0.009278, 0.000335,1,-0.009500,-1.307819, 9.719049,1,1
1778778384123,  3077.851,  3077.851, 0.002690, 0.132736,-0.984003, 0.000003, 0.001351,-0.009783, 0.017414,-0.005942, 0.069295,1, 0.015452,-0.011564, 0.000216,1,-0.008607,-1.307163, 9.719137,1,1
1778778384145,  3077.876,  3077.871,-0.009634, 0.140222,-0.973079,-0.000074, 0.001393,-0.009761, 0.083350,-0.071765,-0.097999,1,-0.010894, 0.006279,-0.001691,1,-0.008189,-1.306370, 9.719245,1,1
1778778384168,  3077.901,  3077.896,-0.001702, 0.130770,-0.989445,-0.000039, 0.001330,-0.009842,-0.025617,-0.025107, 0.015946,1, 0.015632,-0.011347, 0.000418,1,-0.008581,-1.307044, 9.719153,1,1
1778778384194,  3077.921,  3077.921, 0.006383, 0.129742,-1.001256, 0.000092, 0.001263,-0.010068, 0.054609,-0.034256,-0.099750,1,-0.013692, 0.005448,-0.001881,1,-0.008151,-1.307017, 9.719157,1,1
1778778384215,  3077.946,  3077.941, 0.005528, 0.129726,-0.992662, 0.000030, 0.001320,-0.009873,-0.103805, 0.085458, 0.249434,1, 0.002563,-0.001061, 0.000431,1,-0.009092,-1.308763, 9.718922,1,1
1778778384238,  3077.971,  3077.966, 0.007133, 0.131831,-0.994994, 0.000096, 0.001285,-0.009996, 0.061246,-0.014562,-0.038448,1,-0.015959, 0.011290,-0.000216,1,-0.009052,-1.307881, 9.719041,1,1
1778778384264,  3077.991,  3077.991,-0.011315, 0.140547,-0.964851,-0.000127, 0.001421,-0.009630,-0.121103, 0.069011, 0.256893,1, 0.006262,-0.003112, 0.000902,1,-0.010044,-1.309087, 9.718877,1,1
1778778384285,  3078.016,  3078.011, 0.004503, 0.133522,-0.994639, 0.000067, 0.001291,-0.009998, 0.114192,-0.135155,-0.218335,1, 0.003919,-0.004641,-0.001145,1,-0.008276,-1.306671, 9.719204,1,1
1778778384308,  3078.041,  3078.036,-0.006144, 0.140445,-0.967919,-0.000082, 0.001421,-0.009640,-0.070122, 0.067524, 0.226744,1, 0.006099,-0.005515, 0.000940,1,-0.009699,-1.309584, 9.718811,1,1
1778778384334,  3078.061,  3078.061, 0.012668, 0.119942,-1.010931, 0.000136, 0.001201,-0.010111, 0.116211,-0.131022,-0.194722,1, 0.003056,-0.003280,-0.001473,1,-0.007909,-1.307157, 9.719139,1,1
1778778384355,  3078.086,  3078.081,-0.009808, 0.138960,-0.968901,-0.000114, 0.001410,-0.009648,-0.133957, 0.100159, 0.265441,1,-0.010410, 0.007079, 0.000720,1,-0.009457,-1.309917, 9.718766,1,1
1778778384378,  3078.111,  3078.106, 0.014285, 0.121651,-1.010692, 0.000154, 0.001216,-0.010122, 0.132135,-0.114345,-0.192385,1, 0.000716,-0.001491,-0.001132,1,-0.007905,-1.307311, 9.719118,1,1
1778778384404,  3078.131,  3078.131,-0.011428, 0.144634,-0.964226,-0.000115, 0.001454,-0.009668,-0.121316, 0.108824, 0.262991,1,-0.006077, 0.006549,-0.000299,1,-0.009450,-1.309736, 9.718790,1,1
1778778384425,  3078.156,  3078.151, 0.014077, 0.120181,-1.011592, 0.000143, 0.001196,-0.010130, 0.071586,-0.081529,-0.118737,1, 0.016912,-0.009606,-0.000384,1,-0.007794,-1.306869, 9.719178,1,1
1778778384448,  3078.181,  3078.176,-0.012481, 0.145364,-0.961534,-0.000116, 0.001451,-0.009634,-0.132067, 0.116004, 0.289390,1,-0.007483, 0.006016, 0.001006,1,-0.009865,-1.309764, 9.718786,1,1
1778778384474,  3078.201,  3078.201, 0.009064, 0.124826,-1.004330, 0.000076, 0.001255,-0.010014, 0.080712,-0.083247,-0.130002,1, 0.017819,-0.012284,-0.000781,1,-0.007794,-1.306823, 9.719184,1,1
1778778384495,  3078.226,  3078.221,-0.011085, 0.145761,-0.962784,-0.000115, 0.001455,-0.009641,-0.021638, 0.043457, 0.049467,1,-0.021150, 0.011175, 0.000304,1,-0.008634,-1.308881, 9.718906,1,1
1778778384522,  3078.251,  3078.251, 0.008039, 0.125716,-1.006625, 0.000066, 0.001264,-0.010031, 0.070830,-0.074756,-0.152543,1, 0.017914,-0.008654,-0.000568,1,-0.007732,-1.307057, 9.719152,1,1
1778778384544,  3078.271,  3078.271,-0.003623, 0.137608,-0.984912,-0.000008, 0.001372,-0.009892,-0.044055, 0.041524, 0.060348,1,-0.016588, 0.010735,-0.000157,1,-0.008859,-1.308459, 9.718963,1,1
1778778384566,  3078.296,  3078.291, 0.011092, 0.123002,-1.004726, 0.000100, 0.001239,-0.010014,-0.032830, 0.008518, 0.166866,1, 0.012174,-0.005825, 0.000465,1,-0.009250,-1.308469, 9.718962,1,1
1778778384592,  3078.321,  3078.321,-0.002802, 0.139117,-0.980036, 0.000001, 0.001374,-0.009845,-0.036577, 0.055907, 0.108104,1,-0.017787, 0.010248,-0.000047,1,-0.009416,-1.308914, 9.718902,1,1
1778778384614,  3078.346,  3078.341, 0.012055, 0.122613,-1.009906, 0.000105, 0.001239,-0.010067,-0.031391, 0.008894, 0.110998,1, 0.015457,-0.009745, 0.000823,1,-0.009035,-1.308196, 9.718998,1,1
1778778384636,  3078.361,  3078.361, 0.012926, 0.124208,-1.007045, 0.000142, 0.001220,-0.010107, 0.118535,-0.088689,-0.156548,1,-0.008567, 0.005738,-0.000941,1,-0.008396,-1.307016, 9.719157,1,1
1778778384663,  3078.391,  3078.391,-0.003108, 0.133445,-0.979787,-0.000053, 0.001359,-0.009741,-0.039720, 0.000320, 0.110556,1, 0.018014,-0.011544,-0.000134,1,-0.008886,-1.307773, 9.719055,1,1
1778778384684,  3078.416,  3078.411,-0.002460, 0.140340,-0.980556,-0.000008, 0.001392,-0.009846, 0.093531,-0.091022,-0.164836,1,-0.008672, 0.004954,-0.000672,1,-0.008062,-1.306543, 9.719221,1,1
1778778384706,  3078.436,  3078.431, 0.000816, 0.134003,-0.981022,-0.000017, 0.001367,-0.009753,-0.101788, 0.111122, 0.280763,1,-0.003702, 0.003959, 0.000737,1,-0.009801,-1.309192, 9.718863,1,1
1778778384733,  3078.461,  3078.461, 0.008322, 0.125618,-1.005382, 0.000096, 0.001233,-0.010082, 0.073641,-0.074492,-0.140191,1,-0.005724, 0.003963,-0.001387,1,-0.008090,-1.306560, 9.719219,1,1
1778778384754,  3078.486,  3078.481, 0.000063, 0.133628,-0.981234,-0.000019, 0.001360,-0.009769,-0.131705, 0.099824, 0.263833,1,-0.004851, 0.003167, 0.000868,1,-0.009515,-1.308915, 9.718901,1,1
1778778384776,  3078.506,  3078.501, 0.011080, 0.126947,-1.004762, 0.000121, 0.001245,-0.010081, 0.103372,-0.100149,-0.149912,1, 0.011074,-0.007380,-0.001009,1,-0.008059,-1.306541, 9.719222,1,1
1778778384803,  3078.531,  3078.531,-0.013549, 0.144016,-0.964422,-0.000147, 0.001437,-0.009637,-0.142425, 0.103439, 0.261161,1,-0.001806, 0.003017, 0.000584,1,-0.009651,-1.308932, 9.718899,1,1
1778778384824,  3078.556,  3078.551, 0.012001, 0.125481,-1.006939, 0.000128, 0.001234,-0.010113, 0.099669,-0.111772,-0.191821,1, 0.010853,-0.007089,-0.000292,1,-0.007973,-1.306272, 9.719258,1,1
1778778384846,  3078.576,  3078.571,-0.011165, 0.144110,-0.959834,-0.000111, 0.001435,-0.009605,-0.022175, 0.066037, 0.135241,1,-0.018270, 0.010583, 0.000580,1,-0.009492,-1.308916, 9.718901,1,1
1778778384873,  3078.601,  3078.601, 0.010144, 0.121282,-1.010656, 0.000094, 0.001223,-0.010085, 0.091176,-0.117382,-0.191953,1, 0.013689,-0.009254,-0.000964,1,-0.008016,-1.306325, 9.719251,1,1
1778778384895,  3078.626,  3078.621,-0.012755, 0.145191,-0.957901,-0.000138, 0.001454,-0.009574,-0.049893, 0.067249, 0.120184,1,-0.020699, 0.011753, 0.000364,1,-0.009483,-1.309153, 9.718869,1,1
1778778384916,  3078.646,  3078.641, 0.011160, 0.120133,-1.012824, 0.000098, 0.001213,-0.010100,-0.037456, 0.007548, 0.103039,1, 0.020496,-0.012355,-0.000135,1,-0.008830,-1.308059, 9.719017,1,1
1778778384943,  3078.671,  3078.671,-0.002181, 0.140047,-0.977859, 0.000010, 0.001382,-0.009833,-0.030349, 0.065529, 0.129517,1,-0.020693, 0.012677, 0.000336,1,-0.009356,-1.308503, 9.718957,1,1
1778778384965,  3078.696,  3078.691, 0.011595, 0.123108,-0.999709, 0.000115, 0.001240,-0.009992,-0.032592, 0.030014, 0.142922,1, 0.011863,-0.006877, 0.000489,1,-0.009592,-1.308442, 9.718965,1,1
1778778384986,  3078.716,  3078.711,-0.002767, 0.137174,-0.983963,-0.000017, 0.001357,-0.009890, 0.072935,-0.091695,-0.183864,1,-0.005643,-0.000179,-0.000909,1,-0.008225,-1.306852, 9.719180,1,1
1778778385013,  3078.741,  3078.741,-0.001695, 0.136505,-0.982390,-0.000037, 0.001387,-0.009769,-0.025817, 0.029709, 0.084937,1, 0.011225,-0.007642, 0.000877,1,-0.008964,-1.308603, 9.718944,1,1
1778778385035,  3078.766,  3078.761,-0.001214, 0.139002,-0.974115, 0.000028, 0.001373,-0.009783, 0.165407,-0.065810,-0.106521,1,-0.009865, 0.006286,-0.000459,1,-0.008663,-1.308179, 9.719001,1,1
1778778385058,  3078.786,  3078.786,-0.006581, 0.135383,-0.981521,-0.000090, 0.001380,-0.009766,-0.073995, 0.018493, 0.093435,1, 0.018432,-0.012018,-0.000026,1,-0.009092,-1.308588, 9.718946,1,1
1778778385083,  3078.811,  3078.811, 0.008482, 0.123297,-1.017419, 0.000090, 0.001223,-0.010193, 0.075918,-0.097814,-0.258300,1,-0.005524, 0.000491,-0.000821,1,-0.007277,-1.307116, 9.719145,1,1
1778778385105,  3078.836,  3078.831,-0.004044, 0.136456,-0.977214,-0.000057, 0.001395,-0.009727,-0.109750, 0.091731, 0.209987,1,-0.008100, 0.005187, 0.000660,1,-0.008900,-1.309915, 9.718767,1,1
1778778385128,  3078.856,  3078.856, 0.011393, 0.125552,-1.001671, 0.000125, 0.001240,-0.010032, 0.103629,-0.076107,-0.103925,1,-0.001652, 0.006326,-0.001132,1,-0.008285,-1.307406, 9.719105,1,1
1778778385153,  3078.881,  3078.881,-0.018153, 0.146089,-0.963569,-0.000179, 0.001451,-0.009640,-0.187690, 0.123468, 0.269486,1,-0.003196, 0.002094, 0.000654,1,-0.009734,-1.309276, 9.718852,1,1
1778778385175,  3078.906,  3078.901, 0.018138, 0.121164,-1.017610, 0.000175, 0.001207,-0.010185, 0.107959,-0.092042,-0.219963,1, 0.014515,-0.012480,-0.000451,1,-0.007716,-1.306235, 9.719263,1,1
1778778385198,  3078.926,  3078.926,-0.008450, 0.145011,-0.959909,-0.000092, 0.001450,-0.009611,-0.092698, 0.112538, 0.305328,1,-0.012933, 0.010902, 0.000055,1,-0.010173,-1.309930, 9.718763,1,1
1778778385223,  3078.951,  3078.951, 0.006851, 0.127370,-0.994126, 0.000044, 0.001277,-0.009905, 0.058248,-0.058639,-0.029983,1, 0.019147,-0.011370,-0.000413,1,-0.008580,-1.307123, 9.719143,1,1
1778778385245,  3078.976,  3078.971,-0.010495, 0.144840,-0.967841,-0.000091, 0.001447,-0.009692,-0.004171, 0.003617,-0.013837,1,-0.017124, 0.012578,-0.000014,1,-0.009522,-1.308003, 9.719024,1,1
1778778385268,  3078.996,  3078.996, 0.012225, 0.127982,-1.004608, 0.000097, 0.001299,-0.010015, 0.111079,-0.052355,-0.132741,1, 0.013561,-0.010536, 0.000126,1,-0.008480,-1.307008, 9.719158,1,1
1778778385293,  3079.021,  3079.021, 0.005092, 0.134350,-0.982334, 0.000083, 0.001313,-0.009870, 0.041059, 0.009392, 0.085598,1,-0.017198, 0.009368,-0.000167,1,-0.009170,-1.308660, 9.718936,1,1
1778778385315,  3079.046,  3079.041, 0.001114, 0.128756,-1.000758,-0.000002, 0.001291,-0.009969,-0.139440, 0.055460, 0.204652,1, 0.015246,-0.007127, 0.000118,1,-0.009434,-1.308458, 9.718963,1,1
1778778385338,  3079.066,  3079.066, 0.005210, 0.133233,-1.001246, 0.000077, 0.001293,-0.010084, 0.043352, 0.000277,-0.099615,1,-0.017996, 0.011125,-0.000691,1,-0.008086,-1.306848, 9.719180,1,1
1778778385364,  3079.091,  3079.091,-0.008091, 0.141875,-0.963158,-0.000092, 0.001429,-0.009615,-0.088816, 0.082412, 0.273544,1, 0.001024,-0.000485, 0.000398,1,-0.009460,-1.308870, 9.718907,1,1
1778778385385,  3079.116,  3079.111, 0.004680, 0.130362,-0.992978, 0.000072, 0.001274,-0.009961, 0.136477,-0.127550,-0.133475,1, 0.008001,-0.002872,-0.001410,1,-0.008005,-1.306351, 9.719247,1,1
1778778385408,  3079.141,  3079.136,-0.016423, 0.141788,-0.973976,-0.000183, 0.001430,-0.009710,-0.170199, 0.082729, 0.167614,1, 0.007500,-0.004804, 0.000660,1,-0.008995,-1.307507, 9.719090,1,1
1778778385434,  3079.161,  3079.161, 0.016062, 0.119147,-1.010751, 0.000166, 0.001200,-0.010131, 0.149913,-0.136825,-0.192690,1, 0.007378,-0.003709,-0.000550,1,-0.007483,-1.305032, 9.719425,1,1
1778778385455,  3079.186,  3079.181,-0.010841, 0.142868,-0.957516,-0.000109, 0.001417,-0.009577,-0.053086, 0.074301, 0.228478,1,-0.011380, 0.013542, 0.000702,1,-0.009775,-1.307640, 9.719072,1,1
1778778385478,  3079.211,  3079.206, 0.008485, 0.118119,-1.011400, 0.000083, 0.001195,-0.010081, 0.074732,-0.146435,-0.198987,1, 0.013677,-0.010056,-0.000902,1,-0.008167,-1.304367, 9.719514,1,1
1778778385504,  3079.231,  3079.231,-0.003838, 0.141360,-0.982084,-0.000020, 0.001404,-0.009860,-0.046730, 0.079950, 0.088296,1,-0.018036, 0.010348,-0.000289,1,-0.009413,-1.306874, 9.719175,1,1
1778778385525,  3079.256,  3079.251, 0.015995, 0.119225,-1.004151, 0.000151, 0.001204,-0.010025,-0.011714, 0.031662, 0.085831,1, 0.013436,-0.008819,-0.000080,1,-0.008871,-1.306716, 9.719197,1,1
1778778385548,  3079.281,  3079.271,-0.003548, 0.136900,-0.972122,-0.000002, 0.001354,-0.009771, 0.144193,-0.083066,-0.092663,1,-0.007065, 0.004873,-0.000986,1,-0.008186,-1.305493, 9.719362,1,1
1778778385574,  3079.301,  3079.301,-0.002405, 0.134254,-0.975482,-0.000056, 0.001379,-0.009693,-0.033697, 0.009376, 0.152915,1, 0.017479,-0.009099, 0.000600,1,-0.009837,-1.306670, 9.719203,1,1
1778778385595,  3079.326,  3079.321,-0.002484, 0.139005,-0.990757, 0.000010, 0.001369,-0.009960, 0.123642,-0.096615,-0.262226,1,-0.001647,-0.000213,-0.001136,1,-0.008144,-1.304508, 9.719495,1,1
1778778385618,  3079.351,  3079.346,-0.012191, 0.141358,-0.980100,-0.000139, 0.001437,-0.009760,-0.127997, 0.079567, 0.107707,1, 0.011347,-0.011689, 0.000004,1,-0.008087,-1.306330, 9.719250,1,1
1778778385644,  3079.371,  3079.371, 0.009526, 0.124020,-1.014868, 0.000111, 0.001232,-0.010154, 0.086842,-0.088244,-0.232950,1,-0.000213,-0.000559,-0.000872,1,-0.006552,-1.304471, 9.719501,1,1
1778778385665,  3079.396,  3079.391,-0.012480, 0.136541,-0.974840,-0.000147, 0.001394,-0.009725,-0.197230, 0.140910, 0.228656,1,-0.006542, 0.008691,-0.000773,1,-0.008378,-1.306798, 9.719187,1,1
1778778385688,  3079.421,  3079.416, 0.015018, 0.114404,-1.013145, 0.000148, 0.001142,-0.010146, 0.139694,-0.181763,-0.215951,1, 0.000021, 0.003113,-0.000509,1,-0.007677,-1.303681, 9.719606,1,1
1778778385714,  3079.441,  3079.441,-0.011120, 0.143883,-0.959254,-0.000102, 0.001437,-0.009596,-0.118842, 0.104201, 0.312116,1,-0.015705, 0.011917, 0.001136,1,-0.010167,-1.307292, 9.719119,1,1
1778778385736,  3079.466,  3079.461, 0.020352, 0.118697,-1.008654, 0.000203, 0.001186,-0.010078, 0.106860,-0.083496,-0.002026,1, 0.013295,-0.010654, 0.000386,1,-0.009383,-1.305955, 9.719299,1,1
1778778385763,  3079.491,  3079.491,-0.004545, 0.144743,-0.961394,-0.000020, 0.001453,-0.009644,-0.055171, 0.111520, 0.290982,1,-0.018842, 0.011506, 0.001331,1,-0.010958,-1.308504, 9.718955,1,1
1778778385784,  3079.511,  3079.511, 0.012054, 0.132808,-0.984009, 0.000098, 0.001354,-0.009774, 0.107426,-0.005547, 0.069194,1, 0.017459,-0.012114, 0.001178,1,-0.010417,-1.307404, 9.719104,1,1
1778778385806,  3079.536,  3079.531,-0.001611, 0.150577,-0.974637, 0.000015, 0.001500,-0.009781, 0.156745,-0.007689,-0.125215,1,-0.007297, 0.003481,-0.000790,1,-0.009432,-1.306189, 9.719268,1,1
1778778385833,  3079.561,  3079.561, 0.007560, 0.137265,-0.990181, 0.000045, 0.001400,-0.009842, 0.064951, 0.039801, 0.008890,1, 0.019439,-0.013886, 0.000441,1,-0.008761,-1.305712, 9.719333,1,1
1778778385854,  3079.586,  3079.581,-0.002454, 0.141947,-0.973489,-0.000004, 0.001414,-0.009792, 0.141655,-0.056130,-0.147991,1,-0.008198, 0.005835,-0.000627,1,-0.008441,-1.304600, 9.719482,1,1
1778778385876,  3079.606,  3079.601, 0.003746, 0.131967,-0.982502, 0.000003, 0.001354,-0.009768,-0.118699, 0.099909, 0.288884,1,-0.001751, 0.004691,-0.000361,1,-0.010476,-1.306561, 9.719216,1,1
1778778385903,  3079.631,  3079.631, 0.018937, 0.120194,-1.011700, 0.000205, 0.001174,-0.010165, 0.176903,-0.124190,-0.201676,1,-0.010551, 0.006895,-0.001502,1,-0.009009,-1.303221, 9.719666,1,1
1778778385924,  3079.656,  3079.651,-0.001888, 0.132807,-0.979742,-0.000052, 0.001370,-0.009749,-0.146424, 0.094079, 0.319497,1,-0.006166, 0.001325,-0.000031,1,-0.010755,-1.306189, 9.719266,1,1
1778778385946,  3079.676,  3079.671, 0.014929, 0.114899,-1.016565, 0.000176, 0.001138,-0.010207, 0.144131,-0.185550,-0.222612,1, 0.020118,-0.015499,-0.001090,1,-0.008042,-1.302334, 9.719787,1,1
1778778385973,  3079.701,  3079.701,-0.014789, 0.143469,-0.956014,-0.000160, 0.001431,-0.009571,-0.155305, 0.100681, 0.343965,1,-0.013649, 0.007874, 0.000092,1,-0.010516,-1.306693, 9.719199,1,1
1778778385994,  3079.726,  3079.721, 0.019808, 0.115339,-1.015423, 0.000217, 0.001151,-0.010195, 0.194378,-0.155764,-0.192940,1, 0.018227,-0.012197,-0.000403,1,-0.008449,-1.303498, 9.719630,1,1
1778778386016,  3079.746,  3079.741,-0.017782, 0.146083,-0.953925,-0.000189, 0.001460,-0.009545,-0.030051, 0.012317, 0.121548,1,-0.023155, 0.013361, 0.000030,1,-0.009797,-1.305706, 9.719333,1,1
1778778386043,  3079.771,  3079.771, 0.019162, 0.119968,-1.006734, 0.000173, 0.001209,-0.010042, 0.179365,-0.128033,-0.153197,1, 0.015260,-0.015436, 0.000881,1,-0.008079,-1.304042, 9.719558,1,1
1778778386065,  3079.796,  3079.791,-0.014424, 0.150885,-0.949834,-0.000143, 0.001496,-0.009521, 0.033320, 0.024303, 0.158169,1,-0.025578, 0.014863, 0.000510,1,-0.010237,-1.306419, 9.719236,1,1
1778778386086,  3079.816,  3079.811, 0.015158, 0.124116,-1.005957, 0.000133, 0.001252,-0.010007,-0.057644, 0.051733, 0.254408,1, 0.019878,-0.010116, 0.000511,1,-0.010613,-1.306469, 9.719229,1,1
1778778386113,  3079.841,  3079.841, 0.003753, 0.137177,-0.985601, 0.000076, 0.001334,-0.009928, 0.027164, 0.040157, 0.053966,1,-0.023901, 0.014867,-0.000713,1,-0.010093,-1.305831, 9.719316,1,1
1778778386135,  3079.866,  3079.861, 0.011411, 0.129366,-1.005771, 0.000088, 0.001296,-0.010031,-0.099725, 0.092389, 0.184061,1, 0.016812,-0.010861,-0.000027,1,-0.010118,-1.306167, 9.719270,1,1
1778778386156,  3079.886,  3079.881, 0.002619, 0.135390,-0.991172, 0.000063, 0.001311,-0.009989, 0.164786,-0.132596,-0.305001,1, 0.004726,-0.002253,-0.000906,1,-0.007952,-1.303033, 9.719692,1,1
1778778386183,  3079.911,  3079.911,-0.010779, 0.143216,-0.964866,-0.000148, 0.001471,-0.009603,-0.116220, 0.098227, 0.257157,1, 0.013356,-0.002950,-0.000131,1,-0.010426,-1.305826, 9.719316,1,1
1778778386205,  3079.936,  3079.931, 0.004109, 0.130033,-0.995600, 0.000065, 0.001251,-0.010019, 0.149344,-0.150459,-0.295823,1, 0.011254,-0.001957,-0.001756,1,-0.008396,-1.302117, 9.719815,1,1
1778778386226,  3079.956,  3079.951,-0.015988, 0.142865,-0.964426,-0.000173, 0.001443,-0.009617,-0.174427, 0.103477, 0.262592,1,-0.013175, 0.008618,-0.000547,1,-0.010510,-1.305207, 9.719398,1,1
1778778386253,  3079.981,  3079.981, 0.016808, 0.118605,-1.014339, 0.000178, 0.001199,-0.010153, 0.155950,-0.139849,-0.227565,1, 0.007135,-0.003462,-0.000224,1,-0.008801,-1.302820, 9.719721,1,1
1778778386275,  3080.006,  3080.001,-0.021250, 0.144164,-0.953867,-0.000217, 0.001427,-0.009526,-0.084716, 0.012997, 0.279221,1,-0.014737, 0.008773, 0.001253,1,-0.010782,-1.305881, 9.719308,1,1
1778778386298,  3080.026,  3080.026, 0.016635, 0.116385,-1.016708, 0.000163, 0.001167,-0.010124, 0.154681,-0.161697,-0.250805,1, 0.009531,-0.010639, 0.000450,1,-0.008125,-1.302750, 9.719730,1,1
1778778386323,  3080.051,  3080.051,-0.010908, 0.142667,-0.966063,-0.000058, 0.001412,-0.009699,-0.117013, 0.092631, 0.245392,1,-0.026851, 0.014966, 0.001218,1,-0.010513,-1.307289, 9.719119,1,1
1778778386345,  3080.076,  3080.071, 0.011725, 0.115348,-1.023437, 0.000117, 0.001161,-0.010202,-0.059103,-0.001887, 0.058501,1, 0.029938,-0.021412, 0.000050,1,-0.008600,-1.305301, 9.719388,1,1
1778778386368,  3080.096,  3080.096,-0.020591, 0.142235,-0.969109,-0.000162, 0.001404,-0.009723,-0.210565, 0.089051, 0.215604,1,-0.024913, 0.015943,-0.000420,1,-0.009122,-1.306566, 9.719217,1,1
1778778386393,  3080.121,  3080.121,-0.009752, 0.132925,-0.992233,-0.000139, 0.001368,-0.009837,-0.104037,-0.001739,-0.011088,1, 0.028405,-0.015730,-0.000986,1,-0.007907,-1.304411, 9.719508,1,1
1778778386415,  3080.146,  3080.141,-0.023730, 0.141309,-0.970837,-0.000207, 0.001394,-0.009765,-0.015911,-0.092769,-0.230719,1,-0.010316, 0.006935,-0.002377,1,-0.006791,-1.302610, 9.719750,1,1
1778778386438,  3080.166,  3080.166,-0.013492, 0.126474,-0.989918,-0.000165, 0.001303,-0.009851,-0.139773,-0.063195, 0.011849,1, 0.018747,-0.010487,-0.000718,1,-0.007139,-1.302897, 9.719711,1,1
1778778386463,  3080.191,  3080.191,-0.002423, 0.122741,-1.000670,-0.000002, 0.001201,-0.010054,-0.029751,-0.098972,-0.093474,1,-0.014317, 0.006872,-0.000759,1,-0.006187,-1.303088, 9.719687,1,1
1778778386485,  3080.216,  3080.211,-0.010488, 0.127012,-0.985117,-0.000148, 0.001296,-0.009803,-0.258675, 0.081532, 0.235435,1,-0.001352,-0.001431, 0.000433,1,-0.007075,-1.305274, 9.719393,1,1
1778778386508,  3080.236,  3080.236, 0.007653, 0.124328,-0.999513, 0.000087, 0.001233,-0.010040, 0.069117,-0.085667,-0.082433,1,-0.017817, 0.009265, 0.001398,1,-0.006228,-1.305457, 9.719369,1,1
1778778386534,  3080.261,  3080.261,-0.014373, 0.146966,-0.952534,-0.000161, 0.001482,-0.009537,-0.149332, 0.132469, 0.377757,1,-0.006221, 0.005427, 0.001667,1,-0.008552,-1.308965, 9.718895,1,1
1778778386555,  3080.286,  3080.281, 0.009488, 0.128494,-1.009599, 0.000124, 0.001246,-0.010132, 0.147904,-0.098930,-0.188841,1, 0.017728,-0.008985, 0.000217,1,-0.006742,-1.305074, 9.719419,1,1
1778778386578,  3080.306,  3080.306,-0.003052, 0.149641,-0.960694,-0.000056, 0.001511,-0.009606,-0.039986, 0.159371, 0.297815,1,-0.002962, 0.004909, 0.001472,1,-0.010212,-1.308196, 9.718997,1,1
1778778386604,  3080.331,  3080.331, 0.025615, 0.125652,-1.011247, 0.000244, 0.001270,-0.010102, 0.242092,-0.073233,-0.197577,1, 0.015545,-0.001320,-0.000486,1,-0.009059,-1.304974, 9.719431,1,1
1778778386625,  3080.356,  3080.351,-0.007740, 0.144895,-0.967311,-0.000092, 0.001479,-0.009650, 0.001858, 0.119657, 0.147707,1,-0.009030, 0.011100,-0.000271,1,-0.011120,-1.306215, 9.719262,1,1
1778778386648,  3080.381,  3080.376, 0.024864, 0.122698,-1.012868, 0.000244, 0.001232,-0.010119, 0.233316,-0.100172,-0.213202,1, 0.011959,-0.004558,-0.000952,1,-0.010335,-1.303107, 9.719681,1,1
1778778386674,  3080.401,  3080.401,-0.001863, 0.144305,-0.975356,-0.000000, 0.001431,-0.009801, 0.154609,-0.071078,-0.129669,1,-0.008109, 0.005365,-0.001084,1,-0.010720,-1.303538, 9.719623,1,1
1778778386695,  3080.426,  3080.421, 0.019850, 0.116922,-1.014175, 0.000194, 0.001176,-0.010143, 0.070552,-0.039218, 0.012602,1, 0.017895,-0.016632,-0.000072,1,-0.010261,-1.303143, 9.719676,1,1
1778778386718,  3080.451,  3080.446,-0.012217, 0.140413,-0.969620,-0.000109, 0.001432,-0.009702,-0.129827, 0.071756, 0.210670,1,-0.015560, 0.004947, 0.000392,1,-0.010170,-1.305711, 9.719331,1,1
1778778386744,  3080.471,  3080.471, 0.007502, 0.122480,-0.999972, 0.000078, 0.001249,-0.009974, 0.065326,-0.103397,-0.086881,1, 0.015544,-0.018945, 0.000451,1,-0.007654,-1.304034, 9.719559,1,1
1778778386765,  3080.496,  3080.491, 0.000701, 0.138191,-0.975585, 0.000001, 0.001352,-0.009718,-0.028204,-0.024732, 0.012674,1,-0.005940, 0.005294,-0.000201,1,-0.006994,-1.304982, 9.719432,1,1
1778778386788,  3080.521,  3080.516,-0.005738, 0.126466,-0.964273,-0.000079, 0.001239,-0.009631,-0.063772,-0.066781, 0.262876,1,-0.006635, 0.003092,-0.000496,1,-0.007593,-1.307195, 9.719134,1,1
1778778386814,  3080.541,  3080.541,-0.007178, 0.120378,-1.006246,-0.000071, 0.001186,-0.010045,-0.076540,-0.124575,-0.148483,1, 0.003358,-0.004404,-0.000647,1,-0.006014,-1.304972, 9.719434,1,1
1778778386836,  3080.566,  3080.561,-0.010528, 0.128424,-0.991752,-0.000157, 0.001339,-0.009835,-0.364224, 0.054327, 0.217234,1,-0.005831, 0.001241, 0.000221,1,-0.006717,-1.307223, 9.719131,1,1
1778778386858,  3080.591,  3080.586, 0.011817, 0.119501,-1.007902, 0.000131, 0.001173,-0.010130, 0.111448,-0.133012,-0.164696,1,-0.018493, 0.016156,-0.001125,1,-0.004931,-1.305487, 9.719365,1,1
1778778386884,  3080.611,  3080.611,-0.009286, 0.145470,-0.953665,-0.000107, 0.001476,-0.009545,-0.099187, 0.117158, 0.366574,1,-0.002431, 0.012247, 0.001993,1,-0.008508,-1.309492, 9.718824,1,1
1778778386906,  3080.636,  3080.631, 0.005792, 0.133891,-0.993484, 0.000075, 0.001323,-0.009972, 0.115607,-0.076701,-0.139017,1, 0.013844,-0.000611,-0.001129,1,-0.007749,-1.306219, 9.719265,1,1
1778778386928,  3080.661,  3080.656,-0.008418, 0.144213,-0.973828,-0.000107, 0.001449,-0.009691,-0.093004, 0.105960, 0.168989,1, 0.009389,-0.002421, 0.001407,1,-0.010382,-1.307992, 9.719025,1,1
1778778386954,  3080.681,  3080.681, 0.037443, 0.125802,-1.018467, 0.000380, 0.001268,-0.010201, 0.357652,-0.071426,-0.268335,1, 0.010243,-0.000754,-0.000514,1,-0.009509,-1.304802, 9.719454,1,1
1778778386976,  3080.706,  3080.701,-0.005538, 0.150244,-0.938422,-0.000069, 0.001505,-0.009353, 0.012431, 0.105561, 0.310260,1,-0.020381, 0.021752, 0.000583,1,-0.013110,-1.308060, 9.719012,1,1
1778778387003,  3080.731,  3080.731, 0.017145, 0.111620,-1.022929, 0.000178, 0.001107,-0.010208, 0.158238,-0.207731,-0.311721,1, 0.017291,-0.016774,-0.001601,1,-0.009368,-1.301811, 9.719855,1,1
1778778387024,  3080.751,  3080.751,-0.015262, 0.147669,-0.968229,-0.000133, 0.001475,-0.009692,-0.160396, 0.142736, 0.224285,1,-0.021086, 0.003045, 0.000835,1,-0.010821,-1.306058, 9.719284,1,1
1778778387046,  3080.776,  3080.771, 0.022131, 0.121917,-1.014336, 0.000227, 0.001204,-0.010175, 0.083885,-0.084237,-0.185809,1, 0.018074,-0.021578,-0.001213,1,-0.006660,-1.303777, 9.719594,1,1
1778778387073,  3080.801,  3080.801,-0.024636, 0.141362,-0.960416,-0.000233, 0.001406,-0.009602,-0.249123, 0.079302, 0.300699,1,-0.015648, 0.006911, 0.000097,1,-0.007745,-1.307471, 9.719097,1,1
1778778387094,  3080.826,  3080.821, 0.000205, 0.114383,-1.028126,-0.000001, 0.001149,-0.010276,-0.099759,-0.104673,-0.065827,1, 0.021497,-0.020970,-0.001574,1,-0.005159,-1.304712, 9.719469,1,1
1778778387116,  3080.846,  3080.841,-0.019990, 0.143367,-0.966926,-0.000190, 0.001423,-0.009677,-0.066975,-0.042265,-0.128795,1,-0.029393, 0.012292,-0.001048,1,-0.004809,-1.306579, 9.719219,1,1
1778778387143,  3080.871,  3080.871, 0.009378, 0.121162,-0.990375, 0.000063, 0.001239,-0.009849, 0.086014,-0.120749, 0.006638,1, 0.017469,-0.006383, 0.000222,1,-0.005752,-1.308398, 9.718973,1,1
1778778387164,  3080.896,  3080.891,-0.020402, 0.149878,-0.958906,-0.000189, 0.001501,-0.009601, 0.005569, 0.006712, 0.054519,1,-0.014672, 0.018453,-0.000877,1,-0.007825,-1.308830, 9.718914,1,1
1778778387186,  3080.916,  3080.911, 0.011687, 0.125402,-1.002735, 0.000084, 0.001260,-0.009992,-0.158277, 0.043460, 0.204778,1, 0.016164,-0.001218, 0.001780,1,-0.009502,-1.308768, 9.718921,1,1
1778778387213,  3080.941,  3080.941, 0.012759, 0.134242,-0.996640, 0.000153, 0.001300,-0.010043, 0.116410, 0.010114,-0.054458,1,-0.020264, 0.015027,-0.000254,1,-0.009174,-1.306978, 9.719162,1,1
1778778387235,  3080.966,  3080.961, 0.018398, 0.126671,-0.993124, 0.000148, 0.001283,-0.009869,-0.026589, 0.080660, 0.329486,1, 0.011309,-0.002750, 0.000875,1,-0.010748,-1.308258, 9.718988,1,1
1778778387256,  3080.986,  3080.981, 0.005832, 0.132840,-0.994121, 0.000088, 0.001289,-0.010003, 0.234407,-0.178570,-0.257762,1, 0.012475,-0.002708,-0.001629,1,-0.008485,-1.303954, 9.719568,1,1
1778778387283,  3081.011,  3081.011,-0.012649, 0.138498,-0.975833,-0.000149, 0.001405,-0.009708,-0.133961, 0.051954, 0.149611,1, 0.012349,-0.012145, 0.000948,1,-0.009545,-1.305864, 9.719312,1,1
1778778387305,  3081.036,  3081.031, 0.007907, 0.138362,-0.990504, 0.000113, 0.001341,-0.009969, 0.231237,-0.143154,-0.301911,1,-0.001028,-0.006811,-0.001634,1,-0.006832,-1.303533, 9.719626,1,1
1778778387326,  3081.056,  3081.051,-0.007840, 0.140935,-0.957531,-0.000101, 0.001426,-0.009534,-0.097216, 0.127066, 0.319934,1,-0.018488, 0.007929, 0.000474,1,-0.008555,-1.308140, 9.719007,1,1
1778778387353,  3081.081,  3081.081, 0.011132, 0.118133,-1.016200, 0.000111, 0.001173,-0.010172, 0.103669,-0.146169,-0.246043,1, 0.004281,-0.004073,-0.002629,1,-0.005363,-1.304525, 9.719495,1,1
1778778387375,  3081.106,  3081.101,-0.015316, 0.142229,-0.970372,-0.000190, 0.001439,-0.009648,-0.242381, 0.112036, 0.245415,1,-0.014538, 0.007118, 0.000173,1,-0.007056,-1.308339, 9.718981,1,1
1778778387396,  3081.126,  3081.121, 0.016022, 0.119901,-1.015293, 0.000178, 0.001183,-0.010180, 0.077826,-0.096904,-0.146215,1, 0.017972,-0.014685,-0.000585,1,-0.004820,-1.306151, 9.719276,1,1
1778778387423,  3081.151,  3081.151,-0.024393, 0.145608,-0.956623,-0.000226, 0.001464,-0.009567,-0.245685, 0.118898, 0.337619,1,-0.010415, 0.008740, 0.001208,1,-0.006746,-1.309347, 9.718845,1,1
1778778387445,  3081.176,  3081.171, 0.008507, 0.118059,-1.019244, 0.000094, 0.001157,-0.010216, 0.043712,-0.089458,-0.109717,1, 0.024741,-0.014216,-0.000640,1,-0.005049,-1.305674, 9.719340,1,1
1778778387466,  3081.196,  3081.191,-0.015129, 0.146142,-0.959644,-0.000155, 0.001455,-0.009605,-0.018666, 0.059529, 0.009512,1,-0.022451, 0.019267, 0.000174,1,-0.006738,-1.307418, 9.719105,1,1
1778778387493,  3081.221,  3081.221, 0.018136, 0.121208,-1.004441, 0.000142, 0.001238,-0.009997, 0.170874,-0.117528,-0.130931,1, 0.022054,-0.009705, 0.000057,1,-0.006675,-1.305491, 9.719364,1,1
1778778387515,  3081.246,  3081.241,-0.014669, 0.146075,-0.959094,-0.000130, 0.001456,-0.009588, 0.060000, 0.033082, 0.067951,1,-0.019035, 0.017729, 0.000108,1,-0.008407,-1.306865, 9.719178,1,1
1778778387538,  3081.266,  3081.266, 0.014079, 0.120191,-1.007160, 0.000123, 0.001219,-0.010048, 0.130136,-0.126229,-0.157424,1, 0.024324,-0.016287,-0.001477,1,-0.007418,-1.304146, 9.719543,1,1
1778778387563,  3081.291,  3081.291, 0.003978, 0.134910,-0.991505, 0.000069, 0.001325,-0.009991, 0.031305, 0.017923,-0.003930,1,-0.022633, 0.012756,-0.000824,1,-0.008094,-1.305797, 9.719321,1,1
1778778387585,  3081.316,  3081.311, 0.019884, 0.117946,-1.004071, 0.000176, 0.001191,-0.009992, 0.003386, 0.033152, 0.210369,1, 0.011021,-0.009067, 0.000567,1,-0.008465,-1.306999, 9.719160,1,1
1778778387608,  3081.336,  3081.336,-0.000646, 0.136533,-0.977429, 0.000036, 0.001342,-0.009821,-0.014015, 0.032057, 0.133875,1,-0.018649, 0.007770,-0.001000,1,-0.007912,-1.307456, 9.719099,1,1
1778778387634,  3081.361,  3081.361,-0.011659, 0.135306,-0.978525,-0.000143, 0.001388,-0.009736,-0.121350, 0.019412, 0.123044,1, 0.015954,-0.014594,-0.000516,1,-0.006561,-1.306991, 9.719162,1,1
1778778387655,  3081.386,  3081.381,-0.004291, 0.137065,-0.986984,-0.000019, 0.001339,-0.009937, 0.077935,-0.121564,-0.249253,1,-0.005189,-0.003651,-0.000343,1,-0.004429,-1.305225, 9.719400,1,1
1778778387678,  3081.406,  3081.406,-0.005545, 0.136565,-0.972220,-0.000088, 0.001397,-0.009674,-0.060414, 0.030756, 0.184738,1, 0.011086,-0.006065, 0.000151,1,-0.005847,-1.308141, 9.719008,1,1
1778778387704,  3081.431,  3081.431, 0.010178, 0.124711,-1.006075, 0.000112, 0.001230,-0.010090, 0.094664,-0.083723,-0.147026,1,-0.004718, 0.006444,-0.001628,1,-0.005339,-1.306862, 9.719180,1,1
1778778387725,  3081.456,  3081.451,-0.011811, 0.136535,-0.978845,-0.000152, 0.001393,-0.009741,-0.258528, 0.141078, 0.280845,1,-0.007515, 0.004115, 0.001031,1,-0.006999,-1.309771, 9.718788,1,1
1778778387748,  3081.476,  3081.476, 0.016810, 0.122501,-1.019651, 0.000180, 0.001205,-0.010234, 0.160197,-0.105113,-0.280125,1,-0.001265, 0.001910,-0.001434,1,-0.004706,-1.306477, 9.719233,1,1
1778778387774,  3081.501,  3081.501,-0.009605, 0.148056,-0.957704,-0.000097, 0.001487,-0.009594,-0.101593, 0.142186, 0.326918,1,-0.012110, 0.011990, 0.001165,1,-0.007778,-1.310123, 9.718740,1,1
1778778387795,  3081.526,  3081.521, 0.014365, 0.116964,-1.012644, 0.000151, 0.001159,-0.010146, 0.111547,-0.099403,-0.082360,1, 0.022877,-0.010819,-0.000304,1,-0.006499,-1.306395, 9.719242,1,1
1778778387818,  3081.546,  3081.546,-0.016324, 0.144776,-0.965430,-0.000160, 0.001472,-0.009645,-0.168184, 0.111512, 0.251354,1,-0.005043, 0.002780, 0.000334,1,-0.008183,-1.308414, 9.718969,1,1
1778778387844,  3081.571,  3081.571, 0.025043, 0.121087,-1.018135, 0.000221, 0.001247,-0.010146, 0.239304,-0.118849,-0.265243,1, 0.013690,-0.010110,-0.000416,1,-0.005973,-1.305887, 9.719311,1,1
1778778387865,  3081.596,  3081.591,-0.017110, 0.144791,-0.947695,-0.000161, 0.001444,-0.009518, 0.020085, 0.075718, 0.167649,1,-0.023007, 0.015368, 0.000371,1,-0.007333,-1.308951, 9.718898,1,1
1778778387888,  3081.621,  3081.616, 0.003574, 0.117805,-1.014452, 0.000025, 0.001212,-0.010089, 0.029518,-0.150727,-0.229086,1, 0.026664,-0.021107,-0.001306,1,-0.004875,-1.305176, 9.719407,1,1
1778778387914,  3081.641,  3081.641, 0.001351, 0.139692,-0.992184, 0.000036, 0.001365,-0.009988, 0.007795, 0.062915,-0.010836,1,-0.027075, 0.013568,-0.000240,1,-0.005870,-1.307832, 9.719049,1,1
1778778387935,  3081.666,  3081.661, 0.016584, 0.119353,-0.999219, 0.000145, 0.001223,-0.009944,-0.023821, 0.089052, 0.224944,1, 0.009462,-0.008590, 0.000602,1,-0.006009,-1.309287, 9.718854,1,1
1778778387958,  3081.691,  3081.686,-0.008096, 0.138215,-0.974922,-0.000038, 0.001367,-0.009798,-0.084774, 0.046916, 0.158236,1,-0.015562, 0.010667,-0.000330,1,-0.005706,-1.308989, 9.718894,1,1
1778778387984,  3081.711,  3081.711,-0.013083, 0.136119,-0.983164,-0.000166, 0.001398,-0.009766,-0.133828, 0.026323, 0.077408,1, 0.018646,-0.011752, 0.000809,1,-0.005170,-1.307969, 9.719031,1,1
1778778388006,  3081.736,  3081.731,-0.001508, 0.140359,-0.981766, 0.000011, 0.001386,-0.009892, 0.133943,-0.106159,-0.276997,1,-0.010449, 0.001827,-0.000663,1,-0.003583,-1.306674, 9.719207,1,1
1778778388029,  3081.761,  3081.756,-0.005703, 0.138727,-0.966414,-0.000091, 0.001436,-0.009614,-0.061516, 0.050623, 0.241498,1, 0.015308,-0.008253, 0.000429,1,-0.005334,-1.309348, 9.718845,1,1
1778778388054,  3081.781,  3081.781, 0.010282, 0.122143,-1.011348, 0.000111, 0.001204,-0.010133, 0.096445,-0.109169,-0.198777,1,-0.000351, 0.006359,-0.000404,1,-0.004572,-1.306994, 9.719163,1,1
1778778388076,  3081.806,  3081.801,-0.004390, 0.134544,-0.985646,-0.000083, 0.001383,-0.009806,-0.193090, 0.147265, 0.234960,1,-0.003981, 0.004871, 0.001942,1,-0.006775,-1.309105, 9.718878,1,1
1778778388099,  3081.831,  3081.826, 0.020786, 0.124821,-1.005092, 0.000234, 0.001225,-0.010101, 0.198332,-0.082542,-0.137369,1,-0.008578, 0.006720,-0.000464,1,-0.005711,-1.306880, 9.719178,1,1
1778778388124,  3081.851,  3081.851,-0.014165, 0.149402,-0.954604,-0.000158, 0.001488,-0.009537,-0.146555, 0.155685, 0.357361,1,-0.005523, 0.006011, 0.001657,1,-0.007841,-1.309620, 9.718807,1,1
1778778388146,  3081.876,  3081.871, 0.013485, 0.120544,-1.024452, 0.000151, 0.001188,-0.010272, 0.112420,-0.128220,-0.212856,1, 0.022058,-0.016816,-0.000364,1,-0.005232,-1.305322, 9.719387,1,1
1778778388169,  3081.901,  3081.896,-0.011412, 0.146606,-0.958229,-0.000133, 0.001470,-0.009582,-0.119365, 0.128978, 0.321914,1,-0.010998, 0.004978, 0.000784,1,-0.007610,-1.309071, 9.718882,1,1
1778778388194,  3081.921,  3081.921, 0.018427, 0.120978,-1.006912, 0.000166, 0.001217,-0.010031, 0.174738,-0.120322,-0.155232,1, 0.012337,-0.008217,-0.000216,1,-0.005712,-1.306327, 9.719253,1,1
1778778388216,  3081.946,  3081.941,-0.021267, 0.146778,-0.961931,-0.000214, 0.001488,-0.009603,-0.089994, 0.076338, 0.190273,1,-0.017215, 0.009154,-0.000000,1,-0.007073,-1.308422, 9.718969,1,1
1778778388243,  3081.971,  3081.971, 0.014736, 0.121594,-1.017077, 0.000139, 0.001232,-0.010171, 0.139655,-0.113416,-0.254799,1, 0.012502,-0.011742,-0.001186,1,-0.004489,-1.305460, 9.719369,1,1
1778778388264,  3081.991,  3081.991,-0.006027, 0.142235,-0.971516,-0.000032, 0.001403,-0.009770,-0.065164, 0.086829, 0.191706,1,-0.021000, 0.013903, 0.000133,1,-0.006491,-1.308671, 9.718936,1,1
1778778388286,  3082.016,  3082.011, 0.010829, 0.120545,-1.009421, 0.000090, 0.001220,-0.010069,-0.056547, 0.000197, 0.146226,1, 0.020107,-0.011134, 0.000080,1,-0.006211,-1.307463, 9.719099,1,1
1778778388313,  3082.041,  3082.041,-0.007371, 0.142987,-0.979946,-0.000049, 0.001411,-0.009841,-0.078618, 0.094682, 0.109102,1,-0.018313, 0.010263, 0.000631,1,-0.006658,-1.308105, 9.719012,1,1
1778778388334,  3082.066,  3082.061, 0.013999, 0.120290,-1.011347, 0.000130, 0.001220,-0.010099,-0.042702, 0.019500, 0.041894,1, 0.013463,-0.010021, 0.000426,1,-0.005904,-1.307196, 9.719135,1,1
1778778388356,  3082.086,  3082.081,-0.007952, 0.142731,-0.972765,-0.000049, 0.001408,-0.009772, 0.100805,-0.065899,-0.111386,1,-0.010670, 0.005850,-0.000519,1,-0.005456,-1.306614, 9.719213,1,1
1778778388383,  3082.111,  3082.111, 0.000078, 0.134123,-0.983313,-0.000038, 0.001362,-0.009766,-0.006454, 0.007605, 0.076064,1, 0.017090,-0.006325, 0.000753,1,-0.007029,-1.307168, 9.719138,1,1
1778778388405,  3082.136,  3082.131,-0.005810, 0.143296,-0.973675,-0.000034, 0.001417,-0.009786, 0.125511,-0.068864,-0.168598,1,-0.010691, 0.009396,-0.000819,1,-0.007108,-1.306143, 9.719275,1,1
1778778388426,  3082.156,  3082.151, 0.001782, 0.131854,-0.982197,-0.000025, 0.001356,-0.009762,-0.160691, 0.108079, 0.324209,1,-0.001054, 0.000306, 0.000090,1,-0.008682,-1.308276, 9.718987,1,1
1778778388453,  3082.181,  3082.181, 0.016267, 0.126323,-1.004870, 0.000189, 0.001220,-0.010112, 0.152886,-0.066718,-0.135050,1,-0.014744, 0.009213,-0.000857,1,-0.006902,-1.305979, 9.719298,1,1
1778778388475,  3082.206,  3082.201,-0.001147, 0.132433,-0.986742,-0.000049, 0.001363,-0.009810,-0.161189, 0.117281, 0.328676,1, 0.000459,-0.001999, 0.000521,1,-0.008491,-1.308231, 9.718994,1,1
1778778388496,  3082.226,  3082.221, 0.009716, 0.125418,-1.008072, 0.000120, 0.001217,-0.010119, 0.124116,-0.167860,-0.226468,1, 0.014096,-0.011762,-0.001511,1,-0.005751,-1.304498, 9.719498,1,1
1778778388523,  3082.251,  3082.251,-0.014160, 0.147353,-0.958555,-0.000155, 0.001463,-0.009575,-0.146979, 0.136434, 0.318729,1,-0.005906, 0.002677, 0.001865,1,-0.008207,-1.308786, 9.718920,1,1
1778778388545,  3082.276,  3082.271, 0.011751, 0.125834,-1.007040, 0.000144, 0.001235,-0.010123, 0.148049,-0.119937,-0.207825,1, 0.013175,-0.010750,-0.001522,1,-0.005781,-1.305471, 9.719367,1,1
1778778388566,  3082.296,  3082.291,-0.017302, 0.146727,-0.960018,-0.000185, 0.001466,-0.009585,-0.086750, 0.070646, 0.184332,1,-0.018739, 0.010561,-0.000150,1,-0.007207,-1.308044, 9.719020,1,1
1778778388593,  3082.321,  3082.321, 0.010855, 0.122205,-1.008784, 0.000095, 0.001212,-0.010069, 0.100612,-0.108083,-0.173564,1, 0.010034,-0.009204,-0.001515,1,-0.005552,-1.306192, 9.719271,1,1
1778778388615,  3082.346,  3082.341,-0.013879, 0.145852,-0.966584,-0.000157, 0.001473,-0.009653,-0.088401, 0.072847, 0.110126,1,-0.013964, 0.008283,-0.000831,1,-0.006468,-1.307960, 9.719032,1,1
1778778388636,  3082.366,  3082.361, 0.016668, 0.121490,-1.009635, 0.000148, 0.001223,-0.010079,-0.009056,-0.019010, 0.030500,1, 0.014309,-0.005952, 0.000610,1,-0.006024,-1.306904, 9.719174,1,1
1778778388663,  3082.391,  3082.391,-0.010464, 0.143293,-0.965931,-0.000064, 0.001406,-0.009696,-0.110020, 0.097069, 0.246453,1,-0.014366, 0.009743, 0.000026,1,-0.007704,-1.308598, 9.718946,1,1
1778778388685,  3082.416,  3082.411, 0.016264, 0.118756,-1.021199, 0.000163, 0.001207,-0.010175,-0.010415,-0.020437, 0.043008,1, 0.020052,-0.011863,-0.000544,1,-0.006835,-1.306703, 9.719201,1,1
1778778388706,  3082.436,  3082.431,-0.002934, 0.146255,-0.969273, 0.000010, 0.001445,-0.009755, 0.154759,-0.078387,-0.223881,1,-0.015809, 0.010892,-0.000543,1,-0.006277,-1.306184, 9.719271,1,1
1778778388734,  3082.461,  3082.461,-0.003615, 0.130999,-0.979468,-0.000064, 0.001338,-0.009731,-0.043000,-0.022857, 0.113788,1, 0.025663,-0.015995,-0.000051,1,-0.007059,-1.306728, 9.719197,1,1
1778778388755,  3082.486,  3082.481,-0.007694, 0.145116,-0.974208,-0.000057, 0.001427,-0.009791, 0.086187,-0.119374,-0.191049,1,-0.011798, 0.009155,-0.001116,1,-0.006161,-1.305003, 9.719430,1,1
1778778388778,  3082.506,  3082.506, 0.003563, 0.135579,-0.986751,-0.000007, 0.001386,-0.009810, 0.027399, 0.022340, 0.042403,1, 0.018309,-0.012061,-0.000090,1,-0.007171,-1.306673, 9.719205,1,1
1778778388804,  3082.531,  3082.531, 0.012835, 0.124521,-1.001753, 0.000159, 0.001209,-0.010075, 0.119830,-0.084096,-0.104443,1,-0.011123, 0.004945,-0.001264,1,-0.006191,-1.305573, 9.719353,1,1
1778778388825,  3082.556,  3082.551,-0.003826, 0.132756,-0.983778,-0.000074, 0.001358,-0.009786,-0.191329, 0.089204, 0.356694,1,-0.001211,-0.000333, 0.000289,1,-0.007740,-1.307684, 9.719069,1,1
1778778388848,  3082.576,  3082.576, 0.010680, 0.128067,-1.006512, 0.000122, 0.001241,-0.010115, 0.098670,-0.049689,-0.151158,1,-0.012385, 0.004788,-0.000726,1,-0.006223,-1.305982, 9.719298,1,1
1778778388874,  3082.601,  3082.601,-0.013500, 0.141406,-0.967099,-0.000153, 0.001432,-0.009644,-0.139596, 0.079025, 0.235062,1, 0.000374,-0.001292, 0.000667,1,-0.007170,-1.307682, 9.719069,1,1
1778778388895,  3082.626,  3082.621, 0.009464, 0.131022,-0.996538, 0.000116, 0.001280,-0.010000, 0.151776,-0.144044,-0.162080,1, 0.004541,-0.002320,-0.000955,1,-0.005862,-1.305767, 9.719327,1,1
1778778388918,  3082.646,  3082.646,-0.019752, 0.145261,-0.965681,-0.000212, 0.001458,-0.009623,-0.201099, 0.116256, 0.248895,1, 0.006868,-0.004601, 0.000462,1,-0.007254,-1.308056, 9.719019,1,1
1778778388944,  3082.671,  3082.671, 0.014348, 0.119363,-1.016832, 0.000145, 0.001189,-0.010188, 0.135323,-0.134665,-0.252318,1, 0.009110,-0.007092,-0.001964,1,-0.005151,-1.304929, 9.719440,1,1
1778778388965,  3082.696,  3082.691,-0.014092, 0.147911,-0.953948,-0.000153, 0.001475,-0.009540,-0.096156, 0.088639, 0.217014,1,-0.018125, 0.015124, 0.000572,1,-0.007593,-1.308051, 9.719019,1,1
1778778388988,  3082.716,  3082.716, 0.015505, 0.117642,-1.011245, 0.000153, 0.001179,-0.010088, 0.145493,-0.151789,-0.197558,1, 0.013478,-0.006818,-0.001536,1,-0.006344,-1.305047, 9.719423,1,1
1778778389014,  3082.741,  3082.741,-0.008273, 0.143184,-0.967833,-0.000054, 0.001412,-0.009724,-0.089238, 0.096665, 0.227893,1,-0.018302, 0.011911, 0.000138,1,-0.008479,-1.308062, 9.719017,1,1
1778778389036,  3082.766,  3082.761, 0.019305, 0.119013,-1.012240, 0.000198, 0.001199,-0.010122, 0.047907,-0.027017,-0.002703,1, 0.018884,-0.013939, 0.000021,1,-0.007197,-1.306717, 9.719198,1,1
1778778389058,  3082.786,  3082.786,-0.012182, 0.143687,-0.964831,-0.000087, 0.001417,-0.009706,-0.126953, 0.101342, 0.257295,1,-0.013517, 0.010708, 0.000635,1,-0.007825,-1.308166, 9.719004,1,1
1778778389084,  3082.811,  3082.811, 0.000422, 0.127513,-0.993343,-0.000031, 0.001300,-0.009885,-0.002958,-0.056331,-0.022186,1, 0.018412,-0.011547, 0.000165,1,-0.006740,-1.306240, 9.719263,1,1
1778778389106,  3082.836,  3082.831,-0.008242, 0.144409,-0.967606,-0.000055, 0.001428,-0.009721, 0.093374,-0.055840,-0.109613,1,-0.016490, 0.008225,-0.000906,1,-0.006641,-1.306690, 9.719203,1,1
1778778389128,  3082.861,  3082.856, 0.001044, 0.129751,-0.987043,-0.000018, 0.001326,-0.009821, 0.003157,-0.034998, 0.039519,1, 0.019068,-0.012416,-0.001337,1,-0.006693,-1.306829, 9.719184,1,1
1778778389154,  3082.881,  3082.881, 0.006689, 0.124629,-1.004847, 0.000098, 0.001222,-0.010097, 0.059592,-0.083610,-0.134865,1,-0.009087, 0.006287,-0.000982,1,-0.006199,-1.306083, 9.719285,1,0
1778778389176,  3082.906,  3082.901, 0.003935, 0.129484,-0.992891, 0.000001, 0.001308,-0.009876,-0.168288, 0.069888, 0.237809,1, 0.004290,-0.001230, 0.000517,1,-0.007179,-1.307487, 9.719095,1,0
1778778389198,  3082.931,  3082.926, 0.010203, 0.130679,-0.993227, 0.000135, 0.001269,-0.009985, 0.093353,-0.024780,-0.020980,1,-0.017865, 0.009722, 0.000047,1,-0.007003,-1.306857, 9.719180,1,0
1778778389224,  3082.951,  3082.951,-0.018998, 0.142310,-0.961656,-0.000209, 0.001427,-0.009612,-0.194039, 0.087244, 0.288360,1, 0.005185,-0.006497, 0.001130,1,-0.007532,-1.308183, 9.719001,1,0
1778778389246,  3082.976,  3082.971, 0.013564, 0.127321,-1.003067, 0.000150, 0.001231,-0.010098, 0.210371,-0.171731,-0.320191,1, 0.006243,-0.006608,-0.000532,1,-0.005097,-1.305383, 9.719379,1,0
1778778389269,  3083.001,  3082.996,-0.008744, 0.145774,-0.951885,-0.000099, 0.001464,-0.009491,-0.094192, 0.119648, 0.383966,1, 0.002074,-0.000862, 0.000279,1,-0.008414,-1.309842, 9.718777,1,0
1778778389294,  3083.021,  3083.021, 0.018109, 0.119111,-1.008399, 0.000186, 0.001190,-0.010074, 0.170935,-0.138453,-0.169798,1, 0.012586,-0.004343,-0.001636,1,-0.006509,-1.306146, 9.719276,1,0
1778778389316,  3083.046,  3083.041,-0.011267, 0.144751,-0.971046,-0.000137, 0.001451,-0.009668,-0.118738, 0.094699, 0.220413,1,-0.010283, 0.008405,-0.000081,1,-0.008287,-1.308262, 9.718990,1,0
1778778389339,  3083.071,  3083.066, 0.025100, 0.120176,-1.018360, 0.000254, 0.001183,-0.010203, 0.239504,-0.126986,-0.267339,1, 0.001418,-0.001309,-0.002014,1,-0.006596,-1.305463, 9.719368,1,0
1778778389364,  3083.091,  3083.091,-0.015598, 0.144956,-0.960763,-0.000129, 0.001447,-0.009616,-0.160987, 0.113450, 0.297142,1,-0.010820, 0.007823, 0.000096,1,-0.008263,-1.308419, 9.718968,1,0
1778778389386,  3083.116,  3083.111, 0.017316, 0.115996,-1.021855, 0.000178, 0.001165,-0.010215, 0.076157,-0.088698,-0.098504,1, 0.020453,-0.014274,-0.000659,1,-0.006544,-1.305637, 9.719344,1,0
1778778389409,  3083.141,  3083.136,-0.013679, 0.146621,-0.964144,-0.000103, 0.001464,-0.009678,-0.141509, 0.130464, 0.264082,1,-0.010013, 0.004704, 0.000653,1,-0.007510,-1.307702, 9.719066,1,0
1778778389434,  3083.161,  3083.161, 0.013636, 0.122548,-0.999807, 0.000117, 0.001258,-0.009977, 0.127291,-0.104564,-0.085512,1, 0.013577,-0.009372, 0.000170,1,-0.006146,-1.305927, 9.719306,1,0
1778778389456,  3083.186,  3083.181,-0.018078, 0.142269,-0.957928,-0.000153, 0.001418,-0.009574, 0.051535,-0.003014, 0.104829,1,-0.017084, 0.013602, 0.000813,1,-0.008177,-1.308056, 9.719018,1,0
1778778389483,  3083.211,  3083.211, 0.011898, 0.122572,-1.003478, 0.000096, 0.001240,-0.010014, 0.109309,-0.104613,-0.121553,1, 0.018501,-0.016349,-0.000039,1,-0.006861,-1.306062, 9.719287,1,0
1778778389505,  3083.231,  3083.231, 0.009951, 0.131985,-0.985288, 0.000119, 0.001294,-0.009932, 0.090004,-0.013352, 0.056689,1,-0.022533, 0.015861, 0.000454,1,-0.008075,-1.308382, 9.718974,1,0
1778778389526,  3083.256,  3083.251, 0.013778, 0.125177,-0.997896, 0.000109, 0.001246,-0.009927,-0.044807, 0.080085, 0.264912,1, 0.015646,-0.005956, 0.001482,1,-0.008887,-1.309290, 9.718851,1,0
1778778389553,  3083.281,  3083.281,-0.000397, 0.130481,-0.987363, 0.000036, 0.001268,-0.009933,-0.012104,-0.027424, 0.036432,1,-0.013081, 0.009518,-0.000470,1,-0.008504,-1.307407, 9.719105,1,0
1778778389575,  3083.306,  3083.301, 0.017754, 0.124332,-1.012187, 0.000152, 0.001246,-0.010096,-0.095531, 0.037058, 0.077177,1, 0.013521,-0.007736, 0.000888,1,-0.008252,-1.307020, 9.719157,1,0
1778778389596,  3083.326,  3083.321,-0.000620, 0.135514,-0.970480, 0.000035, 0.001317,-0.009762, 0.203180,-0.131904,-0.166622,1,-0.008904, 0.007839,-0.000619,1,-0.008143,-1.306691, 9.719201,1,0
1778778389623,  3083.351,  3083.351,-0.002894, 0.132765,-0.982895,-0.000084, 0.001362,-0.009762,-0.037562,-0.005519, 0.080181,1, 0.020816,-0.008584,-0.001310,1,-0.008914,-1.306854, 9.719179,1,0
1778778389645,  3083.376,  3083.371, 0.003437, 0.141638,-0.971693, 0.000065, 0.001379,-0.009776, 0.189788,-0.111934,-0.235729,1,-0.014730, 0.010343, 0.000620,1,-0.008605,-1.306508, 9.719226,1,0
1778778389666,  3083.396,  3083.391, 0.011706, 0.131572,-0.986148, 0.000077, 0.001345,-0.009795,-0.071511, 0.146770, 0.327871,1, 0.001877,-0.000493, 0.001167,1,-0.011113,-1.309406, 9.718833,1,0
1778778389693,  3083.421,  3083.421, 0.031403, 0.120642,-0.999506, 0.000344, 0.001183,-0.010061, 0.297625,-0.123073,-0.082532,1,-0.018181, 0.019310, 0.000383,1,-0.010932,-1.306725, 9.719194,1,0
1778778389715,  3083.446,  3083.441, 0.009890, 0.138373,-0.982616, 0.000038, 0.001398,-0.009752,-0.154983, 0.167164, 0.456399,1, 0.006728, 0.002045, 0.000404,1,-0.013676,-1.309301, 9.718844,1,0
1778778389736,  3083.466,  3083.461, 0.029294, 0.121795,-1.022991, 0.000330, 0.001176,-0.010330, 0.334809,-0.135105,-0.434624,1, 0.026197,-0.016763,-0.001744,1,-0.010021,-1.302991, 9.719696,1,0
1778778389763,  3083.491,  3083.491,-0.027410, 0.149688,-0.936817,-0.000294, 0.001519,-0.009328,-0.281345, 0.160156, 0.532011,1, 0.010109,-0.010312,-0.000221,1,-0.012226,-1.307471, 9.719092,1,0
1778778389785,  3083.516,  3083.511, 0.042474, 0.117298,-1.019876, 0.000481, 0.001119,-0.010333, 0.458504,-0.233349,-0.602379,1, 0.019666,-0.011417,-0.000344,1,-0.007374,-1.300818, 9.719990,1,0
1778778389806,  3083.536,  3083.531,-0.020024, 0.153757,-0.914752,-0.000235, 0.001578,-0.009111,-0.056788, 0.118338, 0.452357,1,-0.048768, 0.032202, 0.000765,1,-0.013232,-1.309384, 9.718833,1,0
1778778389833,  3083.561,  3083.561, 0.048455, 0.106780,-1.053560, 0.000477, 0.001103,-0.010517, 0.466817,-0.254234,-0.611986,1, 0.022533,-0.011363,-0.000223,1,-0.008010,-1.300690, 9.720006,1,0
1778778389855,  3083.586,  3083.581,-0.025969, 0.152785,-0.936437,-0.000318, 0.001576,-0.009248,-0.252521, 0.195236, 0.592342,1,-0.043296, 0.023189, 0.001289,1,-0.014068,-1.309790, 9.718778,1,0
1778778389877,  3083.606,  3083.601, 0.060790, 0.100369,-1.081720, 0.000626, 0.001003,-0.010856, 0.272146,-0.055402,-0.419143,1, 0.065437,-0.043671,-0.000344,1,-0.007811,-1.301056, 9.719957,1,0
1778778389904,  3083.631,  3083.631,-0.020437, 0.154410,-0.904664,-0.000162, 0.001518,-0.009124,-0.214528, 0.205201, 0.847153,1,-0.040016, 0.029289, 0.002138,1,-0.015029,-1.310283, 9.718710,1,0
1778778389925,  3083.656,  3083.651, 0.054353, 0.111598,-1.046320, 0.000587, 0.001069,-0.010569, 0.513142,-0.186643,-0.401400,1, 0.055708,-0.026016,-0.000233,1,-0.010554,-1.300712, 9.720001,1,0
1778778389947,  3083.676,  3083.671,-0.005722, 0.155530,-0.919105,-0.000080, 0.001571,-0.009128, 0.132164, 0.060391, 0.320365,1,-0.061400, 0.043755, 0.001195,1,-0.016490,-1.307957, 9.719021,1,0
1778778389974,  3083.701,  3083.701, 0.059185, 0.112945,-1.057950, 0.000603, 0.001149,-0.010580, 0.568527,-0.192969,-0.654932,1, 0.019231,-0.008855,-0.000784,1,-0.011601,-1.299988, 9.720097,1,0
1778778389995,  3083.726,  3083.721, 0.039245, 0.132763,-0.953308, 0.000357, 0.001363,-0.009416, 0.257210, 0.129366, 0.597014,1,-0.032337, 0.026846, 0.001770,1,-0.018523,-1.308405, 9.718957,1,0
1778778390018,  3083.746,  3083.746, 0.078037, 0.128500,-1.009353, 0.000779, 0.001252,-0.010163, 0.747484,-0.042102,-0.178585,1,-0.015629, 0.027130, 0.000720,1,-0.018644,-1.302741, 9.719717,1,0
1778778390044,  3083.771,  3083.771, 0.096292, 0.122703,-0.956020, 0.000930, 0.001217,-0.009527, 0.920200,-0.103087, 0.343865,1,-0.003516, 0.019702, 0.001456,1,-0.024718,-1.306503, 9.719199,1,0
1778778390065,  3083.796,  3083.791, 0.104996, 0.114738,-0.953566, 0.001042, 0.001193,-0.009561, 0.955521, 0.023205, 0.201331,1,-0.006177, 0.030472, 0.002225,1,-0.028399,-1.305621, 9.719307,1,0
1778778390088,  3083.816,  3083.816, 0.107917, 0.136586,-0.968860, 0.001098, 0.001365,-0.009665, 1.022738, 0.033928, 0.218027,1, 0.019054, 0.010587, 0.000682,1,-0.035895,-1.304938, 9.719374,1,0
1778778390114,  3083.841,  3083.841, 0.113486, 0.115774,-0.977916, 0.001088, 0.001187,-0.009801, 1.072775,-0.167948, 0.129495,1, 0.011677, 0.029995,-0.000215,1,-0.041066,-1.302942, 9.719622,1,0
1778778390135,  3083.866,  3083.861, 0.116880, 0.121831,-0.988454, 0.001132, 0.001208,-0.009925, 1.033323,-0.066947,-0.145234,1, 0.002982, 0.013985, 0.005502,1,-0.043297,-1.300427, 9.719949,1,0
1778778390158,  3083.886,  3083.886, 0.126763, 0.130662,-0.986822, 0.001330, 0.001291,-0.009823, 1.192916,-0.019323, 0.042467,1, 0.008778, 0.002248, 0.003984,1,-0.050293,-1.300404, 9.719918,1,0
1778778390184,  3083.911,  3083.911, 0.128761, 0.112516,-0.956167, 0.001248, 0.001142,-0.009601, 1.207401,-0.198257, 0.342922,1,-0.001096, 0.030777, 0.000873,1,-0.056271,-1.301697, 9.719712,1,0
1778778390205,  3083.936,  3083.931, 0.121580, 0.128325,-1.010488, 0.001167, 0.001287,-0.010202, 1.019665, 0.004194,-0.337889,1, 0.003541, 0.001568, 0.005282,1,-0.055535,-1.299347, 9.720031,1,0
1778778390228,  3083.956,  3083.956, 0.131215, 0.135768,-1.007762, 0.001369, 0.001334,-0.010019, 1.226300, 0.029355,-0.163132,1, 0.005064,-0.010473, 0.003187,1,-0.060169,-1.301922, 9.719659,1,0
1778778390254,  3083.981,  3083.981, 0.130591, 0.119392,-0.968473, 0.001237, 0.001201,-0.009754, 1.216912,-0.132734, 0.221943,1,-0.009806, 0.028058, 0.001002,1,-0.064630,-1.303715, 9.719390,1,0
1778778390276,  3084.006,  3084.001, 0.118630, 0.131315,-1.015671, 0.001143, 0.001314,-0.010266, 1.072065, 0.019110,-0.434600,1, 0.003255,-0.007087, 0.005494,1,-0.062713,-1.301538, 9.719694,1,0
1778778390298,  3084.026,  3084.026, 0.120392, 0.144003,-1.008542, 0.001248, 0.001429,-0.009999, 1.114264, 0.107494,-0.171173,1, 0.015076,-0.022633, 0.003009,1,-0.065693,-1.304222, 9.719315,1,0
1778778390324,  3084.051,  3084.051, 0.145493, 0.127048,-0.993206, 0.001394, 0.001280,-0.010026, 1.358789,-0.059476,-0.020878,1,-0.014965, 0.030228, 0.000109,1,-0.068940,-1.305853, 9.719073,1,0
1778778390346,  3084.076,  3084.071, 0.114322, 0.133161,-0.991854, 0.001106, 0.001371,-0.009966, 1.033562, 0.182177,-0.135193,1,-0.000622,-0.000942, 0.002952,1,-0.068816,-1.305956, 9.719060,1,0
1778778390368,  3084.101,  3084.096, 0.126796, 0.136241,-1.019038, 0.001326, 0.001357,-0.010118, 1.174436, 0.032614,-0.273953,1, 0.026463,-0.030026,-0.000448,1,-0.068080,-1.302639, 9.719510,1,0
1778778390394,  3084.121,  3084.121, 0.142617, 0.118473,-0.987142, 0.001384, 0.001201,-0.009944, 1.327898,-0.143357, 0.038591,1,-0.024099, 0.029296,-0.000378,1,-0.071600,-1.305928, 9.719044,1,0
1778778390416,  3084.146,  3084.141, 0.127172, 0.127828,-0.988757, 0.001227, 0.001314,-0.009984, 1.102686, 0.089797,-0.117774,1, 0.009510,-0.014320, 0.002970,1,-0.069238,-1.304489, 9.719254,1,0
1778778390439,  3084.171,  3084.166, 0.116400, 0.144077,-0.983250, 0.001191, 0.001426,-0.009757, 1.072078, 0.108709, 0.076899,1, 0.019936,-0.027159, 0.002495,1,-0.068582,-1.303583, 9.719380,1,0
1778778390464,  3084.191,  3084.191, 0.149460, 0.119496,-0.984014, 0.001454, 0.001177,-0.009912, 1.396334,-0.131521, 0.069519,1,-0.011003, 0.013692, 0.000972,1,-0.069796,-1.303712, 9.719355,1,0
1778778390486,  3084.216,  3084.211, 0.124720, 0.119135,-0.965490, 0.001205, 0.001203,-0.009738, 1.037909, 0.070513, 0.024169,1,-0.001509,-0.007707, 0.007551,1,-0.067531,-1.303704, 9.719372,1,0
1778778390509,  3084.241,  3084.236, 0.115377, 0.137175,-0.995495, 0.001196, 0.001368,-0.009902, 1.065700, 0.042739,-0.042930,1, 0.012068,-0.023011, 0.007394,1,-0.065083,-1.302114, 9.719602,1,0
1778778390534,  3084.261,  3084.261, 0.141073, 0.129758,-0.962200, 0.001377, 0.001245,-0.009660, 1.315930,-0.032566, 0.283232,1,-0.013846, 0.010335, 0.004291,1,-0.067865,-1.305483, 9.719131,1,0
1778778390556,  3084.286,  3084.281, 0.132231, 0.117922,-0.977164, 0.001283, 0.001150,-0.009853, 1.034503,-0.050472,-0.214627,1, 0.013717,-0.012957, 0.009743,1,-0.063816,-1.302608, 9.719543,1,0
1778778390579,  3084.311,  3084.306, 0.112790, 0.123379,-0.998314, 0.001114, 0.001263,-0.009929, 1.043952,-0.091709,-0.070436,1, 0.001514,-0.008861, 0.013818,1,-0.061926,-1.301593, 9.719691,1,0
1778778390604,  3084.331,  3084.331, 0.138695, 0.126373,-0.955677, 0.001403, 0.001206,-0.009557, 1.296144,-0.063777, 0.347487,1,-0.000568,-0.003336, 0.011023,1,-0.063928,-1.303083, 9.719479,1,0
1778778390626,  3084.356,  3084.351, 0.147295, 0.110981,-0.953362, 0.001452, 0.001070,-0.009571, 1.148849,-0.246243, 0.012568,1,-0.004772, 0.004513, 0.016070,1,-0.062604,-1.302153, 9.719612,1,0
1778778390649,  3084.381,  3084.376, 0.120988, 0.122902,-0.983167, 0.001193, 0.001234,-0.009844, 1.123884,-0.097836, 0.077913,1,-0.019707, 0.010618, 0.021791,1,-0.063029,-1.303514, 9.719427,1,0
1778778390675,  3084.401,  3084.401, 0.141083, 0.145236,-0.962813, 0.001428, 0.001450,-0.009571, 1.317152, 0.116866, 0.276911,1,-0.003159,-0.004489, 0.016481,1,-0.066328,-1.307504, 9.718869,1,0
1778778390696,  3084.426,  3084.421, 0.127924, 0.138996,-0.990052, 0.001308, 0.001351,-0.009921, 1.075208, 0.059515,-0.174013,1, 0.000310, 0.000587, 0.015914,1,-0.064444,-1.306501, 9.719017,1,0
1778778390723,  3084.451,  3084.451, 0.103269, 0.137429,-1.007406, 0.000992, 0.001387,-0.010088, 0.949482, 0.041409,-0.160227,1,-0.014390, 0.012097, 0.016609,1,-0.063686,-1.306746, 9.718988,1,0
1778778390745,  3084.471,  3084.471, 0.120041, 0.144078,-0.984145, 0.001264, 0.001407,-0.009800, 1.111373, 0.105108, 0.067668,1,-0.001078,-0.004034, 0.012744,1,-0.065760,-1.307841, 9.718827,1,0
1778778390766,  3084.496,  3084.491, 0.118109, 0.135082,-0.993852, 0.001201, 0.001315,-0.009901, 0.998347, 0.029903,-0.010855,1,-0.005014, 0.008632, 0.013227,1,-0.067037,-1.309010, 9.718661,1,0
1778778390793,  3084.521,  3084.521, 0.100548, 0.148101,-1.018791, 0.000969, 0.001485,-0.010228, 0.920896, 0.144068,-0.272156,1,-0.011627, 0.004548, 0.013823,1,-0.065344,-1.308663, 9.718719,1,0
1778778390815,  3084.546,  3084.541, 0.102472, 0.139510,-1.008658, 0.001062, 0.001352,-0.010122, 1.089790,-0.122531,-0.215276,1, 0.015653,-0.015073, 0.014764,1,-0.064185,-1.307493, 9.718885,1,0
1778778390836,  3084.566,  3084.561, 0.129808, 0.116793,-0.970566, 0.001223, 0.001145,-0.009710, 0.870507,-0.073648, 0.056934,1,-0.006281, 0.010441, 0.024324,1,-0.064292,-1.307584, 9.718872,1,0
1778778390863,  3084.591,  3084.591, 0.115451, 0.128755,-0.968836, 0.001175, 0.001252,-0.009753, 1.064299,-0.046616, 0.217586,1,-0.024322, 0.023769, 0.032041,1,-0.068753,-1.310026, 9.718513,1,0
1778778390885,  3084.616,  3084.611, 0.101751, 0.132158,-0.984133, 0.001165, 0.001226,-0.009834, 1.514220,-0.061972, 0.395323,1,-0.006537, 0.018647, 0.037251,1,-0.076918,-1.314750, 9.717813,1,0
1778778390906,  3084.636,  3084.631, 0.140302, 0.153111,-1.014079, 0.001429, 0.001524,-0.010160, 0.995604, 0.463469,-0.106973,1,-0.007058, 0.026705, 0.030485,1,-0.080635,-1.316636, 9.717528,1,0
1778778390933,  3084.661,  3084.661, 0.070641, 0.192961,-1.055548, 0.000710, 0.001814,-0.010704, 0.622729, 0.584213,-0.632629,1, 0.003645,-0.034108, 0.020786,1,-0.069058,-1.307968, 9.718788,1,0
