Time,GPS_ts,fGPS_ts,scaledAccelX,scaledAccelY,scaledAccelZ,deltaVelX,deltaVelY,deltaVelZ,estLinearAccelX,estLinearAccelY,estLinearAccelZ,estLinearAccel:valid,estAngularRateX,estAngularRateY,estAngularRateZ,estAngularRate:valid,estGravityX,estGravityY,estGravityZ,estGravity:valid,flag
1778777560820,  2232.689,  2232.689, 0.005851, 0.106038,-0.979392, 0.000069, 0.001060,-0.009787,-0.037144, 0.054107, 0.151969,1, 0.000203, 0.001246,-0.000917,1,-0.094561,-0.985763, 9.756521,1,0
1778777560820,  2232.714,  2232.709, 0.011155, 0.096367,-0.999170, 0.000109, 0.000957,-0.010014,-0.015929,-0.039333,-0.084366,1, 0.000369,-0.000577, 0.000365,1,-0.094341,-0.985230, 9.756577,1,0
1778777560820,  2232.734,  2232.734, 0.011285, 0.105321,-0.986577, 0.000116, 0.001063,-0.009854, 0.016273, 0.047219, 0.081524,1, 0.002018,-0.002984,-0.000345,1,-0.094302,-0.985562, 9.756544,1,0
1778777560820,  2232.759,  2232.759, 0.012573, 0.094520,-0.992462, 0.000127, 0.000952,-0.009928, 0.029343,-0.058537, 0.023831,1,-0.001219, 0.000243, 0.000145,1,-0.093967,-0.985497, 9.756555,1,0
1778777560820,  2232.784,  2232.779, 0.002600, 0.103499,-0.995851, 0.000023, 0.001046,-0.009941,-0.052001, 0.048025, 0.093021,1, 0.000422, 0.000497,-0.000587,1,-0.094235,-0.985944, 9.756507,1,0
1778777560820,  2232.809,  2232.809, 0.013519, 0.095191,-1.001040, 0.000129, 0.000952,-0.010034, 0.038619,-0.051957,-0.060293,1,-0.000925, 0.000049, 0.000097,1,-0.093959,-0.985491, 9.756555,1,0
1778777560820,  2232.834,  2232.829, 0.009982, 0.100460,-0.983778, 0.000104, 0.001011,-0.009826, 0.026826, 0.050290, 0.159645,1, 0.000995, 0.000634,-0.000391,1,-0.094102,-0.985669, 9.756536,1,0
1778777560820,  2232.859,  2232.854, 0.008964, 0.095291,-0.992155, 0.000101, 0.000940,-0.009935,-0.006498,-0.050853, 0.026844,1,-0.003220, 0.001898,-0.000015,1,-0.094494,-0.985437, 9.756556,1,0
1778777560820,  2232.884,  2232.879, 0.007302, 0.099737,-1.000710, 0.000063, 0.001008,-0.009997,-0.066248, 0.057962, 0.027103,1, 0.001388,-0.002169, 0.000017,1,-0.094381,-0.985658, 9.756534,1,0
1778777560821,  2232.904,  2232.899, 0.015679, 0.098035,-0.984024, 0.000165, 0.000964,-0.009865, 0.055696,-0.054253,-0.044297,1, 0.000022,-0.000344, 0.000160,1,-0.094062,-0.985439, 9.756559,1,0
1778777560821,  2232.924,  2232.919, 0.008574, 0.102078,-0.984938, 0.000091, 0.001031,-0.009825, 0.044696, 0.050963, 0.174305,1, 0.000212, 0.000705,-0.000889,1,-0.094252,-0.985840, 9.756516,1,0
1778777560835,  2254.649,  2254.649, 0.008388, 0.107736,-0.986260, 0.000090, 0.001083,-0.009862,-0.018631, 0.063113, 0.083771,1, 0.001234,-0.001505,-0.000382,1,-0.100842,-0.993374, 9.755687,1,0
1778777560856,  2254.674,  2254.669, 0.014219, 0.094714,-0.995043, 0.000136, 0.000944,-0.009966,-0.007111,-0.048278,-0.063228,1, 0.002610,-0.001976, 0.000106,1,-0.100103,-0.992530, 9.755780,1,0
1778777560878,  2254.694,  2254.689, 0.012953, 0.105892,-0.977372, 0.000137, 0.001065,-0.009771, 0.063050, 0.008653, 0.122946,1,-0.005913, 0.002986,-0.000071,1,-0.100431,-0.993368, 9.755692,1,0
1778777560905,  2254.719,  2254.719, 0.004021, 0.096279,-0.999022, 0.000034, 0.000974,-0.009974,-0.061057,-0.048939,-0.041339,1, 0.002461,-0.001121, 0.000435,1,-0.100458,-0.993032, 9.755726,1,0
1778777560926,  2254.744,  2254.739, 0.011545, 0.108647,-0.984250, 0.000117, 0.001090,-0.009846, 0.002036, 0.045905, 0.045301,1,-0.003864, 0.001806, 0.000049,1,-0.100562,-0.993584, 9.755669,1,0
1778777560949,  2254.764,  2254.764, 0.009853, 0.095781,-0.998748, 0.000094, 0.000962,-0.009982,-0.003476,-0.053486,-0.038620,1, 0.004483,-0.000279, 0.000432,1,-0.100094,-0.992637, 9.755770,1,0
1778777560975,  2254.789,  2254.789, 0.012567, 0.103509,-0.984569, 0.000133, 0.001018,-0.009860, 0.022651, 0.022164, 0.100411,1,-0.003824, 0.003672,-0.001264,1,-0.100697,-0.993028, 9.755723,1,0
1778777560996,  2254.814,  2254.809, 0.006125, 0.097606,-1.000959, 0.000059, 0.000982,-0.010002,-0.046128, 0.014488, 0.032298,1, 0.003632,-0.002536, 0.000185,1,-0.100707,-0.992684, 9.755758,1,0
1778777561019,  2254.834,  2254.834, 0.015883, 0.103052,-0.986038, 0.000157, 0.001023,-0.009871, 0.055128, 0.017434, 0.085978,1,-0.003470, 0.002089, 0.000078,1,-0.100700,-0.993271, 9.755698,1,0
1778777561045,  2254.859,  2254.859, 0.011933, 0.099394,-0.991071, 0.000123, 0.001004,-0.009887, 0.016395,-0.018084, 0.036656,1, 0.004997,-0.002039, 0.000648,1,-0.100592,-0.992688, 9.755759,1,0
1778777561066,  2254.884,  2254.879, 0.010687, 0.105445,-0.983984, 0.000106, 0.001042,-0.009848, 0.010405,-0.045262,-0.006026,1,-0.005615, 0.002924,-0.000169,1,-0.100671,-0.993012, 9.755725,1,0
1778777561089,  2254.904,  2254.904, 0.004501, 0.100854,-0.994401, 0.000042, 0.001023,-0.009923,-0.056596,-0.004318, 0.003948,1, 0.005836,-0.003576, 0.001435,1,-0.100632,-0.993171, 9.755710,1,0
1778777561115,  2254.929,  2254.929, 0.012016, 0.095424,-0.997676, 0.000113, 0.000947,-0.009997, 0.017504,-0.056941,-0.028104,1,-0.001387, 0.000811,-0.000551,1,-0.100353,-0.992776, 9.755753,1,0
1778777561136,  2254.954,  2254.949, 0.009215, 0.100308,-0.986268, 0.000101, 0.001013,-0.009848, 0.046222, 0.043754, 0.162787,1, 0.000195, 0.000639, 0.000140,1,-0.100654,-0.993170, 9.755710,1,0
1778777561159,  2254.974,  2254.974, 0.008092, 0.096561,-0.996113, 0.000080, 0.000955,-0.009982,-0.021199,-0.046067,-0.012804,1,-0.003439, 0.001228,-0.000817,1,-0.100587,-0.993113, 9.755716,1,0
1778777561185,  2254.999,  2254.999, 0.007773, 0.106758,-0.986289, 0.000087, 0.001077,-0.009857,-0.024494, 0.053583, 0.083499,1, 0.003053,-0.002375,-0.000602,1,-0.100645,-0.993261, 9.755700,1,0
1778777561207,  2255.024,  2255.019, 0.014420, 0.095238,-0.994203, 0.000141, 0.000947,-0.009963,-0.013913,-0.055875,-0.084488,1, 0.001783,-0.002576, 0.000186,1,-0.099897,-0.992538, 9.755781,1,0
1778777561229,  2255.044,  2255.044, 0.012836, 0.104107,-0.980061, 0.000143, 0.001049,-0.009786, 0.025311, 0.027663, 0.144586,1, 0.001654, 0.000900,-0.000439,1,-0.100597,-0.993227, 9.755704,1,0
1778777561255,  2255.069,  2255.069, 0.004486, 0.095540,-1.000453, 0.000040, 0.000960,-0.009994,-0.056473,-0.055591,-0.055311,1, 0.001000,-0.001273,-0.000165,1,-0.100424,-0.992488, 9.755781,1,0
1778777561277,  2255.094,  2255.089, 0.010675, 0.107361,-0.984565, 0.000112, 0.001081,-0.009835, 0.002114, 0.058686, 0.079381,1,-0.005206, 0.002122,-0.000548,1,-0.100709,-0.993494, 9.755676,1,0
1778777561299,  2255.119,  2255.114, 0.013189, 0.094343,-1.000331, 0.000126, 0.000944,-0.010007, 0.029063,-0.067335,-0.054116,1, 0.002780, 0.000088, 0.000156,1,-0.100277,-0.992437, 9.755788,1,0
1778777561325,  2255.139,  2255.139, 0.014366, 0.106214,-0.978105, 0.000147, 0.001056,-0.009801, 0.040147, 0.048514, 0.163782,1,-0.004457, 0.004167,-0.000682,1,-0.100866,-0.993227, 9.755701,1,0
1778777561347,  2255.164,  2255.159, 0.003992, 0.095565,-1.005478, 0.000030, 0.000958,-0.010052,-0.068282,-0.016304, 0.023453,1, 0.003998,-0.003477, 0.000804,1,-0.100607,-0.992764, 9.755752,1,0
1778777561370,  2255.189,  2255.184, 0.015307, 0.105595,-0.987626, 0.000143, 0.001055,-0.009887, 0.049550, 0.042490, 0.070418,1,-0.002117, 0.001148,-0.000522,1,-0.100591,-0.993108, 9.755716,1,0
1778777561395,  2255.209,  2255.209, 0.013907, 0.097932,-0.992413, 0.000140, 0.000992,-0.009915, 0.036049,-0.032147, 0.023529,1, 0.002604,-0.002486, 0.001491,1,-0.100261,-0.992455, 9.755786,1,0
1778777561417,  2255.234,  2255.229, 0.010619, 0.104931,-0.980915, 0.000102, 0.001050,-0.009808, 0.013309,-0.036367, 0.072685,1,-0.006030, 0.002854,-0.000991,1,-0.100517,-0.993184, 9.755710,1,0
1778777561440,  2255.259,  2255.254, 0.003269, 0.100447,-1.001774, 0.000033, 0.001018,-0.009992,-0.068467,-0.008017,-0.068324,1, 0.006017,-0.003930, 0.000679,1,-0.100419,-0.992902, 9.755739,1,0
1778777561465,  2255.279,  2255.279, 0.012907, 0.098661,-0.996859, 0.000126, 0.000973,-0.010000, 0.026511,-0.025405,-0.020109,1,-0.004211, 0.000431,-0.000456,1,-0.100073,-0.993073, 9.755725,1,0
1778777561487,  2255.304,  2255.299, 0.008857, 0.097330,-0.986924, 0.000098, 0.000984,-0.009848, 0.074275, 0.037569, 0.149781,1,-0.002873, 0.002688,-0.000829,1,-0.100301,-0.993446, 9.755685,1,0
1778777561510,  2255.329,  2255.324, 0.006284, 0.099075,-0.994662, 0.000071, 0.000968,-0.009962,-0.038725,-0.021361, 0.001430,1,-0.005562, 0.002473,-0.001113,1,-0.100424,-0.993129, 9.755716,1,0
1778777561535,  2255.349,  2255.349, 0.006727, 0.105559,-0.991173, 0.000070, 0.001065,-0.009902,-0.034503, 0.041750, 0.035592,1, 0.002666,-0.002412, 0.001328,1,-0.100406,-0.993349, 9.755693,1,0
1778777561557,  2255.374,  2255.369, 0.016061, 0.098777,-0.986194, 0.000165, 0.000974,-0.009881, 0.026575,-0.062800,-0.042245,1, 0.001130,-0.000127, 0.000088,1,-0.099953,-0.992725, 9.755762,1,0
1778777561580,  2255.399,  2255.394, 0.009303, 0.101883,-0.983398, 0.000102, 0.001034,-0.009813,-0.009139, 0.006171, 0.111894,1, 0.003144, 0.000584,-0.000057,1,-0.100392,-0.992865, 9.755743,1,0
1778777561606,  2255.419,  2255.419, 0.006480, 0.094991,-1.004315, 0.000053, 0.000955,-0.010046,-0.036826,-0.061152,-0.093202,1,-0.003068, 0.001293, 0.000148,1,-0.100411,-0.992786, 9.755751,1,0
1778777561627,  2255.444,  2255.439, 0.013373, 0.103245,-0.985842, 0.000136, 0.001046,-0.009849, 0.039676, 0.059282, 0.090212,1,-0.000070, 0.000933,-0.000187,1,-0.100791,-0.993497, 9.755674,1,0
1778777561654,  2255.469,  2255.469, 0.011419, 0.094243,-0.994662, 0.000110, 0.000943,-0.009955, 0.011878,-0.068076, 0.001500,1,-0.001285, 0.001258,-0.000049,1,-0.100141,-0.992321, 9.755801,1,0
1778777561676,  2255.489,  2255.489, 0.012066, 0.106871,-0.982560, 0.000125, 0.001065,-0.009827, 0.017684, 0.054907, 0.120091,1,-0.002403, 0.002215, 0.000255,1,-0.100714,-0.993216, 9.755704,1,0
1778777561697,  2255.514,  2255.509, 0.008684, 0.096407,-1.001395, 0.000079, 0.000962,-0.010027,-0.037316,-0.021330,-0.050928,1, 0.003231,-0.003362, 0.000679,1,-0.100378,-0.992656, 9.755765,1,0
1778777561724,  2255.539,  2255.539, 0.014409, 0.105657,-0.981199, 0.000142, 0.001060,-0.009816, 0.041088, 0.043146, 0.133451,1, 0.000205, 0.000159,-0.000295,1,-0.100222,-0.992991, 9.755733,1,0
1778777561746,  2255.564,  2255.559, 0.010752, 0.095298,-0.997341, 0.000100, 0.000953,-0.009975,-0.016452,-0.034994,-0.003709,1, 0.002398,-0.000878, 0.000384,1,-0.100000,-0.992330, 9.755801,1,0
1778777561767,  2255.584,  2255.579, 0.009251, 0.106337,-0.984706, 0.000100, 0.001066,-0.009846, 0.009407, 0.009667, 0.049465,1,-0.004683, 0.002150,-0.000599,1,-0.100451,-0.992993, 9.755730,1,0
1778777561794,  2255.609,  2255.609, 0.007621, 0.096809,-0.999275, 0.000070, 0.000977,-0.009982,-0.025427,-0.043057,-0.043755,1, 0.004238,-0.001936, 0.000886,1,-0.100104,-0.992299, 9.755804,1,0
1778777561816,  2255.634,  2255.629, 0.012000, 0.106669,-0.979537, 0.000129, 0.001070,-0.009794, 0.042256, 0.010031, 0.095550,1,-0.005453, 0.003225,-0.000817,1,-0.100462,-0.992986, 9.755730,1,0
1778777561837,  2255.654,  2255.649, 0.003425, 0.097237,-1.001607, 0.000034, 0.000972,-0.010006,-0.046128, 0.003919, 0.061025,1, 0.004740,-0.002210, 0.000515,1,-0.100362,-0.992638, 9.755767,1,0
1778777561864,  2255.679,  2255.679, 0.014283, 0.104751,-0.987900, 0.000138, 0.001030,-0.009901, 0.039567, 0.034253, 0.067741,1,-0.005888, 0.002975,-0.000936,1,-0.100591,-0.993190, 9.755708,1,0
1778777561886,  2255.704,  2255.694, 0.005943, 0.095777,-0.998815, 0.000064, 0.000960,-0.009980, 0.006293,-0.000818, 0.068936,1, 0.005064,-0.003127, 0.000402,1,-0.100388,-0.992682, 9.755762,1,0
1778777561907,  2255.724,  2255.719, 0.011387, 0.102812,-0.986375, 0.000108, 0.001017,-0.009878,-0.018378,-0.063344,-0.034846,1,-0.002943, 0.000612,-0.000331,1,-0.100105,-0.992418, 9.755792,1,0
1778777561934,  2255.749,  2255.749, 0.012042, 0.102198,-0.990809, 0.000119, 0.001041,-0.009881, 0.017510, 0.009109, 0.039193,1, 0.005489,-0.002509, 0.000509,1,-0.100501,-0.992945, 9.755733,1,0
1778777561956,  2255.774,  2255.769, 0.013789, 0.101657,-0.985621, 0.000135, 0.001009,-0.009869, 0.013873,-0.057284,-0.045266,1,-0.001162, 0.000693,-0.000545,1,-0.100053,-0.992506, 9.755783,1,0
1778777561978,  2255.794,  2255.789, 0.010421, 0.101185,-0.987569, 0.000106, 0.001022,-0.009856, 0.028191, 0.044079, 0.132932,1,-0.000382, 0.000530,-0.000479,1,-0.100317,-0.993143, 9.755715,1,0
1778777562005,  2255.819,  2255.819, 0.007978, 0.095267,-0.998378, 0.000072, 0.000950,-0.009997,-0.021746,-0.058457,-0.034983,1,-0.002412, 0.000688,-0.000206,1,-0.100007,-0.992778, 9.755756,1,0
1778777562026,  2255.844,  2255.839, 0.010077, 0.102586,-0.988790, 0.000099, 0.001030,-0.009875, 0.008575, 0.057363, 0.106890,1, 0.001956,-0.000623,-0.000067,1,-0.100279,-0.993275, 9.755703,1,0
1778777562048,  2255.864,  2255.859, 0.013070, 0.096232,-0.993326, 0.000125, 0.000956,-0.009948,-0.009518,-0.034030,-0.024891,1, 0.002056,-0.000859,-0.000178,1,-0.099979,-0.992513, 9.755783,1,0
1778777562075,  2255.889,  2255.889, 0.010383, 0.106881,-0.980277, 0.000115, 0.001073,-0.009794, 0.001396, 0.054606, 0.142436,1, 0.000483,-0.000584,-0.000632,1,-0.100406,-0.993521, 9.755676,1,0
1778777562096,  2255.914,  2255.909, 0.011362, 0.095772,-1.000123, 0.000104, 0.000952,-0.010024,-0.040373,-0.050759,-0.102677,1, 0.004059,-0.002912, 0.000124,1,-0.099759,-0.992467, 9.755790,1,0
1778777562118,  2255.934,  2255.929, 0.013746, 0.106040,-0.979944, 0.000146, 0.001065,-0.009796, 0.045365, 0.022929, 0.081977,1,-0.005184, 0.001894,-0.000705,1,-0.099961,-0.993317, 9.755701,1,0
1778777562145,  2255.959,  2255.959, 0.007014, 0.095298,-0.999740, 0.000070, 0.000953,-0.009984,-0.030762,-0.058119,-0.048331,1, 0.001758,-0.000600, 0.000062,1,-0.099529,-0.992618, 9.755777,1,0
1778777562166,  2255.984,  2255.979, 0.008098, 0.107059,-0.986487, 0.000087, 0.001075,-0.009857,-0.000109, 0.040812, 0.075249,1,-0.004173, 0.003432,-0.000903,1,-0.100073,-0.993421, 9.755690,1,0
1778777562189,  2256.004,  2256.004, 0.007359, 0.096688,-1.002002, 0.000072, 0.000966,-0.010026,-0.027431,-0.044510,-0.070510,1, 0.000379,-0.001359, 0.000601,1,-0.099560,-0.992681, 9.755771,1,0
1778777562215,  2256.029,  2256.029, 0.017336, 0.102911,-0.980941, 0.000169, 0.001013,-0.009824, 0.070048, 0.015807, 0.135945,1,-0.004288, 0.003415,-0.000231,1,-0.100068,-0.993541, 9.755677,1,0
1778777562237,  2256.054,  2256.049, 0.004897, 0.097399,-0.998538, 0.000048, 0.000975,-0.009976,-0.013194,-0.012337, 0.056654,1, 0.005141,-0.002459,-0.000086,1,-0.099998,-0.992839, 9.755750,1,0
1778777562259,  2256.074,  2256.074, 0.011424, 0.105572,-0.986425, 0.000109, 0.001048,-0.009871, 0.011835, 0.041871, 0.082163,1,-0.005580, 0.000983, 0.000223,1,-0.100228,-0.993608, 9.755670,1,0
1778777562285,  2256.099,  2256.099, 0.010110, 0.100328,-0.994757, 0.000103, 0.001014,-0.009926,-0.000793,-0.008994, 0.000511,1, 0.008207,-0.003639, 0.000590,1,-0.099831,-0.992618, 9.755774,1,0
1778777562307,  2256.124,  2256.119, 0.015191, 0.104115,-0.982462, 0.000151, 0.001035,-0.009834, 0.035499,-0.044156, 0.000379,1,-0.003053, 0.002278,-0.000104,1,-0.099843,-0.992319, 9.755804,1,0
1778777562329,  2256.144,  2256.144, 0.005388, 0.099329,-0.991663, 0.000060, 0.001002,-0.009892,-0.047222,-0.018704, 0.030858,1, 0.004301,-0.002394, 0.000300,1,-0.099986,-0.992654, 9.755769,1,0
1778777562355,  2256.169,  2256.169, 0.008781, 0.099328,-0.996909, 0.000082, 0.000974,-0.009989,-0.013764,-0.018611,-0.020571,1,-0.003269, 0.000770,-0.000782,1,-0.099900,-0.992786, 9.755756,1,0
1778777562377,  2256.194,  2256.189, 0.011919, 0.099637,-0.992050, 0.000126, 0.001001,-0.009913, 0.034390, 0.047033, 0.093952,1, 0.002946, 0.000066,-0.000289,1,-0.100002,-0.992934, 9.755740,1,0
1778777562399,  2256.214,  2256.214, 0.012678, 0.098504,-0.989207, 0.000126, 0.000969,-0.009914, 0.024308,-0.026793, 0.054945,1,-0.005624, 0.003868, 0.000088,1,-0.100144,-0.992963, 9.755735,1,0
1778777562425,  2256.239,  2256.239, 0.005669, 0.105863,-0.983863, 0.000062, 0.001061,-0.009818,-0.044821, 0.044937, 0.107308,1, 0.003379,-0.000523, 0.000222,1,-0.100402,-0.993116, 9.755717,1,0
1778777562447,  2256.264,  2256.259, 0.013851, 0.098365,-0.998550, 0.000131, 0.000970,-0.010011,-0.034040,-0.054261,-0.133888,1, 0.002194,-0.000855, 0.000065,1,-0.099881,-0.992167, 9.755819,1,0
1778777562470,  2256.284,  2256.284, 0.015003, 0.105473,-0.978118, 0.000155, 0.001068,-0.009770, 0.046837, 0.041363, 0.163670,1, 0.004269,-0.000476, 0.000193,1,-0.100275,-0.992844, 9.755747,1,0
1778777562495,  2256.309,  2256.309, 0.004258, 0.094267,-0.997502, 0.000040, 0.000946,-0.009968,-0.058241,-0.067703,-0.026337,1, 0.000630, 0.001200,-0.000505,1,-0.100030,-0.992126, 9.755822,1,0
1778777562517,  2256.334,  2256.329, 0.011358, 0.105510,-0.989271, 0.000113, 0.001064,-0.009884,-0.001896, 0.042631, 0.061877,1,-0.004429, 0.001723,-0.000311,1,-0.100466,-0.993056, 9.755723,1,0
1778777562540,  2256.359,  2256.354, 0.011982, 0.095659,-0.999474, 0.000112, 0.000958,-0.010003, 0.017743,-0.054025,-0.045670,1, 0.001084,-0.000986, 0.000119,1,-0.099732,-0.992082, 9.755830,1,0
1778777562565,  2256.379,  2256.379, 0.015157, 0.105035,-0.976547, 0.000158, 0.001041,-0.009777, 0.048477, 0.037134, 0.179084,1,-0.003357, 0.002486,-0.000777,1,-0.100240,-0.993010, 9.755730,1,0
1778777562587,  2256.404,  2256.399, 0.006630, 0.096475,-1.007814, 0.000058, 0.000966,-0.010082,-0.051928,-0.011216,-0.032645,1, 0.004722,-0.002886, 0.000594,1,-0.099964,-0.992207, 9.755815,1,0
1778777562610,  2256.429,  2256.424, 0.016906, 0.105569,-0.984978, 0.000165, 0.001052,-0.009857, 0.065618, 0.042106, 0.096383,1,-0.002338, 0.000682,-0.000489,1,-0.100190,-0.993241, 9.755707,1,0
1778777562635,  2256.444,  2256.449, 0.008881, 0.097643,-0.988323, 0.000092, 0.000986,-0.009863,-0.012632,-0.034989, 0.063641,1, 0.004131,-0.003039, 0.000688,1,-0.099636,-0.992415, 9.755796,1,0
1778777562657,  2256.474,  2256.469, 0.010407, 0.105018,-0.987375, 0.000105, 0.001041,-0.009868,-0.013711,-0.038916, 0.054596,1,-0.006328, 0.003240,-0.000496,1,-0.100113,-0.993041, 9.755728,1,0
1778777562680,  2256.499,  2256.494, 0.005884, 0.100914,-1.001899, 0.000059, 0.001015,-0.010006,-0.042298,-0.003456,-0.069552,1, 0.005488,-0.004098, 0.000212,1,-0.099878,-0.992912, 9.755744,1,0
1778777562705,  2256.519,  2256.519, 0.011476, 0.099230,-0.991197, 0.000114, 0.000977,-0.009942, 0.012990,-0.019629, 0.035447,1,-0.003133, 0.000247,-0.000270,1,-0.099556,-0.992838, 9.755754,1,0
1778777562727,  2256.544,  2256.539, 0.005638, 0.099060,-0.993096, 0.000060, 0.000995,-0.009910,-0.012970, 0.040502, 0.173335,1, 0.003548, 0.000287, 0.000510,1,-0.099812,-0.992930, 9.755742,1,0
1778777562750,  2256.569,  2256.564, 0.009759, 0.100591,-0.995836, 0.000098, 0.000985,-0.009987,-0.004237,-0.006232,-0.010048,1,-0.005933, 0.002723,-0.001632,1,-0.100017,-0.992875, 9.755746,1,0
1778777562776,  2256.589,  2256.589, 0.011310, 0.104675,-0.984416, 0.000117, 0.001053,-0.009837, 0.010705, 0.033331, 0.101887,1, 0.003218,-0.000938, 0.000895,1,-0.100178,-0.993082, 9.755723,1,0
1778777562797,  2256.614,  2256.609, 0.015434, 0.098277,-0.986128, 0.000149, 0.000973,-0.009871, 0.029501,-0.072204, 0.016609,1,-0.001252, 0.002466,-0.000185,1,-0.100316,-0.992797, 9.755751,1,0
1778777562820,  2256.639,  2256.634, 0.007569, 0.104222,-0.989855, 0.000084, 0.001055,-0.009877,-0.026765, 0.028686, 0.048526,1, 0.004377,-0.001912,-0.000060,1,-0.100928,-0.993246, 9.755699,1,0
1778777562846,  2256.659,  2256.659, 0.009045, 0.097751,-1.006415, 0.000077, 0.000983,-0.010072,-0.011669,-0.034096,-0.113802,1,-0.000374,-0.001675, 0.000439,1,-0.100282,-0.992697, 9.755761,1,0
1778777562867,  2256.684,  2256.679, 0.012532, 0.105555,-0.980678, 0.000136, 0.001071,-0.009791, 0.076884, 0.068779, 0.146955,1,-0.000508,-0.000260, 0.000015,1,-0.100389,-0.993326, 9.755696,1,0
1778777562894,  2256.709,  2256.709, 0.004157, 0.094531,-1.002130, 0.000035, 0.000946,-0.010026,-0.058880,-0.064816,-0.071686,1,-0.001137, 0.000191,-0.000167,1,-0.099648,-0.991883, 9.755851,1,0
1778777562916,  2256.729,  2256.729, 0.011453, 0.105761,-0.984736, 0.000116, 0.001053,-0.009858, 0.012178, 0.044039, 0.098754,1,-0.005886, 0.001655,-0.000480,1,-0.100192,-0.993309, 9.755700,1,0
1778777562937,  2256.754,  2256.749, 0.008377, 0.093244,-0.998842, 0.000076, 0.000935,-0.009996,-0.020277,-0.038195,-0.016159,1, 0.004621,-0.004302, 0.000865,1,-0.099680,-0.992510, 9.755787,1,0
1778777562964,  2256.779,  2256.779, 0.014548, 0.103129,-0.980378, 0.000147, 0.001026,-0.009808, 0.042637, 0.018174, 0.141493,1,-0.003073, 0.002710,-0.000515,1,-0.100115,-0.993274, 9.755704,1,0
1778777562986,  2256.804,  2256.799, 0.005631, 0.096335,-0.999840, 0.000049, 0.000969,-0.009998,-0.044843,-0.013725, 0.007729,1, 0.003147,-0.002565, 0.001526,1,-0.099938,-0.992645, 9.755771,1,0
1778777563007,  2256.824,  2256.819, 0.015247, 0.104206,-0.983912, 0.000156, 0.001039,-0.009847, 0.017416,-0.029855, 0.031382,1,-0.003719, 0.002225, 0.000287,1,-0.100021,-0.993009, 9.755733,1,0
1778777563034,  2256.849,  2256.849, 0.007671, 0.099358,-0.993727, 0.000083, 0.001001,-0.009919,-0.024701,-0.017729, 0.010693,1, 0.005600,-0.001670,-0.000221,1,-0.099873,-0.991926, 9.755844,1,0
1778777563056,  2256.874,  2256.869, 0.012010, 0.105410,-0.984093, 0.000124, 0.001045,-0.009849, 0.015813,-0.026247, 0.007122,1,-0.007320, 0.004320,-0.000041,1,-0.100285,-0.992655, 9.755766,1,0
1778777563078,  2256.894,  2256.889, 0.005194, 0.100072,-1.000143, 0.000052, 0.001006,-0.009984,-0.039880, 0.051068, 0.082182,1, 0.003952, 0.000144,-0.000239,1,-0.100612,-0.993018, 9.755725,1,0
1778777563105,  2256.919,  2256.919, 0.016348, 0.098763,-0.993425, 0.000152, 0.000970,-0.009969, 0.059864,-0.023848, 0.013621,1,-0.005851, 0.002706,-0.000612,1,-0.100538,-0.992561, 9.755773,1,0
1778777563126,  2256.944,  2256.939, 0.007746, 0.099701,-0.988134, 0.000082, 0.001008,-0.009859, 0.047667, 0.050635, 0.178075,1, 0.002117,-0.000662, 0.000372,1,-0.100661,-0.993008, 9.755726,1,0
1778777563148,  2256.964,  2256.959, 0.009593, 0.096464,-0.996910, 0.000088, 0.000959,-0.009986,-0.036082,-0.057910,-0.054876,1, 0.001363,-0.001769, 0.000303,1,-0.100250,-0.992424, 9.755790,1,0
1778777563175,  2256.989,  2256.989, 0.011420, 0.105912,-0.986847, 0.000123, 0.001075,-0.009859, 0.011426, 0.045708, 0.078067,1, 0.004988,-0.002040, 0.000268,1,-0.100500,-0.992774, 9.755752,1,0
1778777563196,  2257.014,  2257.009, 0.011660, 0.095841,-0.990299, 0.000112, 0.000950,-0.009924,-0.025861,-0.061090,-0.058806,1,-0.001642,-0.000831, 0.000524,1,-0.099878,-0.992297, 9.755806,1,0
1778777563218,  2257.034,  2257.029, 0.010817, 0.106269,-0.980563, 0.000125, 0.001068,-0.009797, 0.058469, 0.023825, 0.148759,1,-0.004149, 0.004135,-0.000627,1,-0.100561,-0.993341, 9.755693,1,0
1778777563245,  2257.059,  2257.059, 0.002384, 0.096662,-1.004630, 0.000015, 0.000972,-0.010047,-0.076864,-0.044510,-0.096268,1, 0.000952,-0.001963, 0.000521,1,-0.100207,-0.992404, 9.755792,1,0
1778777563266,  2257.084,  2257.079, 0.014743, 0.108366,-0.977003, 0.000159, 0.001086,-0.009770, 0.051517, 0.046006, 0.113564,1,-0.006604, 0.002547,-0.000047,1,-0.100608,-0.993656, 9.755660,1,0
1778777563288,  2257.104,  2257.099, 0.006840, 0.095524,-0.999470, 0.000068, 0.000966,-0.009986,-0.017152, 0.015132, 0.082036,1, 0.006889,-0.003281, 0.000630,1,-0.100234,-0.992794, 9.755752,1,0
1778777563315,  2257.129,  2257.129, 0.011790, 0.103911,-0.987926, 0.000113, 0.001028,-0.009889, 0.014992, 0.026195, 0.067497,1,-0.004866, 0.002994,-0.000789,1,-0.100719,-0.992979, 9.755728,1,0
1778777563336,  2257.154,  2257.149, 0.008168, 0.095213,-1.002553, 0.000072, 0.000966,-0.010019,-0.031607, 0.015152, 0.009754,1, 0.005067,-0.002490, 0.000450,1,-0.100492,-0.992456, 9.755784,1,0
1778777563358,  2257.174,  2257.169, 0.017185, 0.100220,-0.984305, 0.000170, 0.000993,-0.009859, 0.039705,-0.069807,-0.042994,1,-0.000933, 0.001393,-0.000439,1,-0.100469,-0.992178, 9.755813,1,0
1778777563385,  2257.199,  2257.199, 0.009255, 0.100753,-0.987874, 0.000097, 0.001023,-0.009858,-0.009878,-0.004001, 0.068093,1, 0.003853,-0.001050,-0.000006,1,-0.100605,-0.991926, 9.755836,1,0
1778777563406,  2257.224,  2257.219, 0.013454, 0.101273,-0.988602, 0.000132, 0.001002,-0.009902,-0.001971,-0.069994,-0.031455,1,-0.004757, 0.002428, 0.000349,1,-0.100759,-0.992365, 9.755791,1,0
1778777563429,  2257.244,  2257.244, 0.006677, 0.102536,-0.992403, 0.000070, 0.001035,-0.009911,-0.034958, 0.013398, 0.023672,1, 0.006235,-0.003473, 0.000915,1,-0.100328,-0.991938, 9.755838,1,0
1778777563455,  2257.269,  2257.269, 0.010677, 0.094002,-0.996519, 0.000098, 0.000932,-0.009987, 0.004555,-0.069870,-0.016651,1,-0.003707, 0.001599,-0.000106,1,-0.100203,-0.991829, 9.755851,1,0
1778777563477,  2257.294,  2257.289, 0.004752, 0.102162,-0.990724, 0.000052, 0.001040,-0.009877,-0.001010, 0.051273, 0.151632,1,-0.000079, 0.000062,-0.000364,1,-0.100629,-0.992463, 9.755781,1,0
1778777563499,  2257.314,  2257.314, 0.010049, 0.094421,-1.003441, 0.000089, 0.000939,-0.010040,-0.001674,-0.065687,-0.084524,1,-0.002726,-0.000008,-0.000181,1,-0.100217,-0.991728, 9.755860,1,0
1778777563525,  2257.339,  2257.339, 0.015249, 0.108060,-0.976651, 0.000158, 0.001081,-0.009769, 0.048973, 0.067161, 0.178095,1,-0.001177, 0.001030,-0.000761,1,-0.100603,-0.992580, 9.755770,1,0
1778777563547,  2257.364,  2257.359, 0.010162, 0.093514,-0.996386, 0.000097, 0.000933,-0.009977,-0.024754,-0.048940, 0.001620,1, 0.003102,-0.000093,-0.000229,1,-0.100439,-0.992023, 9.755828,1,0
1778777563569,  2257.384,  2257.384, 0.012780, 0.108220,-0.982665, 0.000133, 0.001081,-0.009831, 0.024387, 0.068728, 0.119114,1, 0.000841, 0.001036,-0.000418,1,-0.100972,-0.992520, 9.755773,1,0
1778777563595,  2257.409,  2257.409, 0.008710, 0.098486,-1.000611, 0.000083, 0.000992,-0.010003,-0.015212,-0.026056,-0.056802,1, 0.001464,-0.001536, 0.000371,1,-0.100586,-0.991830, 9.755846,1,0
1778777563617,  2257.434,  2257.429, 0.013350, 0.107352,-0.981379, 0.000142, 0.001073,-0.009807, 0.039868, 0.008495, 0.104889,1,-0.004615, 0.003320,-0.000549,1,-0.101079,-0.992492, 9.755774,1,0
1778777563640,  2257.454,  2257.454, 0.002475, 0.099023,-1.004693, 0.000026, 0.000991,-0.010033,-0.076595,-0.020612,-0.096820,1, 0.001963,-0.003163, 0.000662,1,-0.100787,-0.991642, 9.755863,1,0
1778777563665,  2257.479,  2257.479, 0.013269, 0.102305,-0.992766, 0.000125, 0.001008,-0.009940, 0.029220, 0.011007, 0.020087,1,-0.006373, 0.001821,-0.000326,1,-0.100961,-0.992459, 9.755778,1,0
1778777563687,  2257.504,  2257.499, 0.009522, 0.096427,-0.996620, 0.000094, 0.000975,-0.009953, 0.020005, 0.019623, 0.082183,1, 0.004521,-0.001750, 0.000154,1,-0.100883,-0.992202, 9.755806,1,0
1778777563710,  2257.524,  2257.524, 0.010755, 0.101882,-0.985998, 0.000105, 0.001006,-0.009870, 0.004520, 0.006869, 0.086465,1,-0.004816, 0.001742,-0.001122,1,-0.101005,-0.992399, 9.755784,1,0
1778777563735,  2257.549,  2257.549, 0.006262, 0.102901,-0.990172, 0.000061, 0.001042,-0.009880,-0.039560, 0.016567, 0.045499,1, 0.001917,-0.001407, 0.000908,1,-0.100927,-0.992491, 9.755775,1,0
1778777563757,  2257.574,  2257.569, 0.016363, 0.101314,-0.985818, 0.000165, 0.000996,-0.009879, 0.028320,-0.061696,-0.036624,1, 0.000409, 0.000405, 0.000137,1,-0.100701,-0.992088, 9.755819,1,0
1778777563780,  2257.599,  2257.594, 0.007984, 0.100748,-0.984107, 0.000090, 0.001017,-0.009826,-0.022492,-0.004036, 0.105028,1, 0.002691,-0.000820, 0.000057,1,-0.100768,-0.991952, 9.755832,1,0
1778777563805,  2257.619,  2257.619, 0.008286, 0.094271,-0.995507, 0.000079, 0.000935,-0.009972,-0.019545,-0.067630,-0.006770,1,-0.003072, 0.001124, 0.000065,1,-0.100842,-0.992209, 9.755805,1,0
1778777563827,  2257.644,  2257.639, 0.007124, 0.100140,-0.993866, 0.000071, 0.001017,-0.009916,-0.000642, 0.047355, 0.081412,1, 0.002487,-0.001242,-0.000470,1,-0.101077,-0.992421, 9.755781,1,0
1778777563850,  2257.669,  2257.664, 0.014224, 0.094103,-0.995752, 0.000132, 0.000938,-0.009975, 0.038910,-0.068801,-0.009124,1,-0.003188, 0.001754, 0.000126,1,-0.100629,-0.991738, 9.755856,1,0
1778777563876,  2257.689,  2257.689, 0.011033, 0.106689,-0.979516, 0.000118, 0.001075,-0.009785, 0.007137, 0.053792, 0.150004,1, 0.000518, 0.001998,-0.000329,1,-0.101123,-0.992453, 9.755777,1,0
1778777563897,  2257.714,  2257.709, 0.007772, 0.095551,-1.003134, 0.000065, 0.000948,-0.010053,-0.069382,-0.054939,-0.100979,1, 0.002351,-0.003251,-0.000089,1,-0.100662,-0.991668, 9.755862,1,0
1778777563920,  2257.739,  2257.734, 0.016747, 0.107943,-0.981784, 0.000174, 0.001082,-0.009831, 0.063349, 0.066054, 0.127758,1,-0.000052,-0.000213,-0.000568,1,-0.100873,-0.992507, 9.755774,1,0
1778777563946,  2257.759,  2257.759, 0.010337, 0.097542,-0.992495, 0.000111, 0.000974,-0.009917, 0.000728,-0.035688, 0.022752,1, 0.000348,-0.001681, 0.000670,1,-0.100593,-0.992240, 9.755805,1,0
1778777563967,  2257.784,  2257.779, 0.007407, 0.108390,-0.987638, 0.000088, 0.001080,-0.009873, 0.001647, 0.023743, 0.069702,1,-0.004084, 0.003063,-0.000810,1,-0.100949,-0.992879, 9.755736,1,0
1778777563990,  2257.809,  2257.804, 0.009364, 0.097979,-1.003801, 0.000089, 0.000981,-0.010037,-0.008676,-0.031445,-0.088128,1, 0.001877,-0.002725, 0.000329,1,-0.100425,-0.992234, 9.755807,1,0
1778777564016,  2257.829,  2257.829, 0.017513, 0.103451,-0.980937, 0.000170, 0.001025,-0.009817, 0.071111, 0.021854, 0.136057,1,-0.003127, 0.002204,-0.000658,1,-0.100698,-0.992749, 9.755752,1,0
1778777564037,  2257.854,  2257.849, 0.004153, 0.096062,-1.000603, 0.000036, 0.000970,-0.009993,-0.039583,-0.009274, 0.056126,1, 0.003796,-0.001237, 0.000479,1,-0.100624,-0.992153, 9.755814,1,0
1778777564060,  2257.879,  2257.874, 0.010099, 0.105832,-0.989646, 0.000094, 0.001052,-0.009910,-0.001826, 0.045182, 0.050649,1,-0.003899, 0.001375,-0.000956,1,-0.100905,-0.992799, 9.755745,1,0
1778777564086,  2257.899,  2257.899, 0.008159, 0.100051,-0.990339, 0.000083, 0.001015,-0.009886,-0.020641,-0.011154, 0.043890,1, 0.005739,-0.003240, 0.001366,1,-0.100555,-0.992137, 9.755816,1,0
1778777564107,  2257.924,  2257.919, 0.013625, 0.102401,-0.979982, 0.000136, 0.001013,-0.009808, 0.019845,-0.074550, 0.031268,1,-0.002808, 0.002258,-0.000143,1,-0.100422,-0.991918, 9.755839,1,0
1778777564134,  2257.949,  2257.949, 0.007501, 0.099982,-0.991996, 0.000077, 0.001010,-0.009900,-0.027332,-0.011890, 0.027629,1, 0.002207,-0.000670, 0.000367,1,-0.100872,-0.992311, 9.755795,1,0
1778777564156,  2257.969,  2257.969, 0.010019, 0.096148,-0.997919, 0.000097, 0.000950,-0.010002,-0.002507,-0.049500,-0.030460,1,-0.004183, 0.000717,-0.000165,1,-0.100779,-0.992520, 9.755774,1,0
1778777564177,  2257.994,  2257.989, 0.012387, 0.099893,-0.991532, 0.000128, 0.001013,-0.009899, 0.046640, 0.045698, 0.116948,1, 0.002690,-0.000687,-0.000748,1,-0.100879,-0.992593, 9.755766,1,0
1778777564204,  2258.019,  2258.019, 0.012066, 0.096481,-0.995333, 0.000117, 0.000955,-0.009966, 0.017624,-0.046152,-0.005090,1,-0.004581, 0.002188,-0.000401,1,-0.100764,-0.992450, 9.755781,1,0
1778777564226,  2258.044,  2258.039, 0.005596, 0.102186,-0.996913, 0.000056, 0.001035,-0.009952,-0.018600, 0.054614, 0.069717,1, 0.002424,-0.000856,-0.000377,1,-0.100901,-0.992770, 9.755748,1,0
1778777564248,  2258.064,  2258.059, 0.012286, 0.097209,-0.997377, 0.000117, 0.000963,-0.009998,-0.031369,-0.049757,-0.089972,1, 0.003037,-0.002696, 0.000822,1,-0.100266,-0.991831, 9.755850,1,0
1778777564275,  2258.089,  2258.089, 0.012050, 0.106238,-0.979511, 0.000129, 0.001067,-0.009793, 0.017644, 0.049361, 0.150056,1, 0.001121,-0.000111,-0.000258,1,-0.100522,-0.992444, 9.755785,1,0
1778777564296,  2258.114,  2258.109, 0.008862, 0.097637,-0.995044, 0.000088, 0.000961,-0.009973,-0.048593,-0.059745,-0.034920,1, 0.000370, 0.001216, 0.000467,1,-0.100497,-0.992081, 9.755822,1,0
1778777564318,  2258.134,  2258.129, 0.010495, 0.107184,-0.981025, 0.000114, 0.001077,-0.009808, 0.017648, 0.046589, 0.099949,1,-0.004228, 0.002072,-0.000714,1,-0.100898,-0.992874, 9.755737,1,0
1778777564345,  2258.159,  2258.159, 0.007997, 0.094585,-0.997962, 0.000076, 0.000953,-0.009976,-0.021903,-0.064487,-0.030834,1, 0.002259,-0.002535, 0.000757,1,-0.100247,-0.991982, 9.755835,1,0
1778777564366,  2258.184,  2258.179, 0.011865, 0.105689,-0.981191, 0.000130, 0.001065,-0.009797, 0.054952, 0.030539, 0.116756,1,-0.004289, 0.002842,-0.000805,1,-0.100771,-0.992805, 9.755745,1,0
1778777564388,  2258.204,  2258.199, 0.004474, 0.095970,-1.002774, 0.000037, 0.000975,-0.010020,-0.040899, 0.006138, 0.009873,1, 0.003316,-0.002106, 0.000665,1,-0.100599,-0.992361, 9.755793,1,0
1778777564415,  2258.229,  2258.229, 0.014307, 0.104117,-0.988389, 0.000133, 0.001036,-0.009901, 0.039546, 0.028371, 0.062977,1,-0.002551, 0.003700,-0.000041,1,-0.100875,-0.992743, 9.755751,1,0
1778777564436,  2258.254,  2258.249, 0.007902, 0.095036,-1.000039, 0.000074, 0.000959,-0.009995,-0.010894,-0.002211, 0.026986,1, 0.005423,-0.002161, 0.000659,1,-0.100737,-0.992116, 9.755816,1,0
1778777564458,  2258.274,  2258.269, 0.014245, 0.103735,-0.986551, 0.000142, 0.001023,-0.009883, 0.014558,-0.059573,-0.026284,1,-0.004233, 0.002361,-0.001231,1,-0.100703,-0.992134, 9.755815,1,0
1778777564485,  2258.299,  2258.299, 0.007787, 0.102492,-0.990090, 0.000087, 0.001039,-0.009878,-0.024596, 0.012633, 0.046306,1, 0.005649,-0.001988, 0.000131,1,-0.100901,-0.992297, 9.755795,1,0
1778777564506,  2258.324,  2258.319, 0.016199, 0.102607,-0.985544, 0.000159, 0.001011,-0.009876, 0.009457,-0.063754,-0.052111,1,-0.002812, 0.000316,-0.000436,1,-0.100615,-0.991970, 9.755832,1,0
1778777564528,  2258.344,  2258.339, 0.009272, 0.102327,-0.985014, 0.000101, 0.001037,-0.009825, 0.049886, 0.059056, 0.168414,1,-0.001027, 0.000309,-0.000459,1,-0.100840,-0.992796, 9.755746,1,0
1778777564555,  2258.369,  2258.369, 0.007112, 0.092853,-1.000773, 0.000063, 0.000927,-0.010012,-0.030598,-0.081609,-0.058421,1,-0.001226, 0.000444, 0.000064,1,-0.100361,-0.992221, 9.755809,1,0
1778777564576,  2258.394,  2258.389, 0.009847, 0.102552,-0.988933, 0.000105, 0.001041,-0.009861, 0.029111, 0.056714, 0.128734,1,-0.000050, 0.000542,-0.000432,1,-0.100743,-0.992963, 9.755730,1,0
1778777564598,  2258.414,  2258.409, 0.011451, 0.094254,-0.996778, 0.000106, 0.000941,-0.009981,-0.029138,-0.041868,-0.042425,1, 0.002638,-0.001656, 0.000846,1,-0.100305,-0.992300, 9.755801,1,0
1778777564625,  2258.439,  2258.439, 0.011626, 0.107835,-0.978579, 0.000122, 0.001082,-0.009788, 0.013251, 0.064478, 0.159139,1, 0.001374, 0.001354,-0.000263,1,-0.100800,-0.992978, 9.755728,1,0
1778777564647,  2258.464,  2258.459, 0.008193, 0.094527,-1.006236, 0.000071, 0.000941,-0.010077,-0.083801,-0.029965,-0.097531,1, 0.004301,-0.003020, 0.000236,1,-0.100260,-0.991922, 9.755840,1,0
1778777564669,  2258.484,  2258.484, 0.016586, 0.109033,-0.978447, 0.000171, 0.001089,-0.009793, 0.061988, 0.076529, 0.160471,1,-0.002019, 0.000757, 0.000087,1,-0.100686,-0.992782, 9.755749,1,0
1778777564695,  2258.509,  2258.509, 0.006761, 0.096595,-0.997316, 0.000071, 0.000974,-0.009951,-0.034063,-0.044673,-0.024495,1, 0.004375,-0.002756, 0.000665,1,-0.100280,-0.991807, 9.755852,1,0
1778777564717,  2258.534,  2258.529, 0.011785, 0.108427,-0.984861, 0.000122, 0.001084,-0.009842, 0.011589,-0.004509, 0.044868,1,-0.005879, 0.002244,-0.000894,1,-0.100610,-0.992330, 9.755795,1,0
1778777564739,  2258.554,  2258.554, 0.009071, 0.096256,-1.000731, 0.000089, 0.000976,-0.009995,-0.011399,-0.048103,-0.057989,1, 0.004142,-0.003478, 0.000283,1,-0.100250,-0.991928, 9.755840,1,0
1778777564765,  2258.579,  2258.579, 0.014745, 0.099284,-0.986073, 0.000144, 0.000978,-0.009880, 0.044287,-0.018472, 0.085743,1,-0.004557, 0.003097,-0.000731,1,-0.100404,-0.992261, 9.755804,1,0
1778777564787,  2258.604,  2258.599, 0.006031, 0.098279,-0.996507, 0.000068, 0.000987,-0.009953,-0.004532, 0.022747, 0.112220,1, 0.003466,-0.001214,-0.000051,1,-0.100453,-0.992181, 9.755812,1,0
1778777564810,  2258.624,  2258.624, 0.009998, 0.099982,-0.992041, 0.000088, 0.000981,-0.009934,-0.002244,-0.012011, 0.027182,1,-0.004482, 0.001292,-0.000098,1,-0.100331,-0.992638, 9.755767,1,0
1778777564835,  2258.649,  2258.649, 0.014263, 0.105809,-0.985117, 0.000147, 0.001053,-0.009865, 0.025104, 0.016279, 0.102735,1, 0.002785,-0.001161, 0.000171,1,-0.100325,-0.992402, 9.755791,1,0
1778777564857,  2258.674,  2258.669, 0.009558, 0.100029,-0.987045, 0.000099, 0.000984,-0.009882, 0.005339,-0.069126, 0.014053,1,-0.001069, 0.000358,-0.000476,1,-0.100224,-0.992164, 9.755816,1,0
1778777564880,  2258.694,  2258.694, 0.001890, 0.104013,-0.989734, 0.000019, 0.001052,-0.009872,-0.081989, 0.027233, 0.049775,1, 0.003335,-0.002078, 0.000412,1,-0.100459,-0.992686, 9.755761,1,0
1778777564905,  2258.719,  2258.719, 0.014172, 0.095029,-1.007051, 0.000129, 0.000953,-0.010079, 0.038749,-0.060160,-0.119978,1, 0.002860,-0.000118,-0.000139,1,-0.100231,-0.991987, 9.755835,1,0
1778777564927,  2258.744,  2258.739, 0.009710, 0.102515,-0.982015, 0.000108, 0.001042,-0.009805, 0.059496, 0.058307, 0.132840,1,-0.001308,-0.000037,-0.000595,1,-0.100327,-0.992327, 9.755798,1,0
1778777564950,  2258.764,  2258.764, 0.008253, 0.095254,-0.998320, 0.000076, 0.000950,-0.009987,-0.019344,-0.057988,-0.034358,1,-0.001901, 0.002604,-0.000669,1,-0.100358,-0.992173, 9.755814,1,0
1778777564975,  2258.789,  2258.789, 0.010309, 0.108528,-0.988846, 0.000105, 0.001083,-0.009887, 0.000556, 0.071573, 0.058488,1,-0.000189,-0.000263,-0.000411,1,-0.100527,-0.992728, 9.755755,1,0
1778777564997,  2258.814,  2258.809, 0.015472, 0.095721,-0.994754, 0.000146, 0.000951,-0.009971,-0.002069,-0.030673,-0.052810,1, 0.002395,-0.002978, 0.000621,1,-0.099884,-0.991952, 9.755841,1,0
1778777565020,  2258.839,  2258.834, 0.015668, 0.105584,-0.973487, 0.000168, 0.001057,-0.009734, 0.053110, 0.042446, 0.209086,1,-0.000353, 0.001991, 0.000219,1,-0.100602,-0.992990, 9.755729,1,0
1778777565046,  2258.859,  2258.859,-0.001435, 0.096497,-1.001065,-0.000009, 0.000972,-0.009990,-0.114250,-0.045942,-0.061282,1, 0.002985,-0.004647,-0.000095,1,-0.100087,-0.992168, 9.755817,1,0
1778777565067,  2258.884,  2258.879, 0.017633, 0.106548,-0.983587, 0.000173, 0.001071,-0.009838,-0.007935, 0.013359, 0.001575,1,-0.005127, 0.002392,-0.000379,1,-0.100088,-0.992817, 9.755752,1,0
1778777565090,  2258.909,  2258.904, 0.011491, 0.096844,-0.988647, 0.000121, 0.000979,-0.009877, 0.012850,-0.042546, 0.060498,1, 0.003683,-0.000695, 0.000526,1,-0.099821,-0.992143, 9.755822,1,0
1778777565116,  2258.929,  2258.929, 0.008503, 0.100120,-0.988615, 0.000088, 0.000990,-0.009893,-0.016754,-0.010479, 0.060800,1,-0.003784, 0.003127,-0.000930,1,-0.100231,-0.992440, 9.755788,1,0
1778777565137,  2258.954,  2258.949, 0.004121, 0.097630,-1.007386, 0.000035, 0.000991,-0.010064,-0.070987, 0.030615,-0.002839,1, 0.002861,-0.002201, 0.000484,1,-0.100323,-0.992395, 9.755792,1,0
1778777565160,  2258.979,  2258.974, 0.017660, 0.101422,-0.987952, 0.000179, 0.000998,-0.009908, 0.073327, 0.002502, 0.067328,1,-0.003666, 0.000671, 0.000207,1,-0.099876,-0.992221, 9.755814,1,0
1778777565186,  2258.999,  2258.999, 0.010971, 0.101975,-0.979837, 0.000119, 0.001029,-0.009781, 0.007666, 0.007744, 0.146889,1, 0.001150, 0.000108,-0.000228,1,-0.099924,-0.992254, 9.755810,1,0
1778777565207,  2259.024,  2259.019, 0.009500, 0.103165,-0.991111, 0.000093, 0.001012,-0.009927,-0.017851,-0.056334,-0.028602,1,-0.003039, 0.002372,-0.000415,1,-0.100202,-0.992436, 9.755789,1,0
1778777565230,  2259.049,  2259.044, 0.010608, 0.109272,-0.987905, 0.000108, 0.001096,-0.009879,-0.012424, 0.014461,-0.001595,1, 0.004776,-0.004557, 0.000486,1,-0.100023,-0.992595, 9.755774,1,0
1778777565256,  2259.069,  2259.069, 0.015417, 0.093708,-0.992399, 0.000145, 0.000939,-0.009938, 0.051676,-0.073241, 0.023709,1,-0.000903,-0.000031,-0.000225,1,-0.099505,-0.992233, 9.755816,1,0
1778777565277,  2259.094,  2259.089, 0.007100, 0.100610,-0.986032, 0.000078, 0.001021,-0.009833, 0.033591, 0.045645, 0.179549,1,-0.000084, 0.002843, 0.000588,1,-0.099943,-0.992815, 9.755753,1,0
1778777565300,  2259.119,  2259.114, 0.005950, 0.094563,-1.005426, 0.000053, 0.000944,-0.010067,-0.041201,-0.064892,-0.104043,1,-0.001427,-0.000440,-0.000558,1,-0.099533,-0.992280, 9.755812,1,0
1778777565326,  2259.139,  2259.139, 0.012028, 0.108843,-0.983151, 0.000121, 0.001098,-0.009835, 0.018365, 0.074312, 0.114314,1,-0.000924,-0.000370, 0.000231,1,-0.099583,-0.993101, 9.755728,1,0
1778777565348,  2259.164,  2259.159, 0.010605, 0.096570,-0.994252, 0.000107, 0.000958,-0.009959,-0.008949,-0.047031,-0.005845,1, 0.002558,-0.000156, 0.000744,1,-0.099289,-0.992613, 9.755780,1,0
1778777565374,  2259.189,  2259.189, 0.008320, 0.107028,-0.987351, 0.000091, 0.001069,-0.009873,-0.018319, 0.056701, 0.073141,1, 0.002035, 0.000921,-0.000289,1,-0.099940,-0.992823, 9.755753,1,0
1778777565396,  2259.209,  2259.209, 0.006815, 0.097167,-1.000421, 0.000068, 0.000975,-0.010008,-0.032852,-0.039389,-0.054963,1, 0.001724,-0.002057, 0.000938,1,-0.099628,-0.992218, 9.755816,1,0
1778777565418,  2259.234,  2259.229, 0.013941, 0.103926,-0.979714, 0.000148, 0.001044,-0.009795, 0.062253, 0.003720, 0.107687,1,-0.002033, 0.002192,-0.000978,1,-0.099778,-0.992466, 9.755790,1,0
1778777565445,  2259.259,  2259.259, 0.009252, 0.094827,-0.998880, 0.000090, 0.000954,-0.009972,-0.009072,-0.061832,-0.039806,1, 0.001332, 0.000340, 0.000147,1,-0.099828,-0.991715, 9.755866,1,0
1778777565466,  2259.284,  2259.279, 0.008494, 0.107941,-0.983301, 0.000093, 0.001090,-0.009828, 0.008148, 0.036556, 0.074191,1,-0.007439, 0.003283,-0.000917,1,-0.100323,-0.992799, 9.755751,1,0
1778777565488,  2259.304,  2259.299, 0.007131, 0.095670,-1.000667, 0.000060, 0.000963,-0.010003,-0.055995,-0.008679, 0.031872,1, 0.005486,-0.002793, 0.000504,1,-0.100061,-0.992390, 9.755795,1,0
1778777565515,  2259.329,  2259.329, 0.015527, 0.104050,-0.983306, 0.000153, 0.001027,-0.009848, 0.052078, 0.028099, 0.112867,1,-0.004459, 0.002947,-0.001155,1,-0.100279,-0.992422, 9.755790,1,0
1778777565536,  2259.354,  2259.349, 0.005549, 0.096271,-0.999348, 0.000056, 0.000960,-0.009992,-0.013042,-0.017723, 0.048711,1, 0.003233,-0.002215, 0.000870,1,-0.100277,-0.992167, 9.755816,1,0
1778777565558,  2259.374,  2259.369, 0.012230, 0.104049,-0.986390, 0.000119, 0.001028,-0.009878,-0.012018,-0.048951,-0.008618,1,-0.001856, 0.000391,-0.000491,1,-0.100121,-0.992150, 9.755818,1,0
1778777565585,  2259.399,  2259.399, 0.009950, 0.099721,-0.994306, 0.000102, 0.001008,-0.009926,-0.002319,-0.013977, 0.005030,1, 0.004480,-0.003178, 0.000543,1,-0.099800,-0.991769, 9.755860,1,0
1778777565606,  2259.424,  2259.419, 0.016890, 0.104111,-0.983498, 0.000165, 0.001032,-0.009839, 0.038400,-0.053975,-0.024679,1,-0.004810, 0.001921,-0.000809,1,-0.099732,-0.991966, 9.755841,1,1
1778777565628,  2259.444,  2259.439, 0.005847, 0.099310,-0.992227, 0.000059, 0.001009,-0.009900, 0.018598, 0.043416, 0.126498,1, 0.001095,-0.000803,-0.000236,1,-0.100064,-0.992595, 9.755774,1,1
1778777565655,  2259.469,  2259.469, 0.007316, 0.097253,-0.999325, 0.000067, 0.000964,-0.010010,-0.027901,-0.038412,-0.044205,1,-0.004785, 0.000860,-0.000597,1,-0.099672,-0.992282, 9.755810,1,1
1778777565676,  2259.494,  2259.489, 0.009490, 0.099958,-0.988746, 0.000095, 0.001011,-0.009872, 0.026662, 0.054058, 0.123758,1, 0.001321, 0.000375,-0.000338,1,-0.099960,-0.992921, 9.755742,1,1
1778777565698,  2259.514,  2259.509, 0.008795, 0.097575,-0.990594, 0.000093, 0.000962,-0.009926,-0.016524,-0.050679,-0.006175,1, 0.001490,-0.000806,-0.000134,1,-0.099757,-0.992417, 9.755795,1,1
1778777565725,  2259.539,  2259.539, 0.006709, 0.107549,-0.980965, 0.000076, 0.001083,-0.009808,-0.034373, 0.061621, 0.135743,1, 0.002742, 0.000031, 0.000109,1,-0.100169,-0.992987, 9.755733,1,1
1778777565746,  2259.564,  2259.559, 0.011492, 0.098067,-0.995654, 0.000109, 0.000964,-0.009985,-0.035244,-0.046535,-0.084881,1, 0.002545,-0.001830, 0.000415,1,-0.099681,-0.992136, 9.755825,1,1
1778777565768,  2259.584,  2259.579, 0.013799, 0.105758,-0.980567, 0.000146, 0.001066,-0.009795, 0.051471, 0.040958, 0.116830,1,-0.002847, 0.001762,-0.000905,1,-0.099945,-0.992698, 9.755765,1,1
1778777565795,  2259.609,  2259.609, 0.007750, 0.095781,-0.998980, 0.000076, 0.000963,-0.009977,-0.023872,-0.052648,-0.040807,1, 0.001398, 0.000707, 0.000991,1,-0.099903,-0.991892, 9.755847,1,1
1778777565817,  2259.634,  2259.629, 0.010904, 0.105812,-0.988505, 0.000114, 0.001068,-0.009874, 0.018794, 0.041739, 0.059914,1,-0.002102, 0.002875,-0.000400,1,-0.100440,-0.992569, 9.755773,1,1
1778777565838,  2259.654,  2259.649, 0.012363, 0.094708,-1.002524, 0.000115, 0.000954,-0.010027,-0.012894,-0.010066,-0.028934,1, 0.006049,-0.002529, 0.000473,1,-0.100035,-0.991606, 9.755875,1,1
1778777565865,  2259.679,  2259.679, 0.017711, 0.104962,-0.979421, 0.000179, 0.001039,-0.009804, 0.073541, 0.037013, 0.150962,1,-0.004061, 0.003804,-0.000291,1,-0.100267,-0.992437, 9.755788,1,1
1778777565887,  2259.704,  2259.699, 0.004513, 0.094439,-1.006259, 0.000041, 0.000944,-0.010067,-0.046816,-0.028089,-0.002886,1, 0.003959,-0.002829, 0.000983,1,-0.099969,-0.991909, 9.755845,1,1
1778777565910,  2259.724,  2259.724, 0.012441, 0.105582,-0.986941, 0.000123, 0.001047,-0.009880, 0.022149, 0.043020, 0.077217,1,-0.002993, 0.000054,-0.000597,1,-0.099857,-0.992479, 9.755788,1,1
1778777565935,  2259.749,  2259.749, 0.010507, 0.097199,-0.989929, 0.000108, 0.000983,-0.009889, 0.003587,-0.038718, 0.047965,1, 0.004078,-0.003830,-0.000136,1,-0.099328,-0.991788, 9.755863,1,1
1778777565957,  2259.774,  2259.769, 0.011165, 0.104208,-0.981669, 0.000111, 0.001038,-0.009818, 0.013198,-0.042642, 0.062356,1,-0.004251, 0.002176,-0.000706,1,-0.099358,-0.992106, 9.755831,1,1
1778777565980,  2259.794,  2259.794, 0.003740, 0.099785,-0.999232, 0.000034, 0.001009,-0.009971,-0.062660,-0.013633,-0.043294,1, 0.004480,-0.002703, 0.000607,1,-0.099254,-0.992048, 9.755838,1,1
1778777566005,  2259.819,  2259.819, 0.011788, 0.098348,-0.993273, 0.000103, 0.000971,-0.009951, 0.016489,-0.027817, 0.015131,1,-0.004277, 0.001448,-0.000161,1,-0.099159,-0.992412, 9.755802,1,1
1778777566027,  2259.844,  2259.839, 0.008773, 0.098427,-0.990957, 0.000091, 0.000994,-0.009889, 0.026967, 0.010986, 0.154972,1, 0.003788,-0.001158, 0.000053,1,-0.099281,-0.992362, 9.755806,1,1
1778777566050,  2259.864,  2259.864, 0.010165, 0.100355,-0.992631, 0.000102, 0.000985,-0.009945, 0.000118,-0.007987, 0.021445,1,-0.005893, 0.003102,-0.000340,1,-0.099659,-0.992314, 9.755807,1,1
1778777566075,  2259.889,  2259.889, 0.006403, 0.107471,-0.987614, 0.000072, 0.001084,-0.009868,-0.037049, 0.061206, 0.070575,1, 0.003179,-0.001574, 0.000741,1,-0.099799,-0.992622, 9.755774,1,1
1778777566097,  2259.914,  2259.909, 0.014620, 0.098344,-0.990764, 0.000147, 0.000970,-0.009933,-0.006328,-0.045871,-0.082037,1, 0.002632,-0.000976, 0.000244,1,-0.099162,-0.991670, 9.755877,1,1
1778777566120,  2259.934,  2259.934, 0.013280, 0.103827,-0.982478, 0.000140, 0.001055,-0.009811, 0.030627, 0.026319, 0.121031,1, 0.003434, 0.000649,-0.000142,1,-0.099625,-0.991773, 9.755862,1,1
1778777566146,  2259.959,  2259.959, 0.006523, 0.096618,-1.000712, 0.000056, 0.000970,-0.010005,-0.035455,-0.044018,-0.057745,1,-0.000855, 0.000542, 0.000078,1,-0.099444,-0.991547, 9.755887,1,1
1778777566167,  2259.984,  2259.979, 0.010602, 0.104836,-0.988359, 0.000110, 0.001064,-0.009870, 0.010579, 0.057518, 0.074003,1,-0.001641, 0.000601, 0.000222,1,-0.099812,-0.992198, 9.755817,1,1
1778777566190,  2260.004,  2260.004, 0.012147, 0.095106,-0.997713, 0.000114, 0.000954,-0.009980, 0.020010,-0.058611,-0.028305,1,-0.000668, 0.000349, 0.000268,1,-0.099119,-0.991299, 9.755916,1,1
1778777566216,  2260.029,  2260.029, 0.015853, 0.104115,-0.980065, 0.000163, 0.001036,-0.009802, 0.055936, 0.028983, 0.144685,1,-0.002854, 0.001971,-0.000431,1,-0.099586,-0.992121, 9.755827,1,1
1778777566237,  2260.054,  2260.049, 0.005073, 0.095478,-1.003694, 0.000045, 0.000953,-0.010041,-0.055952,-0.026683,-0.006196,1, 0.004200,-0.001734, 0.000376,1,-0.099394,-0.991456, 9.755897,1,1
1778777566260,  2260.079,  2260.074, 0.012188, 0.106546,-0.984811, 0.000126, 0.001060,-0.009858, 0.019962, 0.052791, 0.098132,1,-0.001890,-0.000031,-0.000893,1,-0.099556,-0.992130, 9.755827,1,1
1778777566286,  2260.099,  2260.099, 0.007504, 0.097579,-0.995274, 0.000075, 0.000981,-0.009934,-0.025543,-0.034413,-0.004391,1, 0.004941,-0.002135, 0.000618,1,-0.099069,-0.991179, 9.755928,1,1
1778777566307,  2260.124,  2260.119, 0.014739, 0.106398,-0.981399, 0.000152, 0.001059,-0.009816, 0.048879,-0.023723, 0.048708,1,-0.004832, 0.003400,-0.000602,1,-0.099504,-0.991425, 9.755898,1,1
1778777566330,  2260.149,  2260.144, 0.002371, 0.097016,-0.996383, 0.000029, 0.000982,-0.009941,-0.076281,-0.039965,-0.015273,1, 0.004307,-0.003864, 0.000692,1,-0.099412,-0.991235, 9.755919,1,1
1778777566356,  2260.169,  2260.169, 0.010388, 0.098946,-0.992440, 0.000096, 0.000982,-0.009944, 0.002533,-0.021265, 0.023372,1,-0.006111, 0.002523,-0.000284,1,-0.099412,-0.991785, 9.755863,1,1
1778777566377,  2260.194,  2260.189, 0.010040, 0.098395,-0.996474, 0.000102, 0.000992,-0.009947, 0.022153, 0.031490, 0.102027,1, 0.004966,-0.000846, 0.000284,1,-0.099537,-0.991816, 9.755858,1,1
1778777566400,  2260.219,  2260.214, 0.013398, 0.099832,-0.988177, 0.000134, 0.000984,-0.009910, 0.031811,-0.012726, 0.065155,1,-0.006687, 0.003835,-0.000200,1,-0.099692,-0.991948, 9.755843,1,1
1778777566426,  2260.239,  2260.239, 0.006146, 0.105415,-0.983996, 0.000073, 0.001067,-0.009826,-0.039570, 0.041662, 0.106118,1, 0.005769,-0.002700, 0.000039,1,-0.099758,-0.991931, 9.755845,1,1
1778777566448,  2260.264,  2260.259, 0.012236, 0.098980,-0.995997, 0.000112, 0.000976,-0.009989,-0.059641,-0.049664,-0.124816,1, 0.001402,-0.001721,-0.000021,1,-0.098909,-0.991069, 9.755941,1,1
1778777566470,  2260.289,  2260.284, 0.017665, 0.105100,-0.981597, 0.000185, 0.001064,-0.009812, 0.073759, 0.039064, 0.129705,1, 0.003882,-0.000625, 0.000570,1,-0.099456,-0.991491, 9.755893,1,1
1778777566496,  2260.309,  2260.309, 0.008415, 0.095110,-0.994698, 0.000078, 0.000955,-0.009944,-0.016755,-0.058478, 0.001269,1,-0.001253, 0.000795,-0.000328,1,-0.099300,-0.991228, 9.755920,1,1
1778777566518,  2260.334,  2260.329, 0.005296, 0.106206,-0.989070, 0.000053, 0.001079,-0.009870,-0.030667, 0.055807, 0.098775,1,-0.003198, 0.000309,-0.000823,1,-0.099644,-0.992187, 9.755820,1,1
1778777566540,  2260.359,  2260.354, 0.012734, 0.094881,-1.005915, 0.000116, 0.000952,-0.010069, 0.026087,-0.060611,-0.108713,1, 0.002013,-0.002176, 0.000555,1,-0.098724,-0.991013, 9.755948,1,1
1778777566566,  2260.379,  2260.379, 0.018707, 0.104134,-0.976262, 0.000188, 0.001034,-0.009772, 0.084475, 0.029590, 0.182022,1,-0.002836, 0.001658,-0.000776,1,-0.099025,-0.991699, 9.755876,1,1
1778777566588,  2260.404,  2260.399, 0.003361, 0.095038,-0.997833, 0.000030, 0.000950,-0.009978,-0.042765,-0.027780, 0.061685,1, 0.002899,-0.000784,-0.000232,1,-0.098911,-0.991101, 9.755938,1,1
1778777566615,  2260.429,  2260.429, 0.008422, 0.106153,-0.991435, 0.000082, 0.001053,-0.009926,-0.016523, 0.049060, 0.033194,1,-0.002414,-0.000174,-0.000264,1,-0.099106,-0.992016, 9.755842,1,1
1778777566636,  2260.449,  2260.449, 0.010679, 0.099066,-0.998395, 0.000103, 0.000997,-0.009976, 0.006032,-0.019830,-0.034991,1, 0.003751,-0.003002, 0.000428,1,-0.098599,-0.991222, 9.755929,1,1
1778777566658,  2260.474,  2260.469, 0.013537, 0.105578,-0.975886, 0.000144, 0.001049,-0.009756, 0.085746,-0.021617, 0.110537,1,-0.004555, 0.003589,-0.000373,1,-0.098984,-0.991567, 9.755890,1,1
1778777566685,  2260.499,  2260.499,-0.000883, 0.097067,-1.004200,-0.000007, 0.000980,-0.010007,-0.107712,-0.039224,-0.091904,1, 0.005397,-0.002445, 0.000294,1,-0.098982,-0.990956, 9.755952,1,1
1778777566706,  2260.524,  2260.519, 0.018424, 0.106254,-0.985345, 0.000182, 0.001058,-0.009866, 0.014836,-0.012958,-0.068692,1,-0.005493, 0.001390,-0.000131,1,-0.098755,-0.991351, 9.755914,1,1
1778777566728,  2260.544,  2260.539, 0.012796, 0.096014,-0.986610, 0.000140, 0.000966,-0.009848, 0.076588, 0.023503, 0.149702,1, 0.004587,-0.001755, 0.000840,1,-0.098709,-0.991365, 9.755913,1,1
1778777566755,  2260.569,  2260.569, 0.010776, 0.099054,-0.986610, 0.000108, 0.000973,-0.009880, 0.006707,-0.019996, 0.080568,1,-0.006509, 0.005183,-0.000714,1,-0.099123,-0.991583, 9.755887,1,1
1778777566776,  2260.594,  2260.589, 0.003043, 0.101983,-1.005087, 0.000030, 0.001024,-0.010040,-0.074452, 0.063797, 0.028531,1, 0.003254,-0.002329, 0.000336,1,-0.099296,-0.991807, 9.755862,1,1
1778777566798,  2260.614,  2260.609, 0.018218, 0.099316,-0.988490, 0.000170, 0.000981,-0.009916,-0.010595,-0.038303,-0.103311,1,-0.000502,-0.002410, 0.000617,1,-0.098506,-0.991236, 9.755928,1,1
1778777566825,  2260.639,  2260.639, 0.014777, 0.103673,-0.975021, 0.000163, 0.001047,-0.009731, 0.045888, 0.025017, 0.194184,1, 0.002656, 0.001456,-0.000348,1,-0.099071,-0.991582, 9.755887,1,1
1778777566846,  2260.664,  2260.659, 0.005329, 0.100970,-0.999001, 0.000049, 0.000996,-0.010005,-0.059711,-0.049345,-0.078254,1,-0.001788, 0.002912, 0.000625,1,-0.099571,-0.991429, 9.755898,1,1
1778777566868,  2260.684,  2260.679, 0.008156, 0.106163,-0.991964, 0.000085, 0.001077,-0.009907,-0.019150, 0.077159, 0.035016,1,-0.001638, 0.000035,-0.000075,1,-0.099921,-0.992385, 9.755796,1,1
1778777566895,  2260.709,  2260.709, 0.015511, 0.092907,-0.999317, 0.000146, 0.000927,-0.010006, 0.053354,-0.079474,-0.043960,1, 0.002473,-0.000366,-0.000154,1,-0.098747,-0.990504, 9.756000,1,1
1778777566917,  2260.734,  2260.729, 0.008082, 0.104082,-0.980732, 0.000094, 0.001050,-0.009786, 0.060199, 0.040140, 0.187576,1,-0.003746, 0.003954,-0.000706,1,-0.099374,-0.991403, 9.755902,1,1
1778777566938,  2260.754,  2260.749, 0.000384, 0.093686,-1.007745,-0.000001, 0.000935,-0.010083,-0.092069,-0.029868,-0.032503,1, 0.003150,-0.002315, 0.000570,1,-0.099368,-0.991078, 9.755936,1,1
1778777566965,  2260.779,  2260.779, 0.010351, 0.105787,-0.985541, 0.000100, 0.001051,-0.009865, 0.002399, 0.045938, 0.091043,1,-0.000577,-0.001428,-0.000308,1,-0.099068,-0.991500, 9.755896,1,1
1778777566987,  2260.804,  2260.799, 0.016469, 0.092277,-0.992059, 0.000164, 0.000924,-0.009924, 0.037104,-0.041322, 0.041244,1, 0.003247,-0.000937, 0.000320,1,-0.098767,-0.990672, 9.755982,1,1
1778777567008,  2260.824,  2260.819, 0.011277, 0.105868,-0.978626, 0.000118, 0.001054,-0.009779, 0.046363,-0.026318, 0.117936,1,-0.006629, 0.003566,-0.000812,1,-0.099248,-0.991421, 9.755901,1,1
1778777567035,  2260.849,  2260.849, 0.003461, 0.100265,-1.003645, 0.000028, 0.001010,-0.010013,-0.065131,-0.007899,-0.086467,1, 0.004612,-0.003425, 0.000277,1,-0.098967,-0.991018, 9.755945,1,1
1778777567057,  2260.874,  2260.869, 0.016670, 0.108274,-0.983494, 0.000169, 0.001085,-0.009841, 0.038122, 0.019706, 0.006116,1,-0.004247, 0.000374,-0.000183,1,-0.098555,-0.991198, 9.755932,1,1
1778777567078,  2260.894,  2260.889, 0.009418, 0.098217,-0.993240, 0.000102, 0.000985,-0.009924, 0.037129, 0.016487, 0.103744,1, 0.003752,-0.002145, 0.000262,1,-0.098401,-0.990943, 9.755959,1,1
1778777567105,  2260.919,  2260.919, 0.008940, 0.103606,-0.989397, 0.000093, 0.001017,-0.009904,-0.010697, 0.024718, 0.053256,1,-0.006142, 0.001948,-0.001123,1,-0.098421,-0.991501, 9.755902,1,1
1778777567127,  2260.944,  2260.939, 0.007816, 0.100699,-1.002736, 0.000077, 0.001008,-0.010025,-0.026585, 0.043428, 0.029495,1, 0.003868,-0.002907,-0.000594,1,-0.098289,-0.991365, 9.755918,1,1
1778777567150,  2260.964,  2260.964, 0.016475, 0.101068,-0.984868, 0.000163, 0.000997,-0.009869, 0.063759, 0.000003, 0.097688,1,-0.003897, 0.001868,-0.001126,1,-0.097860,-0.991258, 9.755932,1,1
1778777567175,  2260.989,  2260.989, 0.009798, 0.100754,-0.982632, 0.000104, 0.001017,-0.009807,-0.001849,-0.002917, 0.119635,1, 0.003827, 0.000106,-0.000260,1,-0.097941,-0.990860, 9.755972,1,1
1778777567197,  2261.014,  2261.009, 0.007716, 0.101686,-0.992048, 0.000074, 0.001007,-0.009929,-0.037650,-0.061902,-0.035582,1,-0.002200, 0.001230,-0.000698,1,-0.097949,-0.990831, 9.755975,1,1
1778777567220,  2261.034,  2261.034, 0.004967, 0.099917,-0.991350, 0.000050, 0.001008,-0.009900,-0.049210,-0.011245, 0.034128,1, 0.004462,-0.002984,-0.000055,1,-0.097823,-0.990955, 9.755963,1,1
1778777567245,  2261.059,  2261.059, 0.014794, 0.093422,-0.992826, 0.000140, 0.000931,-0.009942, 0.047344,-0.074592, 0.019683,1,-0.001829, 0.002452,-0.001122,1,-0.097791,-0.990844, 9.755975,1,1
1778777567267,  2261.084,  2261.079, 0.006349, 0.101003,-0.988777, 0.000069, 0.001019,-0.009872, 0.020476, 0.043066, 0.154064,1, 0.000022, 0.002512,-0.000681,1,-0.098473,-0.991610, 9.755891,1,1
1778777567290,  2261.104,  2261.104, 0.009734, 0.093680,-1.009156, 0.000084, 0.000937,-0.010087,-0.002289,-0.071519,-0.140401,1, 0.002755,-0.002061,-0.000162,1,-0.097682,-0.990115, 9.756050,1,1
1778777567316,  2261.129,  2261.129, 0.015261, 0.105975,-0.981813, 0.000158, 0.001059,-0.009833, 0.051683, 0.048423, 0.127675,1,-0.001229,-0.000530, 0.000327,1,-0.097965,-0.990876, 9.755970,1,1
1778777567337,  2261.154,  2261.149, 0.011436, 0.096614,-0.994400, 0.000110, 0.000956,-0.009959,-0.011034,-0.063725,-0.021279,1, 0.000137,-0.001096, 0.000365,1,-0.097346,-0.990288, 9.756036,1,1
1778777567360,  2261.174,  2261.174, 0.008678, 0.109196,-0.990232, 0.000086, 0.001093,-0.009889,-0.012710, 0.079331, 0.045045,1,-0.000795, 0.000179,-0.000454,1,-0.097812,-0.991546, 9.755903,1,1
1778777567386,  2261.199,  2261.199, 0.010036, 0.099256,-1.003248, 0.000097, 0.000999,-0.010027, 0.000978,-0.017655,-0.082546,1, 0.000568,-0.003521, 0.000145,1,-0.097334,-0.991003, 9.755963,1,1
1778777567407,  2261.224,  2261.219, 0.010404, 0.106868,-0.974147, 0.000119, 0.001072,-0.009737, 0.064366, 0.042142, 0.159262,1,-0.006050, 0.001996,-0.000074,1,-0.097560,-0.992032, 9.755857,1,1
1778777567430,  2261.244,  2261.244, 0.001769, 0.097951,-0.997742, 0.000018, 0.000980,-0.009961,-0.079626,-0.030883,-0.028590,1, 0.001526,-0.002041,-0.000275,1,-0.096906,-0.991410, 9.755926,1,1
1778777567456,  2261.269,  2261.269, 0.011949, 0.107266,-0.988317, 0.000111, 0.001061,-0.009902, 0.019673, 0.059924, 0.063781,1,-0.003993, 0.003789,-0.001115,1,-0.097621,-0.992122, 9.755847,1,1
1778777567477,  2261.294,  2261.289, 0.008423, 0.097933,-0.992948, 0.000088, 0.000982,-0.009934, 0.005185, 0.017877, 0.063047,1, 0.007863,-0.002706, 0.000572,1,-0.097426,-0.991145, 9.755948,1,1
1778777567500,  2261.319,  2261.314, 0.009429, 0.103951,-0.984764, 0.000094, 0.001026,-0.009854,-0.005094, 0.028887, 0.098778,1,-0.001511, 0.003575,-0.000531,1,-0.097673,-0.990573, 9.756003,1,1
1778777567526,  2261.339,  2261.339, 0.007334, 0.101753,-0.997383, 0.000070, 0.001026,-0.009948,-0.026096, 0.007865,-0.024923,1, 0.006573, 0.000405, 0.000337,1,-0.098034,-0.989784, 9.756081,1,1
1778777567547,  2261.364,  2261.359, 0.016361, 0.102297,-0.987365, 0.000162, 0.001021,-0.009893, 0.052177,-0.045193,-0.074279,1,-0.001408, 0.000799,-0.000558,1,-0.097935,-0.989281, 9.756132,1,1
1778777567570,  2261.389,  2261.384, 0.007508, 0.097301,-0.988883, 0.000074, 0.000982,-0.009868,-0.024432,-0.034772, 0.058537,1, 0.005092,-0.000979, 0.000928,1,-0.098036,-0.988814, 9.756179,1,1
1778777567596,  2261.409,  2261.409, 0.013561, 0.095141,-0.999855, 0.000132, 0.000941,-0.010015, 0.034741,-0.055903,-0.049058,1,-0.003771, 0.003103,-0.000727,1,-0.098340,-0.989034, 9.756153,1,1
1778777567617,  2261.434,  2261.429, 0.008313, 0.097505,-0.994766, 0.000091, 0.000986,-0.009937, 0.015686, 0.032145, 0.064434,1, 0.002329,-0.001171, 0.000378,1,-0.098608,-0.989399, 9.756113,1,1
1778777567640,  2261.459,  2261.454, 0.012839, 0.093329,-0.987500, 0.000123, 0.000922,-0.009904, 0.027742,-0.073639, 0.072098,1,-0.005658, 0.002614,-0.000337,1,-0.098274,-0.989029, 9.756154,1,1
1778777567666,  2261.479,  2261.479, 0.008832, 0.102643,-0.978644, 0.000101, 0.001027,-0.009777,-0.012123, 0.017062, 0.158882,1, 0.001953, 0.000785,-0.000424,1,-0.098758,-0.989465, 9.756105,1,1
1778777567688,  2261.504,  2261.499, 0.011024, 0.097843,-0.998622, 0.000099, 0.000960,-0.010011,-0.042918,-0.070826,-0.106321,1,-0.000049,-0.001045,-0.000929,1,-0.098445,-0.988896, 9.756166,1,1
1778777567710,  2261.529,  2261.524, 0.013025, 0.105990,-0.975340, 0.000138, 0.001072,-0.009749, 0.028923, 0.049020, 0.191193,1, 0.000804,-0.000758, 0.000864,1,-0.098784,-0.990360, 9.756014,1,1
1778777567736,  2261.549,  2261.549, 0.006444, 0.094654,-0.998609, 0.000063, 0.000953,-0.009968,-0.035136,-0.061299,-0.036903,1, 0.002837,-0.002038, 0.000628,1,-0.098269,-0.989446, 9.756112,1,1
1778777567758,  2261.574,  2261.569, 0.008333, 0.108360,-0.990217, 0.000088, 0.001093,-0.009896,-0.013769, 0.060133, 0.046707,1,-0.005927, 0.003182,-0.000434,1,-0.098800,-0.990412, 9.756009,1,1
1778777567780,  2261.599,  2261.594, 0.008513, 0.100920,-0.998728, 0.000079, 0.001012,-0.009996,-0.015053,-0.000273,-0.038114,1, 0.000439,-0.001138, 0.001504,1,-0.098507,-0.989942, 9.756060,1,1
1778777567806,  2261.619,  2261.619, 0.015509, 0.104392,-0.981920, 0.000157, 0.001034,-0.009829, 0.053223, 0.033512, 0.126684,1,-0.000852, 0.003603,-0.000275,1,-0.098978,-0.990248, 9.756023,1,1
1778777567828,  2261.644,  2261.639, 0.008441, 0.098486,-1.002830, 0.000077, 0.000985,-0.010027,-0.028756, 0.013128, 0.012768,1, 0.003833,-0.000509, 0.000421,1,-0.099092,-0.989432, 9.756105,1,1
1778777567855,  2261.669,  2261.669, 0.014212, 0.108061,-0.985139, 0.000144, 0.001070,-0.009869, 0.039823, 0.069056, 0.095059,1,-0.005085, 0.002616,-0.000531,1,-0.099624,-0.990820, 9.755959,1,1
1778777567876,  2261.689,  2261.689, 0.006835, 0.099210,-0.993145, 0.000069, 0.001006,-0.009903,-0.032112,-0.016999, 0.016630,1, 0.008376,-0.004976, 0.001158,1,-0.098988,-0.989654, 9.756083,1,1
1778777567898,  2261.714,  2261.709, 0.015384, 0.104285,-0.983703, 0.000156, 0.001037,-0.009850, 0.053852,-0.039618,-0.021299,1,-0.003359, 0.002969,-0.000513,1,-0.099129,-0.989369, 9.756111,1,1
1778777567925,  2261.739,  2261.739, 0.005027, 0.098085,-0.992352, 0.000054, 0.000994,-0.009903,-0.049998,-0.027812, 0.024428,1, 0.004615,-0.003231, 0.000560,1,-0.099200,-0.989550, 9.756092,1,1
1778777567946,  2261.764,  2261.759, 0.012917, 0.102605,-0.983814, 0.000127, 0.001019,-0.009847,-0.004766,-0.042474, 0.000942,1,-0.003266, 0.001364,-0.001092,1,-0.099102,-0.989698, 9.756078,1,1
1778777567968,  2261.784,  2261.779, 0.008209, 0.099408,-0.992730, 0.000086, 0.001000,-0.009911, 0.003585, 0.031188, 0.090969,1, 0.002161,-0.001027, 0.000016,1,-0.099255,-0.989735, 9.756073,1,1
1778777567995,  2261.809,  2261.809, 0.013659, 0.096636,-0.990755, 0.000132, 0.000955,-0.009936, 0.034874,-0.042368, 0.040052,1,-0.008058, 0.003864,-0.000710,1,-0.099196,-0.990295, 9.756017,1,1
1778777568016,  2261.834,  2261.829, 0.003325, 0.098862,-0.992133, 0.000044, 0.000995,-0.009891, 0.010795, 0.043674, 0.166681,1, 0.003464,-0.000718, 0.000268,1,-0.099862,-0.990854, 9.755953,1,1
1778777568038,  2261.854,  2261.849, 0.011548, 0.094919,-0.996051, 0.000105, 0.000929,-0.009988,-0.076281,-0.063858,-0.111310,1, 0.000123,-0.001893, 0.000295,1,-0.098991,-0.989820, 9.756067,1,1
1778777568065,  2261.879,  2261.879, 0.010635, 0.106198,-0.984329, 0.000106, 0.001076,-0.009835, 0.005052, 0.050730, 0.103006,1, 0.004106,-0.000357, 0.000668,1,-0.099229,-0.990590, 9.755986,1,1
1778777568087,  2261.904,  2261.899, 0.009876, 0.099277,-0.995520, 0.000098, 0.000981,-0.009972,-0.003324,-0.059849,-0.068940,1, 0.002157,-0.000980,-0.000264,1,-0.099026,-0.989665, 9.756083,1,1
1778777568108,  2261.924,  2261.919, 0.007480, 0.106480,-0.985759, 0.000081, 0.001075,-0.009844, 0.005175, 0.056234, 0.097360,1,-0.004265, 0.002503,-0.000279,1,-0.099517,-0.990554, 9.755987,1,1
1778777568135,  2261.949,  2261.949, 0.008532, 0.096956,-1.001050, 0.000076, 0.000975,-0.010018,-0.015349,-0.039577,-0.060943,1,-0.001388, 0.000152, 0.000803,1,-0.099025,-0.990431, 9.756004,1,1
1778777568157,  2261.974,  2261.969, 0.015967, 0.104152,-0.984866, 0.000164, 0.001049,-0.009845, 0.061412, 0.030855, 0.088198,1,-0.000684, 0.003050,-0.000504,1,-0.099497,-0.990947, 9.755947,1,1
1778777568178,  2261.994,  2261.989, 0.010246, 0.097670,-0.994678, 0.000102, 0.000977,-0.009952, 0.020598, 0.000096, 0.036014,1, 0.002524,-0.001934, 0.000061,1,-0.099405,-0.990306, 9.756013,1,1
1778777568205,  2262.019,  2262.019, 0.010918, 0.105344,-0.983781, 0.000110, 0.001048,-0.009843, 0.007281, 0.041989, 0.108331,1,-0.001865,-0.000010, 0.000012,1,-0.099792,-0.991136, 9.755925,1,1
1778777568227,  2262.044,  2262.039, 0.014056, 0.094511,-1.003617, 0.000127, 0.000950,-0.010036,-0.018484,-0.016817,-0.045275,1, 0.006230,-0.004262, 0.000483,1,-0.099092,-0.990041, 9.756043,1,1
1778777568248,  2262.064,  2262.059, 0.016428, 0.104525,-0.979557, 0.000170, 0.001047,-0.009799, 0.075045,-0.017466, 0.033465,1,-0.004911, 0.001386,-0.001036,1,-0.099199,-0.990353, 9.756011,1,1
1778777568275,  2262.089,  2262.089, 0.002105, 0.096611,-0.991771, 0.000021, 0.000975,-0.009895,-0.078380,-0.043065, 0.030047,1, 0.003398,-0.002629, 0.001016,1,-0.098941,-0.990389, 9.756010,1,1
1778777568297,  2262.114,  2262.109, 0.012866, 0.105242,-0.986764, 0.000129, 0.001050,-0.009879, 0.001047,-0.022260,-0.017475,1,-0.005481, 0.001474,-0.000540,1,-0.098970,-0.990844, 9.755963,1,1
1778777568318,  2262.134,  2262.129, 0.007200, 0.097456,-0.993384, 0.000073, 0.000982,-0.009925, 0.000139, 0.026920, 0.087810,1, 0.003698,-0.003195, 0.000733,1,-0.098791,-0.990919, 9.755958,1,1
1778777568345,  2262.159,  2262.159, 0.013108, 0.100334,-0.984268, 0.000129, 0.000988,-0.009866, 0.029894,-0.007332, 0.103554,1,-0.007282, 0.003649,-0.000415,1,-0.098762,-0.991501, 9.755898,1,1
1778777568367,  2262.184,  2262.179, 0.001236, 0.099359,-1.001914, 0.000021, 0.000999,-0.010000,-0.028437, 0.039335, 0.095812,1, 0.007028,-0.001440, 0.000665,1,-0.099034,-0.991221, 9.755924,1,1
1778777568390,  2262.204,  2262.204, 0.010041, 0.098323,-0.996974, 0.000088, 0.000974,-0.009995, 0.000100,-0.026366,-0.020982,1,-0.005938, 0.002260,-0.000445,1,-0.098442,-0.990770, 9.755976,1,1
1778777568416,  2262.229,  2262.229, 0.014696, 0.103720,-0.981249, 0.000157, 0.001046,-0.009799, 0.045305, 0.026130, 0.133179,1, 0.004097,-0.001642,-0.000072,1,-0.098767,-0.990891, 9.755960,1,1
1778777568437,  2262.254,  2262.249, 0.009857, 0.098461,-0.995505, 0.000094, 0.000975,-0.009968,-0.022718,-0.057071,-0.035470,1, 0.000021, 0.001407,-0.000303,1,-0.098706,-0.990249, 9.756026,1,1
1778777568460,  2262.274,  2262.274, 0.008634, 0.106178,-0.987832, 0.000089, 0.001073,-0.009870,-0.014593, 0.050206, 0.068617,1, 0.003081,-0.000767, 0.000305,1,-0.099240,-0.990946, 9.755950,1,1
1778777568486,  2262.299,  2262.299, 0.013622, 0.095219,-1.001328, 0.000127, 0.000957,-0.010021, 0.034687,-0.056480,-0.063651,1, 0.001363, 0.000175, 0.000200,1,-0.098908,-0.990217, 9.756027,1,1
1778777568507,  2262.324,  2262.319, 0.009048, 0.105544,-0.978201, 0.000105, 0.001065,-0.009769, 0.059593, 0.047707, 0.180404,1,-0.003193, 0.002666,-0.000997,1,-0.099431,-0.991072, 9.755936,1,1
1778777568530,  2262.344,  2262.344, 0.005178, 0.095299,-1.004737, 0.000047, 0.000956,-0.010049,-0.048287,-0.055663,-0.097085,1,-0.000682,-0.000328,-0.000332,1,-0.099057,-0.990247, 9.756022,1,1
1778777568556,  2262.369,  2262.369, 0.014226, 0.106436,-0.986061, 0.000142, 0.001057,-0.009868, 0.040058, 0.052878, 0.085999,1,-0.000643, 0.001120,-0.000315,1,-0.099485,-0.990919, 9.755950,1,1
1778777568577,  2262.394,  2262.389, 0.009081, 0.093174,-0.995429, 0.000085, 0.000938,-0.009954,-0.015751,-0.022779, 0.019793,1, 0.005024,-0.003024, 0.000874,1,-0.098943,-0.989860, 9.756063,1,1
1778777568600,  2262.414,  2262.414, 0.013607, 0.103659,-0.980929, 0.000138, 0.001029,-0.009806, 0.033950, 0.025882, 0.136353,1,-0.003945, 0.003455,-0.000351,1,-0.099596,-0.990786, 9.755962,1,1
1778777568626,  2262.439,  2262.439, 0.005965, 0.099254,-0.999683, 0.000062, 0.001005,-0.009969,-0.040729,-0.016795,-0.047515,1, 0.005195,-0.004294, 0.000328,1,-0.099098,-0.989984, 9.756049,1,1
1778777568647,  2262.464,  2262.459, 0.015581, 0.104366,-0.981625, 0.000155, 0.001038,-0.009821, 0.034328,-0.030164, 0.001943,1,-0.005651, 0.000681,-0.000665,1,-0.098991,-0.990441, 9.756003,1,1
1778777568670,  2262.484,  2262.484, 0.006890, 0.098194,-0.991904, 0.000075, 0.000987,-0.009897,-0.031394,-0.027586, 0.028740,1, 0.004105,-0.002406, 0.000562,1,-0.098888,-0.990414, 9.756007,1,1
1778777568696,  2262.509,  2262.509, 0.008058, 0.097822,-0.998441, 0.000076, 0.000963,-0.010005,-0.019874,-0.031240,-0.035366,1,-0.004526, 0.001249,-0.001023,1,-0.098933,-0.990689, 9.755980,1,1
1778777568717,  2262.534,  2262.529, 0.007534, 0.099934,-0.996071, 0.000076, 0.001008,-0.009948,-0.024023, 0.053520, 0.070084,1, 0.003643,-0.001111, 0.000339,1,-0.099035,-0.990936, 9.755953,1,1
1778777568740,  2262.559,  2262.554, 0.014991, 0.097881,-0.989204, 0.000149, 0.000970,-0.009915, 0.047989,-0.030514, 0.055233,1,-0.002639, 0.003180,-0.000244,1,-0.099122,-0.990484, 9.755999,1,1
1778777568766,  2262.579,  2262.579, 0.007991, 0.104714,-0.981879, 0.000085, 0.001061,-0.009802,-0.021013, 0.036401, 0.127049,1, 0.004206,-0.000476,-0.000546,1,-0.099360,-0.990364, 9.756008,1,1
1778777568788,  2262.604,  2262.599, 0.015062, 0.098517,-0.993850, 0.000138, 0.000973,-0.009962,-0.030731,-0.054154,-0.091977,1,-0.001273,-0.000609, 0.000143,1,-0.098935,-0.990073, 9.756042,1,1
1778777568810,  2262.629,  2262.624, 0.014186, 0.103770,-0.980238, 0.000150, 0.001049,-0.009792, 0.039776, 0.026982, 0.143126,1, 0.004405,-0.001764, 0.000024,1,-0.099290,-0.990515, 9.755993,1,1
1778777568836,  2262.649,  2262.649, 0.007669, 0.093945,-0.996715, 0.000070, 0.000949,-0.009967,-0.023771,-0.068727,-0.018390,1, 0.000414,-0.000115, 0.000116,1,-0.098980,-0.990003, 9.756048,1,1
1778777568858,  2262.674,  2262.669, 0.008304, 0.106078,-0.986172, 0.000088, 0.001064,-0.009848, 0.000853, 0.049057, 0.101711,1,-0.004249, 0.003240,-0.000597,1,-0.099582,-0.991040, 9.755937,1,1
1778777568881,  2262.699,  2262.694, 0.010124, 0.094185,-1.004739, 0.000090, 0.000943,-0.010059, 0.000125,-0.066143,-0.097057,1, 0.002084,-0.000051,-0.000791,1,-0.099157,-0.989718, 9.756076,1,1
1778777568906,  2262.719,  2262.719, 0.015551, 0.104451,-0.980372, 0.000157, 0.001038,-0.009813, 0.053195, 0.033957, 0.141839,1,-0.002936, 0.001500,-0.000723,1,-0.099352,-0.990451, 9.756000,1,1
1778777568928,  2262.744,  2262.739, 0.004315, 0.094965,-1.003661, 0.000039, 0.000956,-0.010025,-0.047942,-0.012684, 0.024885,1, 0.002736,-0.001739, 0.000285,1,-0.099219,-0.989974, 9.756049,1,1
1778777568951,  2262.769,  2262.764, 0.013109, 0.103678,-0.990207, 0.000126, 0.001033,-0.009905, 0.029267, 0.026021, 0.045359,1,-0.002651, 0.000896, 0.000022,1,-0.099313,-0.990792, 9.755965,1,1
1778777568976,  2262.789,  2262.789, 0.011309, 0.100251,-0.992212, 0.000114, 0.001013,-0.009909, 0.011902,-0.007267, 0.025731,1, 0.003345,-0.001924, 0.000485,1,-0.098943,-0.990292, 9.756020,1,1
1778777568998,  2262.814,  2262.809, 0.012344, 0.103736,-0.982029, 0.000127, 0.001026,-0.009822, 0.027438,-0.045596, 0.062134,1,-0.004735, 0.002588,-0.000671,1,-0.099194,-0.990645, 9.755981,1,1
1778777569021,  2262.839,  2262.834, 0.002951, 0.102518,-0.998367, 0.000032, 0.001030,-0.009963,-0.070304, 0.014696,-0.034657,1, 0.004481,-0.002585, 0.000055,1,-0.099163,-0.990520, 9.755994,1,1
1778777569046,  2262.859,  2262.859, 0.014182, 0.098879,-0.996426, 0.000134, 0.000974,-0.009999, 0.040043,-0.020777,-0.015603,1,-0.004656, 0.002246,-0.000345,1,-0.099067,-0.990577, 9.755989,1,1
1778777569068,  2262.884,  2262.879, 0.005401, 0.098375,-0.988037, 0.000059, 0.000992,-0.009859, 0.011805, 0.045756, 0.184032,1, 0.003001,-0.001898, 0.000224,1,-0.099053,-0.990786, 9.755968,1,1
1778777569095,  2262.909,  2262.909, 0.009990, 0.096100,-0.998231, 0.000091, 0.000947,-0.009994,-0.001065,-0.047905,-0.033287,1,-0.003900, 0.002444,-0.000234,1,-0.099110,-0.990443, 9.756002,1,1
1778777569116,  2262.929,  2262.929, 0.011658, 0.107935,-0.984804, 0.000125, 0.001087,-0.009839, 0.014939, 0.067470, 0.098309,1, 0.000663,-0.000911,-0.000174,1,-0.099359,-0.990988, 9.755944,1,1
1778777569138,  2262.954,  2262.949, 0.012866, 0.094927,-0.992440, 0.000123, 0.000944,-0.009946,-0.011588,-0.056108,-0.063211,1, 0.002053,-0.001490, 0.000768,1,-0.098723,-0.990231, 9.756028,1,1
1778777569165,  2262.979,  2262.979, 0.009923, 0.106055,-0.982469, 0.000113, 0.001065,-0.009811,-0.001982, 0.049217, 0.121235,1, 0.002171,-0.000036,-0.000080,1,-0.099297,-0.990761, 9.755968,1,1
1778777569187,  2263.004,  2262.999, 0.009384, 0.096714,-1.000097, 0.000086, 0.000958,-0.010030,-0.056859,-0.044830,-0.114589,1,-0.000707,-0.000028, 0.000057,1,-0.099052,-0.990307, 9.756017,1,1
1778777569208,  2263.024,  2263.019, 0.015924, 0.106380,-0.979280, 0.000170, 0.001065,-0.009796,-0.056859,-0.044830,-0.114589,1,-0.000707,-0.000028, 0.000057,1,-0.099052,-0.990307, 9.756017,1,1
1778777569235,  2263.049,  2263.049, 0.004588, 0.095646,-0.995298, 0.000048, 0.000960,-0.009950,-0.054073,-0.052093,-0.004496,1, 0.000995,-0.000494, 0.000129,1,-0.099056,-0.990031, 9.756044,1,1
1778777569257,  2263.074,  2263.069, 0.011909, 0.108084,-0.985725, 0.000124, 0.001083,-0.009854, 0.019864, 0.018782, 0.055137,1,-0.006481, 0.002917,-0.000734,1,-0.099690,-0.991091, 9.755931,1,1
1778777569278,  2263.094,  2263.089, 0.010594, 0.095359,-1.000145, 0.000098, 0.000966,-0.009995, 0.000934, 0.025411, 0.024649,1, 0.003688,-0.002715, 0.000456,1,-0.099612,-0.990864, 9.755955,1,1
1778777569305,  2263.119,  2263.119, 0.012782, 0.101684,-0.982522, 0.000130, 0.001005,-0.009840, 0.025939, 0.006670, 0.120738,1,-0.004402, 0.000964, 0.000043,1,-0.099440,-0.990642, 9.755979,1,1
1778777569327,  2263.144,  2263.139, 0.004886, 0.095471,-1.004262, 0.000044, 0.000965,-0.010025,-0.061455, 0.006821, 0.051890,1, 0.002829, 0.000272, 0.000401,1,-0.099576,-0.990617, 9.755980,1,1
1778777569348,  2263.164,  2263.159, 0.015758, 0.103155,-0.990950, 0.000152, 0.001017,-0.009932, 0.009643,-0.054777,-0.096799,1,-0.001042, 0.001609,-0.000670,1,-0.099646,-0.990539, 9.755987,1,1
1778777569375,  2263.189,  2263.189, 0.009754, 0.102263,-0.983894, 0.000110, 0.001032,-0.009830,-0.004092, 0.012339, 0.107287,1, 0.004118,-0.001579, 0.000045,1,-0.099698,-0.990392, 9.756001,1,1
1778777569397,  2263.214,  2263.209, 0.013072, 0.102138,-0.986934, 0.000129, 0.001000,-0.009885,-0.009244,-0.062516, 0.013660,1,-0.003651, 0.002701, 0.000068,1,-0.099841,-0.990685, 9.755970,1,1
1778777569418,  2263.234,  2263.229, 0.008186, 0.105768,-0.993814, 0.000090, 0.001065,-0.009922, 0.033599, 0.074704, 0.093482,1,-0.000112, 0.001544,-0.000187,1,-0.100384,-0.991436, 9.755889,1,1
1778777569445,  2263.259,  2263.259, 0.009401, 0.094629,-1.001441, 0.000082, 0.000947,-0.010029,-0.007501,-0.062483,-0.064784,1,-0.000067,-0.000980, 0.000249,1,-0.099661,-0.990482, 9.755993,1,1
1778777569467,  2263.284,  2263.279, 0.008667, 0.103005,-0.981129, 0.000093, 0.001045,-0.009782, 0.045336, 0.051865, 0.193158,1,-0.000284, 0.001882,-0.000348,1,-0.100125,-0.991125, 9.755923,1,1
1778777569488,  2263.304,  2263.299, 0.006633, 0.093559,-1.009791, 0.000057, 0.000936,-0.010099,-0.059301,-0.040726,-0.056147,1, 0.005510,-0.001189,-0.000244,1,-0.100012,-0.990148, 9.756023,1,1
1778777569515,  2263.329,  2263.329, 0.014827, 0.108590,-0.983549, 0.000151, 0.001079,-0.009847, 0.045031, 0.074098, 0.110626,1,-0.003641, 0.001194,-0.000886,1,-0.100411,-0.990922, 9.755940,1,1
1778777569537,  2263.354,  2263.349, 0.008366, 0.091935,-0.998265, 0.000081, 0.000919,-0.009986,-0.027019,-0.033826, 0.041475,1, 0.004707,-0.002792, 0.000627,1,-0.099969,-0.990226, 9.756016,1,1
1778777569559,  2263.374,  2263.369, 0.012656, 0.106158,-0.983957, 0.000131, 0.001049,-0.009847, 0.012960,-0.037727, 0.035998,1,-0.004495, 0.003905,-0.000004,1,-0.100305,-0.990432, 9.755991,1,1
1778777569586,  2263.399,  2263.399, 0.006803, 0.099931,-0.998890, 0.000071, 0.001004,-0.009979,-0.033760,-0.010635,-0.039791,1, 0.002000,-0.002763, 0.001405,1,-0.100391,-0.990559, 9.755978,1,1
1778777569607,  2263.424,  2263.419, 0.016931, 0.104465,-0.978040, 0.000173, 0.001037,-0.009785, 0.049408,-0.036771, 0.061895,1,-0.003074, 0.001469, 0.000491,1,-0.100327,-0.990733, 9.755960,1,1
1778777569630,  2263.444,  2263.444, 0.006014, 0.097574,-0.995605, 0.000060, 0.000989,-0.009927,-0.041512,-0.033486,-0.007551,1, 0.004510,-0.001687, 0.000309,1,-0.100435,-0.990216, 9.756012,1,1
1778777569656,  2263.469,  2263.469, 0.011001, 0.098394,-0.999987, 0.000104, 0.000965,-0.010026, 0.007312,-0.025604,-0.050549,1,-0.007562, 0.002269,-0.000417,1,-0.100640,-0.990759, 9.755955,1,1
1778777569677,  2263.494,  2263.489, 0.006992, 0.099102,-0.990793, 0.000074, 0.001004,-0.009882, 0.012625, 0.071703, 0.155344,1, 0.002951,-0.001000, 0.000182,1,-0.100893,-0.991408, 9.755886,1,1
1778777569700,  2263.514,  2263.514, 0.010113, 0.095828,-0.996065, 0.000098, 0.000939,-0.009985,-0.001179,-0.050174,-0.012017,1,-0.002071, 0.002050,-0.000782,1,-0.100415,-0.989987, 9.756036,1,1
1778777569726,  2263.539,  2263.539, 0.010773, 0.107627,-0.983127, 0.000114, 0.001081,-0.009826, 0.004815, 0.064532, 0.114756,1,-0.001680, 0.000990,-0.000300,1,-0.100859,-0.990978, 9.755930,1,1
1778777569747,  2263.564,  2263.559, 0.011434, 0.096744,-0.995217, 0.000110, 0.000957,-0.009977,-0.024452,-0.058754,-0.069023,1, 0.001779,-0.001589, 0.000803,1,-0.100519,-0.990479, 9.755984,1,1
1778777569770,  2263.584,  2263.584, 0.011572, 0.105784,-0.983932, 0.000121, 0.001063,-0.009827, 0.012636, 0.046937, 0.106902,1, 0.002045, 0.000947,-0.000526,1,-0.100876,-0.990385, 9.755990,1,1
1778777569796,  2263.609,  2263.609, 0.008531, 0.094829,-1.000805, 0.000081, 0.000954,-0.010004,-0.017049,-0.060109,-0.058520,1,-0.001074,-0.000817, 0.000391,1,-0.100683,-0.990097, 9.756021,1,1
1778777569817,  2263.634,  2263.629, 0.011503, 0.106007,-0.980889, 0.000122, 0.001067,-0.009802, 0.041214, 0.032537, 0.099963,1,-0.003595, 0.003503,-0.000168,1,-0.101209,-0.991079, 9.755917,1,1
1778777569840,  2263.654,  2263.654, 0.009814, 0.094722,-1.001453, 0.000094, 0.000952,-0.010004,-0.004856,-0.061204,-0.064885,1, 0.003203,-0.000144, 0.000891,1,-0.101097,-0.990002, 9.756027,1,1
1778777569866,  2263.679,  2263.679, 0.011563, 0.105410,-0.984593, 0.000116, 0.001041,-0.009861, 0.012057, 0.042983, 0.100392,1,-0.007117, 0.002639,-0.000277,1,-0.101419,-0.990958, 9.755926,1,1
1778777569887,  2263.704,  2263.699, 0.008965, 0.095537,-1.001974, 0.000082, 0.000959,-0.010014,-0.041065, 0.000872, 0.038385,1, 0.003377,-0.001580, 0.000861,1,-0.101329,-0.990934, 9.755930,1,1
1778777569910,  2263.724,  2263.724, 0.014904, 0.104933,-0.984731, 0.000152, 0.001036,-0.009865, 0.044866, 0.038434, 0.099046,1,-0.003270, 0.001583,-0.000719,1,-0.101334,-0.990712, 9.755952,1,1
1778777569936,  2263.749,  2263.749, 0.007432, 0.099047,-0.987040, 0.000083, 0.000999,-0.009854,-0.028383,-0.019202, 0.076420,1, 0.002164,-0.001675, 0.000422,1,-0.101215,-0.990457, 9.755980,1,1
1778777569958,  2263.774,  2263.769, 0.012351, 0.105521,-0.985495, 0.000119, 0.001048,-0.009862,-0.007442,-0.041700,-0.003221,1,-0.004026, 0.001281, 0.000095,1,-0.101216,-0.990666, 9.755959,1,1
1778777569980,  2263.799,  2263.794, 0.010640, 0.098891,-0.997165, 0.000103, 0.001006,-0.009946, 0.003131,-0.020721,-0.022872,1, 0.006611,-0.002719, 0.000446,1,-0.101129,-0.990303, 9.755996,1,1
1778777570006,  2263.819,  2263.819, 0.014342, 0.096683,-0.993944, 0.000137, 0.000958,-0.009961, 0.039699,-0.042081, 0.008748,1,-0.004234, 0.001544, 0.000053,1,-0.100999,-0.990346, 9.755993,1,1
1778777570028,  2263.844,  2263.839, 0.004898, 0.098597,-0.992814, 0.000053, 0.001000,-0.009901,-0.005888, 0.044310, 0.152189,1, 0.001020, 0.000866,-0.000439,1,-0.101393,-0.991092, 9.755913,1,1
1778777570050,  2263.869,  2263.864, 0.008450, 0.098100,-1.001915, 0.000078, 0.000966,-0.010047,-0.018213,-0.028247,-0.069427,1,-0.002573, 0.000875,-0.000117,1,-0.101110,-0.990360, 9.755990,1,1
1778777570076,  2263.889,  2263.889, 0.013733, 0.106604,-0.982688, 0.000145, 0.001071,-0.009825, 0.033226, 0.054395, 0.119044,1, 0.000321, 0.000380, 0.000099,1,-0.101458,-0.991026, 9.755919,1,1
1778777570098,  2263.914,  2263.909, 0.010608, 0.097551,-0.990335, 0.000106, 0.000962,-0.009921,-0.011960,-0.062415, 0.001831,1, 0.001419,-0.000360, 0.000481,1,-0.101205,-0.990501, 9.755975,1,1
1778777570121,  2263.939,  2263.934, 0.008329, 0.105958,-0.986151, 0.000090, 0.001067,-0.009854,-0.020161, 0.047883, 0.085057,1, 0.000935, 0.000210,-0.000595,1,-0.101844,-0.991186, 9.755898,1,1
1778777570146,  2263.959,  2263.959, 0.008900, 0.095955,-1.002587, 0.000081, 0.000962,-0.010024,-0.014119,-0.049601,-0.076062,1, 0.002245,-0.003105, 0.000037,1,-0.101301,-0.990526, 9.755972,1,1
1778777570168,  2263.984,  2263.979, 0.013122, 0.104257,-0.978417, 0.000134, 0.001051,-0.009773, 0.014801,-0.025972,-0.000677,1,-0.002903,-0.000509,-0.000209,1,-0.101194,-0.990701, 9.755955,1,1
1778777570191,  2264.009,  2264.004, 0.009281, 0.095120,-1.000096, 0.000092, 0.000953,-0.009996,-0.010413,-0.057729,-0.051627,1, 0.001359, 0.000164, 0.000109,1,-0.101433,-0.990495, 9.755974,1,1
1778777570216,  2264.029,  2264.029, 0.010790, 0.106015,-0.987016, 0.000110, 0.001058,-0.009877, 0.004097, 0.048515, 0.076581,1,-0.004372, 0.001094, 0.000021,1,-0.101754,-0.991275, 9.755891,1,1
1778777570238,  2264.054,  2264.049, 0.010864, 0.094470,-0.999386, 0.000104, 0.000944,-0.009996,-0.031922,-0.020991, 0.004323,1, 0.005276,-0.002908, 0.000799,1,-0.101382,-0.990645, 9.755959,1,1
1778777570261,  2264.079,  2264.074, 0.013936, 0.106269,-0.982377, 0.000144, 0.001049,-0.009831, 0.035306, 0.051550, 0.122139,1,-0.003745, 0.002790,-0.000358,1,-0.101447,-0.990712, 9.755951,1,1
1778777570286,  2264.099,  2264.099, 0.005725, 0.096972,-0.996249, 0.000063, 0.000977,-0.009944,-0.045364,-0.039478,-0.013894,1, 0.003602,-0.001385, 0.000604,1,-0.101464,-0.990335, 9.755989,1,1
1778777570308,  2264.124,  2264.119, 0.012508, 0.108050,-0.982385, 0.000128, 0.001076,-0.009827, 0.018985,-0.011917, 0.010716,1,-0.005129, 0.000982,-0.000467,1,-0.101429,-0.990609, 9.755961,1,1
1778777570335,  2264.149,  2264.149, 0.008671, 0.095284,-0.996446, 0.000089, 0.000965,-0.009941,-0.016072,-0.055865,-0.015798,1, 0.006313,-0.003297, 0.000398,1,-0.101000,-0.990082, 9.756020,1,1
1778777570357,  2264.169,  2264.169, 0.012160, 0.098803,-0.994021, 0.000116, 0.000975,-0.009961, 0.018291,-0.021295, 0.007988,1,-0.005816, 0.002427,-0.001244,1,-0.101027,-0.990407, 9.755986,1,1
1778777570378,  2264.194,  2264.189, 0.007234, 0.099116,-0.993960, 0.000076, 0.001000,-0.009920,-0.002029, 0.041069, 0.103264,1, 0.001994, 0.000166, 0.000115,1,-0.101310,-0.990952, 9.755928,1,1
1778777570405,  2264.219,  2264.219, 0.008608, 0.099435,-0.992439, 0.000079, 0.000978,-0.009942,-0.016474,-0.015384, 0.023478,1,-0.003588, 0.000730,-0.000182,1,-0.100909,-0.990620, 9.755966,1,1
1778777570427,  2264.244,  2264.239, 0.009940, 0.099586,-0.992047, 0.000105, 0.000996,-0.009910, 0.026707, 0.033574, 0.105667,1, 0.002406,-0.000295,-0.000485,1,-0.101087,-0.990681, 9.755958,1,1
1778777570448,  2264.264,  2264.259, 0.011675, 0.100395,-0.990045, 0.000120, 0.000987,-0.009923, 0.002761,-0.047978,-0.012221,1, 0.001057,-0.000755, 0.000171,1,-0.100855,-0.990187, 9.756011,1,1
1778777570475,  2264.289,  2264.289, 0.006137, 0.105598,-0.982960, 0.000064, 0.001063,-0.009817,-0.040945, 0.044788, 0.116400,1, 0.003010,-0.001217, 0.000653,1,-0.101095,-0.990681, 9.755958,1,1
1778777570497,  2264.314,  2264.309, 0.014000, 0.099687,-0.995918, 0.000135, 0.000982,-0.009981,-0.009201,-0.062610,-0.112584,1, 0.002948,-0.000591,-0.000442,1,-0.100816,-0.989711, 9.756060,1,1
1778777570518,  2264.334,  2264.329, 0.012219, 0.104766,-0.980632, 0.000126, 0.001061,-0.009797, 0.048638, 0.059782, 0.114835,1,-0.005422, 0.002186,-0.000211,1,-0.101076,-0.990649, 9.755961,1,1
1778777570545,  2264.359,  2264.359, 0.007753, 0.094552,-0.999788, 0.000067, 0.000949,-0.009995,-0.024830,-0.062833,-0.048548,1, 0.001672, 0.000596, 0.000156,1,-0.100882,-0.990018, 9.756027,1,1
1778777570567,  2264.384,  2264.379, 0.008567, 0.105737,-0.988755, 0.000089, 0.001069,-0.009879, 0.005587, 0.057964, 0.094778,1,-0.002008, 0.001224,-0.000975,1,-0.101250,-0.990632, 9.755961,1,1
1778777570588,  2264.404,  2264.399, 0.010358, 0.094481,-1.001938, 0.000098, 0.000943,-0.010032,-0.023627,-0.029273,-0.040916,1, 0.003842,-0.002841, 0.000560,1,-0.100848,-0.989908, 9.756039,1,1
1778777570615,  2264.429,  2264.429, 0.017575, 0.106369,-0.977111, 0.000181, 0.001050,-0.009780, 0.071270, 0.052426, 0.173769,1,-0.004277, 0.002771,-0.000235,1,-0.101168,-0.990828, 9.755942,1,1
1778777570637,  2264.454,  2264.449, 0.002895, 0.094866,-1.005638, 0.000025, 0.000943,-0.010055,-0.056795,-0.031830,-0.001090,1, 0.005454,-0.004032, 0.000711,1,-0.100836,-0.989943, 9.756036,1,1
1778777570659,  2264.474,  2264.469, 0.014538, 0.107840,-0.985178, 0.000138, 0.001072,-0.009862,-0.022043,-0.016954,-0.026486,1,-0.006594, 0.001688,-0.000112,1,-0.100797,-0.990378, 9.755992,1,1
1778777570686,  2264.499,  2264.499, 0.011791, 0.097443,-0.991317, 0.000118, 0.000988,-0.009889, 0.014762,-0.034819, 0.034493,1, 0.007507,-0.002869, 0.000142,1,-0.100778,-0.990170, 9.756013,1,1
1778777570707,  2264.524,  2264.519, 0.011080, 0.105721,-0.982053, 0.000110, 0.001055,-0.009822, 0.001607,-0.029759, 0.033263,1,-0.004835, 0.002080,-0.000459,1,-0.100745,-0.990087, 9.756021,1,1
1778777570729,  2264.544,  2264.539, 0.005107, 0.099562,-0.997421, 0.000050, 0.001005,-0.009953,-0.030934, 0.038235, 0.104309,1, 0.000687,-0.000126, 0.000316,1,-0.101126,-0.990772, 9.755948,1,1
1778777570756,  2264.569,  2264.569, 0.012400, 0.099132,-0.994623, 0.000121, 0.000974,-0.009975, 0.021023,-0.017961, 0.002098,1,-0.002564, 0.000948,-0.000053,1,-0.100609,-0.990195, 9.756012,1,1
1778777570777,  2264.594,  2264.589, 0.008847, 0.098129,-0.991222, 0.000095, 0.000983,-0.009894, 0.050974, 0.044959, 0.132801,1,-0.002981, 0.002348,-0.000493,1,-0.100831,-0.990588, 9.755970,1,1
1778777570799,  2264.614,  2264.609, 0.011213, 0.099060,-0.992934, 0.000113, 0.000971,-0.009950,-0.019486,-0.056226,-0.038339,1,-0.000300, 0.001686, 0.000392,1,-0.100753,-0.989923, 9.756039,1,1
1778777570826,  2264.639,  2264.639, 0.008777, 0.105780,-0.987233, 0.000092, 0.001067,-0.009861,-0.015173, 0.046563, 0.074501,1, 0.003266,-0.002277, 0.000495,1,-0.101173,-0.990687, 9.755957,1,1
1778777570847,  2264.664,  2264.659, 0.014467, 0.098611,-0.990926, 0.000142, 0.000971,-0.009935, 0.000483,-0.060155,-0.081979,1, 0.001665,-0.001632, 0.000382,1,-0.100537,-0.989754, 9.756058,1,1
1778777570870,  2264.684,  2264.684, 0.010260, 0.104105,-0.980780, 0.000107, 0.001053,-0.009787,-0.000575, 0.030322, 0.137802,1, 0.001994, 0.001173, 0.000222,1,-0.101226,-0.990534, 9.755972,1,1
1778777570896,  2264.709,  2264.709, 0.007103, 0.094258,-1.005965, 0.000067, 0.000947,-0.010062,-0.031276,-0.065474,-0.109105,1, 0.001659,-0.001017,-0.000475,1,-0.100900,-0.989781, 9.756051,1,1
1778777570917,  2264.734,  2264.729, 0.009685, 0.104525,-0.984281, 0.000101, 0.001059,-0.009830, 0.014153, 0.073362, 0.114549,1,-0.003313,-0.000500,-0.000472,1,-0.101050,-0.990536, 9.755973,1,1
1778777570940,  2264.754,  2264.754, 0.010843, 0.093854,-0.998230, 0.000106, 0.000937,-0.009989, 0.005952,-0.069372,-0.033235,1,-0.000082,-0.000536, 0.000456,1,-0.100363,-0.989769, 9.756058,1,1
1778777570966,  2264.779,  2264.779, 0.013025, 0.106116,-0.982213, 0.000137, 0.001055,-0.009823, 0.026960, 0.050174, 0.123768,1,-0.002658, 0.002045,-0.000831,1,-0.100838,-0.990546, 9.755974,1,1
1778777570987,  2264.804,  2264.799, 0.007465, 0.095826,-0.998634, 0.000069, 0.000957,-0.009998,-0.030427,-0.028154,-0.017732,1, 0.001860,-0.003735, 0.000628,1,-0.100406,-0.990090, 9.756025,1,1
1778777571010,  2264.824,  2264.824, 0.013332, 0.105634,-0.982285, 0.000134, 0.001057,-0.009824, 0.030091, 0.045160, 0.123029,1,-0.000563, 0.001435, 0.000252,1,-0.100697,-0.990770, 9.755953,1,1
1778777571036,  2264.849,  2264.849, 0.008752, 0.097558,-0.997644, 0.000088, 0.000979,-0.009960,-0.014671,-0.033324,-0.027514,1, 0.004260,-0.001424, 0.000131,1,-0.100454,-0.989911, 9.756042,1,1
1778777571057,  2264.874,  2264.869, 0.011500, 0.106871,-0.982743, 0.000118, 0.001073,-0.009826, 0.009559, 0.006459, 0.043933,1,-0.005735, 0.002332,-0.000917,1,-0.100694,-0.990392, 9.755992,1,1
1778777571080,  2264.894,  2264.894, 0.007876, 0.096612,-0.998145, 0.000078, 0.000972,-0.009964,-0.023487,-0.042812,-0.032453,1, 0.004445,-0.002139,-0.000295,1,-0.100662,-0.990116, 9.756020,1,1
1778777571106,  2264.919,  2264.919, 0.011361, 0.102491,-0.990351, 0.000115, 0.001011,-0.009923, 0.010761, 0.014949, 0.043986,1,-0.003782, 0.001770,-0.001008,1,-0.100709,-0.990267, 9.756004,1,1
1778777571128,  2264.944,  2264.939, 0.009202, 0.096659,-0.997157, 0.000094, 0.000967,-0.009969,-0.007585, 0.008168, 0.051790,1, 0.002360,-0.000420, 0.000250,1,-0.100796,-0.990380, 9.755992,1,1
1778777571150,  2264.964,  2264.964, 0.013073, 0.103393,-0.987476, 0.000131, 0.001017,-0.009894, 0.027451, 0.023599, 0.072167,1,-0.003090, 0.001493,-0.000641,1,-0.100791,-0.990431, 9.755986,1,1
1778777571176,  2264.989,  2264.989, 0.008240, 0.101064,-0.989736, 0.000083, 0.001022,-0.009882,-0.020029, 0.000893, 0.050011,1, 0.003112,-0.001695, 0.000140,1,-0.100782,-0.990108, 9.756020,1,1
1778777571198,  2265.014,  2265.009, 0.015615, 0.104303,-0.986174, 0.000153, 0.001031,-0.009874, 0.014663,-0.048842,-0.019068,1,-0.003542, 0.000783,-0.000487,1,-0.100623,-0.990098, 9.756022,1,1
1778777571221,  2265.039,  2265.034, 0.007379, 0.100455,-0.988297, 0.000076, 0.001021,-0.009859,-0.028434,-0.005386, 0.064090,1, 0.005165,-0.002791, 0.000610,1,-0.100711,-0.990352, 9.755996,1,1
1778777571246,  2265.059,  2265.059, 0.009108, 0.095034,-0.999190, 0.000084, 0.000944,-0.010005,-0.011046,-0.058098,-0.042678,1,-0.002833, 0.000194,-0.000183,1,-0.100385,-0.990154, 9.756019,1,1
1778777571268,  2265.084,  2265.079, 0.008445, 0.099998,-0.988664, 0.000089, 0.001013,-0.009866, 0.021696, 0.056399, 0.137383,1, 0.000417, 0.000322, 0.001010,1,-0.100711,-0.990907, 9.755939,1,1
1778777571291,  2265.109,  2265.104, 0.009815, 0.095308,-0.996400, 0.000094, 0.000941,-0.009983,-0.004078,-0.055450,-0.015318,1,-0.002539, 0.001021,-0.000725,1,-0.100362,-0.990180, 9.756017,1,1
1778777571316,  2265.129,  2265.129, 0.011227, 0.107360,-0.981940, 0.000114, 0.001075,-0.009819, 0.009383, 0.062055, 0.126405,1,-0.000067, 0.000874,-0.000398,1,-0.100740,-0.990786, 9.755951,1,1
1778777571338,  2265.154,  2265.149, 0.010656, 0.097401,-0.997759, 0.000103, 0.000963,-0.009999,-0.030904,-0.047675,-0.063127,1, 0.002808,-0.002180, 0.000052,1,-0.100330,-0.989982, 9.756037,1,1
1778777571361,  2265.179,  2265.174, 0.013168, 0.107277,-0.982659, 0.000137, 0.001077,-0.009818, 0.028271, 0.061263, 0.119362,1, 0.000822, 0.001324, 0.000063,1,-0.100901,-0.990742, 9.755954,1,1
1778777571386,  2265.199,  2265.199, 0.005303, 0.095906,-1.001866, 0.000053, 0.000967,-0.010009,-0.048576,-0.049424,-0.068917,1, 0.002327,-0.002195, 0.001042,1,-0.100517,-0.989871, 9.756046,1,1
1778777571408,  2265.224,  2265.219, 0.012649, 0.104980,-0.983629, 0.000133, 0.001056,-0.009833, 0.029371, 0.023558, 0.066031,1,-0.005078, 0.003608,-0.000352,1,-0.101006,-0.990695, 9.755958,1,1
1778777571431,  2265.249,  2265.244, 0.008729, 0.095625,-0.998666, 0.000088, 0.000958,-0.009979,-0.015431,-0.052309,-0.037548,1, 0.001738,-0.001036, 0.000060,1,-0.100999,-0.990020, 9.756026,1,1
1778777571456,  2265.269,  2265.269, 0.012111, 0.104514,-0.981819, 0.000118, 0.001029,-0.009833, 0.017287, 0.034168, 0.127590,1,-0.006564, 0.004793,-0.000319,1,-0.101625,-0.990964, 9.755923,1,1
1778777571478,  2265.294,  2265.289, 0.009066, 0.095763,-1.003256, 0.000085, 0.000960,-0.010025,-0.031807, 0.003127, 0.048519,1, 0.005412,-0.001569, 0.000005,1,-0.101678,-0.990596, 9.755960,1,1
1778777571501,  2265.319,  2265.314, 0.017802, 0.105387,-0.984719, 0.000177, 0.001039,-0.009864, 0.073002, 0.043078, 0.099187,1,-0.004126, 0.001793,-0.000767,1,-0.101628,-0.990543, 9.755966,1,1
1778777571527,  2265.339,  2265.339, 0.008957, 0.098777,-0.986109, 0.000096, 0.001000,-0.009841,-0.013697,-0.021620, 0.085571,1, 0.004301,-0.002765, 0.000969,1,-0.101458,-0.990155, 9.756007,1,1
1778777571548,  2265.364,  2265.359, 0.010648, 0.103993,-0.991009, 0.000100, 0.001029,-0.009920,-0.027377,-0.059729,-0.035236,1,-0.001973, 0.000161,-0.000124,1,-0.101160,-0.989816, 9.756045,1,1
1778777571575,  2265.389,  2265.389, 0.009613, 0.100798,-0.996878, 0.000097, 0.001020,-0.009946,-0.006789,-0.001325,-0.019990,1, 0.004576,-0.003902, 0.001202,1,-0.100947,-0.989669, 9.756063,1,1
1778777571597,  2265.409,  2265.409, 0.015551, 0.097151,-0.992678, 0.000150, 0.000964,-0.009951, 0.051708,-0.037035, 0.021211,1,-0.004868, 0.001200, 0.000159,1,-0.100833,-0.989908, 9.756039,1,1
1778777571618,  2265.434,  2265.429, 0.005461, 0.099920,-0.990292, 0.000066, 0.001010,-0.009872, 0.012657, 0.047318, 0.180312,1, 0.000543, 0.001088, 0.000603,1,-0.101287,-0.990655, 9.755959,1,1
1778777571645,  2265.459,  2265.459, 0.008362, 0.096375,-1.004310, 0.000074, 0.000954,-0.010069,-0.018856,-0.045092,-0.092906,1,-0.004105, 0.001114, 0.000175,1,-0.100927,-0.990332, 9.755995,1,1
1778777571667,  2265.484,  2265.479, 0.010597, 0.099928,-0.983793, 0.000119, 0.001015,-0.009824, 0.057773, 0.066249, 0.136839,1,-0.000810,-0.000627, 0.000484,1,-0.101150,-0.991321, 9.755893,1,1
1778777571688,  2265.504,  2265.499, 0.008737, 0.094424,-0.997564, 0.000086, 0.000936,-0.009987,-0.026219,-0.060260, 0.002590,1, 0.004673,-0.002681,-0.000061,1,-0.100505,-0.990206, 9.756012,1,1
1778777571715,  2265.529,  2265.529, 0.009044, 0.106470,-0.987821, 0.000092, 0.001068,-0.009869,-0.012051, 0.053464, 0.068747,1, 0.000899, 0.000286, 0.000131,1,-0.100748,-0.990623, 9.755967,1,1
1778777571737,  2265.554,  2265.549, 0.013415, 0.097046,-0.994436, 0.000123, 0.000965,-0.009971,-0.027072,-0.044003,-0.069731,1, 0.001401,-0.003121, 0.000243,1,-0.100155,-0.989971, 9.756040,1,1
1778777571758,  2265.574,  2265.569, 0.011490, 0.106145,-0.977521, 0.000123, 0.001066,-0.009767, 0.048046, 0.024872, 0.141229,1,-0.003793, 0.001161,-0.000782,1,-0.100191,-0.990538, 9.755981,1,1
1778777571785,  2265.599,  2265.599, 0.004546, 0.097009,-1.003594, 0.000047, 0.000975,-0.010021,-0.055414,-0.038652,-0.085858,1, 0.000892,-0.001701, 0.000411,1,-0.099946,-0.989961, 9.756042,1,1
1778777571807,  2265.624,  2265.619, 0.012839, 0.107740,-0.981024, 0.000140, 0.001081,-0.009817, 0.037733, 0.037193, 0.044613,1,-0.005826, 0.002796,-0.000784,1,-0.100421,-0.991050, 9.755927,1,1
1778777571829,  2265.644,  2265.639, 0.008241, 0.096228,-0.994021, 0.000082, 0.000966,-0.009940,-0.011784, 0.014374, 0.094410,1, 0.004968,-0.002743, 0.000600,1,-0.100030,-0.990710, 9.755966,1,1
1778777571855,  2265.669,  2265.669, 0.010849, 0.105419,-0.984992, 0.000108, 0.001032,-0.009865, 0.006284, 0.042964, 0.096480,1,-0.006996, 0.003931,-0.000838,1,-0.100223,-0.991058, 9.755929,1,1
1778777571877,  2265.694,  2265.689, 0.009131, 0.096399,-1.005329, 0.000084, 0.000972,-0.010045,-0.035529,-0.001700, 0.004269,1, 0.005013,-0.001941, 0.000133,1,-0.100312,-0.990708, 9.755963,1,1
1778777571899,  2265.714,  2265.709, 0.015924, 0.103781,-0.982065, 0.000158, 0.001028,-0.009835, 0.038297,-0.047075,-0.025183,1,-0.000468, 0.000609,-0.000850,1,-0.100064,-0.990296, 9.756007,1,1
1778777571926,  2265.739,  2265.739, 0.009030, 0.097103,-0.988116, 0.000093, 0.000986,-0.009852,-0.011586,-0.037839, 0.065915,1, 0.005770,-0.002173,-0.000197,1,-0.100073,-0.989916, 9.756046,1,1
1778777571947,  2265.764,  2265.759, 0.011117, 0.103307,-0.990924, 0.000104, 0.001023,-0.009925,-0.020266,-0.058960,-0.064691,1,-0.003318, 0.002039,-0.001026,1,-0.100022,-0.989808, 9.756058,1,1
1778777571969,  2265.784,  2265.779, 0.009922, 0.099225,-0.993295, 0.000102, 0.001006,-0.009921, 0.012544, 0.047531, 0.065648,1, 0.003210,-0.000806,-0.000564,1,-0.100245,-0.990151, 9.756021,1,1
1778777571996,  2265.809,  2265.809, 0.011634, 0.095393,-0.990746, 0.000110, 0.000944,-0.009926, 0.014303,-0.054018, 0.040186,1,-0.003277, 0.002224,-0.000252,1,-0.099856,-0.989608, 9.756080,1,1
1778777572017,  2265.834,  2265.829, 0.007018, 0.100467,-0.991867, 0.000075, 0.001011,-0.009903,-0.001867, 0.031048, 0.133913,1, 0.000003, 0.001580,-0.000196,1,-0.100414,-0.990059, 9.756028,1,1
1778777572039,  2265.854,  2265.849, 0.009903, 0.097772,-0.998907, 0.000093, 0.000965,-0.010011,-0.040070,-0.046343,-0.075813,1, 0.000793,-0.000947,-0.000304,1,-0.100295,-0.989617, 9.756074,1,1
1778777572066,  2265.879,  2265.879, 0.010963, 0.105697,-0.978371, 0.000120, 0.001066,-0.009783, 0.006826, 0.046256, 0.161464,1, 0.001175,-0.001150, 0.000538,1,-0.100647,-0.990241, 9.756007,1,1
1778777572087,  2265.904,  2265.899, 0.013197, 0.096463,-0.997253, 0.000127, 0.000957,-0.009986,-0.004295,-0.066318,-0.037674,1, 0.002438,-0.000787,-0.000578,1,-0.100391,-0.989372, 9.756098,1,1
1778777572110,  2265.924,  2265.924, 0.011152, 0.107077,-0.983988, 0.000120, 0.001080,-0.009836, 0.008355, 0.059584, 0.106349,1, 0.000147, 0.000473, 0.000058,1,-0.101022,-0.990482, 9.755979,1,1
1778777572136,  2265.949,  2265.949, 0.007002, 0.096292,-0.999755, 0.000066, 0.000969,-0.009995,-0.031893,-0.045608,-0.048204,1, 0.002850,-0.002166,-0.000015,1,-0.100487,-0.989822, 9.756051,1,1
1778777572157,  2265.974,  2265.969, 0.011534, 0.105938,-0.984906, 0.000125, 0.001064,-0.009841, 0.023572, 0.043762, 0.099248,1,-0.003272, 0.001844,-0.000510,1,-0.100862,-0.990335, 9.755996,1,1
1778777572180,  2265.994,  2265.994, 0.008099, 0.095522,-1.001447, 0.000078, 0.000956,-0.010015,-0.021139,-0.052798,-0.064759,1, 0.000511,-0.000088, 0.000419,1,-0.100565,-0.989529, 9.756081,1,1
1778777572206,  2266.019,  2266.019, 0.014537, 0.104042,-0.982789, 0.000147, 0.001032,-0.009844, 0.041649, 0.029973, 0.118122,1,-0.005220, 0.001985,-0.000210,1,-0.100967,-0.990493, 9.755979,1,1
1778777572228,  2266.044,  2266.039, 0.006295, 0.094429,-1.000388, 0.000058, 0.000948,-0.009993,-0.032994,-0.026173, 0.046805,1, 0.005123,-0.001835, 0.000411,1,-0.100801,-0.989807, 9.756050,1,1
1778777572250,  2266.064,  2266.064, 0.012972, 0.105141,-0.986212, 0.000125, 0.001046,-0.009872, 0.025971, 0.040603, 0.084538,1,-0.006066, 0.003467,-0.000024,1,-0.101352,-0.990663, 9.755957,1,1
1778777572276,  2266.089,  2266.089, 0.008286, 0.099564,-0.992294, 0.000084, 0.001007,-0.009899,-0.019973,-0.013898, 0.024918,1, 0.006327,-0.002254, 0.001677,1,-0.101169,-0.990086, 9.756018,1,1
1778777572298,  2266.114,  2266.109, 0.012148, 0.104989,-0.985087, 0.000123, 0.001043,-0.009859, 0.011603,-0.041505,-0.015758,1,-0.002645, 0.000958,-0.000411,1,-0.101027,-0.989855, 9.756042,1,1
1778777572320,  2266.134,  2266.134, 0.004713, 0.099073,-0.993846, 0.000054, 0.001002,-0.009926,-0.054972,-0.018246, 0.009740,1, 0.003476,-0.002339, 0.000537,1,-0.101115,-0.989715, 9.756056,1,1
1778777572346,  2266.159,  2266.159, 0.010225, 0.098832,-0.996380, 0.000097, 0.000975,-0.009983,-0.000928,-0.020669,-0.015110,1,-0.003434, 0.003155,-0.000642,1,-0.101298,-0.989987, 9.756026,1,1
1778777572368,  2266.184,  2266.179, 0.010767, 0.100218,-0.992035, 0.000114, 0.001013,-0.009906, 0.023874, 0.062412, 0.109640,1, 0.002900, 0.000173,-0.000824,1,-0.101589,-0.990168, 9.756005,1,1
1778777572391,  2266.204,  2266.204, 0.012431, 0.097511,-0.991943, 0.000121, 0.000966,-0.009945, 0.020413,-0.033417, 0.028418,1,-0.005658, 0.002938,-0.000238,1,-0.101588,-0.989845, 9.756038,1,1
1778777572416,  2266.229,  2266.229, 0.010299, 0.105046,-0.981394, 0.000114, 0.001059,-0.009804,-0.000848, 0.039815, 0.131799,1, 0.002535,-0.001304,-0.000012,1,-0.101802,-0.990252, 9.755994,1,1
1778777572438,  2266.254,  2266.249, 0.010374, 0.095934,-0.997453, 0.000097, 0.000950,-0.009992,-0.035034,-0.059980,-0.078946,1, 0.002879,-0.002031, 0.000051,1,-0.101222,-0.989331, 9.756094,1,1
1778777572461,  2266.279,  2266.274, 0.012964, 0.104668,-0.980384, 0.000141, 0.001060,-0.009798, 0.025763, 0.036448, 0.141746,1, 0.002050,-0.000422, 0.001360,1,-0.101361,-0.989931, 9.756031,1,1
1778777572486,  2266.299,  2266.299, 0.008619, 0.094828,-0.999584, 0.000082, 0.000957,-0.009991,-0.016613,-0.059336,-0.046468,1, 0.002344,-0.000020, 0.000590,1,-0.101136,-0.989209, 9.756107,1,1
1778777572508,  2266.324,  2266.319, 0.006952, 0.106966,-0.983911, 0.000075, 0.001074,-0.009833, 0.000564, 0.053554, 0.084552,1,-0.004162, 0.002612,-0.000404,1,-0.101598,-0.990025, 9.756020,1,1
1778777572531,  2266.349,  2266.344, 0.008408, 0.094932,-1.001572, 0.000079, 0.000953,-0.010021,-0.018711,-0.058306,-0.065965,1, 0.001525,-0.000950, 0.000384,1,-0.101134,-0.989224, 9.756105,1,1
1778777572556,  2266.369,  2266.369, 0.015862, 0.104732,-0.981075, 0.000158, 0.001037,-0.009825, 0.054027, 0.037316, 0.134984,1,-0.002692, 0.003166,-0.000856,1,-0.101624,-0.989838, 9.756038,1,1
1778777572578,  2266.394,  2266.389, 0.007533, 0.095020,-0.999687, 0.000070, 0.000955,-0.009997,-0.021795,-0.016415, 0.034005,1, 0.003332,-0.001837,-0.000011,1,-0.101535,-0.989266, 9.756097,1,1
1778777572601,  2266.419,  2266.414, 0.015436, 0.103657,-0.985535, 0.000148, 0.001034,-0.009863, 0.049634, 0.026536, 0.091228,1,-0.002619, 0.001763,-0.001316,1,-0.101793,-0.990070, 9.756013,1,1
1778777572627,  2266.439,  2266.439, 0.009125, 0.098256,-0.993605, 0.000093, 0.000993,-0.009915,-0.011847,-0.025743, 0.012157,1, 0.005748,-0.003422, 0.000572,1,-0.101229,-0.989122, 9.756115,1,1
1778777572648,  2266.464,  2266.459, 0.015295, 0.104317,-0.983082, 0.000151, 0.001038,-0.009839, 0.027774,-0.045297,-0.005715,1,-0.006200, 0.001010,-0.000282,1,-0.101091,-0.989437, 9.756084,1,1
1778777572671,  2266.489,  2266.484, 0.005375, 0.099746,-0.994977, 0.000059, 0.001010,-0.009927,-0.048481,-0.011492,-0.001336,1, 0.005439,-0.003398, 0.000321,1,-0.101090,-0.989494, 9.756079,1,1
1778777572697,  2266.509,  2266.509, 0.008502, 0.097842,-0.998812, 0.000079, 0.000963,-0.010015,-0.017486,-0.029951,-0.038921,1,-0.004168, 0.001520,-0.000864,1,-0.100904,-0.989579, 9.756072,1,1
1778777572718,  2266.534,  2266.529, 0.009166, 0.099866,-0.988093, 0.000099, 0.001008,-0.009867, 0.023569, 0.055038, 0.134759,1, 0.001281,-0.000480,-0.000015,1,-0.101135,-0.990069, 9.756020,1,1
1778777572741,  2266.559,  2266.554, 0.010602, 0.097650,-0.992614, 0.000107, 0.000964,-0.009944, 0.002982,-0.032179, 0.021834,1,-0.003751, 0.001842,-0.000848,1,-0.101047,-0.989917, 9.756036,1,1
1778777572767,  2266.579,  2266.579, 0.009242, 0.106619,-0.983026, 0.000096, 0.001075,-0.009819,-0.010667, 0.055288, 0.115801,1, 0.002022,-0.000994,-0.000196,1,-0.101270,-0.990225, 9.756002,1,1
1778777572788,  2266.604,  2266.599, 0.012358, 0.096392,-0.994449, 0.000119, 0.000957,-0.009966,-0.015395,-0.058432,-0.067623,1, 0.001821,-0.002654,-0.000101,1,-0.100614,-0.989533, 9.756080,1,1
1778777572815,  2266.629,  2266.629, 0.010233, 0.104789,-0.980981, 0.000115, 0.001060,-0.009796,-0.000596, 0.037593, 0.135885,1, 0.003601,-0.000420,-0.000280,1,-0.100930,-0.989922, 9.756037,1,1
1778777572837,  2266.649,  2266.649, 0.006142, 0.095615,-1.003266, 0.000054, 0.000961,-0.010027,-0.040454,-0.051647,-0.082578,1, 0.001389, 0.000193,-0.000427,1,-0.100689,-0.989265, 9.756105,1,1
1778777572858,  2266.674,  2266.669, 0.013131, 0.106431,-0.983450, 0.000136, 0.001071,-0.009831, 0.044258, 0.048195, 0.078513,1,-0.003751, 0.003094,-0.001089,1,-0.101066,-0.990186, 9.756008,1,1
1778777572885,  2266.699,  2266.699, 0.008481, 0.094350,-1.000046, 0.000080, 0.000945,-0.009999,-0.017512,-0.064056,-0.050997,1, 0.001617,-0.000435, 0.000246,1,-0.100673,-0.989262, 9.756106,1,1
1778777572907,  2266.724,  2266.719, 0.010926, 0.106045,-0.983006, 0.000119, 0.001068,-0.009816, 0.038292, 0.043032, 0.123745,1,-0.005106, 0.002478,-0.000856,1,-0.101153,-0.990311, 9.755995,1,1
1778777572928,  2266.744,  2266.739, 0.007982, 0.095233,-1.004074, 0.000074, 0.000955,-0.010036,-0.028310,-0.015289,-0.000714,1, 0.004762,-0.003166,-0.000216,1,-0.100873,-0.989858, 9.756043,1,1
1778777572955,  2266.769,  2266.769, 0.016787, 0.103945,-0.983985, 0.000163, 0.001032,-0.009851, 0.063944, 0.029258, 0.106422,1,-0.003176, 0.001681, 0.000157,1,-0.100736,-0.990190, 9.756012,1,1
1778777572977,  2266.794,  2266.789, 0.006181, 0.095223,-0.998265, 0.000060, 0.000960,-0.009979,-0.013603,-0.013077, 0.038465,1, 0.003826,-0.002855, 0.000350,1,-0.100513,-0.989522, 9.756082,1,1
1778777572999,  2266.814,  2266.809, 0.012354, 0.103670,-0.988017, 0.000117, 0.001029,-0.009883,-0.029923,-0.040019, 0.003473,1,-0.003287, 0.001752, 0.000351,1,-0.100504,-0.989799, 9.756054,1,1
1778777573026,  2266.839,  2266.839, 0.008651, 0.100980,-0.993777, 0.000086, 0.001013,-0.009920,-0.015795, 0.000801, 0.010458,1, 0.005226,-0.002063,-0.000325,1,-0.100566,-0.989316, 9.756102,1,1
1778777573047,  2266.864,  2266.859, 0.012929, 0.105207,-0.981377, 0.000132, 0.001034,-0.009828, 0.013737,-0.048579, 0.025297,1,-0.003635, 0.000775, 0.000360,1,-0.100432,-0.989322, 9.756103,1,1
1778777573069,  2266.884,  2266.879, 0.003332, 0.100204,-0.992627, 0.000039, 0.001006,-0.009900,-0.020300, 0.046370, 0.157281,1, 0.002027, 0.000008, 0.000599,1,-0.100733,-0.989864, 9.756044,1,1
1778777573096,  2266.909,  2266.909, 0.013047, 0.096742,-1.000399, 0.000121, 0.000953,-0.010024, 0.027331,-0.040626,-0.054466,1,-0.003438, 0.001736,-0.000653,1,-0.100667,-0.989452, 9.756087,1,1
1778777573117,  2266.934,  2266.929, 0.007129, 0.100587,-0.987140, 0.000078, 0.001019,-0.009852, 0.029267, 0.044466, 0.154957,1, 0.000471,-0.000893, 0.000590,1,-0.100855,-0.990022, 9.756027,1,1
1778777573139,  2266.954,  2266.949, 0.009742, 0.096200,-0.996829, 0.000092, 0.000953,-0.009982,-0.037181,-0.074075,-0.027627,1, 0.002232,-0.000850, 0.000820,1,-0.100467,-0.989267, 9.756108,1,1
1778777573166,  2266.979,  2266.979, 0.011813, 0.107371,-0.986157, 0.000128, 0.001079,-0.009850, 0.014784, 0.062905, 0.085121,1, 0.002355,-0.000629,-0.000087,1,-0.101038,-0.989976, 9.756030,1,1
1778777573187,  2267.004,  2266.999, 0.014069, 0.096370,-0.994431, 0.000131, 0.000957,-0.009977,-0.010756,-0.045849,-0.082457,1, 0.001103,-0.002019,-0.000024,1,-0.100522,-0.989221, 9.756112,1,1
1778777573209,  2267.024,  2267.019, 0.013785, 0.107090,-0.976719, 0.000155, 0.001076,-0.009758, 0.078983, 0.029650, 0.155480,1,-0.005178, 0.003824,-0.000327,1,-0.101049,-0.990195, 9.756008,1,1
1778777573236,  2267.049,  2267.049, 0.003090, 0.095442,-1.007328, 0.000028, 0.000956,-0.010066,-0.070237,-0.052928,-0.122365,1, 0.003278,-0.002951, 0.000057,1,-0.100444,-0.988788, 9.756157,1,1
1778777573257,  2267.074,  2267.069, 0.016580, 0.107335,-0.980173, 0.000175, 0.001078,-0.009804, 0.052922, 0.039457, 0.062796,1,-0.006567, 0.002795,-0.000565,1,-0.100849,-0.989903, 9.756040,1,1
1778777573279,  2267.094,  2267.089, 0.006008, 0.093967,-0.997729, 0.000062, 0.000943,-0.009966, 0.005345, 0.001785, 0.076892,1, 0.006759,-0.002862, 0.000416,1,-0.100596,-0.989276, 9.756105,1,1
1778777573306,  2267.119,  2267.119, 0.008768, 0.102397,-0.985509, 0.000084, 0.001009,-0.009862,-0.014744, 0.014859, 0.091563,1,-0.005668, 0.003725,-0.000652,1,-0.100844,-0.989486, 9.756082,1,1
1778777573327,  2267.144,  2267.139, 0.009122, 0.095193,-1.002314, 0.000085, 0.000965,-0.010023,-0.015027, 0.008788, 0.013028,1, 0.003139,-0.001875, 0.000815,1,-0.100815,-0.989271, 9.756104,1,1
1778777573350,  2267.164,  2267.164, 0.013890, 0.102368,-0.982247, 0.000135, 0.001017,-0.009837, 0.035555, 0.014544, 0.123543,1,-0.003544, 0.002088,-0.000573,1,-0.100720,-0.989450, 9.756086,1,1
1778777573376,  2267.189,  2267.189, 0.006275, 0.101165,-0.988173, 0.000067, 0.001023,-0.009862,-0.039224, 0.002915, 0.065444,1, 0.002783,-0.000693, 0.001050,1,-0.100738,-0.989089, 9.756124,1,1
1778777573398,  2267.214,  2267.209, 0.011363, 0.104349,-0.991059, 0.000108, 0.001027,-0.009923,-0.021382,-0.048621,-0.056545,1,-0.003894, 0.002007, 0.000301,1,-0.100879,-0.989336, 9.756097,1,1
1778777573420,  2267.234,  2267.234, 0.011250, 0.101829,-0.991513, 0.000112, 0.001027,-0.009902, 0.009352, 0.009062, 0.032657,1, 0.003094,-0.001634, 0.000714,1,-0.100924,-0.989443, 9.756085,1,1
1778777573446,  2267.259,  2267.259, 0.013689, 0.097372,-0.990046, 0.000139, 0.000961,-0.009918, 0.033207,-0.034514, 0.047048,1,-0.003382, 0.001321,-0.000687,1,-0.101051,-0.989500, 9.756078,1,1
1778777573468,  2267.284,  2267.279, 0.005205, 0.100763,-0.996333, 0.000052, 0.001019,-0.009938,-0.024820, 0.060104, 0.117641,1, 0.000647, 0.000045,-0.000297,1,-0.101291,-0.989935, 9.756032,1,1
1778777573490,  2267.304,  2267.304, 0.014082, 0.098731,-0.998651, 0.000128, 0.000979,-0.010008, 0.037179,-0.021139,-0.037328,1,-0.001924, 0.000248,-0.000148,1,-0.100921,-0.989420, 9.756087,1,1
1778777573516,  2267.329,  2267.329, 0.014384, 0.105463,-0.977865, 0.000150, 0.001066,-0.009777, 0.040114, 0.044589, 0.166482,1, 0.001507,-0.001333, 0.000047,1,-0.100900,-0.989606, 9.756069,1,1
1778777573538,  2267.354,  2267.349, 0.007489, 0.097792,-0.993694, 0.000073, 0.000966,-0.009949,-0.035370,-0.057560, 0.014819,1, 0.000718,-0.000777, 0.000149,1,-0.100607,-0.989203, 9.756113,1,1
1778777573561,  2267.374,  2267.374, 0.009783, 0.104908,-0.991169, 0.000104, 0.001058,-0.009906,-0.004989, 0.039076, 0.036007,1, 0.004127,-0.000969, 0.000499,1,-0.100895,-0.989591, 9.756071,1,1
1778777573586,  2267.399,  2267.399, 0.009588, 0.095211,-0.998317, 0.000102, 0.000932,-0.009992,-0.006305,-0.055143,-0.033989,1, 0.003467,-0.002868,-0.001309,1,-0.100235,-0.988733, 9.756165,1,1
1778777573608,  2267.424,  2267.419, 0.007750, 0.099585,-0.979666, 0.000095, 0.001010,-0.009798, 0.042629, 0.025186, 0.157465,1,-0.004662, 0.002342,-0.000533,1,-0.100606,-0.989021, 9.756131,1,1
1778777573631,  2267.444,  2267.444, 0.003332, 0.097888,-1.001423, 0.000027, 0.000968,-0.009988,-0.067418,-0.028985,-0.064460,1,-0.000078,-0.003903,-0.000448,1,-0.099971,-0.988941, 9.756146,1,1
1778777573656,  2267.469,  2267.469, 0.011969, 0.106475,-0.988121, 0.000110, 0.001039,-0.009892, 0.016812, 0.054505, 0.065912,1,-0.006816, 0.004932,-0.000530,1,-0.100712,-0.989868, 9.756044,1,1
1778777573678,  2267.494,  2267.489, 0.015586, 0.096646,-1.000807, 0.000147, 0.000974,-0.010007,-0.008664,-0.013402,-0.024827,1, 0.004363, 0.002207, 0.001647,1,-0.101002,-0.989325, 9.756097,1,1
1778777573701,  2267.519,  2267.514, 0.016510, 0.105545,-0.980954, 0.000166, 0.001047,-0.009818, 0.060770, 0.045517, 0.136196,1,-0.003709, 0.001210, 0.000555,1,-0.101182,-0.989641, 9.756063,1,1
1778777573726,  2267.539,  2267.539, 0.007190, 0.099075,-0.993471, 0.000079, 0.001004,-0.009906,-0.030280,-0.017721, 0.013475,1, 0.003758,-0.005096, 0.000507,1,-0.100633,-0.989198, 9.756113,1,1
1778777573748,  2267.564,  2267.559, 0.014229, 0.108379,-0.984818, 0.000145, 0.001070,-0.009861, 0.023914,-0.018149,-0.052118,1,-0.005649, 0.000980,-0.001328,1,-0.100261,-0.989798, 9.756056,1,1
1778777573771,  2267.589,  2267.584, 0.006564, 0.098456,-0.990409, 0.000070, 0.000992,-0.009894,-0.035810,-0.024080, 0.043482,1, 0.005711,-0.002330, 0.000066,1,-0.100108,-0.989427, 9.756095,1,1
1778777573797,  2267.609,  2267.609, 0.009643, 0.093157,-0.990320, 0.000088, 0.000923,-0.009918,-0.005619,-0.075886, 0.044372,1,-0.004641, 0.002955,-0.000347,1,-0.100279,-0.989584, 9.756078,1,1
1778777573818,  2267.634,  2267.629, 0.010531, 0.099683,-0.991044, 0.000110, 0.001005,-0.009888, 0.047007, 0.016538, 0.125773,1, 0.000929, 0.000457,-0.000588,1,-0.100708,-0.990004, 9.756031,1,1
1778777573841,  2267.659,  2267.654, 0.010830, 0.098459,-0.994014, 0.000104, 0.000975,-0.009955, 0.005818,-0.024282, 0.008102,1,-0.004057, 0.001039, 0.000044,1,-0.100474,-0.989992, 9.756034,1,1
1778777573867,  2267.679,  2267.679, 0.005478, 0.107398,-0.979122, 0.000062, 0.001084,-0.009780,-0.046794, 0.062916, 0.154095,1, 0.003562,-0.001520, 0.000609,1,-0.100475,-0.990186, 9.756015,1,1
1778777573888,  2267.704,  2267.699, 0.011232, 0.095505,-1.003667, 0.000106, 0.000942,-0.010061,-0.087851, 0.004808, 0.020791,1, 0.008097,-0.003446, 0.001200,1,-0.100148,-0.989468, 9.756091,1,1
1778777573911,  2267.729,  2267.724, 0.010849, 0.106658,-0.980955, 0.000120, 0.001074,-0.009809, 0.006251, 0.056433, 0.136198,1, 0.000468,-0.000139,-0.000017,1,-0.100135,-0.989513, 9.756086,1,1
1778777573937,  2267.749,  2267.749, 0.005065, 0.093564,-0.998913, 0.000047, 0.000935,-0.009988,-0.050411,-0.071505,-0.039858,1, 0.000101, 0.000827, 0.000014,1,-0.100105,-0.989048, 9.756134,1,1
1778777573958,  2267.774,  2267.769, 0.015198, 0.106118,-0.986202, 0.000157, 0.001063,-0.009856, 0.044669, 0.032428, 0.077272,1,-0.004911, 0.003735,-0.001104,1,-0.100860,-0.989927, 9.756037,1,1
1778777573981,  2267.799,  2267.794, 0.009764, 0.096390,-0.999801, 0.000095, 0.000967,-0.009999,-0.004817,-0.044283,-0.048619,1,-0.000347,-0.002248, 0.000817,1,-0.100499,-0.989559, 9.756078,1,1
1778777574007,  2267.819,  2267.819, 0.017148, 0.103353,-0.980638, 0.000165, 0.001025,-0.009814, 0.067284, 0.023118, 0.139209,1,-0.005730, 0.003198,-0.000114,1,-0.100982,-0.990612, 9.755966,1,1
1778777574028,  2267.844,  2267.839, 0.007264, 0.096731,-1.007386, 0.000066, 0.000973,-0.010066,-0.015574, 0.002808, 0.016719,1, 0.006467,-0.002347, 0.000329,1,-0.100879,-0.989719, 9.756058,1,1
1778777574055,  2267.869,  2267.869, 0.013940, 0.104670,-0.988300, 0.000137, 0.001038,-0.009900, 0.036025, 0.036416, 0.064109,1,-0.005949, 0.001238,-0.000494,1,-0.100714,-0.990235, 9.756007,1,1
1778777574077,  2267.889,  2267.889, 0.007539, 0.102340,-0.984896, 0.000082, 0.001037,-0.009828,-0.026557, 0.013392, 0.097482,1, 0.003693,-0.002747, 0.000304,1,-0.100401,-0.990110, 9.756023,1,1
1778777574098,  2267.914,  2267.909, 0.012177, 0.105746,-0.985416, 0.000122, 0.001039,-0.009868, 0.003866,-0.050136,-0.021232,1,-0.001875, 0.001617,-0.001037,1,-0.100281,-0.989936, 9.756042,1,1
1778777574125,  2267.939,  2267.939, 0.003428, 0.103496,-0.989644, 0.000038, 0.001043,-0.009880,-0.066491, 0.024589, 0.050910,1, 0.002806,-0.003106, 0.000941,1,-0.100018,-0.990276, 9.756010,1,1
1778777574147,  2267.964,  2267.959, 0.014074, 0.102746,-0.981486, 0.000135, 0.001014,-0.009828,-0.000905,-0.045534, 0.008786,1,-0.001682, 0.000680, 0.000318,1,-0.099770,-0.990150, 9.756025,1,1
1778777574169,  2267.984,  2267.979, 0.006903, 0.100091,-0.990853, 0.000073, 0.001012,-0.009883, 0.027287, 0.046124, 0.147968,1, 0.004156, 0.000008,-0.000262,1,-0.100128,-0.990135, 9.756023,1,1
1778777574196,  2268.009,  2268.009, 0.007862, 0.093274,-1.000446, 0.000066, 0.000931,-0.010017,-0.022670,-0.074868,-0.054944,1,-0.005116, 0.002149, 0.000550,1,-0.099835,-0.989732, 9.756067,1,1
1778777574217,  2268.034,  2268.029, 0.012777, 0.100652,-0.990475, 0.000134, 0.001019,-0.009881, 0.056401, 0.039299, 0.117650,1, 0.001600, 0.000302,-0.000394,1,-0.100250,-0.990327, 9.756002,1,1
1778777574239,  2268.054,  2268.049, 0.010810, 0.093871,-1.000218, 0.000103, 0.000931,-0.010016,-0.008265,-0.065034,-0.048727,1, 0.005100,-0.000483,-0.000068,1,-0.099997,-0.989225, 9.756117,1,1
1778777574266,  2268.079,  2268.079, 0.012469, 0.107367,-0.983111, 0.000130, 0.001069,-0.009831, 0.021883, 0.062693, 0.114982,1,-0.002115, 0.001795,-0.000656,1,-0.100446,-0.990279, 9.756005,1,1
1778777574287,  2268.099,  2268.099, 0.009731, 0.096480,-0.999993, 0.000096, 0.000969,-0.009989,-0.004772,-0.043613,-0.050521,1, 0.004020,-0.002037, 0.000721,1,-0.100135,-0.989637, 9.756074,1,1
1778777574309,  2268.124,  2268.119, 0.012461, 0.106164,-0.981760, 0.000135, 0.001063,-0.009819,-0.004772,-0.043613,-0.050521,1, 0.004020,-0.002037, 0.000721,1,-0.100135,-0.989637, 9.756074,1,1
1778777574336,  2268.149,  2268.149, 0.006485, 0.095776,-0.997575, 0.000060, 0.000958,-0.009966,-0.035880,-0.050363,-0.026787,1,-0.000804,-0.001870, 0.000614,1,-0.099425,-0.989630, 9.756082,1,1
1778777574357,  2268.174,  2268.169, 0.011687, 0.108541,-0.981158, 0.000124, 0.001089,-0.009806, 0.031259, 0.017204, 0.083378,1,-0.005060, 0.000758,-0.000883,1,-0.099631,-0.990447, 9.755997,1,1
1778777574379,  2268.194,  2268.189, 0.006996, 0.096845,-1.000183, 0.000064, 0.000980,-0.009991,-0.024579, 0.011964, 0.054587,1, 0.006014,-0.003395,-0.000397,1,-0.099252,-0.989906, 9.756056,1,1
1778777574406,  2268.219,  2268.219, 0.014755, 0.102823,-0.982890, 0.000141, 0.001018,-0.009842, 0.045446, 0.018003, 0.117149,1,-0.006354, 0.003044,-0.000923,1,-0.099342,-0.990539, 9.755990,1,1
1778777574427,  2268.244,  2268.239, 0.001709, 0.097015,-1.001726, 0.000017, 0.000979,-0.010001,-0.057436, 0.024170, 0.084171,1, 0.005903,-0.002677,-0.000143,1,-0.099196,-0.990154, 9.756031,1,1
1778777574449,  2268.264,  2268.259, 0.012144, 0.102616,-0.991503, 0.000115, 0.001010,-0.009939,-0.044065,-0.059999,-0.087379,1, 0.000975,-0.000566, 0.000460,1,-0.098854,-0.989409, 9.756110,1,1
1778777574476,  2268.289,  2268.289, 0.010363, 0.102338,-0.984916, 0.000111, 0.001036,-0.009835, 0.002361, 0.013867, 0.097343,1, 0.005222,-0.001812, 0.000815,1,-0.099216,-0.989561, 9.756091,1,1
1778777574497,  2268.314,  2268.309, 0.010060, 0.101459,-0.988674, 0.000096, 0.000997,-0.009903,-0.010749,-0.069642,-0.041111,1,-0.001000, 0.001257,-0.000254,1,-0.099130,-0.989037, 9.756145,1,1
1778777574519,  2268.334,  2268.329, 0.008942, 0.102493,-0.991904, 0.000090, 0.001040,-0.009897, 0.000394, 0.065730, 0.094630,1,-0.001603, 0.001028,-0.000531,1,-0.099538,-0.989808, 9.756063,1,1
1778777574546,  2268.359,  2268.359, 0.012298, 0.093746,-1.000364, 0.000116, 0.000940,-0.010018, 0.021441,-0.069729,-0.054083,1,-0.000288, 0.000712, 0.000539,1,-0.099187,-0.989072, 9.756141,1,1
1778777574568,  2268.384,  2268.379, 0.011428, 0.101869,-0.985129, 0.000117, 0.001033,-0.009825, 0.046431, 0.038897, 0.161518,1,-0.001747, 0.000960,-0.000184,1,-0.099425,-0.989754, 9.756069,1,1
1778777574590,  2268.404,  2268.404, 0.010868, 0.094290,-0.999138, 0.000104, 0.000943,-0.010000, 0.007228,-0.064908,-0.042108,1,-0.002556, 0.000841, 0.000044,1,-0.099382,-0.989656, 9.756080,1,1
1778777574616,  2268.429,  2268.429, 0.011708, 0.106927,-0.982975, 0.000125, 0.001070,-0.009830, 0.015271, 0.058270, 0.116320,1,-0.000539,-0.000659,-0.000470,1,-0.099528,-0.990344, 9.756008,1,1
1778777574638,  2268.454,  2268.449, 0.010832, 0.093953,-0.997638, 0.000106, 0.000933,-0.009995,-0.022976, 0.020878, 0.071823,1, 0.003957,-0.002768,-0.000223,1,-0.099201,-0.989959, 9.756051,1,1
1778777574661,  2268.474,  2268.474, 0.013950, 0.107039,-0.980813, 0.000151, 0.001070,-0.009813, 0.037570, 0.059491, 0.137540,1,-0.002522, 0.001236,-0.000399,1,-0.099273,-0.990279, 9.756018,1,1
1778777574686,  2268.499,  2268.499, 0.004894, 0.096878,-0.998403, 0.000050, 0.000974,-0.009969,-0.051026,-0.039705,-0.034916,1, 0.003688,-0.002191,-0.000296,1,-0.098952,-0.989643, 9.756085,1,1
1778777574708,  2268.524,  2268.519, 0.011006, 0.106799,-0.982429, 0.000112, 0.001073,-0.009826,-0.005143, 0.007866, 0.030896,1,-0.005972, 0.001134,-0.001002,1,-0.098911,-0.990118, 9.756038,1,1
1778777574731,  2268.544,  2268.544, 0.008179, 0.096053,-1.000327, 0.000077, 0.000970,-0.009984,-0.018455,-0.047912,-0.053791,1, 0.002888,-0.001792, 0.000494,1,-0.098606,-0.989785, 9.756074,1,1
1778777574756,  2268.569,  2268.569, 0.012242, 0.102038,-0.987718, 0.000123, 0.001008,-0.009892, 0.021074, 0.010515, 0.069825,1,-0.005372, 0.003046,-0.000412,1,-0.099076,-0.990301, 9.756018,1,1
1778777574778,  2268.594,  2268.589, 0.002803, 0.097656,-0.998685, 0.000029, 0.000981,-0.009977,-0.042025, 0.028503, 0.070941,1, 0.004332,-0.001606,-0.000166,1,-0.099161,-0.990153, 9.756031,1,1
1778777574801,  2268.614,  2268.614, 0.014554, 0.101112,-0.990444, 0.000139, 0.000998,-0.009927, 0.043670, 0.001409, 0.043094,1,-0.004927, 0.002047,-0.000724,1,-0.099116,-0.990309, 9.756016,1,1
1778777574826,  2268.639,  2268.639, 0.012976, 0.103569,-0.982776, 0.000142, 0.001041,-0.009817, 0.027888, 0.025290, 0.118265,1, 0.003664,-0.000698,-0.000313,1,-0.099338,-0.990258, 9.756019,1,1
1778777574848,  2268.664,  2268.659, 0.010907, 0.101503,-0.988668, 0.000111, 0.000997,-0.009908, 0.003791,-0.059437,-0.031230,1,-0.000598, 0.001001,-0.000235,1,-0.099259,-0.989930, 9.756053,1,1
1778777574871,  2268.684,  2268.684, 0.005751, 0.103882,-0.989215, 0.000062, 0.001052,-0.009863,-0.043128, 0.028238, 0.055104,1, 0.006613,-0.003564, 0.000552,1,-0.099417,-0.990293, 9.756015,1,1
1778777574896,  2268.709,  2268.709, 0.013558, 0.092724,-1.008105, 0.000121, 0.000928,-0.010097, 0.033983,-0.079974,-0.130012,1, 0.002167,-0.000295,-0.000343,1,-0.098970,-0.989220, 9.756128,1,1
1778777574918,  2268.734,  2268.729, 0.014325, 0.102127,-0.977693, 0.000156, 0.001041,-0.009759, 0.106386, 0.052576, 0.178484,1,-0.003550, 0.001506,-0.000516,1,-0.099421,-0.990167, 9.756027,1,1
1778777574941,  2268.759,  2268.754, 0.003988, 0.093226,-1.001672, 0.000036, 0.000936,-0.010013,-0.059808,-0.075323,-0.066953,1,-0.000037,-0.000950, 0.000253,1,-0.098888,-0.989563, 9.756094,1,1
1778777574967,  2268.779,  2268.779, 0.010026, 0.109231,-0.990111, 0.000092, 0.001091,-0.009903,-0.000784, 0.080798, 0.046331,1,-0.002485, 0.001335,-0.000820,1,-0.099147,-0.990469, 9.756000,1,1
1778777574988,  2268.804,  2268.799, 0.012536, 0.093991,-0.992820, 0.000120, 0.000943,-0.009945, 0.013274,-0.022530,-0.038087,1, 0.003940,-0.004480, 0.001154,1,-0.098508,-0.989797, 9.756074,1,1
