Time,GPS_ts,fGPS_ts,scaledAccelX,scaledAccelY,scaledAccelZ,deltaVelX,deltaVelY,deltaVelZ,estLinearAccelX,estLinearAccelY,estLinearAccelZ,estLinearAccel:valid,estAngularRateX,estAngularRateY,estAngularRateZ,estAngularRate:valid,estGravityX,estGravityY,estGravityZ,estGravity:valid,flag
1778778801086,  3463.544,  3463.544, 0.017478,-0.017406,-1.014719, 0.000166,-0.000193,-0.010137, 0.308905,-0.061922,-0.145914,1,-0.021219,-0.008071, 0.000026,1, 0.137758, 0.108114, 9.805086,1,0
1778778801086,  3463.569,  3463.564, 0.014962,-0.012733,-0.976770, 0.000166,-0.000117,-0.009738, 0.347277, 0.040933, 0.211599,1, 0.010891, 0.016095, 0.000225,1, 0.135347, 0.108041, 9.805120,1,0
1778778801087,  3463.589,  3463.589, 0.021610,-0.010887,-1.019511, 0.000206,-0.000118,-0.010206, 0.349424, 0.000126,-0.192888,1,-0.015469,-0.004059,-0.000575,1, 0.137628, 0.106412, 9.805107,1,0
1778778801087,  3463.614,  3463.614, 0.027133,-0.005017,-0.975976, 0.000281,-0.000040,-0.009781, 0.401342, 0.058195, 0.234074,1, 0.015837, 0.014294,-0.000341,1, 0.134813, 0.107890, 9.805130,1,0
1778778801087,  3463.639,  3463.634, 0.020948,-0.013274,-1.017850, 0.000202,-0.000144,-0.010192, 0.288949,-0.066696,-0.091144,1,-0.010490,-0.012343, 0.000220,1, 0.136272, 0.108061, 9.805108,1,0
1778778801087,  3463.664,  3463.664, 0.023936,-0.003507,-0.997764, 0.000240,-0.000046,-0.010022, 0.332117, 0.059726, 0.222270,1, 0.013736, 0.009299,-0.000468,1, 0.134450, 0.107562, 9.805139,1,0
1778778801087,  3463.689,  3463.684, 0.031702,-0.009089,-1.016988, 0.000304,-0.000119,-0.010200, 0.360954,-0.077118,-0.162087,1,-0.014155,-0.012858,-0.000337,1, 0.136381, 0.106758, 9.805120,1,0
1778778801087,  3463.714,  3463.709, 0.023920,-0.007923,-0.971303, 0.000252,-0.000062,-0.009708, 0.365131, 0.029396, 0.279966,1, 0.011774, 0.004807, 0.000687,1, 0.130080, 0.107461, 9.805199,1,0
1778778801087,  3463.734,  3463.734, 0.018444,-0.014140,-1.021576, 0.000181,-0.000158,-0.010191, 0.313465,-0.033438,-0.213048,1,-0.023358,-0.014321, 0.000349,1, 0.133034, 0.104497, 9.805191,1,0
1778778801087,  3463.759,  3463.754, 0.020544,-0.007634,-0.977643, 0.000219,-0.000063,-0.009755, 0.386689, 0.106864, 0.143987,1, 0.013552, 0.015881, 0.000939,1, 0.131095, 0.104476, 9.805217,1,0
1778778801087,  3463.779,  3463.774, 0.025667,-0.009142,-1.020940, 0.000253,-0.000101,-0.010213, 0.340991,-0.021064,-0.030212,1,-0.008611,-0.015717, 0.001436,1, 0.132457, 0.105145, 9.805192,1,0
1778778801100,  3494.784,  3494.784, 0.027970,-0.003639,-0.997709, 0.000281,-0.000048,-0.010003, 0.030372, 0.055419, 0.019008,1,-0.001615, 0.006175,-0.000765,1,-0.244109, 0.091053, 9.803188,1,0
1778778801121,  3494.809,  3494.804, 0.013736,-0.015053,-0.999999, 0.000132,-0.000146,-0.009977,-0.058897, 0.002226, 0.121008,1, 0.006901,-0.002185, 0.001144,1,-0.244870, 0.092579, 9.803155,1,0
1778778801143,  3494.829,  3494.824, 0.025005,-0.007585,-0.998505, 0.000246,-0.000095,-0.010003,-0.069808,-0.049694,-0.064356,1,-0.008828,-0.002571,-0.000460,1,-0.243880, 0.091517, 9.803190,1,0
1778778801170,  3494.854,  3494.854, 0.019484,-0.008410,-0.992811, 0.000199,-0.000079,-0.009912,-0.053829, 0.009213, 0.067009,1, 0.003628,-0.001183, 0.000177,1,-0.244868, 0.091798, 9.803163,1,0
1778778801191,  3494.879,  3494.874, 0.027690,-0.006134,-0.995076, 0.000270,-0.000070,-0.009964,-0.034513,-0.019200,-0.044682,1,-0.007678,-0.000598,-0.000203,1,-0.244161, 0.090674, 9.803190,1,0
1778778801214,  3494.899,  3494.899, 0.016584,-0.011046,-0.991642, 0.000181,-0.000096,-0.009904,-0.082671,-0.016820, 0.078471,1, 0.005358,-0.000255, 0.000739,1,-0.245292, 0.091671, 9.803153,1,0
1778778801240,  3494.924,  3494.924, 0.018256,-0.012963,-1.004049, 0.000180,-0.000136,-0.010048,-0.064415,-0.036036,-0.043152,1,-0.005914,-0.001234,-0.000951,1,-0.243399, 0.090899, 9.803207,1,0
1778778801261,  3494.949,  3494.944, 0.018741,-0.009776,-0.990001, 0.000203,-0.000081,-0.009890,-0.004875, 0.050491, 0.115240,1, 0.009208, 0.006212,-0.000704,1,-0.244514, 0.091580, 9.803173,1,0
1778778801284,  3494.969,  3494.969, 0.022187,-0.014718,-1.002012, 0.000210,-0.000156,-0.010023,-0.026549,-0.052466,-0.023206,1,-0.006861,-0.001424,-0.000530,1,-0.244089, 0.091654, 9.803184,1,0
1778778801310,  3494.994,  3494.994, 0.023108,-0.004712,-0.987531, 0.000230,-0.000039,-0.009879,-0.018175, 0.045299, 0.118792,1, 0.006028, 0.004645,-0.000940,1,-0.244937, 0.091698, 9.803162,1,0
1778778801332,  3495.019,  3495.014, 0.022905,-0.011995,-1.006228, 0.000211,-0.000129,-0.010060,-0.089131,-0.037402,-0.004310,1,-0.005149,-0.006324,-0.000027,1,-0.244203, 0.091769, 9.803180,1,0
1778778801354,  3495.039,  3495.039, 0.025631,-0.003606,-0.989480, 0.000263,-0.000031,-0.009902, 0.006530, 0.055548, 0.099686,1, 0.009047, 0.006292, 0.000336,1,-0.245016, 0.091195, 9.803164,1,0
1778778801380,  3495.064,  3495.064, 0.013233,-0.015583,-0.999542, 0.000134,-0.000156,-0.009980,-0.114947,-0.060778, 0.001001,1,-0.003288,-0.005567, 0.000456,1,-0.244544, 0.091936, 9.803169,1,0
1778778801402,  3495.089,  3495.084, 0.025546,-0.003574,-0.989490, 0.000260,-0.000022,-0.009897,-0.015162, 0.046589, 0.032133,1,-0.002211, 0.005220,-0.000852,1,-0.244728, 0.090677, 9.803177,1,0
1778778801424,  3495.109,  3495.109, 0.015601,-0.014396,-1.003238, 0.000158,-0.000138,-0.010016,-0.090730,-0.049564,-0.035208,1,-0.003183,-0.006091, 0.000485,1,-0.243428, 0.091514, 9.803201,1,0
1778778801450,  3495.134,  3495.134, 0.025762,-0.005791,-0.996171, 0.000263,-0.000065,-0.009983, 0.008987, 0.034325, 0.034100,1, 0.003384, 0.007139,-0.000388,1,-0.243871, 0.091221, 9.803193,1,0
1778778801472,  3495.159,  3495.154, 0.015486,-0.015486,-0.999778, 0.000151,-0.000153,-0.009977,-0.063194,-0.018166, 0.120164,1, 0.004516,-0.000599, 0.001009,1,-0.244766, 0.092721, 9.803157,1,0
1778778801495,  3495.179,  3495.179, 0.024764,-0.004821,-0.997032, 0.000246,-0.000065,-0.009988,-0.001215, 0.043513, 0.025649,1,-0.003135, 0.003930,-0.000550,1,-0.244188, 0.090697, 9.803190,1,0
1778778801520,  3495.204,  3495.204, 0.016179,-0.009332,-0.991213, 0.000168,-0.000090,-0.009899,-0.086100, 0.000273, 0.082684,1, 0.005371,-0.002718, 0.000676,1,-0.244678, 0.091956, 9.803165,1,0
1778778801542,  3495.229,  3495.224, 0.029448,-0.005953,-0.995373, 0.000288,-0.000072,-0.009970,-0.006646,-0.035149,-0.045207,1,-0.007888, 0.000281,-0.001177,1,-0.244015, 0.091057, 9.803191,1,0
1778778801565,  3495.254,  3495.249, 0.015294,-0.010730,-0.991666, 0.000168,-0.000096,-0.009907,-0.095080,-0.013280, 0.078232,1, 0.005964,-0.001383, 0.000109,1,-0.245020, 0.092136, 9.803156,1,0
1778778801590,  3495.274,  3495.274, 0.018252,-0.013331,-1.002278, 0.000170,-0.000141,-0.010034,-0.065348,-0.039296,-0.025808,1,-0.007699, 0.000162,-0.000667,1,-0.244349, 0.091193, 9.803182,1,0
1778778801612,  3495.299,  3495.294, 0.019101,-0.011244,-0.991728, 0.000206,-0.000098,-0.009904,-0.008436, 0.040451, 0.116356,1, 0.007299, 0.005354,-0.000035,1,-0.245418, 0.091619, 9.803150,1,0
1778778801635,  3495.324,  3495.319, 0.022229,-0.012860,-1.003885, 0.000208,-0.000137,-0.010046,-0.025474,-0.034635,-0.041552,1,-0.008009,-0.000600,-0.000658,1,-0.243438, 0.091226, 9.803204,1,0
1778778801660,  3495.344,  3495.344, 0.023605,-0.002240,-0.985800, 0.000238,-0.000013,-0.009865,-0.012945, 0.069421, 0.135783,1, 0.008623, 0.006881, 0.000165,1,-0.244646, 0.091658, 9.803169,1,0
1778778801682,  3495.369,  3495.364, 0.020579,-0.013936,-1.007679, 0.000185,-0.000152,-0.010073,-0.107467,-0.059523,-0.001209,1,-0.004108,-0.006650, 0.000295,1,-0.243982, 0.092259, 9.803181,1,0
1778778801705,  3495.394,  3495.389, 0.026634,-0.003165,-0.989933, 0.000262,-0.000028,-0.009910, 0.016674, 0.060517, 0.095249,1, 0.008429, 0.007760,-0.000736,1,-0.244762, 0.091822, 9.803165,1,0
1778778801731,  3495.414,  3495.414, 0.016919,-0.013144,-0.997037, 0.000166,-0.000127,-0.009954,-0.078648,-0.036273, 0.025565,1,-0.003617,-0.005150, 0.000648,1,-0.244405, 0.092517, 9.803167,1,0
1778778801752,  3495.439,  3495.434, 0.021424,-0.006090,-0.988064, 0.000224,-0.000050,-0.009887,-0.006244, 0.023369, 0.030376,1, 0.000680, 0.005433,-0.000409,1,-0.244478, 0.091718, 9.803173,1,0
1778778801775,  3495.464,  3495.459, 0.012857,-0.014470,-1.001151, 0.000135,-0.000140,-0.009999,-0.118304,-0.048930,-0.014775,1,-0.005723,-0.007324,-0.000449,1,-0.244155, 0.092797, 9.803171,1,0
1778778801801,  3495.484,  3495.484, 0.027596,-0.003920,-0.998367, 0.000274,-0.000054,-0.010005, 0.026416, 0.053334, 0.012539,1, 0.001406, 0.006992,-0.001015,1,-0.244427, 0.091822, 9.803173,1,0
1778778801822,  3495.509,  3495.504, 0.012760,-0.014581,-1.000273, 0.000132,-0.000156,-0.009984,-0.045676, 0.018907, 0.124640,1, 0.007122,-0.000623,-0.000096,1,-0.245533, 0.093618, 9.803129,1,0
1778778801845,  3495.534,  3495.529, 0.026062,-0.008322,-0.997365, 0.000251,-0.000106,-0.009988, 0.011645, 0.010732, 0.022369,1,-0.001552, 0.006329,-0.000797,1,-0.244133, 0.092292, 9.803176,1,0
1778778801871,  3495.554,  3495.554, 0.021844,-0.008346,-0.986274, 0.000218,-0.000076,-0.009851,-0.030695, 0.011368, 0.131102,1, 0.004864, 0.000056, 0.000524,1,-0.244911, 0.093363, 9.803146,1,0
1778778801892,  3495.579,  3495.574, 0.026201,-0.006646,-0.998522, 0.000255,-0.000080,-0.010002,-0.046850,-0.019284,-0.055210,1,-0.008377,-0.002585, 0.000172,1,-0.243801, 0.092116, 9.803186,1,0
1778778801919,  3495.604,  3495.604, 0.015924,-0.007766,-0.989891, 0.000175,-0.000067,-0.009885,-0.088556, 0.017144, 0.095640,1, 0.005413,-0.002157,-0.000081,1,-0.244645, 0.093468, 9.803152,1,0
1778778801941,  3495.624,  3495.624, 0.018108,-0.013522,-1.006909, 0.000175,-0.000136,-0.010073,-0.066137,-0.040166,-0.071220,1,-0.010008,-0.002600, 0.000106,1,-0.243637, 0.092125, 9.803190,1,0
1778778801962,  3495.649,  3495.644, 0.020382,-0.008355,-0.987875, 0.000225,-0.000072,-0.009877, 0.023878, 0.047233, 0.080382,1, 0.008244, 0.007245,-0.000316,1,-0.244744, 0.092467, 9.803160,1,0
1778778801989,  3495.674,  3495.674, 0.017203,-0.014511,-1.001485, 0.000163,-0.000153,-0.010010,-0.075709,-0.049220,-0.018048,1,-0.008239,-0.002985,-0.000594,1,-0.244318, 0.092825, 9.803166,1,0
1778778802011,  3495.699,  3495.694, 0.018928,-0.006941,-0.988725, 0.000196,-0.000064,-0.009875,-0.013938, 0.068342, 0.098535,1, 0.005069, 0.006346,-0.000897,1,-0.245188, 0.092592, 9.803147,1,0
1778778802033,  3495.719,  3495.714, 0.019445,-0.014103,-1.008401, 0.000175,-0.000151,-0.010080,-0.092788,-0.033511, 0.004650,1,-0.002924,-0.008299, 0.000162,1,-0.243279, 0.093194, 9.803189,1,0
1778778802059,  3495.744,  3495.744, 0.028972,-0.001499,-0.987864, 0.000291,-0.000015,-0.009898, 0.040392, 0.078131, 0.115541,1, 0.010369, 0.009784,-0.001030,1,-0.244035, 0.093157, 9.803170,1,0
1778778802081,  3495.769,  3495.764, 0.014880,-0.016407,-1.006779, 0.000133,-0.000173,-0.010055,-0.102784,-0.048843, 0.074777,1,-0.003411,-0.007193, 0.000693,1,-0.243858, 0.094020, 9.803166,1,0
1778778802103,  3495.789,  3495.784, 0.023969,-0.002549,-0.989708, 0.000235,-0.000019,-0.009918,-0.038081,-0.003246,-0.053620,1,-0.005187, 0.004100,-0.000784,1,-0.243377, 0.092299, 9.803195,1,0
1778778802130,  3495.814,  3495.814, 0.014414,-0.012451,-0.995988, 0.000152,-0.000114,-0.009932,-0.102765,-0.028208, 0.035852,1,-0.002352,-0.008900, 0.000084,1,-0.243840, 0.093818, 9.803169,1,0
1778778802151,  3495.839,  3495.834, 0.027993,-0.003265,-0.987129, 0.000294,-0.000032,-0.009893, 0.024522,-0.010033,-0.057355,1,-0.003194, 0.005750,-0.001219,1,-0.243514, 0.092566, 9.803189,1,0
1778778802173,  3495.859,  3495.854, 0.011230,-0.011924,-0.994810, 0.000120,-0.000112,-0.009919,-0.019901, 0.019184, 0.182215,1, 0.005716, 0.001609, 0.000185,1,-0.244976, 0.093610, 9.803143,1,0
1778778802200,  3495.884,  3495.884, 0.021704,-0.009151,-1.006892, 0.000195,-0.000110,-0.010090,-0.030850, 0.001990,-0.071049,1,-0.005201, 0.005453,-0.000857,1,-0.243863, 0.091572, 9.803190,1,0
1778778802221,  3495.909,  3495.904, 0.020660,-0.011672,-0.993217, 0.000208,-0.000112,-0.009903, 0.012377, 0.042404, 0.179282,1, 0.009088, 0.003157,-0.000333,1,-0.245554, 0.093103, 9.803133,1,0
1778778802243,  3495.929,  3495.924, 0.023961,-0.011326,-1.005550, 0.000227,-0.000130,-0.010073,-0.060250,-0.065185,-0.074254,1,-0.005902,-0.006569, 0.000863,1,-0.242956, 0.092746, 9.803202,1,0
1778778802270,  3495.954,  3495.954, 0.021484,-0.005891,-0.979677, 0.000225,-0.000057,-0.009796,-0.033935, 0.035481, 0.195807,1, 0.003098, 0.003101,-0.000649,1,-0.244721, 0.093344, 9.803152,1,0
1778778802291,  3495.979,  3495.974, 0.020036,-0.012303,-1.011465, 0.000198,-0.000126,-0.010130,-0.133565,-0.061445,-0.101519,1,-0.010477,-0.009045, 0.001035,1,-0.242799, 0.091916, 9.803213,1,0
1778778802313,  3495.999,  3495.994, 0.025933,-0.004987,-0.979946, 0.000278,-0.000044,-0.009809, 0.020626, 0.044964, 0.063212,1, 0.007891, 0.010040,-0.001277,1,-0.243935, 0.092143, 9.803183,1,0
1778778802340,  3496.024,  3496.024, 0.017950,-0.014159,-1.003480, 0.000181,-0.000141,-0.010019,-0.067766,-0.046460,-0.037597,1,-0.010777,-0.007348, 0.001165,1,-0.243563, 0.092062, 9.803193,1,0
1778778802361,  3496.049,  3496.044, 0.020903,-0.005884,-0.982786, 0.000214,-0.000049,-0.009825,-0.001374, 0.044102, 0.080992,1, 0.005138, 0.007857,-0.000749,1,-0.244428, 0.091621, 9.803175,1,0
1778778802383,  3496.069,  3496.064, 0.013852,-0.013726,-1.010028, 0.000122,-0.000143,-0.010079,-0.112757,-0.010534, 0.074448,1,-0.003157,-0.008623, 0.000093,1,-0.244192, 0.092221, 9.803176,1,0
1778778802410,  3496.094,  3496.094, 0.030336,-0.002378,-0.992762, 0.000296,-0.000037,-0.009959, 0.053404, 0.067902, 0.067520,1, 0.007413, 0.012394,-0.000687,1,-0.244477, 0.091452, 9.803176,1,0
1778778802432,  3496.119,  3496.114, 0.012206,-0.015959,-1.005924, 0.000123,-0.000161,-0.010037,-0.069307,-0.020708, 0.134301,1,-0.000796,-0.006531, 0.000705,1,-0.243863, 0.092682, 9.803180,1,0
1778778802454,  3496.139,  3496.139, 0.022029,-0.002806,-0.994528, 0.000223,-0.000041,-0.009980,-0.027238, 0.063628, 0.050217,1, 0.004578, 0.010744,-0.001292,1,-0.243608, 0.091285, 9.803199,1,0
1778778802480,  3496.164,  3496.164, 0.017160,-0.010570,-0.991228, 0.000188,-0.000096,-0.009880,-0.075625,-0.011657, 0.082560,1,-0.003021,-0.008277, 0.001352,1,-0.243648, 0.091906, 9.803192,1,0
1778778802502,  3496.189,  3496.184, 0.027578,-0.004019,-0.990728, 0.000281,-0.000048,-0.009943,-0.016185,-0.020012,-0.116715,1, 0.000605, 0.004907,-0.000132,1,-0.242901, 0.090817, 9.803221,1,0
1778778802524,  3496.209,  3496.209, 0.015551,-0.012663,-0.986869, 0.000169,-0.000121,-0.009834,-0.092130,-0.030688, 0.125276,1,-0.001961,-0.008545, 0.000158,1,-0.244370, 0.093436, 9.803160,1,0
1778778802550,  3496.234,  3496.234, 0.021035,-0.010567,-1.011065, 0.000186,-0.000120,-0.010125,-0.036897,-0.012032,-0.111957,1,-0.007042, 0.002049,-0.000430,1,-0.243247, 0.091375, 9.803206,1,0
1778778802572,  3496.259,  3496.254, 0.018903,-0.009829,-0.992268, 0.000193,-0.000099,-0.009896, 0.022852, 0.036812, 0.156862,1, 0.006098, 0.004875, 0.000040,1,-0.244964, 0.092456, 9.803154,1,0
1778778802594,  3496.279,  3496.279, 0.021717,-0.011889,-1.004909, 0.000206,-0.000128,-0.010070,-0.030817,-0.025259,-0.051600,1,-0.001830, 0.005153,-0.000580,1,-0.243949, 0.091275, 9.803190,1,0
1778778802620,  3496.304,  3496.304, 0.022495,-0.007253,-0.979643, 0.000236,-0.000059,-0.009794,-0.024738, 0.021384, 0.196128,1, 0.006125, 0.003324,-0.000083,1,-0.245438, 0.092699, 9.803140,1,0
1778778802642,  3496.329,  3496.324, 0.021243,-0.009614,-1.008460, 0.000208,-0.000101,-0.010108,-0.096792,-0.041435,-0.084985,1,-0.012062,-0.008295, 0.000318,1,-0.242642, 0.091156, 9.803224,1,0
1778778802665,  3496.349,  3496.349, 0.023431,-0.006217,-0.982226, 0.000247,-0.000049,-0.009822,-0.014350, 0.031098, 0.170830,1, 0.008407, 0.004592,-0.000048,1,-0.244273, 0.092327, 9.803172,1,0
1778778802690,  3496.374,  3496.374, 0.016740,-0.014312,-1.006498, 0.000162,-0.000144,-0.010050,-0.079083,-0.048645,-0.067165,1,-0.006707,-0.006468, 0.000601,1,-0.243043, 0.091497, 9.803211,1,0
1778778802712,  3496.399,  3496.394, 0.022206,-0.006459,-0.983311, 0.000223,-0.000066,-0.009828,-0.002794, 0.041078, 0.092363,1, 0.008030, 0.008526,-0.001346,1,-0.244146, 0.092008, 9.803179,1,0
1778778802735,  3496.419,  3496.419, 0.018527,-0.011923,-1.008580, 0.000170,-0.000127,-0.010071,-0.061468,-0.025396,-0.087581,1,-0.008465,-0.006024, 0.000686,1,-0.242967, 0.091266, 9.803215,1,0
1778778802760,  3496.444,  3496.444, 0.026619,-0.005558,-0.991173, 0.000264,-0.000059,-0.009934, 0.017051, 0.037247, 0.083095,1, 0.010248, 0.009390,-0.000135,1,-0.244286, 0.092074, 9.803175,1,0
1778778802782,  3496.469,  3496.464, 0.015582,-0.014219,-1.006173, 0.000148,-0.000147,-0.010054,-0.027532, 0.019771, 0.158166,1, 0.007511, 0.002690, 0.000613,1,-0.244706, 0.093004, 9.803155,1,0
1778778802805,  3496.494,  3496.489, 0.024385,-0.003432,-0.988348, 0.000253,-0.000036,-0.009906,-0.005199, 0.058278, 0.110795,1, 0.007943, 0.008272,-0.000548,1,-0.244591, 0.092182, 9.803166,1,0
1778778802830,  3496.514,  3496.514, 0.015603,-0.014058,-0.995755, 0.000169,-0.000131,-0.009934,-0.090415,-0.045345, 0.038174,1,-0.006465,-0.007867, 0.000635,1,-0.243091, 0.092318, 9.803202,1,0
1778778802852,  3496.539,  3496.534, 0.026540,-0.003432,-0.988094, 0.000269,-0.000031,-0.009903,-0.006388, 0.016378,-0.052371,1, 0.000940, 0.006145,-0.000746,1,-0.242930, 0.091190, 9.803217,1,0
1778778802875,  3496.564,  3496.559, 0.015312,-0.013004,-0.994871, 0.000155,-0.000124,-0.009919,-0.093712,-0.034752, 0.046830,1,-0.005190,-0.007688, 0.000530,1,-0.243636, 0.092617, 9.803185,1,0
1778778802901,  3496.584,  3496.584, 0.023284,-0.009008,-1.002674, 0.000217,-0.000103,-0.010050,-0.014922, 0.003157,-0.029670,1,-0.000123, 0.005441,-0.000922,1,-0.243433, 0.091496, 9.803201,1,0
1778778802922,  3496.609,  3496.604, 0.016177,-0.011557,-0.998113, 0.000161,-0.000115,-0.009954,-0.028949, 0.017882, 0.149627,1, 0.003762,-0.000709,-0.000287,1,-0.244449, 0.092763, 9.803164,1,0
1778778802945,  3496.634,  3496.629, 0.025629,-0.008753,-1.000906, 0.000247,-0.000096,-0.010035, 0.007864, 0.005355,-0.012332,1, 0.000448, 0.006860,-0.001198,1,-0.243684, 0.091208, 9.803198,1,0
1778778802971,  3496.654,  3496.654, 0.020662,-0.008318,-0.984375, 0.000224,-0.000070,-0.009831,-0.041972, 0.010847, 0.149746,1, 0.005765,-0.000492, 0.000346,1,-0.244579, 0.092598, 9.803163,1,0
1778778802992,  3496.679,  3496.674, 0.022889,-0.009593,-1.001361, 0.000228,-0.000104,-0.010038,-0.098847,-0.056168,-0.076203,1,-0.006990,-0.002971, 0.000317,1,-0.243396, 0.091655, 9.803201,1,0
1778778803015,  3496.704,  3496.699, 0.020935,-0.006917,-0.985881, 0.000232,-0.000060,-0.009850,-0.039302, 0.024499, 0.134970,1, 0.004008,-0.001531, 0.000883,1,-0.244558, 0.092457, 9.803164,1,0
1778778803041,  3496.724,  3496.724, 0.017680,-0.015403,-1.008957, 0.000167,-0.000162,-0.010086,-0.068955,-0.059382,-0.091266,1,-0.007640,-0.004119, 0.000085,1,-0.242200, 0.091431, 9.803232,1,0
1778778803062,  3496.749,  3496.744, 0.021327,-0.004766,-0.982698, 0.000217,-0.000043,-0.009813, 0.011852,-0.001467,-0.029238,1,-0.000371, 0.006036,-0.001150,1,-0.242669, 0.091196, 9.803223,1,0
1778778803085,  3496.774,  3496.769, 0.016827,-0.015235,-1.010183, 0.000149,-0.000163,-0.010094,-0.077484,-0.057941,-0.103284,1,-0.010208,-0.004702, 0.000127,1,-0.242349, 0.091149, 9.803231,1,0
1778778803111,  3496.794,  3496.794, 0.027140,-0.002467,-0.987762, 0.000265,-0.000021,-0.009896, 0.022726, 0.067122, 0.116562,1, 0.008723, 0.010248,-0.000994,1,-0.243748, 0.091590, 9.803192,1,0
1778778803132,  3496.819,  3496.814, 0.016390,-0.014562,-1.008104, 0.000159,-0.000148,-0.010079,-0.096914,-0.033698, 0.042510,1,-0.005719,-0.007781, 0.001426,1,-0.243259, 0.092002, 9.803201,1,0
1778778803159,  3496.844,  3496.844, 0.026272,-0.003835,-0.986829, 0.000275,-0.000031,-0.009887, 0.013824, 0.053658, 0.125711,1, 0.008220, 0.009457,-0.000573,1,-0.244115, 0.091524, 9.803184,1,0
1778778803181,  3496.864,  3496.864, 0.014405,-0.014164,-0.996993, 0.000153,-0.000132,-0.009942,-0.102573,-0.046800, 0.026019,1,-0.004358,-0.008977, 0.001281,1,-0.243555, 0.091965, 9.803194,1,0
1778778803202,  3496.889,  3496.884, 0.026245,-0.002995,-0.986172, 0.000265,-0.000022,-0.009877,-0.009199, 0.021701,-0.032652,1,-0.000185, 0.005108,-0.001753,1,-0.243278, 0.090815, 9.803211,1,0
1778778803230,  3496.914,  3496.914, 0.016105,-0.014046,-0.998543, 0.000159,-0.000139,-0.009951,-0.032370, 0.023481, 0.164927,1, 0.004456,-0.000571, 0.000638,1,-0.244362, 0.092218, 9.803171,1,0
1778778803251,  3496.939,  3496.934, 0.026408,-0.002777,-0.987359, 0.000258,-0.000029,-0.009892, 0.005983, 0.015576,-0.046467,1, 0.000393, 0.006971,-0.001913,1,-0.242235, 0.090566, 9.803240,1,1
1778778803273,  3496.954,  3496.954, 0.021459,-0.007354,-0.982695, 0.000220,-0.000062,-0.009809,-0.032963, 0.020059, 0.166254,1, 0.006068,-0.000248,-0.000299,1,-0.243395, 0.092363, 9.803194,1,1
1778778803300,  3496.984,  3496.984, 0.023001,-0.008092,-1.001419, 0.000228,-0.000099,-0.010045,-0.016602, 0.011787,-0.017332,1, 0.001010, 0.006761,-0.000792,1,-0.242379, 0.091176, 9.803230,1,1
1778778803321,  3497.009,  3497.004, 0.015691,-0.013054,-0.999651, 0.000166,-0.000124,-0.009971,-0.050431, 0.007510, 0.151194,1, 0.003691,-0.002399, 0.000287,1,-0.243176, 0.092565, 9.803198,1,1
1778778803343,  3497.029,  3497.024, 0.024554,-0.007110,-0.999398, 0.000250,-0.000075,-0.010021,-0.061148,-0.024527,-0.086287,1,-0.005932,-0.004257, 0.000437,1,-0.241667, 0.091254, 9.803247,1,1
1778778803370,  3497.054,  3497.054, 0.018220,-0.009956,-0.986062, 0.000197,-0.000094,-0.009843,-0.064648,-0.004543, 0.133224,1, 0.003511,-0.001783, 0.000233,1,-0.243272, 0.093206, 9.803189,1,1
1778778803391,  3497.079,  3497.074, 0.024729,-0.006616,-0.998006, 0.000243,-0.000079,-0.010000,-0.057580,-0.034667,-0.078945,1,-0.009994,-0.002481,-0.000578,1,-0.242151, 0.091386, 9.803234,1,1
1778778803413,  3497.099,  3497.094, 0.020552,-0.008990,-0.987433, 0.000210,-0.000082,-0.009853, 0.011086, 0.052896, 0.139326,1, 0.008248, 0.006678,-0.000775,1,-0.243454, 0.091887, 9.803197,1,1
1778778803440,  3497.124,  3497.124, 0.021932,-0.013166,-1.006774, 0.000202,-0.000144,-0.010069,-0.026134,-0.037522,-0.069822,1,-0.007743,-0.001740, 0.000028,1,-0.241157, 0.091351, 9.803259,1,1
1778778803461,  3497.149,  3497.144, 0.016125,-0.010192,-0.988746, 0.000172,-0.000094,-0.009871,-0.012018, 0.051502, 0.129343,1, 0.009267, 0.005847,-0.001260,1,-0.242295, 0.092446, 9.803221,1,1
1778778803483,  3497.169,  3497.164, 0.020258,-0.012668,-1.007659, 0.000196,-0.000134,-0.010084,-0.097247,-0.051265,-0.028103,1,-0.006784,-0.007743, 0.000753,1,-0.241395, 0.092353, 9.803244,1,1
1778778803510,  3497.194,  3497.194, 0.025037,-0.004556,-0.984993, 0.000263,-0.000037,-0.009862, 0.003501, 0.048139, 0.143744,1, 0.011798, 0.005817,-0.000470,1,-0.242208, 0.093182, 9.803216,1,1
1778778803531,  3497.219,  3497.214, 0.016377,-0.012408,-1.007610, 0.000165,-0.000129,-0.010082,-0.095184,-0.050518,-0.031673,1,-0.003581,-0.007897, 0.000746,1,-0.241039, 0.093775, 9.803239,1,1
1778778803553,  3497.239,  3497.234, 0.021197,-0.007539,-0.988913, 0.000217,-0.000071,-0.009896,-0.024386, 0.016599, 0.018094,1, 0.002604, 0.008419,-0.000822,1,-0.241596, 0.093291, 9.803229,1,1
1778778803580,  3497.264,  3497.264, 0.020090,-0.013452,-1.002236, 0.000186,-0.000140,-0.010011,-0.044928,-0.038205,-0.025356,1,-0.005843,-0.004874,-0.000349,1,-0.241788, 0.093530, 9.803223,1,1
1778778803602,  3497.289,  3497.284, 0.022108,-0.003523,-0.983630, 0.000230,-0.000028,-0.009839, 0.014206, 0.073125, 0.079429,1, 0.003242, 0.007508,-0.001119,1,-0.242455, 0.093077, 9.803210,1,1
1778778803623,  3497.309,  3497.304, 0.016533,-0.016297,-1.003541, 0.000151,-0.000165,-0.010013,-0.084479,-0.023422, 0.100831,1, 0.001727,-0.003536, 0.000864,1,-0.242758, 0.094343, 9.803191,1,1
1778778803650,  3497.334,  3497.334, 0.025442,-0.002401,-0.997025, 0.000252,-0.000031,-0.009989, 0.008497, 0.069804, 0.025763,1, 0.006359, 0.007448,-0.002011,1,-0.241237, 0.093548, 9.803236,1,1
1778778803672,  3497.359,  3497.354, 0.016870,-0.017041,-1.003866, 0.000173,-0.000172,-0.010030,-0.079741,-0.039045, 0.085421,1,-0.000306,-0.002666, 0.001062,1,-0.241779, 0.094771, 9.803211,1,1
1778778803694,  3497.379,  3497.379, 0.023365,-0.004461,-0.987920, 0.000244,-0.000041,-0.009902,-0.012860, 0.049526, 0.115034,1, 0.006392, 0.009373,-0.000628,1,-0.242282, 0.093476, 9.803211,1,1
1778778803720,  3497.404,  3497.404, 0.013183,-0.013096,-0.994556, 0.000141,-0.000125,-0.009919,-0.112972,-0.034171, 0.049943,1,-0.002745,-0.008382, 0.000994,1,-0.241993, 0.094176, 9.803211,1,1
1778778803742,  3497.429,  3497.424, 0.029643,-0.003398,-0.992184, 0.000294,-0.000038,-0.009942, 0.000351, 0.006497,-0.067423,1,-0.006267, 0.004440,-0.000911,1,-0.241435, 0.092171, 9.803245,1,1
1778778803765,  3497.449,  3497.449, 0.017418,-0.011104,-0.994311, 0.000172,-0.000105,-0.009917,-0.071983,-0.015316, 0.052338,1, 0.001227,-0.004550, 0.000807,1,-0.242649, 0.093621, 9.803201,1,1
1778778803790,  3497.474,  3497.474, 0.021583,-0.010539,-1.001692, 0.000196,-0.000121,-0.010033,-0.030512,-0.010604,-0.020026,1,-0.002868, 0.002496,-0.000957,1,-0.242249, 0.092659, 9.803220,1,1
1778778803812,  3497.499,  3497.494, 0.018518,-0.012266,-0.998608, 0.000183,-0.000117,-0.009969,-0.030449, 0.034053, 0.112468,1, 0.005180, 0.001843,-0.000476,1,-0.243224, 0.093636, 9.803186,1,1
1778778803835,  3497.519,  3497.519, 0.026122,-0.008304,-1.001018, 0.000262,-0.000092,-0.010032, 0.014835, 0.011489,-0.013395,1,-0.000224, 0.004387,-0.001082,1,-0.241467, 0.092913, 9.803236,1,1
1778778803860,  3497.544,  3497.544, 0.015402,-0.009479,-0.985205, 0.000171,-0.000084,-0.009847,-0.091389, 0.001267, 0.141636,1, 0.006705, 0.001214, 0.000241,1,-0.242467, 0.094437, 9.803197,1,1
1778778803882,  3497.569,  3497.564, 0.023687,-0.007458,-0.998934, 0.000238,-0.000090,-0.010010,-0.082894,-0.054061,-0.059506,1,-0.010972,-0.003380, 0.000272,1,-0.241459, 0.092998, 9.803236,1,1
1778778803905,  3497.589,  3497.589, 0.021132,-0.007242,-0.987123, 0.000228,-0.000062,-0.009862,-0.035265, 0.022328, 0.122841,1, 0.005739,-0.001824, 0.000171,1,-0.242439, 0.093529, 9.803206,1,1
1778778803930,  3497.614,  3497.614, 0.018466,-0.012187,-1.003847, 0.000176,-0.000127,-0.010040,-0.060340,-0.026523,-0.041136,1,-0.006212,-0.004009, 0.000252,1,-0.241307, 0.092802, 9.803242,1,1
1778778803952,  3497.639,  3497.634, 0.020563,-0.009167,-0.989507, 0.000207,-0.000110,-0.009880, 0.000676, 0.040400, 0.114326,1, 0.006592, 0.005549,-0.001097,1,-0.242368, 0.093205, 9.803211,1,1
1778778803975,  3497.659,  3497.659, 0.021940,-0.011330,-1.004575, 0.000198,-0.000126,-0.010048,-0.026643,-0.018469,-0.048280,1,-0.008582,-0.000308,-0.001270,1,-0.241793, 0.092376, 9.803233,1,1
1778778804001,  3497.684,  3497.684, 0.023989,-0.003250,-0.988600, 0.000244,-0.000026,-0.009890,-0.007231, 0.060313, 0.108361,1, 0.003660, 0.004831,-0.000238,1,-0.242633, 0.092302, 9.803213,1,1
1778778804022,  3497.709,  3497.704, 0.020384,-0.014664,-1.008483, 0.000193,-0.000148,-0.010094,-0.107559,-0.045588,-0.036710,1,-0.004665,-0.005106, 0.001538,1,-0.241937, 0.092130, 9.803232,1,1
1778778804045,  3497.734,  3497.729, 0.026491,-0.001998,-0.988264, 0.000282,-0.000010,-0.009894, 0.017928, 0.072125, 0.111680,1, 0.007385, 0.007316,-0.000843,1,-0.242091, 0.091947, 9.803230,1,1
1778778804071,  3497.754,  3497.754, 0.013489,-0.016084,-1.000302, 0.000139,-0.000154,-0.009987,-0.109525,-0.065049,-0.006384,1,-0.001276,-0.005372, 0.000845,1,-0.241642, 0.092641, 9.803235,1,1
1778778804092,  3497.779,  3497.774, 0.023598,-0.004858,-0.987877, 0.000238,-0.000043,-0.009881,-0.018882, 0.023844, 0.032768,1,-0.002401, 0.005741,-0.000468,1,-0.241881, 0.091467, 9.803240,1,1
1778778804115,  3497.804,  3497.799, 0.016765,-0.012804,-1.000162, 0.000159,-0.000132,-0.009983,-0.077732,-0.033258,-0.005015,1,-0.002650,-0.005002, 0.001139,1,-0.241985, 0.092225, 9.803230,1,1
1778778804141,  3497.824,  3497.824, 0.030529,-0.007275,-0.991553, 0.000298,-0.000084,-0.009932, 0.056902, 0.020199, 0.079412,1,-0.002061, 0.006647,-0.001110,1,-0.242689, 0.091474, 9.803220,1,1
1778778804162,  3497.849,  3497.844, 0.011048,-0.015196,-1.002880, 0.000105,-0.000149,-0.010017,-0.084623,-0.004679, 0.090506,1, 0.002739,-0.003437, 0.000609,1,-0.243009, 0.092137, 9.803205,1,1
1778778804185,  3497.874,  3497.869, 0.024637,-0.006281,-0.995554, 0.000238,-0.000076,-0.009975,-0.000909, 0.029178, 0.040179,1,-0.001257, 0.005260,-0.001165,1,-0.242680, 0.090738, 9.803226,1,1
1778778804211,  3497.894,  3497.894, 0.021319,-0.007980,-0.989854, 0.000230,-0.000067,-0.009888,-0.034216, 0.013500, 0.096054,1, 0.006702,-0.000792, 0.001127,1,-0.243254, 0.091964, 9.803202,1,1
1778778804232,  3497.919,  3497.914, 0.023345,-0.005686,-0.994402, 0.000242,-0.000067,-0.009958,-0.032356,-0.041570,-0.011727,1,-0.004792,-0.000234,-0.000310,1,-0.241835, 0.091735, 9.803239,1,1
1778778804255,  3497.944,  3497.939, 0.012472,-0.008953,-0.995434, 0.000136,-0.000076,-0.009936,-0.119824, 0.004241, 0.041356,1, 0.005413,-0.003759, 0.000265,1,-0.242017, 0.092207, 9.803229,1,1
1778778804281,  3497.964,  3497.964, 0.021485,-0.012650,-1.008932, 0.000200,-0.000136,-0.010095,-0.030534,-0.032225,-0.090995,1,-0.006494,-0.001727,-0.000893,1,-0.241174, 0.091631, 9.803256,1,1
1778778804302,  3497.989,  3497.984, 0.018606,-0.009467,-0.989101, 0.000191,-0.000089,-0.009875, 0.030068, 0.062428, 0.116552,1, 0.008905, 0.006365,-0.001092,1,-0.242400, 0.092268, 9.803220,1,1
1778778804325,  3498.014,  3498.009, 0.018441,-0.013683,-1.002822, 0.000167,-0.000144,-0.010029,-0.061049,-0.041691,-0.031091,1,-0.008798,-0.001390, 0.000115,1,-0.241852, 0.092222, 9.803233,1,1
1778778804351,  3498.034,  3498.034, 0.024160,-0.004232,-0.988317, 0.000246,-0.000034,-0.009888,-0.005763, 0.050475, 0.111133,1, 0.005208, 0.005832, 0.000225,1,-0.242872, 0.092137, 9.803209,1,1
1778778804373,  3498.059,  3498.054, 0.022357,-0.012567,-1.005342, 0.000216,-0.000129,-0.010063,-0.090180,-0.051537,-0.024790,1,-0.002601,-0.005016, 0.000118,1,-0.242353, 0.092644, 9.803217,1,1
1778778804400,  3498.084,  3498.084, 0.024946,-0.005198,-0.984022, 0.000265,-0.000036,-0.009850, 0.001297, 0.041368, 0.153232,1, 0.008535, 0.006655,-0.000323,1,-0.243544, 0.092609, 9.803188,1,1
1778778804421,  3498.104,  3498.104, 0.013476,-0.015953,-1.000989, 0.000137,-0.000153,-0.009991,-0.110927,-0.063274,-0.013153,1,-0.004629,-0.006772, 0.001106,1,-0.242874, 0.093028, 9.803201,1,1
1778778804443,  3498.129,  3498.124, 0.025776,-0.003418,-0.988172, 0.000259,-0.000016,-0.009885, 0.004440, 0.061276, 0.030561,1,-0.002630, 0.004794,-0.001279,1,-0.241999, 0.091581, 9.803236,1,1
1778778804470,  3498.154,  3498.154, 0.017124,-0.015419,-1.001570, 0.000161,-0.000156,-0.009994,-0.074237,-0.058495,-0.018829,1,-0.003207,-0.005765, 0.001037,1,-0.241986, 0.092616, 9.803226,1,1
1778778804491,  3498.179,  3498.174, 0.023496,-0.005338,-0.987105, 0.000237,-0.000048,-0.009871, 0.021519, 0.035164, 0.044821,1, 0.000051, 0.006154,-0.001634,1,-0.242299, 0.091821, 9.803226,1,1
1778778804513,  3498.199,  3498.194, 0.015981,-0.013741,-1.001257, 0.000149,-0.000139,-0.010001,-0.068110,-0.011519, 0.080402,1, 0.002504,-0.002236, 0.000567,1,-0.242773, 0.092877, 9.803205,1,1
1778778804540,  3498.224,  3498.224, 0.025059,-0.004799,-0.994191, 0.000252,-0.000055,-0.009961, 0.003366, 0.044289, 0.053544,1, 0.001030, 0.006262,-0.000531,1,-0.242574, 0.091384, 9.803224,1,1
1778778804561,  3498.249,  3498.244, 0.015415,-0.016125,-1.001884, 0.000158,-0.000155,-0.010014,-0.089907,-0.028327, 0.063158,1, 0.005371,-0.003509, 0.000277,1,-0.242737, 0.092893, 9.803205,1,1
1778778804583,  3498.269,  3498.264, 0.025846,-0.004209,-0.994339, 0.000269,-0.000047,-0.009956,-0.089907,-0.028327, 0.063158,1, 0.005371,-0.003509, 0.000277,1,-0.242737, 0.092893, 9.803205,1,1
1778778804610,  3498.294,  3498.294, 0.015293,-0.010333,-0.995516, 0.000161,-0.000083,-0.009938,-0.092720,-0.008360, 0.040529,1, 0.003144,-0.002172, 0.001152,1,-0.242629, 0.093068, 9.803206,1,1
1778778804631,  3498.319,  3498.314, 0.023403,-0.003038,-0.995681, 0.000227,-0.000034,-0.009972,-0.044981,-0.012689,-0.051258,1,-0.005621,-0.000443,-0.000757,1,-0.241020, 0.091974, 9.803256,1,1
1778778804653,  3498.339,  3498.334, 0.018956,-0.011393,-0.991606, 0.000189,-0.000112,-0.009901,-0.010299, 0.023438, 0.121366,1, 0.009425, 0.005703,-0.000141,1,-0.242386, 0.093196, 9.803211,1,1
1778778804680,  3498.364,  3498.364, 0.027917,-0.010028,-0.999767, 0.000264,-0.000118,-0.010008, 0.031735,-0.005657,-0.001144,1,-0.007829, 0.001783,-0.001029,1,-0.242094, 0.092434, 9.803226,1,1
1778778804701,  3498.389,  3498.384, 0.011490,-0.011139,-0.992919, 0.000114,-0.000104,-0.009911,-0.048118, 0.050398, 0.141147,1, 0.007071, 0.002039, 0.000378,1,-0.242996, 0.093134, 9.803197,1,1
1778778804723,  3498.409,  3498.404, 0.022969,-0.010183,-1.004115, 0.000220,-0.000113,-0.010056,-0.123289,-0.053637,-0.053269,1,-0.006948,-0.007052, 0.000341,1,-0.241691, 0.092948, 9.803230,1,1
1778778804750,  3498.434,  3498.434, 0.026319,-0.004932,-0.985884, 0.000288,-0.000037,-0.009863, 0.015569, 0.044355, 0.134990,1, 0.008181, 0.004675, 0.000307,1,-0.242679, 0.092978, 9.803205,1,1
1778778804772,  3498.459,  3498.454, 0.018575,-0.009017,-0.998370, 0.000182,-0.000099,-0.010001,-0.096998,-0.038742,-0.005334,1,-0.004169,-0.004470, 0.000293,1,-0.242032, 0.093352, 9.803218,1,1
1778778804793,  3498.479,  3498.474, 0.019751,-0.006336,-0.989525, 0.000204,-0.000051,-0.009886,-0.038124, 0.071027, 0.091425,1, 0.001329, 0.004248,-0.000611,1,-0.242423, 0.092460, 9.803217,1,1
1778778804820,  3498.504,  3498.504, 0.017261,-0.013712,-1.007357, 0.000155,-0.000131,-0.010068,-0.072528,-0.040913,-0.075577,1,-0.002605,-0.004324,-0.000241,1,-0.241670, 0.093478, 9.803226,1,1
1778778804842,  3498.529,  3498.524, 0.023735,-0.005612,-0.983595, 0.000239,-0.000046,-0.009838, 0.051193, 0.074417, 0.080257,1, 0.005169, 0.008175,-0.001374,1,-0.241431, 0.093245, 9.803234,1,1
1778778804863,  3498.549,  3498.544, 0.011227,-0.018262,-1.000116, 0.000103,-0.000181,-0.009988,-0.095500,-0.040342, 0.098857,1, 0.006683,-0.002067, 0.001557,1,-0.241988, 0.095171, 9.803202,1,1
1778778804890,  3498.574,  3498.574, 0.020319,-0.007788,-0.995645, 0.000207,-0.000092,-0.009969,-0.042206, 0.017794, 0.039285,1, 0.000119, 0.003432,-0.000667,1,-0.241572, 0.094175, 9.803222,1,1
1778778804912,  3498.599,  3498.594, 0.020410,-0.017055,-1.006657, 0.000206,-0.000169,-0.010060,-0.077469,-0.047003, 0.022546,1, 0.002109,-0.002028, 0.001257,1,-0.241776, 0.095088, 9.803208,1,1
1778778804935,  3498.619,  3498.619, 0.027126,-0.007393,-0.994363, 0.000287,-0.000076,-0.009962, 0.024088, 0.020921, 0.051849,1, 0.001922, 0.006729,-0.000016,1,-0.242133, 0.093477, 9.803215,1,1
1778778804960,  3498.644,  3498.644, 0.010246,-0.015831,-0.994135, 0.000119,-0.000154,-0.009925,-0.142144,-0.060471, 0.054056,1, 0.003319,-0.003001, 0.001371,1,-0.242526, 0.094879, 9.803191,1,1
1778778804982,  3498.669,  3498.664, 0.029876,-0.004885,-0.995069, 0.000297,-0.000064,-0.009966,-0.015257,-0.031852,-0.065607,1,-0.008768, 0.001510,-0.001253,1,-0.242016, 0.093361, 9.803219,1,1
1778778805005,  3498.689,  3498.689, 0.024622,-0.013251,-0.992752, 0.000248,-0.000118,-0.009912,-0.001964,-0.035854, 0.067604,1, 0.003731,-0.001994, 0.000301,1,-0.243362, 0.094215, 9.803177,1,1
1778778805030,  3498.714,  3498.714, 0.025460,-0.010531,-0.998524, 0.000246,-0.000115,-0.009999, 0.007737,-0.009738, 0.011041,1,-0.005358, 0.000545,-0.001850,1,-0.241875, 0.093395, 9.803222,1,1
1778778805052,  3498.739,  3498.734, 0.017350,-0.014126,-0.992041, 0.000165,-0.000137,-0.009898,-0.061435, 0.034010, 0.187523,1, 0.009019, 0.002219,-0.000740,1,-0.243046, 0.094726, 9.803180,1,1
1778778805075,  3498.759,  3498.759, 0.029864,-0.004710,-1.005548, 0.000284,-0.000049,-0.010073, 0.051718, 0.046473,-0.057806,1,-0.007019, 0.000854,-0.001197,1,-0.241171, 0.092445, 9.803248,1,1
1778778805100,  3498.784,  3498.784, 0.023429,-0.002475,-0.984949, 0.000259,-0.000010,-0.009849,-0.012253, 0.069776, 0.144157,1, 0.015754, 0.001825,-0.001256,1,-0.242069, 0.094537, 9.803206,1,1
1778778805122,  3498.809,  3498.804, 0.021749,-0.007620,-1.001398, 0.000218,-0.000080,-0.010028,-0.094950,-0.022938,-0.018279,1,-0.006935,-0.007926,-0.000510,1,-0.240699, 0.094769, 9.803238,1,1
1778778805145,  3498.829,  3498.829, 0.019063,-0.003938,-0.992544, 0.000201,-0.000030,-0.009916,-0.054101, 0.055432, 0.069709,1, 0.005528,-0.000669,-0.000452,1,-0.241026, 0.094225, 9.803235,1,1
1778778805171,  3498.854,  3498.854, 0.019501,-0.011670,-1.007757, 0.000178,-0.000124,-0.010073,-0.048811,-0.020406,-0.079458,1,-0.006676,-0.004715,-0.000375,1,-0.239905, 0.093829, 9.803267,1,1
1778778805192,  3498.879,  3498.874, 0.020004,-0.006663,-0.984895, 0.000208,-0.000054,-0.009844, 0.030657, 0.087547, 0.091810,1, 0.005191, 0.008655,-0.001254,1,-0.240919, 0.093580, 9.803244,1,1
1778778805215,  3498.899,  3498.899, 0.014410,-0.019148,-1.005149, 0.000125,-0.000200,-0.010036,-0.099265,-0.093513,-0.053899,1,-0.011542,-0.006439,-0.000384,1,-0.240378, 0.093901, 9.803254,1,1
1778778805241,  3498.924,  3498.924, 0.021517,-0.002184,-0.992433, 0.000212,-0.000023,-0.009942,-0.028931, 0.070618, 0.070841,1, 0.000762, 0.008623,-0.000560,1,-0.240210, 0.092052, 9.803275,1,1
1778778805262,  3498.949,  3498.944, 0.022295,-0.016690,-1.004693, 0.000219,-0.000168,-0.010041,-0.062551,-0.047261, 0.057883,1,-0.002671,-0.004762, 0.000524,1,-0.240481, 0.092570, 9.803264,1,1
1778778805285,  3498.974,  3498.969, 0.021642,-0.006582,-0.988615, 0.000227,-0.000056,-0.009904,-0.028695, 0.026594, 0.108268,1, 0.007154, 0.009097,-0.000488,1,-0.241216, 0.091364, 9.803257,1,1
1778778805311,  3498.994,  3498.994, 0.013215,-0.013878,-0.997839, 0.000140,-0.000141,-0.009956,-0.111515,-0.044468, 0.017803,1,-0.008619,-0.007753, 0.000887,1,-0.240868, 0.091361, 9.803266,1,1
1778778805332,  3499.019,  3499.014, 0.027770,-0.005760,-0.989866, 0.000282,-0.000052,-0.009914, 0.008036, 0.011411,-0.021776,1,-0.001669, 0.004810, 0.000031,1,-0.240814, 0.089560, 9.803284,1,1
1778778805355,  3499.044,  3499.039, 0.017758,-0.013937,-0.996512, 0.000180,-0.000138,-0.009948,-0.067534,-0.044785, 0.030793,1, 0.000909,-0.005453, 0.000550,1,-0.241512, 0.091923, 9.803245,1,1
1778778805381,  3499.064,  3499.064, 0.026018,-0.007174,-0.995153, 0.000249,-0.000092,-0.009966, 0.013733, 0.020855, 0.044138,1,-0.002082, 0.003315,-0.000954,1,-0.241517, 0.091144, 9.803252,1,1
1778778805402,  3499.084,  3499.084, 0.019726,-0.008954,-0.990239, 0.000192,-0.000081,-0.009882,-0.048626, 0.004120, 0.092299,1, 0.003335,-0.000667, 0.000425,1,-0.242054, 0.092033, 9.803230,1,1
1778778805425,  3499.114,  3499.109, 0.024321,-0.001850,-0.995724, 0.000246,-0.000036,-0.009981,-0.002076, 0.073282, 0.038555,1, 0.003571, 0.006428,-0.001864,1,-0.240701, 0.091556, 9.803268,1,1
1778778805451,  3499.134,  3499.134, 0.015688,-0.010146,-0.988442, 0.000168,-0.000089,-0.009869,-0.087386,-0.006167, 0.109933,1, 0.007237,-0.003185,-0.000067,1,-0.241134, 0.093554, 9.803239,1,1
1778778805472,  3499.159,  3499.154, 0.025515,-0.001967,-0.994556, 0.000266,-0.000029,-0.009969,-0.026169,-0.025332,-0.061536,1,-0.006709,-0.001111,-0.001285,1,-0.240138, 0.092550, 9.803272,1,1
1778778805495,  3499.184,  3499.179, 0.014001,-0.007715,-0.992388, 0.000150,-0.000058,-0.009898,-0.103490, 0.017750, 0.071242,1, 0.004193,-0.005716, 0.000882,1,-0.240613, 0.093541, 9.803251,1,1
1778778805521,  3499.204,  3499.204, 0.019926,-0.008722,-1.006702, 0.000185,-0.000098,-0.010084,-0.044328, 0.007270,-0.069099,1,-0.004569, 0.000938,-0.000746,1,-0.239764, 0.092665, 9.803281,1,1
1778778805543,  3499.229,  3499.224, 0.016848,-0.011609,-0.994779, 0.000170,-0.000108,-0.009923,-0.013933, 0.045205, 0.144390,1, 0.009318, 0.004963,-0.000481,1,-0.241137, 0.093682, 9.803237,1,1
1778778805565,  3499.254,  3499.249, 0.023647,-0.011381,-1.003500, 0.000215,-0.000130,-0.010055,-0.008323,-0.017998,-0.037718,1,-0.004304, 0.003186,-0.001369,1,-0.240322, 0.093480, 9.803259,1,1
1778778805591,  3499.274,  3499.274, 0.023060,-0.006697,-0.983522, 0.000235,-0.000057,-0.009831,-0.015419, 0.027991, 0.158172,1, 0.002593, 0.004084, 0.000078,1,-0.241689, 0.093750, 9.803223,1,1
1778778805613,  3499.299,  3499.294, 0.021787,-0.014713,-1.005432, 0.000203,-0.000157,-0.010074,-0.106487,-0.097517,-0.085458,1,-0.007967,-0.004502, 0.000915,1,-0.240713, 0.093153, 9.803253,1,1
1778778805640,  3499.324,  3499.324, 0.023465,-0.007241,-0.983285, 0.000248,-0.000056,-0.009828,-0.010870, 0.021143, 0.160519,1, 0.003071, 0.004287, 0.000238,1,-0.241112, 0.092249, 9.803251,1,1
1778778805661,  3499.344,  3499.344, 0.020006,-0.016570,-1.004567, 0.000203,-0.000169,-0.010044,-0.044227,-0.070546,-0.048161,1,-0.005712,-0.003983, 0.001115,1,-0.240293, 0.091775, 9.803276,1,1
1778778805683,  3499.369,  3499.364, 0.018157,-0.007945,-0.986579, 0.000197,-0.000068,-0.009853, 0.003150, 0.046340, 0.119034,1, 0.001315, 0.005203,-0.001002,1,-0.241070, 0.091063, 9.803264,1,1
1778778805710,  3499.394,  3499.394, 0.017770,-0.012227,-1.009943, 0.000163,-0.000130,-0.010098,-0.065647,-0.029086,-0.100862,1,-0.004443,-0.004497, 0.000080,1,-0.239766, 0.090678, 9.803299,1,1
1778778805731,  3499.419,  3499.414, 0.024996,-0.004955,-0.985172, 0.000259,-0.000046,-0.009838, 0.057695, 0.070305, 0.127740,1, 0.007678, 0.006973,-0.001369,1,-0.240948, 0.091238, 9.803265,1,1
1778778805753,  3499.439,  3499.434, 0.017663,-0.011126,-1.003251, 0.000164,-0.000122,-0.010036,-0.066562,-0.020853, 0.022042,1, 0.002373,-0.005291, 0.000089,1,-0.240530, 0.092344, 9.803265,1,1
1778778805780,  3499.464,  3499.464, 0.021525,-0.000873,-0.982375, 0.000217,-0.000011,-0.009829,-0.029600, 0.084390, 0.169449,1, 0.005985, 0.003713,-0.001390,1,-0.240807, 0.093140, 9.803250,1,1
1778778805801,  3499.489,  3499.484, 0.018926,-0.010986,-1.008631, 0.000179,-0.000113,-0.010093,-0.116257,-0.012075,-0.026724,1,-0.000123,-0.007890, 0.000292,1,-0.239669, 0.093656, 9.803273,1,1
1778778805823,  3499.509,  3499.504, 0.025845,-0.001925,-0.988757, 0.000272,-0.000011,-0.009895,-0.116257,-0.012075,-0.026724,1,-0.000123,-0.007890, 0.000292,1,-0.239669, 0.093656, 9.803273,1,1
1778778805850,  3499.534,  3499.534, 0.013654,-0.015684,-1.005458, 0.000144,-0.000145,-0.010038,-0.105028,-0.058464,-0.056898,1, 0.002920,-0.005475, 0.001506,1,-0.238756, 0.095437, 9.803279,1,1
1778778805872,  3499.559,  3499.554, 0.021914,-0.004604,-0.987763, 0.000222,-0.000036,-0.009880,-0.035617, 0.036321, 0.014351,1,-0.000178, 0.006212,-0.000880,1,-0.239190, 0.095094, 9.803271,1,1
1778778805893,  3499.579,  3499.574, 0.015269,-0.015973,-1.006708, 0.000145,-0.000158,-0.010049,-0.077149,-0.010867, 0.071701,1, 0.000476,-0.001517, 0.001289,1,-0.239831, 0.095478, 9.803252,1,1
1778778805920,  3499.604,  3499.604, 0.030517,-0.006066,-0.991799, 0.000296,-0.000081,-0.009947, 0.058787, 0.034739, 0.077022,1,-0.002917, 0.011165,-0.000836,1,-0.240828, 0.094139, 9.803241,1,1
1778778805942,  3499.629,  3499.624, 0.013123,-0.017570,-1.003063, 0.000125,-0.000178,-0.010009,-0.065199,-0.041016, 0.132445,1,-0.001321,-0.002363, 0.001113,1,-0.241825, 0.094276, 9.803215,1,1
1778778805963,  3499.649,  3499.644, 0.022743,-0.008443,-0.991321, 0.000212,-0.000096,-0.009932,-0.074625,-0.086577,-0.058750,1,-0.008809, 0.001385,-0.000275,1,-0.241198, 0.092623, 9.803246,1,1
1778778805990,  3499.674,  3499.674, 0.018720,-0.013282,-0.992336, 0.000195,-0.000126,-0.009893,-0.058879,-0.038709, 0.071728,1,-0.006981,-0.004118, 0.001066,1,-0.242327, 0.091322, 9.803230,1,1
1778778806012,  3499.699,  3499.694, 0.025522,-0.004681,-0.986798, 0.000261,-0.000058,-0.009900,-0.017115,-0.046928,-0.064302,1,-0.006688, 0.005249,-0.000850,1,-0.242097, 0.089692, 9.803251,1,1
1778778806033,  3499.719,  3499.714, 0.012465,-0.011974,-0.992709, 0.000140,-0.000109,-0.009893,-0.022565, 0.037268, 0.206320,1, 0.002035, 0.003274, 0.000008,1,-0.242765, 0.090221, 9.803229,1,1
1778778806060,  3499.744,  3499.744, 0.022052,-0.009790,-1.009093, 0.000202,-0.000116,-0.010113,-0.024968,-0.006572,-0.092546,1,-0.001193, 0.002611,-0.001162,1,-0.241310, 0.089399, 9.803273,1,1
1778778806082,  3499.769,  3499.764, 0.019675,-0.008005,-0.996948, 0.000197,-0.000077,-0.009940, 0.019813, 0.065547, 0.149088,1, 0.006176,-0.000444,-0.000697,1,-0.242340, 0.090560, 9.803237,1,1
1778778806103,  3499.789,  3499.784, 0.022333,-0.008792,-1.001976, 0.000198,-0.000094,-0.010046,-0.080946,-0.032328,-0.103578,1, 0.002576,-0.004766, 0.000201,1,-0.241037, 0.091178, 9.803264,1,1
1778778806130,  3499.814,  3499.814, 0.022594,-0.005175,-0.981038, 0.000232,-0.000050,-0.009795,-0.020716, 0.042287, 0.182521,1, 0.005208,-0.001964,-0.000927,1,-0.242232, 0.093194, 9.803215,1,1
1778778806152,  3499.839,  3499.834, 0.022686,-0.007604,-0.999500, 0.000217,-0.000090,-0.010030,-0.088163,-0.036251,-0.115507,1, 0.000080,-0.003539,-0.000258,1,-0.240758, 0.093512, 9.803248,1,1
1778778806175,  3499.859,  3499.859, 0.022523,-0.002467,-0.982235, 0.000250,-0.000016,-0.009808,-0.020794, 0.069718, 0.170791,1, 0.000664,-0.003701, 0.000001,1,-0.241553, 0.093936, 9.803225,1,1
1778778806200,  3499.884,  3499.884, 0.013429,-0.014662,-1.010048, 0.000136,-0.000146,-0.010107,-0.108680,-0.049790,-0.101934,1, 0.000999,-0.003075, 0.000340,1,-0.240275, 0.094029, 9.803255,1,1
1778778806222,  3499.909,  3499.904, 0.022542,-0.002743,-0.985264, 0.000237,-0.000018,-0.009837, 0.007488, 0.079817, 0.139318,1, 0.000210, 0.005595,-0.001666,1,-0.241424, 0.094042, 9.803226,1,1
1778778806245,  3499.929,  3499.929, 0.019320,-0.013706,-1.006574, 0.000183,-0.000142,-0.010068,-0.050427,-0.041537,-0.067842,1,-0.004633,-0.000137, 0.001015,1,-0.239885, 0.092725, 9.803277,1,1
1778778806270,  3499.954,  3499.954, 0.027412,-0.001711,-0.984176, 0.000269,-0.000025,-0.009848, 0.027740, 0.075382, 0.151782,1,-0.002164, 0.006710,-0.001188,1,-0.241289, 0.092093, 9.803248,1,1
1778778806292,  3499.979,  3499.974, 0.016902,-0.014830,-1.012679, 0.000150,-0.000163,-0.010127,-0.113840,-0.027573,-0.027043,1,-0.004567,-0.006839, 0.001359,1,-0.240490, 0.091526, 9.803273,1,1
1778778806315,  3499.999,  3499.999, 0.030162,-0.003504,-0.987372, 0.000295,-0.000035,-0.009882, 0.054402, 0.056667, 0.120447,1, 0.004094, 0.008209,-0.000778,1,-0.241644, 0.091157, 9.803248,1,1
1778778806341,  3500.024,  3500.024, 0.012285,-0.015252,-1.003399, 0.000130,-0.000137,-0.010004,-0.120580,-0.057692,-0.036731,1, 0.002347,-0.007351, 0.001426,1,-0.240829, 0.091951, 9.803261,1,1
1778778806362,  3500.049,  3500.044, 0.022551,-0.005781,-0.986457, 0.000228,-0.000049,-0.009876,-0.050857,-0.025386,-0.010979,1,-0.000184, 0.005626,-0.001212,1,-0.241005, 0.091941, 9.803257,1,1
1778778806385,  3500.069,  3500.069, 0.013301,-0.015232,-1.003960, 0.000143,-0.000144,-0.010017,-0.110746,-0.057445,-0.042235,1,-0.002452,-0.006768, 0.000830,1,-0.240970, 0.091850, 9.803259,1,1
1778778806411,  3500.094,  3500.094, 0.025293,-0.010539,-0.994682, 0.000253,-0.000115,-0.009979, 0.006492,-0.011682, 0.048751,1, 0.002966, 0.009329,-0.001302,1,-0.241835, 0.091763, 9.803238,1,1
1778778806432,  3500.119,  3500.114, 0.014093,-0.017723,-0.998213, 0.000136,-0.000170,-0.009956,-0.036194,-0.022752, 0.192898,1, 0.000912,-0.003858, 0.000482,1,-0.241683, 0.092669, 9.803233,1,1
1778778806455,  3500.139,  3500.139, 0.026478,-0.008857,-0.994237, 0.000254,-0.000107,-0.009970, 0.018942, 0.004869, 0.053136,1, 0.000107, 0.005136,-0.001738,1,-0.240875, 0.091724, 9.803262,1,1
1778778806481,  3500.164,  3500.164, 0.022361,-0.006802,-0.987142, 0.000229,-0.000058,-0.009844,-0.021628, 0.025363, 0.122706,1, 0.001345,-0.007044, 0.000463,1,-0.240698, 0.092112, 9.803263,1,1
1778778806502,  3500.189,  3500.184, 0.028226,-0.007699,-0.991735, 0.000278,-0.000080,-0.009949,-0.029162,-0.014944,-0.095647,1, 0.000841, 0.000903, 0.000072,1,-0.239631, 0.092211, 9.803288,1,1
1778778806525,  3500.214,  3500.209, 0.019538,-0.010197,-0.989132, 0.000207,-0.000093,-0.009859,-0.048954,-0.006748, 0.103181,1, 0.000729,-0.007037, 0.000251,1,-0.240338, 0.093268, 9.803261,1,1
1778778806551,  3500.234,  3500.234, 0.021335,-0.012476,-1.008437, 0.000197,-0.000131,-0.010106,-0.030287,-0.029739,-0.086103,1,-0.004759, 0.003137,-0.000234,1,-0.239608, 0.092457, 9.803287,1,1
1778778806572,  3500.259,  3500.254, 0.019451,-0.004636,-0.993705, 0.000222,-0.000046,-0.009908, 0.062309, 0.048576, 0.161255,1,-0.003442, 0.002370,-0.000437,1,-0.240757, 0.091751, 9.803265,1,1
1778778806595,  3500.284,  3500.279, 0.018288,-0.011732,-1.010899, 0.000172,-0.000130,-0.010126,-0.060042,-0.023971,-0.110225,1,-0.001828, 0.000317, 0.000178,1,-0.239394, 0.091021, 9.803305,1,1
1778778806621,  3500.304,  3500.304, 0.023010, 0.002194,-0.988342, 0.000236, 0.000030,-0.009875,-0.014350, 0.112452, 0.110971,1, 0.001537, 0.000888,-0.000314,1,-0.240030, 0.090979, 9.803289,1,1
1778778806643,  3500.329,  3500.324, 0.020272,-0.008717,-1.008805, 0.000180,-0.000104,-0.010105,-0.112295, 0.005044,-0.113356,1, 0.002703,-0.004203, 0.001111,1,-0.238354, 0.091282, 9.803328,1,1
1778778806665,  3500.354,  3500.349, 0.023156,-0.003827,-0.980725, 0.000232,-0.000024,-0.009804,-0.012782, 0.055142, 0.185651,1, 0.007132, 0.004073,-0.000328,1,-0.239992, 0.092898, 9.803273,1,1
1778778806691,  3500.374,  3500.374, 0.012311,-0.015639,-1.005766, 0.000113,-0.000152,-0.010045,-0.118262,-0.060134,-0.059903,1,-0.002402,-0.005114, 0.000344,1,-0.238835, 0.093154, 9.803299,1,1
1778778806713,  3500.399,  3500.394, 0.025933,-0.005682,-0.982408, 0.000278,-0.000046,-0.009823, 0.024504, 0.032821, 0.092574,1,-0.000562, 0.008228,-0.001229,1,-0.239755, 0.092684, 9.803281,1,1
1778778806735,  3500.424,  3500.419, 0.013927,-0.015245,-1.005941, 0.000145,-0.000146,-0.010051,-0.102875,-0.057009,-0.061619,1,-0.002031,-0.004095, 0.001638,1,-0.239320, 0.092429, 9.803293,1,1
1778778806761,  3500.444,  3500.444, 0.025928,-0.004778,-0.986840, 0.000249,-0.000064,-0.009891, 0.014044, 0.045407, 0.125678,1, 0.001558, 0.009079,-0.000242,1,-0.240505, 0.092308, 9.803266,1,1
1778778806783,  3500.469,  3500.464, 0.013726,-0.015038,-1.007650, 0.000131,-0.000145,-0.010062,-0.091183,-0.001636, 0.084605,1,-0.001044,-0.006225, 0.001529,1,-0.240520, 0.092527, 9.803264,1,1
1778778806806,  3500.494,  3500.489, 0.029889,-0.005414,-0.991853, 0.000288,-0.000072,-0.009944, 0.052734, 0.039103, 0.076519,1, 0.001690, 0.006956,-0.001290,1,-0.240596, 0.092247, 9.803265,1,1
1778778806831,  3500.514,  3500.514, 0.018000,-0.012301,-0.989284, 0.000192,-0.000113,-0.009862,-0.063243,-0.028065, 0.101718,1, 0.001240,-0.005033, 0.001542,1,-0.239513, 0.092588, 9.803288,1,1
1778778806853,  3500.539,  3500.534, 0.022799,-0.006321,-0.991945, 0.000224,-0.000076,-0.009946,-0.049068,-0.057994,-0.083016,1,-0.006382, 0.000333,-0.000644,1,-0.238606, 0.091793, 9.803317,1,1
1778778806880,  3500.564,  3500.564, 0.011079,-0.009261,-0.994551, 0.000136,-0.000085,-0.009919,-0.130409, 0.000810, 0.050096,1,-0.000319,-0.007823, 0.001362,1,-0.238808, 0.091622, 9.803314,1,1
1778778806901,  3500.584,  3500.584, 0.016968,-0.014162,-1.011076, 0.000157,-0.000144,-0.010131,-0.071674,-0.047321,-0.111937,1, 0.000059, 0.003182,-0.000588,1,-0.238169, 0.091558, 9.803329,1,1
1778778806923,  3500.609,  3500.604, 0.019119,-0.013076,-0.991742, 0.000210,-0.000111,-0.009893, 0.034536, 0.012190, 0.149927,1, 0.008303, 0.006491,-0.001140,1,-0.239698, 0.092725, 9.803282,1,1
1778778806950,  3500.634,  3500.634, 0.021918,-0.018638,-1.000256, 0.000199,-0.000193,-0.010017,-0.024659,-0.089027,-0.005884,1,-0.003419, 0.004185,-0.001732,1,-0.239728, 0.093641, 9.803272,1,1
1778778806971,  3500.659,  3500.654, 0.022549,-0.013572,-0.992757, 0.000225,-0.000119,-0.009898, 0.024672, 0.030726, 0.182519,1,-0.003965, 0.002685,-0.000907,1,-0.240733, 0.092494, 9.803259,1,1
1778778806993,  3500.679,  3500.674, 0.027046,-0.012290,-1.007171, 0.000246,-0.000139,-0.010085,-0.040606,-0.074104,-0.070518,1,-0.007112,-0.007020,-0.000509,1,-0.239694, 0.091654, 9.803292,1,1
1778778807020,  3500.704,  3500.704, 0.029743,-0.002717,-0.983070, 0.000305,-0.000030,-0.009831, 0.050894, 0.063878, 0.162649,1, 0.002380, 0.004940,-0.001552,1,-0.240940, 0.090596, 9.803271,1,1
1778778807042,  3500.729,  3500.724, 0.017904,-0.013709,-1.006491, 0.000162,-0.000140,-0.010073,-0.112663,-0.048076,-0.031038,1,-0.004332,-0.006803, 0.000279,1,-0.239221, 0.091009, 9.803309,1,1
1778778807063,  3500.749,  3500.744, 0.023585,-0.000614,-0.986481, 0.000237, 0.000003,-0.009868,-0.016640, 0.057513, 0.046724,1,-0.004696, 0.004218,-0.001542,1,-0.239395, 0.089839, 9.803316,1,1
1778778807090,  3500.774,  3500.774, 0.016432,-0.010116,-1.006675, 0.000149,-0.000069,-0.010046,-0.077754,-0.009192,-0.068784,1,-0.003231,-0.005599, 0.001190,1,-0.238723, 0.089912, 9.803331,1,1
1778778807112,  3500.799,  3500.794, 0.022026,-0.001206,-0.983563, 0.000250,-0.000016,-0.009849, 0.007245, 0.075765, 0.042853,1, 0.003942, 0.005970,-0.000716,1,-0.238955, 0.089623, 9.803329,1,1
1778778807133,  3500.819,  3500.814, 0.000079,-0.002861,-1.006801, 0.000006,-0.000024,-0.010027,-0.087449, 0.014889, 0.112400,1, 0.008711,-0.008951, 0.000926,1,-0.238824, 0.091670, 9.803313,1,1
1778778807160,  3500.844,  3500.844, 0.019874,-0.003615,-1.001318, 0.000218,-0.000058,-0.010053,-0.042842, 0.055849,-0.016237,1,-0.001568, 0.002345,-0.000779,1,-0.237810, 0.091251, 9.803342,1,1
1778778807182,  3500.869,  3500.864, 0.020361,-0.015043,-0.998423, 0.000198,-0.000148,-0.009966,-0.004378, 0.066251, 0.090571,1, 0.016054, 0.002044, 0.000817,1,-0.238854, 0.093677, 9.803293,1,1
1778778807203,  3500.889,  3500.884, 0.024470,-0.007855,-0.990971, 0.000234,-0.000092,-0.009930,-0.037820,-0.051588,-0.016761,1, 0.003087,-0.000150,-0.000874,1,-0.238573, 0.095148, 9.803286,1,1
1778778807230,  3500.914,  3500.914, 0.017141,-0.011751,-0.985197, 0.000185,-0.000105,-0.009833,-0.070659,-0.020306, 0.141804,1,-0.001298,-0.002152, 0.000251,1,-0.238592, 0.094841, 9.803288,1,1
1778778807252,  3500.939,  3500.934, 0.027719,-0.010355,-0.998477, 0.000279,-0.000116,-0.010010,-0.038694,-0.089901,-0.097406,1,-0.008809,-0.000127,-0.000338,1,-0.237796, 0.093376, 9.803322,1,1
1778778807273,  3500.959,  3500.954, 0.020039,-0.012426,-0.983508, 0.000225,-0.000110,-0.009826, 0.045290, 0.032168, 0.151011,1, 0.001863, 0.009570,-0.000757,1,-0.239423, 0.093004, 9.803286,1,1
1778778807300,  3500.984,  3500.984, 0.016464,-0.018654,-1.004630, 0.000160,-0.000195,-0.010048,-0.077576,-0.090876,-0.048756,1,-0.011596,-0.002315,-0.000939,1,-0.238960, 0.091691, 9.803309,1,1
1778778807322,  3501.009,  3501.004, 0.017715,-0.009811,-0.991450, 0.000188,-0.000095,-0.009899,-0.010331, 0.031053, 0.110603,1,-0.002186, 0.005381,-0.001353,1,-0.239965, 0.090399, 9.803297,1,1
1778778807344,  3501.029,  3501.024, 0.020559,-0.015866,-1.016688, 0.000182,-0.000165,-0.010138,-0.117944,-0.038545,-0.059824,1,-0.006433,-0.007769,-0.000350,1,-0.238994, 0.089650, 9.803328,1,1
1778778807370,  3501.054,  3501.054, 0.027693,-0.004486,-0.987126, 0.000246,-0.000019,-0.009886, 0.031565, 0.045115, 0.122908,1, 0.009915, 0.013725,-0.000479,1,-0.240440, 0.089419, 9.803294,1,1
1778778807392,  3501.079,  3501.074, 0.020092,-0.016418,-1.011980, 0.000137,-0.000178,-0.010068,-0.113049,-0.065489,-0.006342,1, 0.002309,-0.009208, 0.001226,1,-0.239753, 0.090896, 9.803297,1,1
1778778807415,  3501.099,  3501.099, 0.012843,-0.000671,-0.985190, 0.000156, 0.000006,-0.009898,-0.114286, 0.085253, 0.141867,1, 0.015298, 0.018972,-0.000002,1,-0.240821, 0.092311, 9.803258,1,1
1778778807441,  3501.124,  3501.124, 0.024912,-0.016612,-0.992677, 0.000212,-0.000167,-0.009835, 0.003863,-0.068331, 0.068406,1, 0.001443,-0.012494, 0.000148,1,-0.240042, 0.094624, 9.803255,1,1
1778778807462,  3501.149,  3501.144, 0.025139,-0.002793,-0.983612, 0.000277,-0.000014,-0.009877, 0.001796, 0.034063,-0.114866,1, 0.007043, 0.008405,-0.001057,1,-0.239312, 0.094213, 9.803277,1,1
1778778807485,  3501.169,  3501.169, 0.015508,-0.011914,-0.995430, 0.000155,-0.000113,-0.009898,-0.088049,-0.019180, 0.041388,1,-0.004376,-0.015168,-0.000440,1,-0.239657, 0.097517, 9.803236,1,1
1778778807511,  3501.194,  3501.194, 0.025682,-0.004800,-1.005787, 0.000240,-0.000056,-0.010104, 0.012835, 0.049447,-0.060141,1, 0.003722, 0.010074,-0.000723,1,-0.239329, 0.096635, 9.803253,1,1
1778778807532,  3501.219,  3501.214, 0.017517,-0.010989,-1.001929, 0.000166,-0.000114,-0.009976,-0.005345, 0.039498, 0.188606,1, 0.000449,-0.003454,-0.000022,1,-0.240629, 0.097794, 9.803209,1,1
1778778807555,  3501.239,  3501.239, 0.026028,-0.004442,-0.999496, 0.000257,-0.000052,-0.010038, 0.015893, 0.051877, 0.001558,1,-0.001570, 0.009312, 0.000120,1,-0.239646, 0.095390, 9.803257,1,1
1778778807581,  3501.264,  3501.264, 0.021339,-0.007404,-0.981807, 0.000231,-0.000065,-0.009795,-0.031494, 0.023280, 0.174990,1,-0.002001,-0.003071, 0.001219,1,-0.240667, 0.095829, 9.803228,1,1
1778778807602,  3501.289,  3501.284, 0.024472,-0.010042,-1.000417, 0.000245,-0.000105,-0.010042,-0.076744,-0.054773,-0.141200,1,-0.007011,-0.001728, 0.000245,1,-0.239242, 0.094094, 9.803280,1,1
1778778807625,  3501.309,  3501.309, 0.020423,-0.010042,-0.981539, 0.000234,-0.000085,-0.009797,-0.040124,-0.004450, 0.177638,1,-0.000721,-0.003584, 0.001544,1,-0.240245, 0.093984, 9.803256,1,1
1778778807651,  3501.334,  3501.334, 0.017479,-0.019157,-1.009398, 0.000166,-0.000195,-0.010090,-0.067554,-0.095329,-0.095511,1,-0.010473,-0.004285,-0.000471,1,-0.238830, 0.092214, 9.803308,1,1
1778778807672,  3501.359,  3501.354, 0.018030,-0.011995,-0.986405, 0.000184,-0.000110,-0.009847,-0.017436, 0.022322, 0.145846,1, 0.000590, 0.005255,-0.001112,1,-0.239848, 0.091433, 9.803290,1,1
1778778807695,  3501.379,  3501.379, 0.016463,-0.015489,-1.013347, 0.000144,-0.000161,-0.010136,-0.076916,-0.061683,-0.134199,1,-0.007260,-0.002738,-0.000585,1,-0.238280, 0.089988, 9.803342,1,1
1778778807721,  3501.404,  3501.404, 0.023433,-0.006632,-0.987000, 0.000236,-0.000062,-0.009886,-0.009797, 0.025784, 0.124141,1, 0.012135, 0.009887,-0.001396,1,-0.239910, 0.091202, 9.803290,1,1
1778778807742,  3501.429,  3501.424, 0.018236,-0.014276,-1.008469, 0.000168,-0.000147,-0.010089,-0.073889,-0.074581,-0.010459,1,-0.000837,-0.007396,-0.000842,1,-0.239392, 0.092481, 9.803291,1,1
1778778807765,  3501.454,  3501.449, 0.023147,-0.003152,-0.983693, 0.000241,-0.000026,-0.009853,-0.013299, 0.062308, 0.156532,1, 0.011904, 0.008055,-0.000639,1,-0.240549, 0.093593, 9.803252,1,1
1778778807791,  3501.474,  3501.474, 0.010238,-0.014655,-1.002240, 0.000108,-0.000148,-0.010002,-0.139587,-0.049024,-0.025365,1,-0.000741,-0.008190, 0.000353,1,-0.239735, 0.094670, 9.803262,1,1
1778778807813,  3501.499,  3501.494, 0.028454, 0.002111,-0.987166, 0.000290, 0.000026,-0.009890, 0.025013, 0.028755,-0.040866,1,-0.000596, 0.006268,-0.000391,1,-0.239919, 0.094021, 9.803264,1,1
1778778807835,  3501.524,  3501.519, 0.013816,-0.009750,-0.993970, 0.000147,-0.000094,-0.009914,-0.104250, 0.000470, 0.055734,1, 0.000287,-0.006049, 0.001733,1,-0.239546, 0.096102, 9.803253,1,1
1778778807861,  3501.544,  3501.544, 0.023093,-0.004781,-0.995410, 0.000226,-0.000065,-0.009982,-0.012715, 0.048467, 0.041632,1,-0.001943, 0.003968,-0.000593,1,-0.239303, 0.095288, 9.803267,1,1
1778778807883,  3501.569,  3501.564, 0.020964,-0.010424,-0.996310, 0.000200,-0.000109,-0.009933,-0.020081, 0.044497, 0.204166,1, 0.001793,-0.004763,-0.000192,1,-0.239743, 0.096066, 9.803248,1,1
1778778807905,  3501.594,  3501.589, 0.029785,-0.001986,-0.999041, 0.000284,-0.000036,-0.010013, 0.054629, 0.073583, 0.006087,1,-0.006487, 0.002546,-0.000435,1,-0.237545, 0.092859, 9.803332,1,1
1778778807931,  3501.614,  3501.614, 0.017101,-0.006916,-0.984977, 0.000189,-0.000056,-0.009832,-0.070118, 0.025441, 0.144000,1, 0.000883,-0.005876, 0.000509,1,-0.237641, 0.093288, 9.803327,1,1
1778778807953,  3501.639,  3501.634, 0.019840,-0.009512,-1.005688, 0.000196,-0.000104,-0.010090,-0.107491,-0.068571,-0.156692,1,-0.009583,-0.005888, 0.000379,1,-0.235629, 0.091809, 9.803389,1,1
1778778807976,  3501.664,  3501.659, 0.021931,-0.009157,-0.987500, 0.000240,-0.000077,-0.009862,-0.022131, 0.002096, 0.119285,1, 0.000993, 0.000746, 0.000364,1,-0.237225, 0.091925, 9.803349,1,1
1778778808001,  3501.684,  3501.684, 0.020355,-0.015828,-1.009333, 0.000205,-0.000164,-0.010091,-0.037063,-0.064289,-0.094807,1,-0.007860,-0.000365, 0.000804,1,-0.236666, 0.090683, 9.803374,1,1
1778778808023,  3501.709,  3501.704, 0.014299,-0.011384,-0.988937, 0.000153,-0.000107,-0.009871,-0.051424, 0.014700, 0.134609,1, 0.006099, 0.009006, 0.000496,1,-0.238431, 0.090970, 9.803329,1,1
1778778808046,  3501.734,  3501.729, 0.019128,-0.014278,-1.011863, 0.000170,-0.000154,-0.010121,-0.049390,-0.050056,-0.119611,1,-0.007406,-0.000639, 0.000315,1,-0.236948, 0.089733, 9.803376,1,1
1778778808071,  3501.754,  3501.754, 0.029478,-0.004220,-0.984648, 0.000292,-0.000036,-0.009862, 0.050428, 0.049177, 0.147233,1, 0.011688, 0.010873, 0.000153,1,-0.238990, 0.090924, 9.803316,1,1
1778778808093,  3501.779,  3501.774, 0.016975,-0.017307,-1.002851, 0.000162,-0.000181,-0.010030,-0.069545,-0.078558, 0.052401,1, 0.000116,-0.006172, 0.000259,1,-0.238619, 0.092175, 9.803313,1,1
1778778808120,  3501.804,  3501.804, 0.023821,-0.006498,-0.985530, 0.000239,-0.000062,-0.009865,-0.005241, 0.028823, 0.138560,1, 0.006086, 0.004623,-0.000237,1,-0.238986, 0.092738, 9.803299,1,1
1778778808141,  3501.824,  3501.824, 0.016534,-0.013483,-1.003145, 0.000167,-0.000128,-0.010004,-0.075582,-0.039430,-0.034167,1,-0.005276,-0.011853, 0.000370,1,-0.237357, 0.092631, 9.803340,1,1
1778778808163,  3501.849,  3501.844, 0.023772,-0.002695,-0.986143, 0.000246,-0.000017,-0.009876, 0.001110, 0.048615,-0.021976,1, 0.002756, 0.005434,-0.000788,1,-0.237053, 0.091926, 9.803353,1,1
1778778808190,  3501.874,  3501.874, 0.013911,-0.012363,-1.000023, 0.000140,-0.000117,-0.009974,-0.100948,-0.027966,-0.003541,1,-0.004555,-0.007996, 0.001083,1,-0.237114, 0.093135, 9.803341,1,1
1778778808212,  3501.899,  3501.894, 0.026832, 0.000664,-0.984367, 0.000260, 0.000009,-0.009854, 0.000086, 0.075381, 0.026210,1, 0.003302, 0.005985,-0.000294,1,-0.237412, 0.092700, 9.803337,1,1
1778778808233,  3501.919,  3501.914, 0.018614,-0.011883,-1.000521, 0.000168,-0.000109,-0.009974,-0.038531, 0.056339, 0.147701,1, 0.007523,-0.002376, 0.000932,1,-0.237159, 0.094714, 9.803325,1,1
1778778808260,  3501.944,  3501.944, 0.027417,-0.004289,-0.997847, 0.000260,-0.000057,-0.010003, 0.032544, 0.052616, 0.017804,1, 0.004680, 0.007361,-0.000903,1,-0.236558, 0.094826, 9.803338,1,1
1778778808282,  3501.969,  3501.964, 0.013277,-0.014337,-1.002752, 0.000134,-0.000131,-0.009995,-0.065032, 0.036777, 0.146138,1, 0.005221,-0.002089, 0.001700,1,-0.237237, 0.096353, 9.803307,1,1
1778778808303,  3501.989,  3501.984, 0.024556,-0.006091,-0.999840, 0.000250,-0.000071,-0.010029,-0.062245,-0.033317,-0.111346,1,-0.006329,-0.001160, 0.000669,1,-0.236044, 0.095485, 9.803344,1,1
1778778808330,  3502.014,  3502.014, 0.018990,-0.011173,-0.984940, 0.000213,-0.000100,-0.009830,-0.051808,-0.013183, 0.144327,1, 0.002270,-0.001528, 0.001227,1,-0.237991, 0.096457, 9.803288,1,1
1778778808352,  3502.039,  3502.034, 0.024023,-0.008735,-0.999232, 0.000243,-0.000100,-0.010021,-0.045959,-0.069746,-0.103855,1,-0.009990,-0.001777, 0.000072,1,-0.236979, 0.094990, 9.803326,1,1
1778778808373,  3502.059,  3502.054, 0.015366,-0.011513,-0.987495, 0.000169,-0.000104,-0.009852, 0.003992, 0.022044, 0.146934,1,-0.000150, 0.007039,-0.000157,1,-0.238476, 0.094294, 9.803296,1,1
1778778808400,  3502.084,  3502.084, 0.018730,-0.017050,-1.015954, 0.000164,-0.000185,-0.010164,-0.053618,-0.074602,-0.159764,1,-0.010465,-0.001694,-0.000985,1,-0.237247, 0.092275, 9.803346,1,1
1778778808422,  3502.109,  3502.104, 0.019482,-0.009967,-0.981457, 0.000207,-0.000088,-0.009791, 0.018841, 0.052772, 0.177470,1, 0.006289, 0.011507,-0.000377,1,-0.239341, 0.092490, 9.803292,1,1
1778778808443,  3502.129,  3502.124, 0.018019,-0.016265,-1.008521, 0.000172,-0.000170,-0.010086,-0.086337,-0.074680, 0.016734,1,-0.006145,-0.007922, 0.000289,1,-0.237837, 0.092701, 9.803328,1,1
1778778808470,  3502.154,  3502.154, 0.025719,-0.005257,-0.981375, 0.000264,-0.000044,-0.009829, 0.013689, 0.041103, 0.179309,1, 0.010165, 0.007611,-0.000779,1,-0.238763, 0.092977, 9.803302,1,1
1778778808492,  3502.179,  3502.174, 0.017090,-0.013187,-1.010790, 0.000157,-0.000132,-0.010111,-0.122679,-0.041305,-0.015699,1,-0.002630,-0.011263, 0.000611,1,-0.237379, 0.093530, 9.803330,1,1
1778778808513,  3502.199,  3502.194, 0.027005,-0.004684,-0.983289, 0.000282,-0.000038,-0.009842, 0.028681, 0.021799, 0.008634,1, 0.003511, 0.005892,-0.001069,1,-0.237440, 0.093255, 9.803331,1,1
1778778808540,  3502.224,  3502.224, 0.013182,-0.013034,-0.999859, 0.000136,-0.000121,-0.009972,-0.108321,-0.032493,-0.001961,1, 0.000457,-0.009468,-0.000179,1,-0.237295, 0.095342, 9.803315,1,1
1778778808562,  3502.249,  3502.244, 0.024528, 0.000250,-0.985290, 0.000241, 0.000001,-0.009862,-0.008092, 0.050702, 0.021832,1,-0.001169, 0.005089,-0.001127,1,-0.237309, 0.094504, 9.803323,1,1
1778778808584,  3502.269,  3502.264, 0.016738,-0.013524,-1.003174, 0.000160,-0.000126,-0.010005,-0.045342, 0.052272, 0.123299,1, 0.004821,-0.002109, 0.000740,1,-0.237988, 0.095591, 9.803296,1,1
1778778808611,  3502.294,  3502.294, 0.026123,-0.004761,-1.002552, 0.000249,-0.000066,-0.010057, 0.019469, 0.048103,-0.028346,1, 0.001478, 0.006794,-0.001163,1,-0.236927, 0.094839, 9.803329,1,1
1778778808632,  3502.319,  3502.314, 0.012854,-0.014649,-1.000776, 0.000133,-0.000139,-0.009975,-0.049714, 0.019416, 0.150094,1, 0.002354,-0.001311, 0.000962,1,-0.237113, 0.095992, 9.803313,1,1
1778778808655,  3502.339,  3502.339, 0.021668,-0.007690,-1.003102, 0.000221,-0.000089,-0.010066,-0.023621, 0.018892,-0.033721,1, 0.001286, 0.008933,-0.000752,1,-0.236395, 0.094348, 9.803347,1,1
1778778808681,  3502.364,  3502.364, 0.019438,-0.008911,-0.983402, 0.000210,-0.000078,-0.009814,-0.047093, 0.007992, 0.159424,1, 0.001101,-0.001162, 0.000166,1,-0.237678, 0.095418, 9.803305,1,1
1778778808702,  3502.389,  3502.384, 0.027128,-0.006190,-0.996861, 0.000269,-0.000069,-0.009996,-0.038478,-0.013373,-0.083893,1,-0.009798,-0.001528,-0.000077,1,-0.236562, 0.093559, 9.803349,1,1
1778778808725,  3502.409,  3502.409, 0.018959,-0.010918,-0.984505, 0.000204,-0.000102,-0.009820,-0.052359,-0.012588, 0.148601,1, 0.003196,-0.003149, 0.000374,1,-0.238187, 0.094578, 9.803301,1,1
1778778808751,  3502.434,  3502.434, 0.020977,-0.014784,-1.009639, 0.000189,-0.000165,-0.010105,-0.031356,-0.051594,-0.097837,1,-0.008924,-0.002616,-0.000816,1,-0.236986, 0.093107, 9.803344,1,1
1778778808772,  3502.459,  3502.454, 0.020145,-0.009650,-0.985097, 0.000210,-0.000086,-0.009832, 0.032071, 0.060976, 0.150184,1, 0.006596, 0.007203,-0.000092,1,-0.238309, 0.093500, 9.803308,1,1
1778778808795,  3502.479,  3502.479, 0.019524,-0.016310,-1.010150, 0.000180,-0.000172,-0.010108,-0.045533,-0.066822,-0.102842,1,-0.006260,-0.002001,-0.000741,1,-0.236940, 0.092925, 9.803347,1,1
1778778808821,  3502.504,  3502.504, 0.025026,-0.005029,-0.983699, 0.000259,-0.000039,-0.009849, 0.007222, 0.044348, 0.156513,1, 0.008586, 0.007786,-0.000716,1,-0.238445, 0.093935, 9.803301,1,1
1778778808843,  3502.529,  3502.524, 0.016146,-0.013441,-1.013743, 0.000153,-0.000141,-0.010143,-0.111489,-0.058892,-0.041641,1,-0.004895,-0.011068, 0.000770,1,-0.236242, 0.094007, 9.803353,1,1
1778778808865,  3502.549,  3502.549, 0.024653,-0.005861,-0.982607, 0.000255,-0.000050,-0.009832, 0.004448, 0.036801, 0.167241,1, 0.009417, 0.008620,-0.000560,1,-0.237588, 0.094567, 9.803315,1,1
1778778808891,  3502.574,  3502.574, 0.014816,-0.014575,-1.002942, 0.000150,-0.000144,-0.010001,-0.091456,-0.048147,-0.032170,1,-0.005504,-0.009596, 0.000578,1,-0.236454, 0.094614, 9.803343,1,1
1778778808913,  3502.599,  3502.594, 0.025223,-0.003515,-0.985014, 0.000255,-0.000037,-0.009856, 0.010068, 0.039492, 0.028736,1, 0.002606, 0.008382,-0.000656,1,-0.236875, 0.094086, 9.803337,1,1
1778778808935,  3502.619,  3502.619, 0.013931,-0.013388,-1.003651, 0.000127,-0.000132,-0.010013,-0.100108,-0.036341,-0.039124,1,-0.004248,-0.008221, 0.000419,1,-0.236472, 0.094819, 9.803340,1,1
1778778808961,  3502.644,  3502.644, 0.025213,-0.004742,-0.996679, 0.000244,-0.000069,-0.009993, 0.010549, 0.047801, 0.029255,1, 0.001821, 0.007721,-0.001533,1,-0.236947, 0.094357, 9.803333,1,1
1778778808983,  3502.669,  3502.664, 0.016751,-0.014700,-1.002304, 0.000163,-0.000145,-0.010003,-0.056630, 0.012586, 0.127580,1, 0.001690,-0.000879, 0.000813,1,-0.237842, 0.095286, 9.803303,1,1
1778778809005,  3502.694,  3502.689, 0.025724,-0.004563,-0.992981, 0.000262,-0.000056,-0.009963, 0.014744, 0.049092, 0.065501,1, 0.002336, 0.008478,-0.000679,1,-0.237783, 0.093910, 9.803317,1,1
1778778809031,  3502.714,  3502.714, 0.016168,-0.011575,-0.985527, 0.000176,-0.000100,-0.009832,-0.078991,-0.018669, 0.138598,1, 0.001549,-0.005056, 0.000844,1,-0.237302, 0.094890, 9.803319,1,1
1778778809053,  3502.739,  3502.734, 0.026854,-0.003774,-0.996364, 0.000264,-0.000051,-0.009989,-0.028775,-0.024289,-0.103121,1,-0.007989,-0.001576, 0.000186,1,-0.235976, 0.093166, 9.803368,1,1
1778778809076,  3502.764,  3502.759, 0.017885,-0.010756,-0.988350, 0.000192,-0.000094,-0.009857,-0.061915,-0.011353, 0.110922,1, 0.000932,-0.005554, 0.000965,1,-0.237130, 0.094157, 9.803330,1,1
1778778809101,  3502.784,  3502.784, 0.020318,-0.011794,-1.008618, 0.000187,-0.000132,-0.010100,-0.036877,-0.022607,-0.087797,1,-0.005160, 0.001150,-0.000049,1,-0.236163, 0.092889, 9.803366,1,1
1778778809123,  3502.809,  3502.804, 0.017822,-0.011449,-0.991131, 0.000179,-0.000107,-0.009883, 0.000416, 0.030948, 0.164227,1, 0.007339, 0.004932,-0.000439,1,-0.237617, 0.094042, 9.803320,1,1
1778778809146,  3502.834,  3502.829, 0.024034,-0.011576,-1.008878, 0.000224,-0.000125,-0.010108,-0.000459,-0.020448,-0.090344,1,-0.004600, 0.002175,-0.000516,1,-0.236218, 0.092927, 9.803364,1,1
1778778809171,  3502.854,  3502.854, 0.023947,-0.005654,-0.982738, 0.000249,-0.000049,-0.009830,-0.002732, 0.038471, 0.165957,1, 0.007620, 0.005157, 0.000139,1,-0.237730, 0.094157, 9.803316,1,1
1778778809193,  3502.879,  3502.874, 0.018839,-0.013469,-1.008432, 0.000185,-0.000141,-0.010104,-0.109683,-0.070628,-0.079053,1,-0.005040,-0.008366, 0.000830,1,-0.236229, 0.093786, 9.803356,1,1
1778778809216,  3502.904,  3502.899, 0.024891,-0.007081,-0.981842, 0.000257,-0.000062,-0.009822, 0.006423, 0.025336, 0.174728,1, 0.007874, 0.005790,-0.000849,1,-0.237857, 0.095020, 9.803305,1,1
1778778809242,  3502.924,  3502.924, 0.018537,-0.013968,-1.002690, 0.000185,-0.000143,-0.010014,-0.048891,-0.024121, 0.100091,1,-0.002357,-0.005562, 0.000842,1,-0.236593, 0.095027, 9.803335,1,1
1778778809263,  3502.949,  3502.944, 0.019066,-0.006316,-0.982323, 0.000189,-0.000060,-0.009815,-0.003811, 0.056057, 0.106989,1, 0.004227, 0.007474,-0.000310,1,-0.236803, 0.093725, 9.803343,1,1
1778778809286,  3502.974,  3502.969, 0.016931,-0.013375,-1.010392, 0.000148,-0.000139,-0.010089,-0.069740,-0.037841,-0.105188,1,-0.010215,-0.006615,-0.000592,1,-0.235571, 0.093002, 9.803379,1,1
1778778809312,  3502.994,  3502.994, 0.029120,-0.002651,-0.991149, 0.000290,-0.000030,-0.009933, 0.049064, 0.066899, 0.083507,1, 0.007481, 0.009686,-0.001129,1,-0.236808, 0.093125, 9.803349,1,1
1778778809333,  3503.019,  3503.014, 0.013411,-0.015084,-1.007208, 0.000129,-0.000153,-0.010066,-0.096756,-0.034675, 0.059056,1, 0.000508,-0.007450, 0.001026,1,-0.236557, 0.094283, 9.803343,1,1
1778778809360,  3503.044,  3503.044, 0.023536,-0.002916,-0.989227, 0.000236,-0.000026,-0.009910,-0.005774, 0.064860, 0.102348,1, 0.004415, 0.007894,-0.001172,1,-0.236829, 0.093588, 9.803343,1,1
1778778809382,  3503.064,  3503.064, 0.016534,-0.013578,-1.000201, 0.000175,-0.000124,-0.009978,-0.074493,-0.039355,-0.005273,1,-0.003210,-0.008276, 0.000966,1,-0.236375, 0.093705, 9.803353,1,1
1778778809403,  3503.089,  3503.084, 0.025985,-0.003884,-0.983733, 0.000267,-0.000033,-0.009855, 0.004413, 0.019075,-0.015455,1, 0.002457, 0.006370,-0.000721,1,-0.236454, 0.093145, 9.803356,1,1
1778778809430,  3503.114,  3503.114, 0.013498,-0.014733,-0.996544, 0.000138,-0.000144,-0.009933,-0.103944,-0.050030, 0.030584,1,-0.004276,-0.010011, 0.000412,1,-0.235933, 0.094307, 9.803358,1,1
1778778809452,  3503.139,  3503.134, 0.026797,-0.003888,-0.987318, 0.000262,-0.000041,-0.009884,-0.001655, 0.005266,-0.016622,1,-0.001647, 0.005029,-0.000971,1,-0.235629, 0.093198, 9.803376,1,1
1778778809473,  3503.159,  3503.154, 0.019773,-0.012447,-0.999464, 0.000189,-0.000124,-0.009974,-0.017879, 0.022128, 0.137336,1, 0.003584, 0.000644, 0.000214,1,-0.236612, 0.094021, 9.803345,1,1
1778778809500,  3503.184,  3503.184, 0.024720,-0.008577,-0.995962, 0.000235,-0.000093,-0.009979, 0.006173, 0.008971, 0.036313,1, 0.000628, 0.007729,-0.000247,1,-0.236488, 0.093105, 9.803356,1,1
1778778809522,  3503.209,  3503.204, 0.014085,-0.015253,-1.003708, 0.000136,-0.000151,-0.010019,-0.076961,-0.012115, 0.098783,1, 0.001782,-0.002120, 0.000328,1,-0.237025, 0.093809, 9.803336,1,1
1778778809543,  3503.229,  3503.224, 0.028358,-0.004922,-0.995663, 0.000283,-0.000062,-0.009987,-0.023319,-0.036245,-0.087493,1,-0.006153, 0.000379,-0.000627,1,-0.236253, 0.092745, 9.803365,1,1
1778778809570,  3503.254,  3503.254, 0.019163,-0.008672,-0.987357, 0.000213,-0.000073,-0.009856,-0.049709, 0.008446, 0.120658,1, 0.004984,-0.002980, 0.000920,1,-0.237540, 0.093643, 9.803326,1,1
1778778809592,  3503.274,  3503.274, 0.017353,-0.014990,-1.008862, 0.000163,-0.000152,-0.010097,-0.066254,-0.053989,-0.090195,1,-0.005377,-0.003194,-0.000114,1,-0.236326, 0.092843, 9.803363,1,1
1778778809613,  3503.299,  3503.294, 0.021015,-0.007562,-0.990080, 0.000225,-0.000063,-0.009880, 0.020110, 0.054958, 0.128957,1, 0.005133, 0.005294,-0.000628,1,-0.237477, 0.093332, 9.803330,1,1
1778778809640,  3503.324,  3503.324, 0.021516,-0.011050,-1.006866, 0.000199,-0.000119,-0.010077,-0.024595,-0.015196,-0.070602,1,-0.002674,-0.000430,-0.000346,1,-0.235579, 0.093082, 9.803378,1,1
1778778809662,  3503.349,  3503.344, 0.016658,-0.009631,-0.988853, 0.000168,-0.000094,-0.009865,-0.005282, 0.037340, 0.166133,1, 0.007771, 0.004902,-0.000848,1,-0.236812, 0.094291, 9.803337,1,1
1778778809684,  3503.369,  3503.364, 0.020829,-0.011168,-1.007073, 0.000187,-0.000120,-0.010077,-0.099365,-0.047293,-0.041795,1,-0.006879,-0.007072, 0.000593,1,-0.235684, 0.094077, 9.803366,1,1
1778778809711,  3503.394,  3503.394, 0.025265,-0.005363,-0.985757, 0.000262,-0.000044,-0.009863, 0.011175, 0.040862, 0.136374,1, 0.004148, 0.004650,-0.000292,1,-0.236734, 0.093585, 9.803346,1,1
1778778809732,  3503.419,  3503.414, 0.018373,-0.015432,-1.003549, 0.000175,-0.000159,-0.010048,-0.111786,-0.061603,-0.038996,1,-0.000853,-0.003684, 0.001197,1,-0.236123, 0.093921, 9.803357,1,1
1778778809754,  3503.439,  3503.434, 0.022075,-0.004761,-0.984873, 0.000237,-0.000040,-0.009852,-0.008731, 0.030266, 0.079895,1,-0.001497, 0.005558,-0.000842,1,-0.236658, 0.093369, 9.803349,1,1
1778778809781,  3503.464,  3503.464, 0.014314,-0.015839,-1.005542, 0.000140,-0.000155,-0.010042,-0.095896,-0.062046,-0.057642,1,-0.004400,-0.006019, 0.000187,1,-0.236083, 0.093140, 9.803366,1,1
1778778809802,  3503.489,  3503.484, 0.025247,-0.003720,-0.981774, 0.000262,-0.000031,-0.009819, 0.037641, 0.063765, 0.075049,1, 0.000328, 0.008048,-0.001242,1,-0.236792, 0.092548, 9.803354,1,1
1778778809824,  3503.509,  3503.504, 0.012855,-0.016812,-1.004278, 0.000117,-0.000173,-0.010026,-0.081964,-0.022933, 0.099042,1, 0.003153,-0.004633, 0.000541,1,-0.237014, 0.093517, 9.803339,1,1
1778778809851,  3503.534,  3503.534, 0.026694,-0.003913,-0.993433, 0.000255,-0.000052,-0.009955, 0.026098, 0.053810, 0.061133,1,-0.001400, 0.007172,-0.001575,1,-0.235907, 0.092141, 9.803379,1,1
1778778809872,  3503.559,  3503.554, 0.015016,-0.014511,-1.007896, 0.000151,-0.000143,-0.010065,-0.072089,-0.012555, 0.065272,1, 0.002247,-0.005044, 0.000276,1,-0.235992, 0.092802, 9.803370,1,1
1778778809895,  3503.579,  3503.579, 0.027704,-0.005491,-0.992310, 0.000282,-0.000064,-0.009948, 0.035935, 0.038318, 0.072143,1, 0.000852, 0.007531,-0.001030,1,-0.235987, 0.092194, 9.803377,1,1
1778778809921,  3503.604,  3503.604, 0.023888,-0.005686,-0.984808, 0.000254,-0.000047,-0.009848,-0.106108,-0.013907, 0.064900,1, 0.002973,-0.006074, 0.001026,1,-0.236108, 0.092947, 9.803367,1,1
1778778809942,  3503.629,  3503.624, 0.027108,-0.004388,-0.990884, 0.000277,-0.000054,-0.009925,-0.033398,-0.033423,-0.047128,1,-0.002996, 0.001708,-0.001104,1,-0.235587, 0.092467, 9.803384,1,1
1778778809965,  3503.649,  3503.649, 0.017721,-0.011586,-0.992966, 0.000187,-0.000100,-0.009908,-0.062476,-0.020261, 0.065689,1, 0.004706,-0.004720, 0.000929,1,-0.236116, 0.093511, 9.803361,1,1
1778778809991,  3503.674,  3503.674, 0.023233,-0.011440,-1.003659, 0.000219,-0.000128,-0.010052,-0.007680,-0.019256,-0.039152,1,-0.005149, 0.001408,-0.001162,1,-0.235567, 0.092772, 9.803381,1,1
1778778810012,  3503.699,  3503.694, 0.013175,-0.010588,-0.993483, 0.000140,-0.000100,-0.009912,-0.005156, 0.054963, 0.146636,1, 0.003979, 0.003142, 0.000053,1,-0.236567, 0.093011, 9.803355,1,1
1778778810035,  3503.719,  3503.719, 0.021703,-0.012591,-1.005472, 0.000198,-0.000137,-0.010068,-0.021894,-0.030947,-0.056907,1,-0.005819, 0.002418,-0.000575,1,-0.234800, 0.092349, 9.803404,1,1
1778778810061,  3503.744,  3503.744, 0.025901,-0.005284,-0.983806, 0.000269,-0.000045,-0.009839, 0.018052, 0.040797, 0.155534,1, 0.005561, 0.004165, 0.000190,1,-0.236083, 0.092785, 9.803369,1,1
1778778810083,  3503.764,  3503.764, 0.015154,-0.014758,-1.002858, 0.000151,-0.000144,-0.010021,-0.086743,-0.051932,-0.031294,1,-0.005359,-0.004005, 0.000569,1,-0.235229, 0.092628, 9.803391,1,1
1778778810105,  3503.789,  3503.789, 0.018427,-0.006322,-0.987459, 0.000201,-0.000053,-0.009871,-0.055351, 0.029641, 0.119714,1, 0.001682, 0.000999, 0.000025,1,-0.236088, 0.091689, 9.803379,1,1
1778778810131,  3503.814,  3503.814, 0.016175,-0.014053,-1.007438, 0.000155,-0.000139,-0.010069,-0.076756,-0.046272,-0.076194,1,-0.002428,-0.003392, 0.000955,1,-0.235276, 0.091464, 9.803401,1,1
1778778810153,  3503.839,  3503.834, 0.024324,-0.005893,-0.983496, 0.000253,-0.000050,-0.009833, 0.051866, 0.061541, 0.093642,1, 0.005390, 0.007270,-0.001308,1,-0.236183, 0.091696, 9.803376,1,1
1778778810175,  3503.859,  3503.859, 0.014111,-0.017314,-1.004877, 0.000133,-0.000176,-0.010037,-0.097345,-0.077189,-0.051100,1,-0.005053,-0.005902, 0.000066,1,-0.235539, 0.092444, 9.803385,1,1
1778778810201,  3503.884,  3503.884, 0.024303,-0.002510,-0.994136, 0.000238,-0.000037,-0.009954, 0.002479, 0.066958, 0.054244,1,-0.000973, 0.005086,-0.001559,1,-0.236007, 0.091541, 9.803382,1,1
1778778810223,  3503.909,  3503.904, 0.018758,-0.014016,-1.005791, 0.000177,-0.000144,-0.010054,-0.069672,-0.018734, 0.039157,1, 0.000979,-0.003049, 0.000996,1,-0.236118, 0.092113, 9.803374,1,1
1778778810246,  3503.934,  3503.929, 0.026903,-0.004512,-0.985473, 0.000275,-0.000044,-0.009876, 0.028073, 0.047880, 0.139194,1, 0.006044, 0.007914,-0.001111,1,-0.236003, 0.092314, 9.803375,1,1
1778778810271,  3503.954,  3503.954, 0.012947,-0.013711,-0.994997, 0.000143,-0.000129,-0.009922,-0.108835,-0.041224, 0.045781,1, 0.000536,-0.008214, 0.001200,1,-0.235548, 0.093252, 9.803377,1,1
1778778810293,  3503.979,  3503.974, 0.028251,-0.004281,-0.990164, 0.000289,-0.000039,-0.009914,-0.006788,-0.014887,-0.033469,1,-0.004817, 0.001803,-0.000509,1,-0.234877, 0.092120, 9.803404,1,1
1778778810316,  3504.004,  3503.999, 0.016186,-0.012328,-0.996517, 0.000173,-0.000115,-0.009949,-0.076775,-0.027967, 0.030885,1, 0.003368,-0.003827, 0.000918,1,-0.235388, 0.093038, 9.803383,1,1
1778778810341,  3504.024,  3504.024, 0.023690,-0.009432,-0.997952, 0.000231,-0.000116,-0.009996,-0.003003, 0.000201, 0.016816,1,-0.003360, 0.003919,-0.001357,1,-0.235446, 0.092592, 9.803386,1,1
1778778810363,  3504.049,  3504.044, 0.013387,-0.012384,-0.999973, 0.000133,-0.000122,-0.009979,-0.028709, 0.027035, 0.117689,1, 0.001211,-0.001159,-0.000052,1,-0.236014, 0.092653, 9.803371,1,1
1778778810386,  3504.074,  3504.069, 0.025382,-0.009290,-1.002489, 0.000233,-0.000107,-0.010044, 0.013894, 0.000580,-0.027655,1,-0.003490, 0.004144,-0.001429,1,-0.235144, 0.091569, 9.803403,1,1
1778778810411,  3504.094,  3504.094, 0.021377,-0.007105,-0.986142, 0.000226,-0.000062,-0.009851,-0.026418, 0.022353, 0.132631,1, 0.004552, 0.002729, 0.001020,1,-0.236139, 0.092169, 9.803373,1,1
1778778810433,  3504.119,  3504.114, 0.021008,-0.009910,-0.999003, 0.000206,-0.000107,-0.010014,-0.107801,-0.060496,-0.061276,1,-0.006204,-0.003237, 0.000637,1,-0.234563, 0.091842, 9.803414,1,1
1778778810456,  3504.144,  3504.139, 0.021161,-0.006245,-0.986352, 0.000230,-0.000053,-0.009855,-0.028084, 0.030499, 0.130584,1, 0.006642,-0.000296,-0.000045,1,-0.235595, 0.091944, 9.803389,1,1
1778778810482,  3504.164,  3504.164, 0.019180,-0.015321,-1.005675, 0.000187,-0.000151,-0.010059,-0.082833,-0.026408, 0.024661,1, 0.003751,-0.005006, 0.001054,1,-0.235105, 0.092414, 9.803396,1,1
1778778810503,  3504.189,  3504.184, 0.020650,-0.005603,-0.987982, 0.000221,-0.000050,-0.009869, 0.050263, 0.056303, 0.092376,1, 0.000551, 0.003871,-0.000861,1,-0.235396, 0.091772, 9.803395,1,1
1778778810526,  3504.214,  3504.209, 0.012839,-0.014424,-1.006400, 0.000114,-0.000149,-0.010061,-0.108986,-0.049397,-0.066008,1,-0.003381,-0.002486, 0.000287,1,-0.234813, 0.091947, 9.803408,1,1
1778778810552,  3504.234,  3504.234, 0.026152,-0.002046,-0.990260, 0.000249,-0.000024,-0.009913, 0.020923, 0.071615, 0.092258,1, 0.002465, 0.007202,-0.000793,1,-0.235769, 0.091755, 9.803386,1,1
1778778810573,  3504.259,  3504.254, 0.019920,-0.014420,-1.003800, 0.000189,-0.000151,-0.010041,-0.057865,-0.035084, 0.028105,1, 0.001520,-0.003725, 0.000409,1,-0.235756, 0.092492, 9.803379,1,1
1778778810600,  3504.284,  3504.284, 0.026268,-0.002381,-0.985157, 0.000274,-0.000021,-0.009868, 0.021721, 0.068461, 0.142291,1, 0.002716, 0.006214,-0.000559,1,-0.236079, 0.091899, 9.803377,1,1
1778778810622,  3504.304,  3504.304, 0.010424,-0.014601,-0.996588, 0.000113,-0.000136,-0.009944,-0.133550,-0.050414, 0.030187,1, 0.001587,-0.007339, 0.001175,1,-0.235545, 0.092827, 9.803381,1,1
1778778810643,  3504.329,  3504.324, 0.026832,-0.004738,-0.991056, 0.000271,-0.000042,-0.009924,-0.015417,-0.009970,-0.035275,1,-0.006456, 0.002312,-0.000909,1,-0.234176, 0.091625, 9.803426,1,1
1778778810670,  3504.354,  3504.354, 0.021921,-0.006743,-0.987054, 0.000242,-0.000058,-0.009865,-0.068716,-0.030357, 0.019359,1,-0.000903,-0.004576, 0.000305,1,-0.234582, 0.091963, 9.803412,1,1
1778778810692,  3504.379,  3504.374, 0.024666,-0.003652,-0.988968, 0.000250,-0.000042,-0.009904, 0.007380,-0.000551,-0.004314,1,-0.005704, 0.003869,-0.000982,1,-0.234531, 0.090586, 9.803427,1,1
1778778810713,  3504.399,  3504.394, 0.012224,-0.012728,-1.000859, 0.000114,-0.000127,-0.009984,-0.052257, 0.028471, 0.108077,1, 0.003886, 0.000167, 0.000534,1,-0.235233, 0.090892, 9.803407,1,1
1778778810740,  3504.424,  3504.424, 0.027734,-0.006909,-1.002336, 0.000261,-0.000085,-0.010043, 0.037580, 0.022420,-0.026124,1,-0.003997, 0.004339,-0.000633,1,-0.234537, 0.090048, 9.803432,1,1
1778778810762,  3504.449,  3504.444, 0.014789,-0.014620,-0.995034, 0.000154,-0.000139,-0.009931,-0.006696, 0.025476, 0.143335,1, 0.010877, 0.003291, 0.000490,1,-0.235634, 0.091523, 9.803391,1,1
1778778810783,  3504.469,  3504.464, 0.023117,-0.009965,-0.998576, 0.000225,-0.000108,-0.010007,-0.093721,-0.056971,-0.037434,1,-0.004137,-0.004749, 0.000372,1,-0.234738, 0.091732, 9.803411,1,1
1778778810810,  3504.494,  3504.494, 0.021138,-0.007842,-0.985882, 0.000227,-0.000062,-0.009850,-0.028447, 0.014737, 0.135189,1, 0.003532, 0.000156, 0.000652,1,-0.235744, 0.091748, 9.803387,1,1
1778778810832,  3504.519,  3504.514, 0.025884,-0.007228,-0.997421, 0.000260,-0.000085,-0.009996,-0.033559,-0.041778,-0.053103,1,-0.006484,-0.004199,-0.000742,1,-0.233824, 0.091091, 9.803439,1,1
1778778810854,  3504.539,  3504.534, 0.016955,-0.007881,-0.984766, 0.000188,-0.000068,-0.009831, 0.012471, 0.057252, 0.144477,1, 0.007719, 0.004664,-0.001722,1,-0.234616, 0.091493, 9.803416,1,1
1778778810881,  3504.564,  3504.564, 0.013443,-0.015314,-1.008409, 0.000117,-0.000159,-0.010079,-0.101218,-0.057889,-0.085672,1,-0.007761,-0.006503,-0.000070,1,-0.232843, 0.092049, 9.803453,1,1
1778778810902,  3504.589,  3504.584, 0.021222,-0.004656,-0.991531, 0.000221,-0.000045,-0.009907, 0.031293, 0.050074, 0.047165,1, 0.001294, 0.005684,-0.000910,1,-0.233434, 0.091345, 9.803446,1,1
1778778810924,  3504.609,  3504.604, 0.015476,-0.013394,-1.004186, 0.000145,-0.000143,-0.010041, 0.031293, 0.050074, 0.047165,1, 0.001294, 0.005684,-0.000910,1,-0.233434, 0.091345, 9.803446,1,1
1778778810951,  3504.634,  3504.634, 0.024019,-0.004834,-0.986750, 0.000241,-0.000044,-0.009877, 0.001304, 0.045035, 0.126704,1, 0.006146, 0.007080,-0.000503,1,-0.234461, 0.092628, 9.803410,1,1
1778778810972,  3504.659,  3504.654, 0.022586,-0.015346,-1.006682, 0.000221,-0.000162,-0.010068,-0.045527,-0.057877, 0.018823,1, 0.003184,-0.004965, 0.000041,1,-0.234346, 0.093956, 9.803399,1,1
1778778810994,  3504.679,  3504.674, 0.027227,-0.002423,-0.987354, 0.000287,-0.000016,-0.009888, 0.050792, 0.025389,-0.000107,1,-0.002321, 0.002503,-0.000740,1,-0.234064, 0.093274, 9.803412,1,1
1778778811021,  3504.704,  3504.704, 0.010419,-0.015587,-0.997833, 0.000115,-0.000146,-0.009953,-0.132330,-0.058415, 0.017992,1,-0.001437,-0.006461, 0.001241,1,-0.234304, 0.094401, 9.803396,1,1
1778778811042,  3504.729,  3504.724, 0.026036,-0.003373,-0.991265, 0.000251,-0.000023,-0.009927,-0.025438, 0.010508,-0.050896,1,-0.006481, 0.003487,-0.000960,1,-0.233267, 0.092855, 9.803435,1,1
1778778811064,  3504.749,  3504.744, 0.017407,-0.010837,-0.995221, 0.000166,-0.000110,-0.009928, 0.004158, 0.025413, 0.125541,1, 0.003931, 0.001219,-0.000097,1,-0.234513, 0.093570, 9.803399,1,1
1778778811091,  3504.774,  3504.774, 0.025141,-0.008429,-0.996663, 0.000237,-0.000089,-0.009987, 0.012613, 0.010361, 0.029488,1,-0.000738, 0.005312,-0.000663,1,-0.234104, 0.092996, 9.803414,1,1
1778778811112,  3504.799,  3504.794, 0.011356,-0.013756,-1.001873, 0.000111,-0.000136,-0.010003,-0.065339, 0.000694, 0.113321,1, 0.001788,-0.002857, 0.000423,1,-0.234526, 0.093512, 9.803399,1,1
1778778811135,  3504.819,  3504.819, 0.024881,-0.006676,-0.999468, 0.000243,-0.000077,-0.010020, 0.009948, 0.026967, 0.001985,1,-0.002690, 0.006553,-0.001168,1,-0.234260, 0.092350, 9.803416,1,1
1778778811161,  3504.844,  3504.844, 0.018628,-0.007694,-0.987610, 0.000210,-0.000057,-0.009861,-0.052552, 0.017615, 0.118238,1, 0.007490, 0.000958, 0.000515,1,-0.235256, 0.093300, 9.803384,1,1
1778778811183,  3504.869,  3504.864, 0.024344,-0.009495,-0.999942, 0.000240,-0.000112,-0.010017,-0.080924,-0.088575,-0.065743,1,-0.004944,-0.002194, 0.000328,1,-0.234661, 0.093328, 9.803398,1,1
1778778811205,  3504.889,  3504.889, 0.021409,-0.005579,-0.985458, 0.000227,-0.000040,-0.009843,-0.026059, 0.038097, 0.139330,1, 0.003777, 0.001468, 0.000676,1,-0.236052, 0.092928, 9.803369,1,1
1778778811231,  3504.914,  3504.914, 0.017294,-0.015223,-1.006109, 0.000161,-0.000155,-0.010057,-0.064797,-0.056587,-0.063149,1,-0.006645,-0.004251,-0.000373,1,-0.234187, 0.092498, 9.803417,1,1
1778778811253,  3504.939,  3504.934, 0.021137,-0.009109,-0.985129, 0.000219,-0.000083,-0.009837, 0.019600, 0.047811, 0.111321,1, 0.005008, 0.007395,-0.001017,1,-0.235200, 0.092380, 9.803394,1,1
1778778811275,  3504.959,  3504.959, 0.015230,-0.012851,-1.008593, 0.000143,-0.000134,-0.010081,-0.084927,-0.033963,-0.087501,1,-0.012151,-0.005843, 0.000443,1,-0.234102, 0.091680, 9.803427,1,1
1778778811301,  3504.984,  3504.984, 0.027745,-0.003013,-0.989147, 0.000277,-0.000023,-0.009906, 0.037124, 0.061212, 0.103200,1, 0.003331, 0.009055,-0.000566,1,-0.235248, 0.090867, 9.803407,1,1
1778778811323,  3505.009,  3505.004, 0.015789,-0.015218,-1.006411, 0.000150,-0.000157,-0.010071,-0.092246,-0.029051, 0.015263,1, 0.005447,-0.005784, 0.000456,1,-0.234955, 0.092394, 9.803400,1,1
1778778811345,  3505.029,  3505.029, 0.028988,-0.000385,-0.990110, 0.000263,-0.000026,-0.009938, 0.049360, 0.088460, 0.093736,1, 0.004120, 0.009706,-0.002965,1,-0.235216, 0.092360, 9.803393,1,1
1778778811371,  3505.054,  3505.054, 0.018780,-0.013266,-0.992572, 0.000206,-0.000132,-0.009910,-0.051267,-0.036323, 0.069570,1, 0.003867,-0.006352, 0.000436,1,-0.235235, 0.093894, 9.803379,1,1
1778778811393,  3505.079,  3505.074, 0.024771,-0.002894,-0.993551, 0.000247,-0.000028,-0.009952, 0.000129,-0.002517,-0.036530,1,-0.006617,-0.001464,-0.000681,1,-0.234372, 0.092524, 9.803412,1,1
1778778811416,  3505.099,  3505.099, 0.013365,-0.012640,-0.994552, 0.000137,-0.000122,-0.009921,-0.103872,-0.030765, 0.050167,1,-0.001621,-0.005626, 0.000760,1,-0.234763, 0.093138, 9.803397,1,1
1778778811441,  3505.124,  3505.124, 0.024407,-0.008127,-1.003149, 0.000233,-0.000098,-0.010051, 0.005786, 0.011938,-0.034088,1,-0.006396, 0.003096,-0.000882,1,-0.233657, 0.091434, 9.803440,1,1
1778778811463,  3505.149,  3505.144, 0.014849,-0.013451,-0.992524, 0.000152,-0.000128,-0.009901,-0.017757, 0.007435, 0.163751,1, 0.008946, 0.003657,-0.000612,1,-0.235118, 0.092901, 9.803391,1,1
1778778811486,  3505.174,  3505.169, 0.022488,-0.008193,-1.003786, 0.000217,-0.000090,-0.010057,-0.013295, 0.010606,-0.040339,1,-0.008570, 0.002400,-0.000337,1,-0.233899, 0.090686, 9.803441,1,1
1778778811511,  3505.194,  3505.194, 0.019518,-0.008021,-0.987625, 0.000214,-0.000067,-0.009870,-0.043452, 0.012748, 0.118116,1, 0.007645, 0.001319, 0.000400,1,-0.234904, 0.091650, 9.803408,1,1
1778778811533,  3505.219,  3505.214, 0.025455,-0.008007,-1.003580, 0.000252,-0.000090,-0.010058,-0.060765,-0.050455,-0.096219,1,-0.007690,-0.004750,-0.000350,1,-0.233813, 0.091023, 9.803440,1,1
1778778811556,  3505.244,  3505.239, 0.019650,-0.007897,-0.983450, 0.000213,-0.000062,-0.009824,-0.042669, 0.014356, 0.159049,1, 0.008087, 0.001280, 0.001145,1,-0.235406, 0.092053, 9.803392,1,1
1778778811581,  3505.264,  3505.264, 0.016297,-0.015724,-1.009113, 0.000152,-0.000165,-0.010085,-0.074519,-0.062674,-0.092599,1,-0.009633,-0.005532, 0.000200,1,-0.234162, 0.091225, 9.803430,1,1
1778778811603,  3505.289,  3505.284, 0.023804,-0.006059,-0.983195, 0.000248,-0.000048,-0.009824, 0.042418, 0.076778, 0.097057,1, 0.006174, 0.009570,-0.000363,1,-0.235422, 0.091069, 9.803401,1,1
1778778811626,  3505.314,  3505.309, 0.016642,-0.013894,-1.005008, 0.000157,-0.000141,-0.010049,-0.070918,-0.044501,-0.052341,1,-0.006205,-0.003630, 0.000097,1,-0.233945, 0.091556, 9.803432,1,1
1778778811652,  3505.334,  3505.334, 0.025099,-0.005548,-0.985662, 0.000253,-0.000049,-0.009871, 0.011345, 0.037365, 0.137364,1, 0.007034, 0.008033,-0.000750,1,-0.235043, 0.091990, 9.803401,1,1
1778778811673,  3505.359,  3505.354, 0.016496,-0.013195,-1.008924, 0.000160,-0.000134,-0.010087,-0.092278,-0.039336, 0.021166,1,-0.005161,-0.009823, 0.001004,1,-0.234192, 0.092331, 9.803418,1,1
1778778811696,  3505.384,  3505.379, 0.026617,-0.004981,-0.987870, 0.000278,-0.000041,-0.009896, 0.026566, 0.042286, 0.115725,1, 0.006231, 0.007769,-0.000184,1,-0.234699, 0.091327, 9.803415,1,1
1778778811722,  3505.404,  3505.404, 0.013825,-0.014161,-0.997200, 0.000144,-0.000130,-0.009950,-0.099025,-0.046675, 0.024214,1, 0.000473,-0.005810, 0.000133,1,-0.234418, 0.092216, 9.803414,1,1
1778778811743,  3505.429,  3505.424, 0.025371,-0.003225,-0.989821, 0.000255,-0.000027,-0.009903,-0.005452, 0.008634,-0.007803,1,-0.002978, 0.004104,-0.001090,1,-0.234285, 0.091007, 9.803429,1,1
1778778811766,  3505.454,  3505.449, 0.016342,-0.012596,-1.001212, 0.000161,-0.000124,-0.009985,-0.074463,-0.031694,-0.015124,1,-0.002421,-0.006494, 0.000730,1,-0.234521, 0.091753, 9.803416,1,1
1778778811792,  3505.474,  3505.474, 0.026405,-0.006944,-1.000788, 0.000250,-0.000089,-0.010032, 0.024509, 0.022874,-0.010952,1, 0.000230, 0.006420,-0.001197,1,-0.234637, 0.090981, 9.803420,1,1
1778778811813,  3505.499,  3505.494, 0.014520,-0.014393,-0.997712, 0.000141,-0.000142,-0.009950,-0.037798,-0.001931, 0.145151,1, 0.005666, 0.000989, 0.000395,1,-0.235696, 0.092388, 9.803382,1,1
1778778811840,  3505.524,  3505.524, 0.023882,-0.006716,-0.998610, 0.000236,-0.000079,-0.010012, 0.000047, 0.025050, 0.010414,1,-0.003816, 0.004845,-0.000558,1,-0.234306, 0.090795, 9.803430,1,1
1778778811862,  3505.544,  3505.544, 0.018601,-0.009078,-0.987362, 0.000206,-0.000072,-0.009859,-0.052749, 0.002501, 0.120687,1, 0.004227,-0.001630, 0.000867,1,-0.235113, 0.091659, 9.803403,1,1
1778778811883,  3505.569,  3505.564, 0.026744,-0.007769,-0.998212, 0.000268,-0.000088,-0.010007,-0.050100,-0.036663,-0.072274,1,-0.004620,-0.002083, 0.000078,1,-0.233990, 0.090976, 9.803436,1,1
1778778811910,  3505.594,  3505.594, 0.019302,-0.009599,-0.985801, 0.000204,-0.000080,-0.009838,-0.045998,-0.001672, 0.135989,1, 0.008896,-0.000818, 0.000169,1,-0.235263, 0.092739, 9.803389,1,1
1778778811932,  3505.619,  3505.614, 0.024657,-0.004844,-0.999516, 0.000239,-0.000068,-0.010013,-0.045082,-0.048152,-0.072914,1,-0.008415,-0.003919,-0.001037,1,-0.234106, 0.092005, 9.803424,1,1
1778778811954,  3505.639,  3505.634, 0.018733,-0.009068,-0.989390, 0.000194,-0.000082,-0.009880, 0.016822, 0.057798, 0.107658,1, 0.006861, 0.005588, 0.000388,1,-0.235043, 0.092231, 9.803399,1,1
1778778811981,  3505.664,  3505.664, 0.018161,-0.013132,-1.007401, 0.000163,-0.000142,-0.010077,-0.055890,-0.036681,-0.075800,1,-0.005719,-0.000714,-0.000346,1,-0.233964, 0.091921, 9.803428,1,1
1778778812002,  3505.689,  3505.684, 0.020560,-0.010330,-0.984324, 0.000219,-0.000091,-0.009830, 0.028018, 0.040973, 0.155708,1, 0.006604, 0.008192,-0.000896,1,-0.235493, 0.092537, 9.803386,1,1
1778778812024,  3505.709,  3505.704, 0.017646,-0.013506,-1.005544, 0.000171,-0.000139,-0.010061,-0.083767,-0.053710, 0.004624,1,-0.004878,-0.007710, 0.000846,1,-0.234695, 0.092603, 9.803404,1,1
1778778812051,  3505.734,  3505.734, 0.022272,-0.006683,-0.986867, 0.000232,-0.000053,-0.009872,-0.015851, 0.026601, 0.125560,1, 0.005616, 0.003329, 0.000102,1,-0.234370, 0.092317, 9.803414,1,1
1778778812072,  3505.759,  3505.754, 0.021623,-0.012839,-1.007776, 0.000211,-0.000133,-0.010088,-0.076681,-0.052072,-0.058091,1,-0.006424,-0.006761, 0.000780,1,-0.233370, 0.092144, 9.803440,1,1
1778778812094,  3505.779,  3505.774, 0.022968,-0.005188,-0.988439, 0.000240,-0.000044,-0.009890, 0.027391, 0.032553, 0.016020,1,-0.000548, 0.006758,-0.000328,1,-0.233778, 0.091240, 9.803438,1,1
1778778812121,  3505.804,  3505.804, 0.012872,-0.014724,-1.002299, 0.000120,-0.000148,-0.010006,-0.107843,-0.052083,-0.025773,1,-0.003970,-0.004378, 0.000343,1,-0.233936, 0.092186, 9.803426,1,1
1778778812142,  3505.829,  3505.824, 0.027795,-0.001871,-0.986929, 0.000276,-0.000014,-0.009870, 0.017752, 0.044971, 0.050466,1,-0.003438, 0.006135,-0.001554,1,-0.234489, 0.090809, 9.803426,1,1
1778778812164,  3505.849,  3505.844, 0.017084,-0.013192,-1.000534, 0.000165,-0.000134,-0.009991,-0.042404, 0.010646, 0.100105,1, 0.001796,-0.002048, 0.000018,1,-0.234945, 0.091280, 9.803411,1,1
1778778812191,  3505.874,  3505.874, 0.025464,-0.004409,-0.990887, 0.000257,-0.000057,-0.009933, 0.015044, 0.047113, 0.086145,1, 0.001464, 0.006473,-0.001353,1,-0.234878, 0.090390, 9.803420,1,1
1778778812212,  3505.899,  3505.894, 0.013308,-0.015397,-1.001919, 0.000135,-0.000146,-0.009999,-0.008605, 0.049358, 0.188183,1, 0.006833, 0.005030,-0.000167,1,-0.235453, 0.091022, 9.803400,1,1
1778778812234,  3505.919,  3505.914, 0.024664,-0.004060,-0.996040, 0.000247,-0.000048,-0.009985,-0.008605, 0.049358, 0.188183,1, 0.006833, 0.005030,-0.000167,1,-0.235453, 0.091022, 9.803400,1,1
1778778812261,  3505.944,  3505.944, 0.018302,-0.011700,-0.989063, 0.000191,-0.000103,-0.009869,-0.054686,-0.022818, 0.104023,1, 0.004883,-0.003921, 0.000885,1,-0.234045, 0.092071, 9.803425,1,1
1778778812282,  3505.969,  3505.964, 0.026670,-0.004810,-0.996726, 0.000266,-0.000065,-0.009991,-0.021529,-0.030944,-0.095001,1,-0.006742, 0.000585,-0.000698,1,-0.233221, 0.090963, 9.803454,1,1
1778778812304,  3505.989,  3505.984, 0.014550,-0.011753,-0.993849, 0.000156,-0.000110,-0.009916,-0.008516, 0.042437, 0.125852,1, 0.005269, 0.005096,-0.000483,1,-0.234445, 0.091385, 9.803421,1,1
1778778812331,  3506.014,  3506.014, 0.022145,-0.011719,-1.008449, 0.000201,-0.000132,-0.010102,-0.016297,-0.024060,-0.086053,1,-0.006766, 0.002469,-0.000718,1,-0.233539, 0.090656, 9.803450,1,1
1778778812353,  3506.039,  3506.034, 0.016113,-0.012701,-0.990914, 0.000174,-0.000116,-0.009887, 0.012901, 0.041920, 0.154367,1, 0.006347, 0.006474, 0.000599,1,-0.235124, 0.091191, 9.803407,1,1
1778778812375,  3506.059,  3506.059, 0.020281,-0.012804,-1.005360, 0.000188,-0.000135,-0.010071,-0.035332,-0.035341,-0.055779,1,-0.008541, 0.002898,-0.000061,1,-0.234314, 0.089958, 9.803437,1,1
1778778812401,  3506.084,  3506.084, 0.023687,-0.005580,-0.983376, 0.000248,-0.000041,-0.009832,-0.003263, 0.035429, 0.159781,1, 0.005716, 0.005131, 0.000820,1,-0.235715, 0.090332, 9.803401,1,1
1778778812423,  3506.109,  3506.104, 0.019598,-0.013201,-1.005397, 0.000190,-0.000139,-0.010068,-0.093378,-0.057961,-0.055422,1,-0.005031,-0.005731, 0.000693,1,-0.234795, 0.090188, 9.803424,1,1
1778778812445,  3506.129,  3506.129, 0.022265,-0.005652,-0.986678, 0.000230,-0.000051,-0.009864,-0.017181, 0.033904, 0.127406,1, 0.000820, 0.005991,-0.000280,1,-0.235711, 0.089357, 9.803410,1,1
1778778812471,  3506.154,  3506.154, 0.014487,-0.011788,-1.007212, 0.000136,-0.000118,-0.010059,-0.093377,-0.027222,-0.073951,1,-0.011322,-0.001300, 0.000201,1,-0.235401, 0.088026, 9.803429,1,1
1778778812493,  3506.179,  3506.174, 0.025926,-0.002593,-0.981913, 0.000258,-0.000029,-0.009824, 0.023625, 0.054539, 0.071466,1,-0.001898, 0.011625,-0.000546,1,-0.237018, 0.086583, 9.803403,1,1
1778778812516,  3506.199,  3506.199, 0.022762,-0.013960,-0.994893, 0.000220,-0.000140,-0.009938,-0.014848,-0.048787, 0.046795,1, 0.000450,-0.001109, 0.000462,1,-0.238033, 0.088127, 9.803365,1,1
1778778812541,  3506.224,  3506.224, 0.025462,-0.005455,-0.991797, 0.000256,-0.000060,-0.009924, 0.011472, 0.034035, 0.077163,1,-0.001841, 0.003617,-0.000727,1,-0.238342, 0.087469, 9.803363,1,1
1778778812563,  3506.249,  3506.244, 0.014329,-0.015805,-1.009786, 0.000138,-0.000157,-0.010090,-0.114777,-0.030299, 0.001161,1,-0.003028,-0.005397, 0.001338,1,-0.237875, 0.087201, 9.803377,1,1
1778778812586,  3506.269,  3506.269, 0.028627,-0.003106,-0.994130, 0.000291,-0.000031,-0.009964, 0.042665, 0.055573, 0.054297,1, 0.003547, 0.009339,-0.001285,1,-0.238363, 0.086138, 9.803374,1,1
1778778812611,  3506.294,  3506.294, 0.019030,-0.012726,-0.987694, 0.000203,-0.000112,-0.009862,-0.052404,-0.037481, 0.117376,1, 0.003117,-0.002869, 0.000425,1,-0.238931, 0.087420, 9.803349,1,1
1778778812633,  3506.319,  3506.314, 0.023064,-0.001916,-0.989563, 0.000229,-0.000027,-0.009911,-0.026116,-0.007069, 0.001043,1,-0.007442,-0.001932,-0.001036,1,-0.237358, 0.086050, 9.803399,1,1
1778778812656,  3506.339,  3506.339, 0.014861,-0.011415,-0.997635, 0.000149,-0.000114,-0.009951,-0.091199,-0.024787, 0.019943,1, 0.003239,-0.009826, 0.000001,1,-0.236633, 0.087260, 9.803407,1,1
1778778812681,  3506.364,  3506.364, 0.026797,-0.009594,-1.007124, 0.000248,-0.000109,-0.010093, 0.027047,-0.007218,-0.073082,1,-0.001103, 0.002775,-0.001547,1,-0.235827, 0.086836, 9.803430,1,1
1778778812703,  3506.389,  3506.384, 0.013719,-0.013661,-0.992248, 0.000143,-0.000130,-0.009901, 0.001229, 0.031444, 0.154603,1, 0.009108, 0.005055,-0.000610,1,-0.237133, 0.088258, 9.803386,1,1
1778778812726,  3506.414,  3506.409, 0.020259,-0.011503,-1.000669, 0.000193,-0.000124,-0.010027,-0.037461,-0.024694,-0.009802,1,-0.005968, 0.001911,-0.001633,1,-0.236197, 0.087922, 9.803411,1,1
1778778812752,  3506.434,  3506.434, 0.023833,-0.005507,-0.986535, 0.000253,-0.000046,-0.009860,-0.003232, 0.033933, 0.128786,1, 0.002333, 0.000781, 0.000132,1,-0.236975, 0.088015, 9.803391,1,1
1778778812773,  3506.459,  3506.454, 0.026217,-0.008148,-1.000409, 0.000254,-0.000090,-0.010029,-0.040534,-0.034975,-0.080143,1,-0.005453,-0.003277,-0.000018,1,-0.236006, 0.087526, 9.803419,1,1
1778778812796,  3506.484,  3506.479, 0.020210,-0.006727,-0.985154, 0.000214,-0.000056,-0.009838,-0.039121, 0.021846, 0.142320,1, 0.005980,-0.000280, 0.000514,1,-0.237303, 0.087999, 9.803384,1,1
1778778812822,  3506.504,  3506.504, 0.013028,-0.013995,-1.009510, 0.000114,-0.000146,-0.010089,-0.108497,-0.049475,-0.096503,1,-0.005937,-0.004347, 0.000359,1,-0.236124, 0.087583, 9.803415,1,1
1778778812843,  3506.529,  3506.524, 0.024526,-0.004568,-0.988377, 0.000251,-0.000048,-0.009880, 0.045007, 0.055894, 0.076037,1, 0.000239, 0.007520,-0.000612,1,-0.236227, 0.086935, 9.803419,1,1
1778778812866,  3506.554,  3506.549, 0.018348,-0.012626,-1.004393, 0.000180,-0.000134,-0.010045,-0.056158,-0.036892,-0.046304,1,-0.007339,-0.002392, 0.000446,1,-0.236018, 0.086697, 9.803426,1,1
1778778812892,  3506.574,  3506.574, 0.022847,-0.005372,-0.990179, 0.000235,-0.000057,-0.009909,-0.012771, 0.033277, 0.093073,1,-0.000207, 0.005464,-0.000287,1,-0.236997, 0.085954, 9.803409,1,1
1778778812913,  3506.599,  3506.594, 0.018907,-0.015151,-1.003485, 0.000177,-0.000153,-0.010039,-0.117038,-0.032122, 0.037154,1,-0.000328,-0.003439, 0.000958,1,-0.236892, 0.086478, 9.803407,1,1
1778778812936,  3506.624,  3506.619, 0.029793,-0.001054,-0.989293, 0.000306,-0.000010,-0.009909, 0.054978, 0.074755, 0.101764,1, 0.003177, 0.006445,-0.000301,1,-0.237392, 0.085187, 9.803406,1,1
1778778812962,  3506.644,  3506.644, 0.014865,-0.014293,-0.991642, 0.000159,-0.000132,-0.009901,-0.091847,-0.053700, 0.078700,1, 0.003623,-0.003928, 0.001100,1,-0.237504, 0.086580, 9.803391,1,1
1778778812983,  3506.669,  3506.664, 0.024802,-0.001576,-0.989940, 0.000246,-0.000020,-0.009913,-0.012489,-0.008540, 0.005276,1,-0.006129, 0.000947,-0.001675,1,-0.236941, 0.085353, 9.803415,1,1
1778778813006,  3506.694,  3506.689, 0.015973,-0.011047,-0.998541, 0.000158,-0.000108,-0.009961,-0.080394,-0.022265, 0.011060,1,-0.000774,-0.007785, 0.000996,1,-0.236795, 0.086045, 9.803413,1,1
1778778813032,  3506.714,  3506.714, 0.024331,-0.007077,-1.005218, 0.000227,-0.000090,-0.010070, 0.002880, 0.016050,-0.054381,1, 0.000144, 0.004988,-0.001237,1,-0.235815, 0.085462, 9.803442,1,1
1778778813054,  3506.739,  3506.734, 0.014106,-0.012656,-0.994112, 0.000140,-0.000134,-0.009916,-0.024669, 0.022593, 0.152943,1, 0.010765, 0.004867,-0.000608,1,-0.237519, 0.087413, 9.803384,1,1
1778778813081,  3506.764,  3506.764, 0.024334,-0.013741,-1.001877, 0.000226,-0.000129,-0.010040, 0.001675,-0.048536,-0.021648,1,-0.007088, 0.005632,-0.000482,1,-0.237135, 0.085997, 9.803406,1,1
1778778813102,  3506.784,  3506.784, 0.023706,-0.005934,-0.990952, 0.000241,-0.000049,-0.009902,-0.005799, 0.028526, 0.085456,1, 0.009786, 0.004130,-0.000635,1,-0.238400, 0.087026, 9.803366,1,1
1778778813124,  3506.809,  3506.804, 0.026787,-0.011033,-0.987818, 0.000268,-0.000125,-0.009924,-0.052434,-0.054209,-0.033267,1,-0.000274, 0.002993, 0.001162,1,-0.238495, 0.087645, 9.803358,1,1
1778778813151,  3506.834,  3506.834, 0.012310,-0.006731,-0.994207, 0.000225,-0.000030,-0.009936,-0.118728, 0.021441, 0.053493,1, 0.006464,-0.002188, 0.003085,1,-0.239381, 0.087649, 9.803336,1,1
1778778813172,  3506.859,  3506.854, 0.032802,-0.006089,-1.004125, 0.000267,-0.000079,-0.010041, 0.040794,-0.045723,-0.083583,1,-0.007008,-0.006917,-0.000474,1,-0.238839, 0.087612, 9.803349,1,1
1778778813194,  3506.879,  3506.874, 0.022825,-0.006416,-0.986655, 0.000249,-0.000063,-0.009877, 0.053832, 0.064514, 0.081563,1, 0.007485, 0.008302,-0.001208,1,-0.239483, 0.086994, 9.803339,1,1
1778778813221,  3506.904,  3506.904, 0.018311,-0.014287,-1.007145, 0.000167,-0.000152,-0.010044,-0.059344,-0.052996,-0.073365,1,-0.012023,-0.006566,-0.000995,1,-0.238709, 0.086734, 9.803361,1,1
1778778813242,  3506.929,  3506.924, 0.023412,-0.005599,-0.986592, 0.000212,-0.000059,-0.009877, 0.041535, 0.074560, 0.154241,1, 0.002808, 0.011821,-0.000239,1,-0.239602, 0.085695, 9.803348,1,1
1778778813264,  3506.949,  3506.944, 0.015228,-0.011076,-1.007709, 0.000160,-0.000124,-0.010104,-0.163871,-0.013012, 0.080877,1,-0.008107,-0.004122, 0.001569,1,-0.239392, 0.085806, 9.803352,1,1
1778778813291,  3506.974,  3506.974, 0.026222,-0.002143,-0.987849, 0.000294,-0.000007,-0.009901, 0.016510, 0.062727, 0.115854,1, 0.001224, 0.010980, 0.000603,1,-0.240983, 0.083781, 9.803330,1,1
1778778813312,  3506.999,  3506.994, 0.017539,-0.015413,-1.003425, 0.000191,-0.000162,-0.010026,-0.163257,-0.019832, 0.050206,1,-0.000333,-0.000806, 0.001388,1,-0.241788, 0.084695, 9.803303,1,1
1778778813334,  3507.019,  3507.014, 0.017978,-0.006508,-0.992352, 0.000235,-0.000043,-0.009929,-0.012054, 0.008818, 0.004281,1,-0.011010, 0.009253,-0.001463,1,-0.242575, 0.082686, 9.803301,1,1
1778778813361,  3507.044,  3507.044, 0.017719,-0.016638,-0.998429, 0.000190,-0.000146,-0.009957,-0.070389,-0.079974, 0.012015,1, 0.001109,-0.003178, 0.001606,1,-0.244052, 0.083222, 9.803260,1,1
1778778813382,  3507.069,  3507.064, 0.025487,-0.006307,-0.988873, 0.000251,-0.000059,-0.009904,-0.016030,-0.005085,-0.028177,1,-0.003908, 0.007107,-0.001212,1,-0.244599, 0.081908, 9.803257,1,1
1778778813404,  3507.084,  3507.084, 0.020350,-0.010266,-0.985382, 0.000205,-0.000099,-0.009847,-0.046958,-0.017696, 0.139901,1, 0.005291, 0.006820,-0.000442,1,-0.246732, 0.083145, 9.803193,1,1
1778778813431,  3507.114,  3507.114, 0.023858,-0.007449,-1.000791, 0.000234,-0.000091,-0.010023,-0.012319, 0.007114,-0.011184,1,-0.011037, 0.008927,-0.000837,1,-0.246492, 0.079821, 9.803226,1,1
1778778813452,  3507.139,  3507.134, 0.016312,-0.013617,-0.993430, 0.000169,-0.000129,-0.009916,-0.067129,-0.006142, 0.162239,1, 0.002090, 0.005592, 0.000134,1,-0.248483, 0.080128, 9.803174,1,1
1778778813474,  3507.159,  3507.154, 0.027346,-0.006671,-0.997390, 0.000266,-0.000074,-0.009997,-0.045631,-0.082047,-0.054000,1,-0.016360, 0.000785,-0.000841,1,-0.248248, 0.077971, 9.803197,1,1
1778778813501,  3507.184,  3507.184, 0.024198,-0.004865,-0.981761, 0.000257,-0.000030,-0.009809,-0.013156, 0.028592, 0.175366,1, 0.000508, 0.002620, 0.000470,1,-0.250535, 0.076322, 9.803152,1,1
1778778813523,  3507.209,  3507.204, 0.023381,-0.002699,-0.998670, 0.000238,-0.000039,-0.009997,-0.069918,-0.015320,-0.038550,1,-0.011694,-0.002964,-0.000919,1,-0.249707, 0.074781, 9.803185,1,1
1778778813544,  3507.229,  3507.224, 0.020478,-0.006995,-0.991615, 0.000211,-0.000056,-0.009889,-0.014471, 0.069870, 0.091210,1, 0.005804, 0.007074,-0.000199,1,-0.250702, 0.074425, 9.803163,1,1
1778778813571,  3507.254,  3507.254, 0.023369,-0.011329,-1.007278, 0.000213,-0.000123,-0.010079,-0.020893,-0.035761,-0.074855,1,-0.003385,-0.000671,-0.002901,1,-0.250043, 0.075229, 9.803173,1,1
1778778813593,  3507.279,  3507.274, 0.021272,-0.006621,-0.985922, 0.000244,-0.000045,-0.009842, 0.033950, 0.076216, 0.119337,1, 0.005005, 0.010367,-0.002120,1,-0.251447, 0.075551, 9.803135,1,1
1778778813615,  3507.299,  3507.299, 0.019113,-0.013245,-1.005140, 0.000179,-0.000137,-0.010047,-0.063461,-0.054182,-0.053907,1,-0.008201,-0.002481,-0.001300,1,-0.250815, 0.075455, 9.803152,1,1
1778778813641,  3507.324,  3507.324, 0.022379,-0.000645,-0.993440, 0.000224,-0.000008,-0.009957,-0.031194, 0.068762, 0.060843,1, 0.005241, 0.007301,-0.001450,1,-0.250878, 0.075249, 9.803152,1,1
1778778813663,  3507.349,  3507.344, 0.026626,-0.010631,-1.005189, 0.000262,-0.000108,-0.010054,-0.039447,-0.043299, 0.001984,1,-0.000452,-0.003968,-0.000046,1,-0.250745, 0.076334, 9.803146,1,1
1778778813686,  3507.369,  3507.369, 0.025887,-0.003708,-0.985353, 0.000287,-0.000025,-0.009872, 0.001998, 0.039476, 0.140110,1, 0.009356, 0.008521, 0.000134,1,-0.252128, 0.076129, 9.803113,1,1
1778778813711,  3507.394,  3507.394, 0.012243,-0.012975,-0.998794, 0.000119,-0.000133,-0.009965,-0.131767,-0.049966, 0.008290,1,-0.002339,-0.007410,-0.000025,1,-0.251602, 0.077202, 9.803118,1,1
1778778813733,  3507.419,  3507.414, 0.031420,-0.000521,-0.990451, 0.000301,-0.000004,-0.009912,-0.004549, 0.035846,-0.014541,1,-0.006414, 0.003737,-0.000718,1,-0.251390, 0.075178, 9.803139,1,1
1778778813756,  3507.439,  3507.439, 0.023493,-0.013233,-1.001344, 0.000228,-0.000134,-0.009999,-0.021819,-0.053674,-0.016715,1,-0.001312,-0.002286, 0.000954,1,-0.252132, 0.076056, 9.803113,1,1
1778778813781,  3507.464,  3507.464, 0.026912,-0.005378,-0.990186, 0.000256,-0.000071,-0.009937, 0.010955, 0.023116, 0.092685,1, 0.002857, 0.011724,-0.001851,1,-0.253324, 0.075947, 9.803083,1,1
1778778813803,  3507.489,  3507.484, 0.015797,-0.014334,-1.000884, 0.000129,-0.000136,-0.009987,-0.081196,-0.036764, 0.144699,1,-0.001997,-0.005158, 0.000248,1,-0.253965, 0.076822, 9.803060,1,1
1778778813826,  3507.509,  3507.509, 0.028448,-0.002696,-1.002321, 0.000291,-0.000038,-0.010048, 0.026737, 0.046808,-0.026286,1,-0.007577, 0.004490,-0.000847,1,-0.252325, 0.073021, 9.803131,1,1
1778778813851,  3507.534,  3507.534, 0.020896,-0.006953,-0.994984, 0.000224,-0.000054,-0.009942,-0.048179, 0.006047, 0.045645,1, 0.010451, 0.000921, 0.000133,1,-0.253129, 0.074562, 9.803099,1,1
1778778813873,  3507.559,  3507.554, 0.026007,-0.005542,-0.989400, 0.000268,-0.000067,-0.009907,-0.029561,-0.045047, 0.017322,1,-0.001509, 0.002160,-0.000561,1,-0.253115, 0.074873, 9.803097,1,1
1778778813896,  3507.579,  3507.579, 0.016722,-0.007510,-0.995911, 0.000176,-0.000070,-0.009945,-0.089142, 0.001442, 0.036548,1,-0.000365,-0.006950, 0.000955,1,-0.252907, 0.075075, 9.803101,1,1
1778778813922,  3507.604,  3507.604, 0.026008,-0.006845,-1.007509, 0.000238,-0.000080,-0.010082, 0.003109, 0.006504,-0.077152,1,-0.009246,-0.001743,-0.000931,1,-0.251885, 0.073337, 9.803141,1,1
1778778813943,  3507.629,  3507.624, 0.022330,-0.007493,-0.990867, 0.000229,-0.000067,-0.009897, 0.040846, 0.070689, 0.095310,1, 0.011040, 0.004475,-0.000099,1,-0.252696, 0.074168, 9.803113,1,1
1778778813966,  3507.654,  3507.649, 0.020786,-0.010274,-0.995808, 0.000195,-0.000112,-0.009964,-0.048484,-0.025467, 0.037573,1,-0.006406,-0.000097,-0.000821,1,-0.252319, 0.075084, 9.803116,1,1
1778778813992,  3507.674,  3507.674, 0.021774,-0.002230,-0.989794, 0.000222,-0.000017,-0.009896,-0.038977, 0.052663, 0.096549,1, 0.000243,-0.000171, 0.000895,1,-0.252501, 0.074535, 9.803116,1,1
1778778814013,  3507.699,  3507.694, 0.027388,-0.009047,-1.002609, 0.000272,-0.000093,-0.010040,-0.049032,-0.039824,-0.072220,1,-0.002247,-0.002403, 0.000549,1,-0.251845, 0.074547, 9.803132,1,1
1778778814036,  3507.724,  3507.719, 0.020884,-0.006798,-0.984718, 0.000228,-0.000053,-0.009850,-0.047440, 0.008924, 0.146325,1, 0.013444, 0.004610,-0.000043,1,-0.252386, 0.076008, 9.803107,1,1
1778778814062,  3507.744,  3507.744, 0.013062,-0.016788,-0.997824, 0.000121,-0.000164,-0.009974,-0.124066,-0.087811, 0.017794,1,-0.003573,-0.002975, 0.000150,1,-0.252068, 0.076714, 9.803110,1,1
1778778814083,  3507.769,  3507.764, 0.027218,-0.006382,-0.990383, 0.000278,-0.000060,-0.009896, 0.018019, 0.022935, 0.081742,1,-0.008917, 0.003387,-0.000475,1,-0.252507, 0.074585, 9.803115,1,1
1778778814106,  3507.794,  3507.789, 0.021409,-0.014737,-1.000554, 0.000205,-0.000151,-0.010006,-0.042634,-0.070354,-0.008970,1,-0.005512,-0.001576, 0.000973,1,-0.252537, 0.073996, 9.803119,1,1
1778778814132,  3507.814,  3507.814, 0.027960,-0.004558,-0.986564, 0.000277,-0.000055,-0.009869, 0.021125, 0.027875, 0.128228,1,-0.005062, 0.004270,-0.000936,1,-0.253205, 0.072418, 9.803113,1,1
1778778814153,  3507.839,  3507.834, 0.016994,-0.014699,-1.007027, 0.000160,-0.000149,-0.010059,-0.093336,-0.046352, 0.029403,1,-0.002048,-0.004769, 0.001144,1,-0.252816, 0.072421, 9.803123,1,1
1778778814176,  3507.864,  3507.859, 0.029215, 0.000398,-0.998612, 0.000293,-0.000002,-0.009997, 0.034388, 0.073595, 0.010121,1,-0.006580, 0.003839,-0.000970,1,-0.252233, 0.069487, 9.803160,1,1
1778778814202,  3507.884,  3507.884, 0.020153,-0.008223,-0.997128, 0.000214,-0.000074,-0.009967,-0.055004,-0.010414, 0.024661,1, 0.004097,-0.000647, 0.000938,1,-0.252618, 0.070351, 9.803144,1,1
1778778814224,  3507.909,  3507.904, 0.024616,-0.000423,-0.992852, 0.000258,-0.000007,-0.009940,-0.013251,-0.005492,-0.012056,1,-0.004012, 0.000451,-0.001140,1,-0.252350, 0.069746, 9.803155,1,1
1778778814246,  3507.934,  3507.929, 0.018940,-0.007829,-1.001363, 0.000195,-0.000075,-0.009997,-0.066127,-0.005884,-0.016858,1, 0.001393,-0.006354,-0.000095,1,-0.251670, 0.070931, 9.803164,1,1
1778778814272,  3507.954,  3507.954, 0.031894,-0.002195,-1.000914, 0.000305,-0.000032,-0.010030, 0.061459, 0.048552,-0.012435,1,-0.002727, 0.002884,-0.001197,1,-0.251409, 0.069987, 9.803177,1,1
1778778814294,  3507.979,  3507.974, 0.015828,-0.011678,-0.999187, 0.000159,-0.000116,-0.009975,-0.006596, 0.039532, 0.100655,1, 0.013464,-0.000148,-0.000128,1,-0.252082, 0.071931, 9.803145,1,1
1778778814321,  3508.004,  3508.004, 0.024881,-0.006206,-0.996146, 0.000238,-0.000078,-0.009980,-0.007653, 0.011414, 0.034302,1,-0.006510, 0.003042,-0.001235,1,-0.251752, 0.072066, 9.803153,1,1
1778778814342,  3508.024,  3508.024, 0.023050,-0.004521,-0.987970, 0.000238,-0.000035,-0.009869,-0.026408, 0.027965, 0.114457,1, 0.005721, 0.001254, 0.000619,1,-0.252486, 0.072479, 9.803131,1,1
1778778814364,  3508.049,  3508.044, 0.028904,-0.003016,-0.991379, 0.000283,-0.000076,-0.009938,-0.052820,-0.059457,-0.024806,1,-0.001518, 0.000458,-0.000206,1,-0.252130, 0.072758, 9.803139,1,1
1778778814391,  3508.074,  3508.074, 0.019051,-0.001925,-0.980788, 0.000242,-0.000011,-0.009791,-0.066181, 0.053911, 0.184865,1, 0.001965,-0.005457, 0.000923,1,-0.252838, 0.072852, 9.803120,1,1
1778778814412,  3508.099,  3508.094, 0.021496,-0.005639,-0.997019, 0.000220,-0.000084,-0.009983,-0.083545,-0.098855,-0.008486,1,-0.013830,-0.004793, 0.000811,1,-0.251960, 0.071320, 9.803153,1,1
1778778814434,  3508.119,  3508.114, 0.021809,-0.005839,-0.998680, 0.000230,-0.000053,-0.009978,-0.019601, 0.073171, 0.048414,1,-0.003390, 0.001888,-0.000622,1,-0.251417, 0.069171, 9.803183,1,1
1778778814461,  3508.144,  3508.144, 0.021832,-0.011617,-1.002977, 0.000202,-0.000124,-0.010040,-0.037367,-0.043763,-0.032675,1,-0.000173, 0.001593, 0.000216,1,-0.251516, 0.070161, 9.803173,1,1
1778778814482,  3508.169,  3508.164, 0.020743,-0.008167,-0.994723, 0.000209,-0.000080,-0.009932, 0.022861, 0.027482, 0.090738,1, 0.000600, 0.002789,-0.000285,1,-0.252220, 0.069985, 9.803156,1,1
1778778814504,  3508.189,  3508.184, 0.020345,-0.011655,-1.007526, 0.000185,-0.000128,-0.010079,-0.094999,-0.047906,-0.048544,1,-0.002390,-0.004631, 0.000788,1,-0.251667, 0.070072, 9.803170,1,1
1778778814531,  3508.214,  3508.214, 0.025790,-0.000469,-0.993701, 0.000268,-0.000000,-0.009942, 0.001413, 0.063923, 0.058303,1, 0.002009, 0.002047, 0.000743,1,-0.251561, 0.068588, 9.803183,1,1
1778778814552,  3508.239,  3508.234, 0.020562,-0.015506,-1.002945, 0.000193,-0.000152,-0.010039,-0.103251,-0.056700,-0.016801,1, 0.004994,-0.002364, 0.000875,1,-0.251370, 0.069990, 9.803178,1,1
1778778814574,  3508.259,  3508.254, 0.029501,-0.002243,-0.983845, 0.000302,-0.000004,-0.009851, 0.029438, 0.023058, 0.051310,1,-0.005358, 0.003297,-0.001980,1,-0.251726, 0.069139, 9.803175,1,1
1778778814601,  3508.284,  3508.284, 0.016724,-0.009970,-0.996197, 0.000160,-0.000094,-0.009943,-0.088184,-0.027751, 0.033799,1,-0.000988,-0.003993, 0.000681,1,-0.252063, 0.069989, 9.803161,1,1
1778778814623,  3508.309,  3508.304, 0.027917,-0.000144,-0.987470, 0.000282,-0.000000,-0.009876, 0.009902, 0.061560, 0.063364,1,-0.006537, 0.002005,-0.000975,1,-0.251885, 0.068193, 9.803178,1,1
1778778814644,  3508.329,  3508.324, 0.019029,-0.009669,-1.002112, 0.000182,-0.000101,-0.010008,-0.039701, 0.022783, 0.077867,1, 0.008196,-0.002133, 0.000587,1,-0.251446, 0.069288, 9.803181,1,1
1778778814671,  3508.354,  3508.354, 0.031079,-0.003558,-0.990762, 0.000294,-0.000049,-0.009922, 0.053443, 0.034421, 0.087129,1,-0.001363, 0.005236,-0.001037,1,-0.251499, 0.069274, 9.803180,1,1
1778778814693,  3508.379,  3508.374, 0.016357,-0.012794,-1.002121, 0.000154,-0.000128,-0.010007,-0.047062,-0.007641, 0.066079,1, 0.003457,-0.003479, 0.000879,1,-0.251574, 0.069945, 9.803173,1,1
1778778814714,  3508.399,  3508.394, 0.027642,-0.003453,-0.994030, 0.000278,-0.000039,-0.009957,-0.029367,-0.019880,-0.041080,1,-0.009510,-0.001695,-0.000513,1,-0.250847, 0.069034, 9.803198,1,1
1778778814741,  3508.424,  3508.424, 0.018117,-0.006322,-0.998059, 0.000200,-0.000044,-0.009969,-0.073358, 0.006574, 0.015580,1, 0.006643,-0.002651, 0.000739,1,-0.250945, 0.068776, 9.803198,1,1
1778778814763,  3508.449,  3508.444, 0.028458,-0.005318,-0.993832, 0.000292,-0.000061,-0.009954,-0.027185,-0.054740,-0.037039,1,-0.004208,-0.000385,-0.000858,1,-0.250637, 0.068726, 9.803205,1,1
1778778814784,  3508.469,  3508.464, 0.017630,-0.007798,-0.995027, 0.000195,-0.000065,-0.009940, 0.008115, 0.041831, 0.096265,1, 0.003556, 0.002185,-0.000551,1,-0.251278, 0.068410, 9.803191,1,1
1778778814811,  3508.494,  3508.494, 0.022673,-0.013278,-1.002355, 0.000208,-0.000146,-0.010028,-0.028766,-0.061656,-0.026549,1,-0.008070,-0.000563,-0.000452,1,-0.251096, 0.068306, 9.803197,1,1
1778778814833,  3508.519,  3508.514, 0.019250,-0.009876,-0.993597, 0.000199,-0.000089,-0.009921, 0.001653, 0.052833, 0.110802,1, 0.004934, 0.004712, 0.000196,1,-0.251288, 0.067887, 9.803195,1,1
1778778814856,  3508.539,  3508.539, 0.024184,-0.010151,-1.001548, 0.000221,-0.000118,-0.010024,-0.013694,-0.031017,-0.018633,1,-0.005815,-0.000003,-0.000951,1,-0.250860, 0.068350, 9.803203,1,1
1778778814881,  3508.564,  3508.564, 0.027585,-0.003217,-0.985843, 0.000284,-0.000025,-0.009859, 0.018868, 0.036413, 0.135366,1, 0.003606, 0.004580, 0.000288,1,-0.251795, 0.068076, 9.803181,1,1
1778778814903,  3508.589,  3508.584, 0.018877,-0.011834,-0.999842, 0.000177,-0.000126,-0.010009,-0.110726,-0.063677,-0.010223,1,-0.001248,-0.004603, 0.001209,1,-0.251165, 0.068837, 9.803191,1,1
1778778814926,  3508.609,  3508.609, 0.025432,-0.002249,-0.987560, 0.000273,-0.000012,-0.009876,-0.002003, 0.045815, 0.118540,1, 0.003023, 0.001628,-0.000840,1,-0.251460, 0.067962, 9.803190,1,1
1778778814951,  3508.634,  3508.634, 0.021081,-0.011327,-1.001161, 0.000210,-0.000102,-0.010005,-0.044120,-0.042473,-0.014839,1, 0.000093,-0.004754, 0.000667,1,-0.250706, 0.068607, 9.803205,1,1
1778778814973,  3508.659,  3508.654, 0.023746,-0.000603,-0.985897, 0.000253, 0.000006,-0.009858, 0.044218, 0.080200, 0.105625,1, 0.001387, 0.000870,-0.001653,1,-0.250577, 0.068240, 9.803210,1,1
1778778814996,  3508.679,  3508.679, 0.013800,-0.013555,-1.004020, 0.000122,-0.000135,-0.010022,-0.114109,-0.062734,-0.042844,1,-0.000423,-0.008919,-0.000214,1,-0.249165, 0.070181, 9.803233,1,1
1778778815021,  3508.704,  3508.704, 0.030416, 0.002214,-0.996802, 0.000296, 0.000005,-0.009981, 0.049592, 0.090756, 0.027962,1,-0.002689, 0.000705,-0.001554,1,-0.248710, 0.068957, 9.803253,1,1
1778778815043,  3508.729,  3508.724, 0.020908,-0.013521,-0.998917, 0.000207,-0.000130,-0.009979,-0.007709, 0.000320, 0.087748,1, 0.017524,-0.005266, 0.000171,1,-0.247679, 0.071626, 9.803260,1,1
1778778815066,  3508.749,  3508.749, 0.025245,-0.007658,-0.990262, 0.000261,-0.000087,-0.009916, 0.001675,-0.001568, 0.092139,1, 0.000326,-0.004188,-0.001214,1,-0.245763, 0.073538, 9.803294,1,1
1778778815092,  3508.774,  3508.774, 0.015474,-0.011647,-0.995850, 0.000162,-0.000099,-0.009946,-0.092835,-0.040056, 0.037371,1, 0.003563,-0.010231, 0.000184,1,-0.244265, 0.074271, 9.803326,1,1
1778778815113,  3508.799,  3508.794, 0.028012,-0.000452,-0.996707, 0.000288,-0.000019,-0.009987, 0.017221,-0.042950,-0.083188,1,-0.009221,-0.006378,-0.002195,1,-0.242334, 0.073051, 9.803383,1,1
1778778815136,  3508.819,  3508.819, 0.017606,-0.012175,-0.988539, 0.000190,-0.000101,-0.009876,-0.069757,-0.044602, 0.109115,1, 0.011725,-0.005264, 0.000167,1,-0.242252, 0.075164, 9.803370,1,1
1778778815162,  3508.844,  3508.844, 0.018982,-0.012381,-1.005800, 0.000187,-0.000140,-0.010066,-0.054562,-0.046609,-0.060118,1,-0.007491,-0.005981,-0.001702,1,-0.240528, 0.074568, 9.803416,1,1
1778778815183,  3508.869,  3508.864, 0.020006,-0.007985,-0.992729, 0.000196,-0.000079,-0.009909,-0.016526, 0.048709, 0.117060,1, 0.006212, 0.002595, 0.000756,1,-0.241067, 0.074782, 9.803401,1,1
1778778815206,  3508.894,  3508.889, 0.025427,-0.009494,-1.002160, 0.000239,-0.000103,-0.010035, 0.009479,-0.017626,-0.024409,1, 0.002560, 0.000893,-0.000581,1,-0.239901, 0.075554, 9.803424,1,1
1778778815232,  3508.914,  3508.914, 0.020391,-0.008136,-0.983050, 0.000208,-0.000075,-0.009825,-0.040213,-0.002458, 0.162980,1, 0.010757, 0.000904,-0.000510,1,-0.240166, 0.077668, 9.803401,1,1
1778778815253,  3508.939,  3508.934, 0.020885,-0.006981,-1.002022, 0.000208,-0.000070,-0.010036,-0.079049,-0.028087,-0.037528,1,-0.008617,-0.008158,-0.000052,1,-0.238521, 0.077087, 9.803446,1,1
