Time,GPS_ts,fGPS_ts,scaledAccelX,scaledAccelY,scaledAccelZ,deltaVelX,deltaVelY,deltaVelZ,estLinearAccelX,estLinearAccelY,estLinearAccelZ,estLinearAccel:valid,estAngularRateX,estAngularRateY,estAngularRateZ,estAngularRate:valid,estGravityX,estGravityY,estGravityZ,estGravity:valid,flag
1778778567130,  3228.086,  3228.086, 0.013892, 0.144228,-0.998555, 0.000157, 0.001434,-0.010011,-0.000249,-0.046587,-0.096231,1,-0.004520, 0.003172,-0.001385,1,-0.136572,-1.461120, 9.696229,1,0
1778778567130,  3228.111,  3228.106, 0.019824, 0.140246,-0.994745, 0.000171, 0.001417,-0.009918,-0.106190, 0.019189, 0.083163,1, 0.003768,-0.005498, 0.001370,1,-0.136410,-1.462051, 9.696091,1,0
1778778567130,  3228.131,  3228.131, 0.016086, 0.150492,-0.977667, 0.000180, 0.001486,-0.009809, 0.020512, 0.013046, 0.108329,1,-0.016165, 0.011568,-0.001303,1,-0.137589,-1.463274, 9.695890,1,0
1778778567130,  3228.156,  3228.156, 0.013878, 0.150768,-0.978102, 0.000117, 0.001534,-0.009740,-0.001405, 0.015560, 0.104028,1, 0.017178,-0.009177, 0.000312,1,-0.137224,-1.462443, 9.696021,1,0
1778778567130,  3228.181,  3228.176,-0.000325, 0.155244,-0.977454, 0.000013, 0.001535,-0.009803, 0.001188,-0.069358,-0.062819,1,-0.006839, 0.003986,-0.001223,1,-0.136594,-1.461198, 9.696218,1,0
1778778567130,  3228.206,  3228.206, 0.017941, 0.146522,-0.994991, 0.000151, 0.001482,-0.009925, 0.039867,-0.025091,-0.061423,1, 0.012608,-0.009490,-0.000004,1,-0.135785,-1.461595, 9.696169,1,0
1778778567130,  3228.231,  3228.226, 0.008387, 0.160123,-0.960603, 0.000098, 0.001594,-0.009630, 0.073745, 0.012699, 0.025847,1,-0.022714, 0.014878,-0.001409,1,-0.137256,-1.463618, 9.695843,1,0
1778778567130,  3228.256,  3228.251, 0.016461, 0.143279,-0.987182, 0.000150, 0.001462,-0.009829, 0.025179,-0.057964, 0.014989,1, 0.023901,-0.012981, 0.000178,1,-0.135840,-1.462329, 9.696057,1,0
1778778567130,  3228.281,  3228.276, 0.004051, 0.157198,-0.985053, 0.000032, 0.001585,-0.009841,-0.061492,-0.001317,-0.058546,1,-0.012621, 0.005494,-0.001577,1,-0.135880,-1.462610, 9.696014,1,0
1778778567130,  3228.301,  3228.296, 0.030434, 0.140345,-0.998946, 0.000290, 0.001416,-0.009983, 0.012536, 0.012660,-0.023774,1, 0.004169,-0.004354, 0.001355,1,-0.135650,-1.463279, 9.695916,1,0
1778778567130,  3228.321,  3228.316, 0.009114, 0.156144,-0.965860, 0.000117, 0.001545,-0.009685, 0.140590,-0.053044, 0.021709,1,-0.010518, 0.008266,-0.001851,1,-0.136242,-1.463831, 9.695825,1,0
1778778567142,  3260.856,  3260.851, 0.014602, 0.084464,-1.002877, 0.000147, 0.000846,-0.010022,-0.071465, 0.004707,-0.065218,1,-0.012633,-0.003177, 0.000569,1,-0.214553,-0.823994, 9.769615,1,0
1778778567168,  3260.876,  3260.876, 0.029486, 0.089974,-0.995722, 0.000295, 0.000899,-0.009974, 0.074167, 0.058434, 0.004918,1, 0.009103, 0.005055,-0.000668,1,-0.215149,-0.823628, 9.769633,1,0
1778778567189,  3260.901,  3260.896, 0.012083, 0.076603,-0.984373, 0.000129, 0.000771,-0.009846,-0.014133,-0.007652, 0.117666,1, 0.013436, 0.001717, 0.001215,1,-0.215966,-0.820954, 9.769840,1,0
1778778567212,  3260.926,  3260.921, 0.021920, 0.083317,-0.991136, 0.000212, 0.000816,-0.009909,-0.000439,-0.003852, 0.050135,1,-0.011127,-0.004280,-0.002086,1,-0.215267,-0.821259, 9.769830,1,0
1778778567238,  3260.946,  3260.946, 0.022526, 0.087644,-0.997556, 0.000227, 0.000878,-0.009975, 0.005887, 0.036202,-0.013022,1,-0.008130,-0.000678, 0.000689,1,-0.214996,-0.823540, 9.769644,1,0
1778778567259,  3260.971,  3260.966, 0.026920, 0.084730,-0.990696, 0.000265, 0.000845,-0.009912, 0.025134,-0.015119,-0.009074,1, 0.008439, 0.002427,-0.001181,1,-0.215201,-0.822809, 9.769701,1,0
1778778567282,  3260.996,  3260.991, 0.017340, 0.081757,-0.986028, 0.000182, 0.000820,-0.009848,-0.045735,-0.019146, 0.100213,1,-0.000693,-0.001084, 0.000627,1,-0.215751,-0.820929, 9.769847,1,0
1778778567308,  3261.016,  3261.016, 0.019079, 0.081097,-0.998733, 0.000177, 0.000808,-0.009983,-0.028078,-0.026898,-0.024471,1,-0.009438,-0.001556,-0.000840,1,-0.215130,-0.822479, 9.769731,1,0
1778778567330,  3261.041,  3261.036, 0.021959, 0.087101,-0.992069, 0.000240, 0.000878,-0.009922, 0.078468, 0.053876, 0.027072,1,-0.000388, 0.003109,-0.000068,1,-0.215534,-0.823258, 9.769656,1,0
1778778567352,  3261.066,  3261.061, 0.019605, 0.079274,-0.990696, 0.000187, 0.000795,-0.009916,-0.023467,-0.044183, 0.054378,1, 0.008638, 0.002127,-0.001364,1,-0.215793,-0.821328, 9.769813,1,0
1778778567378,  3261.086,  3261.086, 0.027303, 0.084927,-0.987300, 0.000281, 0.000847,-0.009876, 0.051897, 0.011582, 0.087715,1,-0.005376,-0.001111, 0.000314,1,-0.215822,-0.821432, 9.769803,1,0
1778778567400,  3261.111,  3261.106, 0.020165, 0.082119,-0.998884, 0.000185, 0.000816,-0.009990,-0.075828,-0.016792,-0.010278,1,-0.004888,-0.003428, 0.000367,1,-0.215207,-0.822740, 9.769707,1,0
1778778567427,  3261.136,  3261.136, 0.027789, 0.087119,-0.990508, 0.000275, 0.000874,-0.009907, 0.057014, 0.031880, 0.056160,1, 0.003552, 0.003054, 0.000261,1,-0.215597,-0.822351, 9.769731,1,0
1778778567448,  3261.156,  3261.156, 0.015574, 0.079519,-0.993017, 0.000157, 0.000797,-0.009922,-0.062873,-0.042017, 0.031602,1, 0.002262,-0.001306, 0.000415,1,-0.215559,-0.821766, 9.769781,1,0
1778778567470,  3261.181,  3261.176, 0.026886, 0.086371,-0.989195, 0.000274, 0.000867,-0.009889, 0.043472, 0.009444, 0.055034,1,-0.002143, 0.001470,-0.001020,1,-0.215703,-0.821943, 9.769763,1,0
1778778567497,  3261.206,  3261.206, 0.014250, 0.082627,-0.993778, 0.000148, 0.000833,-0.009938,-0.075725,-0.012237, 0.024084,1, 0.000548,-0.001858, 0.000783,1,-0.215410,-0.822516, 9.769721,1,0
1778778567518,  3261.231,  3261.226, 0.027033, 0.085048,-0.992118, 0.000281, 0.000851,-0.009925, 0.028289,-0.007790, 0.034378,1, 0.002665, 0.000413,-0.001717,1,-0.215404,-0.822001, 9.769765,1,0
1778778567540,  3261.251,  3261.246, 0.017799, 0.081974,-0.989945, 0.000181, 0.000823,-0.009906,-0.004321, 0.002777, 0.048394,1,-0.000209, 0.002230, 0.001040,1,-0.215697,-0.821837, 9.769772,1,0
1778778567567,  3261.276,  3261.276, 0.024772, 0.086785,-0.990652, 0.000248, 0.000859,-0.009907, 0.027101, 0.028872, 0.054764,1, 0.000446,-0.000780,-0.001540,1,-0.215800,-0.822182, 9.769741,1,0
1778778567588,  3261.301,  3261.296, 0.016145, 0.080194,-0.996818, 0.000158, 0.000801,-0.009965,-0.034056, 0.001714, 0.023910,1,-0.000569,-0.001923, 0.001516,1,-0.215717,-0.822068, 9.769752,1,0
1778778567610,  3261.321,  3261.316, 0.026858, 0.086805,-0.996177, 0.000258, 0.000860,-0.009968,-0.003677,-0.022236,-0.027428,1,-0.001030,-0.001409,-0.001666,1,-0.215282,-0.822447, 9.769730,1,0
1778778567637,  3261.346,  3261.346, 0.021891, 0.084367,-0.988147, 0.000231, 0.000849,-0.009873,-0.001247, 0.005465, 0.079348,1, 0.000980, 0.000382, 0.001256,1,-0.215943,-0.821862, 9.769764,1,0
1778778567659,  3261.371,  3261.366, 0.022165, 0.081809,-0.991353, 0.000215, 0.000818,-0.009912,-0.043331,-0.041137, 0.040993,1, 0.003363,-0.000667,-0.001150,1,-0.215667,-0.821403, 9.769809,1,0
1778778567680,  3261.391,  3261.386, 0.019868, 0.084401,-0.994899, 0.000209, 0.000849,-0.009948, 0.012307, 0.006116, 0.044536,1,-0.004360,-0.001078,-0.000449,1,-0.215579,-0.821581, 9.769796,1,0
1778778567707,  3261.416,  3261.416, 0.025101, 0.084075,-0.993523, 0.000244, 0.000840,-0.009946, 0.030508, 0.001741, 0.026562,1, 0.002378, 0.002625,-0.000924,1,-0.215730,-0.822682, 9.769700,1,0
1778778567729,  3261.441,  3261.436, 0.015476, 0.081681,-0.988249, 0.000166, 0.000821,-0.009882, 0.028269, 0.021819, 0.104326,1, 0.007926, 0.001702, 0.000479,1,-0.216176,-0.821296, 9.769807,1,0
1778778567750,  3261.461,  3261.456, 0.019782, 0.080406,-0.995931, 0.000183, 0.000787,-0.009959,-0.098064,-0.060672, 0.034999,1,-0.001004,-0.002673,-0.000057,1,-0.215885,-0.820842, 9.769852,1,0
1778778567777,  3261.486,  3261.486, 0.029283, 0.089965,-0.995278, 0.000295, 0.000897,-0.009957, 0.071507, 0.059700, 0.009364,1,-0.003931, 0.001613, 0.000241,1,-0.215716,-0.822676, 9.769701,1,0
1778778567799,  3261.511,  3261.506, 0.022139, 0.080233,-0.993268, 0.000205, 0.000799,-0.009933,-0.055887,-0.042110, 0.032760,1, 0.007174, 0.000046, 0.000699,1,-0.215947,-0.821754, 9.769773,1,0
1778778567820,  3261.531,  3261.526, 0.025857, 0.085002,-0.986594, 0.000268, 0.000855,-0.009865, 0.043421, 0.004362, 0.069074,1, 0.001111, 0.001875,-0.001196,1,-0.216039,-0.820832, 9.769849,1,0
1778778567847,  3261.556,  3261.556, 0.013143, 0.080677,-0.996984, 0.000135, 0.000813,-0.009963,-0.086719,-0.030776,-0.007315,1,-0.002375,-0.003475, 0.000267,1,-0.215503,-0.822024, 9.769760,1,0
1778778567869,  3261.581,  3261.576, 0.029822, 0.085821,-0.990067, 0.000312, 0.000862,-0.009906, 0.059779, 0.016347, 0.035372,1, 0.002487, 0.002234,-0.001761,1,-0.215730,-0.821863, 9.769769,1,0
1778778567890,  3261.601,  3261.596, 0.014523, 0.081113,-0.991751, 0.000149, 0.000812,-0.009925,-0.018841, 0.004064, 0.044117,1, 0.002776,-0.000560, 0.000941,1,-0.215781,-0.821393, 9.769808,1,0
1778778567917,  3261.626,  3261.626, 0.025945, 0.084745,-0.991650, 0.000251, 0.000835,-0.009915, 0.038681, 0.009449, 0.045025,1,-0.004319,-0.001039,-0.001252,1,-0.215717,-0.821753, 9.769778,1,0
1778778567939,  3261.651,  3261.646, 0.016393, 0.082375,-0.994170, 0.000158, 0.000829,-0.009938,-0.010946, 0.019963, 0.020911,1,-0.000412, 0.001424, 0.001460,1,-0.215821,-0.822304, 9.769730,1,0
1778778567962,  3261.671,  3261.671, 0.024588, 0.085694,-0.993757, 0.000236, 0.000847,-0.009935, 0.025494, 0.018476, 0.024335,1, 0.001550, 0.000248,-0.001570,1,-0.215638,-0.821852, 9.769772,1,0
1778778567987,  3261.696,  3261.696, 0.020543, 0.083273,-0.990582, 0.000214, 0.000839,-0.009899,-0.014484,-0.004810, 0.055504,1, 0.001034, 0.001643, 0.001177,1,-0.215997,-0.821405, 9.769802,1,0
1778778568009,  3261.721,  3261.716, 0.024180, 0.086193,-0.992456, 0.000242, 0.000859,-0.009932,-0.018661,-0.030619, 0.007450,1,-0.001167,-0.001101,-0.001568,1,-0.215654,-0.821611, 9.769792,1,0
1778778568032,  3261.741,  3261.741, 0.020474, 0.083717,-0.989940, 0.000218, 0.000846,-0.009897,-0.015203,-0.000352, 0.061808,1, 0.000814,-0.000563, 0.000644,1,-0.215968,-0.821310, 9.769811,1,0
1778778568057,  3261.766,  3261.766, 0.018910, 0.080097,-0.995848, 0.000182, 0.000798,-0.009969,-0.030251,-0.035872, 0.003882,1, 0.001424, 0.000287,-0.000783,1,-0.215704,-0.821309, 9.769816,1,0
1778778568079,  3261.791,  3261.786, 0.021436, 0.085669,-0.990771, 0.000223, 0.000857,-0.009905, 0.047541, 0.030241, 0.083154,1,-0.000798, 0.001151,-0.000162,1,-0.216087,-0.821167, 9.769819,1,0
1778778568102,  3261.811,  3261.811, 0.022414, 0.080548,-0.995580, 0.000208, 0.000801,-0.009960, 0.003958,-0.031584, 0.006496,1, 0.002563, 0.000571,-0.001315,1,-0.215858,-0.821411, 9.769804,1,0
1778778568128,  3261.836,  3261.836, 0.025775, 0.085820,-0.990621, 0.000259, 0.000857,-0.009904, 0.036653, 0.020553, 0.055156,1, 0.000453, 0.000655, 0.000398,1,-0.216132,-0.821044, 9.769829,1,0
1778778568149,  3261.861,  3261.856, 0.023166, 0.081590,-0.995324, 0.000216, 0.000811,-0.009954,-0.065109,-0.026907, 0.006937,1,-0.000963,-0.001573, 0.000323,1,-0.215847,-0.821320, 9.769812,1,0
1778778568172,  3261.881,  3261.881, 0.026445, 0.085774,-0.990543, 0.000280, 0.000866,-0.009907, 0.043220, 0.020007, 0.055913,1, 0.000266, 0.001133, 0.001109,1,-0.216153,-0.821138, 9.769820,1,0
1778778568198,  3261.906,  3261.906, 0.014379, 0.079347,-0.994005, 0.000147, 0.000802,-0.009938,-0.074926,-0.042866, 0.021978,1, 0.000926,-0.001675, 0.000642,1,-0.215890,-0.820967, 9.769841,1,0
1778778568219,  3261.931,  3261.926, 0.023462, 0.086234,-0.991124, 0.000251, 0.000864,-0.009916, 0.012133, 0.022038, 0.037960,1,-0.001776, 0.000254,-0.000810,1,-0.215750,-0.821163, 9.769828,1,0
1778778568242,  3261.951,  3261.951, 0.016362, 0.081371,-0.994244, 0.000165, 0.000809,-0.009950,-0.055197,-0.023514, 0.019601,1, 0.000061,-0.001379, 0.000498,1,-0.215615,-0.821492, 9.769803,1,0
1778778568268,  3261.976,  3261.976, 0.028687, 0.085432,-0.990008, 0.000285, 0.000848,-0.009906, 0.065386, 0.016611, 0.061157,1, 0.002408, 0.001894,-0.001653,1,-0.215996,-0.821119, 9.769826,1,0
1778778568289,  3262.001,  3261.996, 0.017695, 0.081393,-0.990720, 0.000172, 0.000813,-0.009904,-0.019607, 0.002125, 0.078622,1,-0.000592, 0.000050, 0.001107,1,-0.216252,-0.820934, 9.769835,1,0
1778778568312,  3262.026,  3262.021, 0.025116, 0.085153,-0.994164, 0.000242, 0.000848,-0.009933, 0.030598, 0.013749, 0.020401,1,-0.001797,-0.001929,-0.001541,1,-0.215646,-0.821377, 9.769812,1,0
1778778568338,  3262.046,  3262.046, 0.018658, 0.083707,-0.996154, 0.000191, 0.000840,-0.009956,-0.032664,-0.000512, 0.000876,1,-0.001361, 0.000941, 0.000759,1,-0.215647,-0.821476, 9.769803,1,0
1778778568359,  3262.071,  3262.066, 0.026702, 0.086752,-0.990345, 0.000266, 0.000868,-0.009908, 0.008568,-0.011403, 0.029432,1,-0.000424, 0.000704,-0.001164,1,-0.215749,-0.821643, 9.769787,1,0
1778778568382,  3262.096,  3262.091, 0.017907, 0.081110,-0.989503, 0.000192, 0.000820,-0.009891,-0.040442,-0.025563, 0.066129,1, 0.001411,-0.001721, 0.001708,1,-0.216000,-0.820930, 9.769841,1,0
1778778568408,  3262.116,  3262.116, 0.015550, 0.078355,-0.994864, 0.000162, 0.000789,-0.009943,-0.013744,-0.016320, 0.001778,1,-0.003330,-0.001386,-0.001796,1,-0.215477,-0.821366, 9.769816,1,0
1778778568430,  3262.141,  3262.136, 0.018860, 0.084213,-0.994003, 0.000195, 0.000846,-0.009942, 0.018760, 0.037184, 0.038575,1,-0.002231, 0.000218, 0.000660,1,-0.215653,-0.821949, 9.769763,1,0
1778778568452,  3262.166,  3262.161, 0.023545, 0.081127,-0.993474, 0.000224, 0.000802,-0.009944, 0.015323,-0.025709, 0.027165,1, 0.005425, 0.001296,-0.001002,1,-0.215608,-0.821127, 9.769834,1,0
1778778568478,  3262.186,  3262.186, 0.026497, 0.086457,-0.989498, 0.000272, 0.000863,-0.009892, 0.043872, 0.026823, 0.066172,1,-0.002904, 0.000000, 0.000880,1,-0.215980,-0.821124, 9.769826,1,0
1778778568500,  3262.211,  3262.206, 0.022701, 0.083616,-0.991810, 0.000211, 0.000832,-0.009916,-0.056922,-0.014209, 0.031142,1,-0.001323,-0.000420, 0.000628,1,-0.215789,-0.821762, 9.769776,1,0
1778778568522,  3262.236,  3262.231, 0.024428, 0.084989,-0.994063, 0.000256, 0.000853,-0.009933, 0.023797, 0.012097, 0.021387,1, 0.001147, 0.001186, 0.000274,1,-0.215796,-0.821323, 9.769813,1,0
1778778568548,  3262.256,  3262.256, 0.018890, 0.079897,-0.992927, 0.000181, 0.000803,-0.009929,-0.030837,-0.038083, 0.032498,1,-0.002904, 0.002942, 0.000331,1,-0.216177,-0.821696, 9.769773,1,0
1778778568570,  3262.281,  3262.276, 0.020962, 0.085994,-0.988276, 0.000230, 0.000873,-0.009885, 0.035312, 0.044037, 0.070932,1, 0.000699, 0.001280,-0.000619,1,-0.216220,-0.821963, 9.769750,1,0
1778778568592,  3262.306,  3262.301, 0.014195, 0.076764,-0.998152, 0.000136, 0.000767,-0.009975,-0.076587,-0.068171,-0.018688,1,-0.001390,-0.004075, 0.000247,1,-0.215664,-0.821016, 9.769841,1,0
1778778568618,  3262.326,  3262.326, 0.028835, 0.089264,-0.995479, 0.000282, 0.000884,-0.009970, 0.067151, 0.053368, 0.007447,1,-0.005005, 0.003236,-0.001518,1,-0.215717,-0.822169, 9.769744,1,0
1778778568640,  3262.351,  3262.346, 0.014932, 0.080542,-0.993256, 0.000140, 0.000808,-0.009926,-0.028395, 0.016984, 0.074114,1, 0.003194,-0.002123, 0.001509,1,-0.215985,-0.822170, 9.769737,1,0
1778778568667,  3262.376,  3262.376, 0.027196, 0.082309,-0.990555, 0.000256, 0.000821,-0.009903, 0.050834,-0.013592, 0.055834,1, 0.000135, 0.001412,-0.000729,1,-0.215908,-0.820762, 9.769857,1,0
1778778568688,  3262.396,  3262.396, 0.017878, 0.083385,-0.994352, 0.000183, 0.000835,-0.009935,-0.040422,-0.004143, 0.018501,1,-0.007572,-0.002322, 0.000880,1,-0.215674,-0.822109, 9.769750,1,0
1778778568710,  3262.421,  3262.416, 0.030402, 0.084395,-0.989069, 0.000298, 0.000849,-0.009891, 0.010137, 0.006414, 0.030868,1, 0.001074, 0.002695,-0.001526,1,-0.215867,-0.822405, 9.769720,1,0
1778778568737,  3262.446,  3262.446, 0.017912, 0.081792,-0.990246, 0.000194, 0.000830,-0.009898,-0.040324,-0.018891, 0.058841,1, 0.003079,-0.000135, 0.000599,1,-0.216000,-0.820907, 9.769843,1,0
1778778568758,  3262.471,  3262.466, 0.023460, 0.086423,-0.994645, 0.000232, 0.000858,-0.009949,-0.029865,-0.033435, 0.034050,1,-0.005575,-0.003141,-0.001499,1,-0.215556,-0.821525, 9.769801,1,0
1778778568780,  3262.491,  3262.486, 0.020871, 0.085464,-0.991783, 0.000219, 0.000861,-0.009927, 0.029596, 0.050543, 0.022617,1,-0.001124, 0.001811, 0.000007,1,-0.215404,-0.822234, 9.769745,1,0
1778778568807,  3262.516,  3262.516, 0.023065, 0.082533,-0.994860, 0.000225, 0.000814,-0.009951, 0.010944,-0.012228, 0.013557,1, 0.003062,-0.002329,-0.001855,1,-0.215168,-0.821510, 9.769811,1,0
1778778568829,  3262.541,  3262.536, 0.018538, 0.083252,-0.989513, 0.000188, 0.000833,-0.009881, 0.037080, 0.024452, 0.092681,1, 0.001290, 0.000376, 0.000293,1,-0.215423,-0.820957, 9.769852,1,0
1778778568850,  3262.561,  3262.556, 0.020101, 0.081407,-1.002487, 0.000187, 0.000809,-0.010024,-0.074309,-0.034850,-0.016684,1,-0.007535,-0.006929, 0.000940,1,-0.214348,-0.822105, 9.769779,1,0
1778778568877,  3262.586,  3262.586, 0.027712, 0.085893,-0.992929, 0.000285, 0.000861,-0.009930, 0.057327, 0.020131, 0.032464,1, 0.002128, 0.002245, 0.000693,1,-0.214510,-0.822123, 9.769773,1,0
1778778568899,  3262.611,  3262.606, 0.020902, 0.081271,-0.993660, 0.000194, 0.000816,-0.009947,-0.077783,-0.021192, 0.003870,1, 0.001125,-0.001136, 0.000918,1,-0.214150,-0.822153, 9.769779,1,0
1778778568920,  3262.631,  3262.626, 0.027657, 0.084981,-0.986349, 0.000295, 0.000851,-0.009863, 0.063061,-0.010714, 0.086121,1, 0.004120, 0.002632,-0.001185,1,-0.214715,-0.821172, 9.769850,1,0
1778778568947,  3262.656,  3262.656, 0.014739, 0.081401,-0.993548, 0.000151, 0.000822,-0.009936,-0.069778,-0.023640, 0.026415,1,-0.004157,-0.002349, 0.000390,1,-0.214247,-0.822039, 9.769787,1,0
1778778568969,  3262.681,  3262.676, 0.023174, 0.088331,-0.992873, 0.000243, 0.000882,-0.009936, 0.013778, 0.031566, 0.019534,1,-0.000046, 0.000288,-0.000895,1,-0.214048,-0.822398, 9.769761,1,0
1778778568990,  3262.701,  3262.696, 0.016129, 0.079131,-0.993263, 0.000154, 0.000789,-0.009931,-0.041105, 0.000002, 0.042139,1, 0.002178, 0.000479, 0.000362,1,-0.214302,-0.822017, 9.769788,1,0
1778778569017,  3262.726,  3262.726, 0.029386, 0.086226,-0.990711, 0.000278, 0.000857,-0.009913, 0.073943, 0.024092, 0.054273,1, 0.002226, 0.003333,-0.001912,1,-0.214335,-0.821433, 9.769835,1,0
1778778569039,  3262.751,  3262.746, 0.013595, 0.080425,-0.991826, 0.000132, 0.000810,-0.009901,-0.018005, 0.004060, 0.106372,1,-0.000798,-0.002553, 0.000938,1,-0.214474,-0.821299, 9.769844,1,0
1778778569060,  3262.771,  3262.766, 0.023973, 0.082138,-0.994388, 0.000230, 0.000821,-0.009946,-0.042106,-0.038501,-0.000735,1, 0.001333,-0.002809,-0.001338,1,-0.213548,-0.821165, 9.769876,1,0
1778778569087,  3262.796,  3262.796, 0.020149, 0.083883,-0.995144, 0.000215, 0.000843,-0.009947,-0.015773, 0.001226, 0.010832,1,-0.002902,-0.001842, 0.000858,1,-0.213309,-0.821471, 9.769855,1,0
1778778569109,  3262.821,  3262.816, 0.027331, 0.083404,-0.986407, 0.000280, 0.000836,-0.009872, 0.010811,-0.032071, 0.053410,1, 0.003695, 0.002070,-0.001336,1,-0.213439,-0.821340, 9.769863,1,0
1778778569130,  3262.841,  3262.836, 0.017762, 0.081859,-0.990243, 0.000191, 0.000826,-0.009899, 0.032959, 0.003920, 0.102663,1, 0.003632,-0.001038,-0.000536,1,-0.213460,-0.820429, 9.769939,1,0
1778778569157,  3262.866,  3262.866, 0.018539, 0.079986,-0.999298, 0.000178, 0.000792,-0.009991,-0.030403,-0.037498,-0.029920,1,-0.009371,-0.005843,-0.001470,1,-0.212023,-0.822181, 9.769823,1,0
1778778569179,  3262.891,  3262.886, 0.022805, 0.086900,-0.992733, 0.000234, 0.000871,-0.009927, 0.060825, 0.065052, 0.013601,1,-0.001084, 0.002670,-0.000044,1,-0.212228,-0.823079, 9.769743,1,0
1778778569202,  3262.911,  3262.911, 0.021320, 0.079151,-0.996087, 0.000196, 0.000786,-0.009957,-0.002850,-0.045796, 0.001561,1, 0.005347,-0.001889,-0.002208,1,-0.211861,-0.821837, 9.769855,1,0
1778778569228,  3262.936,  3262.936, 0.023808, 0.084876,-0.990731, 0.000238, 0.000851,-0.009905, 0.021574, 0.010965, 0.054138,1,-0.000945, 0.000166,-0.000381,1,-0.211905,-0.821410, 9.769891,1,0
1778778569249,  3262.961,  3262.956, 0.020695, 0.082788,-0.998648, 0.000193, 0.000829,-0.009989,-0.077776,-0.017319,-0.012726,1,-0.007387,-0.004721, 0.000977,1,-0.210994,-0.822823, 9.769792,1,0
1778778569272,  3262.981,  3262.981, 0.028080, 0.087241,-0.987887, 0.000297, 0.000879,-0.009883, 0.064313, 0.033403, 0.081987,1, 0.006157, 0.001512,-0.000221,1,-0.211102,-0.821946, 9.769863,1,0
1778778569298,  3263.006,  3263.006, 0.015661, 0.080419,-0.990331, 0.000165, 0.000815,-0.009898,-0.057246,-0.032866, 0.058077,1, 0.000653,-0.002931, 0.000754,1,-0.210734,-0.821484, 9.769910,1,0
1778778569319,  3263.031,  3263.026, 0.023203, 0.086836,-0.989099, 0.000242, 0.000869,-0.009896, 0.012747, 0.009354, 0.047382,1,-0.001590, 0.000618,-0.001447,1,-0.210520,-0.821614, 9.769903,1,0
1778778569342,  3263.051,  3263.051, 0.015432, 0.082089,-0.995966, 0.000152, 0.000825,-0.009956,-0.059043,-0.017405, 0.002744,1,-0.000728,-0.002037, 0.001118,1,-0.210313,-0.822444, 9.769838,1,0
1778778569368,  3263.076,  3263.076, 0.027674, 0.087172,-0.995224, 0.000268, 0.000863,-0.009959, 0.060845, 0.032856, 0.010053,1, 0.004164, 0.003678,-0.001773,1,-0.210653,-0.821886, 9.769877,1,0
1778778569389,  3263.101,  3263.096, 0.012427, 0.079066,-0.991602, 0.000122, 0.000794,-0.009898,-0.025457,-0.000658, 0.110395,1, 0.001962,-0.001041, 0.000304,1,-0.211169,-0.821257, 9.769919,1,0
1778778569412,  3263.121,  3263.121, 0.024245, 0.083144,-0.996839, 0.000233, 0.000828,-0.009969, 0.027414,-0.005968,-0.005717,1,-0.001699, 0.001026,-0.001601,1,-0.210374,-0.821382, 9.769926,1,0
1778778569438,  3263.146,  3263.146, 0.020636, 0.084540,-0.992691, 0.000218, 0.000851,-0.009921,-0.008217, 0.006963, 0.034888,1,-0.005395,-0.000276, 0.001833,1,-0.210587,-0.822260, 9.769848,1,0
1778778569459,  3263.171,  3263.166, 0.026253, 0.082726,-0.991176, 0.000260, 0.000830,-0.009921,-0.024728,-0.028272, 0.006594,1, 0.005338, 0.002072,-0.000231,1,-0.210504,-0.821925, 9.769877,1,0
1778778569482,  3263.191,  3263.191, 0.019586, 0.082853,-0.989860, 0.000212, 0.000837,-0.009894,-0.019072,-0.008533, 0.062723,1,-0.002966,-0.001133, 0.001323,1,-0.211110,-0.821133, 9.769932,1,0
1778778569508,  3263.216,  3263.216, 0.019485, 0.081532,-0.994853, 0.000181, 0.000813,-0.009954,-0.019776,-0.022386, 0.013688,1,-0.002348,-0.001104,-0.001098,1,-0.210817,-0.822020, 9.769863,1,0
1778778569529,  3263.241,  3263.236, 0.022492, 0.085477,-0.989631, 0.000229, 0.000857,-0.009899, 0.062409, 0.042155, 0.048447,1, 0.001475, 0.002250,-0.000294,1,-0.211073,-0.821882, 9.769869,1,0
1778778569552,  3263.266,  3263.261, 0.020806, 0.080519,-0.994611, 0.000188, 0.000799,-0.009938,-0.007071,-0.031894, 0.016097,1, 0.001271,-0.000738,-0.001204,1,-0.211081,-0.821480, 9.769903,1,0
1778778569578,  3263.286,  3263.281, 0.026727, 0.087232,-0.990699, 0.000270, 0.000874,-0.009908, 0.050791, 0.034156, 0.054471,1,-0.000571, 0.002466, 0.000051,1,-0.211388,-0.821317, 9.769910,1,0
1778778569600,  3263.311,  3263.306, 0.017118, 0.081082,-0.999878, 0.000153, 0.000808,-0.009996,-0.087345,-0.023391, 0.015301,1,-0.001561,-0.003201, 0.001018,1,-0.211020,-0.821745, 9.769882,1,0
1778778569622,  3263.336,  3263.331, 0.029464, 0.086025,-0.990153, 0.000301, 0.000866,-0.009907, 0.077437, 0.022815, 0.059864,1, 0.001766, 0.004078,-0.000483,1,-0.211634,-0.820747, 9.769953,1,0
1778778569648,  3263.356,  3263.356, 0.014936, 0.080619,-0.990940, 0.000162, 0.000814,-0.009905,-0.065114,-0.030235, 0.052145,1, 0.000475,-0.001294, 0.000970,1,-0.211545,-0.820817, 9.769948,1,0
1778778569670,  3263.381,  3263.376, 0.024658, 0.085443,-0.987823, 0.000254, 0.000856,-0.009881, 0.007265,-0.010572, 0.072479,1, 0.003209, 0.001197,-0.001221,1,-0.211826,-0.820053, 9.770006,1,0
1778778569692,  3263.406,  3263.401, 0.015652, 0.081258,-0.995777, 0.000155, 0.000816,-0.009955,-0.058033,-0.024125, 0.004700,1,-0.003795,-0.002358, 0.000460,1,-0.211456,-0.821112, 9.769925,1,0
1778778569718,  3263.426,  3263.426, 0.028621, 0.086277,-0.996149, 0.000276, 0.000850,-0.009970, 0.069130, 0.024788, 0.001021,1, 0.000704, 0.003471,-0.001690,1,-0.211647,-0.821281, 9.769907,1,0
1778778569740,  3263.451,  3263.446, 0.011312, 0.080100,-0.990783, 0.000118, 0.000810,-0.009892,-0.012911, 0.023642, 0.092990,1, 0.001664, 0.000492, 0.001440,1,-0.212172,-0.820999, 9.769919,1,0
1778778569763,  3263.476,  3263.471, 0.021888, 0.082009,-0.997947, 0.000204, 0.000812,-0.009977, 0.003066,-0.016432,-0.016554,1,-0.002477, 0.000173,-0.001515,1,-0.211584,-0.820741, 9.769954,1,0
1778778569788,  3263.496,  3263.496, 0.023909, 0.086454,-0.994383, 0.000252, 0.000867,-0.009938, 0.022638, 0.026194, 0.018310,1,-0.005835, 0.001134, 0.000744,1,-0.211870,-0.821814, 9.769857,1,0
1778778569810,  3263.521,  3263.516, 0.026125, 0.084110,-0.989607, 0.000262, 0.000838,-0.009901,-0.013345,-0.017709, 0.017995,1, 0.006405, 0.001903,-0.000875,1,-0.211888,-0.821371, 9.769895,1,0
1778778569833,  3263.546,  3263.541, 0.020703, 0.082916,-0.985647, 0.000227, 0.000837,-0.009851,-0.009198,-0.006714, 0.104124,1,-0.001530,-0.003273, 0.000821,1,-0.212121,-0.819890, 9.770014,1,0
1778778569858,  3263.566,  3263.566, 0.014587, 0.079433,-0.996924, 0.000136, 0.000790,-0.009972,-0.068236,-0.041781,-0.006526,1,-0.004450,-0.003570,-0.000543,1,-0.211169,-0.820891, 9.769950,1,0
1778778569880,  3263.591,  3263.586, 0.025674, 0.087659,-0.990313, 0.000265, 0.000877,-0.009904, 0.073949, 0.036969, 0.016148,1,-0.001272, 0.003400,-0.000962,1,-0.211464,-0.821183, 9.769919,1,0
1778778569907,  3263.616,  3263.616, 0.020894, 0.080092,-0.991432, 0.000196, 0.000802,-0.009912,-0.006993,-0.035327, 0.047318,1, 0.005434, 0.000582, 0.000076,1,-0.211907,-0.820593, 9.769959,1,0
1778778569928,  3263.636,  3263.636, 0.023675, 0.084644,-0.987850, 0.000233, 0.000843,-0.009872, 0.020173, 0.010327, 0.082533,1, 0.000879, 0.000649,-0.000606,1,-0.212017,-0.819718, 9.770031,1,0
1778778569950,  3263.661,  3263.656, 0.018755, 0.082073,-1.002912, 0.000169, 0.000823,-0.010018,-0.083619,-0.017587,-0.009753,1,-0.011072,-0.005049, 0.001463,1,-0.211139,-0.821418, 9.769907,1,0
1778778569977,  3263.686,  3263.686, 0.030860, 0.089202,-0.991655, 0.000311, 0.000901,-0.009926, 0.091289, 0.053161, 0.045072,1, 0.008390, 0.005878,-0.000522,1,-0.211524,-0.821353, 9.769904,1,0
1778778569999,  3263.711,  3263.706, 0.014688, 0.077238,-0.994165, 0.000138, 0.000774,-0.009945,-0.089562,-0.049851, 0.060141,1, 0.004381,-0.001780, 0.001256,1,-0.211516,-0.820171, 9.770003,1,0
1778778570020,  3263.731,  3263.726, 0.025651, 0.087078,-0.988768, 0.000265, 0.000875,-0.009892, 0.001065,-0.008601, 0.047436,1,-0.002176, 0.001268,-0.001340,1,-0.211557,-0.820147, 9.770004,1,0
1778778570047,  3263.756,  3263.756, 0.019101, 0.082260,-0.994985, 0.000193, 0.000821,-0.009946,-0.023970,-0.014947, 0.012416,1,-0.000574,-0.003599, 0.000526,1,-0.211174,-0.821655, 9.769886,1,0
1778778570069,  3263.781,  3263.776, 0.025979, 0.085225,-0.987649, 0.000265, 0.000853,-0.009880, 0.037492, 0.010961, 0.033712,1, 0.006449, 0.002873,-0.001365,1,-0.211341,-0.820501, 9.769979,1,0
1778778570090,  3263.801,  3263.796, 0.015013, 0.082954,-0.993577, 0.000144, 0.000825,-0.009933,-0.020764, 0.011729, 0.076543,1,-0.005685,-0.001431, 0.000585,1,-0.211566,-0.820880, 9.769942,1,0
1778778570117,  3263.826,  3263.826, 0.026864, 0.084301,-0.993298, 0.000255, 0.000836,-0.009927, 0.052132, 0.005488, 0.028995,1, 0.003377, 0.001031,-0.001082,1,-0.211342,-0.821115, 9.769928,1,0
1778778570139,  3263.851,  3263.846, 0.017904, 0.081921,-0.993145, 0.000173, 0.000824,-0.009929,-0.000139, 0.005657, 0.019496,1,-0.001363,-0.000168, 0.001227,1,-0.211331,-0.821066, 9.769932,1,0
1778778570160,  3263.871,  3263.866, 0.024578, 0.085036,-0.989893, 0.000247, 0.000848,-0.009896,-0.005513,-0.024866, 0.051986,1, 0.000757, 0.001319,-0.000549,1,-0.211388,-0.821090, 9.769929,1,0
1778778570187,  3263.896,  3263.896, 0.018372, 0.081779,-0.993427, 0.000191, 0.000831,-0.009928,-0.030988,-0.018866, 0.027758,1,-0.000845,-0.001257, 0.001365,1,-0.211125,-0.820868, 9.769953,1,0
1778778570209,  3263.921,  3263.916, 0.025009, 0.087708,-0.995447, 0.000253, 0.000874,-0.009963,-0.009895,-0.017164,-0.008435,1,-0.003389,-0.001391,-0.000646,1,-0.210744,-0.821663, 9.769895,1,0
1778778570230,  3263.941,  3263.936, 0.019864, 0.084230,-0.989741, 0.000209, 0.000849,-0.009893, 0.033571, 0.040045, 0.058526,1, 0.001626, 0.002265, 0.000651,1,-0.211128,-0.821558, 9.769896,1,0
1778778570257,  3263.966,  3263.966, 0.020977, 0.079990,-0.993806, 0.000198, 0.000796,-0.009942,-0.005280,-0.036523, 0.024037,1, 0.003057,-0.000626,-0.001674,1,-0.210965,-0.820858, 9.769958,1,0
1778778570279,  3263.991,  3263.986, 0.019869, 0.084763,-0.993111, 0.000198, 0.000848,-0.009919, 0.028061, 0.021744, 0.055998,1,-0.003019, 0.000000, 0.000265,1,-0.211238,-0.820922, 9.769946,1,0
1778778570301,  3264.011,  3264.006, 0.023281, 0.082818,-0.995130, 0.000220, 0.000824,-0.009950,-0.036735,-0.012860, 0.000822,1,-0.003410,-0.001526, 0.000238,1,-0.210928,-0.821914, 9.769870,1,0
1778778570328,  3264.036,  3264.036, 0.022081, 0.085487,-0.989750, 0.000232, 0.000859,-0.009897, 0.005404, 0.017314, 0.063807,1, 0.003870, 0.000779, 0.000715,1,-0.211163,-0.820910, 9.769949,1,0
1778778570349,  3264.061,  3264.056, 0.023693, 0.083009,-0.993651, 0.000234, 0.000823,-0.009942,-0.045765,-0.043422, 0.007301,1,-0.003489,-0.000393, 0.000460,1,-0.210968,-0.821238, 9.769925,1,0
1778778570371,  3264.081,  3264.076, 0.022762, 0.087295,-0.988346, 0.000250, 0.000883,-0.009887, 0.052120, 0.053537, 0.055538,1,-0.002042, 0.002446,-0.000585,1,-0.211223,-0.821821, 9.769871,1,0
1778778570398,  3264.106,  3264.106, 0.014151, 0.078231,-0.998118, 0.000138, 0.000784,-0.009980,-0.072045,-0.054334,-0.018287,1, 0.002640,-0.002366, 0.000047,1,-0.210746,-0.821436, 9.769914,1,0
1778778570419,  3264.131,  3264.126, 0.025464, 0.086554,-0.988578, 0.000276, 0.000869,-0.009884, 0.066467, 0.025453, 0.036481,1,-0.001539, 0.005253,-0.000867,1,-0.211297,-0.821301, 9.769913,1,0
1778778570442,  3264.151,  3264.151, 0.018502, 0.082821,-0.993342, 0.000172, 0.000828,-0.009936,-0.029995,-0.009449, 0.028521,1, 0.003474, 0.001155,-0.000572,1,-0.211475,-0.821540, 9.769889,1,0
1778778570468,  3264.176,  3264.176, 0.027184, 0.084242,-0.987652, 0.000268, 0.000840,-0.009871, 0.054817, 0.005278, 0.084385,1, 0.001546, 0.000154,-0.001233,1,-0.211769,-0.820805, 9.769944,1,0
1778778570489,  3264.201,  3264.196, 0.017316, 0.082379,-0.996061, 0.000156, 0.000822,-0.009958,-0.059761,-0.013859,-0.014746,1,-0.006156,-0.002181, 0.001061,1,-0.211241,-0.821625, 9.769887,1,0
1778778570512,  3264.221,  3264.221, 0.029081, 0.085817,-0.994186, 0.000286, 0.000863,-0.009932, 0.073606, 0.019424, 0.020202,1, 0.002819, 0.003378,-0.000673,1,-0.211685,-0.822067, 9.769840,1,0
1778778570538,  3264.246,  3264.246, 0.018782, 0.081496,-0.990942, 0.000196, 0.000825,-0.009913,-0.027887,-0.022010, 0.052077,1, 0.005056, 0.002443, 0.001864,1,-0.212193,-0.821095, 9.769911,1,0
1778778570559,  3264.271,  3264.266, 0.019508, 0.085321,-0.992601, 0.000200, 0.000859,-0.009923,-0.016292,-0.009228, 0.061207,1,-0.002529,-0.002434,-0.000962,1,-0.211884,-0.821153, 9.769913,1,0
1778778570582,  3264.291,  3264.291, 0.017948, 0.081201,-0.997054, 0.000179, 0.000817,-0.009968,-0.035794,-0.025580,-0.007906,1,-0.003881,-0.000745, 0.001161,1,-0.211788,-0.822012, 9.769843,1,0
1778778570608,  3264.316,  3264.316, 0.026785, 0.087674,-0.995560, 0.000266, 0.000868,-0.009971, 0.050805, 0.037357, 0.006694,1, 0.002187, 0.003408,-0.001718,1,-0.211965,-0.822368, 9.769809,1,0
1778778570629,  3264.341,  3264.336, 0.013725, 0.079955,-0.989785, 0.000141, 0.000802,-0.009889,-0.003412, 0.010838, 0.102115,1, 0.005303,-0.000481, 0.001904,1,-0.212588,-0.821166, 9.769897,1,0
1778778570652,  3264.361,  3264.361, 0.023082, 0.082382,-0.993482, 0.000215, 0.000810,-0.009933, 0.014241,-0.012941, 0.027203,1,-0.000585, 0.000638,-0.000749,1,-0.212136,-0.820853, 9.769933,1,0
1778778570678,  3264.386,  3264.386, 0.023631, 0.085469,-0.995347, 0.000238, 0.000858,-0.009944, 0.019504, 0.016461, 0.008835,1,-0.006642, 0.000150, 0.001138,1,-0.212249,-0.821908, 9.769841,1,0
1778778570700,  3264.411,  3264.406, 0.027513, 0.086680,-0.987616, 0.000276, 0.000864,-0.009875, 0.044766,-0.009370, 0.030036,1, 0.001585, 0.003115,-0.000873,1,-0.212627,-0.822193, 9.769810,1,0
1778778570722,  3264.431,  3264.431, 0.012926, 0.081108,-0.988934, 0.000148, 0.000822,-0.009878,-0.086062,-0.025102, 0.071814,1, 0.003320,-0.003529, 0.001529,1,-0.212715,-0.820399, 9.769958,1,0
1778778570748,  3264.456,  3264.456, 0.018218, 0.079628,-1.001122, 0.000171, 0.000792,-0.010010,-0.033316,-0.040095,-0.047728,1,-0.006620,-0.002215,-0.001815,1,-0.211896,-0.821181, 9.769910,1,0
1778778570770,  3264.481,  3264.476, 0.024940, 0.087452,-0.989771, 0.000269, 0.000885,-0.009909, 0.099528, 0.062149, 0.014807,1,-0.001374, 0.004362,-0.000862,1,-0.212339,-0.822074, 9.769826,1,0
1778778570792,  3264.506,  3264.501, 0.018355, 0.081254,-0.983501, 0.000176, 0.000809,-0.009846,-0.033228,-0.022927, 0.125147,1, 0.010294, 0.002294,-0.000976,1,-0.213298,-0.819435, 9.770026,1,0
1778778570818,  3264.526,  3264.526, 0.019342, 0.083222,-0.991659, 0.000194, 0.000830,-0.009906,-0.023195,-0.003333, 0.045179,1,-0.007135,-0.003718,-0.000378,1,-0.212760,-0.819685, 9.770017,1,0
1778778570840,  3264.551,  3264.546, 0.027234, 0.086649,-1.000785, 0.000254, 0.000858,-0.010019,-0.021623,-0.015741,-0.073781,1,-0.011870,-0.000963,-0.000367,1,-0.212237,-0.822002, 9.769834,1,0
1778778570862,  3264.576,  3264.571, 0.029880, 0.088792,-0.983010, 0.000304, 0.000890,-0.009831, 0.079302, 0.049443, 0.129829,1, 0.011346, 0.005526,-0.000040,1,-0.213893,-0.820958, 9.769885,1,0
1778778570888,  3264.596,  3264.596, 0.014634, 0.074479,-0.986904, 0.000137, 0.000753,-0.009856,-0.070278,-0.088703, 0.091823,1, 0.005813,-0.001969, 0.000153,1,-0.213725,-0.818910, 9.770061,1,0
1778778570910,  3264.621,  3264.616, 0.023804, 0.085361,-0.998526, 0.000246, 0.000849,-0.009980, 0.003338,-0.024534, 0.018060,1,-0.014336,-0.004381,-0.001792,1,-0.212764,-0.820780, 9.769925,1,0
1778778570933,  3264.646,  3264.641, 0.021930, 0.083874,-0.997054, 0.000213, 0.000843,-0.009973, 0.002596,-0.000863,-0.008049,1, 0.002852, 0.001242,-0.000914,1,-0.212499,-0.823293, 9.769719,1,0
1778778570958,  3264.666,  3264.666, 0.027013, 0.084359,-0.984624, 0.000279, 0.000850,-0.009854, 0.052006, 0.005781, 0.114001,1, 0.012116, 0.001046,-0.002020,1,-0.212928,-0.821126, 9.769893,1,0
1778778570980,  3264.691,  3264.686, 0.012823, 0.079969,-0.995286, 0.000108, 0.000791,-0.009939,-0.101912,-0.045278, 0.086597,1,-0.000400,-0.005884, 0.000432,1,-0.212194,-0.820155, 9.769990,1,0
1778778571003,  3264.716,  3264.711, 0.028992, 0.093626,-0.998525, 0.000281, 0.000927,-0.009989, 0.073546, 0.093842,-0.022514,1,-0.017639,-0.002954,-0.002622,1,-0.210669,-0.824870, 9.769626,1,0
1778778571028,  3264.736,  3264.736, 0.021651, 0.087900,-0.997235, 0.000225, 0.000893,-0.009971, 0.001581, 0.037294,-0.009901,1, 0.011978, 0.000745, 0.000374,1,-0.210763,-0.824342, 9.769669,1,0
1778778571050,  3264.761,  3264.756, 0.022719, 0.080653,-0.989496, 0.000230, 0.000811,-0.009893,-0.009695,-0.045893, 0.062048,1, 0.013108, 0.000656,-0.002524,1,-0.210943,-0.821019, 9.769944,1,0
1778778571073,  3264.786,  3264.781, 0.017055, 0.084123,-0.993906, 0.000166, 0.000851,-0.009935,-0.043245, 0.002934, 0.022980,1,-0.010296,-0.000926, 0.001168,1,-0.210469,-0.822352, 9.769842,1,0
1778778571098,  3264.806,  3264.806, 0.024653, 0.087005,-0.997041, 0.000241, 0.000866,-0.009971, 0.031649, 0.029350,-0.007912,1,-0.005486, 0.000215,-0.000737,1,-0.210120,-0.824051, 9.769707,1,0
1778778571120,  3264.831,  3264.826, 0.016442, 0.082158,-0.988645, 0.000181, 0.000826,-0.009892, 0.044373, 0.001986, 0.046489,1, 0.011776, 0.004084, 0.000019,1,-0.210735,-0.822785, 9.769800,1,0
1778778571147,  3264.856,  3264.856, 0.018128, 0.080518,-0.983633, 0.000180, 0.000790,-0.009841,-0.033623,-0.031925, 0.123750,1,-0.008837,-0.001640,-0.001750,1,-0.211339,-0.821817, 9.769869,1,0
1778778571169,  3264.876,  3264.876, 0.018767, 0.090899,-0.990276, 0.000185, 0.000874,-0.009900,-0.026863, 0.067086, 0.058378,1,-0.013295,-0.002599,-0.001302,1,-0.210825,-0.824747, 9.769633,1,0
1778778571190,  3264.901,  3264.896, 0.022649, 0.084311,-1.001186, 0.000205, 0.000841,-0.010005,-0.038997, 0.000252,-0.064993,1,-0.006665,-0.000399,-0.000068,1,-0.210356,-0.826348, 9.769507,1,0
1778778571218,  3264.926,  3264.926, 0.025526, 0.089682,-0.987523, 0.000264, 0.000903,-0.009885, 0.038900, 0.054154, 0.085273,1, 0.006049, 0.005834, 0.001005,1,-0.211606,-0.825141, 9.769583,1,1
1778778571239,  3264.951,  3264.946, 0.017483, 0.078899,-0.990566, 0.000168, 0.000785,-0.009905,-0.063004,-0.058866, 0.057908,1, 0.004916, 0.000222, 0.000912,1,-0.211809,-0.823838, 9.769689,1,1
1778778571260,  3264.971,  3264.966, 0.025047, 0.083460,-0.992437, 0.000263, 0.000835,-0.009922, 0.044120,-0.018139, 0.058118,1,-0.006454, 0.000929,-0.000568,1,-0.211900,-0.824167, 9.769659,1,1
1778778571287,  3264.996,  3264.996, 0.029917, 0.070522,-0.999101, 0.000261, 0.000801,-0.009989, 0.081754,-0.135277,-0.028394,1,-0.007113, 0.004456, 0.002254,1,-0.211772,-0.827086, 9.769415,1,1
1778778571309,  3265.021,  3265.016, 0.020271, 0.087533,-0.987288, 0.000218, 0.000923,-0.009895, 0.101866, 0.088471, 0.048607,1, 0.013832,-0.001307,-0.001291,1,-0.211719,-0.825598, 9.769542,1,1
1778778571330,  3265.041,  3265.036, 0.005010, 0.080971,-0.999334, 0.000053, 0.000800,-0.009980,-0.034925,-0.135640, 0.122619,1, 0.003400,-0.003171, 0.001485,1,-0.212285,-0.824346, 9.769635,1,1
1778778571357,  3265.066,  3265.066, 0.032452, 0.086783,-0.989493, 0.000309, 0.000858,-0.009909, 0.106229, 0.026554, 0.066012,1,-0.000421, 0.004937, 0.000336,1,-0.212175,-0.824510, 9.769624,1,1
1778778571379,  3265.091,  3265.086, 0.018295, 0.080487,-0.995066, 0.000174, 0.000803,-0.009945, 0.025456, 0.026487, 0.032982,1, 0.001552,-0.000575, 0.003173,1,-0.212280,-0.824606, 9.769613,1,1
1778778571400,  3265.111,  3265.106, 0.026241, 0.082783,-0.993144, 0.000264, 0.000824,-0.009927, 0.032970,-0.049976, 0.024931,1, 0.009393, 0.000244,-0.000088,1,-0.212400,-0.822810, 9.769762,1,1
1778778571427,  3265.136,  3265.136, 0.012132, 0.080632,-0.998794, 0.000124, 0.000811,-0.009983,-0.092704,-0.031710,-0.025011,1, 0.001330,-0.002108, 0.002481,1,-0.211618,-0.822402, 9.769814,1,1
1778778571449,  3265.161,  3265.156, 0.027133, 0.091245,-0.995183, 0.000262, 0.000905,-0.009957,-0.025293,-0.009692,-0.025280,1, 0.000179,-0.002474,-0.001311,1,-0.211043,-0.822234, 9.769840,1,1
1778778571471,  3265.181,  3265.176, 0.021108, 0.088932,-0.979377, 0.000249, 0.000898,-0.009799, 0.094128, 0.028025, 0.089319,1, 0.011671, 0.005658,-0.000144,1,-0.211824,-0.820493, 9.769970,1,1
1778778571498,  3265.206,  3265.206, 0.014945, 0.079929,-0.984405, 0.000163, 0.000793,-0.009842,-0.065076,-0.035463, 0.116359,1,-0.004033,-0.005680,-0.000136,1,-0.211464,-0.819423, 9.770067,1,1
1778778571519,  3265.231,  3265.226, 0.018967, 0.086361,-1.003257, 0.000192, 0.000860,-0.010040,-0.028441, 0.009202,-0.049245,1,-0.010562, 0.001989, 0.000533,1,-0.211112,-0.821567, 9.769895,1,1
1778778571541,  3265.251,  3265.246, 0.026785, 0.085859,-0.995871, 0.000248, 0.000847,-0.009966,-0.003467,-0.008436,-0.046014,1,-0.004465, 0.004621, 0.001884,1,-0.211868,-0.823032, 9.769755,1,1
1778778571568,  3265.276,  3265.276, 0.029232, 0.085320,-0.980058, 0.000296, 0.000859,-0.009811, 0.073040, 0.018323, 0.159021,1, 0.026458, 0.005366, 0.002221,1,-0.213804,-0.817558, 9.770172,1,1
1778778571589,  3265.301,  3265.296, 0.019734, 0.082214,-0.999302, 0.000188, 0.000803,-0.009980,-0.051309,-0.078623, 0.070564,1,-0.003767,-0.010199, 0.000602,1,-0.212643,-0.816080, 9.770322,1,1
1778778571611,  3265.321,  3265.316, 0.027190, 0.089833,-0.996378, 0.000268, 0.000895,-0.009955, 0.018824, 0.028112,-0.023903,1,-0.013999,-0.001314,-0.000420,1,-0.211528,-0.818770, 9.770121,1,1
1778778571638,  3265.346,  3265.346, 0.014734, 0.084050,-1.000485, 0.000165, 0.000851,-0.010012,-0.066714, 0.004645,-0.041345,1, 0.008828, 0.000843, 0.000961,1,-0.211232,-0.819324, 9.770081,1,1
1778778571659,  3265.371,  3265.366, 0.024954, 0.077983,-0.983122, 0.000265, 0.000785,-0.009839,-0.004832,-0.040613, 0.016029,1, 0.016143, 0.005474, 0.000351,1,-0.211705,-0.817800, 9.770198,1,1
1778778571682,  3265.391,  3265.391, 0.016717, 0.083788,-0.989025, 0.000171, 0.000816,-0.009891,-0.048688, 0.004648, 0.071215,1,-0.009858,-0.002159, 0.001184,1,-0.212563,-0.817339, 9.770218,1,1
1778778571708,  3265.416,  3265.416, 0.025098, 0.088223,-0.991559, 0.000276, 0.000837,-0.009908, 0.033716, 0.045764, 0.046179,1,-0.007493,-0.006455,-0.001030,1,-0.212204,-0.819637, 9.770033,1,1
1778778571729,  3265.441,  3265.436, 0.012552, 0.080344,-0.995574, 0.000115, 0.000805,-0.009951,-0.036136,-0.007830, 0.014759,1, 0.006365,-0.000659, 0.001106,1,-0.212237,-0.818810, 9.770102,1,1
1778778571752,  3265.461,  3265.461, 0.024681, 0.088592,-0.996072, 0.000242, 0.000882,-0.009967, 0.029899, 0.050004, 0.001975,1,-0.001395, 0.002340,-0.001757,1,-0.212208,-0.818833, 9.770101,1,1
1778778571778,  3265.486,  3265.486, 0.017172, 0.084527,-0.990307, 0.000177, 0.000845,-0.009889,-0.044246, 0.010294, 0.058517,1, 0.003042,-0.000667, 0.000424,1,-0.212624,-0.818536, 9.770117,1,1
1778778571799,  3265.511,  3265.506, 0.025425, 0.082638,-0.995376, 0.000249, 0.000835,-0.009961,-0.015351,-0.012662,-0.013382,1, 0.002737,-0.000641,-0.002304,1,-0.212280,-0.818134, 9.770158,1,1
1778778571822,  3265.531,  3265.531, 0.016900, 0.081340,-0.992686, 0.000181, 0.000822,-0.009923,-0.047142,-0.020388, 0.035224,1,-0.002592,-0.000331, 0.000902,1,-0.212864,-0.818141, 9.770144,1,1
1778778571848,  3265.556,  3265.556, 0.023294, 0.082949,-0.991906, 0.000225, 0.000823,-0.009932, 0.015319,-0.004772, 0.042852,1, 0.002145, 0.003234,-0.001111,1,-0.213213,-0.818155, 9.770136,1,1
1778778571870,  3265.581,  3265.576, 0.019834, 0.085012,-0.990173, 0.000206, 0.000851,-0.009898, 0.058081, 0.034292, 0.086031,1, 0.002239,-0.000055, 0.000445,1,-0.213676,-0.817688, 9.770164,1,1
1778778571892,  3265.601,  3265.601, 0.024730, 0.082525,-0.991215, 0.000233, 0.000820,-0.009914, 0.029127,-0.008751, 0.049639,1,-0.002855,-0.001556,-0.000995,1,-0.213345,-0.818133, 9.770134,1,1
1778778571918,  3265.626,  3265.626, 0.026735, 0.085976,-0.991680, 0.000277, 0.000865,-0.009921, 0.048904, 0.024942, 0.045068,1, 0.002844, 0.000253,-0.000134,1,-0.213280,-0.818108, 9.770138,1,1
1778778571940,  3265.651,  3265.646, 0.019523, 0.081401,-0.995337, 0.000190, 0.000809,-0.009944,-0.060675,-0.048361, 0.036177,1,-0.002268,-0.001146, 0.000337,1,-0.213167,-0.818089, 9.770142,1,1
1778778571963,  3265.671,  3265.671, 0.025176, 0.085339,-0.993404, 0.000260, 0.000861,-0.009940, 0.034024, 0.018487, 0.028156,1, 0.002925, 0.002879, 0.000449,1,-0.212961,-0.818308, 9.770128,1,1
1778778571988,  3265.696,  3265.696, 0.017088, 0.079197,-0.992921, 0.000175, 0.000800,-0.009922,-0.010435,-0.009360, 0.051730,1, 0.002052, 0.000830, 0.000870,1,-0.213054,-0.818054, 9.770147,1,1
1778778572010,  3265.721,  3265.716, 0.023462, 0.083115,-0.987076, 0.000252, 0.000845,-0.009876, 0.019359, 0.028589, 0.048048,1, 0.003981, 0.002087,-0.001245,1,-0.212679,-0.817779, 9.770179,1,1
1778778572033,  3265.746,  3265.741, 0.014354, 0.079921,-0.996818, 0.000142, 0.000799,-0.009967,-0.071438,-0.033968,-0.005253,1,-0.003968,-0.003301,-0.000169,1,-0.212097,-0.817852, 9.770185,1,1
1778778572058,  3265.766,  3265.766, 0.025348, 0.084517,-0.993019, 0.000247, 0.000847,-0.009940, 0.036324, 0.010806, 0.031979,1, 0.001295, 0.002588,-0.001739,1,-0.212335,-0.817982, 9.770169,1,1
1778778572080,  3265.791,  3265.786, 0.018738, 0.079591,-0.994925, 0.000176, 0.000794,-0.009947,-0.026010,-0.012769, 0.031469,1,-0.001142,-0.000468, 0.001368,1,-0.212613,-0.818000, 9.770162,1,1
1778778572103,  3265.816,  3265.811, 0.026682, 0.084574,-0.991330, 0.000257, 0.000840,-0.009908, 0.048836, 0.011026, 0.048501,1,-0.001087, 0.001662,-0.000148,1,-0.212872,-0.818399, 9.770123,1,1
1778778572128,  3265.836,  3265.836, 0.016887, 0.082179,-0.994234, 0.000170, 0.000830,-0.009931,-0.047300,-0.012836, 0.019992,1,-0.002614,-0.000335, 0.002079,1,-0.212897,-0.818812, 9.770087,1,1
1778778572150,  3265.861,  3265.856, 0.028397, 0.087415,-0.990974, 0.000285, 0.000883,-0.009912, 0.017386, 0.011777, 0.022569,1,-0.001672, 0.001065,-0.001132,1,-0.212724,-0.819212, 9.770058,1,1
1778778572173,  3265.886,  3265.881, 0.017502, 0.082162,-0.989416, 0.000185, 0.000831,-0.009891,-0.041411,-0.012632, 0.067267,1, 0.004119, 0.000081, 0.001645,1,-0.213055,-0.818235, 9.770132,1,1
1778778572198,  3265.906,  3265.906, 0.021305, 0.082724,-0.990416, 0.000215, 0.000823,-0.009908,-0.003770,-0.007230, 0.057457,1,-0.002713,-0.002117,-0.001839,1,-0.212632,-0.818559, 9.770114,1,1
1778778572220,  3265.931,  3265.926, 0.018250, 0.082945,-0.994568, 0.000188, 0.000833,-0.009948, 0.022770, 0.019555, 0.034884,1,-0.000458,-0.001265, 0.000650,1,-0.212448,-0.818659, 9.770110,1,1
1778778572243,  3265.956,  3265.951, 0.023879, 0.084321,-0.992327, 0.000233, 0.000831,-0.009927, 0.021826, 0.008088, 0.038697,1, 0.001281, 0.000310,-0.002066,1,-0.212347,-0.818776, 9.770103,1,1
1778778572269,  3265.976,  3265.976, 0.023599, 0.084582,-0.990411, 0.000238, 0.000845,-0.009897, 0.018767, 0.011371, 0.057533,1, 0.003232, 0.000895, 0.000373,1,-0.212690,-0.817993, 9.770161,1,1
1778778572290,  3266.001,  3265.996, 0.024407, 0.084545,-0.995691, 0.000233, 0.000834,-0.009949,-0.012507,-0.025693, 0.010488,1,-0.005691,-0.001010,-0.000263,1,-0.212552,-0.818609, 9.770112,1,1
1778778572313,  3266.026,  3266.021, 0.019615, 0.085464,-0.994555, 0.000204, 0.000862,-0.009941,-0.020119, 0.019098, 0.016830,1, 0.003671, 0.001137, 0.000875,1,-0.212512,-0.818905, 9.770088,1,1
1778778572339,  3266.046,  3266.046, 0.017850, 0.079430,-0.994668, 0.000175, 0.000797,-0.009946,-0.037424,-0.039660, 0.015752,1, 0.000253, 0.000527,-0.000299,1,-0.212510,-0.818694, 9.770105,1,1
1778778572360,  3266.071,  3266.066, 0.021422, 0.083219,-0.990795, 0.000230, 0.000844,-0.009907, 0.041540, 0.009366, 0.042053,1, 0.001138, 0.004319, 0.000421,1,-0.212967,-0.818560, 9.770107,1,1
1778778572387,  3266.096,  3266.096, 0.019795, 0.080637,-0.991611, 0.000195, 0.000804,-0.009923,-0.019027,-0.027994, 0.045704,1,-0.001135, 0.000161,-0.000629,1,-0.213150,-0.818805, 9.770082,1,1
1778778572409,  3266.116,  3266.116, 0.023672, 0.085870,-0.990742, 0.000243, 0.000860,-0.009911, 0.018957, 0.023267, 0.054221,1, 0.000311, 0.000238,-0.000033,1,-0.213194,-0.818824, 9.770080,1,1
1778778572430,  3266.141,  3266.136, 0.020124, 0.084447,-0.998512, 0.000188, 0.000850,-0.009986,-0.058436,-0.068629,-0.013336,1,-0.001352,-0.000643, 0.000398,1,-0.212999,-0.818997, 9.770069,1,1
1778778572457,  3266.166,  3266.166, 0.026535, 0.087478,-0.988799, 0.000273, 0.000870,-0.009885, 0.046575, 0.038810, 0.073246,1, 0.001698, 0.001562, 0.000071,1,-0.213695,-0.819005, 9.770054,1,1
1778778572479,  3266.191,  3266.186, 0.021747, 0.079919,-0.988939, 0.000206, 0.000800,-0.009888,-0.026934,-0.031067, 0.057033,1, 0.004092, 0.000855, 0.000358,1,-0.213972,-0.818144, 9.770120,1,1
1778778572500,  3266.211,  3266.206, 0.022680, 0.084074,-0.993519, 0.000240, 0.000841,-0.009930, 0.037293,-0.002398, 0.065783,1,-0.004738,-0.000276,-0.000966,1,-0.214044,-0.818409, 9.770096,1,1
1778778572527,  3266.236,  3266.236, 0.019341, 0.081072,-0.996174, 0.000186, 0.000811,-0.009964,-0.024510,-0.024185, 0.000898,1,-0.003225, 0.002577,-0.000431,1,-0.214259,-0.819328, 9.770014,1,1
1778778572549,  3266.261,  3266.256, 0.023872, 0.087245,-0.991299, 0.000256, 0.000879,-0.009915, 0.050675, 0.034203, 0.043474,1,-0.001190, 0.002485,-0.000949,1,-0.214640,-0.819707, 9.769974,1,1
1778778572570,  3266.281,  3266.276, 0.013687, 0.077144,-0.993577, 0.000136, 0.000776,-0.009935,-0.054207,-0.018164, 0.040230,1, 0.003110, 0.000771, 0.002297,1,-0.214934,-0.819309, 9.770001,1,1
1778778572597,  3266.306,  3266.306, 0.026021, 0.086744,-0.993116, 0.000252, 0.000866,-0.009943, 0.040163, 0.030523, 0.030789,1,-0.008103, 0.003562,-0.001627,1,-0.215119,-0.820396, 9.769906,1,1
1778778572619,  3266.331,  3266.326, 0.021019, 0.081937,-0.991771, 0.000203, 0.000817,-0.009922, 0.006179, 0.003448, 0.031200,1, 0.003969, 0.002855, 0.001379,1,-0.215713,-0.820501, 9.769884,1,1
1778778572641,  3266.351,  3266.346, 0.025702, 0.079554,-0.987401, 0.000250, 0.000808,-0.009868, 0.021203,-0.016505, 0.087520,1, 0.001948, 0.002307,-0.001634,1,-0.216233,-0.819599, 9.769948,1,1
1778778572668,  3266.376,  3266.376, 0.016048, 0.080551,-0.997130, 0.000145, 0.000841,-0.009972,-0.058521,-0.029704,-0.008554,1,-0.003434, 0.002170, 0.002411,1,-0.215967,-0.819744, 9.769941,1,1
1778778572689,  3266.401,  3266.396, 0.029790, 0.083952,-0.996376, 0.000308, 0.000841,-0.009959, 0.003421,-0.025508,-0.006171,1,-0.007385, 0.003497, 0.000135,1,-0.216001,-0.821018, 9.769835,1,1
1778778572711,  3266.421,  3266.416, 0.025137, 0.080654,-0.987871, 0.000263, 0.000821,-0.009891, 0.072005, 0.035838, 0.026959,1, 0.010207, 0.007712,-0.000402,1,-0.216839,-0.820464, 9.769862,1,1
1778778572738,  3266.446,  3266.446, 0.023199, 0.079284,-0.980059, 0.000235, 0.000783,-0.009802, 0.009304,-0.040681, 0.158924,1,-0.002751,-0.001455,-0.001926,1,-0.218243,-0.818300, 9.770012,1,1
1778778572759,  3266.471,  3266.466, 0.013317, 0.080801,-0.998964, 0.000132, 0.000813,-0.009983,-0.057255, 0.015454, 0.044931,1,-0.006057,-0.004996, 0.001022,1,-0.217423,-0.819801, 9.769905,1,1
1778778572781,  3266.491,  3266.486, 0.027060, 0.086412,-1.007020, 0.000260, 0.000843,-0.010081,-0.026274,-0.030317,-0.100654,1,-0.007756,-0.004731,-0.000715,1,-0.216549,-0.820993, 9.769824,1,1
1778778572808,  3266.516,  3266.516, 0.029992, 0.090694,-0.987957, 0.000312, 0.000915,-0.009896, 0.076635, 0.068284, 0.081240,1, 0.010288, 0.006862, 0.000285,1,-0.217697,-0.820805, 9.769814,1,1
1778778572829,  3266.541,  3266.536, 0.014903, 0.079237,-0.988941, 0.000138, 0.000786,-0.009882,-0.120017,-0.039020, 0.104039,1, 0.010482,-0.001734, 0.000470,1,-0.217794,-0.818309, 9.770021,1,1
1778778572851,  3266.561,  3266.556, 0.023267, 0.086318,-0.999513, 0.000231, 0.000860,-0.009983,-0.006454,-0.000020, 0.021434,1,-0.008559,-0.002481,-0.001104,1,-0.217204,-0.818834, 9.769991,1,1
1778778572878,  3266.586,  3266.586, 0.022077, 0.087826,-0.999100, 0.000206, 0.000882,-0.010001,-0.000781, 0.040248,-0.028016,1, 0.001848, 0.005045,-0.000417,1,-0.217443,-0.820971, 9.769806,1,1
1778778572899,  3266.611,  3266.606, 0.025532, 0.081919,-0.981278, 0.000270, 0.000825,-0.009819, 0.099360, 0.029896, 0.121774,1, 0.014378, 0.002662,-0.001898,1,-0.218258,-0.818841, 9.769966,1,1
1778778572922,  3266.631,  3266.631, 0.012222, 0.076387,-0.987863, 0.000111, 0.000760,-0.009877,-0.098434,-0.067464, 0.082527,1,-0.005835,-0.003932,-0.000091,1,-0.218164,-0.816750, 9.770144,1,1
1778778572948,  3266.656,  3266.656, 0.026579, 0.090553,-1.001029, 0.000258, 0.000896,-0.010008, 0.043620, 0.068465,-0.046813,1,-0.013300,-0.003106,-0.000363,1,-0.216927,-0.819978, 9.769901,1,1
1778778572970,  3266.681,  3266.676, 0.026961, 0.080081,-0.989858, 0.000262, 0.000799,-0.009902, 0.040135,-0.013131, 0.016899,1, 0.011895, 0.005979, 0.001852,1,-0.217898,-0.819049, 9.769958,1,1
1778778572992,  3266.701,  3266.701, 0.029159, 0.081123,-0.981532, 0.000298, 0.000806,-0.009817, 0.067454,-0.021191, 0.144593,1, 0.003484, 0.000379,-0.000644,1,-0.218512,-0.816625, 9.770146,1,1
1778778573018,  3266.726,  3266.726, 0.014253, 0.075500,-0.990261, 0.000141, 0.000755,-0.009883,-0.078134,-0.076766, 0.058970,1,-0.009617,-0.007555, 0.000589,1,-0.217674,-0.817464, 9.770095,1,1
1778778573040,  3266.751,  3266.746, 0.031775, 0.088534,-1.000112, 0.000310, 0.000890,-0.010008, 0.018048,-0.000623,-0.088815,1,-0.014237,-0.003463,-0.002671,1,-0.216256,-0.820405, 9.769880,1,1
1778778573062,  3266.771,  3266.771, 0.018532, 0.084140,-0.995730, 0.000206, 0.000849,-0.009957,-0.034756, 0.004773, 0.005099,1, 0.010190, 0.000250, 0.000741,1,-0.216501,-0.820037, 9.769905,1,1
1778778573088,  3266.796,  3266.796, 0.017236, 0.077527,-0.986065, 0.000163, 0.000780,-0.009872,-0.047692,-0.058481, 0.100009,1, 0.002042, 0.000411,-0.001006,1,-0.216734,-0.818700, 9.770012,1,1
1778778573110,  3266.821,  3266.816, 0.018470, 0.084664,-0.996652, 0.000195, 0.000849,-0.009976,-0.005091, 0.018126, 0.000103,1,-0.004765,-0.001178,-0.000663,1,-0.216218,-0.819629, 9.769946,1,1
1778778573132,  3266.841,  3266.841, 0.023095, 0.087197,-0.993465, 0.000226, 0.000861,-0.009937, 0.010133, 0.034290, 0.027279,1,-0.004127,-0.001988,-0.001647,1,-0.216350,-0.820919, 9.769835,1,1
1778778573158,  3266.866,  3266.866, 0.021729, 0.087572,-0.991437, 0.000226, 0.000880,-0.009924,-0.003343, 0.038756, 0.047235,1, 0.010650, 0.002629, 0.001274,1,-0.216519,-0.819701, 9.769933,1,1
1778778573180,  3266.891,  3266.886, 0.022588, 0.082367,-0.997822, 0.000210, 0.000809,-0.009970,-0.071994,-0.045149, 0.052886,1,-0.002760,-0.003968, 0.000374,1,-0.216402,-0.819071, 9.769989,1,1
1778778573203,  3266.911,  3266.911, 0.029458, 0.088334,-0.991106, 0.000298, 0.000888,-0.009919, 0.072683, 0.046519, 0.050504,1, 0.005752, 0.003931, 0.000547,1,-0.216321,-0.819560, 9.769949,1,1
1778778573228,  3266.936,  3266.936, 0.017464, 0.079822,-0.988467, 0.000177, 0.000805,-0.009887,-0.045112,-0.035960, 0.076468,1, 0.002927,-0.001611, 0.001055,1,-0.216323,-0.818659, 9.770025,1,1
1778778573250,  3266.961,  3266.956, 0.024968, 0.085292,-0.986609, 0.000269, 0.000856,-0.009867, 0.051154, 0.002620, 0.095553,1, 0.003630, 0.000161,-0.001439,1,-0.216111,-0.818101, 9.770076,1,1
1778778573273,  3266.986,  3266.981, 0.018467, 0.082063,-0.997977, 0.000184, 0.000823,-0.009975,-0.034314,-0.014566,-0.016824,1,-0.009560,-0.003836, 0.000304,1,-0.215294,-0.819622, 9.769967,1,1
1778778573298,  3267.006,  3267.006, 0.031533, 0.089807,-0.992378, 0.000317, 0.000891,-0.009939, 0.093879, 0.060306, 0.037996,1, 0.001503, 0.003725,-0.001775,1,-0.215465,-0.820353, 9.769902,1,1
1778778573320,  3267.031,  3267.026, 0.011661, 0.077590,-0.991379, 0.000114, 0.000777,-0.009906,-0.038507,-0.022838, 0.096907,1, 0.006376,-0.001475, 0.001196,1,-0.215824,-0.819097, 9.770000,1,1
1778778573343,  3267.056,  3267.051, 0.025774, 0.084201,-0.996548, 0.000249, 0.000834,-0.009965, 0.037725, 0.005531,-0.002878,1,-0.007012,-0.001351,-0.001487,1,-0.214995,-0.820426, 9.769906,1,1
1778778573368,  3267.076,  3267.076, 0.020212, 0.084946,-0.996247, 0.000204, 0.000855,-0.009958,-0.016988, 0.012285, 0.000031,1, 0.001636, 0.002260, 0.000257,1,-0.215271,-0.820702, 9.769876,1,1
1778778573390,  3267.101,  3267.096, 0.023591, 0.083396,-0.989912, 0.000237, 0.000835,-0.009898, 0.004951,-0.030189, 0.036453,1, 0.003008,-0.000153,-0.002194,1,-0.215194,-0.820030, 9.769935,1,1
1778778573413,  3267.126,  3267.121, 0.013103, 0.080934,-0.989531, 0.000145, 0.000815,-0.009892,-0.086481,-0.025471, 0.066030,1,-0.000265,-0.001873, 0.000796,1,-0.214920,-0.819171, 9.770013,1,1
1778778573439,  3267.146,  3267.146, 0.019651, 0.081095,-0.999012, 0.000187, 0.000809,-0.009992,-0.021552,-0.025260,-0.027051,1,-0.009171,-0.003327,-0.001548,1,-0.214157,-0.820817, 9.769892,1,1
1778778573460,  3267.171,  3267.166, 0.022085, 0.084059,-0.986194, 0.000238, 0.000849,-0.009867, 0.081046, 0.028929, 0.030895,1, 0.007941, 0.004976,-0.000286,1,-0.214746,-0.820404, 9.769914,1,1
1778778573483,  3267.196,  3267.191, 0.017445, 0.080136,-0.989218, 0.000163, 0.000797,-0.009893,-0.043786,-0.033615, 0.069075,1,-0.002123,-0.003193,-0.000557,1,-0.214759,-0.819545, 9.769985,1,1
1778778573509,  3267.216,  3267.216, 0.022877, 0.083218,-0.991526, 0.000218, 0.000824,-0.009912, 0.028165, 0.026031, 0.034194,1,-0.002430,-0.000222,-0.000549,1,-0.214546,-0.819995, 9.769952,1,1
1778778573530,  3267.241,  3267.236, 0.025471, 0.084235,-0.997741, 0.000240, 0.000838,-0.009979,-0.021969, 0.011959,-0.011425,1,-0.005395,-0.002159, 0.000517,1,-0.214254,-0.820903, 9.769882,1,1
1778778573553,  3267.266,  3267.261, 0.027769, 0.086834,-0.986598, 0.000283, 0.000878,-0.009871, 0.057762, 0.032026, 0.094769,1, 0.013455, 0.005044,-0.000218,1,-0.214712,-0.819110, 9.770022,1,1
1778778573579,  3267.286,  3267.286, 0.013983, 0.077806,-0.990203, 0.000141, 0.000781,-0.009889,-0.077167,-0.055265, 0.059522,1,-0.003139,-0.006268,-0.000057,1,-0.214100,-0.818377, 9.770098,1,1
1778778573600,  3267.306,  3267.306, 0.027106, 0.085647,-0.997033, 0.000268, 0.000854,-0.009976, 0.052496, 0.020540,-0.007527,1,-0.004706,-0.000960,-0.001773,1,-0.213286,-0.819516, 9.770020,1,1
1778778573627,  3267.336,  3267.336, 0.016905, 0.082643,-0.994546, 0.000176, 0.000833,-0.009950,-0.047473,-0.009256, 0.016836,1, 0.002309,-0.001012, 0.000706,1,-0.213222,-0.819632, 9.770012,1,1
1778778573649,  3267.356,  3267.356, 0.026248, 0.083493,-0.987568, 0.000266, 0.000832,-0.009884, 0.044110, 0.000132, 0.085361,1, 0.006620,-0.000011,-0.000490,1,-0.213290,-0.818452, 9.770109,1,1
1778778573670,  3267.381,  3267.376, 0.016129, 0.083951,-0.993220, 0.000154, 0.000835,-0.009933,-0.042036, 0.009982, 0.048515,1,-0.005474,-0.003091, 0.001253,1,-0.212940,-0.818705, 9.770095,1,1
1778778573697,  3267.406,  3267.406, 0.029059, 0.088210,-0.995686, 0.000283, 0.000876,-0.009954, 0.072551, 0.044557, 0.005613,1, 0.000629, 0.000344,-0.000786,1,-0.212432,-0.820471, 9.769958,1,1
1778778573719,  3267.431,  3267.426, 0.016303, 0.078091,-0.989189, 0.000158, 0.000782,-0.009884,-0.017066,-0.020019, 0.057660,1, 0.007183, 0.003113, 0.001471,1,-0.213003,-0.819023, 9.770067,1,1
1778778573741,  3267.451,  3267.446, 0.022119, 0.085537,-0.997131, 0.000216, 0.000854,-0.009962,-0.029333,-0.024541, 0.032817,1,-0.005090,-0.004509,-0.000931,1,-0.212581,-0.819640, 9.770024,1,1
1778778573768,  3267.476,  3267.476, 0.015618, 0.082394,-0.996034, 0.000164, 0.000832,-0.009959,-0.059365,-0.011874, 0.002245,1,-0.001615, 0.000199, 0.001487,1,-0.212535,-0.819937, 9.770000,1,1
1778778573789,  3267.501,  3267.496, 0.024494, 0.083192,-0.993006, 0.000245, 0.000839,-0.009935,-0.014411,-0.018109,-0.024554,1, 0.003063,-0.000084,-0.000980,1,-0.212247,-0.819991, 9.770002,1,1
1778778573811,  3267.521,  3267.516, 0.017703, 0.079732,-0.987942, 0.000191, 0.000804,-0.009881, 0.022906,-0.015110, 0.072668,1, 0.005584, 0.004180, 0.000588,1,-0.213172,-0.818662, 9.770094,1,1
1778778573838,  3267.546,  3267.546, 0.023211, 0.080811,-0.990123, 0.000227, 0.000798,-0.009900, 0.014313,-0.027074, 0.060225,1,-0.004284,-0.001206,-0.001267,1,-0.213267,-0.819689, 9.770005,1,1
1778778573859,  3267.571,  3267.566, 0.019425, 0.081660,-0.992966, 0.000193, 0.000817,-0.009923, 0.020149, 0.007613, 0.044944,1, 0.000496, 0.000794, 0.000028,1,-0.213394,-0.819934, 9.769982,1,1
1778778573881,  3267.591,  3267.586, 0.026810, 0.082643,-0.992922, 0.000255, 0.000817,-0.009928,-0.022880,-0.018926, 0.031633,1,-0.004285,-0.002592, 0.000322,1,-0.213167,-0.820549, 9.769936,1,1
1778778573908,  3267.616,  3267.616, 0.027217, 0.086775,-0.990913, 0.000282, 0.000868,-0.009905, 0.053708, 0.030627, 0.052412,1, 0.003901, 0.001494, 0.000229,1,-0.213249,-0.820227, 9.769961,1,1
1778778573929,  3267.641,  3267.636, 0.022577, 0.085803,-0.992510, 0.000227, 0.000854,-0.009920,-0.034839,-0.005261, 0.067173,1,-0.005583,-0.002214,-0.000089,1,-0.213011,-0.820683, 9.769928,1,1
1778778573951,  3267.661,  3267.656, 0.018304, 0.087856,-0.996725, 0.000204, 0.000892,-0.009972, 0.015923, 0.057143, 0.001133,1, 0.000917,-0.001915,-0.000930,1,-0.212184,-0.821057, 9.769915,1,1
1778778573978,  3267.686,  3267.686, 0.017990, 0.080390,-0.998796, 0.000174, 0.000802,-0.009984,-0.035529,-0.031542,-0.024823,1,-0.000203,-0.001563,-0.000817,1,-0.211900,-0.819909, 9.770017,1,1
1778778573999,  3267.711,  3267.706, 0.025016, 0.085353,-0.984865, 0.000277, 0.000864,-0.009854, 0.096089, 0.041748, 0.062768,1, 0.006786, 0.004324,-0.000724,1,-0.212253,-0.819242, 9.770065,1,1
1778778574021,  3267.731,  3267.726, 0.009785, 0.077630,-0.992816, 0.000090, 0.000773,-0.009922,-0.085563,-0.030464, 0.092837,1, 0.001156,-0.003716, 0.001261,1,-0.212318,-0.818387, 9.770136,1,1
1778778574048,  3267.756,  3267.756, 0.027157, 0.086179,-0.995535, 0.000259, 0.000855,-0.009956, 0.054708, 0.025557, 0.007183,1,-0.003439, 0.000832,-0.001295,1,-0.211633,-0.819679, 9.770042,1,1
1778778574069,  3267.776,  3267.776, 0.020578, 0.086328,-0.995738, 0.000203, 0.000864,-0.009957,-0.010146, 0.026656, 0.005158,1,-0.000059, 0.002705, 0.001088,1,-0.212035,-0.819932, 9.770012,1,1
1778778574091,  3267.801,  3267.796, 0.027711, 0.085065,-0.985778, 0.000276, 0.000852,-0.009852, 0.059220, 0.001352, 0.092777,1, 0.001734, 0.002391,-0.000654,1,-0.212562,-0.819591, 9.770029,1,1
1778778574118,  3267.826,  3267.826, 0.009814, 0.079187,-0.991071, 0.000109, 0.000800,-0.009904,-0.116232,-0.042178, 0.051011,1,-0.002259,-0.002879, 0.001847,1,-0.212389,-0.818810, 9.770099,1,1
1778778574140,  3267.851,  3267.846, 0.030197, 0.088119,-1.001941, 0.000298, 0.000883,-0.010028, 0.001673,-0.010711,-0.044839,1,-0.010194,-0.004386,-0.001927,1,-0.211140,-0.820955, 9.769946,1,1
1778778574162,  3267.871,  3267.871, 0.021055, 0.080738,-0.987592, 0.000224, 0.000821,-0.009886,-0.005939,-0.028058, 0.085046,1, 0.008508, 0.005405, 0.001148,1,-0.212585,-0.819567, 9.770031,1,1
1778778574188,  3267.896,  3267.896, 0.021229, 0.079604,-0.984977, 0.000212, 0.000787,-0.009849,-0.004376,-0.038537, 0.110735,1,-0.000793,-0.002547,-0.001384,1,-0.212479,-0.819214, 9.770062,1,1
1778778574210,  3267.921,  3267.916, 0.015306, 0.082708,-0.999042, 0.000155, 0.000823,-0.009981,-0.011952, 0.001472, 0.042258,1,-0.004464,-0.004137, 0.000726,1,-0.211978,-0.819743, 9.770029,1,1
1778778574233,  3267.941,  3267.941, 0.027283, 0.087330,-1.002092, 0.000258, 0.000862,-0.010027, 0.056626, 0.034834,-0.057263,1,-0.000631, 0.000307,-0.001515,1,-0.210935,-0.821597, 9.769897,1,1
1778778574258,  3267.966,  3267.966, 0.026434, 0.085657,-0.989488, 0.000276, 0.000867,-0.009896, 0.047383, 0.020247, 0.066470,1, 0.013893, 0.005311, 0.000704,1,-0.212015,-0.819328, 9.770063,1,1
1778778574280,  3267.991,  3267.986, 0.020073, 0.079602,-0.989961, 0.000193, 0.000790,-0.009891,-0.072888,-0.067421, 0.098013,1,-0.000775,-0.002597, 0.000334,1,-0.212024,-0.818306, 9.770148,1,1
1778778574303,  3268.011,  3268.011, 0.021664, 0.086005,-0.996857, 0.000230, 0.000867,-0.009965, 0.001152, 0.023766,-0.005773,1,-0.004304,-0.000008, 0.000929,1,-0.211306,-0.819789, 9.770040,1,1
1778778574328,  3268.036,  3268.036, 0.020259, 0.083412,-0.996160, 0.000200, 0.000838,-0.009966,-0.012486,-0.002323, 0.001008,1,-0.001887,-0.000937,-0.000363,1,-0.211133,-0.820374, 9.769995,1,1
1778778574350,  3268.061,  3268.056, 0.020247, 0.083682,-0.984453, 0.000228, 0.000848,-0.009847, 0.068382, 0.034402, 0.084365,1, 0.009833, 0.003283,-0.000263,1,-0.211609,-0.819150, 9.770087,1,1
1778778574373,  3268.081,  3268.081, 0.014172, 0.079760,-0.991795, 0.000126, 0.000792,-0.009912,-0.072330,-0.036859, 0.043919,1,-0.009625,-0.004772,-0.000662,1,-0.211160,-0.819341, 9.770081,1,1
1778778574398,  3268.106,  3268.106, 0.029379, 0.090451,-0.997920, 0.000289, 0.000900,-0.009983, 0.077354, 0.066349,-0.016271,1,-0.003015, 0.001086,-0.000335,1,-0.210789,-0.820763, 9.769969,1,1
1778778574420,  3268.131,  3268.126, 0.020019, 0.080180,-0.989536, 0.000184, 0.000803,-0.009900,-0.008271,-0.007549, 0.027219,1, 0.003792, 0.001444, 0.001531,1,-0.211372,-0.819966, 9.770023,1,1
1778778574443,  3268.151,  3268.151, 0.025679, 0.083306,-0.986532, 0.000256, 0.000833,-0.009856, 0.040317,-0.002033, 0.095527,1, 0.001410, 0.000229,-0.000724,1,-0.211518,-0.818944, 9.770106,1,1
1778778574468,  3268.176,  3268.176, 0.014107, 0.081299,-0.996168, 0.000139, 0.000814,-0.009948,-0.072877,-0.022563, 0.000962,1,-0.011508,-0.002162, 0.000985,1,-0.211153,-0.820187, 9.770010,1,1
1778778574490,  3268.201,  3268.196, 0.026758, 0.087780,-0.998310, 0.000274, 0.000887,-0.009990, 0.035129, 0.047208,-0.029741,1,-0.003458,-0.001458,-0.000865,1,-0.210566,-0.821950, 9.769875,1,1
1778778574513,  3268.226,  3268.221, 0.014915, 0.078504,-0.989088, 0.000160, 0.000793,-0.009898,-0.065298,-0.049750, 0.070411,1, 0.005825, 0.002403, 0.000919,1,-0.211644,-0.819428, 9.770062,1,1
1778778574539,  3268.246,  3268.246, 0.023367, 0.083249,-0.989925, 0.000235, 0.000824,-0.009896, 0.017815,-0.003330, 0.062199,1,-0.003032,-0.003208,-0.001826,1,-0.211230,-0.819874, 9.770035,1,1
1778778574560,  3268.271,  3268.266, 0.018316, 0.081535,-0.996329, 0.000180, 0.000812,-0.009965,-0.008542,-0.004430, 0.009803,1,-0.001406, 0.000437, 0.000529,1,-0.211259,-0.820187, 9.770007,1,1
1778778574583,  3268.296,  3268.291, 0.027548, 0.086187,-0.991896, 0.000269, 0.000862,-0.009925, 0.059039, 0.024544, 0.042789,1, 0.003029, 0.000773,-0.001113,1,-0.211138,-0.820572, 9.769978,1,1
1778778574609,  3268.316,  3268.316, 0.020267, 0.080590,-0.991545, 0.000214, 0.000813,-0.009905,-0.012536,-0.029036, 0.046344,1, 0.004010,-0.001484, 0.001299,1,-0.211242,-0.819229, 9.770088,1,1
1778778574630,  3268.341,  3268.336, 0.028014, 0.085828,-0.994380, 0.000275, 0.000851,-0.009926,-0.005628,-0.038694, 0.045588,1,-0.005636,-0.001007,-0.000851,1,-0.210987,-0.819903, 9.770038,1,1
1778778574653,  3268.366,  3268.361, 0.022144, 0.083823,-0.994283, 0.000220, 0.000851,-0.009937, 0.006196, 0.001870, 0.019430,1, 0.003754, 0.003679, 0.001220,1,-0.211076,-0.820033, 9.770024,1,1
1778778574679,  3268.386,  3268.386, 0.021311, 0.080777,-0.986309, 0.000207, 0.000809,-0.009868,-0.002251,-0.027903, 0.097630,1,-0.002117,-0.000669,-0.000153,1,-0.211215,-0.820119, 9.770014,1,1
1778778574700,  3268.411,  3268.406, 0.015288, 0.080509,-0.993643, 0.000160, 0.000813,-0.009939,-0.013503, 0.013087, 0.048350,1, 0.001400,-0.001804, 0.000994,1,-0.210717,-0.820167, 9.770020,1,1
1778778574723,  3268.436,  3268.431, 0.022737, 0.084047,-0.994394, 0.000214, 0.000832,-0.009950, 0.012538, 0.003097, 0.018272,1,-0.007785,-0.002997,-0.001470,1,-0.210338,-0.821369, 9.769928,1,1
1778778574749,  3268.456,  3268.456, 0.026863, 0.089747,-0.991717, 0.000281, 0.000901,-0.009926, 0.052987, 0.058842, 0.044511,1, 0.007091, 0.001573, 0.000153,1,-0.210504,-0.821057, 9.769951,1,1
1778778574770,  3268.481,  3268.476, 0.019986, 0.081293,-0.993227, 0.000181, 0.000801,-0.009933,-0.076863,-0.038585, 0.033015,1, 0.000448,-0.002334, 0.000028,1,-0.210482,-0.820150, 9.770027,1,1
1778778574793,  3268.506,  3268.501, 0.026803, 0.088371,-0.995215, 0.000268, 0.000888,-0.009941, 0.052840, 0.045687, 0.010245,1, 0.001680, 0.000604, 0.000074,1,-0.210030,-0.820884, 9.769976,1,1
1778778574819,  3268.526,  3268.526, 0.016847, 0.081667,-0.995492, 0.000163, 0.000817,-0.009954,-0.044897,-0.019601, 0.007563,1, 0.001174, 0.000311, 0.000550,1,-0.210120,-0.820441, 9.770011,1,1
1778778574840,  3268.551,  3268.546, 0.023471, 0.084309,-0.990326, 0.000252, 0.000850,-0.009897, 0.060383, 0.019319, 0.073774,1, 0.002150, 0.001953,-0.001204,1,-0.210312,-0.820183, 9.770028,1,1
1778778574867,  3268.576,  3268.576, 0.013928, 0.078621,-0.993487, 0.000136, 0.000789,-0.009939,-0.073700,-0.048798, 0.027276,1,-0.004410,-0.000454, 0.000274,1,-0.210271,-0.819942, 9.770049,1,1
1778778574889,  3268.596,  3268.596, 0.028613, 0.086279,-0.993934, 0.000288, 0.000861,-0.009940, 0.070508, 0.025169, 0.022809,1,-0.002364,-0.000194,-0.001241,1,-0.210078,-0.821010, 9.769964,1,1
1778778574911,  3268.621,  3268.616, 0.016063, 0.079741,-0.987357, 0.000157, 0.000795,-0.009883,-0.021718,-0.017168, 0.045476,1, 0.006588, 0.003148, 0.001337,1,-0.210655,-0.819930, 9.770042,1,1
1778778574938,  3268.646,  3268.646, 0.024680, 0.087020,-0.992419, 0.000242, 0.000864,-0.009917, 0.031798, 0.032582, 0.037669,1,-0.004759,-0.002909,-0.001843,1,-0.210189,-0.820994, 9.769963,1,1
1778778574959,  3268.671,  3268.666, 0.016418, 0.080421,-0.997568, 0.000146, 0.000804,-0.009969,-0.051383,-0.017325,-0.011918,1, 0.001573, 0.000006, 0.000819,1,-0.210201,-0.820731, 9.769984,1,1
1778778574981,  3268.691,  3268.686, 0.029741, 0.088241,-0.991745, 0.000289, 0.000883,-0.009924, 0.028944, 0.001375, 0.003641,1,-0.002877, 0.000471,-0.001868,1,-0.210126,-0.821304, 9.769938,1,1
1778778575008,  3268.716,  3268.716, 0.017113, 0.080389,-0.987666, 0.000185, 0.000810,-0.009877,-0.042967,-0.031289, 0.084371,1, 0.006392, 0.001602, 0.001120,1,-0.210845,-0.819432, 9.770080,1,1
1778778575029,  3268.741,  3268.736, 0.025492, 0.085301,-0.993634, 0.000256, 0.000854,-0.009935,-0.021877,-0.031165, 0.059398,1,-0.006362,-0.004042,-0.001170,1,-0.210235,-0.820044, 9.770041,1,1
1778778575051,  3268.761,  3268.756, 0.018712, 0.084312,-0.996731, 0.000200, 0.000847,-0.009973, 0.029801, 0.030202, 0.009684,1, 0.000210, 0.000269, 0.000513,1,-0.209953,-0.820708, 9.769992,1,1
1778778575078,  3268.786,  3268.786, 0.024018, 0.083277,-0.990759, 0.000233, 0.000826,-0.009919, 0.025252,-0.003848, 0.053975,1, 0.000033,-0.000094,-0.000919,1,-0.210282,-0.820514, 9.770001,1,1
1778778575099,  3268.811,  3268.806, 0.016223, 0.081040,-0.990046, 0.000163, 0.000809,-0.009903, 0.014365, 0.020743, 0.060827,1, 0.006212, 0.001750,-0.000435,1,-0.210580,-0.819774, 9.770057,1,1
1778778575121,  3268.831,  3268.826, 0.023306, 0.084783,-0.995997, 0.000221, 0.000829,-0.009956,-0.054135,-0.037292, 0.044106,1,-0.008233,-0.002896,-0.000055,1,-0.210485,-0.820096, 9.770032,1,1
1778778575148,  3268.856,  3268.856, 0.026303, 0.089647,-0.995062, 0.000273, 0.000899,-0.009953, 0.047748, 0.057686, 0.011694,1, 0.005236, 0.002919, 0.000676,1,-0.210284,-0.821287, 9.769937,1,1
1778778575169,  3268.881,  3268.876, 0.021697, 0.081249,-0.992603, 0.000204, 0.000802,-0.009929,-0.078516,-0.050811, 0.027862,1, 0.002993, 0.000327, 0.000305,1,-0.210495,-0.820118, 9.770030,1,1
1778778575191,  3268.901,  3268.896, 0.026746, 0.085080,-0.988763, 0.000292, 0.000859,-0.009891, 0.072617, 0.022794, 0.055513,1,-0.000891, 0.001212,-0.001087,1,-0.210395,-0.820373, 9.770011,1,1
1778778575218,  3268.926,  3268.926, 0.012053, 0.079869,-0.993093, 0.000123, 0.000799,-0.009932,-0.092267,-0.037139, 0.031089,1,-0.004279,-0.001336, 0.000894,1,-0.210423,-0.820520, 9.769998,1,1
1778778575239,  3268.951,  3268.946, 0.026589, 0.085707,-0.992537, 0.000282, 0.000859,-0.009925, 0.061736, 0.024637, 0.045524,1,-0.000669, 0.000709,-0.000936,1,-0.210342,-0.821189, 9.769943,1,1
1778778575261,  3268.971,  3268.966, 0.015705, 0.080541,-0.991109, 0.000151, 0.000803,-0.009915,-0.029230,-0.004334, 0.032312,1, 0.003987, 0.001534, 0.001154,1,-0.210733,-0.820406, 9.770000,1,1
1778778575288,  3268.996,  3268.996, 0.027821, 0.085985,-0.992223, 0.000268, 0.000855,-0.009916, 0.062278, 0.022201, 0.039565,1,-0.002131,-0.001601,-0.001528,1,-0.210499,-0.821092, 9.769948,1,1
1778778575310,  3269.021,  3269.016, 0.014570, 0.078656,-0.991219, 0.000135, 0.000784,-0.009907,-0.046726,-0.018218, 0.048722,1, 0.004885, 0.002616, 0.001422,1,-0.210953,-0.820056, 9.770025,1,1
1778778575331,  3269.041,  3269.036, 0.027357, 0.086748,-0.997767, 0.000266, 0.000866,-0.009974,-0.002935,-0.016842, 0.008530,1,-0.007922,-0.004148,-0.001439,1,-0.210387,-0.821025, 9.769956,1,1
1778778575358,  3269.066,  3269.066, 0.018639, 0.082697,-0.991167, 0.000200, 0.000834,-0.009910,-0.028021,-0.009598, 0.049954,1, 0.004048, 0.002706, 0.001208,1,-0.210898,-0.820451, 9.769993,1,1
1778778575380,  3269.091,  3269.086, 0.026080, 0.086502,-0.991510, 0.000264, 0.000866,-0.009922,-0.008008,-0.017441, 0.030355,1,-0.003515,-0.001880,-0.001319,1,-0.210570,-0.821109, 9.769945,1,1
1778778575402,  3269.111,  3269.111, 0.016784, 0.082091,-0.993255, 0.000183, 0.000827,-0.009927,-0.046275,-0.015494, 0.029486,1,-0.000106,-0.000866, 0.001813,1,-0.210845,-0.820535, 9.769987,1,1
1778778575428,  3269.136,  3269.136, 0.021748, 0.082752,-0.993964, 0.000204, 0.000820,-0.009952, 0.002676,-0.009642, 0.022486,1,-0.002436,-0.000176,-0.000976,1,-0.210590,-0.821237, 9.769934,1,1
1778778575450,  3269.161,  3269.156, 0.020544, 0.083918,-0.988556, 0.000209, 0.000838,-0.009885, 0.071298, 0.027030, 0.063464,1, 0.006421, 0.002430,-0.000042,1,-0.211001,-0.820465, 9.769990,1,1
1778778575473,  3269.181,  3269.181, 0.021203, 0.081108,-0.989815, 0.000198, 0.000804,-0.009894,-0.003162,-0.025124, 0.063216,1,-0.006060,-0.003490,-0.000715,1,-0.210984,-0.820711, 9.769969,1,1
1778778575498,  3269.206,  3269.201, 0.023410, 0.086081,-0.996459, 0.000242, 0.000863,-0.009966, 0.018772, 0.023186,-0.001971,1, 0.002057, 0.001475, 0.000730,1,-0.210847,-0.820914, 9.769956,1,1
1778778575520,  3269.231,  3269.226, 0.022515, 0.083040,-0.995375, 0.000217, 0.000829,-0.009949,-0.057044,-0.022618, 0.027534,1,-0.004079,-0.001210, 0.000105,1,-0.210934,-0.821054, 9.769941,1,1
1778778575543,  3269.251,  3269.251, 0.025352, 0.084740,-0.991275, 0.000274, 0.000857,-0.009922, 0.037581, 0.010265, 0.048876,1, 0.006305, 0.004144, 0.000799,1,-0.211168,-0.820560, 9.769979,1,1
1778778575568,  3269.276,  3269.276, 0.012986, 0.080305,-0.990346, 0.000135, 0.000805,-0.009901,-0.083786,-0.032885, 0.058013,1,-0.003333,-0.001925, 0.000404,1,-0.211073,-0.820510, 9.769984,1,1
1778778575590,  3269.301,  3269.296, 0.023267, 0.085645,-0.994580, 0.000251, 0.000863,-0.009949, 0.030765, 0.028559, 0.031197,1,-0.000315,-0.000972,-0.000827,1,-0.210635,-0.821116, 9.769943,1,1
1778778575613,  3269.321,  3269.321, 0.016596, 0.080031,-0.994852, 0.000159, 0.000795,-0.009960,-0.047947,-0.035974, 0.013799,1,-0.001476,-0.000124,-0.000360,1,-0.210698,-0.820857, 9.769963,1,1
1778778575638,  3269.346,  3269.346, 0.029769, 0.085957,-0.989811, 0.000288, 0.000856,-0.009903, 0.080989, 0.022099, 0.063226,1, 0.003104, 0.002293,-0.001180,1,-0.211016,-0.820759, 9.769965,1,1
1778778575660,  3269.371,  3269.366, 0.012515, 0.080599,-0.989907, 0.000118, 0.000805,-0.009894,-0.047963,-0.004641, 0.076412,1,-0.000176,-0.000401, 0.001383,1,-0.211258,-0.820293, 9.769999,1,1
1778778575683,  3269.391,  3269.391, 0.026335, 0.086114,-0.999091, 0.000256, 0.000855,-0.009987, 0.047854, 0.022909,-0.027828,1,-0.001071,-0.001206,-0.001346,1,-0.210362,-0.821620, 9.769906,1,1
1778778575709,  3269.416,  3269.416, 0.020773, 0.082974,-0.992825, 0.000214, 0.000836,-0.009936,-0.007310,-0.006969, 0.033688,1, 0.005903, 0.005591, 0.001016,1,-0.211198,-0.820477, 9.769984,1,1
1778778575730,  3269.441,  3269.436, 0.025898, 0.086455,-0.988294, 0.000264, 0.000870,-0.009880, 0.026100,-0.011003, 0.094503,1,-0.000414,-0.002089,-0.000743,1,-0.211261,-0.820365, 9.769993,1,1
1778778575753,  3269.466,  3269.461, 0.011253, 0.080251,-0.993237, 0.000126, 0.000811,-0.009927,-0.100611,-0.033151, 0.029687,1,-0.003935,-0.003862, 0.001344,1,-0.210844,-0.820263, 9.770010,1,1
1778778575779,  3269.486,  3269.486, 0.021825, 0.084357,-1.003634, 0.000205, 0.000836,-0.010044, 0.004039, 0.005429,-0.072396,1,-0.006552,-0.001747,-0.001627,1,-0.209932,-0.822039, 9.769880,1,1
1778778575800,  3269.511,  3269.506, 0.020098, 0.082978,-0.985549, 0.000213, 0.000837,-0.009859, 0.096804, 0.042785, 0.045348,1, 0.011034, 0.007269, 0.000218,1,-0.211093,-0.820813, 9.769958,1,1
1778778575823,  3269.536,  3269.531, 0.020949, 0.079075,-0.985034, 0.000190, 0.000786,-0.009846,-0.006386,-0.044044, 0.110169,1,-0.004253,-0.001046,-0.000920,1,-0.211789,-0.819634, 9.770042,1,1
1778778575849,  3269.556,  3269.556, 0.023422, 0.087176,-0.992669, 0.000245, 0.000875,-0.009915, 0.018308, 0.034117, 0.035197,1,-0.006215,-0.003294, 0.000514,1,-0.211287,-0.820983, 9.769940,1,1
1778778575870,  3269.581,  3269.576, 0.025682, 0.084521,-0.999309, 0.000245, 0.000845,-0.010000,-0.044191,-0.000754,-0.042518,1,-0.006843,-0.001232, 0.000227,1,-0.210867,-0.822283, 9.769840,1,1
1778778575893,  3269.606,  3269.601, 0.027600, 0.084369,-0.986387, 0.000305, 0.000858,-0.009878, 0.059030, 0.006773, 0.096814,1, 0.013685, 0.005401, 0.001177,1,-0.211800,-0.820177, 9.769997,1,1
1778778575919,  3269.626,  3269.626, 0.007643, 0.076653,-0.985870, 0.000080, 0.000770,-0.009850,-0.136897,-0.067681, 0.101976,1,-0.004755,-0.004302, 0.000789,1,-0.211717,-0.819537, 9.770052,1,1
1778778575940,  3269.651,  3269.646, 0.027583, 0.088256,-1.000702, 0.000288, 0.000883,-0.010012, 0.019219, 0.026375,-0.024891,1,-0.009477,-0.002093,-0.001211,1,-0.210713,-0.821693, 9.769893,1,1
1778778575963,  3269.676,  3269.671, 0.018869, 0.083362,-0.995748, 0.000184, 0.000837,-0.009965,-0.026329,-0.004314, 0.004911,1, 0.004094, 0.003148, 0.000313,1,-0.211469,-0.821688, 9.769876,1,1
1778778575989,  3269.696,  3269.696, 0.026873, 0.084605,-0.985995, 0.000262, 0.000842,-0.009862, 0.051435, 0.009422, 0.100678,1, 0.010086, 0.003520,-0.001294,1,-0.212201,-0.819957, 9.770006,1,1
1778778576010,  3269.721,  3269.716, 0.013203, 0.079254,-0.994669, 0.000117, 0.000789,-0.009929,-0.064808,-0.033579, 0.081926,1,-0.004127,-0.002419, 0.001305,1,-0.212351,-0.819402, 9.770050,1,1
1778778576033,  3269.746,  3269.741, 0.028796, 0.088046,-1.001785, 0.000274, 0.000882,-0.010019, 0.071119, 0.041540,-0.054292,1, 0.000122, 0.002771,-0.000372,1,-0.211355,-0.821895, 9.769862,1,1
1778778576059,  3269.766,  3269.766, 0.020700, 0.082626,-0.990071, 0.000218, 0.000838,-0.009905,-0.009374,-0.010093, 0.060686,1, 0.009264, 0.005584, 0.001277,1,-0.212549,-0.820089, 9.769988,1,1
1778778576081,  3269.791,  3269.786, 0.025521, 0.080829,-0.986710, 0.000258, 0.000813,-0.009862,-0.003760,-0.049510, 0.107824,1, 0.002219, 0.000301,-0.000653,1,-0.212758,-0.819406, 9.770041,1,1
1778778576108,  3269.816,  3269.816, 0.016543, 0.083044,-0.994215, 0.000177, 0.000838,-0.009938,-0.050213,-0.005861, 0.020060,1,-0.008415,-0.002222, 0.000935,1,-0.212378,-0.820501, 9.769957,1,1
1778778576129,  3269.836,  3269.836, 0.024201, 0.086714,-0.998634, 0.000237, 0.000864,-0.009988, 0.025455, 0.028468,-0.023405,1,-0.003517,-0.002282,-0.000772,1,-0.211798,-0.822012, 9.769842,1,1
1778778576151,  3269.861,  3269.856, 0.017240, 0.081330,-0.988470, 0.000176, 0.000814,-0.009886, 0.029358, 0.028224, 0.049254,1, 0.011780, 0.003627, 0.000863,1,-0.212546,-0.820420, 9.769960,1,1
1778778576178,  3269.886,  3269.886, 0.021653, 0.082394,-0.992099, 0.000202, 0.000810,-0.009919,-0.000044,-0.012074, 0.040825,1,-0.004914,-0.002714,-0.001629,1,-0.212303,-0.820234, 9.769981,1,1
1778778576199,  3269.911,  3269.906, 0.018066, 0.084132,-0.995482, 0.000184, 0.000848,-0.009952, 0.033143, 0.037850, 0.013652,1, 0.000009, 0.000024, 0.000203,1,-0.212174,-0.820538, 9.769958,1,1
1778778576221,  3269.931,  3269.926, 0.023790, 0.082335,-0.992858, 0.000229, 0.000821,-0.009934,-0.045785,-0.027740, 0.009300,1, 0.000703,-0.000090, 0.000185,1,-0.212106,-0.820444, 9.769968,1,1
1778778576248,  3269.956,  3269.956, 0.022551, 0.083569,-0.989082, 0.000246, 0.000841,-0.009891, 0.008669, 0.000236, 0.070478,1, 0.003895, 0.002110, 0.000373,1,-0.212549,-0.819174, 9.770064,1,1
1778778576269,  3269.981,  3269.976, 0.022953, 0.083447,-0.994000, 0.000229, 0.000831,-0.009939,-0.054163,-0.030651, 0.043035,1,-0.007605,-0.001773, 0.000158,1,-0.212415,-0.820052, 9.769994,1,1
1778778576291,  3270.001,  3269.996, 0.022171, 0.084176,-0.993451, 0.000244, 0.000851,-0.009939, 0.046813, 0.023470, 0.010598,1, 0.001786, 0.001837,-0.000747,1,-0.212231,-0.820634, 9.769949,1,1
1778778576318,  3270.026,  3270.026, 0.017749, 0.079202,-0.991026, 0.000168, 0.000792,-0.009915,-0.038578,-0.043259, 0.051354,1,-0.003942,-0.001817,-0.000736,1,-0.212579,-0.820090, 9.769987,1,1
1778778576339,  3270.051,  3270.046, 0.023755, 0.085185,-0.992919, 0.000247, 0.000854,-0.009928, 0.067135, 0.030822, 0.036125,1, 0.000426, 0.000830,-0.000596,1,-0.212411,-0.820612, 9.769947,1,1
1778778576361,  3270.071,  3270.066, 0.015662, 0.080137,-0.995465, 0.000141, 0.000799,-0.009949,-0.058391,-0.021039, 0.019416,1,-0.000786,-0.000567, 0.001009,1,-0.212548,-0.820447, 9.769958,1,1
1778778576388,  3270.096,  3270.096, 0.028515, 0.085826,-0.993714, 0.000278, 0.000859,-0.009936, 0.067382, 0.021163, 0.024956,1, 0.003471, 0.002436,-0.001119,1,-0.212326,-0.820399, 9.769966,1,1
1778778576410,  3270.121,  3270.116, 0.019009, 0.079685,-0.990112, 0.000186, 0.000800,-0.009899,-0.029270,-0.023797, 0.052044,1,-0.000679, 0.001599, 0.001017,1,-0.212731,-0.819948, 9.769996,1,1
1778778576431,  3270.141,  3270.136, 0.025291, 0.085999,-0.992701, 0.000258, 0.000866,-0.009922, 0.023003,-0.002168, 0.051001,1,-0.003379,-0.001634,-0.001557,1,-0.212370,-0.820760, 9.769936,1,1
1778778576458,  3270.166,  3270.166, 0.013534, 0.081398,-0.993532, 0.000147, 0.000821,-0.009935,-0.079492,-0.021803, 0.026781,1,-0.000055,-0.001595, 0.000720,1,-0.212171,-0.820041, 9.770000,1,1
1778778576480,  3270.191,  3270.186, 0.031474, 0.086050,-0.992366, 0.000318, 0.000862,-0.009930, 0.048455,-0.002420, 0.027056,1,-0.000472,-0.000631,-0.001397,1,-0.211849,-0.820537, 9.769965,1,1
1778778576501,  3270.211,  3270.206, 0.014838, 0.080956,-0.989895, 0.000157, 0.000815,-0.009897, 0.023368, 0.011179, 0.056039,1, 0.007108, 0.003998, 0.001009,1,-0.212441,-0.819388, 9.770049,1,1
1778778576528,  3270.236,  3270.236, 0.021141, 0.083352,-0.993745, 0.000199, 0.000820,-0.009931,-0.069425,-0.039321, 0.055678,1,-0.004517,-0.001971, 0.000027,1,-0.212468,-0.819549, 9.770035,1,1
1778778576550,  3270.261,  3270.256, 0.016203, 0.082464,-0.996183, 0.000158, 0.000829,-0.009961, 0.000899, 0.016260,-0.007211,1, 0.001371, 0.002858, 0.000810,1,-0.212357,-0.820122, 9.769989,1,1
1778778576571,  3270.281,  3270.276, 0.028249, 0.086067,-0.991802, 0.000270, 0.000852,-0.009924,-0.021455,-0.020516, 0.004592,1,-0.003047, 0.001099,-0.000884,1,-0.212618,-0.820311, 9.769968,1,1
1778778576598,  3270.306,  3270.306, 0.023573, 0.085335,-0.983464, 0.000257, 0.000865,-0.009832, 0.017857, 0.017239, 0.125524,1, 0.004992, 0.002013, 0.001537,1,-0.213385,-0.819454, 9.770022,1,1
1778778576620,  3270.331,  3270.326, 0.020619, 0.083490,-0.995972, 0.000199, 0.000830,-0.009958,-0.100107,-0.045257, 0.030143,1,-0.006867,-0.004024, 0.000030,1,-0.212789,-0.819980, 9.769992,1,1
1778778576643,  3270.351,  3270.351, 0.023695, 0.087248,-0.997185, 0.000259, 0.000880,-0.009974, 0.019818, 0.034789,-0.009114,1, 0.005738, 0.003120, 0.001180,1,-0.212651,-0.820638, 9.769939,1,1
1778778576668,  3270.376,  3270.376, 0.020771, 0.080353,-0.989995, 0.000195, 0.000806,-0.009907,-0.009488,-0.031740, 0.061467,1, 0.003102, 0.001884, 0.000231,1,-0.213240,-0.819632, 9.770011,1,1
1778778576690,  3270.401,  3270.396, 0.020120, 0.082377,-0.989265, 0.000218, 0.000824,-0.009894, 0.050446,-0.013478, 0.085613,1, 0.002412,-0.001408,-0.001122,1,-0.213144,-0.819439, 9.770029,1,1
1778778576713,  3270.421,  3270.421, 0.013976, 0.079208,-0.996691, 0.000116, 0.000787,-0.009961,-0.075629,-0.043233,-0.004207,1,-0.012111,-0.004514,-0.000942,1,-0.212542,-0.820379, 9.769963,1,1
1778778576738,  3270.446,  3270.446, 0.032967, 0.089389,-1.000243, 0.000309, 0.000892,-0.010004, 0.110920, 0.055131,-0.039155,1, 0.001099, 0.004481,-0.000847,1,-0.212475,-0.821487, 9.769872,1,1
1778778576760,  3270.471,  3270.466, 0.016308, 0.078069,-0.988559, 0.000152, 0.000778,-0.009881,-0.029679,-0.022894, 0.082224,1, 0.007199, 0.003069, 0.001318,1,-0.213522,-0.819792, 9.769992,1,1
1778778576783,  3270.491,  3270.491, 0.026318, 0.084653,-0.990401, 0.000263, 0.000849,-0.009898, 0.044816, 0.010525, 0.057491,1,-0.000067, 0.001403,-0.000360,1,-0.213322,-0.819637, 9.770009,1,1
1778778576809,  3270.516,  3270.516, 0.016376, 0.082371,-0.995422, 0.000175, 0.000831,-0.009949,-0.052521,-0.012304, 0.008224,1,-0.005093,-0.001860, 0.001705,1,-0.213063,-0.820244, 9.769963,1,1
1778778576830,  3270.541,  3270.536, 0.029406, 0.085680,-0.992622, 0.000299, 0.000863,-0.009933, 0.027140, 0.007399, 0.006540,1, 0.001358, 0.000122,-0.001064,1,-0.212889,-0.820760, 9.769924,1,1
1778778576853,  3270.561,  3270.561, 0.016648, 0.080562,-0.985864, 0.000171, 0.000811,-0.009860,-0.050581,-0.028966, 0.102027,1,-0.000101, 0.000285, 0.000560,1,-0.213854,-0.819012, 9.770050,1,1
1778778576879,  3270.586,  3270.586, 0.023383, 0.083096,-0.992958, 0.000222, 0.000818,-0.009923, 0.015975,-0.005332, 0.032364,1,-0.008017,-0.004752,-0.001466,1,-0.213185,-0.820474, 9.769941,1,1
1778778576900,  3270.611,  3270.606, 0.018200, 0.083500,-0.995315, 0.000176, 0.000839,-0.009952, 0.003175, 0.028945,-0.007904,1, 0.000066, 0.001191, 0.000484,1,-0.213142,-0.820792, 9.769916,1,1
1778778576923,  3270.631,  3270.631, 0.024880, 0.086342,-0.992307, 0.000243, 0.000853,-0.009919, 0.030896, 0.025855, 0.038703,1, 0.004310,-0.001079,-0.001679,1,-0.213057,-0.820734, 9.769922,1,1
1778778576949,  3270.656,  3270.656, 0.018757, 0.082629,-0.988836, 0.000200, 0.000833,-0.009883,-0.029504,-0.009164, 0.072854,1, 0.005825, 0.001877, 0.000992,1,-0.213513,-0.819305, 9.770033,1,1
1778778576970,  3270.681,  3270.676, 0.023794, 0.087212,-0.996909, 0.000234, 0.000864,-0.009971,-0.045711,-0.024498, 0.004293,1,-0.007986,-0.004226,-0.000950,1,-0.212775,-0.820209, 9.769973,1,1
1778778576993,  3270.706,  3270.701, 0.022478, 0.086208,-0.991877, 0.000244, 0.000872,-0.009923, 0.007322, 0.025380, 0.042984,1, 0.006024, 0.003498, 0.001400,1,-0.213227,-0.819843, 9.769994,1,1
1778778577019,  3270.726,  3270.726, 0.017642, 0.080294,-0.989175, 0.000170, 0.000806,-0.009898,-0.040206,-0.031937, 0.069537,1, 0.000973, 0.000234,-0.000269,1,-0.213220,-0.819321, 9.770038,1,1
1778778577040,  3270.751,  3270.746, 0.021477, 0.085304,-0.994889, 0.000222, 0.000851,-0.009946, 0.048213, 0.017739, 0.039212,1,-0.000415, 0.000211,-0.000551,1,-0.213106,-0.819274, 9.770044,1,1
1778778577063,  3270.776,  3270.771, 0.022579, 0.083983,-0.991863, 0.000207, 0.000834,-0.009923, 0.008256, 0.003372, 0.043109,1,-0.002959, 0.000006,-0.000176,1,-0.213173,-0.820316, 9.769955,1,1
1778778577089,  3270.796,  3270.796, 0.028166, 0.085136,-0.993849, 0.000279, 0.000851,-0.009933, 0.062960, 0.015151, 0.023669,1, 0.007082, 0.002579, 0.000247,1,-0.213333,-0.819523, 9.770019,1,1
1778778577110,  3270.821,  3270.816, 0.023049, 0.080199,-0.988747, 0.000213, 0.000793,-0.009878,-0.027386,-0.039410, 0.085126,1,-0.002400, 0.001457, 0.000691,1,-0.214033,-0.818875, 9.770058,1,1
1778778577133,  3270.846,  3270.841, 0.024321, 0.086611,-0.995547, 0.000250, 0.000871,-0.009956, 0.025063, 0.029098, 0.006976,1, 0.002131, 0.002255, 0.000574,1,-0.213550,-0.820255, 9.769952,1,1
1778778577159,  3270.866,  3270.866, 0.015849, 0.077536,-0.993833, 0.000162, 0.000780,-0.009934,-0.058327,-0.059383, 0.023813,1,-0.001438,-0.001267, 0.000625,1,-0.213712,-0.819791, 9.769987,1,1
1778778577181,  3270.891,  3270.886, 0.026655, 0.084485,-0.988891, 0.000284, 0.000851,-0.009897, 0.060594, 0.000617, 0.023867,1, 0.001739, 0.000902,-0.001029,1,-0.213529,-0.820177, 9.769959,1,1
1778778577203,  3270.916,  3270.911, 0.010905, 0.077959,-0.991492, 0.000114, 0.000778,-0.009915,-0.106882,-0.055080, 0.046784,1,-0.004324,-0.003339, 0.001106,1,-0.213722,-0.819735, 9.769992,1,1
1778778577229,  3270.936,  3270.936, 0.027079, 0.085392,-0.992244, 0.000260, 0.000841,-0.009929, 0.052091, 0.016667, 0.039323,1,-0.003288,-0.000141,-0.001493,1,-0.213459,-0.820848, 9.769904,1,1
1778778577251,  3270.961,  3270.956, 0.015140, 0.082347,-0.993233, 0.000143, 0.000823,-0.009932,-0.018965, 0.007699, 0.035404,1, 0.001966,-0.000613, 0.000997,1,-0.213542,-0.820551, 9.769927,1,1
1778778577273,  3270.986,  3270.981, 0.028134, 0.086907,-0.991122, 0.000270, 0.000862,-0.009903, 0.062656, 0.031498, 0.050324,1,-0.001167,-0.001178,-0.001662,1,-0.213204,-0.820809, 9.769913,1,1
1778778577299,  3271.006,  3271.006, 0.016486, 0.084605,-0.993775, 0.000174, 0.000853,-0.009934,-0.051413, 0.009583, 0.024370,1, 0.004812,-0.000081, 0.001251,1,-0.213090,-0.819961, 9.769987,1,1
1778778577321,  3271.031,  3271.026, 0.023172, 0.088143,-0.996527, 0.000227, 0.000877,-0.009956,-0.056976,-0.008207, 0.033276,1,-0.004486,-0.003273,-0.001318,1,-0.212715,-0.820214, 9.769974,1,1
1778778577348,  3271.056,  3271.056, 0.019064, 0.084974,-0.991793, 0.000204, 0.000863,-0.009925,-0.025725, 0.013647, 0.043849,1, 0.006939, 0.004798, 0.001853,1,-0.212823,-0.819448, 9.770036,1,1
1778778577369,  3271.076,  3271.076, 0.022090, 0.082453,-0.989350, 0.000215, 0.000819,-0.009892, 0.003752,-0.010932, 0.067815,1,-0.003926,-0.003058,-0.001064,1,-0.212782,-0.819642, 9.770020,1,1
1778778577391,  3271.101,  3271.096, 0.017218, 0.083246,-0.990203, 0.000181, 0.000837,-0.009899, 0.040879, 0.042329, 0.068582,1, 0.003334, 0.001257,-0.000394,1,-0.212778,-0.819524, 9.770030,1,1
1778778577418,  3271.126,  3271.126, 0.021875, 0.081906,-0.998579, 0.000196, 0.000809,-0.009990, 0.002272,-0.016999,-0.022728,1,-0.007884,-0.002387,-0.000581,1,-0.212170,-0.820471, 9.769964,1,1
1778778577439,  3271.151,  3271.146, 0.024967, 0.083253,-0.991116, 0.000255, 0.000834,-0.009911, 0.115132, 0.030925, 0.032882,1, 0.004101, 0.004881,-0.000168,1,-0.212855,-0.820327, 9.769961,1,1
1778778577461,  3271.171,  3271.166, 0.022428, 0.079359,-0.987294, 0.000204, 0.000794,-0.009878,-0.037432,-0.031019, 0.055597,1,-0.000667, 0.000907, 0.000601,1,-0.213366,-0.819766, 9.769997,1,1
1778778577488,  3271.196,  3271.196, 0.028178, 0.083390,-0.993895, 0.000289, 0.000835,-0.009932, 0.063229,-0.002948, 0.023144,1,-0.003465,-0.001072,-0.000231,1,-0.213066,-0.820833, 9.769914,1,1
1778778577509,  3271.221,  3271.216, 0.022616, 0.081622,-0.993981, 0.000223, 0.000814,-0.009941,-0.042523,-0.027864, 0.019806,1,-0.004661, 0.000374, 0.000046,1,-0.213183,-0.821483, 9.769856,1,1
1778778577531,  3271.241,  3271.236, 0.025470, 0.085599,-0.991541, 0.000272, 0.000861,-0.009923, 0.044831, 0.028879, 0.022540,1, 0.001721,-0.001774,-0.001984,1,-0.212747,-0.822065, 9.769817,1,1
1778778577558,  3271.266,  3271.266, 0.011729, 0.077547,-0.989359, 0.000123, 0.000776,-0.009888,-0.098239,-0.059891, 0.067648,1,-0.002556,-0.004104, 0.000572,1,-0.213132,-0.820444, 9.769945,1,1
1778778577580,  3271.291,  3271.286, 0.025241, 0.087612,-0.994602, 0.000256, 0.000876,-0.009956, 0.018905, 0.027129,-0.018784,1,-0.002144,-0.001589,-0.001947,1,-0.212299,-0.821514, 9.769874,1,1
1778778577601,  3271.311,  3271.306, 0.015286, 0.080900,-0.990635, 0.000150, 0.000804,-0.009906,-0.027612, 0.001786, 0.051780,1, 0.004967, 0.002351, 0.000458,1,-0.213001,-0.820687, 9.769928,1,1
1778778577628,  3271.336,  3271.336, 0.023060, 0.085719,-0.987790, 0.000222, 0.000850,-0.009875, 0.013412, 0.020138, 0.083039,1, 0.002031,-0.000468,-0.001192,1,-0.212715,-0.820414, 9.769957,1,1
1778778577650,  3271.361,  3271.356, 0.010136, 0.083168,-0.999993, 0.000092, 0.000828,-0.009998,-0.100475,-0.007805, 0.014347,1,-0.002779,-0.004576, 0.000690,1,-0.212159,-0.820516, 9.769960,1,1
1778778577671,  3271.381,  3271.376, 0.032514, 0.088077,-0.997421, 0.000319, 0.000877,-0.009977, 0.001215, 0.002431,-0.034668,1,-0.006445,-0.000396,-0.000850,1,-0.211720,-0.821902, 9.769854,1,1
1778778577698,  3271.406,  3271.406, 0.021346, 0.084173,-0.986416, 0.000234, 0.000854,-0.009874,-0.003657, 0.005003, 0.096513,1, 0.010669, 0.007087, 0.001744,1,-0.213219,-0.820123, 9.769970,1,1
1778778577720,  3271.431,  3271.426, 0.022459, 0.085460,-0.992318, 0.000221, 0.000845,-0.009910,-0.046392,-0.032052, 0.121822,1,-0.004726,-0.004259,-0.000745,1,-0.213157,-0.820067, 9.769977,1,1
1778778577741,  3271.451,  3271.446, 0.024101, 0.086138,-1.000465, 0.000241, 0.000864,-0.010012, 0.041833, 0.035230,-0.030583,1,-0.006021,-0.001889,-0.000286,1,-0.212071,-0.821571, 9.769874,1,1
1778778577768,  3271.476,  3271.476, 0.031166, 0.086961,-0.995821, 0.000299, 0.000860,-0.009964, 0.093188, 0.030291, 0.004122,1, 0.000163, 0.001489,-0.001158,1,-0.212490,-0.822497, 9.769787,1,1
1778778577790,  3271.501,  3271.496, 0.015479, 0.080332,-0.981311, 0.000166, 0.000807,-0.009807, 0.064316, 0.023894, 0.119801,1, 0.013040, 0.005232, 0.000886,1,-0.213467,-0.820492, 9.769934,1,1
1778778577811,  3271.521,  3271.516, 0.016364, 0.079016,-0.997428, 0.000143, 0.000781,-0.009965,-0.123369,-0.068820, 0.076901,1,-0.006990,-0.005937, 0.000262,1,-0.212956,-0.820321, 9.769959,1,1
1778778577838,  3271.546,  3271.546, 0.030578, 0.086750,-0.998966, 0.000310, 0.000873,-0.009991, 0.087558, 0.028409,-0.026702,1, 0.000349, 0.003321,-0.000059,1,-0.212415,-0.822308, 9.769804,1,1
1778778577860,  3271.571,  3271.566, 0.022875, 0.078712,-0.982098, 0.000227, 0.000790,-0.009830,-0.021485,-0.017513, 0.070932,1, 0.006412, 0.005736, 0.000689,1,-0.213430,-0.821199, 9.769876,1,1
1778778577883,  3271.591,  3271.591, 0.016356, 0.079523,-0.987277, 0.000187, 0.000798,-0.009867,-0.052827,-0.040317, 0.088082,1,-0.000056,-0.003644, 0.000224,1,-0.213111,-0.820175, 9.769968,1,1
1778778577908,  3271.616,  3271.616, 0.007936, 0.080288,-0.999646, 0.000075, 0.000800,-0.009995,-0.134344,-0.034471,-0.033328,1,-0.015424,-0.005455,-0.000735,1,-0.211997,-0.822310, 9.769814,1,1
1778778577930,  3271.641,  3271.636, 0.033151, 0.090163,-0.996061, 0.000341, 0.000904,-0.009982, 0.085280, 0.070002,-0.082422,1, 0.001677, 0.002847,-0.001742,1,-0.211731,-0.823826, 9.769691,1,1
1778778577953,  3271.661,  3271.661, 0.015040, 0.075850,-0.979554, 0.000152, 0.000759,-0.009791,-0.066343,-0.075946, 0.163841,1, 0.008836, 0.000985, 0.000082,1,-0.213862,-0.819506, 9.770008,1,1
1778778577979,  3271.686,  3271.686, 0.019945, 0.082590,-0.989363, 0.000187, 0.000812,-0.009882,-0.017496,-0.010256, 0.067630,1,-0.009444,-0.004576,-0.002077,1,-0.212946,-0.820482, 9.769946,1,1
1778778578000,  3271.711,  3271.706, 0.017248, 0.086256,-1.004641, 0.000169, 0.000862,-0.010040,-0.044798, 0.023356,-0.037216,1,-0.013458,-0.004001, 0.000106,1,-0.212201,-0.822935, 9.769756,1,1
1778778578023,  3271.731,  3271.731, 0.033905, 0.089247,-0.991977, 0.000343, 0.000898,-0.009941, 0.120154, 0.051901, 0.041753,1, 0.015298, 0.007939,-0.001333,1,-0.212586,-0.822840, 9.769755,1,1
1778778578049,  3271.756,  3271.756, 0.017764, 0.079948,-0.979111, 0.000201, 0.000808,-0.009789,-0.039241,-0.036077, 0.168168,1, 0.010397,-0.000102,-0.000007,1,-0.213443,-0.819778, 9.769995,1,1
1778778578070,  3271.781,  3271.776, 0.027913, 0.087637,-0.995519, 0.000272, 0.000862,-0.009947,-0.029302,-0.038518, 0.082703,1,-0.016567,-0.006824,-0.001706,1,-0.212537,-0.821662, 9.769855,1,1
1778778578093,  3271.801,  3271.801, 0.023039, 0.089990,-1.001033, 0.000238, 0.000901,-0.010022, 0.014597, 0.058330,-0.047109,1, 0.004162, 0.001607, 0.001167,1,-0.211396,-0.824041, 9.769680,1,1
1778778578119,  3271.826,  3271.826, 0.023649, 0.081683,-0.991196, 0.000224, 0.000814,-0.009915, 0.020261,-0.021749, 0.049469,1, 0.008486,-0.000750,-0.000858,1,-0.211633,-0.822524, 9.769803,1,1
1778778578140,  3271.851,  3271.846, 0.017908, 0.080818,-0.985411, 0.000186, 0.000810,-0.009844, 0.045458,-0.010085, 0.090039,1, 0.007510, 0.003248,-0.000161,1,-0.212207,-0.820839, 9.769932,1,1
1778778578163,  3271.871,  3271.871, 0.016136, 0.082626,-0.998299, 0.000147, 0.000820,-0.009967,-0.052910,-0.012418,-0.020170,1,-0.013425,-0.006953,-0.000739,1,-0.210931,-0.823125, 9.769768,1,1
1778778578189,  3271.896,  3271.896, 0.026595, 0.087442,-0.999151, 0.000270, 0.000883,-0.009998, 0.049923, 0.034292,-0.028565,1, 0.007261, 0.004823, 0.000507,1,-0.211034,-0.822995, 9.769776,1,1
1778778578210,  3271.921,  3271.916, 0.017067, 0.077748,-0.987796, 0.000175, 0.000777,-0.009879,-0.050175,-0.044619, 0.069181,1, 0.005593, 0.000924, 0.000679,1,-0.211627,-0.821428, 9.769896,1,1
1778778578233,  3271.946,  3271.941, 0.019315, 0.082723,-0.988516, 0.000208, 0.000830,-0.009887,-0.022172,-0.009731, 0.075903,1,-0.000968,-0.000837, 0.000172,1,-0.211559,-0.820998, 9.769933,1,1
1778778578259,  3271.966,  3271.966, 0.013450, 0.081856,-0.998696, 0.000134, 0.000817,-0.009983,-0.078991,-0.019732,-0.024037,1,-0.010254,-0.004798, 0.000314,1,-0.210746,-0.822784, 9.769800,1,1
1778778578280,  3271.991,  3271.986, 0.028707, 0.086416,-0.991071, 0.000298, 0.000861,-0.009925, 0.073245, 0.028783,-0.022653,1, 0.006800, 0.004160,-0.001487,1,-0.210925,-0.822836, 9.769792,1,1
1778778578303,  3272.016,  3272.011, 0.016354, 0.079658,-0.984832, 0.000155, 0.000795,-0.009844,-0.051762,-0.039577, 0.112039,1,-0.000483,-0.000061, 0.001525,1,-0.212142,-0.820771, 9.769939,1,1
1778778578329,  3272.036,  3272.036, 0.026949, 0.085259,-0.990367, 0.000259, 0.000844,-0.009893, 0.052658, 0.014517, 0.057695,1,-0.004551,-0.003235,-0.001093,1,-0.211523,-0.821728, 9.769873,1,1
1778778578351,  3272.061,  3272.056, 0.018101, 0.083007,-0.996982, 0.000175, 0.000828,-0.009966,-0.020594, 0.007141,-0.007291,1,-0.003265,-0.001068, 0.001275,1,-0.211018,-0.822221, 9.769842,1,1
1778778578373,  3272.086,  3272.081, 0.029351, 0.088103,-0.992596, 0.000293, 0.000884,-0.009932, 0.077262, 0.041599, 0.035791,1, 0.006552, 0.002743,-0.000775,1,-0.210656,-0.822195, 9.769852,1,1
1778778578399,  3272.106,  3272.106, 0.017841, 0.081753,-0.985328, 0.000196, 0.000828,-0.009851,-0.036102,-0.019047, 0.107195,1, 0.004886,-0.001206, 0.001201,1,-0.211028,-0.820617, 9.769977,1,1
1778778578421,  3272.131,  3272.126, 0.025244, 0.087381,-0.994812, 0.000252, 0.000871,-0.009952,-0.024042,-0.019778, 0.027161,1,-0.007450,-0.004867,-0.001495,1,-0.210033,-0.821648, 9.769911,1,1
1778778578444,  3272.156,  3272.151, 0.020507, 0.087904,-0.992511, 0.000213, 0.000882,-0.009934,-0.008501, 0.039808, 0.036660,1, 0.002040,-0.000902, 0.001330,1,-0.209583,-0.822173, 9.769876,1,1
1778778578469,  3272.176,  3272.176, 0.023955, 0.081476,-0.989939, 0.000229, 0.000815,-0.009898, 0.025560,-0.022612, 0.061940,1, 0.005965,-0.002494,-0.000778,1,-0.209279,-0.821430, 9.769946,1,1
1778778578491,  3272.201,  3272.196, 0.015527, 0.079300,-0.994729, 0.000154, 0.000789,-0.009942, 0.009000,-0.026415, 0.026612,1, 0.004961,-0.001086, 0.000016,1,-0.208941,-0.820086, 9.770066,1,1
1778778578514,  3272.226,  3272.221, 0.018311, 0.084677,-0.995138, 0.000167, 0.000841,-0.009946,-0.028771, 0.008135, 0.010923,1,-0.011055,-0.002659,-0.001234,1,-0.208251,-0.822612, 9.769868,1,1
1778778578539,  3272.246,  3272.246, 0.024207, 0.087120,-0.993832, 0.000250, 0.000882,-0.009936, 0.029143, 0.032180, 0.023739,1, 0.010637, 0.002021, 0.000601,1,-0.208334,-0.821951, 9.769922,1,1
1778778578561,  3272.271,  3272.266, 0.021098, 0.080234,-0.988584, 0.000212, 0.000799,-0.009886,-0.016718,-0.049473, 0.073656,1, 0.005971,-0.002625, 0.000316,1,-0.208151,-0.819986, 9.770091,1,1
1778778578588,  3272.296,  3272.296, 0.018849, 0.083493,-0.989929, 0.000205, 0.000841,-0.009902,-0.022700,-0.001192, 0.062213,1,-0.002659,-0.001170, 0.000695,1,-0.207512,-0.820059, 9.770099,1,1
1778778578609,  3272.316,  3272.316, 0.015254, 0.080352,-0.997236, 0.000150, 0.000803,-0.009972,-0.057129,-0.033305,-0.009532,1,-0.008661,-0.005392, 0.000033,1,-0.206556,-0.821561, 9.769993,1,1
1778778578631,  3272.341,  3272.336, 0.023975, 0.085441,-0.992636, 0.000249, 0.000859,-0.009934, 0.040965, 0.026753,-0.019694,1, 0.007497, 0.002483,-0.000676,1,-0.206448,-0.821223, 9.770023,1,1
1778778578658,  3272.366,  3272.366, 0.019616, 0.082151,-0.990175, 0.000191, 0.000822,-0.009902,-0.014542,-0.014317, 0.059817,1,-0.000689,-0.000426, 0.000156,1,-0.206896,-0.819968, 9.770120,1,1
1778778578679,  3272.391,  3272.386, 0.021627, 0.083298,-0.992678, 0.000221, 0.000836,-0.009911, 0.050050,-0.002072, 0.074813,1, 0.001555,-0.001348,-0.000561,1,-0.206823,-0.819859, 9.770130,1,1
1778778578701,  3272.411,  3272.406, 0.018392, 0.081051,-0.997114, 0.000168, 0.000808,-0.009965,-0.035552,-0.022431,-0.002015,1,-0.003831,-0.003271,-0.000166,1,-0.206243,-0.819990, 9.770131,1,1
1778778578728,  3272.436,  3272.436, 0.025117, 0.088900,-0.994364, 0.000257, 0.000895,-0.009944, 0.040482, 0.050786, 0.018669,1, 0.002143, 0.001708,-0.000506,1,-0.205879,-0.820962, 9.770058,1,1
1778778578750,  3272.461,  3272.456, 0.017508, 0.077043,-0.992575, 0.000171, 0.000774,-0.009924,-0.049209,-0.040511, 0.046077,1, 0.010951,-0.000020, 0.000814,1,-0.206120,-0.818926, 9.770223,1,1
1778778578771,  3272.481,  3272.476, 0.024641, 0.087043,-0.992400, 0.000254, 0.000876,-0.009931, 0.019311,-0.011653, 0.012022,1,-0.003161,-0.002590,-0.001660,1,-0.205579,-0.818846, 9.770241,1,1
1778778578798,  3272.506,  3272.506, 0.014236, 0.082525,-0.991630, 0.000150, 0.000830,-0.009913,-0.065800,-0.010359, 0.045603,1,-0.000036,-0.003373, 0.001257,1,-0.205306,-0.819652, 9.770180,1,1
1778778578820,  3272.531,  3272.526, 0.026460, 0.084951,-0.991202, 0.000265, 0.000849,-0.009915, 0.027448, 0.008002, 0.023962,1, 0.004321, 0.000624,-0.001836,1,-0.205122,-0.819240, 9.770218,1,1
1778778578841,  3272.551,  3272.546, 0.014927, 0.081728,-0.993819, 0.000149, 0.000813,-0.009933,-0.003426,-0.003766, 0.057831,1, 0.001013,-0.000260, 0.001390,1,-0.205409,-0.818635, 9.770263,1,1
1778778578868,  3272.576,  3272.576, 0.018138, 0.082047,-0.992053, 0.000163, 0.000819,-0.009925, 0.045178, 0.008599, 0.075688,1,-0.002787, 0.000641,-0.001445,1,-0.205554,-0.819518, 9.770185,1,1
1778778578890,  3272.601,  3272.596, 0.015559, 0.080801,-0.995244, 0.000156, 0.000811,-0.009953, 0.003981, 0.004270, 0.019368,1, 0.004150,-0.001482, 0.000657,1,-0.205235,-0.819159, 9.770222,1,1
1778778578911,  3272.621,  3272.616, 0.022154, 0.083648,-0.992132, 0.000219, 0.000828,-0.009913,-0.025788,-0.045351, 0.040416,1,-0.003736, 0.000696,-0.000364,1,-0.205432,-0.819086, 9.770225,1,1
1778778578938,  3272.646,  3272.646, 0.019645, 0.085129,-0.995825, 0.000209, 0.000862,-0.009962,-0.012494, 0.015212, 0.004482,1, 0.005264, 0.002565, 0.000251,1,-0.205160,-0.819438, 9.770201,1,1
1778778578960,  3272.671,  3272.666, 0.022887, 0.084818,-0.992619, 0.000236, 0.000839,-0.009927, 0.000834,-0.043077, 0.043717,1,-0.002125,-0.001622,-0.000678,1,-0.205218,-0.819114, 9.770226,1,1
1778778578981,  3272.691,  3272.686, 0.020111, 0.083838,-0.989667, 0.000208, 0.000848,-0.009904, 0.028708, 0.030933, 0.032320,1, 0.002671, 0.001025,-0.000212,1,-0.204999,-0.819310, 9.770214,1,1
1778778579008,  3272.716,  3272.716, 0.019472, 0.079679,-0.993101, 0.000187, 0.000795,-0.009926,-0.013784,-0.037749, 0.031236,1,-0.005065,-0.004615,-0.000905,1,-0.204592,-0.819292, 9.770225,1,1
1778778579030,  3272.741,  3272.736, 0.021297, 0.083011,-0.991395, 0.000209, 0.000835,-0.009906, 0.033422, 0.027619, 0.030709,1, 0.001675, 0.001326,-0.000070,1,-0.204538,-0.819431, 9.770214,1,1
1778778579052,  3272.761,  3272.756, 0.019665, 0.081803,-0.993749, 0.000182, 0.000820,-0.009935,-0.024517,-0.012868, 0.025362,1,-0.003014,-0.002768, 0.000434,1,-0.204424,-0.819348, 9.770224,1,1
1778778579078,  3272.786,  3272.786, 0.024683, 0.084996,-0.990480, 0.000251, 0.000850,-0.009903, 0.037525, 0.014198, 0.056931,1, 0.002588, 0.000920,-0.000075,1,-0.204564,-0.819247, 9.770228,1,1
1778778579100,  3272.811,  3272.806, 0.017583, 0.081439,-0.994312, 0.000170, 0.000812,-0.009949,-0.063647,-0.024653, 0.011578,1,-0.003548,-0.001152, 0.001235,1,-0.204336,-0.819511, 9.770211,1,1
1778778579123,  3272.831,  3272.831, 0.021102, 0.087982,-0.993074, 0.000223, 0.000883,-0.009931, 0.002288, 0.042694, 0.031429,1, 0.002707, 0.002725, 0.000901,1,-0.204737,-0.820030, 9.770160,1,1
1778778579149,  3272.856,  3272.856, 0.016503, 0.080792,-0.994517, 0.000162, 0.000811,-0.009949,-0.043349,-0.026867, 0.017347,1, 0.005029, 0.003550, 0.001613,1,-0.205299,-0.819008, 9.770233,1,1
1778778579170,  3272.881,  3272.876, 0.024357, 0.085205,-0.987327, 0.000248, 0.000854,-0.009880, 0.031528, 0.025366, 0.074202,1, 0.002936, 0.002721, 0.000803,1,-0.205946,-0.818430, 9.770268,1,1
1778778579193,  3272.901,  3272.901, 0.020058, 0.078152,-0.992243, 0.000190, 0.000777,-0.009913,-0.009928,-0.050826, 0.039770,1, 0.001184,-0.000533, 0.000405,1,-0.206612,-0.817201, 9.770357,1,1
1778778579219,  3272.926,  3272.926, 0.028121, 0.084944,-0.994756, 0.000274, 0.000844,-0.009949, 0.069314, 0.015323, 0.015096,1,-0.003701,-0.000660,-0.001095,1,-0.206435,-0.817810, 9.770309,1,1
1778778579240,  3272.951,  3272.946, 0.016871, 0.080618,-0.999007, 0.000156, 0.000806,-0.009985,-0.030389,-0.017678,-0.013483,1,-0.000929,-0.000911, 0.001247,1,-0.206358,-0.818001, 9.770295,1,1
1778778579263,  3272.971,  3272.971, 0.025390, 0.084574,-0.992103, 0.000253, 0.000845,-0.009918, 0.042715, 0.010459, 0.041008,1,-0.005333,-0.000226,-0.001273,1,-0.206262,-0.819096, 9.770205,1,1
1778778579289,  3272.996,  3272.996, 0.015220, 0.081911,-0.992130, 0.000163, 0.000823,-0.009924, 0.007670, 0.004089, 0.034993,1,-0.000417,-0.000846,-0.000423,1,-0.206156,-0.819260, 9.770194,1,1
1778778579310,  3273.021,  3273.016, 0.025038, 0.085385,-0.987772, 0.000255, 0.000854,-0.009874, 0.013862,-0.009903, 0.112615,1,-0.005292,-0.003171,-0.001969,1,-0.205930,-0.818929, 9.770226,1,1
1778778579333,  3273.041,  3273.041, 0.016025, 0.082024,-0.990502, 0.000171, 0.000828,-0.009914,-0.047877,-0.015019, 0.056695,1, 0.005271,-0.001112,-0.000237,1,-0.205047,-0.819173, 9.770225,1,1
1778778579359,  3273.066,  3273.066, 0.019738, 0.083982,-0.990454, 0.000196, 0.000827,-0.009908,-0.010926, 0.004144, 0.057174,1,-0.006640,-0.006201,-0.002267,1,-0.204289,-0.819643, 9.770202,1,1
1778778579380,  3273.091,  3273.086, 0.017469, 0.082943,-0.995975, 0.000176, 0.000833,-0.009960,-0.007527, 0.034593, 0.007500,1, 0.001899,-0.000534,-0.000255,1,-0.203778,-0.820150, 9.770169,1,1
1778778579403,  3273.111,  3273.111, 0.026498, 0.084925,-0.992630, 0.000244, 0.000835,-0.009928, 0.055964, 0.013091, 0.035831,1,-0.003525, 0.000358,-0.001335,1,-0.203901,-0.819852, 9.770192,1,1
1778778579429,  3273.136,  3273.136, 0.023163, 0.086450,-0.992607, 0.000229, 0.000863,-0.009925, 0.023357, 0.028181, 0.036060,1, 0.004645, 0.000522, 0.000090,1,-0.203815,-0.819454, 9.770227,1,1
1778778579450,  3273.161,  3273.156, 0.023871, 0.082187,-0.994905, 0.000227, 0.000815,-0.009946,-0.035524,-0.034564, 0.016186,1,-0.001751,-0.001270, 0.000024,1,-0.203634,-0.818906, 9.770277,1,1
1778778579473,  3273.186,  3273.181, 0.024142, 0.084474,-0.995592, 0.000255, 0.000852,-0.009958, 0.033013, 0.008603, 0.006772,1, 0.003781, 0.002532, 0.000814,1,-0.203815,-0.819682, 9.770208,1,1
1778778579499,  3273.206,  3273.206, 0.018418, 0.079375,-0.990558, 0.000182, 0.000800,-0.009913,-0.023620,-0.040303, 0.056227,1, 0.003692, 0.001577, 0.000217,1,-0.204288,-0.818590, 9.770289,1,1
1778778579521,  3273.231,  3273.226, 0.019301, 0.084091,-0.989008, 0.000209, 0.000850,-0.009888, 0.028974, 0.028203, 0.081241,1,-0.002263,-0.000914,-0.000039,1,-0.204108,-0.818902, 9.770267,1,1
1778778579543,  3273.256,  3273.251, 0.017038, 0.079416,-0.998366, 0.000160, 0.000788,-0.009980,-0.036660,-0.040202,-0.020356,1,-0.003456,-0.002405,-0.000354,1,-0.203672,-0.819117, 9.770258,1,1
1778778579569,  3273.276,  3273.276, 0.027521, 0.089099,-0.991956, 0.000273, 0.000888,-0.009929, 0.066007, 0.053875, 0.042425,1,-0.000957, 0.003397,-0.000696,1,-0.203987,-0.819920, 9.770185,1,1
1778778579591,  3273.301,  3273.296, 0.012981, 0.077541,-0.991431, 0.000115, 0.000775,-0.009910,-0.081010,-0.028581, 0.074860,1, 0.010204, 0.000077, 0.001540,1,-0.204339,-0.818365, 9.770308,1,1
1778778579613,  3273.326,  3273.321, 0.025723, 0.083467,-0.993410, 0.000250, 0.000830,-0.009930, 0.048260, 0.000090, 0.028282,1,-0.008674,-0.000800,-0.000756,1,-0.203973,-0.818712, 9.770286,1,1
1778778579639,  3273.346,  3273.346, 0.015522, 0.084609,-0.996198, 0.000165, 0.000851,-0.009955,-0.051574, 0.009919, 0.000828,1,-0.002571,-0.000334, 0.001203,1,-0.203781,-0.819887, 9.770191,1,1
1778778579661,  3273.371,  3273.366, 0.027793, 0.084683,-0.990232, 0.000284, 0.000850,-0.009904, 0.026896, 0.007840, 0.051177,1, 0.001701, 0.001714,-0.001132,1,-0.204083,-0.819695, 9.770202,1,1
1778778579684,  3273.396,  3273.391, 0.013499, 0.080320,-0.992830, 0.000148, 0.000806,-0.009937,-0.071781,-0.030698, 0.033978,1, 0.004657, 0.001045, 0.000554,1,-0.204196,-0.818224, 9.770322,1,1
1778778579709,  3273.416,  3273.416, 0.021933, 0.083775,-0.992875, 0.000215, 0.000824,-0.009933, 0.011094, 0.002056, 0.033446,1,-0.013292,-0.003741,-0.002201,1,-0.203871,-0.819911, 9.770187,1,1
1778778579731,  3273.441,  3273.436, 0.020612, 0.084183,-0.991333, 0.000211, 0.000847,-0.009917, 0.069955, 0.059953, 0.009857,1, 0.005291, 0.002220, 0.000668,1,-0.203909,-0.820625, 9.770127,1,1
1778778579754,  3273.466,  3273.461, 0.021322, 0.079285,-0.992836, 0.000197, 0.000784,-0.009921, 0.005132,-0.040849, 0.033923,1, 0.002126,-0.002288,-0.001792,1,-0.203887,-0.818301, 9.770322,1,1
1778778579779,  3273.486,  3273.486, 0.026192, 0.084969,-0.990486, 0.000263, 0.000852,-0.009907, 0.052848, 0.014786, 0.056953,1,-0.000727, 0.001970,-0.000296,1,-0.204071,-0.818498, 9.770302,1,1
1778778579801,  3273.511,  3273.506, 0.018754, 0.083690,-0.994164, 0.000183, 0.000831,-0.009936,-0.038472,-0.011784, 0.042092,1,-0.008062,-0.003016, 0.000358,1,-0.203755,-0.819771, 9.770202,1,1
1778778579828,  3273.536,  3273.536, 0.020853, 0.084326,-0.994368, 0.000220, 0.000854,-0.009943, 0.000935, 0.007439, 0.018803,1, 0.006781, 0.000199, 0.000314,1,-0.203567,-0.819305, 9.770245,1,1
1778778579849,  3273.556,  3273.556, 0.013605, 0.080531,-0.997027, 0.000136, 0.000812,-0.009973,-0.069923,-0.029506,-0.007240,1,-0.002857, 0.000284, 0.000359,1,-0.203353,-0.819337, 9.770247,1,1
1778778579871,  3273.581,  3273.576, 0.026058, 0.085064,-0.986068, 0.000278, 0.000852,-0.009865, 0.064569, 0.023769, 0.074470,1, 0.005034, 0.003738,-0.000391,1,-0.203964,-0.819198, 9.770246,1,1
1778778579898,  3273.606,  3273.606, 0.013324, 0.078579,-0.991613, 0.000129, 0.000786,-0.009914,-0.073554,-0.047244, 0.045950,1,-0.000419,-0.002165, 0.000434,1,-0.204156,-0.817853, 9.770354,1,1
1778778579920,  3273.631,  3273.626, 0.023382, 0.088132,-0.994766, 0.000237, 0.000880,-0.009948, 0.020888, 0.028963, 0.011003,1,-0.005888,-0.000426,-0.001042,1,-0.203817,-0.818981, 9.770267,1,1
1778778579941,  3273.651,  3273.646, 0.017603, 0.081201,-0.994972, 0.000164, 0.000816,-0.009946,-0.020304, 0.017762, 0.012619,1, 0.000214, 0.001444, 0.000900,1,-0.204012,-0.819288, 9.770237,1,1
1778778579968,  3273.676,  3273.676, 0.026432, 0.084888,-0.991933, 0.000262, 0.000852,-0.009920, 0.054730, 0.014022, 0.042761,1, 0.003555, 0.004259,-0.000625,1,-0.204612,-0.818339, 9.770304,1,1
1778778579990,  3273.701,  3273.696, 0.012133, 0.078014,-0.991527, 0.000118, 0.000782,-0.009905,-0.057836,-0.034099, 0.095525,1, 0.001670, 0.000317, 0.000896,1,-0.205096,-0.817518, 9.770363,1,1
1778778580011,  3273.721,  3273.716, 0.026431, 0.085552,-0.995463, 0.000261, 0.000856,-0.009959,-0.010436,-0.030015, 0.009370,1,-0.007560,-0.002226,-0.001074,1,-0.204522,-0.818513, 9.770291,1,1
1778778580038,  3273.746,  3273.746, 0.019786, 0.085329,-0.992993, 0.000216, 0.000862,-0.009933,-0.010609, 0.017379, 0.032278,1, 0.001841, 0.000033, 0.002050,1,-0.204650,-0.819354, 9.770218,1,1
1778778580060,  3273.771,  3273.766, 0.025482, 0.083263,-0.991115, 0.000251, 0.000827,-0.009916,-0.002709,-0.016035, 0.043378,1, 0.005250,-0.000129,-0.000745,1,-0.204677,-0.818544, 9.770286,1,1
1778778580081,  3273.791,  3273.786, 0.019005, 0.083591,-0.991843, 0.000193, 0.000833,-0.009918, 0.037377, 0.003308, 0.043551,1, 0.002544, 0.000989, 0.000084,1,-0.204894,-0.817950, 9.770330,1,1
1778778580108,  3273.816,  3273.816, 0.022958, 0.083112,-0.992388, 0.000216, 0.000822,-0.009915, 0.020320,-0.003972, 0.038238,1,-0.006935,-0.002704,-0.000697,1,-0.204734,-0.819238, 9.770226,1,1
1778778580130,  3273.841,  3273.836, 0.017803, 0.081719,-0.991232, 0.000180, 0.000828,-0.009912, 0.059426, 0.034534, 0.009311,1,-0.001598,-0.001988,-0.001068,1,-0.204441,-0.819489, 9.770211,1,1
1778778580151,  3273.861,  3273.856, 0.018322, 0.080321,-0.995493, 0.000176, 0.000797,-0.009953,-0.064585,-0.056882, 0.042881,1,-0.000355,-0.002152,-0.000531,1,-0.204679,-0.817983, 9.770332,1,1
1778778580178,  3273.886,  3273.886, 0.023091, 0.086863,-0.989569, 0.000244, 0.000877,-0.009903, 0.021831, 0.032699, 0.065881,1, 0.000864, 0.004119, 0.000243,1,-0.204747,-0.819110, 9.770236,1,1
1778778580200,  3273.911,  3273.906, 0.018264, 0.080479,-0.996856, 0.000178, 0.000805,-0.009973,-0.078239,-0.035400, 0.031290,1,-0.001194,-0.004198, 0.000233,1,-0.204335,-0.819120, 9.770245,1,1
1778778580222,  3273.931,  3273.926, 0.027078, 0.084372,-0.989068, 0.000283, 0.000847,-0.009898, 0.038681, 0.004931, 0.032608,1, 0.004885, 0.003305,-0.000882,1,-0.204539,-0.818717, 9.770274,1,1
1778778580249,  3273.956,  3273.956, 0.012285, 0.083280,-0.992516, 0.000124, 0.000830,-0.009928,-0.083975,-0.002300, 0.036991,1,-0.003559,-0.002890, 0.000180,1,-0.204362,-0.819110, 9.770245,1,1
1778778580270,  3273.981,  3273.976, 0.026061, 0.083806,-0.995766, 0.000266, 0.000835,-0.009955, 0.041024,-0.006881, 0.022301,1, 0.003638,-0.000107,-0.001261,1,-0.204277,-0.818755, 9.770276,1,1
1778778580292,  3274.001,  3273.996, 0.017295, 0.081814,-0.993814, 0.000169, 0.000820,-0.009938, 0.000209,-0.000292, 0.004873,1,-0.002747, 0.001831, 0.000835,1,-0.204590,-0.818645, 9.770279,1,1
1778778580319,  3274.026,  3274.026, 0.027245, 0.086528,-0.988510, 0.000264, 0.000863,-0.009880, 0.062201, 0.029380, 0.076259,1, 0.003477, 0.001103,-0.000963,1,-0.205010,-0.819061, 9.770235,1,1
1778778580340,  3274.046,  3274.046, 0.018277, 0.081561,-0.988855, 0.000189, 0.000827,-0.009886,-0.025940,-0.018085, 0.072975,1, 0.004377,-0.000258, 0.001574,1,-0.205136,-0.817807, 9.770337,1,1
1778778580363,  3274.071,  3274.071, 0.024420, 0.087395,-1.000463, 0.000244, 0.000868,-0.010011, 0.035436, 0.037768,-0.040959,1,-0.004113, 0.000877,-0.001116,1,-0.204064,-0.819415, 9.770226,1,1
1778778580389,  3274.096,  3274.096, 0.018375, 0.084695,-0.988511, 0.000201, 0.000860,-0.009887,-0.024600, 0.011465, 0.076255,1, 0.003160, 0.001828, 0.001274,1,-0.204858,-0.819007, 9.770243,1,1
1778778580410,  3274.121,  3274.116, 0.025061, 0.082767,-0.990101, 0.000244, 0.000823,-0.009915,-0.021812,-0.036851, 0.018041,1, 0.004554, 0.000073,-0.001216,1,-0.204589,-0.818248, 9.770312,1,1
1778778580433,  3274.141,  3274.141, 0.018504, 0.083395,-0.989101, 0.000193, 0.000831,-0.009880,-0.023577,-0.000302, 0.070546,1,-0.005390,-0.002987, 0.001415,1,-0.204952,-0.818294, 9.770301,1,1
1778778580459,  3274.166,  3274.166, 0.022315, 0.083246,-0.997133, 0.000199, 0.000830,-0.009972, 0.014350,-0.002942,-0.008312,1,-0.003560, 0.000070,-0.000686,1,-0.204485,-0.819417, 9.770216,1,1
1778778580480,  3274.191,  3274.186, 0.017692, 0.084527,-0.992072, 0.000187, 0.000850,-0.009915, 0.081032, 0.023078, 0.039533,1, 0.003404, 0.001099, 0.000558,1,-0.204877,-0.818982, 9.770245,1,1
1778778580503,  3274.211,  3274.211, 0.013924, 0.079833,-0.992052, 0.000125, 0.000797,-0.009917,-0.068130,-0.035989, 0.041553,1,-0.002155,-0.001119,-0.000275,1,-0.204645,-0.818947, 9.770252,1,1
1778778580529,  3274.236,  3274.236, 0.027113, 0.086871,-0.996681, 0.000278, 0.000873,-0.009969, 0.061311, 0.032621,-0.003880,1,-0.001480, 0.002654, 0.000103,1,-0.204664,-0.819341, 9.770219,1,1
1778778580550,  3274.261,  3274.256, 0.019718, 0.080701,-0.992731, 0.000203, 0.000805,-0.009926,-0.027221,-0.016116, 0.060958,1,-0.000939, 0.000580, 0.001245,1,-0.205105,-0.819560, 9.770191,1,1
1778778580573,  3274.281,  3274.281, 0.022775, 0.086536,-0.986907, 0.000228, 0.000867,-0.009889, 0.018162, 0.030088, 0.092026,1, 0.006747, 0.004058,-0.000264,1,-0.205305,-0.818336, 9.770289,1,1
1778778580599,  3274.306,  3274.306, 0.012674, 0.079442,-0.994439, 0.000123, 0.000795,-0.009938,-0.080361,-0.039290, 0.018184,1,-0.006929,-0.006642,-0.000095,1,-0.204441,-0.818569, 9.770288,1,1
1778778580621,  3274.331,  3274.326, 0.031977, 0.087036,-0.989142, 0.000317, 0.000867,-0.009905, 0.066745, 0.029244,-0.016791,1, 0.001786, 0.003181,-0.001526,1,-0.204203,-0.819168, 9.770243,1,1
1778778580643,  3274.351,  3274.351, 0.015308, 0.081316,-0.988314, 0.000150, 0.000818,-0.009874,-0.054654,-0.020541, 0.078279,1, 0.003643,-0.002702, 0.000623,1,-0.204691,-0.817869, 9.770342,1,1
1778778580669,  3274.376,  3274.376, 0.023418, 0.081642,-0.991092, 0.000227, 0.000809,-0.009904, 0.025379,-0.016420, 0.051126,1, 0.003852,-0.001840,-0.001064,1,-0.204214,-0.816931, 9.770430,1,1
1778778580691,  3274.401,  3274.396, 0.013099, 0.081824,-0.999582, 0.000137, 0.000823,-0.009986,-0.026758,-0.009396, 0.007786,1,-0.008811,-0.004083, 0.000543,1,-0.203614,-0.817898, 9.770362,1,1
1778778580713,  3274.426,  3274.421, 0.026391, 0.087144,-0.995685, 0.000264, 0.000871,-0.009967, 0.055592, 0.035844, 0.005969,1, 0.007766, 0.004688,-0.000640,1,-0.203357,-0.818507, 9.770316,1,1
1778778580739,  3274.446,  3274.446, 0.020144, 0.081679,-0.984462, 0.000223, 0.000829,-0.009849,-0.006428,-0.015858, 0.116164,1, 0.007547,-0.000761, 0.001298,1,-0.204008,-0.816617, 9.770461,1,1
1778778580761,  3274.471,  3274.466, 0.021818, 0.084591,-0.993167, 0.000215, 0.000836,-0.009933,-0.056364,-0.056125, 0.044655,1,-0.000026,-0.004112,-0.001335,1,-0.203219,-0.816385, 9.770496,1,1
1778778580784,  3274.496,  3274.491, 0.019434, 0.086822,-0.995960, 0.000206, 0.000867,-0.009956,-0.012144, 0.033212, 0.003323,1,-0.008757,-0.002878, 0.001379,1,-0.202638,-0.818496, 9.770332,1,1
1778778580809,  3274.516,  3274.516, 0.019493, 0.082309,-0.998611, 0.000183, 0.000822,-0.009989,-0.011234,-0.011586,-0.022717,1, 0.004464, 0.000762,-0.000632,1,-0.202416,-0.818625, 9.770326,1,1
1778778580831,  3274.541,  3274.536, 0.017907, 0.083027,-0.988851, 0.000188, 0.000832,-0.009882, 0.042050,-0.009111, 0.054348,1, 0.007374, 0.003122,-0.000297,1,-0.202990,-0.816844, 9.770463,1,1
1778778580854,  3274.566,  3274.561, 0.020062, 0.081443,-0.990183, 0.000188, 0.000818,-0.009896,-0.006109,-0.019257, 0.059998,1,-0.005909,-0.002203,-0.000667,1,-0.202785,-0.818124, 9.770360,1,1
1778778580879,  3274.586,  3274.586, 0.026222, 0.085975,-0.993659, 0.000274, 0.000867,-0.009932, 0.054318, 0.024997, 0.025889,1, 0.003279, 0.001576, 0.000478,1,-0.202886,-0.818026, 9.770366,1,1
1778778580901,  3274.611,  3274.606, 0.017813, 0.080758,-0.995906, 0.000175, 0.000803,-0.009957,-0.067144,-0.034801, 0.027498,1,-0.002429,-0.000168, 0.001299,1,-0.203021,-0.817882, 9.770375,1,1
1778778580924,  3274.636,  3274.631, 0.024476, 0.086655,-0.990477, 0.000257, 0.000876,-0.009915, 0.036756, 0.031420, 0.057065,1, 0.000116, 0.003805, 0.000799,1,-0.203388,-0.818370, 9.770327,1,1
1778778580949,  3274.656,  3274.656, 0.014542, 0.081145,-0.992577, 0.000144, 0.000814,-0.009919,-0.060607,-0.022986, 0.036444,1,-0.003857,-0.003519, 0.000404,1,-0.203103,-0.818873, 9.770290,1,1
1778778580971,  3274.681,  3274.676, 0.029064, 0.086682,-0.989677, 0.000294, 0.000871,-0.009904, 0.064228, 0.031091,-0.001053,1, 0.002791, 0.003040,-0.001755,1,-0.203129,-0.818759, 9.770300,1,1
1778778580994,  3274.706,  3274.701, 0.012575, 0.080440,-0.992589, 0.000122, 0.000807,-0.009918,-0.080078,-0.029798, 0.036333,1,-0.002085,-0.003395, 0.000501,1,-0.203295,-0.818707, 9.770301,1,1
1778778581020,  3274.726,  3274.726, 0.025473, 0.083301,-0.995114, 0.000242, 0.000825,-0.009955, 0.046437,-0.001570, 0.011586,1, 0.001996, 0.003120,-0.001122,1,-0.203466,-0.818412, 9.770322,1,1
1778778581041,  3274.751,  3274.746, 0.013893, 0.081752,-0.994617, 0.000138, 0.000824,-0.009938,-0.009076, 0.007148, 0.043218,1,-0.003495,-0.000509, 0.001177,1,-0.203710,-0.818762, 9.770288,1,1
1778778581068,  3274.776,  3274.776, 0.027901, 0.083666,-0.990655, 0.000275, 0.000835,-0.009911, 0.069913, 0.001572, 0.055266,1, 0.004757, 0.002548,-0.000613,1,-0.203782,-0.818769, 9.770286,1,1
1778778581090,  3274.796,  3274.796, 0.017677, 0.082605,-0.989741, 0.000200, 0.000832,-0.009897,-0.030576,-0.008133, 0.064282,1, 0.001020,-0.001367, 0.001196,1,-0.203886,-0.818178, 9.770332,1,1
1778778581111,  3274.821,  3274.816, 0.022347, 0.084446,-0.995082, 0.000217, 0.000836,-0.009954,-0.071657,-0.040006, 0.034655,1,-0.003573,-0.001979,-0.000759,1,-0.203395,-0.818871, 9.770285,1,1
1778778581138,  3274.846,  3274.846, 0.021738, 0.085070,-0.993352, 0.000227, 0.000855,-0.009938, 0.009439, 0.015183, 0.028803,1, 0.000144, 0.002700, 0.000644,1,-0.203822,-0.819034, 9.770263,1,1
1778778581160,  3274.871,  3274.866, 0.023543, 0.085373,-0.990482, 0.000226, 0.000843,-0.009902,-0.001641,-0.031178, 0.049364,1, 0.001700, 0.000546,-0.000879,1,-0.204068,-0.818859, 9.770271,1,1
1778778581181,  3274.891,  3274.886, 0.017753, 0.082976,-0.988746, 0.000178, 0.000834,-0.009872, 0.022144, 0.028146, 0.085489,1, 0.003442, 0.002234, 0.000284,1,-0.204371,-0.818071, 9.770331,1,1
1778778581208,  3274.916,  3274.916, 0.020690, 0.081545,-1.002098, 0.000190, 0.000811,-0.010011,-0.000601,-0.020014,-0.057012,1,-0.007019,-0.002851,-0.001119,1,-0.203409,-0.819917, 9.770197,1,1
1778778581230,  3274.941,  3274.936, 0.020094, 0.085744,-0.986906, 0.000214, 0.000866,-0.009862, 0.073837, 0.048183, 0.057821,1, 0.005720, 0.006011, 0.000373,1,-0.204337,-0.819331, 9.770226,1,1
1778778581251,  3274.961,  3274.956, 0.018170, 0.078325,-0.993099, 0.000173, 0.000791,-0.009937,-0.064980,-0.029746, 0.055143,1, 0.003121,-0.002480, 0.001259,1,-0.204256,-0.818535, 9.770295,1,1
1778778581278,  3274.986,  3274.986, 0.024120, 0.084112,-0.990457, 0.000255, 0.000844,-0.009902, 0.032107, 0.006677, 0.057260,1,-0.004169, 0.000170, 0.000630,1,-0.204440,-0.818307, 9.770310,1,1
1778778581300,  3275.011,  3275.006, 0.022069, 0.083549,-0.997713, 0.000212, 0.000832,-0.009987,-0.058441,-0.001756,-0.008246,1,-0.007257,-0.001601, 0.000438,1,-0.203918,-0.819904, 9.770187,1,1
