Time,GPS_ts,fGPS_ts,scaledAccelX,scaledAccelY,scaledAccelZ,deltaVelX,deltaVelY,deltaVelZ,estLinearAccelX,estLinearAccelY,estLinearAccelZ,estLinearAccel:valid,estAngularRateX,estAngularRateY,estAngularRateZ,estAngularRate:valid,estGravityX,estGravityY,estGravityZ,estGravity:valid,flag
1778252077462,  2328.598,  2328.598, 0.013274,-0.012649,-0.995166, 0.000133,-0.000127,-0.009951, 0.000848, 0.005110, 0.045699,1,-0.000401,-0.000338, 0.000340,1,-0.129318, 0.129140, 9.804947,1,0
1778252077462,  2328.623,  2328.618, 0.013210,-0.013100,-0.995704, 0.000135,-0.000133,-0.009957, 0.005076, 0.001522, 0.034820,1,-0.000050,-0.000262,-0.000241,1,-0.129283, 0.129162, 9.804947,1,0
1778252077462,  2328.648,  2328.648, 0.013115,-0.013108,-0.995435, 0.000127,-0.000128,-0.009953,-0.000742, 0.000525, 0.043068,1,-0.000000, 0.000585,-0.000299,1,-0.129441, 0.129031, 9.804947,1,0
1778252077462,  2328.673,  2328.668, 0.013202,-0.013198,-0.995372, 0.000132,-0.000130,-0.009953, 0.004803,-0.000436, 0.041427,1,-0.000514, 0.000143,-0.000488,1,-0.129510, 0.129002, 9.804946,1,0
1778252077462,  2328.698,  2328.693, 0.013306,-0.013346,-0.996322, 0.000131,-0.000131,-0.009964, 0.000817,-0.001797, 0.034364,1,-0.000147, 0.000681,-0.000262,1,-0.129688, 0.129081, 9.804943,1,0
1778252077462,  2328.723,  2328.718, 0.012684,-0.013932,-0.995016, 0.000129,-0.000137,-0.009952,-0.003613,-0.000736, 0.043080,1, 0.000740, 0.000321, 0.000123,1,-0.129713, 0.129047, 9.804943,1,0
1778252077462,  2328.743,  2328.743, 0.013339,-0.013168,-0.995677, 0.000135,-0.000130,-0.009956, 0.001058,-0.000058, 0.040688,1, 0.000765, 0.000254, 0.000028,1,-0.129761, 0.129100, 9.804941,1,0
1778252077462,  2328.768,  2328.768, 0.013226,-0.012786,-0.996075, 0.000133,-0.000126,-0.009962,-0.000056, 0.003705, 0.036779,1,-0.000123,-0.000010, 0.000702,1,-0.129758, 0.129090, 9.804942,1,0
1778252077462,  2328.793,  2328.788, 0.013124,-0.012941,-0.995777, 0.000129,-0.000130,-0.009955,-0.001126, 0.006055, 0.039114,1, 0.000027, 0.000195,-0.000367,1,-0.129777, 0.129112, 9.804941,1,0
1778252077462,  2328.818,  2328.818, 0.013747,-0.013031,-0.995472, 0.000138,-0.000131,-0.009957, 0.004967, 0.001341, 0.042698,1, 0.000728, 0.000610, 0.000172,1,-0.129867, 0.129158, 9.804939,1,0
1778252077463,  2328.833,  2328.828, 0.013334,-0.013379,-0.995690, 0.000132,-0.000132,-0.009956,-0.001731, 0.001116, 0.039951,1,-0.000139,-0.000180, 0.000275,1,-0.129867, 0.129138, 9.804939,1,0
1778252077474,  2342.158,  2342.158, 0.011214,-0.014207,-0.995413, 0.000116,-0.000143,-0.009953,-0.020681,-0.012006, 0.043282,1,-0.000814, 0.000274, 0.000419,1,-0.130662, 0.127294, 9.804954,1,0
1778252077495,  2342.183,  2342.178, 0.014005,-0.011701,-0.995020, 0.000142,-0.000120,-0.009949,-0.003610,-0.008781, 0.030874,1, 0.000078,-0.000063, 0.000856,1,-0.130704, 0.127284, 9.804953,1,0
1778252077517,  2342.203,  2342.198, 0.014092,-0.010263,-0.996162, 0.000140,-0.000104,-0.009964, 0.009037, 0.020291, 0.043809,1, 0.000208, 0.000266, 0.000751,1,-0.130774, 0.127271, 9.804952,1,0
1778252077544,  2342.228,  2342.228, 0.014259,-0.009770,-0.995184, 0.000142,-0.000097,-0.009951, 0.009181, 0.031306, 0.045537,1,-0.000717,-0.000207,-0.000355,1,-0.130649, 0.127098, 9.804955,1,0
1778252077565,  2342.253,  2342.248, 0.015168,-0.011797,-0.996200, 0.000151,-0.000114,-0.009963, 0.018450, 0.024143, 0.027192,1, 0.000688,-0.000858,-0.000970,1,-0.130628, 0.127027, 9.804957,1,0
1778252077588,  2342.273,  2342.273, 0.013192,-0.013130,-0.994241, 0.000132,-0.000129,-0.009946,-0.001235,-0.001727, 0.054781,1, 0.001079, 0.000148,-0.001027,1,-0.130608, 0.127070, 9.804956,1,0
1778252077614,  2342.298,  2342.298, 0.011642,-0.015724,-0.996722, 0.000117,-0.000155,-0.009967,-0.016522,-0.027037, 0.030455,1, 0.000405,-0.000237,-0.000354,1,-0.130682, 0.127180, 9.804955,1,0
1778252077636,  2342.323,  2342.318, 0.011436,-0.016906,-0.995598, 0.000114,-0.000169,-0.009952,-0.020017,-0.036923, 0.043042,1,-0.000064, 0.000093,-0.000745,1,-0.130763, 0.127096, 9.804955,1,0
1778252077658,  2342.343,  2342.343, 0.012588,-0.015489,-0.995679, 0.000126,-0.000157,-0.009960,-0.007422,-0.024921, 0.040675,1,-0.000897, 0.000439, 0.001407,1,-0.130885, 0.126949, 9.804955,1,0
1778252077684,  2342.368,  2342.368, 0.013832,-0.012872,-0.995124, 0.000139,-0.000128,-0.009953, 0.004752, 0.000569, 0.046119,1, 0.000139, 0.000805, 0.001636,1,-0.130919, 0.126808, 9.804956,1,0
1778252077706,  2342.393,  2342.388, 0.014616,-0.008806,-0.995313, 0.000144,-0.000090,-0.009957, 0.002864, 0.025242, 0.035886,1,-0.000328, 0.000128, 0.000788,1,-0.131003, 0.126695, 9.804956,1,0
1778252077728,  2342.413,  2342.413, 0.014605,-0.009131,-0.996170, 0.000148,-0.000091,-0.009960, 0.012226, 0.037156, 0.035868,1,-0.000047, 0.000410,-0.000718,1,-0.131013, 0.126697, 9.804956,1,0
1778252077754,  2342.438,  2342.438, 0.014067,-0.010975,-0.995322, 0.000141,-0.000110,-0.009957, 0.006970, 0.019101, 0.044177,1,-0.000399,-0.000648,-0.001638,1,-0.130956, 0.126712, 9.804956,1,0
1778252077776,  2342.463,  2342.458, 0.012067,-0.016719,-0.996934, 0.000124,-0.000164,-0.009967,-0.002069,-0.019545, 0.044097,1, 0.000556, 0.000457,-0.000783,1,-0.131031, 0.126746, 9.804955,1,0
1778252077799,  2342.483,  2342.483, 0.010878,-0.017398,-0.995126, 0.000109,-0.000174,-0.009951,-0.024445,-0.043848, 0.046097,1, 0.000009, 0.000047,-0.000046,1,-0.131126, 0.126767, 9.804954,1,0
1778252077824,  2342.508,  2342.508, 0.011747,-0.017227,-0.996074, 0.000116,-0.000172,-0.009961,-0.015889,-0.042187, 0.036809,1,-0.000323, 0.000403, 0.000331,1,-0.131097, 0.126747, 9.804955,1,0
1778252077846,  2342.533,  2342.528, 0.012871,-0.012611,-0.995751, 0.000128,-0.000129,-0.009958,-0.009281,-0.014065, 0.043307,1,-0.000408,-0.000585, 0.001810,1,-0.131020, 0.126686, 9.804956,1,0
1778252077869,  2342.553,  2342.553, 0.013670,-0.010270,-0.996030, 0.000136,-0.000106,-0.009961, 0.002963, 0.025791, 0.037237,1,-0.000824,-0.000371, 0.001290,1,-0.131081, 0.126484, 9.804958,1,0
1778252077894,  2342.578,  2342.578, 0.015088,-0.008090,-0.995425, 0.000150,-0.000083,-0.009956, 0.016911, 0.047021, 0.043172,1,-0.000588,-0.000137, 0.000043,1,-0.131044, 0.126343, 9.804960,1,0
1778252077916,  2342.603,  2342.598, 0.014343,-0.010593,-0.995845, 0.000143,-0.000105,-0.009963, 0.018553, 0.031969, 0.039988,1, 0.000221, 0.000272,-0.000712,1,-0.131179, 0.126400, 9.804958,1,0
1778252077939,  2342.628,  2342.623, 0.014752,-0.013140,-0.995878, 0.000149,-0.000126,-0.009959, 0.013502,-0.002314, 0.038732,1, 0.001055, 0.000193,-0.001263,1,-0.131168, 0.126582, 9.804955,1,0
1778252077964,  2342.648,  2342.648, 0.012161,-0.015461,-0.996242, 0.000121,-0.000152,-0.009965,-0.011887,-0.024863, 0.035152,1, 0.001088,-0.000005,-0.000766,1,-0.131138, 0.126829, 9.804953,1,0
1778252077986,  2342.673,  2342.668, 0.011330,-0.016440,-0.995770, 0.000112,-0.000166,-0.009954,-0.023343,-0.037319, 0.042405,1,-0.000299,-0.000504,-0.000315,1,-0.131061, 0.126807, 9.804955,1,0
1778252078009,  2342.698,  2342.693, 0.012301,-0.016023,-0.996640, 0.000122,-0.000161,-0.009967,-0.010517,-0.030301, 0.031251,1,-0.000946,-0.000531, 0.001134,1,-0.131129, 0.126800, 9.804954,1,0
1778252078034,  2342.718,  2342.718, 0.013476,-0.013891,-0.994580, 0.000134,-0.000138,-0.009945, 0.000980,-0.009590, 0.051460,1,-0.000445, 0.000734, 0.000587,1,-0.131202, 0.126621, 9.804955,1,0
1778252078056,  2342.743,  2342.738, 0.013853,-0.009064,-0.995308, 0.000141,-0.000092,-0.009951, 0.011844, 0.020918, 0.031548,1,-0.000539, 0.000392, 0.000968,1,-0.131193, 0.126541, 9.804955,1,0
1778252078079,  2342.768,  2342.763, 0.014813,-0.009494,-0.996237, 0.000148,-0.000096,-0.009961, 0.014004, 0.033395, 0.035203,1, 0.000548, 0.000357, 0.000140,1,-0.131269, 0.126522, 9.804955,1,0
1778252078105,  2342.788,  2342.788, 0.014057,-0.010682,-0.995999, 0.000140,-0.000104,-0.009960, 0.006607, 0.021830, 0.037545,1, 0.000504,-0.000436,-0.000367,1,-0.131230, 0.126597, 9.804955,1,0
1778252078126,  2342.813,  2342.808, 0.013059,-0.014648,-0.995547, 0.000134,-0.000145,-0.009958, 0.003496,-0.005755, 0.030006,1, 0.000748,-0.000075,-0.001408,1,-0.131185, 0.126655, 9.804955,1,0
1778252078149,  2342.838,  2342.833, 0.011340,-0.016406,-0.996090, 0.000116,-0.000165,-0.009957,-0.019862,-0.034291, 0.036646,1, 0.000189, 0.000006,-0.000726,1,-0.131067, 0.126606, 9.804956,1,0
1778252078175,  2342.858,  2342.858, 0.011805,-0.015573,-0.995592, 0.000120,-0.000161,-0.009957,-0.015229,-0.025861, 0.041531,1,-0.000062,-0.000002, 0.000233,1,-0.130993, 0.126859, 9.804955,1,0
1778252078196,  2342.883,  2342.878, 0.013535,-0.013116,-0.995785, 0.000134,-0.000134,-0.009962,-0.008165,-0.018997, 0.034856,1,-0.000442, 0.000496, 0.000769,1,-0.131026, 0.126828, 9.804955,1,0
1778252078219,  2342.908,  2342.903, 0.013377,-0.011545,-0.996317, 0.000137,-0.000113,-0.009962, 0.000039, 0.013522, 0.034417,1, 0.000853, 0.000092, 0.000860,1,-0.131144, 0.126771, 9.804954,1,0
1778252078245,  2342.928,  2342.928, 0.014002,-0.010131,-0.995010, 0.000139,-0.000103,-0.009952, 0.006162, 0.027330, 0.047236,1,-0.000798,-0.000063, 0.000585,1,-0.131148, 0.126659, 9.804955,1,0
1778252078266,  2342.953,  2342.948, 0.013754,-0.013018,-0.996862, 0.000139,-0.000133,-0.009968, 0.009361, 0.006869, 0.033421,1, 0.000049, 0.000280,-0.000172,1,-0.131206, 0.126697, 9.804954,1,0
1778252078293,  2342.978,  2342.978, 0.013206,-0.014628,-0.995929, 0.000129,-0.000145,-0.009954,-0.001708,-0.016776, 0.038229,1, 0.000153,-0.000063, 0.000043,1,-0.131216, 0.126678, 9.804954,1,0
1778252078315,  2342.998,  2342.998, 0.013049,-0.013745,-0.995636, 0.000128,-0.000137,-0.009960,-0.003244,-0.008164, 0.041102,1,-0.000216,-0.000170,-0.000203,1,-0.131201, 0.126626, 9.804955,1,0
1778252078336,  2343.023,  2343.018, 0.013589,-0.012660,-0.995435, 0.000135,-0.000128,-0.009953,-0.002122,-0.007673, 0.048444,1,-0.000020,-0.000672,-0.000657,1,-0.131099, 0.126594, 9.804956,1,0
1778252078363,  2343.048,  2343.048, 0.015032,-0.009693,-0.995645, 0.000146,-0.000103,-0.009956, 0.016356, 0.031685, 0.041011,1,-0.000419,-0.000874,-0.000296,1,-0.131016, 0.126774, 9.804955,1,0
1778252078385,  2343.073,  2343.068, 0.012546,-0.012821,-0.999439, 0.000143,-0.000138,-0.010028, 0.023652, 0.013239, 0.030893,1,-0.001856,-0.000610,-0.001709,1,-0.130930, 0.126921, 9.804955,1,0
1778252078407,  2343.093,  2343.088, 0.008671,-0.015049,-0.992300, 0.000087,-0.000126,-0.009916,-0.045780,-0.006364, 0.076726,1,-0.000924,-0.000346,-0.000837,1,-0.130890, 0.126913, 9.804955,1,0
1778252078433,  2343.118,  2343.118, 0.013132,-0.020398,-0.996873, 0.000131,-0.000224,-0.009981,-0.002166,-0.073040, 0.028970,1,-0.001594,-0.001525, 0.000792,1,-0.130901, 0.126946, 9.804955,1,0
1778252078455,  2343.143,  2343.138, 0.013240,-0.014546,-1.002531, 0.000132,-0.000136,-0.010023, 0.017032,-0.040546, 0.071056,1, 0.000146, 0.002129, 0.000608,1,-0.131110, 0.127130, 9.804950,1,0
1778252078477,  2343.163,  2343.158, 0.010344,-0.009639,-0.992436, 0.000099,-0.000110,-0.009925,-0.026887,-0.031787, 0.043422,1,-0.003060,-0.000654, 0.001327,1,-0.130927, 0.126907, 9.804955,1,0
1778252078504,  2343.188,  2343.188, 0.013900,-0.011789,-1.000117, 0.000138,-0.000118,-0.009987, 0.005181, 0.011152,-0.002842,1,-0.000995, 0.001793, 0.001148,1,-0.131183, 0.126735, 9.804954,1,0
1778252078525,  2343.213,  2343.208, 0.015635,-0.007960,-0.992880, 0.000154,-0.000074,-0.009919, 0.020704, 0.049284, 0.089048,1,-0.001083,-0.000683, 0.000701,1,-0.131159, 0.126515, 9.804956,1,0
1778252078547,  2343.233,  2343.228, 0.014883,-0.010610,-1.000233, 0.000150,-0.000111,-0.010006, 0.022939, 0.013601, 0.023124,1, 0.000607, 0.000879,-0.000436,1,-0.131309, 0.126654, 9.804953,1,0
1778252078574,  2343.258,  2343.258, 0.012578,-0.011769,-0.993146, 0.000122,-0.000111,-0.009921,-0.007816, 0.011148, 0.065521,1, 0.000375,-0.000025,-0.001134,1,-0.131169, 0.126571, 9.804955,1,0
1778252078595,  2343.283,  2343.278, 0.011854,-0.015851,-0.995096, 0.000119,-0.000159,-0.009958,-0.020254,-0.045047, 0.029342,1, 0.001236, 0.000605,-0.000384,1,-0.131307, 0.126901, 9.804950,1,0
1778252078617,  2343.303,  2343.298, 0.013043,-0.016935,-0.996895, 0.000128,-0.000168,-0.009967,-0.014394,-0.037068, 0.061609,1, 0.000655, 0.000069,-0.000230,1,-0.131239, 0.126928, 9.804951,1,0
1778252078644,  2343.328,  2343.328, 0.011996,-0.012598,-0.997368, 0.000121,-0.000128,-0.009971,-0.013707, 0.003367, 0.024114,1,-0.001726,-0.000346, 0.000756,1,-0.131332, 0.126857, 9.804950,1,0
1778252078665,  2343.353,  2343.348, 0.013980,-0.009430,-0.995987, 0.000139,-0.000095,-0.009962,-0.001149, 0.019477, 0.041774,1,-0.000485, 0.000310, 0.000461,1,-0.131273, 0.126674, 9.804954,1,0
1778252078687,  2343.373,  2343.368, 0.015160,-0.009855,-0.996519, 0.000152,-0.000097,-0.009968, 0.014637, 0.038051, 0.032552,1, 0.000203, 0.000029,-0.000331,1,-0.131388, 0.126741, 9.804951,1,0
1778252078714,  2343.398,  2343.398, 0.014581,-0.010896,-0.993918, 0.000145,-0.000108,-0.009938, 0.011773, 0.019879, 0.057943,1, 0.000484, 0.000631,-0.000762,1,-0.131242, 0.126752, 9.804953,1,0
1778252078735,  2343.423,  2343.418, 0.012114,-0.014834,-0.995145, 0.000122,-0.000150,-0.009957, 0.002419,-0.018765, 0.017414,1, 0.000111,-0.000784,-0.000709,1,-0.131236, 0.126839, 9.804952,1,0
1778252078757,  2343.443,  2343.438, 0.011641,-0.015496,-0.996373, 0.000117,-0.000151,-0.009959,-0.021481,-0.015504, 0.052334,1, 0.000611, 0.000461,-0.000443,1,-0.131167, 0.126895, 9.804952,1,0
1778252078784,  2343.468,  2343.468, 0.012514,-0.014867,-0.995197, 0.000124,-0.000153,-0.009962,-0.008343,-0.018773, 0.045405,1,-0.000616,-0.001001, 0.000492,1,-0.131037, 0.127002, 9.804952,1,0
1778252078805,  2343.493,  2343.488, 0.013483,-0.013381,-0.997418, 0.000134,-0.000135,-0.009973, 0.000113,-0.004676, 0.049771,1, 0.000905, 0.001176, 0.000387,1,-0.131147, 0.127029, 9.804950,1,0
1778252078828,  2343.513,  2343.513, 0.013579,-0.010586,-0.994424, 0.000139,-0.000110,-0.009941, 0.002028, 0.023106, 0.052983,1,-0.000690, 0.000334, 0.000592,1,-0.131151, 0.126900, 9.804952,1,0
1778252078854,  2343.538,  2343.538, 0.014571,-0.012151,-0.997327, 0.000145,-0.000123,-0.009970, 0.011643, 0.007809, 0.024511,1,-0.000059, 0.000282,-0.000640,1,-0.131262, 0.126970, 9.804950,1,0
1778252078876,  2343.563,  2343.558, 0.013509,-0.012648,-0.995154, 0.000133,-0.000124,-0.009947, 0.000294, 0.009924, 0.058799,1,-0.000805,-0.000155,-0.000288,1,-0.131237, 0.126928, 9.804951,1,0
1778252078898,  2343.583,  2343.583, 0.013103,-0.013208,-0.996781, 0.000131,-0.000130,-0.009965,-0.002649,-0.002476, 0.029867,1,-0.000129, 0.000152,-0.000227,1,-0.131152, 0.127050, 9.804950,1,0
1778252078924,  2343.608,  2343.608, 0.011779,-0.013375,-0.995106, 0.000117,-0.000133,-0.009951,-0.015627,-0.004127, 0.046298,1, 0.000063, 0.000280,-0.000491,1,-0.131144, 0.127035, 9.804950,1,0
1778252078946,  2343.633,  2343.628, 0.013818,-0.013364,-0.996597, 0.000137,-0.000134,-0.009967,-0.002278,-0.000883, 0.034909,1, 0.000385, 0.000274,-0.000186,1,-0.131228, 0.127145, 9.804948,1,0
1778252078968,  2343.653,  2343.653, 0.012740,-0.013709,-0.994866, 0.000128,-0.000139,-0.009947,-0.006137,-0.007266, 0.048646,1, 0.000055,-0.000195, 0.000358,1,-0.131068, 0.127182, 9.804949,1,0
1778252078994,  2343.678,  2343.678, 0.013753,-0.013684,-0.996644, 0.000136,-0.000139,-0.009965, 0.003735,-0.007032, 0.031206,1,-0.000520, 0.000709, 0.000504,1,-0.131158, 0.127145, 9.804949,1,0
1778252079016,  2343.703,  2343.698, 0.013162,-0.011577,-0.994967, 0.000130,-0.000117,-0.009946,-0.007445, 0.005481, 0.046193,1,-0.000812,-0.000499, 0.000436,1,-0.131110, 0.127056, 9.804951,1,0
1778252079039,  2343.723,  2343.723, 0.014135,-0.012088,-0.996401, 0.000143,-0.000123,-0.009966, 0.007467, 0.008607, 0.033593,1, 0.000494,-0.000355,-0.000737,1,-0.131137, 0.127168, 9.804949,1,0
1778252079064,  2343.748,  2343.748, 0.013477,-0.011432,-0.994590, 0.000131,-0.000110,-0.009948, 0.001079, 0.015036, 0.051355,1,-0.000111,-0.000016,-0.000263,1,-0.131086, 0.127142, 9.804950,1,0
1778252079086,  2343.773,  2343.768, 0.012930,-0.013112,-0.995455, 0.000127,-0.000131,-0.009955, 0.004424,-0.002399, 0.030986,1, 0.000444,-0.000123,-0.000939,1,-0.131108, 0.127174, 9.804949,1,0
1778252079109,  2343.793,  2343.793, 0.013339,-0.013441,-0.995865, 0.000133,-0.000135,-0.009957,-0.000199,-0.004713, 0.038856,1, 0.000253,-0.000150, 0.000256,1,-0.131007, 0.127110, 9.804951,1,0
1778252079134,  2343.818,  2343.818, 0.013317,-0.013235,-0.995762, 0.000132,-0.000134,-0.009961,-0.000482,-0.002643, 0.039859,1,-0.000428, 0.000134, 0.000017,1,-0.131079, 0.127131, 9.804950,1,0
1778252079156,  2343.843,  2343.838, 0.012801,-0.013697,-0.995784, 0.000129,-0.000135,-0.009956,-0.006364,-0.004807, 0.040521,1, 0.000845, 0.000186,-0.000053,1,-0.131042, 0.127213, 9.804949,1,0
1778252079179,  2343.868,  2343.863, 0.012714,-0.014038,-0.995749, 0.000129,-0.000142,-0.009962,-0.006296,-0.010363, 0.039982,1,-0.000457,-0.000608,-0.000049,1,-0.130957, 0.127293, 9.804950,1,0
1778252079204,  2343.888,  2343.888, 0.012708,-0.013744,-0.995758, 0.000125,-0.000134,-0.009953,-0.006414,-0.007517, 0.039902,1,-0.000281, 0.000546, 0.000368,1,-0.131052, 0.127262, 9.804949,1,1
1778252079226,  2343.913,  2343.908, 0.013654,-0.012018,-0.994535, 0.000136,-0.000123,-0.009945, 0.000193,-0.005825, 0.040084,1,-0.000907, 0.000025,-0.000199,1,-0.130953, 0.127194, 9.804951,1,1
1778252079249,  2343.938,  2343.933, 0.014027,-0.012572,-0.996919, 0.000141,-0.000126,-0.009963, 0.006584, 0.003803, 0.028516,1, 0.000258,-0.000174, 0.000245,1,-0.130970, 0.127098, 9.804952,1,1
1778252079275,  2343.958,  2343.958, 0.013524,-0.010794,-0.995111, 0.000135,-0.000107,-0.009951, 0.001696, 0.021140, 0.046248,1,-0.001387, 0.000116,-0.000233,1,-0.130937, 0.126945, 9.804955,1,1
1778252079296,  2343.983,  2343.978, 0.012808,-0.013081,-0.995973, 0.000131,-0.000128,-0.009961,-0.002179, 0.002816, 0.033147,1, 0.000817, 0.000089,-0.000278,1,-0.130919, 0.127087, 9.804953,1,1
1778252079319,  2344.008,  2344.003, 0.013059,-0.014205,-0.995466, 0.000132,-0.000140,-0.009953,-0.002962,-0.012226, 0.042769,1, 0.000758, 0.000106,-0.000311,1,-0.131028, 0.127102, 9.804951,1,1
1778252079345,  2344.028,  2344.028, 0.013137,-0.014235,-0.996055, 0.000130,-0.000143,-0.009959,-0.002194,-0.012410, 0.036989,1, 0.000672, 0.000473, 0.000409,1,-0.131040, 0.127204, 9.804950,1,1
1778252079366,  2344.053,  2344.048, 0.012718,-0.013306,-0.995574, 0.000129,-0.000134,-0.009957, 0.001854,-0.017233, 0.044475,1,-0.000947,-0.000092,-0.000072,1,-0.130972, 0.127166, 9.804951,1,1
1778252079389,  2344.078,  2344.073, 0.013210,-0.012499,-0.996833, 0.000132,-0.000124,-0.009967,-0.001436, 0.004528, 0.029359,1, 0.000478,-0.000106, 0.000389,1,-0.130980, 0.127114, 9.804952,1,1
1778252079415,  2344.098,  2344.098, 0.013812,-0.011614,-0.994446, 0.000139,-0.000120,-0.009948, 0.004469, 0.013152, 0.052767,1,-0.000224, 0.000137,-0.000511,1,-0.130987, 0.127035, 9.804953,1,1
1778252079436,  2344.123,  2344.118, 0.013449,-0.013313,-0.996627, 0.000135,-0.000134,-0.009975, 0.000061,-0.005433, 0.028854,1,-0.000688,-0.000207, 0.000530,1,-0.130990, 0.127011, 9.804953,1,1
1778252079459,  2344.148,  2344.143, 0.012724,-0.012783,-0.995137, 0.000126,-0.000124,-0.009949,-0.006107, 0.001723, 0.045995,1, 0.000456,-0.000145,-0.000370,1,-0.130880, 0.127091, 9.804953,1,1
1778252079485,  2344.168,  2344.168, 0.013130,-0.014320,-0.996904, 0.000131,-0.000145,-0.009974,-0.002144,-0.013403, 0.028663,1,-0.001150,-0.000509,-0.000359,1,-0.130893, 0.126996, 9.804954,1,1
1778252079506,  2344.193,  2344.188, 0.012808,-0.014379,-0.997719, 0.000131,-0.000144,-0.009978,-0.004316,-0.008807, 0.042396,1, 0.000094,-0.000114, 0.000219,1,-0.130871, 0.127036, 9.804954,1,1
1778252079533,  2344.218,  2344.218, 0.012933,-0.011925,-0.994309, 0.000125,-0.000121,-0.009944,-0.003992, 0.010026, 0.054116,1,-0.000885, 0.000109, 0.000331,1,-0.130822, 0.126942, 9.804955,1,1
1778252079555,  2344.238,  2344.238, 0.013944,-0.012699,-0.996398, 0.000139,-0.000127,-0.009967, 0.005916, 0.002372, 0.033626,1,-0.000089, 0.000570,-0.000439,1,-0.130848, 0.126900, 9.804955,1,1
1778252079576,  2344.263,  2344.258, 0.013629,-0.012263,-0.996357, 0.000136,-0.000119,-0.009964, 0.003578, 0.019174, 0.046959,1, 0.000196,-0.000067,-0.000697,1,-0.130805, 0.127037, 9.804955,1,1
1778252079603,  2344.288,  2344.288, 0.013876,-0.012238,-0.995315, 0.000140,-0.000122,-0.009955, 0.005273, 0.007076, 0.044251,1, 0.000841, 0.000138,-0.000496,1,-0.130811, 0.127112, 9.804954,1,1
1778252079625,  2344.313,  2344.308, 0.012856,-0.013613,-0.995444, 0.000129,-0.000139,-0.009960,-0.000012,-0.014408, 0.028247,1, 0.000592,-0.000492,-0.000193,1,-0.130768, 0.127183, 9.804954,1,1
1778252079647,  2344.333,  2344.328, 0.012867,-0.014332,-0.995709, 0.000128,-0.000139,-0.009953,-0.006783, 0.002932, 0.049466,1, 0.000879,-0.000130,-0.000255,1,-0.130768, 0.127239, 9.804953,1,1
1778252079674,  2344.358,  2344.358, 0.012227,-0.013598,-0.995026, 0.000124,-0.000139,-0.009952,-0.010843,-0.006058, 0.047085,1,-0.000592,-0.000569, 0.000567,1,-0.130730, 0.127276, 9.804953,1,1
1778252079695,  2344.383,  2344.378, 0.012992,-0.014459,-0.997211, 0.000130,-0.000145,-0.009975,-0.004511,-0.012561, 0.029317,1, 0.000090, 0.000519, 0.000482,1,-0.130770, 0.127319, 9.804952,1,1
1778252079717,  2344.403,  2344.398, 0.013814,-0.012226,-0.994401, 0.000134,-0.000120,-0.009941,-0.004418, 0.007450, 0.052874,1,-0.000054,-0.000594, 0.000538,1,-0.130687, 0.127268, 9.804954,1,1
1778252079744,  2344.428,  2344.428, 0.013108,-0.011571,-0.996540, 0.000131,-0.000123,-0.009967,-0.002251, 0.013735, 0.032233,1,-0.000162, 0.000318, 0.000009,1,-0.130801, 0.127207, 9.804953,1,1
1778252079765,  2344.453,  2344.448, 0.014649,-0.011911,-0.996825, 0.000142,-0.000119,-0.009973, 0.011859, 0.017520, 0.038265,1, 0.000111, 0.000487,-0.000471,1,-0.130870, 0.127268, 9.804951,1,1
1778252079787,  2344.473,  2344.468, 0.013076,-0.011944,-0.993437, 0.000132,-0.000113,-0.009938, 0.006021, 0.019585, 0.037221,1,-0.000438,-0.000399,-0.000952,1,-0.130855, 0.127269, 9.804951,1,1
1778252079814,  2344.498,  2344.498, 0.011478,-0.018833,-0.996571, 0.000116,-0.000182,-0.009974,-0.018198,-0.057404, 0.031931,1,-0.000006,-0.000277,-0.000480,1,-0.130747, 0.127281, 9.804953,1,1
1778252079835,  2344.523,  2344.518, 0.013453,-0.012727,-1.000832, 0.000136,-0.000141,-0.009982,-0.016383,-0.030595, 0.077281,1, 0.001098, 0.001460, 0.000259,1,-0.130862, 0.127259, 9.804951,1,1
1778252079857,  2344.543,  2344.538, 0.013596,-0.010276,-0.998480, 0.000141,-0.000114,-0.009976,-0.006216,-0.023823, 0.053840,1, 0.001365,-0.001101, 0.001088,1,-0.130825, 0.127348, 9.804951,1,1
1778252079884,  2344.568,  2344.568, 0.012381,-0.010776,-0.996396, 0.000125,-0.000113,-0.009966,-0.009411, 0.021347, 0.033649,1,-0.000751, 0.000119, 0.000119,1,-0.130828, 0.126997, 9.804955,1,1
1778252079905,  2344.593,  2344.588, 0.015431,-0.010644,-0.996306, 0.000152,-0.000104,-0.009966, 0.013548, 0.021113, 0.042940,1,-0.000608,-0.000469, 0.000231,1,-0.130825, 0.127031, 9.804955,1,1
1778252079927,  2344.613,  2344.608, 0.013257,-0.011675,-0.996621, 0.000132,-0.000116,-0.009966, 0.013791,-0.000085, 0.047851,1, 0.000365, 0.000408,-0.000646,1,-0.130806, 0.127077, 9.804955,1,1
1778252079954,  2344.638,  2344.638, 0.013222,-0.013147,-0.996306, 0.000128,-0.000133,-0.009959,-0.001104,-0.001807, 0.034534,1, 0.000298,-0.000473,-0.000856,1,-0.130753, 0.127129, 9.804955,1,1
1778252079975,  2344.663,  2344.658, 0.012613,-0.015516,-0.997486, 0.000127,-0.000150,-0.009977,-0.001263,-0.004693, 0.035624,1,-0.000199, 0.000475, 0.000021,1,-0.130735, 0.127184, 9.804954,1,1
1778252079997,  2344.683,  2344.678, 0.012483,-0.014396,-0.994300, 0.000127,-0.000141,-0.009945,-0.011705,-0.024188, 0.036979,1,-0.000508,-0.000802,-0.000308,1,-0.130683, 0.127132, 9.804955,1,1
1778252080024,  2344.708,  2344.708, 0.013626,-0.013720,-0.997707, 0.000135,-0.000135,-0.009976, 0.002951,-0.007433, 0.020794,1,-0.000129,-0.000743, 0.000269,1,-0.130649, 0.127115, 9.804955,1,1
1778252080046,  2344.733,  2344.728, 0.012606,-0.012014,-0.994333, 0.000127,-0.000118,-0.009943,-0.007659, 0.014306, 0.054741,1,-0.000160,-0.000779, 0.000278,1,-0.130548, 0.127059, 9.804957,1,1
1778252080068,  2344.753,  2344.753, 0.014460,-0.012362,-0.996856, 0.000145,-0.000125,-0.009972, 0.011147, 0.005770, 0.029139,1,-0.000417, 0.000677,-0.000574,1,-0.130682, 0.126989, 9.804957,1,1
1778252080094,  2344.778,  2344.778, 0.013837,-0.011995,-0.995154, 0.000143,-0.000117,-0.009950, 0.005041, 0.009351, 0.045826,1, 0.000756,-0.000006,-0.000283,1,-0.130652, 0.127007, 9.804957,1,1
1778252080116,  2344.803,  2344.798, 0.012936,-0.013376,-0.994846, 0.000128,-0.000132,-0.009950,-0.006896, 0.006325, 0.031339,1, 0.000072,-0.000297,-0.001021,1,-0.130612, 0.127010, 9.804957,1,1
1778252080138,  2344.823,  2344.823, 0.012903,-0.014902,-0.995258, 0.000131,-0.000149,-0.009954,-0.004002,-0.019011, 0.044810,1,-0.000114, 0.000719, 0.000125,1,-0.130556, 0.127125, 9.804956,1,1
1778252080164,  2344.848,  2344.848, 0.012503,-0.014356,-0.996166, 0.000123,-0.000144,-0.009963,-0.007961,-0.013580, 0.035907,1,-0.000218,-0.000020, 0.000415,1,-0.130567, 0.127258, 9.804955,1,1
1778252080186,  2344.873,  2344.868, 0.013445,-0.013286,-0.995539, 0.000133,-0.000134,-0.009953,-0.005203,-0.000355, 0.040928,1,-0.000058, 0.000160, 0.000043,1,-0.130569, 0.127217, 9.804955,1,1
1778252080209,  2344.893,  2344.893, 0.012894,-0.012577,-0.995273, 0.000128,-0.000124,-0.009956,-0.004157, 0.003843, 0.044657,1,-0.000733,-0.000384, 0.000398,1,-0.130594, 0.127160, 9.804955,1,1
1778252080234,  2344.918,  2344.918, 0.014403,-0.012575,-0.995179, 0.000142,-0.000123,-0.009950, 0.010702, 0.003841, 0.045580,1,-0.000221, 0.000168,-0.000383,1,-0.130551, 0.127151, 9.804956,1,1
1778252080256,  2344.943,  2344.938, 0.013561,-0.012039,-0.994796, 0.000135,-0.000122,-0.009951, 0.011584, 0.008067, 0.037409,1, 0.000026,-0.000642, 0.000073,1,-0.130575, 0.127181, 9.804955,1,1
1778252080279,  2344.963,  2344.963, 0.013250,-0.012850,-0.996022, 0.000129,-0.000127,-0.009961,-0.000585, 0.001212, 0.037317,1,-0.000060,-0.000390,-0.000134,1,-0.130510, 0.127222, 9.804956,1,1
1778252080304,  2344.988,  2344.988, 0.013009,-0.013541,-0.995310, 0.000129,-0.000133,-0.009956,-0.002896,-0.005620, 0.044298,1, 0.000176,-0.000231,-0.000142,1,-0.130464, 0.127176, 9.804957,1,1
1778252080326,  2345.013,  2345.008, 0.013295,-0.014420,-0.996416, 0.000132,-0.000146,-0.009964,-0.003825,-0.008839, 0.039786,1,-0.000188,-0.000998, 0.000125,1,-0.130330, 0.127173, 9.804959,1,1
1778252080349,  2345.033,  2345.033, 0.013059,-0.013191,-0.995017, 0.000131,-0.000134,-0.009950,-0.002277,-0.002280, 0.047176,1,-0.000680,-0.000256, 0.000329,1,-0.130331, 0.127059, 9.804960,1,1
1778252080374,  2345.058,  2345.058, 0.013229,-0.013100,-0.996556, 0.000131,-0.000132,-0.009962,-0.000549,-0.001350, 0.032086,1,-0.000221,-0.000601,-0.000208,1,-0.130260, 0.127115, 9.804961,1,1
1778252080396,  2345.083,  2345.078, 0.013743,-0.012352,-0.995871, 0.000136,-0.000121,-0.009958,-0.000860, 0.010030, 0.048699,1,-0.000625, 0.000098,-0.000240,1,-0.130275, 0.127072, 9.804961,1,1
1778252080419,  2345.108,  2345.103, 0.013791,-0.012542,-0.996494, 0.000139,-0.000127,-0.009965, 0.004841, 0.004117, 0.032692,1,-0.000475, 0.000087,-0.000211,1,-0.130409, 0.127102, 9.804959,1,1
1778252080444,  2345.128,  2345.128, 0.013441,-0.012574,-0.995388, 0.000134,-0.000128,-0.009956, 0.001441, 0.003818, 0.043535,1, 0.000153,-0.000618,-0.000152,1,-0.130348, 0.127130, 9.804959,1,1
1778252080466,  2345.148,  2345.148, 0.013233,-0.012786,-0.996220, 0.000129,-0.000128,-0.009963,-0.000589, 0.001778, 0.035377,1, 0.000373, 0.000352,-0.000105,1,-0.130369, 0.127177, 9.804958,1,1
1778252080489,  2345.178,  2345.173, 0.012450,-0.013058,-0.995293, 0.000125,-0.000133,-0.009950,-0.008188,-0.000863, 0.044473,1, 0.001600, 0.000330,-0.000480,1,-0.130292, 0.127242, 9.804959,1,1
1778252080515,  2345.198,  2345.198, 0.014119,-0.013886,-0.996667, 0.000138,-0.000140,-0.009967, 0.008141,-0.008830, 0.030988,1,-0.000429, 0.000381, 0.000218,1,-0.130329, 0.127334, 9.804957,1,1
1778252080536,  2345.223,  2345.218, 0.011994,-0.012538,-0.995490, 0.000121,-0.000127,-0.009951,-0.003608, 0.002575, 0.045739,1, 0.000085, 0.000353, 0.000323,1,-0.130410, 0.127307, 9.804956,1,1
1778252080559,  2345.248,  2345.243, 0.013364,-0.012003,-0.996377, 0.000133,-0.000123,-0.009964, 0.000630, 0.009637, 0.033836,1,-0.000231, 0.000120, 0.000615,1,-0.130417, 0.127346, 9.804955,1,1
1778252080585,  2345.268,  2345.268, 0.013565,-0.012838,-0.995822, 0.000135,-0.000127,-0.009956, 0.002552, 0.001384, 0.039276,1,-0.000004, 0.001110,-0.000164,1,-0.130506, 0.127284, 9.804955,1,1
1778252080606,  2345.293,  2345.288, 0.013862,-0.012810,-0.995241, 0.000139,-0.000127,-0.009955, 0.006670, 0.003987, 0.044412,1, 0.000324,-0.000344,-0.000206,1,-0.130533, 0.127318, 9.804955,1,1
1778252080629,  2345.318,  2345.313, 0.012416,-0.013396,-0.996064, 0.000126,-0.000132,-0.009961,-0.008716,-0.004162, 0.036901,1, 0.000378, 0.000434, 0.000013,1,-0.130492, 0.127223, 9.804956,1,1
1778252080655,  2345.338,  2345.338, 0.013008,-0.013000,-0.995582, 0.000129,-0.000131,-0.009954,-0.002855,-0.000207, 0.041636,1, 0.000131,-0.000348, 0.000206,1,-0.130410, 0.127283, 9.804956,1,1
1778252080676,  2345.363,  2345.358, 0.013226,-0.013648,-0.996203, 0.000134,-0.000137,-0.009962,-0.007302,-0.000901, 0.033124,1, 0.000410, 0.000561, 0.000192,1,-0.130468, 0.127312, 9.804955,1,1
1778252080699,  2345.388,  2345.383, 0.013441,-0.013469,-0.995170, 0.000137,-0.000133,-0.009954, 0.001388,-0.004719, 0.045670,1, 0.000081,-0.000846, 0.000076,1,-0.130400, 0.127372, 9.804955,1,1
1778252080725,  2345.408,  2345.408, 0.013154,-0.012618,-0.995831, 0.000132,-0.000126,-0.009958,-0.001441, 0.003601, 0.039185,1, 0.000686, 0.000121,-0.000631,1,-0.130445, 0.127359, 9.804955,1,1
1778252080746,  2345.433,  2345.428, 0.013314,-0.012411,-0.995507, 0.000133,-0.000125,-0.009956, 0.001301, 0.002122, 0.040469,1,-0.000289, 0.000366, 0.000644,1,-0.130491, 0.127337, 9.804955,1,1
1778252080773,  2345.458,  2345.458, 0.013768,-0.013159,-0.996357, 0.000137,-0.000129,-0.009965, 0.004490,-0.001678, 0.034030,1, 0.000612,-0.000414,-0.000098,1,-0.130511, 0.127387, 9.804954,1,1
1778252080795,  2345.478,  2345.478, 0.013068,-0.013092,-0.995346, 0.000132,-0.000131,-0.009955,-0.002359,-0.001049, 0.043946,1,-0.000779, 0.000102, 0.000505,1,-0.130516, 0.127311, 9.804955,1,1
1778252080817,  2345.503,  2345.498, 0.013169,-0.013770,-0.995993, 0.000134,-0.000134,-0.009962,-0.005273, 0.003251, 0.038143,1, 0.000119,-0.000429,-0.000167,1,-0.130456, 0.127414, 9.804955,1,1
1778252080843,  2345.528,  2345.528, 0.013233,-0.013055,-0.995138, 0.000132,-0.000132,-0.009952,-0.000650,-0.000572, 0.045981,1,-0.000146, 0.000506, 0.000382,1,-0.130440, 0.127445, 9.804955,1,1
1778252080865,  2345.553,  2345.548, 0.013788,-0.013667,-0.995741, 0.000136,-0.000135,-0.009959, 0.000868,-0.003839, 0.037011,1, 0.000963,-0.000863,-0.000052,1,-0.130321, 0.127561, 9.804955,1,1
1778252080887,  2345.573,  2345.568, 0.013183,-0.013030,-0.995294, 0.000132,-0.000130,-0.009952,-0.000632, 0.003979, 0.041786,1,-0.000836,-0.000060,-0.000082,1,-0.130363, 0.127471, 9.804955,1,1
1778252080914,  2345.598,  2345.598, 0.013393,-0.012797,-0.996073, 0.000133,-0.000130,-0.009964, 0.000946, 0.002077, 0.036809,1,-0.000132,-0.000261,-0.000097,1,-0.130385, 0.127568, 9.804954,1,1
1778252080935,  2345.623,  2345.618, 0.013115,-0.013128,-0.995779, 0.000132,-0.000134,-0.009959,-0.000721, 0.005069, 0.038920,1,-0.000387, 0.000138, 0.000413,1,-0.130356, 0.127528, 9.804955,1,1
1778252080957,  2345.643,  2345.638, 0.013583,-0.012915,-0.996049, 0.000133,-0.000127,-0.009956, 0.001263, 0.003592, 0.042794,1,-0.000204, 0.000170,-0.000619,1,-0.130338, 0.127569, 9.804954,1,1
1778252080984,  2345.668,  2345.668, 0.012914,-0.013129,-0.995759, 0.000129,-0.000133,-0.009957,-0.003728,-0.001232, 0.039890,1,-0.000037, 0.000104,-0.000189,1,-0.130376, 0.127515, 9.804955,1,1
1778252081005,  2345.693,  2345.688, 0.013180,-0.013483,-0.995615, 0.000133,-0.000133,-0.009960, 0.000652,-0.002363, 0.032945,1,-0.000143, 0.000044,-0.000105,1,-0.130392, 0.127480, 9.804955,1,1
1778252081027,  2345.713,  2345.708, 0.013265,-0.012985,-0.995559, 0.000132,-0.000128,-0.009953,-0.000560,-0.002988, 0.047876,1,-0.000436,-0.000038, 0.000878,1,-0.130326, 0.127343, 9.804957,1,1
1778252081054,  2345.738,  2345.738, 0.013253,-0.012654,-0.995354, 0.000132,-0.000126,-0.009957,-0.000426, 0.003303, 0.043867,1, 0.000440,-0.000485,-0.000301,1,-0.130381, 0.127410, 9.804955,1,1
1778252081075,  2345.763,  2345.758, 0.013463,-0.013038,-0.995813, 0.000132,-0.000130,-0.009960,-0.003011, 0.004728, 0.044424,1, 0.001149,-0.000418, 0.000028,1,-0.130286, 0.127471, 9.804955,1,1
1778252081097,  2345.783,  2345.778, 0.013921,-0.012237,-0.995011, 0.000138,-0.000124,-0.009953,-0.003124, 0.001141, 0.035602,1, 0.000659, 0.000216, 0.000079,1,-0.130284, 0.127571, 9.804955,1,1
1778252081124,  2345.808,  2345.808, 0.012985,-0.013637,-0.996579, 0.000132,-0.000136,-0.009966,-0.002918,-0.006155, 0.031853,1,-0.000083, 0.000055,-0.000394,1,-0.130255, 0.127579, 9.804955,1,1
1778252081145,  2345.833,  2345.828, 0.013516,-0.013784,-0.995270, 0.000137,-0.000136,-0.009952,-0.002496, 0.002851, 0.036786,1,-0.000381, 0.000437,-0.000116,1,-0.130249, 0.127507, 9.804956,1,1
1778252081167,  2345.853,  2345.848, 0.013403,-0.013874,-0.995992, 0.000132,-0.000139,-0.009960,-0.005801,-0.005331, 0.038502,1, 0.000515,-0.000365,-0.000396,1,-0.130163, 0.127578, 9.804956,1,1
1778252081194,  2345.878,  2345.878, 0.013578,-0.013297,-0.995622, 0.000136,-0.000132,-0.009956, 0.003061,-0.002832, 0.041243,1,-0.000494,-0.000168,-0.000354,1,-0.130087, 0.127547, 9.804957,1,1
1778252081215,  2345.903,  2345.898, 0.012784,-0.013086,-0.995499, 0.000126,-0.000128,-0.009956,-0.002218,-0.002312, 0.044948,1,-0.000883, 0.000466, 0.000321,1,-0.130135, 0.127563, 9.804956,1,1
1778252081237,  2345.923,  2345.918, 0.013747,-0.012886,-0.995671, 0.000137,-0.000131,-0.009959,-0.002272,-0.000662, 0.034993,1, 0.000741,-0.000350,-0.000230,1,-0.130086, 0.127600, 9.804957,1,1
1778252081264,  2345.948,  2345.948, 0.012997,-0.012913,-0.995519, 0.000128,-0.000128,-0.009957,-0.002583, 0.000970, 0.042248,1, 0.000394,-0.000271,-0.000246,1,-0.130030, 0.127618, 9.804957,1,1
1778252081286,  2345.973,  2345.968, 0.013629,-0.012648,-0.995255, 0.000139,-0.000128,-0.009949, 0.004282,-0.000450, 0.046302,1,-0.000903,-0.000707,-0.000315,1,-0.129972, 0.127511, 9.804959,1,1
1778252081308,  2345.993,  2345.993, 0.013109,-0.013172,-0.996948, 0.000130,-0.000134,-0.009968,-0.001477,-0.001583, 0.028237,1, 0.000318,-0.000386,-0.000297,1,-0.130017, 0.127602, 9.804957,1,1
1778252081334,  2346.018,  2346.018, 0.012899,-0.012769,-0.994581, 0.000130,-0.000129,-0.009947,-0.003511, 0.002337, 0.051453,1,-0.000210, 0.000433,-0.000320,1,-0.130025, 0.127556, 9.804958,1,1
1778252081356,  2346.043,  2346.038, 0.013198,-0.012712,-0.995546, 0.000133,-0.000129,-0.009957,-0.005539,-0.006892, 0.034544,1,-0.000553, 0.000142,-0.000143,1,-0.130074, 0.127507, 9.804958,1,1
1778252081378,  2346.063,  2346.063, 0.013727,-0.012945,-0.996821, 0.000137,-0.000128,-0.009966, 0.004553, 0.000704, 0.029479,1, 0.000191, 0.000251, 0.000136,1,-0.130071, 0.127654, 9.804956,1,1
1778252081404,  2346.088,  2346.088, 0.013286,-0.012326,-0.995205, 0.000131,-0.000125,-0.009954, 0.000171, 0.006731, 0.045334,1,-0.000557, 0.000452, 0.000139,1,-0.130136, 0.127589, 9.804956,1,1
1778252081426,  2346.113,  2346.108, 0.013304,-0.013347,-0.995602, 0.000135,-0.000134,-0.009960, 0.002859,-0.001740, 0.033204,1,-0.000662,-0.000766,-0.000600,1,-0.130058, 0.127504, 9.804958,1,1
1778252081449,  2346.133,  2346.133, 0.013208,-0.013246,-0.995479, 0.000134,-0.000132,-0.009954,-0.000496,-0.002395, 0.042646,1,-0.000161,-0.000493,-0.000274,1,-0.130007, 0.127497, 9.804959,1,1
1778252081474,  2346.158,  2346.158, 0.013253,-0.013135,-0.995483, 0.000132,-0.000132,-0.009955,-0.000180,-0.001357, 0.042600,1,-0.000168, 0.001220, 0.000487,1,-0.130187, 0.127447, 9.804957,1,1
1778252081496,  2346.183,  2346.178, 0.013049,-0.013382,-0.996099, 0.000131,-0.000135,-0.009963,-0.010100,-0.000447, 0.044065,1,-0.000124, 0.000427,-0.000505,1,-0.130171, 0.127469, 9.804957,1,1
1778252081519,  2346.203,  2346.203, 0.013530,-0.013053,-0.995005, 0.000135,-0.000132,-0.009951, 0.002505,-0.000580, 0.047289,1, 0.000158, 0.000406, 0.000183,1,-0.130189, 0.127435, 9.804957,1,1
1778252081544,  2346.228,  2346.228, 0.013124,-0.013090,-0.996001, 0.000133,-0.000130,-0.009961,-0.001469,-0.000929, 0.037523,1,-0.000057,-0.000552, 0.000046,1,-0.130152, 0.127441, 9.804958,1,1
1778252081566,  2346.253,  2346.248, 0.013015,-0.012971,-0.996225, 0.000132,-0.000130,-0.009958, 0.002621, 0.005203, 0.041225,1, 0.000277, 0.000180, 0.000836,1,-0.130209, 0.127510, 9.804956,1,1
1778252081589,  2346.273,  2346.273, 0.012852,-0.013101,-0.994625, 0.000128,-0.000128,-0.009948,-0.004132,-0.000997, 0.051016,1, 0.000039, 0.000309, 0.000225,1,-0.130178, 0.127481, 9.804957,1,1
1778252081614,  2346.298,  2346.298, 0.013044,-0.013500,-0.996104, 0.000131,-0.000134,-0.009961,-0.002234,-0.004874, 0.036511,1, 0.000364, 0.000524, 0.000202,1,-0.130171, 0.127523, 9.804956,1,1
1778252081636,  2346.323,  2346.318, 0.013142,-0.013040,-0.995764, 0.000133,-0.000133,-0.009959,-0.002002,-0.002388, 0.045437,1,-0.000435,-0.000364,-0.000419,1,-0.130111, 0.127532, 9.804957,1,1
1778252081659,  2346.348,  2346.343, 0.013099,-0.012632,-0.995660, 0.000131,-0.000129,-0.009958,-0.001668, 0.003520, 0.040865,1,-0.000574,-0.000666, 0.000225,1,-0.130105, 0.127380, 9.804959,1,1
1778252081685,  2346.368,  2346.368, 0.012718,-0.012950,-0.995814, 0.000127,-0.000131,-0.009957,-0.005468, 0.000413, 0.039362,1, 0.000147,-0.000333,-0.000209,1,-0.130181, 0.127416, 9.804958,1,1
1778252081706,  2346.393,  2346.388, 0.012821,-0.012815,-0.995094, 0.000130,-0.000129,-0.009952, 0.005434,-0.000716, 0.042139,1,-0.000333,-0.000170, 0.000191,1,-0.130193, 0.127436, 9.804957,1,1
1778252081729,  2346.418,  2346.413, 0.013683,-0.012929,-0.996810, 0.000135,-0.000130,-0.009967, 0.003949, 0.000656, 0.029593,1,-0.000011, 0.000042, 0.000377,1,-0.130238, 0.127447, 9.804956,1,1
1778252081755,  2346.438,  2346.438, 0.012914,-0.013174,-0.995447, 0.000128,-0.000130,-0.009953,-0.003589,-0.001767, 0.042959,1,-0.000034,-0.000187, 0.000096,1,-0.130223, 0.127420, 9.804957,1,1
1778252081776,  2346.463,  2346.458, 0.013641,-0.012198,-0.995469, 0.000137,-0.000123,-0.009957,-0.000334, 0.002136, 0.040809,1, 0.000057,-0.000597, 0.000087,1,-0.130174, 0.127573, 9.804956,1,1
1778252081799,  2346.488,  2346.483, 0.013076,-0.013295,-0.996462, 0.000131,-0.000131,-0.009967,-0.001806,-0.002858, 0.033005,1,-0.000598,-0.000609, 0.000256,1,-0.130019, 0.127501, 9.804959,1,1
1778252081825,  2346.508,  2346.508, 0.013614,-0.013432,-0.995969, 0.000135,-0.000132,-0.009959, 0.003475,-0.004253, 0.037839,1,-0.000170,-0.000021,-0.000027,1,-0.130030, 0.127461, 9.804959,1,1
1778252081846,  2346.533,  2346.528, 0.013227,-0.013021,-0.995286, 0.000131,-0.000130,-0.009953,-0.000087,-0.000890, 0.031946,1, 0.000110,-0.000344,-0.000138,1,-0.130013, 0.127464, 9.804959,1,1
1778252081869,  2346.558,  2346.553, 0.013533,-0.013695,-0.995638, 0.000136,-0.000134,-0.009954, 0.002777,-0.006805, 0.041087,1,-0.000378,-0.000806,-0.000335,1,-0.129912, 0.127487, 9.804960,1,1
1778252081895,  2346.578,  2346.578, 0.012971,-0.012471,-0.995402, 0.000129,-0.000127,-0.009954,-0.002698, 0.005169, 0.043402,1,-0.000269, 0.000258, 0.000030,1,-0.129908, 0.127460, 9.804961,1,1
1778252081916,  2346.603,  2346.598, 0.013307,-0.012496,-0.995693, 0.000135,-0.000128,-0.009961, 0.000906, 0.000203, 0.038715,1, 0.000289, 0.000079,-0.000088,1,-0.129854, 0.127497, 9.804961,1,1
1778252081939,  2346.628,  2346.623, 0.013088,-0.013263,-0.996169, 0.000129,-0.000130,-0.009960,-0.001459,-0.002564, 0.035883,1,-0.000025,-0.000012,-0.000120,1,-0.129808, 0.127506, 9.804962,1,1
1778252081965,  2346.648,  2346.648, 0.013264,-0.012704,-0.995294, 0.000135,-0.000128,-0.009956, 0.000160, 0.002973, 0.044458,1, 0.000522, 0.000723, 0.000743,1,-0.129950, 0.127572, 9.804959,1,1
1778252081986,  2346.673,  2346.668, 0.013158,-0.013304,-0.995862, 0.000135,-0.000132,-0.009959, 0.002685,-0.001475, 0.041110,1, 0.000071, 0.000435, 0.000404,1,-0.129894, 0.127421, 9.804962,1,1
1778252082013,  2346.698,  2346.698, 0.012984,-0.013204,-0.995408, 0.000131,-0.000131,-0.009954,-0.002558,-0.002051, 0.043344,1,-0.000134, 0.000977, 0.000133,1,-0.129921, 0.127428, 9.804961,1,1
1778252082035,  2346.718,  2346.718, 0.013633,-0.013299,-0.996555, 0.000137,-0.000135,-0.009962, 0.003735,-0.002964, 0.032098,1,-0.000517, 0.000616, 0.000214,1,-0.129979, 0.127437, 9.804960,1,1
1778252082057,  2346.743,  2346.738, 0.013002,-0.013058,-0.996140, 0.000131,-0.000130,-0.009962, 0.002116, 0.001427, 0.040122,1,-0.000386,-0.000322,-0.000259,1,-0.130007, 0.127404, 9.804960,1,1
1778252082084,  2346.768,  2346.768, 0.013171,-0.012670,-0.995180, 0.000132,-0.000127,-0.009951,-0.000856, 0.003099, 0.045579,1,-0.000274, 0.000027, 0.000247,1,-0.130017, 0.127344, 9.804961,1,1
1778252082105,  2346.793,  2346.788, 0.013320,-0.012735,-0.995563, 0.000131,-0.000126,-0.009957, 0.001273,-0.000165, 0.035973,1, 0.000112,-0.000160,-0.000455,1,-0.130001, 0.127319, 9.804962,1,1
1778252082127,  2346.813,  2346.808, 0.013363,-0.012719,-0.995355, 0.000135,-0.000128,-0.009957, 0.002095, 0.001294, 0.041501,1, 0.000035, 0.000657, 0.000246,1,-0.130037, 0.127291, 9.804961,1,1
1778252082154,  2346.838,  2346.838, 0.012788,-0.012947,-0.995462, 0.000130,-0.000130,-0.009954,-0.004570, 0.000194, 0.042813,1,-0.000526,-0.000475,-0.000214,1,-0.129968, 0.127140, 9.804964,1,1
1778252082175,  2346.863,  2346.858, 0.013628,-0.013275,-0.995871, 0.000135,-0.000136,-0.009961,-0.001724,-0.001463, 0.038454,1, 0.000082, 0.000529,-0.000488,1,-0.130083, 0.127129, 9.804963,1,1
1778252082197,  2346.883,  2346.878, 0.013693,-0.013066,-0.995357, 0.000135,-0.000130,-0.009951, 0.001399,-0.003998, 0.037264,1,-0.000329,-0.000375, 0.000268,1,-0.130029, 0.127090, 9.804964,1,1
1778252082224,  2346.908,  2346.908, 0.013290,-0.013095,-0.995721, 0.000134,-0.000133,-0.009958, 0.000271,-0.001208, 0.040278,1, 0.000480, 0.000594,-0.000173,1,-0.130074, 0.127223, 9.804962,1,1
1778252082245,  2346.933,  2346.928, 0.013288,-0.013232,-0.995829, 0.000133,-0.000133,-0.009957,-0.003669, 0.001092, 0.038260,1,-0.000155, 0.000307, 0.000818,1,-0.130118, 0.127106, 9.804963,1,1
1778252082267,  2346.953,  2346.948, 0.013438,-0.012983,-0.995567, 0.000135,-0.000129,-0.009956, 0.003608, 0.001311, 0.038401,1, 0.000217, 0.000140, 0.000244,1,-0.130189, 0.127175, 9.804961,1,1
1778252082294,  2346.978,  2346.978, 0.013148,-0.013478,-0.995460, 0.000134,-0.000134,-0.009955,-0.001178,-0.004994, 0.042829,1,-0.000577,-0.000750,-0.000143,1,-0.130093, 0.127162, 9.804962,1,1
1778252082315,  2347.003,  2346.998, 0.013377,-0.013025,-0.995731, 0.000134,-0.000129,-0.009956,-0.000553, 0.003964, 0.042160,1, 0.000306, 0.000009,-0.000573,1,-0.130060, 0.127156, 9.804963,1,1
1778252082337,  2347.023,  2347.018, 0.012744,-0.012766,-0.995838, 0.000127,-0.000131,-0.009959, 0.000510,-0.002279, 0.039139,1,-0.000104, 0.000666, 0.000224,1,-0.130114, 0.127193, 9.804962,1,1
1778252082364,  2347.048,  2347.048, 0.014064,-0.013196,-0.996381, 0.000137,-0.000132,-0.009964, 0.007804,-0.002175, 0.033798,1,-0.000531, 0.000634,-0.000068,1,-0.130152, 0.127232, 9.804961,1,1
1778252082385,  2347.073,  2347.068, 0.013338,-0.013147,-0.995617, 0.000135,-0.000127,-0.009955, 0.001376, 0.001593, 0.045924,1, 0.000191,-0.000192,-0.000126,1,-0.130068, 0.127260, 9.804961,1,1
1778252082407,  2347.093,  2347.088, 0.012928,-0.013169,-0.996234, 0.000128,-0.000132,-0.009965, 0.001764,-0.003436, 0.038939,1, 0.000064,-0.000306,-0.000487,1,-0.130083, 0.127346, 9.804960,1,1
1778252082434,  2347.118,  2347.118, 0.012910,-0.012359,-0.996197, 0.000129,-0.000124,-0.009960,-0.003564, 0.006093, 0.035599,1,-0.000841, 0.000358, 0.000170,1,-0.130177, 0.127268, 9.804960,1,1
1778252082456,  2347.138,  2347.138, 0.013105,-0.013536,-0.995754, 0.000131,-0.000134,-0.009958,-0.001671,-0.005448, 0.039947,1, 0.000143, 0.000367,-0.000167,1,-0.130200, 0.127294, 9.804959,1,1
1778252082477,  2347.163,  2347.158, 0.013245,-0.013557,-0.996546, 0.000131,-0.000133,-0.009967,-0.000012,-0.000238, 0.041644,1,-0.000605, 0.000117,-0.000169,1,-0.130132, 0.127244, 9.804961,1,1
1778252082504,  2347.188,  2347.188, 0.013056,-0.013026,-0.995647, 0.000133,-0.000131,-0.009953,-0.002096,-0.000473, 0.041002,1,-0.000315,-0.000545,-0.000614,1,-0.130115, 0.127261, 9.804961,1,1
1778252082526,  2347.213,  2347.208, 0.012918,-0.012235,-0.995450, 0.000129,-0.000123,-0.009954,-0.000281, 0.001278, 0.033655,1,-0.000003,-0.000049, 0.000685,1,-0.130130, 0.127296, 9.804960,1,1
1778252082548,  2347.233,  2347.233, 0.013490,-0.012944,-0.996178, 0.000135,-0.000129,-0.009960, 0.002259, 0.000358, 0.035796,1,-0.000439,-0.000746, 0.000298,1,-0.130014, 0.127280, 9.804962,1,1
1778252082574,  2347.258,  2347.258, 0.013364,-0.012898,-0.995001, 0.000132,-0.000128,-0.009951, 0.000998, 0.000773, 0.047339,1, 0.000338, 0.000644,-0.000414,1,-0.130075, 0.127270, 9.804961,1,1
1778252082596,  2347.283,  2347.278, 0.013095,-0.013598,-0.995771, 0.000129,-0.000138,-0.009960,-0.000331,-0.006696, 0.036684,1,-0.000680, 0.000417,-0.000102,1,-0.130092, 0.127239, 9.804961,1,1
1778252082619,  2347.303,  2347.303, 0.012865,-0.013082,-0.995842, 0.000126,-0.000129,-0.009956,-0.003841,-0.001079, 0.039086,1, 0.000279,-0.000027,-0.000383,1,-0.130002, 0.127218, 9.804963,1,1
1778252082644,  2347.328,  2347.328, 0.013622,-0.012934,-0.995551, 0.000135,-0.000134,-0.009960, 0.003556, 0.000303, 0.041946,1,-0.000615, 0.000473, 0.000006,1,-0.130049, 0.127125, 9.804963,1,1
1778252082666,  2347.353,  2347.348, 0.013099,-0.012772,-0.995937, 0.000132,-0.000128,-0.009960,-0.002594, 0.002847, 0.042875,1,-0.000153, 0.000306,-0.000275,1,-0.130041, 0.127106, 9.804964,1,1
1778252082689,  2347.373,  2347.373, 0.013288,-0.012757,-0.995530, 0.000133,-0.000127,-0.009955, 0.000291, 0.001902, 0.042150,1,-0.000899,-0.000113,-0.000132,1,-0.130017, 0.126975, 9.804966,1,1
1778252082714,  2347.398,  2347.398, 0.013281,-0.013295,-0.995924, 0.000133,-0.000135,-0.009961, 0.000203,-0.003516, 0.038290,1,-0.000758, 0.000688,-0.000073,1,-0.130060, 0.126844, 9.804967,1,1
1778252082736,  2347.423,  2347.418, 0.012855,-0.012998,-0.996476, 0.000129,-0.000131,-0.009963,-0.001728, 0.002264, 0.039275,1,-0.000238,-0.000403,-0.000044,1,-0.130000, 0.126791, 9.804969,1,1
1778252082759,  2347.443,  2347.443, 0.013501,-0.012622,-0.995223, 0.000135,-0.000127,-0.009953, 0.002506, 0.002946, 0.045165,1,-0.001337,-0.000247,-0.000129,1,-0.129885, 0.126700, 9.804972,1,1
1778252082784,  2347.468,  2347.468, 0.012789,-0.012809,-0.995944, 0.000128,-0.000128,-0.009959,-0.004386, 0.001069, 0.038098,1, 0.000255, 0.000219,-0.000202,1,-0.129806, 0.126694, 9.804973,1,1
1778252082806,  2347.493,  2347.488, 0.013421,-0.013260,-0.995297, 0.000134,-0.000126,-0.009953,-0.001624, 0.001834, 0.043475,1,-0.000909,-0.000381,-0.000203,1,-0.129697, 0.126593, 9.804976,1,1
1778252082829,  2347.513,  2347.513, 0.013009,-0.013257,-0.995980, 0.000133,-0.000135,-0.009961,-0.002106,-0.003527, 0.037753,1, 0.000784, 0.000077, 0.000102,1,-0.129682, 0.126502, 9.804976,1,1
1778252082855,  2347.538,  2347.538, 0.013537,-0.013405,-0.996001, 0.000132,-0.000129,-0.009959, 0.003045,-0.004926, 0.037539,1, 0.000245, 0.000182,-0.000381,1,-0.129718, 0.126538, 9.804976,1,1
1778252082876,  2347.563,  2347.558, 0.012527,-0.012363,-0.995138, 0.000126,-0.000122,-0.009956,-0.004546, 0.000371, 0.038516,1, 0.000032,-0.000206, 0.000386,1,-0.129692, 0.126523, 9.804976,1,1
1778252082899,  2347.588,  2347.583, 0.013629,-0.013856,-0.996066, 0.000136,-0.000135,-0.009960, 0.004049,-0.009271, 0.036908,1, 0.000618,-0.000519,-0.000432,1,-0.129591, 0.126631, 9.804976,1,1
1778252082925,  2347.608,  2347.608, 0.013612,-0.012814,-0.995942, 0.000137,-0.000129,-0.009957, 0.003912, 0.001020, 0.038118,1, 0.000101,-0.000024, 0.000114,1,-0.129571, 0.126684, 9.804976,1,1
1778252082946,  2347.633,  2347.628, 0.013294,-0.012212,-0.995963, 0.000134,-0.000123,-0.009956,-0.005935, 0.000076, 0.035439,1,-0.000116,-0.000193,-0.000185,1,-0.129565, 0.126696, 9.804976,1,1
1778252082969,  2347.658,  2347.653, 0.013155,-0.012506,-0.995995, 0.000132,-0.000128,-0.009960,-0.000585, 0.004039, 0.037602,1,-0.000685,-0.000106, 0.000003,1,-0.129591, 0.126662, 9.804976,1,1
1778252082995,  2347.678,  2347.678, 0.013455,-0.013016,-0.995728, 0.000133,-0.000129,-0.009955, 0.002284,-0.001139, 0.040220,1,-0.000630, 0.000108,-0.000482,1,-0.129670, 0.126485, 9.804976,1,1
1778252083016,  2347.703,  2347.698, 0.013269,-0.013053,-0.995888, 0.000132,-0.000129,-0.009962, 0.000300,-0.003355, 0.036762,1,-0.000583,-0.000323, 0.000184,1,-0.129564, 0.126473, 9.804978,1,1
1778252083039,  2347.728,  2347.723, 0.012911,-0.012780,-0.995767, 0.000130,-0.000126,-0.009959,-0.003097, 0.001052, 0.039837,1, 0.000369, 0.000277, 0.000031,1,-0.129719, 0.126396, 9.804977,1,1
1778252083065,  2347.748,  2347.748, 0.012976,-0.012853,-0.995866, 0.000131,-0.000130,-0.009960,-0.002481, 0.000292, 0.038869,1,-0.000796,-0.000031,-0.000030,1,-0.129731, 0.126309, 9.804978,1,1
1778252083086,  2347.773,  2347.768, 0.013246,-0.012995,-0.996046, 0.000135,-0.000131,-0.009965,-0.003440,-0.004277, 0.041534,1, 0.000195,-0.000125,-0.000519,1,-0.129725, 0.126335, 9.804978,1,1
1778252083109,  2347.798,  2347.793, 0.013479,-0.012760,-0.995727, 0.000135,-0.000126,-0.009954, 0.002502, 0.001179, 0.040235,1,-0.000261,-0.000647, 0.000075,1,-0.129663, 0.126302, 9.804979,1,1
1778252083135,  2347.818,  2347.818, 0.013306,-0.012828,-0.996631, 0.000134,-0.000132,-0.009964, 0.000735, 0.000533, 0.031361,1,-0.000315, 0.000161,-0.000359,1,-0.129756, 0.126320, 9.804977,1,1
1778252083156,  2347.843,  2347.838, 0.013179,-0.012545,-0.996165, 0.000131,-0.000124,-0.009961,-0.005892, 0.003761, 0.037522,1,-0.000984,-0.000257, 0.000234,1,-0.129712, 0.126219, 9.804979,1,1
1778252083179,  2347.868,  2347.863, 0.013439,-0.012852,-0.994800, 0.000132,-0.000129,-0.009952, 0.002026, 0.000167, 0.049326,1,-0.000288, 0.000060,-0.000420,1,-0.129766, 0.126198, 9.804979,1,1
1778252083205,  2347.888,  2347.888, 0.012898,-0.013255,-0.996307, 0.000127,-0.000133,-0.009962,-0.003289,-0.003773, 0.034545,1,-0.000660, 0.000623,-0.000555,1,-0.129798, 0.126198, 9.804979,1,1
1778252083227,  2347.913,  2347.908, 0.012768,-0.013038,-0.996519, 0.000130,-0.000130,-0.009961,-0.000499,-0.000617, 0.045479,1, 0.000084, 0.001018, 0.000227,1,-0.129833, 0.126189, 9.804978,1,1
1778252083253,  2347.938,  2347.938, 0.013011,-0.012780,-0.995511, 0.000132,-0.000132,-0.009953,-0.002290, 0.000989, 0.042352,1, 0.000515, 0.000102, 0.000449,1,-0.129890, 0.126331, 9.804976,1,1
1778252083275,  2347.958,  2347.958, 0.013999,-0.013193,-0.996769, 0.000138,-0.000132,-0.009964, 0.007383,-0.003022, 0.030010,1,-0.000542,-0.000338,-0.000339,1,-0.129891, 0.126342, 9.804976,1,1
1778252083297,  2347.983,  2347.978, 0.013736,-0.012962,-0.995994, 0.000135,-0.000128,-0.009959, 0.001072,-0.001436, 0.040492,1,-0.000324,-0.000353, 0.000199,1,-0.129851, 0.126324, 9.804976,1,1
1778252083324,  2348.008,  2348.008, 0.012722,-0.013030,-0.995800, 0.000129,-0.000129,-0.009962,-0.005151,-0.001489, 0.039514,1, 0.000071,-0.000303, 0.000241,1,-0.129903, 0.126290, 9.804976,1,1
1778252083345,  2348.033,  2348.028, 0.013511,-0.013864,-0.995737, 0.000135,-0.000137,-0.009960, 0.002857, 0.002633, 0.041039,1, 0.000159,-0.000239,-0.000193,1,-0.129853, 0.126185, 9.804978,1,1
1778252083367,  2348.053,  2348.048, 0.013448,-0.013069,-0.994861, 0.000134,-0.000128,-0.009951, 0.002605, 0.000323, 0.040012,1, 0.000197, 0.000435, 0.000244,1,-0.129893, 0.126334, 9.804976,1,1
1778252083394,  2348.078,  2348.078, 0.013651,-0.013586,-0.996030, 0.000135,-0.000132,-0.009961, 0.003881,-0.006853, 0.037255,1, 0.000607, 0.000550,-0.000116,1,-0.130006, 0.126398, 9.804974,1,1
1778252083415,  2348.103,  2348.098, 0.012886,-0.013018,-0.996035, 0.000129,-0.000130,-0.009960, 0.002161, 0.002107, 0.032894,1, 0.000020, 0.000174,-0.000315,1,-0.130053, 0.126332, 9.804974,1,1
1778252083437,  2348.123,  2348.118, 0.012992,-0.012731,-0.995392, 0.000130,-0.000127,-0.009955,-0.002473, 0.001033, 0.035950,1,-0.000059,-0.000164, 0.000207,1,-0.130059, 0.126222, 9.804976,1,1
1778252083465,  2348.148,  2348.148, 0.013346,-0.013532,-0.996307, 0.000131,-0.000133,-0.009962, 0.000765,-0.006527, 0.034537,1, 0.000625, 0.000430,-0.000297,1,-0.130131, 0.126198, 9.804975,1,1
1778252083485,  2348.173,  2348.168, 0.013497,-0.012959,-0.995590, 0.000135,-0.000131,-0.009954, 0.005705,-0.000006, 0.047041,1,-0.000134, 0.000200,-0.000212,1,-0.130157, 0.126292, 9.804973,1,1
1778252083507,  2348.193,  2348.188, 0.012752,-0.012380,-0.995976, 0.000126,-0.000126,-0.009957,-0.002881,-0.003434, 0.036747,1, 0.000085,-0.000233,-0.000128,1,-0.130201, 0.126357, 9.804972,1,1
1778252083534,  2348.218,  2348.218, 0.013242,-0.013245,-0.995724, 0.000133,-0.000134,-0.009954,-0.000415,-0.003530, 0.040255,1,-0.000993, 0.000687, 0.000261,1,-0.130294, 0.126332, 9.804971,1,1
1778252083555,  2348.243,  2348.238, 0.013517,-0.013195,-0.995600, 0.000137,-0.000132,-0.009956, 0.004067,-0.001604, 0.039891,1, 0.000359, 0.000455,-0.000446,1,-0.130373, 0.126405, 9.804969,1,1
1778252083577,  2348.263,  2348.258, 0.013504,-0.013461,-0.996415, 0.000134,-0.000133,-0.009962,-0.001238,-0.000209, 0.039739,1, 0.000771,-0.000339, 0.000414,1,-0.130330, 0.126544, 9.804967,1,1
1778252083604,  2348.288,  2348.288, 0.012900,-0.012951,-0.994930, 0.000128,-0.000125,-0.009951,-0.003803,-0.000435, 0.048040,1,-0.000054, 0.000050,-0.000320,1,-0.130310, 0.126566, 9.804967,1,1
1778252083625,  2348.313,  2348.308, 0.013054,-0.012856,-0.996400, 0.000132,-0.000130,-0.009965,-0.006322,-0.004283, 0.034420,1,-0.000057,-0.000938,-0.000276,1,-0.130267, 0.126547, 9.804968,1,1
1778252083647,  2348.333,  2348.328, 0.013563,-0.013009,-0.995836, 0.000134,-0.000131,-0.009957,-0.004277, 0.006621, 0.044281,1, 0.000115, 0.000157, 0.000672,1,-0.130297, 0.126615, 9.804967,1,1
1778252083674,  2348.358,  2348.358, 0.013111,-0.013314,-0.995348, 0.000134,-0.000130,-0.009955,-0.001797,-0.003998, 0.043937,1, 0.000460, 0.000110,-0.000220,1,-0.130376, 0.126585, 9.804966,1,1
1778252083696,  2348.383,  2348.378, 0.013503,-0.013314,-0.996042, 0.000131,-0.000131,-0.009962, 0.000119,-0.001341, 0.039206,1, 0.000379, 0.000678,-0.000202,1,-0.130452, 0.126637, 9.804964,1,1
1778252083717,  2348.403,  2348.398, 0.013060,-0.012570,-0.995527, 0.000128,-0.000126,-0.009956,-0.006511, 0.000853, 0.042880,1, 0.000553,-0.000179,-0.000189,1,-0.130499, 0.126685, 9.804963,1,1
1778252083744,  2348.428,  2348.428, 0.013830,-0.013383,-0.995672, 0.000136,-0.000135,-0.009957, 0.005172,-0.004528, 0.040758,1,-0.000296,-0.000080, 0.000194,1,-0.130452, 0.126707, 9.804964,1,1
1778252083766,  2348.453,  2348.448, 0.013356,-0.013215,-0.995824, 0.000136,-0.000136,-0.009961, 0.003492,-0.013711, 0.031364,1, 0.000377, 0.000900,-0.000026,1,-0.130556, 0.126828, 9.804960,1,1
1778252083789,  2348.473,  2348.473, 0.012836,-0.013081,-0.995694, 0.000128,-0.000128,-0.009952,-0.004658,-0.001487, 0.040534,1, 0.000100,-0.000119, 0.000006,1,-0.130537, 0.126798, 9.804961,1,1
1778252083814,  2348.498,  2348.498, 0.013102,-0.012588,-0.995569, 0.000131,-0.000127,-0.009958,-0.001995, 0.003394, 0.041769,1, 0.000230,-0.000355,-0.000075,1,-0.130469, 0.126849, 9.804961,1,1
1778252083836,  2348.523,  2348.518, 0.013479,-0.013500,-0.996551, 0.000134,-0.000138,-0.009968, 0.002088,-0.000695, 0.037756,1,-0.000288, 0.000048,-0.000329,1,-0.130522, 0.126830, 9.804961,1,1
1778252083859,  2348.543,  2348.543, 0.013030,-0.013075,-0.995348, 0.000129,-0.000129,-0.009951,-0.002762,-0.001422, 0.043927,1, 0.000494, 0.000241,-0.000305,1,-0.130549, 0.126814, 9.804961,1,1
1778252083884,  2348.568,  2348.568, 0.013704,-0.012857,-0.995299, 0.000133,-0.000131,-0.009956, 0.003818, 0.000739, 0.044415,1, 0.000142, 0.000147,-0.000420,1,-0.130580, 0.126832, 9.804960,1,1
1778252083906,  2348.593,  2348.588, 0.012867,-0.013303,-0.996815, 0.000130,-0.000133,-0.009970, 0.002111,-0.001202, 0.036465,1, 0.000426,-0.000014,-0.000314,1,-0.130627, 0.126846, 9.804959,1,1
1778252083929,  2348.613,  2348.613, 0.012988,-0.012958,-0.995713, 0.000128,-0.000127,-0.009955,-0.003205,-0.000229, 0.040348,1,-0.000438,-0.000098, 0.000203,1,-0.130568, 0.126836, 9.804960,1,1
1778252083954,  2348.638,  2348.638, 0.013480,-0.012866,-0.995264, 0.000135,-0.000132,-0.009956, 0.001586, 0.000662, 0.044756,1,-0.000115,-0.000253,-0.000085,1,-0.130603, 0.126828, 9.804960,1,1
1778252083976,  2348.663,  2348.658, 0.012651,-0.013474,-0.997073, 0.000131,-0.000136,-0.009968,-0.004579,-0.002109, 0.035790,1,-0.000300, 0.000472,-0.000285,1,-0.130584, 0.126862, 9.804960,1,1
1778252083999,  2348.683,  2348.683, 0.013254,-0.012653,-0.994883, 0.000133,-0.000127,-0.009948,-0.000518, 0.002868, 0.048489,1, 0.000150, 0.000360,-0.000484,1,-0.130506, 0.126958, 9.804959,1,1
1778252084024,  2348.708,  2348.708, 0.013598,-0.013348,-0.995725, 0.000136,-0.000134,-0.009960, 0.002799,-0.003932, 0.040231,1, 0.000158,-0.000018,-0.000571,1,-0.130554, 0.126974, 9.804959,1,1
1778252084046,  2348.733,  2348.728, 0.012780,-0.013796,-0.996324, 0.000129,-0.000137,-0.009962,-0.000795,-0.003549, 0.045064,1,-0.000201,-0.000154,-0.000126,1,-0.130548, 0.126908, 9.804959,1,1
1778252084069,  2348.753,  2348.753, 0.013123,-0.012375,-0.995457, 0.000132,-0.000123,-0.009954,-0.001781, 0.005572, 0.042862,1, 0.000400,-0.000046,-0.000332,1,-0.130475, 0.126942, 9.804960,1,1
1778252084095,  2348.778,  2348.778, 0.013870,-0.013370,-0.996236, 0.000141,-0.000131,-0.009967, 0.005554,-0.004166, 0.035221,1, 0.000002,-0.000526,-0.000344,1,-0.130451, 0.126953, 9.804960,1,1
1778252084116,  2348.803,  2348.798, 0.013398,-0.012488,-0.996165, 0.000135,-0.000129,-0.009961,-0.005074,-0.002475, 0.038343,1, 0.000031,-0.000237,-0.000078,1,-0.130378, 0.126964, 9.804961,1,1
1778252084139,  2348.828,  2348.823, 0.013137,-0.012872,-0.995905, 0.000130,-0.000128,-0.009957,-0.001464, 0.000719, 0.038468,1, 0.000297, 0.000705, 0.000425,1,-0.130319, 0.126958, 9.804962,1,1
1778252084165,  2348.848,  2348.848, 0.013211,-0.012685,-0.995832, 0.000132,-0.000129,-0.009959,-0.000776, 0.002612, 0.039182,1,-0.000141,-0.000673,-0.000144,1,-0.130306, 0.127028, 9.804961,1,1
1778252084186,  2348.873,  2348.868, 0.013291,-0.012818,-0.995959, 0.000133,-0.000129,-0.009960, 0.001124, 0.002146, 0.036084,1, 0.000156,-0.000454,-0.000038,1,-0.130317, 0.127064, 9.804961,1,1
1778252084209,  2348.898,  2348.893, 0.013279,-0.012602,-0.995829, 0.000132,-0.000126,-0.009958,-0.000149, 0.003589, 0.039207,1, 0.000497,-0.000155,-0.000640,1,-0.130363, 0.127189, 9.804958,1,1
1778252084235,  2348.918,  2348.918, 0.012559,-0.013089,-0.995751, 0.000125,-0.000130,-0.009957,-0.007190,-0.001172, 0.039979,1,-0.000101, 0.000511, 0.000372,1,-0.130367, 0.127184, 9.804958,1,1
1778252084256,  2348.943,  2348.938, 0.013268,-0.013174,-0.996259, 0.000132,-0.000130,-0.009965, 0.000468,-0.005793, 0.034320,1, 0.000005, 0.000198,-0.000179,1,-0.130447, 0.127195, 9.804957,1,1
1778252084279,  2348.968,  2348.963, 0.013134,-0.012754,-0.995895, 0.000129,-0.000127,-0.009958,-0.001648, 0.002090, 0.038563,1,-0.000408, 0.000323, 0.000155,1,-0.130455, 0.127156, 9.804957,1,1
1778252084305,  2348.988,  2348.988, 0.012979,-0.013186,-0.995868, 0.000131,-0.000131,-0.009961,-0.003163,-0.002212, 0.038833,1,-0.000193,-0.000113,-0.000587,1,-0.130443, 0.127089, 9.804958,1,1
1778252084326,  2349.013,  2349.008, 0.013977,-0.013550,-0.996306, 0.000141,-0.000137,-0.009964,-0.001517,-0.003597, 0.028661,1, 0.000343, 0.000421, 0.000054,1,-0.130490, 0.127079, 9.804958,1,1
1778252084349,  2349.038,  2349.033, 0.012646,-0.013038,-0.995688, 0.000127,-0.000129,-0.009955,-0.006405,-0.000753, 0.040592,1, 0.000062, 0.000281, 0.000458,1,-0.130427, 0.127107, 9.804958,1,1
1778252084375,  2349.058,  2349.058, 0.013142,-0.013038,-0.995622, 0.000133,-0.000131,-0.009959,-0.001549,-0.000758, 0.041244,1,-0.000214,-0.000467, 0.000221,1,-0.130415, 0.127099, 9.804959,1,1
1778252084396,  2349.083,  2349.078, 0.013329,-0.013244,-0.996482, 0.000133,-0.000134,-0.009967, 0.001328,-0.001121, 0.045244,1, 0.000812, 0.000541,-0.000101,1,-0.130506, 0.127151, 9.804957,1,1
1778252084419,  2349.108,  2349.103, 0.013463,-0.012491,-0.995870, 0.000133,-0.000126,-0.009957, 0.001503, 0.004616, 0.038806,1,-0.000744, 0.000044,-0.000507,1,-0.130529, 0.127086, 9.804957,1,1
1778252084445,  2349.128,  2349.128, 0.013225,-0.013444,-0.997233, 0.000133,-0.000136,-0.009969,-0.000860,-0.004763, 0.025443,1,-0.000355,-0.000711, 0.000036,1,-0.130526, 0.127068, 9.804958,1,1
1778252084467,  2349.153,  2349.148, 0.012919,-0.013547,-0.996486, 0.000130,-0.000134,-0.009965,-0.003582, 0.003502, 0.041972,1,-0.000047, 0.000408, 0.000270,1,-0.130514, 0.127149, 9.804957,1,1
1778252084494,  2349.178,  2349.178, 0.013462,-0.012462,-0.995334, 0.000136,-0.000123,-0.009956, 0.001536, 0.004837, 0.044064,1,-0.000070,-0.000482,-0.000145,1,-0.130464, 0.127047, 9.804959,1,1
1778252084515,  2349.198,  2349.198, 0.012978,-0.013741,-0.996639, 0.000130,-0.000137,-0.009968,-0.003197,-0.007692, 0.031269,1, 0.000593, 0.000029,-0.000067,1,-0.130470, 0.127082, 9.804958,1,1
1778252084537,  2349.223,  2349.218, 0.013143,-0.012567,-0.996000, 0.000130,-0.000129,-0.009960,-0.005024, 0.002436, 0.048957,1, 0.000407, 0.000328, 0.000372,1,-0.130474, 0.127118, 9.804958,1,1
1778252084564,  2349.248,  2349.248, 0.013270,-0.013070,-0.995207, 0.000132,-0.000133,-0.009956,-0.000312,-0.000971, 0.045312,1, 0.000435, 0.000046, 0.001007,1,-0.130441, 0.127233, 9.804957,1,1
1778252084585,  2349.273,  2349.268, 0.013514,-0.013182,-0.996190, 0.000134,-0.000131,-0.009965, 0.000747,-0.005830, 0.031133,1, 0.000841,-0.000132, 0.000470,1,-0.130412, 0.127303, 9.804956,1,1
1778252084607,  2349.293,  2349.288, 0.013330,-0.012804,-0.995061, 0.000132,-0.000126,-0.009952,-0.000314, 0.001719, 0.041386,1, 0.000398, 0.000251,-0.000161,1,-0.130443, 0.127329, 9.804955,1,1
1778252084634,  2349.318,  2349.318, 0.013803,-0.012794,-0.996242, 0.000136,-0.000132,-0.009967, 0.004880, 0.002008, 0.035160,1, 0.000559,-0.000895,-0.000115,1,-0.130455, 0.127489, 9.804954,1,1
1778252084655,  2349.343,  2349.338, 0.013862,-0.013656,-0.996489, 0.000136,-0.000137,-0.009965, 0.000319,-0.006168, 0.049231,1, 0.000691, 0.000312, 0.000012,1,-0.130485, 0.127457, 9.804954,1,1
1778252084677,  2349.363,  2349.358, 0.012443,-0.012709,-0.994836, 0.000125,-0.000126,-0.009948,-0.000460,-0.005994, 0.046489,1, 0.000061,-0.000052, 0.000138,1,-0.130519, 0.127415, 9.804954,1,1
1778252084704,  2349.388,  2349.388, 0.013665,-0.012985,-0.997008, 0.000137,-0.000133,-0.009968, 0.003490, 0.000178, 0.027639,1, 0.000084,-0.000076, 0.000107,1,-0.130513, 0.127519, 9.804953,1,1
1778252084725,  2349.413,  2349.408, 0.013486,-0.013649,-0.995979, 0.000133,-0.000136,-0.009960, 0.000791, 0.003869, 0.045598,1,-0.000233,-0.001119,-0.000300,1,-0.130450, 0.127596, 9.804952,1,1
1778252084747,  2349.433,  2349.428, 0.013587,-0.012918,-0.995376, 0.000134,-0.000129,-0.009954, 0.008526,-0.001166, 0.034917,1,-0.000808, 0.000092,-0.000275,1,-0.130521, 0.127624, 9.804951,1,1
1778252084774,  2349.458,  2349.458, 0.012936,-0.012966,-0.996336, 0.000130,-0.000130,-0.009960,-0.003655, 0.000501, 0.034233,1, 0.000145,-0.000053,-0.000495,1,-0.130513, 0.127664, 9.804951,1,1
1778252084795,  2349.483,  2349.478, 0.012828,-0.012890,-0.995979, 0.000129,-0.000127,-0.009958,-0.004681, 0.001884, 0.044821,1,-0.000205, 0.000160,-0.000120,1,-0.130527, 0.127592, 9.804951,1,1
1778252084817,  2349.503,  2349.498, 0.013409,-0.013125,-0.995810, 0.000134,-0.000133,-0.009960, 0.002323,-0.005973, 0.037999,1, 0.000077,-0.000254, 0.000136,1,-0.130521, 0.127536, 9.804952,1,1
1778252084844,  2349.528,  2349.528, 0.013714,-0.013041,-0.996076, 0.000138,-0.000131,-0.009961, 0.003952,-0.000416, 0.036782,1,-0.000477, 0.000549,-0.000020,1,-0.130554, 0.127458, 9.804953,1,1
1778252084866,  2349.553,  2349.548, 0.013222,-0.012792,-0.995828, 0.000132,-0.000128,-0.009958,-0.002348, 0.006025, 0.042599,1,-0.001531,-0.000027, 0.000542,1,-0.130487, 0.127297, 9.804955,1,1
1778252084887,  2349.573,  2349.568, 0.013080,-0.012985,-0.996340, 0.000132,-0.000128,-0.009963, 0.002663, 0.000792, 0.035294,1,-0.000119, 0.000195,-0.000232,1,-0.130459, 0.127306, 9.804955,1,1
1778252084914,  2349.598,  2349.598, 0.013549,-0.012705,-0.996304, 0.000135,-0.000128,-0.009961, 0.002355, 0.002789, 0.034552,1, 0.000507, 0.000392, 0.000103,1,-0.130528, 0.127396, 9.804954,1,1
1778252084936,  2349.623,  2349.618, 0.013111,-0.012865,-0.995233, 0.000132,-0.000129,-0.009953,-0.000440,-0.002494, 0.040995,1, 0.000257,-0.000488,-0.000329,1,-0.130560, 0.127431, 9.804953,1,1
1778252084957,  2349.643,  2349.638, 0.013164,-0.012497,-0.996072, 0.000131,-0.000128,-0.009960,-0.005447, 0.002832, 0.043056,1, 0.000113,-0.000383,-0.000334,1,-0.130504, 0.127466, 9.804954,1,1
1778252084984,  2349.668,  2349.668, 0.013066,-0.012928,-0.995674, 0.000130,-0.000130,-0.009955,-0.002361, 0.000741, 0.040728,1,-0.000247, 0.000225,-0.000164,1,-0.130499, 0.127519, 9.804953,1,1
1778252085006,  2349.693,  2349.688, 0.013739,-0.012964,-0.995914, 0.000136,-0.000129,-0.009961, 0.001464,-0.000118, 0.036948,1, 0.000191, 0.000292,-0.000295,1,-0.130600, 0.127585, 9.804951,1,1
1778252085028,  2349.713,  2349.713, 0.012542,-0.013081,-0.995743, 0.000127,-0.000129,-0.009955,-0.007550,-0.000733, 0.040045,1, 0.000264,-0.000936,-0.000503,1,-0.130514, 0.127557, 9.804952,1,1
1778252085054,  2349.738,  2349.738, 0.012964,-0.013052,-0.995183, 0.000131,-0.000133,-0.009953,-0.003321,-0.000410, 0.045541,1, 0.000214,-0.000211, 0.000361,1,-0.130449, 0.127592, 9.804953,1,1
1778252085076,  2349.763,  2349.758, 0.013238,-0.013820,-0.995404, 0.000134,-0.000135,-0.009957,-0.000493,-0.002193, 0.040879,1,-0.000491,-0.000028,-0.000733,1,-0.130451, 0.127566, 9.804953,1,1
1778252085099,  2349.783,  2349.783, 0.013804,-0.012460,-0.995446, 0.000137,-0.000127,-0.009953, 0.004967, 0.005364, 0.042962,1, 0.000193, 0.000641, 0.000150,1,-0.130420, 0.127563, 9.804953,1,1
1778252085124,  2349.808,  2349.808, 0.013019,-0.013149,-0.995724, 0.000131,-0.000134,-0.009960,-0.002716,-0.001419, 0.040233,1, 0.000270, 0.000032, 0.000151,1,-0.130390, 0.127536, 9.804954,1,1
1778252085146,  2349.833,  2349.828, 0.013448,-0.013296,-0.996405, 0.000132,-0.000131,-0.009962,-0.003091,-0.000027, 0.040295,1, 0.000146, 0.000105,-0.000085,1,-0.130384, 0.127593, 9.804953,1,1
1778252085169,  2349.853,  2349.853, 0.012814,-0.011703,-0.995057, 0.000130,-0.000121,-0.009951,-0.004801, 0.012828, 0.046777,1, 0.000442,-0.000116,-0.000277,1,-0.130461, 0.127612, 9.804952,1,1
1778252085194,  2349.878,  2349.878, 0.013276,-0.013026,-0.996356, 0.000132,-0.000130,-0.009962,-0.000311,-0.000176, 0.034032,1,-0.000389, 0.000233,-0.000159,1,-0.130514, 0.127557, 9.804952,1,1
1778252085216,  2349.903,  2349.898, 0.012864,-0.013457,-0.995680, 0.000130,-0.000133,-0.009957, 0.000696,-0.001532, 0.051119,1, 0.000192,-0.000418,-0.000438,1,-0.130376, 0.127555, 9.804954,1,1
1778252085239,  2349.923,  2349.923, 0.013891,-0.012969,-0.995788, 0.000140,-0.000129,-0.009960, 0.005811, 0.000385, 0.039610,1, 0.000117,-0.000046,-0.000180,1,-0.130412, 0.127571, 9.804953,1,1
1778252085264,  2349.948,  2349.948, 0.012951,-0.012941,-0.996019, 0.000133,-0.000128,-0.009960,-0.003481, 0.000721, 0.037338,1,-0.000480, 0.000661, 0.000014,1,-0.130509, 0.127613, 9.804951,1,1
1778252085286,  2349.973,  2349.968, 0.012479,-0.014868,-0.993339, 0.000124,-0.000147,-0.009942,-0.004381,-0.001996, 0.014065,1,-0.000457, 0.000402, 0.000696,1,-0.130603, 0.127528, 9.804951,1,1
1778252085309,  2349.993,  2349.993, 0.013826,-0.014688,-0.995197, 0.000139,-0.000141,-0.009953, 0.004974,-0.016445, 0.045400,1, 0.001420, 0.000173, 0.000556,1,-0.130620, 0.127642, 9.804949,1,1
1778252085335,  2350.018,  2350.018, 0.013704,-0.013480,-0.996460, 0.000143,-0.000130,-0.009977, 0.003813,-0.004669, 0.033020,1,-0.000153,-0.000492, 0.000034,1,-0.130567, 0.127522, 9.804952,1,1
1778252085356,  2350.043,  2350.038, 0.014839,-0.007919,-0.997855, 0.000142,-0.000076,-0.009960,-0.003260, 0.074401, 0.066333,1, 0.001948, 0.000537,-0.000481,1,-0.130688, 0.127493, 9.804951,1,1
1778252085379,  2350.068,  2350.063, 0.009236, 0.009712,-0.995499, 0.000107, 0.000090,-0.009957,-0.040501, 0.222829, 0.042438,1, 0.004527, 0.003616,-0.005187,1,-0.131193, 0.127729, 9.804940,1,1
1778252085405,  2350.088,  2350.088, 0.013041,-0.024644,-1.001845, 0.000098,-0.000210,-0.010105,-0.003678,-0.113917,-0.019814,1,-0.003896, 0.000057,-0.007955,1,-0.131570, 0.127634, 9.804936,1,1
1778252085426,  2350.113,  2350.108,-0.001947,-0.032150,-1.013952, 0.000060,-0.000413,-0.010113,-0.147701,-0.254359, 0.020469,1,-0.000179, 0.006457,-0.000320,1,-0.132066, 0.126290, 9.804948,1,1
1778252085449,  2350.138,  2350.133, 0.008976, 0.003324,-0.998005, 0.000100,-0.000062,-0.009972,-0.044687, 0.158293, 0.017862,1,-0.010752,-0.005613, 0.003313,1,-0.132533, 0.125359, 9.804953,1,1
1778252085475,  2350.158,  2350.158, 0.021094, 0.000316,-1.013668, 0.000159, 0.000081,-0.010018, 0.073916, 0.128842,-0.135741,1, 0.004025, 0.004724,-0.002945,1,-0.133092, 0.125866, 9.804939,1,1
1778252085496,  2350.183,  2350.178, 0.038139,-0.018098,-0.964978, 0.000320,-0.000062,-0.009785, 0.138682, 0.344494,-0.044397,1,-0.013041, 0.000533,-0.007070,1,-0.133071, 0.125483, 9.804944,1,1
1778252085519,  2350.208,  2350.203, 0.021871,-0.022278,-0.967018, 0.000392,-0.000220,-0.010004, 0.082890,-0.091520, 0.321737,1, 0.030862,-0.008989,-0.002893,1,-0.131310, 0.127913, 9.804936,1,1
1778252085545,  2350.228,  2350.228, 0.001862,-0.019836,-0.958892, 0.000053,-0.000126,-0.009674,-0.114430,-0.068597, 0.401427,1,-0.000048,-0.012012,-0.000280,1,-0.132314, 0.125922, 9.804949,1,1
1778252085566,  2350.253,  2350.248, 0.010532,-0.038198,-1.015312, 0.000052,-0.000356,-0.010171,-0.032147,-0.468756,-0.080061,1, 0.007129, 0.014643, 0.004145,1,-0.133160, 0.126145, 9.804935,1,1
1778252085589,  2350.278,  2350.273,-0.001180,-0.005649,-0.982097,-0.000016,-0.000130,-0.009807,-0.144164, 0.069581, 0.173877,1,-0.009707,-0.002243, 0.006815,1,-0.132521, 0.124680, 9.804962,1,1
1778252085615,  2350.298,  2350.298, 0.002189, 0.001817,-1.000397, 0.000024, 0.000040,-0.009988,-0.112113, 0.143395,-0.005608,1, 0.006146, 0.007788, 0.001409,1,-0.133827, 0.125773, 9.804930,1,1
1778252085637,  2350.323,  2350.318, 0.019271,-0.004457,-0.988033, 0.000192,-0.000018,-0.009882,-0.038368, 0.173730, 0.132192,1,-0.007292,-0.004861,-0.006090,1,-0.133095, 0.124650, 9.804955,1,1
1778252085659,  2350.348,  2350.343, 0.021057,-0.013137,-1.007576, 0.000217,-0.000111,-0.010092, 0.072808,-0.003440,-0.076006,1, 0.004884, 0.001483,-0.003035,1,-0.133734, 0.125538, 9.804935,1,1
1778252085685,  2350.368,  2350.368, 0.024261,-0.017283,-0.991426, 0.000254,-0.000179,-0.009933, 0.104682,-0.044718, 0.082378,1,-0.000674,-0.004369,-0.000132,1,-0.133103, 0.124751, 9.804953,1,1
1778252085707,  2350.393,  2350.388, 0.015851,-0.014686,-1.013943, 0.000164,-0.000150,-0.010163, 0.050022,-0.002319,-0.030272,1, 0.002321, 0.004872,-0.000893,1,-0.133952, 0.125470, 9.804933,1,1
1778252085734,  2350.418,  2350.418, 0.010011,-0.003074,-0.981633, 0.000101,-0.000037,-0.009810,-0.034906, 0.094715, 0.178419,1, 0.000940, 0.000522,-0.002317,1,-0.133099, 0.124893, 9.804952,1,1
1778252085755,  2350.438,  2350.438, 0.007721,-0.021361,-1.016446, 0.000074,-0.000217,-0.010154,-0.057807,-0.083661,-0.162997,1, 0.000029, 0.000816,-0.001456,1,-0.133554, 0.125820, 9.804934,1,1
1778252085777,  2350.463,  2350.458, 0.010641,-0.021458,-0.987191, 0.000104,-0.000194,-0.009843,-0.052714,-0.020553, 0.191620,1,-0.001361,-0.000781, 0.001063,1,-0.132466, 0.125232, 9.804955,1,1
1778252085804,  2350.488,  2350.488, 0.015931,-0.020123,-1.003307, 0.000161,-0.000216,-0.010083, 0.023202,-0.071631,-0.034138,1,-0.003828,-0.002997, 0.002137,1,-0.132938, 0.125589, 9.804945,1,1
1778252085825,  2350.513,  2350.508, 0.014681,-0.010056,-1.003168, 0.000143,-0.000082,-0.010009, 0.005611, 0.080950, 0.133523,1, 0.000993, 0.001672, 0.002072,1,-0.132879, 0.125034, 9.804953,1,1
1778252085847,  2350.533,  2350.528, 0.015796,-0.001252,-0.988082, 0.000162,-0.000005,-0.009924, 0.040371, 0.066937,-0.109259,1,-0.004244,-0.000576, 0.001802,1,-0.133424, 0.125261, 9.804942,1,1
1778252085874,  2350.558,  2350.558, 0.016236,-0.009753,-0.995966, 0.000164,-0.000083,-0.009945, 0.026075, 0.029485, 0.037857,1, 0.005894, 0.002787,-0.001844,1,-0.133229, 0.125312, 9.804944,1,1
1778252085895,  2350.583,  2350.578, 0.011693,-0.010310,-0.985381, 0.000122,-0.000113,-0.009849, 0.008796,-0.007473, 0.026462,1,-0.002171,-0.004425,-0.001607,1,-0.132982, 0.125203, 9.804949,1,1
1778252085917,  2350.603,  2350.598, 0.011682,-0.017413,-1.004950, 0.000116,-0.000174,-0.010037,-0.020827,-0.011000, 0.089604,1, 0.003674, 0.002691,-0.002187,1,-0.132905, 0.125380, 9.804948,1,1
1778252085944,  2350.628,  2350.628, 0.011365,-0.012917,-0.987985, 0.000110,-0.000132,-0.009898,-0.021341,-0.001372, 0.116128,1,-0.003171,-0.001813,-0.001256,1,-0.132733, 0.125205, 9.804953,1,1
1778252085965,  2350.653,  2350.648, 0.014615,-0.015444,-1.007032, 0.000145,-0.000159,-0.010070, 0.003011,-0.025074, 0.015686,1, 0.003040, 0.002736,-0.000316,1,-0.133013, 0.125718, 9.804942,1,1
1778252085987,  2350.673,  2350.668, 0.012341,-0.010343,-0.987431, 0.000123,-0.000107,-0.009866,-0.003204,-0.003519, 0.064814,1,-0.002653,-0.002673,-0.000686,1,-0.132807, 0.125453, 9.804948,1,1
1778252086014,  2350.698,  2350.698, 0.014211,-0.018598,-1.004455, 0.000138,-0.000187,-0.010039, 0.006224,-0.056522,-0.045402,1, 0.001006, 0.000977,-0.000110,1,-0.133169, 0.125896, 9.804937,1,1
1778252086035,  2350.723,  2350.718, 0.012702,-0.012368,-0.991166, 0.000128,-0.000116,-0.009898,-0.014359, 0.005172, 0.117121,1,-0.002349,-0.001317, 0.001371,1,-0.132728, 0.125535, 9.804948,1,1
1778252086057,  2350.743,  2350.738, 0.015419,-0.013817,-1.001117, 0.000144,-0.000141,-0.010034, 0.005142,-0.025857,-0.024610,1, 0.000944, 0.001554, 0.001183,1,-0.133070, 0.125810, 9.804940,1,1
1778252086084,  2350.768,  2350.768, 0.014879,-0.007876,-0.986610, 0.000133,-0.000073,-0.009855, 0.013068, 0.048280, 0.129603,1, 0.000631, 0.002092, 0.000294,1,-0.132907, 0.125535, 9.804946,1,1
1778252086106,  2350.793,  2350.788, 0.016922,-0.010095,-0.991993, 0.000153,-0.000102,-0.009968, 0.026679,-0.000276,-0.044804,1,-0.001030,-0.000592,-0.000553,1,-0.133176, 0.125815, 9.804938,1,1
1778252086127,  2350.813,  2350.808, 0.013971,-0.013676,-0.996465, 0.000138,-0.000125,-0.009930, 0.011918, 0.050163, 0.112409,1, 0.000102, 0.000469,-0.000753,1,-0.132826, 0.125573, 9.804946,1,1
1778252086154,  2350.838,  2350.838, 0.012196,-0.012515,-0.998752, 0.000130,-0.000137,-0.009991,-0.013158, 0.003236, 0.010526,1,-0.002203,-0.001670,-0.000183,1,-0.132711, 0.125899, 9.804944,1,1
1778252086176,  2350.863,  2350.858, 0.013183,-0.014802,-1.000426, 0.000131,-0.000135,-0.010015,-0.018726, 0.026243, 0.054740,1, 0.000647, 0.002171,-0.001184,1,-0.132889, 0.126047, 9.804939,1,1
1778252086197,  2350.883,  2350.878, 0.014250,-0.014874,-0.996601, 0.000138,-0.000150,-0.009968, 0.019399,-0.060909, 0.016738,1,-0.002012,-0.000910,-0.000863,1,-0.132892, 0.126262, 9.804936,1,1
1778252086224,  2350.908,  2350.908, 0.014958,-0.012013,-1.000328, 0.000146,-0.000127,-0.009983, 0.013657, 0.008583,-0.004939,1, 0.001669, 0.002543,-0.000250,1,-0.133110, 0.126442, 9.804932,1,1
1778252086246,  2350.933,  2350.928, 0.013682,-0.012352,-0.988423, 0.000130,-0.000114,-0.009883,-0.000256,-0.019409, 0.050212,1,-0.003873,-0.001458, 0.000825,1,-0.132780, 0.126264, 9.804938,1,1
1778252086269,  2350.953,  2350.953, 0.013632,-0.017407,-1.004610, 0.000132,-0.000186,-0.010037, 0.000682,-0.044262,-0.046928,1,-0.001309, 0.000559, 0.001362,1,-0.133020, 0.126402, 9.804934,1,1
1778252086294,  2350.978,  2350.978, 0.012874,-0.009624,-0.989370, 0.000124,-0.000105,-0.009911,-0.006456, 0.031670, 0.102537,1,-0.001007,-0.000429, 0.002034,1,-0.132694, 0.126019, 9.804942,1,1
1778252086316,  2351.003,  2350.998, 0.015839,-0.008409,-1.000084, 0.000160,-0.000090,-0.010013, 0.022921, 0.025055,-0.016206,1, 0.000843, 0.001345, 0.001057,1,-0.133084, 0.126178, 9.804935,1,1
1778252086339,  2351.023,  2351.023, 0.015303,-0.006802,-0.989542, 0.000154,-0.000063,-0.009885, 0.017435, 0.059079, 0.100857,1, 0.000803, 0.000654,-0.001741,1,-0.132654, 0.125805, 9.804946,1,1
1778252086364,  2351.048,  2351.048, 0.014997,-0.016311,-1.001547, 0.000149,-0.000156,-0.010028, 0.014225,-0.033932,-0.016883,1,-0.000294,-0.001311,-0.001312,1,-0.132834, 0.125961, 9.804941,1,1
1778252086386,  2351.073,  2351.068, 0.010053,-0.016796,-0.996254, 0.000102,-0.000172,-0.009941,-0.022767,-0.015725, 0.110274,1, 0.001340,-0.000375, 0.000025,1,-0.132561, 0.125785, 9.804947,1,1
1778252086409,  2351.093,  2351.093, 0.010613,-0.015145,-0.997134, 0.000106,-0.000161,-0.009979,-0.028835,-0.022519, 0.026393,1,-0.002786,-0.001015, 0.000010,1,-0.132879, 0.125916, 9.804941,1,1
1778252086434,  2351.118,  2351.118, 0.012476,-0.013015,-0.993790, 0.000121,-0.000131,-0.009919,-0.010509,-0.001713, 0.059192,1, 0.000894, 0.001925, 0.000072,1,-0.132915, 0.125948, 9.804940,1,1
1778252086456,  2351.143,  2351.138, 0.016095,-0.009626,-0.992613, 0.000161,-0.000100,-0.009936, 0.018437, 0.005207, 0.008589,1,-0.001900,-0.000729, 0.000553,1,-0.133050, 0.125952, 9.804938,1,1
1778252086479,  2351.163,  2351.163, 0.016284,-0.011113,-0.997853, 0.000160,-0.000108,-0.009971, 0.026542, 0.016855, 0.019346,1, 0.000964, 0.001581, 0.000500,1,-0.133198, 0.125869, 9.804937,1,1
1778252086505,  2351.188,  2351.188, 0.013308,-0.011049,-0.994094, 0.000133,-0.000111,-0.009954,-0.002553, 0.017335, 0.056213,1,-0.001455,-0.000755,-0.000323,1,-0.133033, 0.125639, 9.804943,1,1
1778252086526,  2351.213,  2351.208, 0.011815,-0.015777,-0.999940, 0.000121,-0.000159,-0.009996,-0.008993,-0.014990, 0.036266,1, 0.001356, 0.001212,-0.001182,1,-0.133159, 0.125775, 9.804939,1,1
1778252086549,  2351.233,  2351.233, 0.012878,-0.012315,-0.991875, 0.000125,-0.000125,-0.009923,-0.006635, 0.004940, 0.077971,1,-0.000054,-0.000128,-0.000414,1,-0.132922, 0.125707, 9.804943,1,1
1778252086575,  2351.258,  2351.258, 0.014476,-0.013118,-0.998650, 0.000144,-0.000129,-0.009977, 0.009026,-0.002576, 0.011531,1, 0.001481, 0.000443,-0.000258,1,-0.132948, 0.126120, 9.804937,1,1
1778252086596,  2351.283,  2351.278, 0.014827,-0.010971,-0.992729, 0.000148,-0.000105,-0.009925, 0.001488, 0.020511, 0.061673,1,-0.001487,-0.001077,-0.000795,1,-0.132726, 0.125948, 9.804943,1,1
1778252086619,  2351.308,  2351.303, 0.013991,-0.014912,-0.999074, 0.000142,-0.000144,-0.009996, 0.004357,-0.020122, 0.007373,1, 0.000665,-0.000368,-0.000420,1,-0.132835, 0.126138, 9.804939,1,1
1778252086645,  2351.328,  2351.328, 0.012475,-0.012419,-0.992512, 0.000127,-0.000121,-0.009927,-0.010419, 0.004249, 0.071727,1, 0.000678, 0.000096, 0.000375,1,-0.132756, 0.126063, 9.804941,1,1
1778252086666,  2351.353,  2351.348, 0.012545,-0.013457,-0.995881, 0.000125,-0.000138,-0.009967,-0.009191,-0.011900, 0.004608,1, 0.000599, 0.000572,-0.000424,1,-0.132927, 0.126236, 9.804936,1,1
1778252086689,  2351.378,  2351.373, 0.013113,-0.013032,-0.994715, 0.000132,-0.000127,-0.009941,-0.004345,-0.001640, 0.050112,1, 0.000594, 0.000640,-0.000051,1,-0.132958, 0.126183, 9.804936,1,1
1778252086715,  2351.398,  2351.398, 0.013901,-0.013437,-0.998206, 0.000140,-0.000135,-0.009986, 0.003284,-0.005540, 0.015873,1,-0.000378, 0.000016,-0.000060,1,-0.133034, 0.126219, 9.804935,1,1
1778252086736,  2351.423,  2351.418, 0.014511,-0.013070,-0.996509, 0.000147,-0.000129,-0.009962, 0.008934, 0.002130, 0.049826,1, 0.000908, 0.001409, 0.000302,1,-0.133049, 0.126185, 9.804935,1,1
1778252086759,  2351.448,  2351.443, 0.012875,-0.011211,-0.994815, 0.000129,-0.000112,-0.009952,-0.006757, 0.016321, 0.049134,1,-0.001278,-0.001045, 0.000428,1,-0.133017, 0.126235, 9.804935,1,1
1778252086785,  2351.468,  2351.468, 0.013267,-0.012355,-0.995286, 0.000134,-0.000122,-0.009948,-0.002914, 0.005137, 0.044510,1, 0.000923, 0.000993,-0.000042,1,-0.133052, 0.126330, 9.804934,1,1
1778252086806,  2351.493,  2351.488, 0.013591,-0.012757,-0.994095, 0.000136,-0.000124,-0.009943,-0.004323, 0.000286, 0.031009,1, 0.000156,-0.000987,-0.000454,1,-0.132929, 0.126381, 9.804935,1,1
1778252086829,  2351.518,  2351.513, 0.013823,-0.013569,-0.996879, 0.000137,-0.000137,-0.009966, 0.002626,-0.006668, 0.028891,1, 0.000501,-0.000022,-0.000512,1,-0.132927, 0.126411, 9.804935,1,1
1778252086855,  2351.538,  2351.538, 0.014399,-0.012995,-0.993211, 0.000138,-0.000134,-0.009943, 0.008354,-0.001130, 0.064862,1,-0.001603,-0.000599,-0.000155,1,-0.132834, 0.126261, 9.804937,1,1
1778252086877,  2351.563,  2351.558, 0.012922,-0.013060,-0.997228, 0.000131,-0.000126,-0.009973,-0.002447, 0.000426, 0.036822,1, 0.000417, 0.000176,-0.000466,1,-0.132800, 0.126367, 9.804936,1,1
1778252086899,  2351.588,  2351.583, 0.013414,-0.012449,-0.994272, 0.000135,-0.000126,-0.009943,-0.001336, 0.004239, 0.054461,1,-0.000498,-0.000343,-0.000581,1,-0.132875, 0.126306, 9.804936,1,1
1778252086925,  2351.608,  2351.608, 0.013625,-0.014050,-0.996871, 0.000133,-0.000141,-0.009962, 0.000728,-0.011426, 0.028970,1, 0.000235, 0.000433,-0.000211,1,-0.132902, 0.126367, 9.804935,1,1
1778252086947,  2351.633,  2351.628, 0.013506,-0.011840,-0.994842, 0.000137,-0.000117,-0.009951,-0.004757,-0.002997, 0.053596,1,-0.000920,-0.000009, 0.000231,1,-0.132924, 0.126266, 9.804936,1,1
1778252086974,  2351.658,  2351.658, 0.013967,-0.012148,-0.996904, 0.000141,-0.000118,-0.009968, 0.004091, 0.007164, 0.028642,1,-0.000558,-0.000329, 0.000088,1,-0.132870, 0.126279, 9.804936,1,1
1778252086995,  2351.678,  2351.678, 0.014336,-0.011432,-0.994435, 0.000144,-0.000117,-0.009945, 0.007765, 0.014100, 0.052857,1,-0.000915,-0.000219, 0.000125,1,-0.132813, 0.126180, 9.804938,1,1
1778252087017,  2351.703,  2351.698, 0.014369,-0.012713,-0.995933, 0.000145,-0.000129,-0.009965, 0.010141,-0.001086, 0.020650,1,-0.000966,-0.000018, 0.000070,1,-0.132772, 0.126164, 9.804939,1,1
1778252087044,  2351.728,  2351.728, 0.012233,-0.012215,-0.995498, 0.000124,-0.000123,-0.009951,-0.012861, 0.006332, 0.042437,1,-0.000011, 0.000432, 0.000234,1,-0.132842, 0.126116, 9.804939,1,1
1778252087065,  2351.753,  2351.748, 0.012902,-0.012683,-0.994526, 0.000129,-0.000128,-0.009946,-0.004579, 0.001165, 0.034050,1,-0.000517,-0.001119,-0.000359,1,-0.132817, 0.126115, 9.804939,1,1
1778252087087,  2351.773,  2351.768, 0.013874,-0.013972,-0.996767, 0.000138,-0.000138,-0.009966,-0.000920,-0.007646, 0.049819,1, 0.000972, 0.000898,-0.000529,1,-0.132776, 0.126162, 9.804939,1,1
1778252087114,  2351.798,  2351.798, 0.014122,-0.013343,-0.996306, 0.000144,-0.000135,-0.009961, 0.005615,-0.004618, 0.034508,1, 0.000321, 0.000292,-0.000595,1,-0.132888, 0.126245, 9.804936,1,1
1778252087135,  2351.823,  2351.818, 0.012839,-0.014201,-0.996390, 0.000130,-0.000141,-0.009963,-0.003634,-0.007224, 0.034932,1, 0.000184, 0.000360, 0.001125,1,-0.132867, 0.126270, 9.804936,1,1
1778252087157,  2351.843,  2351.838, 0.012338,-0.012251,-0.994497, 0.000124,-0.000127,-0.009946,-0.006103, 0.002938, 0.041901,1,-0.000549,-0.000071, 0.000223,1,-0.132855, 0.126174, 9.804938,1,1
1778252087184,  2351.868,  2351.868, 0.013531,-0.012153,-0.996805, 0.000133,-0.000121,-0.009964,-0.000219, 0.007078, 0.029617,1,-0.000137,-0.000402, 0.000055,1,-0.132896, 0.126254, 9.804936,1,1
1778252087206,  2351.893,  2351.888, 0.014506,-0.011451,-0.994989, 0.000146,-0.000113,-0.009947, 0.003985, 0.004986, 0.045986,1,-0.000658,-0.000180, 0.000235,1,-0.132819, 0.126160, 9.804939,1,1
1778252087227,  2351.913,  2351.908, 0.013844,-0.013306,-0.996990, 0.000143,-0.000131,-0.009977, 0.005541,-0.000658, 0.032545,1,-0.000310, 0.000631,-0.000226,1,-0.132760, 0.126167, 9.804939,1,1
1778252087254,  2351.938,  2351.938, 0.013111,-0.012717,-0.994013, 0.000131,-0.000127,-0.009943,-0.004104, 0.001343, 0.057008,1,-0.000176,-0.000611, 0.000711,1,-0.132655, 0.126048, 9.804942,1,1
1778252087276,  2351.963,  2351.958, 0.012598,-0.012982,-0.995379, 0.000127,-0.000130,-0.009959,-0.001498,-0.008907, 0.030304,1, 0.000156, 0.000268, 0.000578,1,-0.132713, 0.126102, 9.804941,1,1
1778252087297,  2351.983,  2351.978, 0.013140,-0.011832,-0.996008, 0.000131,-0.000120,-0.009959,-0.009771, 0.008860, 0.052433,1,-0.000957, 0.000380, 0.000275,1,-0.132699, 0.125914, 9.804944,1,1
1778252087324,  2352.008,  2352.008, 0.013945,-0.011505,-0.995828, 0.000138,-0.000117,-0.009961, 0.004057, 0.013100, 0.039211,1,-0.000606,-0.000669, 0.000015,1,-0.132671, 0.125906, 9.804944,1,1
1778252087346,  2352.033,  2352.028, 0.014261,-0.012874,-0.995765, 0.000143,-0.000127,-0.009959, 0.014023, 0.006107, 0.042012,1,-0.000406, 0.000323,-0.000057,1,-0.132691, 0.125868, 9.804944,1,1
1778252087367,  2352.053,  2352.048, 0.013738,-0.011756,-0.996228, 0.000139,-0.000118,-0.009964, 0.004471, 0.005043, 0.033738,1, 0.000522,-0.000241,-0.000162,1,-0.132692, 0.125764, 9.804946,1,1
1778252087394,  2352.078,  2352.078, 0.012687,-0.012601,-0.996335, 0.000126,-0.000124,-0.009962,-0.008172, 0.002202, 0.034240,1, 0.000241, 0.000030,-0.000199,1,-0.132593, 0.125787, 9.804947,1,0
1778252087416,  2352.103,  2352.098, 0.012884,-0.014360,-0.994934, 0.000128,-0.000145,-0.009949,-0.007115,-0.010446, 0.034084,1,-0.000549,-0.000463,-0.000429,1,-0.132508, 0.125749, 9.804949,1,0
1778252087437,  2352.123,  2352.118, 0.013292,-0.014589,-0.996656, 0.000133,-0.000148,-0.009967,-0.004010,-0.020258, 0.044928,1, 0.000301, 0.000458, 0.000514,1,-0.132579, 0.125734, 9.804948,1,0
1778252087464,  2352.148,  2352.148, 0.013320,-0.012777,-0.994885, 0.000133,-0.000129,-0.009952,-0.001872, 0.000401, 0.048456,1,-0.000812,-0.000533, 0.000810,1,-0.132477, 0.125671, 9.804950,1,0
1778252087486,  2352.173,  2352.168, 0.013451,-0.012299,-0.995753, 0.000137,-0.000121,-0.009960, 0.000844, 0.009734, 0.033995,1, 0.000342, 0.000455, 0.001240,1,-0.132603, 0.125739, 9.804947,1,0
1778252087509,  2352.193,  2352.193, 0.013378,-0.013201,-0.994822, 0.000135,-0.000131,-0.009948,-0.001263,-0.003775, 0.049082,1, 0.000336,-0.000221, 0.000398,1,-0.132451, 0.125692, 9.804950,1,0
1778252087534,  2352.218,  2352.218, 0.013817,-0.013212,-0.996468, 0.000136,-0.000133,-0.009967, 0.003067,-0.003802, 0.032939,1,-0.000089, 0.000084, 0.000394,1,-0.132436, 0.125764, 9.804949,1,0
1778252087556,  2352.243,  2352.238, 0.012606,-0.011986,-0.995777, 0.000126,-0.000122,-0.009957,-0.000711, 0.006167, 0.043581,1,-0.000600,-0.000468, 0.000283,1,-0.132419, 0.125650, 9.804951,1,0
1778252087579,  2352.263,  2352.263, 0.013457,-0.012205,-0.996058, 0.000137,-0.000121,-0.009960,-0.000533, 0.005966, 0.036958,1, 0.000205,-0.000404, 0.000053,1,-0.132484, 0.125664, 9.804950,1,0
1778252087604,  2352.288,  2352.288, 0.014084,-0.012679,-0.995842, 0.000140,-0.000126,-0.009956, 0.005575, 0.001239, 0.039074,1,-0.001406, 0.000636, 0.000214,1,-0.132557, 0.125534, 9.804951,1,0
1778252087626,  2352.313,  2352.308, 0.013710,-0.012777,-0.995958, 0.000136,-0.000128,-0.009962, 0.003679, 0.001189, 0.037349,1,-0.000604,-0.000036, 0.000175,1,-0.132550, 0.125582, 9.804950,1,0
1778252087649,  2352.333,  2352.333, 0.013520,-0.012243,-0.995663, 0.000134,-0.000121,-0.009959, 0.000067, 0.005514, 0.040833,1,-0.000220,-0.000114, 0.000281,1,-0.132514, 0.125574, 9.804951,1,0
1778252087675,  2352.358,  2352.358, 0.012826,-0.012304,-0.996361, 0.000126,-0.000122,-0.009959,-0.006699, 0.004946, 0.033983,1,-0.000194,-0.000440,-0.000450,1,-0.132463, 0.125599, 9.804951,1,0
1778252087696,  2352.383,  2352.378, 0.014341,-0.012600,-0.996126, 0.000140,-0.000126,-0.009961,-0.002356, 0.001910, 0.055157,1, 0.000344, 0.000033,-0.000491,1,-0.132480, 0.125657, 9.804950,1,0
1778252087719,  2352.403,  2352.403, 0.014280,-0.011783,-0.996083, 0.000144,-0.000119,-0.009959, 0.007492, 0.010127, 0.036710,1,-0.000420,-0.000125,-0.000191,1,-0.132540, 0.125667, 9.804949,1,0
1778252087745,  2352.428,  2352.428, 0.014102,-0.011767,-0.996338, 0.000143,-0.000117,-0.009956, 0.005667, 0.010205, 0.034210,1,-0.000004,-0.000230,-0.000915,1,-0.132616, 0.125602, 9.804949,1,0
1778252087766,  2352.453,  2352.448, 0.013206,-0.013323,-0.995798, 0.000134,-0.000130,-0.009958,-0.002848, 0.001938, 0.037004,1,-0.000615,-0.000029,-0.000295,1,-0.132617, 0.125449, 9.804951,1,0
1778252087789,  2352.473,  2352.473, 0.012278,-0.016173,-0.996482, 0.000129,-0.000160,-0.009966,-0.012195,-0.033167, 0.032804,1,-0.000145, 0.000308,-0.000337,1,-0.132607, 0.125427, 9.804951,1,0
1778252087815,  2352.498,  2352.498, 0.012796,-0.014148,-0.995459, 0.000126,-0.000143,-0.009957,-0.007114,-0.013340, 0.042837,1,-0.000414,-0.000466, 0.000482,1,-0.132582, 0.125392, 9.804952,1,0
1778252087836,  2352.523,  2352.518, 0.013167,-0.010850,-0.995359, 0.000132,-0.000110,-0.009955,-0.005099, 0.009246, 0.030029,1,-0.000165, 0.000555, 0.000061,1,-0.132655, 0.125383, 9.804951,1,0
1778252087859,  2352.548,  2352.543, 0.013913,-0.009761,-0.995992, 0.000142,-0.000098,-0.009955, 0.003763, 0.029703, 0.037601,1, 0.000109,-0.000304,-0.000347,1,-0.132664, 0.125433, 9.804951,1,0
1778252087885,  2352.568,  2352.568, 0.015476,-0.010143,-0.994889, 0.000153,-0.000104,-0.009957, 0.019061, 0.025974, 0.048422,1, 0.000095,-0.000485,-0.001530,1,-0.132696, 0.125443, 9.804950,1,0
1778252087906,  2352.593,  2352.588, 0.013808,-0.013732,-0.994868, 0.000136,-0.000139,-0.009952, 0.009732,-0.012037, 0.043396,1, 0.000828,-0.000550,-0.001203,1,-0.132628, 0.125553, 9.804950,1,0
1778252087929,  2352.618,  2352.613, 0.012746,-0.012839,-0.996825, 0.000130,-0.000129,-0.009965,-0.007641,-0.000150, 0.029429,1, 0.000450,-0.000402,-0.000940,1,-0.132622, 0.125774, 9.804947,1,0
1778252087955,  2352.638,  2352.638, 0.012253,-0.014330,-0.995034, 0.000122,-0.000140,-0.009957,-0.012399,-0.014672, 0.046999,1, 0.000106,-0.000201,-0.000983,1,-0.132558, 0.125863, 9.804946,1,0
1778252087976,  2352.663,  2352.658, 0.012707,-0.017396,-0.997442, 0.000127,-0.000177,-0.009965,-0.012966,-0.033898, 0.042750,1, 0.000597,-0.000423,-0.000261,1,-0.132589, 0.125903, 9.804945,1,0
1778252087999,  2352.688,  2352.683, 0.012105,-0.015216,-0.994250, 0.000119,-0.000149,-0.009943,-0.013906,-0.023390, 0.054682,1, 0.000481, 0.000363, 0.001618,1,-0.132626, 0.125845, 9.804946,1,0
1778252088025,  2352.708,  2352.708, 0.012720,-0.013623,-0.995366, 0.000125,-0.000141,-0.009953,-0.007849,-0.007816, 0.043739,1,-0.001240, 0.000225, 0.001691,1,-0.132592, 0.125741, 9.804947,1,0
1778252088047,  2352.733,  2352.728, 0.011914,-0.013115,-0.977653, 0.000140,-0.000163,-0.009902,-0.034326,-0.035366, 0.024481,1, 0.000386,-0.002718, 0.002204,1,-0.132409, 0.125695, 9.804951,1,0
1778252088069,  2352.758,  2352.753, 0.011008,-0.018495,-0.993073, 0.000116,-0.000153,-0.009914,-0.024348,-0.056031, 0.066235,1, 0.003691,-0.000265, 0.003741,1,-0.132288, 0.125464, 9.804955,1,0
1778252088095,  2352.778,  2352.778, 0.009805, 0.000459,-0.979396, 0.000133,-0.000098,-0.009965,-0.036184, 0.129541, 0.200361,1,-0.002258,-0.003337, 0.004151,1,-0.132231, 0.124973, 9.804962,1,0
1778252088117,  2352.803,  2352.798, 0.010316, 0.000415,-1.000156, 0.000098,-0.000030,-0.009909,-0.027026, 0.027166, 0.048403,1, 0.005586,-0.001764, 0.001740,1,-0.132110, 0.125128, 9.804962,1,0
1778252088139,  2352.828,  2352.823, 0.008533,-0.002409,-1.013452, 0.000072,-0.000034,-0.010016,-0.048117, 0.102009,-0.133609,1, 0.003202,-0.003703,-0.001822,1,-0.131680, 0.125733, 9.804959,1,0
1778252088165,  2352.848,  2352.848, 0.027150,-0.027918,-1.005198, 0.000197,-0.000222,-0.009964, 0.134577,-0.148369,-0.052660,1,-0.005094, 0.001318,-0.008104,1,-0.131521, 0.124991, 9.804972,1,0
1778252088187,  2352.873,  2352.868, 0.071273,-0.040901,-0.929052, 0.000568,-0.000465,-0.009565, 0.093783, 0.025273, 0.099816,1,-0.009369, 0.010352,-0.001079,1,-0.130891, 0.125092, 9.804978,1,0
1778252088214,  2352.898,  2352.898, 0.049835,-0.064584,-0.962358, 0.000406,-0.001014,-0.009180, 0.360863,-0.500041, 0.367402,1,-0.038024, 0.007456,-0.000535,1,-0.128084, 0.132126, 9.804923,1,0
1778252088235,  2352.918,  2352.918,-0.017100, 0.003946,-0.890213,-0.000205, 0.000117,-0.008889,-0.293461, 0.171691, 1.074930,1, 0.024829,-0.008520,-0.001551,1,-0.125499, 0.133772, 9.804935,1,0
1778252088257,  2352.943,  2352.938, 0.000167,-0.070988,-1.063426,-0.000017,-0.000723,-0.009970, 0.104464,-0.194126,-0.751341,1,-0.018098,-0.013193,-0.009486,1,-0.130824, 0.128024, 9.804941,1,0
1778252088284,  2352.968,  2352.968, 0.009909,-0.046915,-1.008408, 0.000018,-0.000436,-0.009952,-0.032257,-0.331000,-0.084163,1, 0.034734, 0.013362, 0.006261,1,-0.129849, 0.130171, 9.804926,1,0
1778252088305,  2352.993,  2352.988, 0.007580, 0.027226,-0.966387, 0.000021, 0.000218,-0.009576,-0.197759, 0.246697, 0.441347,1,-0.003979,-0.013823, 0.003174,1,-0.128202, 0.131308, 9.804933,1,0
1778252088327,  2353.013,  2353.008, 0.015837,-0.017042,-1.042024, 0.000128,-0.000190,-0.010359, 0.015359, 0.151133, 0.104565,1, 0.018906, 0.018718,-0.010416,1,-0.129169, 0.131570, 9.804916,1,0
1778252088354,  2353.038,  2353.038, 0.011265, 0.031121,-0.979918, 0.000131, 0.000168,-0.009687,-0.017849, 0.435332, 0.195238,1, 0.000550,-0.006045,-0.009237,1,-0.128136, 0.130148, 9.804949,1,0
1778252088375,  2353.063,  2353.058, 0.023965, 0.051248,-0.984557, 0.000224, 0.000425,-0.010081, 0.075685, 0.125887,-0.328732,1, 0.047248, 0.005329,-0.022787,1,-0.128546, 0.143331, 9.804760,1,0
1778252088397,  2353.083,  2353.078,-0.004820, 0.058350,-0.918672,-0.000106, 0.000561,-0.009008,-0.147410, 0.425265, 1.333801,1, 0.029627,-0.028302,-0.037226,1,-0.121662, 0.145767, 9.804811,1,0
1778252088424,  2353.108,  2353.108, 0.038222,-0.006878,-1.046836, 0.000346, 0.000048,-0.010716, 0.246352, 0.078567,-0.461231,1,-0.012219,-0.025639,-0.053464,1,-0.127702, 0.145613, 9.804737,1,0
1778252088445,  2353.133,  2353.128, 0.016297,-0.057040,-0.998368, 0.000179,-0.000978,-0.009368, 0.071201,-0.739137, 0.516300,1, 0.018464, 0.025758,-0.044124,1,-0.127902, 0.142184, 9.804785,1,0
1778252088467,  2353.153,  2353.148, 0.013655,-0.062989,-1.073802, 0.000017,-0.001118,-0.010085,-0.189437,-0.595538,-0.210474,1, 0.092901,-0.008808,-0.020493,1,-0.127237, 0.148252, 9.804704,1,0
1778252088494,  2353.178,  2353.178,-0.021937,-0.055933,-0.943778,-0.000226,-0.000792,-0.009010,-0.339613,-0.399027, 0.549415,1,-0.012525, 0.000495,-0.003484,1,-0.124498, 0.149097, 9.804727,1,0
1778252088516,  2353.203,  2353.198,-0.000985,-0.061441,-1.022803, 0.000057,-0.000531,-0.010452,-0.150333,-0.568550,-0.192236,1, 0.001066, 0.002574, 0.002299,1,-0.125782, 0.153104, 9.804648,1,0
1778252088537,  2353.223,  2353.218,-0.005886,-0.025691,-0.976809,-0.000047,-0.000201,-0.009908,-0.157398,-0.425198, 0.344716,1,-0.022346,-0.008843, 0.015485,1,-0.123925, 0.151306, 9.804700,1,0
1778252088564,  2353.248,  2353.248, 0.000005,-0.041486,-1.071017, 0.000049,-0.000439,-0.010708,-0.123605,-0.249956,-0.698469,1, 0.014612,-0.026202, 0.027364,1,-0.122340, 0.157610, 9.804620,1,0
1778252088586,  2353.273,  2353.268,-0.028320, 0.002535,-0.980602,-0.000288,-0.000035,-0.009918,-0.243822, 0.121608, 0.439181,1, 0.021146,-0.009022, 0.026786,1,-0.119101, 0.160757, 9.804609,1,0
1778252088607,  2353.293,  2353.288,-0.029935,-0.023972,-1.013351,-0.000251,-0.000255,-0.010223,-0.425656,-0.188074,-0.238182,1, 0.019987, 0.000409, 0.026693,1,-0.117869, 0.168424, 9.804495,1,0
1778252088634,  2353.318,  2353.318,-0.032796,-0.026462,-1.009936,-0.000350,-0.000271,-0.009963,-0.435192,-0.086670,-0.099620,1, 0.025288, 0.000669, 0.032178,1,-0.113579, 0.173633, 9.804455,1,0
1778252088656,  2353.343,  2353.338,-0.049089,-0.053455,-0.973190,-0.000466,-0.000351,-0.009682,-0.529034,-0.086221,-0.842747,1, 0.022252,-0.024356, 0.037952,1,-0.110590, 0.179777, 9.804379,1,0
1778252088677,  2353.363,  2353.358,-0.058444,-0.003535,-0.993177,-0.000452,-0.000185,-0.010139,-0.562716,-0.051022, 0.264992,1, 0.026366,-0.019332, 0.045619,1,-0.106945, 0.183305, 9.804354,1,0
1778252088704,  2353.388,  2353.388,-0.043936,-0.002481,-1.041461,-0.000351,-0.000035,-0.010535,-0.533390, 0.168013,-0.409021,1, 0.023530,-0.030559, 0.055226,1,-0.101542, 0.193091, 9.804223,1,0
1778252088726,  2353.413,  2353.408,-0.035537,-0.002964,-1.030876,-0.000336,-0.000016,-0.010342,-0.422953, 0.452628,-0.187420,1, 0.022282,-0.021584, 0.048781,1,-0.096341, 0.196861, 9.804200,1,0
1778252088749,  2353.433,  2353.433,-0.028245, 0.019331,-1.019241,-0.000295, 0.000067,-0.010194,-0.364050, 0.391742,-0.191160,1,-0.001034,-0.047439, 0.041830,1,-0.085553, 0.202146, 9.804193,1,0
1778252088774,  2353.458,  2353.458,-0.015278,-0.014162,-1.033206,-0.000221, 0.000003,-0.010198,-0.230369, 0.067334,-0.328137,1, 0.020433,-0.026285, 0.033451,1,-0.079698, 0.206849, 9.804144,1,0
1778252088796,  2353.483,  2353.478,-0.042358, 0.028200,-0.963405,-0.000402, 0.000301,-0.009706,-0.409016, 0.477937, 0.154875,1, 0.008085,-0.050907, 0.026291,1,-0.068848, 0.210287, 9.804153,1,0
1778252088819,  2353.503,  2353.503,-0.031318, 0.023106,-0.998075,-0.000478, 0.000190,-0.010086,-0.364666, 0.444212, 0.016293,1, 0.026855,-0.040295, 0.007280,1,-0.056282, 0.218461, 9.804055,1,0
1778252088844,  2353.528,  2353.528,-0.056896, 0.070396,-1.018125,-0.000560, 0.000559,-0.010231,-0.606724, 0.910973,-0.180348,1, 0.018105,-0.059368,-0.015984,1,-0.046928, 0.221188, 9.804043,1,0
1778252088866,  2353.553,  2353.548,-0.084281, 0.096391,-0.872845,-0.000791, 0.000954,-0.009188,-0.622391, 1.008171,-0.051540,1,-0.019510,-0.034653,-0.041964,1,-0.040411, 0.224468, 9.803997,1,0
1778252088889,  2353.573,  2353.573,-0.088728, 0.061190,-0.988535,-0.000793, 0.000778,-0.010341,-0.902391, 0.825748, 0.109785,1, 0.012371,-0.032216,-0.088663,1,-0.031321, 0.226056, 9.803994,1,0
1778252088915,  2353.598,  2353.598,-0.076409, 0.028285,-1.043677,-0.000763, 0.000277,-0.010493,-0.777253, 0.496747,-0.430817,1,-0.043143,-0.037992,-0.110863,1,-0.026826, 0.218006, 9.804190,1,0
1778252088936,  2353.623,  2353.618,-0.094078, 0.002171,-1.027894,-0.000888, 0.000037,-0.010391,-0.934161, 0.026326,-0.507253,1,-0.043626,-0.013013,-0.123232,1,-0.021703, 0.210703, 9.804362,1,0
1778252088959,  2353.643,  2353.643,-0.112397,-0.010443,-1.038408,-0.001105,-0.000056,-0.010510,-1.111489, 0.099082,-0.378728,1,-0.020241,-0.054478,-0.127576,1,-0.007580, 0.200793, 9.804591,1,0
1778252088985,  2353.668,  2353.668,-0.129316, 0.001079,-1.068655,-0.001226, 0.000085,-0.010795,-1.265219, 0.205100,-0.675207,1,-0.027700,-0.083605,-0.130958,1, 0.005467, 0.193657, 9.804736,1,0
1778252089006,  2353.693,  2353.688,-0.134369, 0.061683,-0.986889,-0.001426, 0.000542,-0.009837,-1.463266, 0.096617, 0.596491,1,-0.039749,-0.065198,-0.132525,1, 0.018731, 0.186330, 9.804862,1,0
1778252089029,  2353.713,  2353.713,-0.172775,-0.032629,-0.958181,-0.001735,-0.000716,-0.009851,-1.655410,-0.136044, 0.408304,1,-0.074973,-0.057088,-0.133189,1, 0.040637, 0.181610, 9.804884,1,0
1778252089055,  2353.738,  2353.738,-0.169165,-0.044005,-0.978591,-0.001658,-0.000177,-0.009423,-1.606431,-0.260653, 0.208321,1,-0.036618,-0.077775,-0.129161,1, 0.054871, 0.169766, 9.805027,1,0
1778252089076,  2353.763,  2353.758,-0.181488,-0.059298,-1.075041,-0.001713,-0.000569,-0.010946,-1.466300,-0.375132,-1.062988,1,-0.038992,-0.080832,-0.124465,1, 0.067617, 0.162983, 9.805062,1,0
1778252089099,  2353.788,  2353.783,-0.207226,-0.054240,-1.064198,-0.001996,-0.000547,-0.010804,-1.936977,-0.371522,-0.631342,1,-0.009274,-0.104258,-0.094057,1, 0.098418, 0.160128, 9.804849,1,0
1778252089125,  2353.808,  2353.808,-0.205506,-0.043644,-1.018562,-0.002023,-0.000446,-0.010347,-1.895199,-0.270711,-0.184031,1,-0.016115,-0.147031,-0.074110,1, 0.124676, 0.156815, 9.804604,1,0
1778252089146,  2353.833,  2353.828,-0.195263,-0.034040,-1.058239,-0.001944,-0.000481,-0.010788,-2.175669,-0.680325,-0.427597,1, 0.020614,-0.149295,-0.054837,1, 0.152275, 0.156629, 9.804216,1,0
1778252089169,  2353.858,  2353.853,-0.229323, 0.016986,-1.006865,-0.002019,-0.000111,-0.010369,-2.057695, 0.320773,-0.070398,1, 0.003765,-0.193213,-0.021441,1, 0.197211, 0.154370, 9.803452,1,0
1778252089195,  2353.878,  2353.878,-0.215250,-0.046682,-1.055441,-0.002023,-0.000409,-0.010638,-1.888337,-0.300564,-0.547481,1, 0.006766,-0.158000,-0.007085,1, 0.227475, 0.157448, 9.802747,1,0
1778252089216,  2353.903,  2353.898,-0.211663,-0.032589,-0.934839,-0.002209,-0.000391,-0.009276,-1.618063, 0.090164, 0.091121,1,-0.024137,-0.163130, 0.002253,1, 0.258866, 0.154417, 9.802016,1,0
1778252089239,  2353.928,  2353.923,-0.175766,-0.039525,-0.958454,-0.001798,-0.000445,-0.009694,-1.427287,-0.232936, 0.401729,1,-0.012895,-0.142166, 0.015969,1, 0.300830, 0.154258, 9.800821,1,0
1778252089265,  2353.948,  2353.948,-0.209563,-0.004826,-0.850860,-0.002058, 0.000044,-0.008874,-1.729643, 0.104872, 1.455979,1, 0.004106,-0.124294, 0.025257,1, 0.329356, 0.152305, 9.799934,1,0
1778252089287,  2353.973,  2353.968,-0.191072,-0.021578,-0.886945,-0.001931,-0.000071,-0.008924,-1.506724,-0.151946, 0.214529,1, 0.001644,-0.116853, 0.032149,1, 0.351012, 0.152537, 9.799179,1,0
1778252089309,  2353.998,  2353.993,-0.197344,-0.014644,-0.906603,-0.002016,-0.000109,-0.008830,-1.557711, 0.013054, 0.907382,1, 0.032620,-0.074900, 0.035726,1, 0.379931, 0.157635, 9.798019,1,0
1778252089335,  2354.018,  2354.018,-0.178408, 0.024931,-0.897227,-0.001759, 0.000270,-0.008873,-1.358811, 0.406031, 0.998741,1, 0.033295,-0.074496, 0.028348,1, 0.393112, 0.162545, 9.797420,1,0
1778252089357,  2354.043,  2354.038,-0.173959, 0.033913,-0.886423,-0.001680, 0.000492,-0.008544,-1.286018, 1.050808, 1.402036,1, 0.026527,-0.023181, 0.006726,1, 0.400369, 0.168336, 9.797028,1,0
1778252089379,  2354.068,  2354.063,-0.158725, 0.092943,-0.873923,-0.001519, 0.000798,-0.008562,-1.155929, 1.088362, 1.226609,1, 0.011672, 0.016180,-0.029875,1, 0.400112, 0.177309, 9.796880,1,0
1778252089405,  2354.088,  2354.088,-0.152372, 0.079828,-0.881749,-0.001506, 0.000904,-0.008899,-1.104023, 0.965063, 1.150184,1, 0.026315, 0.078475,-0.063303,1, 0.387750, 0.183115, 9.797270,1,0
1778252089427,  2354.113,  2354.108,-0.152429, 0.080132,-0.861954,-0.001599, 0.000850,-0.008443,-1.114743, 1.099451, 1.137958,1,-0.007346, 0.080277,-0.091350,1, 0.374387, 0.185653, 9.797742,1,0
1778252089454,  2354.138,  2354.138,-0.160599, 0.040960,-0.918531,-0.001483, 0.000525,-0.009194,-1.233129, 0.585724, 0.791251,1,-0.025650, 0.149291,-0.137704,1, 0.337076, 0.183389, 9.799139,1,0
1778252089475,  2354.158,  2354.158,-0.166080, 0.072969,-0.945648,-0.001459, 0.000729,-0.009511,-1.312361, 0.895861, 0.526249,1,-0.002589, 0.141148,-0.159574,1, 0.311830, 0.180359, 9.800032,1,0
1778252089497,  2354.183,  2354.178,-0.168471, 0.045318,-0.966924,-0.001724, 0.000506,-0.009893,-1.227320, 0.249782,-0.589792,1,-0.023953, 0.130172,-0.171674,1, 0.284001, 0.177930, 9.800921,1,0
1778252089524,  2354.208,  2354.208,-0.183016,-0.011740,-1.035799,-0.001713, 0.000042,-0.010491,-1.542396, 0.052574,-0.355750,1,-0.024768, 0.119894,-0.175370,1, 0.248546, 0.167071, 9.802076,1,0
1778252089545,  2354.233,  2354.228,-0.192216,-0.044185,-1.095126,-0.001853,-0.000307,-0.010686,-1.236641, 0.288429,-1.816022,1,-0.048432, 0.060558,-0.163985,1, 0.229679, 0.156924, 9.802704,1,0
1778252089567,  2354.253,  2354.248,-0.205755,-0.052287,-1.082038,-0.001966,-0.000378,-0.010781,-1.191467, 0.028979,-2.042165,1,-0.010395, 0.032823,-0.153307,1, 0.218997, 0.154488, 9.802987,1,0
1778252089594,  2354.278,  2354.278,-0.216984,-0.011904,-1.013258,-0.001949, 0.000028,-0.010355,-1.907715, 0.034827,-0.133666,1,-0.005065,-0.029786,-0.126342,1, 0.221044, 0.151497, 9.802988,1,0
1778252089615,  2354.303,  2354.298,-0.144542,-0.040297,-1.144277,-0.001712,-0.000463,-0.010905,-1.144060,-0.255601,-0.349974,1, 0.016002,-0.052185,-0.105336,1, 0.228474, 0.152482, 9.802802,1,0
1778252089637,  2354.323,  2354.318,-0.097884,-0.035927,-1.117936,-0.001306,-0.000377,-0.010825,-1.407632,-0.218325,-0.630783,1, 0.072906,-0.071496,-0.092424,1, 0.244888, 0.159906, 9.802288,1,0
1778252089664,  2354.348,  2354.348,-0.090539, 0.009985,-1.056120,-0.001169,-0.000058,-0.010118,-0.617879, 0.262114,-0.555441,1,-0.007792,-0.121927,-0.077379,1, 0.273770, 0.164018, 9.801455,1,0
1778252089685,  2354.373,  2354.368,-0.127360, 0.049396,-1.034228,-0.001141, 0.000765,-0.010668,-1.070291, 0.736449,-0.308862,1,-0.081245,-0.132132,-0.086875,1, 0.299000, 0.159061, 9.800800,1,0
1778252089707,  2354.393,  2354.388,-0.111749,-0.036651,-0.808396,-0.000965,-0.000427,-0.008088,-0.555350, 0.256938,-0.048611,1, 0.004712,-0.106468,-0.099728,1, 0.321009, 0.159249, 9.800101,1,0
1778252089734,  2354.418,  2354.418,-0.122813,-0.105633,-0.917699,-0.001421,-0.000839,-0.008612,-0.851654,-0.870815, 0.799356,1,-0.058122,-0.062533,-0.077479,1, 0.354639, 0.163366, 9.798874,1,0
1778252089756,  2354.443,  2354.438,-0.059926, 0.007905,-0.921866,-0.000625, 0.000276,-0.009879, 0.170742, 0.116930,-0.041469,1,-0.072213,-0.136778,-0.075998,1, 0.368699, 0.149919, 9.798570,1,0
1778252089777,  2354.463,  2354.458,-0.041125,-0.054572,-0.928864,-0.000318,-0.000022,-0.009628,-0.346094,-0.404714, 0.981119,1,-0.003883,-0.055715,-0.066214,1, 0.390549, 0.157360, 9.797606,1,0
1778252089804,  2354.488,  2354.488,-0.099743, 0.093154,-0.883503,-0.001103, 0.001020,-0.009039,-0.567195, 1.070592, 1.132572,1, 0.034141,-0.083980,-0.079184,1, 0.413533, 0.158232, 9.796649,1,0
1778252089826,  2354.513,  2354.508,-0.022986, 0.016607,-0.889683,-0.000355,-0.000151,-0.008444, 0.300333, 0.875537, 1.815677,1, 0.019232, 0.027944,-0.084411,1, 0.411328, 0.166996, 9.796597,1,0
1778252089847,  2354.533,  2354.528,-0.119702,-0.008889,-0.884896,-0.001221,-0.000234,-0.008691,-0.432131, 0.893081, 1.284492,1, 0.067736,-0.034387,-0.096188,1, 0.416571, 0.176273, 9.796212,1,0
1778252089874,  2354.558,  2354.558,-0.142278,-0.066750,-0.789486,-0.001201,-0.000349,-0.007399,-0.991949,-0.486988, 2.054701,1,-0.049592, 0.042831,-0.116607,1, 0.401928, 0.166207, 9.797000,1,0
1778252089896,  2354.583,  2354.578,-0.066599,-0.102185,-0.996190,-0.000695,-0.000776,-0.010057,-0.250933, 0.090874,-0.300243,1,-0.064371, 0.090120,-0.124778,1, 0.382482, 0.152953, 9.797995,1,0
1778252089917,  2354.603,  2354.598,-0.142066, 0.020383,-0.888986,-0.001044, 0.000283,-0.008713,-0.008173,-0.463732, 0.157175,1,-0.115690, 0.055580,-0.100392,1, 0.366883, 0.140824, 9.798773,1,0
1778252089944,  2354.628,  2354.628,-0.107459,-0.123735,-1.145831,-0.001161,-0.001623,-0.011229,-0.711771,-1.065478,-1.437194,1,-0.067778, 0.103318,-0.066388,1, 0.338787, 0.145911, 9.799710,1,0
1778252089966,  2354.653,  2354.648,-0.082341,-0.104997,-1.053118,-0.000647,-0.000570,-0.010405,-0.701326,-0.587323,-0.213173,1,-0.082044, 0.068264,-0.033190,1, 0.332635, 0.136932, 9.800051,1,0
1778252089989,  2354.673,  2354.673,-0.128103,-0.144980,-1.067163,-0.001004,-0.001440,-0.011002,-0.940392,-1.274173,-0.664850,1, 0.029015,-0.014049, 0.017016,1, 0.316313, 0.148483, 9.800423,1,0
1778252090014,  2354.698,  2354.698,-0.133066,-0.070948,-1.002572,-0.001407,-0.000608,-0.009709,-0.987695,-0.544474,-0.031519,1, 0.056547, 0.018330, 0.043455,1, 0.316687, 0.153004, 9.800341,1,0
1778252090036,  2354.723,  2354.718,-0.110699,-0.090350,-1.034781,-0.001059,-0.000892,-0.010400,-0.262208,-0.406317,-1.544710,1, 0.015197,-0.054132, 0.064695,1, 0.317789, 0.157912, 9.800227,1,0
1778252090059,  2354.743,  2354.743,-0.046878,-0.013742,-1.192809,-0.000785,-0.000660,-0.011231,-0.125996, 0.019849,-1.897707,1,-0.060161,-0.029998, 0.078207,1, 0.334697, 0.152653, 9.799747,1,0
1778252090084,  2354.768,  2354.768,-0.088817,-0.077070,-1.115517,-0.000644,-0.000728,-0.011111,-0.521034,-0.605909,-1.140229,1,-0.070648,-0.105685, 0.104120,1, 0.353314, 0.147572, 9.799172,1,0
1778252090106,  2354.793,  2354.788,-0.023962,-0.039322,-1.094972,-0.000120,-0.000136,-0.011529,-0.668416,-1.014636, 0.410740,1, 0.009855,-0.081202, 0.121055,1, 0.375132, 0.147830, 9.798357,1,0
1778252090129,  2354.813,  2354.813,-0.101846,-0.033608,-0.964287,-0.000542, 0.000036,-0.010723,-0.588824,-0.187705, 0.340618,1, 0.065532,-0.139125, 0.096982,1, 0.414330, 0.143791, 9.796838,1,0
1778252090155,  2354.838,  2354.838,-0.092290,-0.141195,-0.956113,-0.000560,-0.001044,-0.009504,-0.471915,-1.241076, 0.419764,1, 0.061461,-0.166482, 0.134601,1, 0.438392, 0.145301, 9.795769,1,0
1778252090176,  2354.863,  2354.858,-0.046050, 0.026510,-0.855371,-0.000261, 0.000244,-0.008810,-0.225553,-0.497322, 0.150082,1, 0.032628,-0.079001, 0.102138,1, 0.457589, 0.148674, 9.794840,1,0
1778252090199,  2354.883,  2354.883,-0.079377, 0.023024,-0.957817,-0.000763, 0.000230,-0.009029,-0.298437, 0.387337, 0.400585,1, 0.085390,-0.064730, 0.089156,1, 0.482045, 0.164074, 9.793421,1,0
1778252090225,  2354.908,  2354.908,-0.020234, 0.108427,-0.992426,-0.000167, 0.000620,-0.009817, 0.284026, 1.234947, 0.060894,1,-0.016499,-0.018547, 0.064440,1, 0.483064, 0.171033, 9.793252,1,0
1778252090246,  2354.933,  2354.928,-0.067007, 0.046337,-0.955381,-0.000475, 0.000722,-0.009652,-0.345394, 1.025460, 1.502825,1,-0.036454, 0.031536, 0.045089,1, 0.490271, 0.174471, 9.792833,1,0
1778252090269,  2354.953,  2354.953,-0.073156, 0.021319,-0.763507,-0.000605, 0.000097,-0.008209,-0.233381, 0.373528, 2.305875,1,-0.088152, 0.008736, 0.002368,1, 0.483760, 0.161705, 9.793376,1,0
1778252090295,  2354.978,  2354.978,-0.123713,-0.088868,-0.998953,-0.001096,-0.000526,-0.009318,-0.734401,-0.714765,-0.002681,1,-0.003288, 0.072860,-0.006467,1, 0.476533, 0.156635, 9.793813,1,0
1778252090316,  2355.003,  2354.998,-0.092232,-0.076026,-0.896664,-0.000813,-0.000868,-0.008552, 0.430325,-0.395620,-0.391132,1,-0.020572,-0.010009, 0.007738,1, 0.465505, 0.144666, 9.794527,1,0
1778252090339,  2355.028,  2355.023,-0.027144,-0.043657,-1.138775,-0.000282,-0.000741,-0.010597, 0.185696,-0.277677,-1.372490,1,-0.000607, 0.055377, 0.037046,1, 0.450184, 0.150384, 9.795157,1,0
1778252090365,  2355.048,  2355.048,-0.031308,-0.110944,-0.975950,-0.000365,-0.000887,-0.009593, 0.138705,-0.922240, 0.224311,1, 0.065787, 0.065648, 0.051866,1, 0.444453, 0.167608, 9.795139,1,0
1778252090386,  2355.073,  2355.068,-0.020627,-0.003243,-1.015844,-0.000042, 0.000586,-0.010195, 0.116687, 0.064921, 0.807244,1, 0.045335, 0.083838, 0.037227,1, 0.429409, 0.182381, 9.795547,1,0
1778252090409,  2355.098,  2355.093,-0.036374, 0.065382,-0.804818,-0.000191, 0.001073,-0.009249, 0.059662, 0.830307, 1.903414,1, 0.083922, 0.029173, 0.017933,1, 0.415474, 0.191721, 9.795969,1,0
1778252090435,  2355.118,  2355.118,-0.035263, 0.042714,-0.924392,-0.000131, 0.000730,-0.009326, 0.053989, 0.610666, 0.731433,1, 0.051398, 0.112097,-0.010789,1, 0.396302, 0.193402, 9.796730,1,0
1778252090456,  2355.143,  2355.138,-0.002715, 0.094973,-1.064835,-0.000284, 0.000370,-0.009953, 0.039104,-0.385356, 1.145223,1, 0.017859, 0.070201,-0.018111,1, 0.383133, 0.194532, 9.797232,1,0
1778252090479,  2355.168,  2355.163, 0.022612, 0.025196,-1.208270, 0.000034,-0.000423,-0.011350, 0.580355, 0.439097,-2.050875,1,-0.067224, 0.139036,-0.026175,1, 0.354253, 0.189942, 9.798409,1,0
1778252090505,  2355.188,  2355.188,-0.005289, 0.126882,-0.946538,-0.000124, 0.001108,-0.009751, 0.297032, 1.438321, 0.516150,1, 0.038391, 0.047207,-0.028450,1, 0.347410, 0.195261, 9.798549,1,0
1778252090527,  2355.213,  2355.208,-0.034177, 0.062321,-1.051807,-0.000231, 0.000316,-0.010386, 0.438041, 0.718187,-0.501843,1, 0.138739, 0.093321,-0.067287,1, 0.323371, 0.207646, 9.799117,1,0
1778252090549,  2355.238,  2355.233,-0.005939, 0.060587,-0.888665, 0.000182, 0.000427,-0.008952, 0.247470, 0.813095, 1.084610,1, 0.046386, 0.047344,-0.075025,1, 0.304178, 0.220457, 9.799452,1,0
1778252090575,  2355.258,  2355.258,-0.002049,-0.016147,-1.037290, 0.000061, 0.000399,-0.010758, 0.260793, 0.066635,-0.372297,1,-0.036712, 0.156889,-0.119661,1, 0.275887, 0.223936, 9.800210,1,0
1778252090597,  2355.283,  2355.278,-0.029679, 0.123332,-0.860036,-0.000128, 0.001744,-0.009397,-0.507184,-0.674755, 1.312095,1,-0.097413, 0.053293,-0.130666,1, 0.266855, 0.210951, 9.800749,1,0
1778252090619,  2355.308,  2355.303, 0.060141, 0.071973,-1.182526, 0.000371, 0.000483,-0.012167, 0.822496, 0.910068,-1.794863,1,-0.024762, 0.036602,-0.158406,1, 0.231464, 0.203604, 9.801804,1,0
1778252090645,  2355.328,  2355.328, 0.051960, 0.133397,-1.044825, 0.000114, 0.000859,-0.010104, 0.735414, 1.511510,-0.444294,1,-0.044834, 0.082214,-0.165128,1, 0.223188, 0.202049, 9.802028,1,0
1778252090667,  2355.353,  2355.348, 0.008539, 0.019514,-0.872903,-0.000091, 0.000123,-0.008431, 0.801514, 1.379936,-2.648136,1, 0.049811, 0.066779,-0.187369,1, 0.203295, 0.214858, 9.802188,1,0
1778252090694,  2355.378,  2355.378, 0.032581, 0.150054,-0.921904, 0.000114, 0.001113,-0.009148, 0.508712, 1.690221, 0.761593,1,-0.002741, 0.074092,-0.235430,1, 0.186724, 0.218753, 9.802432,1,0
1778252090715,  2355.398,  2355.398, 0.068888, 0.119200,-1.115505, 0.000525, 0.001352,-0.011727, 0.843455, 1.387453,-1.136594,1, 0.005404, 0.049242,-0.268921,1, 0.166169, 0.218809, 9.802800,1,0
1778252090737,  2355.423,  2355.418, 0.022737, 0.019088,-1.030443,-0.000310, 0.000018,-0.009574, 0.738086, 1.657754, 0.139088,1,-0.012383, 0.064611,-0.302152,1, 0.154016, 0.209043, 9.803212,1,0
1778252090764,  2355.448,  2355.448, 0.036537,-0.032826,-1.175720, 0.000424,-0.000485,-0.011929, 0.492336,-0.127331,-1.726077,1,-0.096263,-0.009190,-0.306265,1, 0.134006, 0.191641, 9.803862,1,0
1778252090785,  2355.473,  2355.468, 0.047995,-0.201554,-1.297340, 0.000499,-0.001680,-0.012746, 0.199711,-0.343996,-2.736208,1,-0.053097, 0.030798,-0.290308,1, 0.131574, 0.180173, 9.804111,1,0
1778252090807,  2355.493,  2355.488,-0.003734,-0.151206,-1.080722,-0.000146,-0.001498,-0.010593, 0.956827,-1.149421,-3.063548,1,-0.050255,-0.117179,-0.246751,1, 0.141128, 0.171026, 9.804143,1,0
1778252090834,  2355.518,  2355.518, 0.014344,-0.047344,-1.170517,-0.000189,-0.000864,-0.011604, 0.317453,-0.296833,-1.675224,1,-0.008688,-0.138552,-0.172457,1, 0.181015, 0.167275, 9.803553,1,0
1778252090855,  2355.543,  2355.538,-0.025426,-0.041702,-0.939469,-0.000259,-0.000297,-0.008630, 0.557331, 0.133780,-0.053544,1, 0.014041,-0.237403,-0.118818,1, 0.221425, 0.169672, 9.802682,1,0
1778252090877,  2355.563,  2355.558,-0.036942, 0.019209,-1.033824,-0.000434,-0.000413,-0.010081, 0.068004,-0.038403, 0.530948,1, 0.081972,-0.197140,-0.095500,1, 0.261386, 0.178624, 9.801538,1,0
1778252090904,  2355.588,  2355.588, 0.008536,-0.043016,-0.934820, 0.000074,-0.000394,-0.009298, 0.394121,-0.240236, 0.632603,1, 0.011437,-0.153523,-0.096317,1, 0.315145, 0.182055, 9.799894,1,0
1778252090926,  2355.613,  2355.608,-0.053734, 0.021262,-0.945735,-0.000488, 0.000422,-0.009436, 0.059520, 0.492607, 1.259610,1, 0.067760,-0.195510,-0.098556,1, 0.348953, 0.185634, 9.798681,1,0
1778252090947,  2355.633,  2355.628, 0.023210,-0.012248,-0.871656, 0.000463,-0.000200,-0.008885, 0.538132, 0.152167, 0.737656,1, 0.007487,-0.020232,-0.110435,1, 0.362949, 0.194843, 9.797994,1,0
1778252090974,  2355.658,  2355.658,-0.070530, 0.063969,-0.807822,-0.000781, 0.000729,-0.007904,-0.301038, 0.827095, 1.874805,1, 0.078454,-0.004000,-0.116507,1, 0.390668, 0.202372, 9.796776,1,0
1778252090996,  2355.683,  2355.678, 0.027607, 0.055238,-0.783962, 0.000239, 0.000222,-0.008131, 0.395406,-0.519231, 1.087672,1,-0.038715,-0.020512,-0.111691,1, 0.384956, 0.206214, 9.796922,1,0
1778252091017,  2355.703,  2355.698,-0.032473,-0.077832,-0.973994,-0.000168,-0.000416,-0.009504,-0.465062, 0.411089, 2.019388,1, 0.004361, 0.023239,-0.104412,1, 0.388343, 0.201311, 9.796889,1,0
1778252091044,  2355.728,  2355.728,-0.046281,-0.043154,-0.746827,-0.000057,-0.000335,-0.008026,-0.088141,-0.229426, 2.474038,1,-0.016423,-0.004501,-0.092756,1, 0.365806, 0.193364, 9.797917,1,0
1778252091066,  2355.753,  2355.748, 0.050106,-0.073591,-1.124347, 0.000579,-0.000956,-0.011448,-0.238190,-0.921069, 0.884207,1, 0.039740, 0.151800,-0.085579,1, 0.340764, 0.193256, 9.798822,1,0
1778252091087,  2355.773,  2355.768, 0.014710,-0.062095,-0.857830, 0.000276,-0.000380,-0.009018, 0.447811,-1.552962, 0.511662,1,-0.067199, 0.077505,-0.068788,1, 0.317394, 0.186976, 9.799728,1,0
1778252091114,  2355.798,  2355.798, 0.037470,-0.111146,-1.124198, 0.000459,-0.001147,-0.011487, 0.648755,-0.903617,-1.223775,1, 0.013036, 0.143573,-0.052968,1, 0.276790, 0.186811, 9.800962,1,0
1778252091136,  2355.823,  2355.818, 0.009268,-0.022842,-0.951361, 0.000104,-0.000513,-0.009107, 0.122657,-0.596492, 1.123622,1, 0.012441, 0.104730,-0.027078,1, 0.257523, 0.185265, 9.801517,1,0
1778252091157,  2355.843,  2355.838, 0.023111,-0.032542,-1.089418, 0.000408,-0.000585,-0.011154, 0.058631,-1.020226, 0.256282,1, 0.072412, 0.169137,-0.010343,1, 0.228962, 0.195187, 9.802033,1,0
1778252091184,  2355.868,  2355.868,-0.031395,-0.031009,-0.935598,-0.000150,-0.000239,-0.009521,-0.110123,-0.112716, 0.627702,1,-0.004408, 0.141931, 0.001920,1, 0.193325, 0.191245, 9.802879,1,0
1778252091206,  2355.893,  2355.888, 0.047171,-0.029721,-1.075253, 0.000457,-0.000596,-0.010895,-0.024199,-1.054132,-0.504613,1,-0.039075, 0.129838, 0.015735,1, 0.162195, 0.186434, 9.803536,1,0
1778252091229,  2355.913,  2355.913, 0.012714,-0.053254,-1.067043, 0.000319,-0.000504,-0.010898, 0.259831,-0.347851,-0.659947,1, 0.042101, 0.135501, 0.041044,1, 0.130942, 0.175691, 9.804202,1,0
1778252091254,  2355.938,  2355.938,-0.008828,-0.090336,-1.108352, 0.000166,-0.000753,-0.011786, 0.028641,-0.708144,-1.064860,1, 0.072223, 0.058724, 0.075449,1, 0.113425, 0.179973, 9.804342,1,0
1778252091276,  2355.963,  2355.958, 0.039015,-0.047726,-1.161467, 0.000179,-0.001093,-0.011134,-0.028455,-0.311305,-0.569788,1, 0.120627, 0.083818, 0.097308,1, 0.099374, 0.189847, 9.804309,1,0
1778252091299,  2355.983,  2355.983, 0.022976, 0.018752,-1.117349, 0.000151,-0.000018,-0.011153, 0.315597, 0.380153,-1.153179,1, 0.001376,-0.010659, 0.119268,1, 0.090686, 0.196272, 9.804266,1,0
1778252091325,  2356.008,  2356.008, 0.048459,-0.031393,-1.218112, 0.000529,-0.000358,-0.012221, 0.563849,-0.109363,-2.141360,1, 0.005864, 0.015659, 0.115079,1, 0.088216, 0.198645, 9.804241,1,0
1778252091346,  2356.033,  2356.028, 0.020604,-0.066084,-1.028354,-0.000129,-0.001102,-0.009842, 0.144033,-0.133661,-0.514107,1,-0.025062,-0.070688, 0.119412,1, 0.098737, 0.189763, 9.804317,1,0
1778252091369,  2356.053,  2356.053, 0.007372,-0.097311,-1.135054, 0.000109,-0.001115,-0.010911, 0.184750,-0.771293,-1.326779,1,-0.015961,-0.068156, 0.150211,1, 0.114629, 0.182454, 9.804282,1,0
1778252091395,  2356.078,  2356.078,-0.001325,-0.132802,-0.947765, 0.000256,-0.001274,-0.009427, 0.115683,-1.113559, 0.509583,1, 0.049231,-0.098737, 0.187889,1, 0.131868, 0.190248, 9.803918,1,0
1778252091416,  2356.103,  2356.098,-0.002909,-0.004805,-1.054441,-0.000136,-0.000409,-0.010673,-0.267376,-0.186927, 0.328707,1, 0.075608,-0.069376, 0.197366,1, 0.149926, 0.202746, 9.803408,1,0
1778252091439,  2356.123,  2356.123,-0.003035, 0.026406,-0.896067,-0.000092, 0.000216,-0.008965, 0.142804, 0.466668, 1.015513,1, 0.022054,-0.091253, 0.177848,1, 0.175534, 0.208301, 9.802866,1,0
1778252091465,  2356.148,  2356.148,-0.003270, 0.042158,-0.958911,-0.000028, 0.000438,-0.009863, 0.151557, 0.626722, 0.398905,1, 0.055845,-0.032401, 0.147434,1, 0.184733, 0.214948, 9.802553,1,0
1778252091486,  2356.173,  2356.168,-0.014462, 0.066435,-0.978484,-0.000538, 0.000189,-0.008708, 0.156415, 1.293614, 1.756944,1, 0.022679,-0.054036, 0.116671,1, 0.194994, 0.210098, 9.802460,1,0
1778252091509,  2356.193,  2356.193, 0.022589, 0.051858,-0.974863, 0.000229, 0.000205,-0.009700, 0.403021, 0.717612, 0.242602,1,-0.049585, 0.050018, 0.093217,1, 0.180003, 0.207458, 9.802803,1,0
1778252091535,  2356.218,  2356.218,-0.054102, 0.117754,-0.866241,-0.000711, 0.000627,-0.008755,-0.351279, 1.368957, 1.307746,1, 0.006824, 0.134936, 0.091980,1, 0.175134, 0.214342, 9.802743,1,0
1778252091556,  2356.243,  2356.238,-0.076663,-0.021424,-0.769159,-0.000813,-0.000394,-0.007107, 0.717111, 0.668244,-0.472281,1, 0.082550, 0.051709, 0.055101,1, 0.150301, 0.223074, 9.802960,1,0
1778252091579,  2356.268,  2356.263,-0.028518, 0.031201,-1.030548,-0.000721,-0.000138,-0.009551,-0.158480, 0.536803,-0.303041,1, 0.025449, 0.201637, 0.028295,1, 0.114910, 0.231609, 9.803241,1,0
1778252091605,  2356.288,  2356.288,-0.011032, 0.002375,-1.041940,-0.000084,-0.000123,-0.010168,-0.019037, 0.256780,-0.414477,1,-0.049682, 0.073549, 0.019697,1, 0.086867, 0.231929, 9.803522,1,0
1778252091626,  2356.313,  2356.308, 0.043672,-0.076845,-1.183437, 0.000037,-0.000548,-0.011541,-0.308623, 1.220166,-0.697345,1,-0.005980, 0.187877,-0.004044,1, 0.065051, 0.230461, 9.803726,1,0
