Time,GPS_ts,fGPS_ts,scaledAccelX,scaledAccelY,scaledAccelZ,deltaVelX,deltaVelY,deltaVelZ,estLinearAccelX,estLinearAccelY,estLinearAccelZ,estLinearAccel:valid,estAngularRateX,estAngularRateY,estAngularRateZ,estAngularRate:valid,estGravityX,estGravityY,estGravityZ,estGravity:valid,flag
1778021950147,   932.276,   932.273,-0.003824,-0.004423,-0.986495,-0.000011,-0.000014,-0.002960,-0.062311,-0.013475, 0.129648,1, 0.037217,-0.000446, 0.017959,1,-0.060125, 0.008245, 9.806462,1,0
1778021950147,   932.285,   932.282,-0.000260,-0.003777,-0.990037,-0.000001,-0.000010,-0.002969,-0.063351,-0.015853, 0.116054,1, 0.044085, 0.002818, 0.016747,1,-0.060276, 0.011939, 9.806458,1,0
1778021950147,   932.294,   932.291,-0.000316,-0.007604,-0.996850,-0.000001,-0.000022,-0.002990,-0.069571,-0.054149, 0.072756,1, 0.054327, 0.003900, 0.015403,1,-0.060562, 0.016573, 9.806449,1,0
1778021950147,   932.303,   932.300, 0.000368,-0.007268,-1.006383, 0.000002,-0.000023,-0.003021,-0.028681,-0.055160,-0.043286,1, 0.050258, 0.002648, 0.013035,1,-0.060900, 0.021154, 9.806438,1,0
1778021950147,   932.312,   932.309, 0.000282,-0.004131,-1.001581,-0.000000,-0.000012,-0.003002,-0.052655,-0.019868,-0.039219,1, 0.039444, 0.000075, 0.011945,1,-0.060955, 0.025003, 9.806429,1,0
1778021950147,   932.321,   932.318, 0.000367,-0.002341,-1.004371,-0.000001,-0.000006,-0.003012,-0.081695,-0.012533,-0.023682,1, 0.030992, 0.000475, 0.009459,1,-0.060972, 0.028030, 9.806420,1,0
1778021950147,   932.330,   932.327,-0.000018,-0.000238,-0.997642, 0.000001,-0.000001,-0.002994,-0.045289, 0.019820,-0.002747,1, 0.026028, 0.001481, 0.007830,1,-0.061122, 0.030400, 9.806413,1,0
1778021950147,   932.339,   932.336, 0.002488, 0.002105,-0.993615, 0.000007, 0.000006,-0.002981,-0.043221, 0.035501, 0.032292,1, 0.021419,-0.000718, 0.008279,1,-0.061075, 0.032391, 9.806406,1,0
1778021950147,   932.348,   932.345, 0.000610,-0.002298,-0.988147, 0.000002,-0.000007,-0.002963,-0.043509, 0.038519, 0.128856,1, 0.030799,-0.001870, 0.007777,1,-0.060891, 0.034768, 9.806399,1,0
1778021950147,   932.357,   932.351, 0.005651, 0.000966,-0.990595, 0.000018, 0.000004,-0.002972,-0.046193, 0.022471, 0.086105,1, 0.034037, 0.001172, 0.007635,1,-0.060877, 0.036757, 9.806392,1,0
1778021950147,   932.363,   932.360, 0.003013,-0.003406,-0.988168, 0.000009,-0.000011,-0.002965,-0.024922, 0.017641, 0.108827,1, 0.047092, 0.001581, 0.006215,1,-0.061029, 0.040523, 9.806376,1,0
1778021950153,   943.268,   932.366, 0.005963,-0.009391,-0.995116, 0.000018,-0.000028,-0.002985, 0.007791, 0.023665, 0.100712,1, 0.050120, 0.005159, 0.005228,1,-0.061282, 0.043440, 9.806362,1,0
1778021950164,   943.277,   943.274, 0.006096,-0.009146,-0.996779, 0.000019,-0.000028,-0.002990,-0.014686, 0.034509, 0.036918,1, 0.004539, 0.001122,-0.000644,1,-0.074650, 0.129278, 9.805513,1,0
1778021950174,   943.286,   943.283, 0.006059,-0.008782,-0.997067, 0.000018,-0.000027,-0.002991,-0.021284, 0.043421, 0.029426,1, 0.001187,-0.000017,-0.000238,1,-0.074659, 0.129464, 9.805511,1,0
1778021950185,   943.295,   943.292, 0.005909,-0.008979,-0.996178, 0.000018,-0.000026,-0.002988,-0.017382, 0.046708, 0.034160,1,-0.000510, 0.000134,-0.000689,1,-0.074698, 0.129451, 9.805511,1,0
1778021950196,   943.304,   943.301, 0.005948,-0.007934,-0.995619, 0.000018,-0.000024,-0.002987,-0.016034, 0.044673, 0.047981,1,-0.001972,-0.000264,-0.000706,1,-0.074701, 0.129357, 9.805512,1,0
1778021950207,   943.310,   943.310, 0.005593,-0.007778,-0.995574, 0.000017,-0.000023,-0.002986,-0.019879, 0.052921, 0.042271,1,-0.000724, 0.000067,-0.001100,1,-0.074732, 0.129186, 9.805514,1,0
1778021950217,   943.319,   943.319, 0.007080,-0.008208,-0.995477, 0.000021,-0.000024,-0.002986,-0.005301, 0.048801, 0.043215,1, 0.002474, 0.000482,-0.000200,1,-0.074738, 0.129316, 9.805512,1,0
1778021950228,   943.328,   943.328, 0.007356,-0.007981,-0.995000, 0.000021,-0.000024,-0.002985,-0.002595, 0.051382, 0.047895,1, 0.006303, 0.000444, 0.001373,1,-0.074735, 0.129705, 9.805508,1,0
1778021950239,   943.337,   943.334, 0.008099,-0.008897,-0.994427, 0.000024,-0.000027,-0.002983,-0.001107, 0.048288, 0.058425,1, 0.007184,-0.000622, 0.000311,1,-0.074713, 0.130134, 9.805502,1,0
1778021950250,   943.346,   943.343, 0.008026,-0.009023,-0.996437, 0.000024,-0.000027,-0.002990, 0.004062, 0.047965, 0.046420,1, 0.009030,-0.000294,-0.000294,1,-0.074649, 0.130830, 9.805493,1,0
1778021950260,   943.355,   943.352, 0.008547,-0.009598,-0.995877, 0.000026,-0.000028,-0.002988, 0.005356, 0.043877, 0.036535,1, 0.009055,-0.000111, 0.000559,1,-0.074620, 0.131614, 9.805483,1,0
1778021950271,   943.364,   943.361, 0.008485,-0.009055,-0.996529, 0.000025,-0.000027,-0.002989, 0.010603, 0.036994, 0.030092,1, 0.006226,-0.001065, 0.000503,1,-0.074568, 0.132240, 9.805475,1,0
1778021950282,   943.373,   943.370, 0.008910,-0.009082,-0.997396, 0.000027,-0.000027,-0.002992, 0.011914, 0.036270, 0.032203,1, 0.003569,-0.000623, 0.000315,1,-0.074507, 0.132649, 9.805470,1,0
1778021950293,   943.379,   943.379, 0.008776,-0.010314,-0.996895, 0.000027,-0.000031,-0.002990, 0.011564, 0.031727, 0.029265,1, 0.002565, 0.000206, 0.001209,1,-0.074497, 0.132898, 9.805467,1,0
1778021950303,   943.388,   943.388, 0.009023,-0.009581,-0.995911, 0.000027,-0.000029,-0.002988, 0.014003, 0.039041, 0.038911,1, 0.001262,-0.000446, 0.000945,1,-0.074476, 0.133013, 9.805465,1,0
1778021950314,   943.397,   943.397, 0.009145,-0.009818,-0.994590, 0.000027,-0.000029,-0.002984, 0.015222, 0.036825, 0.051866,1, 0.002637, 0.000272,-0.000163,1,-0.074458, 0.133133, 9.805464,1,0
1778021950325,   943.472,   943.472, 0.007862,-0.010943,-0.996193, 0.000023,-0.000032,-0.002989, 0.002726, 0.027089, 0.036129,1,-0.000507, 0.000087, 0.000073,1,-0.074376, 0.134398, 9.805447,1,0
1778021950336,   943.481,   943.481, 0.007643,-0.009096,-0.995101, 0.000023,-0.000027,-0.002985, 0.000575, 0.045054, 0.046843,1,-0.004506,-0.000871,-0.000046,1,-0.074365, 0.134214, 9.805449,1,0
1778021950347,   943.490,   943.487, 0.007691,-0.009945,-0.995190, 0.000023,-0.000030,-0.002986,-0.000647, 0.041917, 0.055523,1,-0.002078, 0.000115,-0.000114,1,-0.074370, 0.134066, 9.805451,1,0
1778021950357,   943.499,   943.496, 0.007244,-0.009693,-0.994774, 0.000022,-0.000029,-0.002985,-0.004211, 0.041509, 0.041532,1,-0.000295, 0.001330,-0.001246,1,-0.074458, 0.133942, 9.805452,1,0
1778021950368,   943.508,   943.505, 0.007437,-0.009597,-0.995049, 0.000022,-0.000029,-0.002985,-0.000215, 0.037149, 0.059643,1, 0.002105, 0.000117,-0.000536,1,-0.074507, 0.134023, 9.805451,1,0
1778021950379,   943.517,   943.514, 0.007191,-0.010058,-0.994968, 0.000022,-0.000030,-0.002985,-0.001212, 0.034818, 0.050019,1, 0.002972,-0.000868,-0.000739,1,-0.074497, 0.134226, 9.805449,1,0
1778021950390,   943.523,   943.523, 0.007271,-0.010186,-0.996188, 0.000022,-0.000031,-0.002988,-0.003163, 0.034701, 0.036181,1, 0.004198,-0.000734,-0.000341,1,-0.074464, 0.134631, 9.805443,1,0
1778021950400,   943.532,   943.532, 0.007644,-0.011392,-0.996837, 0.000023,-0.000035,-0.002991, 0.000476, 0.023103, 0.029805,1, 0.003508, 0.000117,-0.001078,1,-0.074488, 0.134856, 9.805440,1,0
1778021950411,   943.541,   943.541, 0.007513,-0.011707,-0.996704, 0.000023,-0.000035,-0.002990,-0.000811, 0.020148, 0.031107,1,-0.000417, 0.000504,-0.000240,1,-0.074496, 0.134949, 9.805438,1,0
1778021950422,   943.550,   943.550, 0.007785,-0.011194,-0.995886, 0.000023,-0.000034,-0.002987, 0.001844, 0.025142, 0.039133,1,-0.001840, 0.000134,-0.000487,1,-0.074506, 0.134901, 9.805439,1,0
1778021950433,   943.559,   943.556, 0.007614,-0.009718,-0.996729, 0.000023,-0.000030,-0.002990, 0.003507, 0.041228, 0.034013,1,-0.003062, 0.000711,-0.000751,1,-0.074514, 0.134728, 9.805441,1,0
1778021950443,   943.568,   943.565, 0.008584,-0.009329,-0.996316, 0.000026,-0.000028,-0.002989, 0.011505, 0.042955, 0.031051,1,-0.004631, 0.000426,-0.000234,1,-0.074597, 0.134384, 9.805446,1,0
1778021950454,   943.577,   943.574, 0.008331,-0.009154,-0.995201, 0.000025,-0.000028,-0.002986,-0.000852, 0.045339, 0.045922,1,-0.004322, 0.000196,-0.000955,1,-0.074598, 0.133985, 9.805450,1,0
1778021950465,   943.586,   943.583, 0.008240,-0.008555,-0.994404, 0.000025,-0.000026,-0.002983, 0.010975, 0.045873, 0.050218,1,-0.004038, 0.000026,-0.000640,1,-0.074575, 0.133618, 9.805456,1,0
1778021950476,   943.595,   943.592, 0.006991,-0.008658,-0.994585, 0.000021,-0.000026,-0.002984,-0.001708, 0.049721, 0.055344,1,-0.001602, 0.000352,-0.000930,1,-0.074608, 0.133451, 9.805458,1,0
1778021950486,   943.601,   943.601, 0.007346,-0.009335,-0.994827, 0.000022,-0.000028,-0.002984,-0.002516, 0.041918, 0.049537,1, 0.000672,-0.000721,-0.000445,1,-0.074552, 0.133466, 9.805458,1,0
1778021950497,   943.610,   943.610, 0.007140,-0.009597,-0.995376, 0.000021,-0.000029,-0.002986,-0.004545, 0.039578, 0.044154,1, 0.003484,-0.000406,-0.001123,1,-0.074562, 0.133723, 9.805455,1,0
1778021950508,   943.619,   943.619, 0.006379,-0.010145,-0.996515, 0.000019,-0.000030,-0.002990,-0.011988, 0.034523, 0.032973,1, 0.004081,-0.000394, 0.000311,1,-0.074539, 0.134051, 9.805450,1,0
1778021950519,   943.628,   943.628, 0.006365,-0.010313,-0.996173, 0.000020,-0.000032,-0.002988,-0.012108, 0.033234, 0.036329,1, 0.003519, 0.000945,-0.000307,1,-0.074539, 0.134401, 9.805446,1,0
1778021950530,   943.637,   943.634, 0.006396,-0.009219,-0.996480, 0.000020,-0.000027,-0.002989,-0.012514, 0.044622, 0.030038,1, 0.001278, 0.000652,-0.000300,1,-0.074585, 0.134513, 9.805444,1,0
1778021950540,   943.646,   943.643, 0.006714,-0.009969,-0.995369, 0.000020,-0.000030,-0.002986,-0.012094, 0.041947, 0.043897,1,-0.001105, 0.001088,-0.000880,1,-0.074637, 0.134475, 9.805444,1,0
1778021950551,   943.655,   943.652, 0.007349,-0.008635,-0.994932, 0.000022,-0.000026,-0.002985,-0.003397, 0.044783, 0.037814,1,-0.003252, 0.000349,-0.000555,1,-0.074689, 0.134255, 9.805447,1,0
1778021950562,   943.664,   943.661, 0.008313,-0.008477,-0.995888, 0.000024,-0.000025,-0.002988,-0.000883, 0.051404, 0.042009,1,-0.003603, 0.001271,-0.000635,1,-0.074706, 0.132204, 9.805474,1,0
1778021950573,   943.673,   943.670, 0.008740,-0.008993,-0.994346, 0.000027,-0.000027,-0.002983, 0.014647, 0.048247, 0.050031,1,-0.000757, 0.000221, 0.000145,1,-0.074711, 0.132085, 9.805476,1,0
1778021950583,   943.679,   943.679, 0.008992,-0.008250,-0.995330, 0.000027,-0.000024,-0.002986, 0.013404, 0.051254, 0.044621,1, 0.002919, 0.000539, 0.000523,1,-0.074785, 0.132190, 9.805474,1,0
1778021950594,   943.688,   943.688, 0.009254,-0.009095,-0.995725, 0.000028,-0.000027,-0.002988, 0.015903, 0.043376, 0.040744,1, 0.005488, 0.000830,-0.000457,1,-0.074857, 0.132617, 9.805468,1,0
1778021950605,   943.697,   943.697, 0.010382,-0.009383,-0.995572, 0.000031,-0.000028,-0.002986, 0.026972, 0.041159, 0.042234,1, 0.008347,-0.000342, 0.000254,1,-0.074839, 0.133254, 9.805459,1,0
1778021950616,   943.706,   943.703, 0.009359,-0.010167,-0.996176, 0.000028,-0.000030,-0.002988, 0.021329, 0.036742, 0.052256,1, 0.006162,-0.000585, 0.000418,1,-0.074817, 0.133647, 9.805454,1,0
1778021950626,   943.715,   943.712, 0.009771,-0.010785,-0.997401, 0.000029,-0.000032,-0.002992, 0.018812, 0.032459, 0.029959,1, 0.004191, 0.000340, 0.000236,1,-0.074796, 0.134153, 9.805448,1,0
1778021950637,   943.781,   943.721, 0.007194,-0.009973,-0.995635, 0.000021,-0.000030,-0.002987, 0.021223, 0.031862, 0.028040,1, 0.003039,-0.000392, 0.000096,1,-0.074800, 0.134483, 9.805443,1,0
1778021950648,   943.787,   943.787, 0.007161,-0.010012,-0.995890, 0.000022,-0.000030,-0.002987,-0.004843, 0.038542, 0.039059,1, 0.007187,-0.000275, 0.000291,1,-0.075066, 0.136792, 9.805408,1,0
1778021950659,   943.796,   943.796, 0.007170,-0.010379,-0.995838, 0.000022,-0.000031,-0.002987,-0.004768, 0.035535, 0.039564,1, 0.007558,-0.000163, 0.001108,1,-0.075080, 0.137389, 9.805400,1,0
1778021950669,   943.805,   943.805, 0.007173,-0.011644,-0.996460, 0.000022,-0.000035,-0.002990,-0.004728, 0.023701, 0.033462,1, 0.005659,-0.000967,-0.000244,1,-0.075062, 0.137943, 9.805392,1,0
1778021950680,   943.814,   943.814, 0.007178,-0.011902,-0.996654, 0.000021,-0.000036,-0.002990,-0.004691, 0.021453, 0.031548,1, 0.002278, 0.000168, 0.000992,1,-0.075080, 0.138191, 9.805388,1,0
1778021950691,   943.823,   943.820, 0.007456,-0.011057,-0.995737, 0.000022,-0.000033,-0.002987, 0.002496, 0.022822, 0.036985,1, 0.000412,-0.000010, 0.001337,1,-0.075085, 0.138243, 9.805388,1,0
1778021950702,   943.832,   943.829, 0.007060,-0.010564,-0.995980, 0.000021,-0.000032,-0.002988,-0.001002, 0.033106, 0.040018,1, 0.001015, 0.000790, 0.000131,1,-0.075115, 0.138353, 9.805387,1,0
1778021950712,   943.841,   943.838, 0.007985,-0.010738,-0.994818, 0.000024,-0.000032,-0.002985, 0.005074, 0.030015, 0.034733,1,-0.000001,-0.000488, 0.000957,1,-0.075119, 0.138349, 9.805387,1,0
1778021950723,   943.850,   943.847, 0.007497,-0.010145,-0.995811, 0.000023,-0.000031,-0.002988,-0.005128, 0.038923, 0.046571,1, 0.000930,-0.000467, 0.000314,1,-0.075088, 0.138348, 9.805387,1,0
1778021950734,   943.859,   943.856, 0.007105,-0.010329,-0.995575, 0.000021,-0.000031,-0.002987,-0.003013, 0.034739, 0.045414,1, 0.002452,-0.000547,-0.000058,1,-0.075056, 0.138461, 9.805386,1,0
1778021950745,   943.865,   943.865, 0.008367,-0.011016,-0.995501, 0.000025,-0.000033,-0.002987, 0.006794, 0.028925, 0.042877,1, 0.003148,-0.001441, 0.000430,1,-0.075255, 0.136935, 9.805405,1,0
1778021950756,   943.874,   943.874, 0.008432,-0.012373,-0.995152, 0.000025,-0.000037,-0.002986, 0.007465, 0.015847, 0.046289,1, 0.003050,-0.000684,-0.000259,1,-0.075224, 0.137218, 9.805402,1,0
1778021950766,   943.883,   943.883, 0.008226,-0.011586,-0.996204, 0.000025,-0.000034,-0.002989, 0.005410, 0.023803, 0.035977,1, 0.001896, 0.001375, 0.000876,1,-0.075276, 0.137442, 9.805398,1,0
1778021950777,   943.892,   943.892, 0.008037,-0.011274,-0.996084, 0.000024,-0.000034,-0.002988, 0.003578, 0.027019, 0.037149,1, 0.001918,-0.000744,-0.000252,1,-0.075234, 0.137601, 9.805396,1,0
1778021950788,   943.901,   943.898, 0.007682,-0.011290,-0.996610, 0.000023,-0.000034,-0.002990, 0.005039, 0.019700, 0.027624,1,-0.000218,-0.000239,-0.000841,1,-0.075239, 0.137594, 9.805396,1,0
1778021950799,   943.910,   943.907, 0.008634,-0.011409,-0.995600, 0.000026,-0.000035,-0.002986, 0.005543, 0.024013, 0.042182,1,-0.002628,-0.000427,-0.000206,1,-0.075242, 0.137414, 9.805399,1,0
1778021950809,   943.919,   943.916, 0.007676,-0.010992,-0.995802, 0.000023,-0.000033,-0.002988,-0.001211, 0.030178, 0.043117,1,-0.003804,-0.000220,-0.000615,1,-0.075224, 0.137117, 9.805403,1,0
1778021950820,   943.928,   943.925, 0.008470,-0.010644,-0.995678, 0.000025,-0.000032,-0.002988, 0.006996, 0.033983, 0.038332,1,-0.005228, 0.000400,-0.000843,1,-0.075270, 0.136727, 9.805408,1,0
1778021950831,   943.937,   943.934, 0.008200,-0.010400,-0.994917, 0.000025,-0.000030,-0.002985, 0.005102, 0.034757, 0.048577,1,-0.002560, 0.000400,-0.001381,1,-0.075233, 0.136445, 9.805412,1,0
1778021950842,   943.943,   943.943, 0.008536,-0.010954,-0.994626, 0.000025,-0.000033,-0.002984, 0.008533, 0.028803, 0.051470,1,-0.003057,-0.001145,-0.000935,1,-0.075161, 0.136200, 9.805416,1,0
1778021950852,   943.952,   943.952, 0.007689,-0.010796,-0.994340, 0.000023,-0.000032,-0.002983, 0.000290, 0.030213, 0.054273,1,-0.000644,-0.000023,-0.000418,1,-0.075111, 0.136074, 9.805418,1,0
1778021950863,   943.961,   943.961, 0.009251,-0.010561,-0.995674, 0.000028,-0.000032,-0.002987, 0.015613, 0.032396, 0.041188,1,-0.002240,-0.000403,-0.000683,1,-0.075108, 0.135945, 9.805420,1,0
1778021950874,   943.970,   943.967, 0.008559,-0.010570,-0.996136, 0.000026,-0.000031,-0.002989, 0.006891, 0.033446, 0.037868,1,-0.001430, 0.000160,-0.000421,1,-0.075108, 0.135868, 9.805421,1,0
1778021950885,   943.979,   943.976, 0.009440,-0.010569,-0.996254, 0.000028,-0.000032,-0.002989, 0.015755, 0.035034, 0.042551,1,-0.002226, 0.000130,-0.000702,1,-0.075103, 0.135725, 9.805423,1,0
1778021950895,   943.988,   943.985, 0.008770,-0.010168,-0.996726, 0.000027,-0.000031,-0.002991, 0.013488, 0.031752, 0.032202,1,-0.003748,-0.000415,-0.000533,1,-0.075024, 0.135472, 9.805428,1,0
1778021950906,   943.997,   943.994, 0.008712,-0.009622,-0.995855, 0.000026,-0.000029,-0.002987, 0.012131, 0.036793, 0.029493,1,-0.005425, 0.000130,-0.000338,1,-0.075032, 0.134980, 9.805434,1,0
1778021950917,   944.006,   944.003, 0.008924,-0.009221,-0.995065, 0.000026,-0.000027,-0.002985, 0.013206, 0.040373, 0.037513,1,-0.005433, 0.000214,-0.000908,1,-0.075045, 0.134436, 9.805441,1,0
1778021950928,   944.012,   944.012, 0.009591,-0.010154,-0.996092, 0.000029,-0.000030,-0.002988, 0.019003, 0.034425, 0.037120,1,-0.005603, 0.000980,-0.001912,1,-0.075063, 0.133949, 9.805448,1,0
1778021950938,   944.021,   944.021, 0.008607,-0.008632,-0.995412, 0.000026,-0.000026,-0.002986, 0.009280, 0.048914, 0.043796,1,-0.004931,-0.000009,-0.000323,1,-0.075125, 0.133521, 9.805453,1,0
1778021950949,   944.099,   944.096, 0.007093,-0.009510,-0.995300, 0.000021,-0.000029,-0.002986,-0.006726, 0.041603, 0.051771,1,-0.002210,-0.000217,-0.000378,1,-0.075507, 0.130608, 9.805490,1,0
1778021950960,   944.108,   944.105, 0.007211,-0.009419,-0.995699, 0.000021,-0.000028,-0.002987,-0.001272, 0.046281, 0.045376,1,-0.001936, 0.000324, 0.000477,1,-0.075508, 0.130381, 9.805492,1,0
1778021950971,   944.117,   944.114, 0.006555,-0.009061,-0.995222, 0.000020,-0.000027,-0.002986,-0.004094, 0.043197, 0.037927,1,-0.002200, 0.000825,-0.000252,1,-0.075555, 0.130249, 9.805494,1,0
1778021950982,   944.123,   944.123, 0.006981,-0.008702,-0.995615, 0.000021,-0.000027,-0.002987,-0.007081, 0.044878, 0.041846,1, 0.000300, 0.000144, 0.000381,1,-0.075546, 0.130214, 9.805494,1,0
1778021950992,   944.132,   944.132, 0.007206,-0.009398,-0.995597, 0.000022,-0.000028,-0.002987,-0.004872, 0.038189, 0.042022,1, 0.002758, 0.000080, 0.000634,1,-0.075536, 0.130377, 9.805492,1,0
1778021951003,   944.141,   944.141, 0.007644,-0.009659,-0.996184, 0.000023,-0.000029,-0.002988,-0.000570, 0.035877, 0.036258,1, 0.003590,-0.000653, 0.000652,1,-0.075529, 0.130634, 9.805489,1,0
1778021951014,   944.150,   944.147, 0.006686,-0.009722,-0.996356, 0.000020,-0.000029,-0.002989,-0.008047, 0.029963, 0.039694,1, 0.002878, 0.001242,-0.000668,1,-0.075558, 0.130793, 9.805487,1,0
1778021951025,   944.159,   944.156, 0.006915,-0.010270,-0.995683, 0.000021,-0.000031,-0.002986,-0.003562, 0.036827, 0.043129,1, 0.001122,-0.000461, 0.000546,1,-0.075477, 0.130980, 9.805485,1,0
1778021951035,   944.168,   944.165, 0.006606,-0.009257,-0.995828, 0.000020,-0.000028,-0.002987,-0.013803, 0.038380, 0.037965,1,-0.000840, 0.000065, 0.000694,1,-0.075453, 0.131027, 9.805485,1,0
1778021951046,   944.177,   944.174, 0.006692,-0.009565,-0.994712, 0.000020,-0.000028,-0.002983,-0.007980, 0.034367, 0.044372,1,-0.000692,-0.000115, 0.000227,1,-0.075386, 0.130994, 9.805486,1,0
1778021951057,   944.186,   944.183, 0.007644,-0.009539,-0.995621, 0.000023,-0.000029,-0.002987,-0.007932, 0.039662, 0.046042,1,-0.000804,-0.001007, 0.000200,1,-0.075377, 0.130920, 9.805487,1,0
1778021951068,   944.192,   944.192, 0.006488,-0.009448,-0.995671, 0.000019,-0.000029,-0.002987,-0.011728, 0.038268, 0.041286,1, 0.000668, 0.000351,-0.000284,1,-0.075354, 0.130930, 9.805487,1,0
1778021951078,   944.201,   944.201, 0.007518,-0.009158,-0.995428, 0.000023,-0.000028,-0.002986,-0.001636, 0.041212, 0.043668,1, 0.002139,-0.000481, 0.000028,1,-0.075359, 0.131042, 9.805485,1,0
1778021951089,   944.210,   944.210, 0.007678,-0.009726,-0.996532, 0.000024,-0.000029,-0.002990,-0.000115, 0.035919, 0.032840,1, 0.003204, 0.000639,-0.000361,1,-0.075420, 0.131330, 9.805481,1,0
1778021951100,   944.219,   944.219, 0.007946,-0.010200,-0.996768, 0.000024,-0.000031,-0.002990, 0.002491, 0.031598, 0.030525,1, 0.004406,-0.000187, 0.000692,1,-0.075428, 0.131670, 9.805476,1,0
1778021951111,   944.228,   944.225, 0.008158,-0.011238,-0.996411, 0.000025,-0.000034,-0.002990, 0.006249, 0.028289, 0.036437,1, 0.003821,-0.000612, 0.000299,1,-0.075397, 0.131927, 9.805472,1,0
1778021951121,   944.237,   944.234, 0.009741,-0.010718,-0.994692, 0.000029,-0.000032,-0.002983, 0.004351, 0.024061, 0.044269,1, 0.002007,-0.000529,-0.000237,1,-0.075393, 0.132171, 9.805470,1,0
1778021951132,   944.246,   944.243, 0.008975,-0.011217,-0.996126, 0.000027,-0.000034,-0.002988, 0.009285, 0.025848, 0.036806,1,-0.000474, 0.000129, 0.000736,1,-0.075370, 0.132223, 9.805469,1,0
1778021951143,   944.255,   944.252, 0.008829,-0.010983,-0.995146, 0.000027,-0.000033,-0.002986, 0.017563, 0.025243, 0.042591,1,-0.001820,-0.000137,-0.000262,1,-0.075379, 0.132101, 9.805470,1,0
1778021951154,   944.264,   944.261, 0.007721,-0.010808,-0.994183, 0.000023,-0.000032,-0.002982, 0.012961, 0.029406, 0.045039,1,-0.003251, 0.001185, 0.000678,1,-0.075351, 0.130151, 9.805497,1,0
1778021951165,   944.270,   944.270, 0.008395,-0.010566,-0.995507, 0.000026,-0.000032,-0.002987, 0.006951, 0.026354, 0.042914,1,-0.001786, 0.000398,-0.000135,1,-0.075379, 0.129950, 9.805499,1,0
1778021951175,   944.279,   944.279, 0.006671,-0.009680,-0.995418, 0.000020,-0.000029,-0.002986,-0.009941, 0.034933, 0.043780,1,-0.000591,-0.000608, 0.000602,1,-0.075355, 0.129852, 9.805501,1,0
1778021951187,   944.288,   944.288, 0.006826,-0.009553,-0.996248, 0.000020,-0.000029,-0.002988,-0.008445, 0.036240, 0.035639,1, 0.000349, 0.000806, 0.001073,1,-0.075390, 0.129922, 9.805499,1,0
1778021951197,   944.297,   944.297, 0.006146,-0.009887,-0.995871, 0.000019,-0.000029,-0.002988,-0.015176, 0.033125, 0.039336,1, 0.003255, 0.000375, 0.000055,1,-0.075449, 0.130116, 9.805496,1,0
1778021951208,   944.306,   944.303, 0.006191,-0.010105,-0.996058, 0.000019,-0.000030,-0.002988,-0.016025, 0.030228, 0.040600,1, 0.001985, 0.000486,-0.000088,1,-0.075469, 0.130249, 9.805494,1,0
1778021951218,   944.315,   944.312, 0.005914,-0.011092,-0.996138, 0.000018,-0.000034,-0.002988,-0.013715, 0.032701, 0.036216,1,-0.001236, 0.000430,-0.000094,1,-0.075486, 0.130269, 9.805494,1,0
1778021951229,   944.324,   944.321, 0.005894,-0.011150,-0.995104, 0.000017,-0.000034,-0.002986,-0.016900, 0.022053, 0.048297,1,-0.003326, 0.000216,-0.000369,1,-0.075535, 0.129992, 9.805497,1,0
1778021951240,   944.333,   944.330, 0.006271,-0.009712,-0.994441, 0.000019,-0.000029,-0.002984,-0.020178, 0.027943, 0.049024,1,-0.006872, 0.000365,-0.000169,1,-0.075568, 0.129426, 9.805505,1,0
1778021951251,   944.339,   944.339, 0.006600,-0.010648,-0.995331, 0.000020,-0.000032,-0.002986,-0.010954, 0.024409, 0.044645,1,-0.008091, 0.001004,-0.001297,1,-0.075686, 0.128751, 9.805512,1,0
1778021951261,   944.402,   944.402, 0.010020,-0.010038,-0.996761, 0.000030,-0.000030,-0.002991, 0.022507, 0.028887, 0.030646,1,-0.004989, 0.000576,-0.001118,1,-0.075759, 0.127280, 9.805532,1,0
1778021951272,   944.411,   944.408, 0.010529,-0.009603,-0.995511, 0.000032,-0.000029,-0.002986, 0.025591, 0.037478, 0.051352,1,-0.006505, 0.000409,-0.001533,1,-0.075784, 0.126904, 9.805536,1,0
1778021951283,   944.420,   944.417, 0.011370,-0.008128,-0.994730, 0.000034,-0.000024,-0.002983, 0.025881, 0.038287, 0.053976,1,-0.007894, 0.000934,-0.001318,1,-0.075894, 0.126269, 9.805543,1,0
1778021951294,   944.429,   944.426, 0.010183,-0.007040,-0.994836, 0.000031,-0.000021,-0.002985, 0.028883, 0.048600, 0.049942,1,-0.005395,-0.000369,-0.000413,1,-0.075862, 0.125677, 9.805552,1,0
1778021951304,   944.438,   944.435, 0.009876,-0.006991,-0.995268, 0.000030,-0.000021,-0.002986, 0.018924, 0.053068, 0.044789,1,-0.002205, 0.000782,-0.001301,1,-0.075916, 0.125334, 9.805555,1,0
1778021951315,   944.447,   944.444, 0.008163,-0.007096,-0.995213, 0.000024,-0.000021,-0.002986, 0.011225, 0.054988, 0.046203,1, 0.001926,-0.000217,-0.000791,1,-0.075954, 0.125412, 9.805553,1,0
1778021951326,   944.453,   944.453, 0.008372,-0.007167,-0.994653, 0.000024,-0.000022,-0.002984, 0.006143, 0.055489, 0.051338,1, 0.005317, 0.000174,-0.000193,1,-0.075961, 0.125819, 9.805549,1,0
1778021951337,   944.462,   944.462, 0.007956,-0.008310,-0.996484, 0.000024,-0.000025,-0.002990, 0.001938, 0.043651, 0.033390,1, 0.007955, 0.000226,-0.000319,1,-0.076115, 0.124828, 9.805560,1,0
1778021951347,   944.471,   944.471, 0.008119,-0.008942,-0.996714, 0.000024,-0.000027,-0.002989, 0.003526, 0.037688, 0.031123,1, 0.006955,-0.000316,-0.000130,1,-0.076094, 0.125446, 9.805552,1,0
1778021951358,   944.480,   944.480, 0.007690,-0.009400,-0.996700, 0.000023,-0.000028,-0.002990,-0.000639, 0.033657, 0.031263,1, 0.004851, 0.000346, 0.000010,1,-0.076052, 0.125882, 9.805547,1,0
1778021951369,   944.489,   944.486, 0.008414,-0.009356,-0.996913, 0.000025,-0.000029,-0.002991, 0.002820, 0.033609, 0.030451,1, 0.002957,-0.000187, 0.000229,1,-0.076073, 0.126109, 9.805544,1,0
1778021951380,   944.498,   944.495, 0.007491,-0.008941,-0.996489, 0.000023,-0.000027,-0.002990,-0.002799, 0.034270, 0.034779,1, 0.000410, 0.002417, 0.000752,1,-0.076217, 0.126233, 9.805541,1,0
1778021951391,   944.507,   944.504, 0.008601,-0.007836,-0.994984, 0.000026,-0.000023,-0.002985, 0.007364, 0.044535, 0.036957,1, 0.000525,-0.000400,-0.000324,1,-0.076221, 0.126236, 9.805541,1,0
1778021951401,   944.516,   944.513, 0.008206,-0.007713,-0.994189, 0.000025,-0.000024,-0.002983, 0.007024, 0.043096, 0.053225,1, 0.001843, 0.000062,-0.000068,1,-0.076222, 0.126304, 9.805540,1,0
1778021951412,   944.525,   944.522, 0.008610,-0.007703,-0.993857, 0.000026,-0.000023,-0.002982, 0.005751, 0.053619, 0.062982,1, 0.003492, 0.000404, 0.000138,1,-0.076248, 0.126537, 9.805537,1,0
1778021951423,   944.531,   944.531, 0.008564,-0.008076,-0.993990, 0.000026,-0.000024,-0.002982, 0.007726, 0.047706, 0.057824,1, 0.005366,-0.000483,-0.000600,1,-0.076251, 0.126955, 9.805532,1,0
1778021951434,   944.540,   944.540, 0.008410,-0.009081,-0.994662, 0.000025,-0.000027,-0.002984, 0.006171, 0.038595, 0.051220,1, 0.009552,-0.000103,-0.000609,1,-0.076305, 0.127738, 9.805521,1,0
1778021951444,   944.549,   944.549, 0.008228,-0.008953,-0.995681, 0.000025,-0.000027,-0.002986, 0.004412, 0.040829, 0.041216,1, 0.012054, 0.000220,-0.000239,1,-0.076281, 0.128739, 9.805509,1,0
1778021951455,   944.558,   944.558, 0.007790,-0.009570,-0.996495, 0.000023,-0.000029,-0.002989, 0.000070, 0.035802, 0.033217,1, 0.011843,-0.001333, 0.000061,1,-0.076308, 0.129759, 9.805494,1,0
1778021951466,   944.567,   944.564, 0.008196,-0.010173,-0.996431, 0.000024,-0.000031,-0.002989, 0.004658, 0.031007, 0.030376,1, 0.010963,-0.000289, 0.000001,1,-0.076310, 0.130407, 9.805486,1,0
1778021951477,   944.576,   944.573, 0.007097,-0.011069,-0.996886, 0.000021,-0.000033,-0.002991,-0.003226, 0.023284, 0.027051,1, 0.008429,-0.000512,-0.000045,1,-0.076240, 0.131175, 9.805476,1,0
1778021951487,   944.585,   944.582, 0.006909,-0.010908,-0.996981, 0.000021,-0.000033,-0.002991,-0.008697, 0.030271, 0.031573,1, 0.005471, 0.001235, 0.000668,1,-0.076311, 0.131801, 9.805468,1,0
1778021951498,   944.594,   944.591, 0.007123,-0.009841,-0.996181, 0.000021,-0.000029,-0.002988,-0.004555, 0.027985, 0.041892,1, 0.003044, 0.000122, 0.000487,1,-0.076356, 0.132065, 9.805464,1,0
1778021951509,   944.600,   944.600, 0.006798,-0.008702,-0.995540, 0.000021,-0.000026,-0.002987,-0.009751, 0.046950, 0.042550,1, 0.002450, 0.001568, 0.001196,1,-0.076428, 0.132313, 9.805460,1,0
1778021951520,   944.609,   944.609, 0.006683,-0.009240,-0.995072, 0.000020,-0.000028,-0.002985,-0.010957, 0.041932, 0.047132,1, 0.003843, 0.001019, 0.000299,1,-0.076506, 0.132583, 9.805455,1,0
1778021951531,   944.618,   944.618, 0.006795,-0.009235,-0.995616, 0.000021,-0.000028,-0.002987,-0.009931, 0.042537, 0.041790,1, 0.006318,-0.000023, 0.000254,1,-0.076565, 0.133164, 9.805447,1,0
1778021951541,   944.627,   944.627, 0.006784,-0.010195,-0.994945, 0.000020,-0.000030,-0.002984,-0.010001, 0.033857, 0.048363,1, 0.009425,-0.000630,-0.000445,1,-0.076523, 0.133922, 9.805437,1,0
1778021951552,   944.636,   944.633, 0.006793,-0.011197,-0.995463, 0.000021,-0.000034,-0.002986,-0.006521, 0.033657, 0.046688,1, 0.010816, 0.000852, 0.000928,1,-0.076534, 0.134588, 9.805428,1,0
1778021951563,   944.645,   944.642, 0.007102,-0.011112,-0.996243, 0.000022,-0.000033,-0.002989,-0.013667, 0.025132, 0.040835,1, 0.011777,-0.000507, 0.000241,1,-0.076480, 0.135565, 9.805415,1,0
1778021951574,   944.720,   944.720, 0.008574,-0.010235,-0.994363, 0.000026,-0.000030,-0.002983, 0.007391, 0.037063, 0.054012,1, 0.007902, 0.000516, 0.000074,1,-0.076693, 0.137511, 9.805386,1,0
1778021951584,   944.729,   944.729, 0.008748,-0.011770,-0.995937, 0.000027,-0.000035,-0.002988, 0.009074, 0.022650, 0.038576,1, 0.006798, 0.001420,-0.001136,1,-0.076725, 0.138136, 9.805377,1,0
1778021951595,   944.738,   944.738, 0.008795,-0.012730,-0.996143, 0.000027,-0.000038,-0.002988, 0.009545, 0.013811, 0.036545,1, 0.004987,-0.000965,-0.000518,1,-0.076694, 0.138700, 9.805369,1,0
1778021951606,   944.747,   944.744, 0.009420,-0.011306,-0.996114, 0.000029,-0.000034,-0.002989, 0.008184, 0.018525, 0.038871,1, 0.002020, 0.000768,-0.001799,1,-0.076718, 0.138874, 9.805367,1,0
1778021951617,   944.756,   944.753, 0.009062,-0.012045,-0.996341, 0.000027,-0.000037,-0.002989, 0.009243, 0.025315, 0.029656,1, 0.001267, 0.001040,-0.000707,1,-0.076793, 0.139020, 9.805364,1,0
1778021951627,   944.765,   944.762, 0.009313,-0.011304,-0.997032, 0.000028,-0.000034,-0.002991, 0.012468, 0.026148, 0.028617,1,-0.000514,-0.000315,-0.001272,1,-0.076786, 0.138990, 9.805365,1,0
1778021951638,   944.774,   944.771, 0.009488,-0.010436,-0.995398, 0.000029,-0.000031,-0.002986, 0.014590, 0.033762, 0.038449,1,-0.001126, 0.000141,-0.001758,1,-0.076772, 0.138931, 9.805366,1,0
1778021951649,   944.780,   944.780, 0.009004,-0.010763,-0.994622, 0.000027,-0.000032,-0.002984, 0.011475, 0.033317, 0.051451,1, 0.000165, 0.000264,-0.000911,1,-0.076827, 0.138871, 9.805366,1,0
1778021951660,   944.789,   944.789, 0.008975,-0.010302,-0.995390, 0.000027,-0.000031,-0.002986, 0.011193, 0.037856, 0.043919,1, 0.000159, 0.000517,-0.001238,1,-0.076829, 0.138890, 9.805366,1,0
1778021951670,   944.798,   944.798, 0.009243,-0.010432,-0.994942, 0.000028,-0.000031,-0.002986, 0.013766, 0.036735, 0.048318,1, 0.002439, 0.000815,-0.001488,1,-0.076882, 0.139064, 9.805363,1,0
1778021951681,   944.807,   944.807, 0.009336,-0.010152,-0.995637, 0.000028,-0.000031,-0.002987, 0.014593, 0.039740, 0.041492,1, 0.003829, 0.000103,-0.001525,1,-0.076962, 0.139330, 9.805358,1,0
1778021951692,   944.816,   944.813, 0.008974,-0.012725,-0.996531, 0.000027,-0.000039,-0.002989, 0.014880, 0.026519, 0.032403,1, 0.004676,-0.000161,-0.001293,1,-0.076967, 0.139537, 9.805355,1,0
1778021951703,   944.825,   944.822, 0.010153,-0.012601,-0.997082, 0.000030,-0.000037,-0.002992, 0.013950, 0.012868, 0.027571,1, 0.004494, 0.000681,-0.000608,1,-0.076990, 0.139913, 9.805349,1,0
1778021951713,   944.834,   944.831, 0.009332,-0.010775,-0.997404, 0.000028,-0.000033,-0.002992, 0.016907, 0.023804, 0.032729,1, 0.004559, 0.000409,-0.000233,1,-0.076991, 0.140240, 9.805345,1,0
1778021951724,   944.843,   944.840, 0.008915,-0.011056,-0.997625, 0.000027,-0.000034,-0.002993, 0.018871, 0.028081, 0.023391,1, 0.002866, 0.000561,-0.000819,1,-0.076996, 0.140526, 9.805341,1,0
1778021951735,   944.852,   944.849, 0.008569,-0.010553,-0.996283, 0.000025,-0.000031,-0.002989, 0.010062, 0.033441, 0.035003,1, 0.000477,-0.000281,-0.000872,1,-0.076989, 0.140596, 9.805340,1,0
1778021951746,   944.858,   944.858, 0.008791,-0.010491,-0.995849, 0.000026,-0.000031,-0.002987, 0.009227, 0.037606, 0.039401,1,-0.003646, 0.000623,-0.000776,1,-0.076989, 0.140457, 9.805342,1,0
1778021951756,   944.867,   944.867, 0.007919,-0.009994,-0.993742, 0.000024,-0.000030,-0.002982, 0.000303, 0.041040, 0.060079,1,-0.002160, 0.000797,-0.000049,1,-0.077363, 0.139021, 9.805360,1,0
1778021951767,   944.876,   944.876, 0.007587,-0.009887,-0.994269, 0.000023,-0.000029,-0.002982,-0.002993, 0.042003, 0.054914,1,-0.000313, 0.000250,-0.000926,1,-0.077399, 0.138962, 9.805360,1,0
1778021951778,   944.885,   944.885, 0.007063,-0.009138,-0.994802, 0.000021,-0.000028,-0.002985,-0.008130, 0.049428, 0.049683,1, 0.002513,-0.000678,-0.000836,1,-0.077384, 0.139062, 9.805359,1,0
1778021951789,   944.894,   944.891, 0.006168,-0.010994,-0.994516, 0.000018,-0.000033,-0.002984,-0.015133, 0.038063, 0.060285,1, 0.004893, 0.000567,-0.000305,1,-0.077349, 0.139336, 9.805355,1,0
1778021951800,   944.903,   944.900, 0.005330,-0.011652,-0.996000, 0.000016,-0.000035,-0.002988,-0.016295, 0.028690, 0.045045,1, 0.008539, 0.000025,-0.000148,1,-0.077391, 0.139985, 9.805346,1,0
1778021951810,   944.912,   944.909, 0.004888,-0.012608,-0.996518, 0.000015,-0.000038,-0.002990,-0.034977, 0.019848, 0.029498,1, 0.011044, 0.000130, 0.000901,1,-0.077420, 0.140913, 9.805332,1,0
1778021951821,   944.921,   944.918, 0.004816,-0.011726,-0.996528, 0.000014,-0.000035,-0.002990,-0.034521, 0.024533, 0.025370,1, 0.008326,-0.000121, 0.000091,1,-0.077440, 0.141721, 9.805320,1,0
1778021951832,   944.930,   944.927, 0.005101,-0.012542,-0.997552, 0.000015,-0.000037,-0.002993,-0.025438, 0.021951, 0.030810,1, 0.005250, 0.001471, 0.000581,1,-0.077556, 0.142298, 9.805311,1,0
1778021951843,   944.936,   944.936, 0.005560,-0.012256,-0.997024, 0.000017,-0.000037,-0.002991,-0.023060, 0.022335, 0.027837,1, 0.001951, 0.000816, 0.001493,1,-0.077596, 0.142546, 9.805307,1,0
1778021951853,   944.945,   944.945, 0.005627,-0.011663,-0.996478, 0.000017,-0.000036,-0.002990,-0.022453, 0.028125, 0.033199,1,-0.001295,-0.000348, 0.000933,1,-0.077627, 0.142492, 9.805307,1,0
1778021951864,   944.954,   944.954, 0.006504,-0.011885,-0.994990, 0.000020,-0.000035,-0.002985,-0.013880, 0.025772, 0.047790,1,-0.001411, 0.000054, 0.000073,1,-0.077659, 0.142310, 9.805310,1,0
1778021951875,   944.963,   944.960, 0.007474,-0.011600,-0.994086, 0.000022,-0.000035,-0.002982,-0.008497, 0.030403, 0.044533,1,-0.000986, 0.000694,-0.000584,1,-0.077692, 0.142212, 9.805311,1,0
1778021951886,   945.029,   945.026, 0.009568,-0.013955,-0.997371, 0.000029,-0.000042,-0.002992, 0.017128, 0.001333, 0.029019,1,-0.004269, 0.000744, 0.000539,1,-0.077898, 0.144012, 9.805284,1,0
1778021951896,   945.038,   945.035, 0.008054,-0.013458,-0.996596, 0.000024,-0.000041,-0.002989, 0.006312,-0.000198, 0.034618,1,-0.006956, 0.000208,-0.000038,1,-0.077898, 0.143495, 9.805290,1,0
1778021951907,   945.044,   945.044, 0.008117,-0.013121,-0.995190, 0.000024,-0.000040,-0.002985, 0.001660, 0.014133, 0.045821,1,-0.008554, 0.000620, 0.000005,1,-0.077949, 0.142722, 9.805302,1,0
1778021951918,   945.053,   945.053, 0.008601,-0.012013,-0.994758, 0.000027,-0.000037,-0.002984, 0.006374, 0.024247, 0.050065,1,-0.007668, 0.000831,-0.000491,1,-0.077983, 0.141982, 9.805312,1,0
1778021951929,   945.062,   945.062, 0.007971,-0.012215,-0.994166, 0.000023,-0.000037,-0.002983, 0.000330, 0.020796, 0.055900,1,-0.006308, 0.000288, 0.000114,1,-0.077798, 0.140270, 9.805338,1,0
1778021951939,   945.071,   945.071, 0.008159,-0.012639,-0.995345, 0.000024,-0.000039,-0.002987, 0.002174, 0.015894, 0.044341,1,-0.005751, 0.001125,-0.000202,1,-0.077853, 0.139784, 9.805345,1,0
1778021951950,   945.080,   945.077, 0.007592,-0.012585,-0.994659, 0.000023,-0.000037,-0.002983,-0.005100, 0.013198, 0.049687,1,-0.003351,-0.000778,-0.001108,1,-0.077843, 0.139538, 9.805348,1,0
1778021951961,   945.089,   945.086, 0.006548,-0.011676,-0.994841, 0.000019,-0.000035,-0.002985,-0.003969, 0.021348, 0.040005,1,-0.005703,-0.001052,-0.000648,1,-0.077811, 0.139089, 9.805355,1,0
1778021951972,   945.098,   945.095, 0.007816,-0.008969,-0.988246, 0.000024,-0.000027,-0.002966, 0.002742, 0.040386, 0.067773,1,-0.010913, 0.000763,-0.000392,1,-0.077787, 0.138478, 9.805364,1,0
1778021951983,   945.107,   945.104, 0.014102,-0.007823,-0.981693, 0.000045,-0.000027,-0.002949, 0.090655, 0.072724, 0.233526,1,-0.022958,-0.003586, 0.001928,1,-0.077565, 0.136857, 9.805388,1,0
1778021951993,   945.116,   945.113, 0.019119,-0.003791,-1.011009, 0.000057,-0.000013,-0.003029, 0.078900, 0.097568, 0.043473,1,-0.023105,-0.009988, 0.004993,1,-0.076822, 0.134548, 9.805426,1,0
1778021952004,   945.122,   945.122, 0.014258, 0.005347,-1.053579, 0.000047, 0.000011,-0.003169, 0.063267, 0.186081,-0.526640,1,-0.002474,-0.004562, 0.004364,1,-0.076509, 0.133624, 9.805441,1,0
1778021952015,   945.131,   945.131, 0.014138,-0.010603,-1.025572, 0.000045,-0.000030,-0.003077, 0.061716, 0.031199,-0.252012,1, 0.028899, 0.007244, 0.005892,1,-0.076998, 0.135454, 9.805412,1,0
1778021952026,   945.140,   945.140, 0.014961,-0.019430,-0.946904, 0.000045,-0.000056,-0.002836, 0.069164,-0.053985, 0.519433,1, 0.002984, 0.007069, 0.008023,1,-0.077623, 0.136583, 9.805391,1,0
1778021952036,   945.149,   945.149, 0.004429,-0.013767,-0.934964, 0.000014,-0.000043,-0.002807,-0.034124,-0.001517, 0.636568,1,-0.060816,-0.007887, 0.012603,1,-0.077482, 0.132921, 9.805443,1,0
1778021952047,   945.158,   945.155, 0.003868,-0.004076,-0.984803, 0.000013,-0.000014,-0.002954, 0.151583, 0.012831, 0.215270,1,-0.080670,-0.009263, 0.013684,1,-0.077170, 0.128458, 9.805505,1,0
1778021952058,   945.167,   945.164, 0.014631, 0.007386,-1.045178, 0.000044, 0.000021,-0.003139, 0.064753, 0.173958,-0.341962,1,-0.065261, 0.000768, 0.015279,1,-0.076608, 0.121905, 9.805593,1,0
1778021952069,   945.176,   945.173, 0.008527, 0.009045,-0.997202, 0.000024, 0.000026,-0.002996, 0.043324, 0.250148,-0.231028,1,-0.020960,-0.002158, 0.017484,1,-0.076575, 0.118502, 9.805635,1,0
1778021952079,   945.185,   945.182,-0.001673, 0.006127,-0.968547,-0.000008, 0.000018,-0.002902,-0.010062, 0.168210, 0.347346,1, 0.004834,-0.001969, 0.018381,1,-0.076579, 0.118399, 9.805636,1,0
1778021952090,   945.194,   945.191,-0.003354,-0.003115,-1.017916,-0.000010,-0.000010,-0.003055,-0.029908, 0.149449,-0.015419,1, 0.018459, 0.001057, 0.020445,1,-0.076796, 0.119633, 9.805619,1,0
1778021952101,   945.200,   945.200,-0.006832,-0.011471,-1.008562,-0.000022,-0.000033,-0.003025,-0.143952, 0.009482,-0.085030,1, 0.035604, 0.005964, 0.019672,1,-0.077007, 0.122312, 9.805585,1,0
1778021952112,   945.209,   945.209,-0.011187,-0.022187,-0.986405,-0.000034,-0.000067,-0.002961,-0.187382,-0.092716, 0.132214,1, 0.028694, 0.008809, 0.014681,1,-0.077760, 0.125132, 9.805543,1,0
1778021952122,   945.218,   945.218,-0.012791,-0.030571,-0.961610,-0.000038,-0.000093,-0.002887,-0.203459,-0.173287, 0.375348,1, 0.005212,-0.003195, 0.009693,1,-0.077996, 0.126564, 9.805523,1,0
1778021952133,   945.227,   945.224,-0.013529,-0.024827,-0.985362,-0.000040,-0.000076,-0.002952,-0.216047,-0.132433, 0.354615,1,-0.006238,-0.004973, 0.007890,1,-0.077698, 0.126336, 9.805529,1,0
1778021952144,   945.236,   945.233,-0.007434,-0.006314,-1.047862,-0.000023,-0.000018,-0.003146,-0.201298, 0.046684,-0.285122,1,-0.005181,-0.004170, 0.003643,1,-0.077220, 0.125430, 9.805544,1,0
1778021952155,   945.245,   945.242,-0.000640,-0.007236,-1.020169,-0.000003,-0.000021,-0.003061,-0.108163, 0.063633,-0.370906,1, 0.029396,-0.002873,-0.000846,1,-0.076979, 0.126836, 9.805528,1,0
1778021952165,   945.254,   945.251, 0.012853,-0.013455,-0.984966, 0.000038,-0.000040,-0.002952, 0.003522, 0.019111, 0.085822,1, 0.052040, 0.003278,-0.005187,1,-0.077143, 0.131011, 9.805471,1,0
1778021952176,   945.263,   945.260, 0.019645,-0.019343,-0.983682, 0.000060,-0.000058,-0.002951, 0.084165,-0.033973, 0.161283,1, 0.047697,-0.001138,-0.004550,1,-0.077083, 0.135552, 9.805410,1,0
1778021952187,   945.269,   945.269, 0.015630,-0.021484,-0.994131, 0.000047,-0.000065,-0.002983, 0.077403,-0.074039, 0.056312,1, 0.031077,-0.004384,-0.003572,1,-0.075832, 0.136931, 9.805401,1,0
1778021952198,   945.344,   945.341, 0.006099,-0.017507,-1.019253, 0.000018,-0.000052,-0.003059,-0.010389,-0.048060,-0.108924,1, 0.020015,-0.001433,-0.003711,1,-0.075984, 0.137607, 9.805390,1,0
1778021952209,   945.353,   945.350, 0.006638,-0.019306,-1.006585, 0.000020,-0.000058,-0.003021, 0.004424,-0.047868,-0.180768,1, 0.002128,-0.001189,-0.004321,1,-0.075876, 0.138355, 9.805381,1,0
1778021952219,   945.362,   945.359, 0.011293,-0.019838,-0.980429, 0.000034,-0.000061,-0.002941, 0.029765,-0.058124, 0.149947,1,-0.026583, 0.000721,-0.005079,1,-0.075853, 0.136965, 9.805400,1,0
1778021952230,   945.371,   945.368, 0.012931,-0.014538,-0.982762, 0.000040,-0.000044,-0.002948, 0.046408,-0.020188, 0.202313,1,-0.054152,-0.002894,-0.003988,1,-0.075725, 0.132869, 9.805457,1,0
1778021952241,   945.377,   945.377, 0.009689,-0.007658,-0.992492, 0.000029,-0.000023,-0.002977, 0.019562, 0.052937, 0.072504,1,-0.060114,-0.004091,-0.004988,1,-0.075413, 0.127473, 9.805532,1,0
1778021952252,   945.386,   945.386, 0.009248,-0.000238,-1.013594, 0.000028,-0.000000,-0.003042, 0.015302, 0.121454,-0.134383,1,-0.035643, 0.001202,-0.004871,1,-0.075397, 0.123453, 9.805583,1,0
1778021952262,   945.395,   945.395, 0.007694,-0.002635,-0.994146, 0.000023,-0.000008,-0.002983,-0.000128, 0.096481, 0.056355,1,-0.002106, 0.001919,-0.004344,1,-0.075595, 0.122302, 9.805596,1,0
1778021952273,   945.404,   945.404, 0.004398,-0.008025,-0.975241, 0.000012,-0.000024,-0.002925,-0.032521, 0.044380, 0.241733,1, 0.013435, 0.000660,-0.002375,1,-0.075661, 0.123202, 9.805584,1,0
1778021952284,   945.413,   945.410, 0.004020,-0.013059,-0.995323, 0.000012,-0.000039,-0.002987,-0.011082, 0.012444, 0.111605,1, 0.013742,-0.001497,-0.001767,1,-0.075643, 0.124028, 9.805573,1,0
1778021952295,   945.422,   945.419, 0.001810,-0.019527,-1.001619, 0.000005,-0.000059,-0.003005,-0.050986,-0.042814,-0.005083,1, 0.007550,-0.002953,-0.000490,1,-0.075385, 0.124916, 9.805565,1,0
1778021952305,   945.431,   945.428, 0.003712,-0.020895,-1.002306, 0.000011,-0.000062,-0.003007,-0.053198,-0.073297,-0.024642,1,-0.009792,-0.000823,-0.001789,1,-0.075307, 0.124616, 9.805569,1,0
1778021952316,   945.440,   945.437, 0.002728,-0.020522,-0.993578, 0.000008,-0.000062,-0.002980,-0.041757,-0.092168, 0.030731,1,-0.035109,-0.001708,-0.003101,1,-0.075231, 0.122306, 9.805598,1,0
1778021952327,   945.446,   945.446, 0.003990,-0.016266,-0.999644, 0.000012,-0.000050,-0.002998,-0.036037,-0.041091, 0.002488,1,-0.057269,-0.000066,-0.004252,1,-0.075167, 0.117891, 9.805654,1,0
1778021952338,   945.455,   945.455, 0.006886,-0.007004,-1.018378, 0.000021,-0.000022,-0.003056,-0.007671, 0.044213,-0.181170,1,-0.064093, 0.001128,-0.003970,1,-0.075208, 0.112297, 9.805718,1,0
1778021952348,   945.464,   945.464, 0.007386,-0.000959,-1.000625, 0.000022,-0.000004,-0.003002,-0.004076, 0.098550,-0.007023,1,-0.057309, 0.001136,-0.003193,1,-0.076587, 0.107444, 9.805762,1,0
1778021952359,   945.473,   945.473, 0.010171, 0.001055,-0.980232, 0.000031, 0.000003,-0.002940, 0.022943, 0.113717, 0.193015,1,-0.048053, 0.001510,-0.001875,1,-0.076817, 0.102922, 9.805809,1,0
1778021952370,   945.482,   945.479, 0.011410, 0.001097,-0.977540, 0.000035, 0.000003,-0.002932, 0.033129, 0.118016, 0.227673,1,-0.041527,-0.000775,-0.001957,1,-0.076841, 0.100378, 9.805835,1,0
1778021952381,   945.491,   945.488, 0.009928, 0.000375,-0.986552, 0.000030, 0.000001,-0.002959, 0.021627, 0.113331, 0.180732,1,-0.027265,-0.002603,-0.001237,1,-0.076653, 0.097548, 9.805865,1,0
1778021952392,   945.500,   945.497, 0.010070,-0.001538,-0.996829, 0.000030,-0.000004,-0.002991, 0.022458, 0.093348, 0.031394,1,-0.006845,-0.002834,-0.001880,1,-0.076476, 0.096269, 9.805880,1,0
1778021952402,   945.509,   945.506, 0.008824,-0.007729,-0.987652, 0.000026,-0.000023,-0.002962, 0.020448, 0.036512, 0.088355,1, 0.010560,-0.002782,-0.003131,1,-0.076324, 0.096792, 9.805875,1,0
1778021952413,   945.518,   945.515, 0.010386,-0.009512,-0.999609, 0.000032,-0.000029,-0.002999, 0.018955,-0.002495, 0.062425,1, 0.011655,-0.001267,-0.003166,1,-0.076184, 0.097887, 9.805865,1,0
1778021952424,   945.524,   945.524, 0.008143,-0.010272,-1.008310, 0.000025,-0.000031,-0.003025, 0.003858,-0.002453,-0.082277,1, 0.000314,-0.001964,-0.002799,1,-0.075975, 0.098288, 9.805863,1,0
1778021952435,   945.533,   945.533, 0.006489,-0.008512,-1.008843, 0.000020,-0.000025,-0.003027,-0.012273, 0.014112,-0.087503,1,-0.015657,-0.000088,-0.002472,1,-0.075905, 0.097438, 9.805872,1,0
1778021952445,   945.542,   945.542, 0.006789,-0.007928,-1.002489, 0.000021,-0.000024,-0.003008,-0.009507, 0.017524,-0.025168,1,-0.034926, 0.001777,-0.002397,1,-0.076103, 0.094945, 9.805895,1,0
1778021952456,   945.551,   945.551, 0.004531,-0.005931,-0.989216, 0.000013,-0.000018,-0.002967,-0.031777, 0.033200, 0.105034,1,-0.049415, 0.001525,-0.000915,1,-0.076229, 0.090904, 9.805932,1,0
1778021952467,   945.560,   945.557, 0.003503,-0.000526,-0.992741, 0.000010,-0.000002,-0.002979,-0.038961, 0.060876, 0.093413,1,-0.051707, 0.001019,-0.001116,1,-0.076316, 0.087838, 9.805960,1,0
1778021952478,   945.569,   945.566, 0.004111, 0.004057,-0.995134, 0.000012, 0.000012,-0.002986,-0.034381, 0.112276, 0.037174,1,-0.038491, 0.002171,-0.001402,1,-0.076457, 0.083933, 9.805993,1,0
1778021952488,   945.578,   945.575, 0.004153, 0.005819,-0.985776, 0.000012, 0.000017,-0.002957,-0.039183, 0.132349, 0.109602,1,-0.009194, 0.000785,-0.002415,1,-0.076563, 0.082256, 9.806006,1,0
1778021952499,   945.587,   945.584, 0.005383, 0.003641,-0.985559, 0.000016, 0.000011,-0.002957,-0.026703, 0.127528, 0.150219,1, 0.015951,-0.000473,-0.003142,1,-0.076571, 0.082991, 9.806000,1,0
1778021952510,   945.650,   945.650, 0.008654, 0.001707,-0.994778, 0.000026, 0.000005,-0.002985, 0.008590, 0.105103, 0.050515,1,-0.031774, 0.002349, 0.000309,1,-0.076296, 0.088067, 9.805958,1,0
1778021952521,   945.659,   945.659, 0.008486, 0.002690,-0.982616, 0.000025, 0.000008,-0.002948, 0.006817, 0.112623, 0.169797,1,-0.016735, 0.000656, 0.000853,1,-0.076412, 0.086089, 9.805974,1,0
1778021952532,   945.668,   945.665, 0.008249, 0.003866,-0.987061, 0.000024, 0.000012,-0.002961, 0.003822, 0.125266, 0.164895,1,-0.000128,-0.000080, 0.000939,1,-0.076316, 0.084019, 9.805993,1,0
1778021952542,   945.677,   945.674, 0.008327, 0.002105,-0.996346, 0.000025, 0.000006,-0.002989, 0.004791, 0.112106, 0.054436,1, 0.028222, 0.000464, 0.001990,1,-0.076353, 0.085638, 9.805979,1,0
1778021952553,   945.686,   945.683, 0.008271,-0.002216,-0.993002, 0.000025,-0.000007,-0.002978, 0.002834, 0.086048, 0.062918,1, 0.050978, 0.000116, 0.000027,1,-0.076326, 0.089565, 9.805943,1,0
1778021952564,   945.695,   945.692, 0.009303,-0.008531,-0.994442, 0.000028,-0.000025,-0.002983, 0.013928, 0.032128, 0.064013,1, 0.053944,-0.000348,-0.000344,1,-0.076318, 0.094386, 9.805899,1,0
1778021952575,   945.704,   945.701, 0.008685,-0.013232,-0.999585, 0.000026,-0.000039,-0.002998, 0.009819,-0.014304, 0.018556,1, 0.039164,-0.002661, 0.000003,1,-0.076179, 0.098419, 9.805861,1,0
1778021952585,   945.710,   945.710, 0.009048,-0.013930,-1.006134, 0.000027,-0.000042,-0.003018, 0.012670,-0.036196,-0.060959,1, 0.017224,-0.000839, 0.000945,1,-0.076053, 0.100574, 9.805840,1,0
1778021952596,   945.719,   945.719, 0.009986,-0.014195,-1.007433, 0.000030,-0.000043,-0.003023, 0.021947,-0.038362,-0.073709,1,-0.003425,-0.000450, 0.001397,1,-0.075981, 0.100815, 9.805838,1,0
1778021952607,   945.728,   945.728, 0.009776,-0.011069,-0.998211, 0.000029,-0.000033,-0.002994, 0.019844,-0.008887, 0.016741,1,-0.019363, 0.000176, 0.001670,1,-0.076032, 0.099478, 9.805851,1,0
1778021952618,   945.737,   945.737, 0.010306,-0.004689,-0.997174, 0.000031,-0.000015,-0.002991, 0.024908, 0.051633, 0.026927,1,-0.024530, 0.000906, 0.001641,1,-0.076163, 0.097384, 9.805871,1,1
1778021952628,   945.746,   945.743, 0.010314, 0.000319,-0.992745, 0.000031, 0.000001,-0.002978, 0.025677, 0.089358, 0.048345,1,-0.020557, 0.000996, 0.001158,1,-0.076217, 0.096105, 9.805882,1,1
1778021952639,   945.755,   945.752, 0.010786, 0.001802,-0.987216, 0.000032, 0.000006,-0.002962, 0.019598, 0.109357, 0.100750,1,-0.006428, 0.001087, 0.002842,1,-0.076314, 0.094994, 9.805893,1,1
1778021952650,   945.764,   945.761, 0.009769,-0.000541,-0.982824, 0.000029,-0.000001,-0.002948, 0.023989, 0.105534, 0.146782,1, 0.011995,-0.000700, 0.003247,1,-0.076354, 0.095522, 9.805887,1,1
1778021952661,   945.773,   945.770, 0.009464,-0.005664,-0.984699, 0.000028,-0.000017,-0.002953, 0.027685, 0.058866, 0.169075,1, 0.027196,-0.001591, 0.003481,1,-0.076229, 0.097505, 9.805869,1,1
1778021952671,   945.782,   945.779, 0.008813,-0.009779,-0.998498, 0.000026,-0.000029,-0.002996, 0.010543, 0.021007, 0.057200,1, 0.037144,-0.002387, 0.003784,1,-0.076068, 0.100526, 9.805840,1,1
1778021952682,   945.788,   945.788, 0.007753,-0.012359,-1.003996, 0.000023,-0.000037,-0.003013, 0.000233,-0.017509,-0.040030,1, 0.039221,-0.002432, 0.003512,1,-0.075778, 0.104062, 9.805805,1,1
1778021952693,   945.797,   945.797, 0.006956,-0.015555,-1.003537, 0.000021,-0.000046,-0.003011,-0.007472,-0.045943,-0.035561,1, 0.026641,-0.000478, 0.003901,1,-0.075685, 0.106849, 9.805776,1,1
1778021952704,   945.806,   945.806, 0.005752,-0.015870,-1.002186, 0.000018,-0.000047,-0.003007,-0.019315,-0.047874,-0.022318,1, 0.001630, 0.001132, 0.004066,1,-0.075738, 0.107777, 9.805765,1,1
1778021952714,   945.815,   945.815, 0.004903,-0.014612,-1.001310, 0.000015,-0.000044,-0.003004,-0.027747,-0.036602,-0.013718,1,-0.022325, 0.001037, 0.004356,1,-0.075842, 0.106489, 9.805779,1,1
1778021952725,   945.824,   945.821, 0.005012,-0.010896,-1.000824, 0.000016,-0.000033,-0.003003,-0.025810,-0.015070,-0.012751,1,-0.034075, 0.001071, 0.004706,1,-0.075884, 0.104600, 9.805799,1,1
1778021952736,   945.833,   945.830, 0.004928,-0.006025,-0.993870, 0.000015,-0.000018,-0.002982,-0.023838, 0.027399, 0.038903,1,-0.039541, 0.002283, 0.004911,1,-0.076078, 0.101120, 9.805834,1,1
1778021952747,   945.842,   945.839, 0.005789,-0.001321,-0.988614, 0.000017,-0.000004,-0.002966,-0.025616, 0.070779, 0.108238,1,-0.031667, 0.001490, 0.004579,1,-0.076194, 0.097983, 9.805864,1,1
1778021952757,   945.851,   945.848, 0.006297, 0.000662,-0.989485, 0.000019, 0.000002,-0.002969,-0.015855, 0.098772, 0.098556,1,-0.012166, 0.000379, 0.004423,1,-0.076222, 0.096291, 9.805881,1,1
1778021952768,   945.857,   945.857, 0.006001,-0.001127,-0.990116, 0.000018,-0.000004,-0.002971,-0.017359, 0.085498, 0.096155,1, 0.011138,-0.000243, 0.003527,1,-0.076201, 0.096653, 9.805878,1,1
1778021952779,   945.866,   945.866, 0.007065,-0.004919,-0.991319, 0.000021,-0.000015,-0.002974,-0.007034, 0.048861, 0.084357,1, 0.030873,-0.000279, 0.003006,1,-0.076317, 0.097369, 9.805870,1,1
1778021952790,   945.875,   945.875, 0.007410,-0.010408,-0.993264, 0.000022,-0.000031,-0.002980,-0.003582,-0.001905, 0.065246,1, 0.035905,-0.001956, 0.002381,1,-0.076227, 0.100499, 9.805839,1,1
1778021952801,   945.884,   945.881, 0.007997,-0.014014,-0.999198, 0.000024,-0.000042,-0.002998, 0.001337,-0.021417, 0.035517,1, 0.032027,-0.001517, 0.003183,1,-0.076111, 0.102468, 9.805820,1,1
1778021952811,   945.893,   945.890, 0.007875,-0.015672,-1.005690, 0.000024,-0.000047,-0.003017, 0.000553,-0.046839,-0.038697,1, 0.015453,-0.001842, 0.001839,1,-0.075953, 0.104324, 9.805801,1,1
1778021952819,   945.962,   945.890, 0.009229,-0.006939,-0.993615, 0.000028,-0.000021,-0.002981, 0.000553,-0.046839,-0.038697,1, 0.015453,-0.001842, 0.001839,1,-0.075953, 0.104324, 9.805801,1,1
1778021952822,   945.968,   945.968, 0.011081,-0.010092,-0.996191, 0.000033,-0.000030,-0.002988, 0.032610, 0.002296, 0.036540,1, 0.028837,-0.002306,-0.001185,1,-0.076038, 0.101535, 9.805830,1,1
1778021952833,   945.977,   945.977, 0.011110,-0.013600,-1.001720, 0.000034,-0.000041,-0.003005, 0.032964,-0.030098,-0.017707,1, 0.016614,-0.000660,-0.000949,1,-0.075979, 0.103425, 9.805810,1,1
1778021952844,   945.986,   945.986, 0.010527,-0.014795,-1.004689, 0.000032,-0.000045,-0.003014, 0.027286,-0.041126,-0.046829,1, 0.000304,-0.001284,-0.000488,1,-0.075933, 0.103968, 9.805805,1,1
1778021952854,   945.995,   945.995, 0.011254,-0.012008,-1.003131, 0.000034,-0.000036,-0.003009, 0.034387,-0.014569,-0.031544,1,-0.017190, 0.001320, 0.000328,1,-0.075988, 0.103026, 9.805815,1,1
1778021952865,   946.004,   946.001, 0.008843,-0.007661,-1.000979, 0.000026,-0.000023,-0.003003, 0.011744, 0.008082,-0.030699,1,-0.027161, 0.001752, 0.000438,1,-0.076073, 0.101595, 9.805829,1,1
1778021952876,   946.013,   946.010, 0.007964,-0.004447,-0.994153, 0.000023,-0.000014,-0.002983, 0.006251, 0.042001, 0.041809,1,-0.034222, 0.002079, 0.001267,1,-0.076308, 0.098709, 9.805857,1,1
1778021952887,   946.022,   946.019, 0.007994,-0.001929,-0.988041, 0.000024,-0.000006,-0.002964, 0.003372, 0.073646, 0.100080,1,-0.030129, 0.001836, 0.001725,1,-0.076490, 0.095808, 9.805883,1,1
1778021952897,   946.031,   946.028, 0.006996,-0.001096,-0.985634, 0.000021,-0.000003,-0.002957,-0.003447, 0.086650, 0.131536,1,-0.015980, 0.000877, 0.001799,1,-0.076570, 0.093872, 9.805902,1,1
1778021952908,   946.040,   946.037, 0.007326,-0.002501,-0.987939, 0.000022,-0.000007,-0.002964,-0.010172, 0.079284, 0.136100,1, 0.003858, 0.000067, 0.000028,1,-0.076573, 0.093600, 9.805904,1,1
1778021952919,   946.046,   946.046, 0.007799,-0.003728,-0.992214, 0.000024,-0.000011,-0.002976, 0.000043, 0.058388, 0.075593,1, 0.023677,-0.002520,-0.000491,1,-0.076420, 0.095169, 9.805890,1,1
1778021952930,   946.055,   946.055, 0.006626,-0.008028,-0.996333, 0.000020,-0.000024,-0.002989,-0.011241, 0.018996, 0.035175,1, 0.036338,-0.002174,-0.000967,1,-0.076196, 0.098064, 9.805863,1,1
1778021952940,   946.064,   946.064, 0.007829,-0.012028,-1.000701, 0.000024,-0.000036,-0.003002, 0.000617,-0.018120,-0.007675,1, 0.033460,-0.002322,-0.001183,1,-0.076139, 0.100079, 9.805843,1,1
1778021952951,   946.073,   946.070, 0.008328,-0.014162,-1.002362, 0.000025,-0.000043,-0.003007, 0.012537,-0.033837,-0.024044,1, 0.024529,-0.001963,-0.001107,1,-0.076007, 0.101720, 9.805828,1,1
1778021952962,   946.082,   946.079, 0.008395,-0.013643,-1.002903, 0.000025,-0.000041,-0.003009, 0.011604,-0.033226,-0.035383,1, 0.002969,-0.000479,-0.000738,1,-0.075887, 0.102699, 9.805819,1,1
1778021952973,   946.091,   946.088, 0.008033,-0.009150,-1.001094, 0.000024,-0.000027,-0.003004, 0.008986,-0.003989,-0.020301,1,-0.020971, 0.000740, 0.000107,1,-0.075932, 0.101571, 9.805830,1,1
1778021952984,   946.100,   946.097, 0.007931,-0.005021,-0.995970, 0.000024,-0.000015,-0.002988, 0.000063, 0.041124, 0.019703,1,-0.034071, 0.001661, 0.000920,1,-0.076023, 0.098909, 9.805857,1,1
1778021952994,   946.109,   946.106, 0.006980,-0.001215,-0.990847, 0.000021,-0.000004,-0.002973,-0.002803, 0.077692, 0.070353,1,-0.034288, 0.002148, 0.000414,1,-0.076175, 0.095758, 9.805886,1,1
1778021953005,   946.115,   946.115, 0.007725,-0.000057,-0.988793, 0.000023,-0.000000,-0.002967,-0.000589, 0.093264, 0.109153,1,-0.017755, 0.001094, 0.001358,1,-0.076359, 0.093655, 9.805905,1,1
1778021953016,   946.124,   946.124, 0.006535, 0.000031,-0.986196, 0.000019, 0.000001,-0.002959,-0.012282, 0.093729, 0.134626,1, 0.006075,-0.000400, 0.001475,1,-0.076360, 0.093478, 9.805907,1,1
1778021953027,   946.133,   946.133, 0.007128,-0.002474,-0.987503, 0.000021,-0.000008,-0.002962,-0.006419, 0.070832, 0.121797,1, 0.028510,-0.000335,-0.000006,1,-0.076318, 0.095358, 9.805889,1,1
1778021953037,   946.142,   946.142, 0.007267,-0.007592,-0.991445, 0.000022,-0.000023,-0.002974,-0.004965, 0.023913, 0.083102,1, 0.041859,-0.002522,-0.000222,1,-0.076209, 0.098760, 9.805857,1,1
1778021953048,   946.151,   946.148, 0.008527,-0.011468,-0.997481, 0.000025,-0.000034,-0.002992, 0.006338,-0.004749, 0.047750,1, 0.043225,-0.001712,-0.000298,1,-0.076083, 0.101281, 9.805832,1,1
1778021953059,   946.160,   946.157, 0.008667,-0.015836,-1.003755, 0.000026,-0.000048,-0.003012, 0.001459,-0.044876,-0.018330,1, 0.033725,-0.002377,-0.000516,1,-0.075909, 0.104609, 9.805799,1,1
1778021953070,   946.169,   946.166, 0.009169,-0.015148,-1.007250, 0.000027,-0.000046,-0.003022, 0.013511,-0.044680,-0.065250,1, 0.011799, 0.000190,-0.000729,1,-0.075840, 0.106367, 9.805779,1,1
1778021953080,   946.178,   946.175, 0.009405,-0.011917,-1.004250, 0.000028,-0.000035,-0.003013, 0.015252,-0.024125,-0.051281,1,-0.011376,-0.000063,-0.000697,1,-0.075883, 0.106053, 9.805783,1,1
1778021953091,   946.187,   946.184, 0.008849,-0.007769,-0.999183, 0.000026,-0.000024,-0.002999, 0.009036, 0.012933,-0.018300,1,-0.030018, 0.001156,-0.000016,1,-0.075904, 0.103904, 9.805806,1,1
1778021953102,   946.193,   946.193, 0.009170,-0.004683,-0.995193, 0.000027,-0.000014,-0.002986, 0.013891, 0.055186, 0.046326,1,-0.036153, 0.002269, 0.001578,1,-0.076059, 0.100770, 9.805838,1,1
1778021953113,   946.202,   946.202, 0.009267,-0.001567,-0.989651, 0.000028,-0.000004,-0.002969, 0.014696, 0.082927, 0.100697,1,-0.026768, 0.000303, 0.001245,1,-0.076186, 0.098040, 9.805864,1,1
1778021953123,   946.211,   946.211, 0.008276,-0.001495,-0.986451, 0.000025,-0.000005,-0.002959, 0.004891, 0.082366, 0.132091,1,-0.003563, 0.000914, 0.000702,1,-0.076279, 0.096998, 9.805874,1,1
1778021953134,   946.274,   946.271, 0.008629,-0.013565,-1.002409, 0.000026,-0.000041,-0.003008, 0.008985,-0.028663,-0.036031,1,-0.019500, 0.001017, 0.000736,1,-0.075957, 0.108052, 9.805760,1,1
1778021953145,   946.283,   946.280, 0.009007,-0.010686,-0.995031, 0.000027,-0.000032,-0.002985, 0.010711,-0.007111, 0.024384,1,-0.027953, 0.000733, 0.000884,1,-0.076005, 0.105793, 9.805785,1,1
1778021953156,   946.292,   946.289, 0.009182,-0.007068,-0.991675, 0.000027,-0.000021,-0.002975, 0.013908, 0.034161, 0.069113,1,-0.025615, 0.000147, 0.000052,1,-0.076035, 0.103442, 9.805810,1,1
1778021953166,   946.298,   946.298, 0.009757,-0.005442,-0.990224, 0.000030,-0.000016,-0.002971, 0.019571, 0.048614, 0.095039,1,-0.012314, 0.001060, 0.000588,1,-0.076127, 0.101864, 9.805825,1,1
1778021953177,   946.307,   946.307, 0.008951,-0.003562,-0.989497, 0.000027,-0.000011,-0.002969, 0.011671, 0.066618, 0.102177,1, 0.001026,-0.000662, 0.000061,1,-0.076098, 0.101559, 9.805829,1,1
1778021953188,   946.316,   946.316, 0.009114,-0.003807,-0.989424, 0.000027,-0.000011,-0.002968, 0.013333, 0.064992, 0.102887,1, 0.012927,-0.000853, 0.000817,1,-0.076037, 0.102443, 9.805820,1,1
1778021953199,   946.325,   946.325, 0.008491,-0.005827,-0.993320, 0.000026,-0.000018,-0.002980, 0.007395, 0.046743, 0.064666,1, 0.019197,-0.001667, 0.000959,1,-0.075859, 0.104063, 9.805804,1,1
1778021953210,   946.334,   946.331, 0.008407,-0.009128,-0.998207, 0.000026,-0.000027,-0.002994, 0.011082, 0.028761, 0.036607,1, 0.019715,-0.002283, 0.000195,1,-0.075727, 0.105222, 9.805793,1,1
1778021953220,   946.343,   946.340, 0.007799,-0.011056,-1.000993, 0.000024,-0.000033,-0.003003, 0.000438, 0.001931,-0.006094,1, 0.013928,-0.000240, 0.001060,1,-0.075659, 0.106656, 9.805779,1,1
1778021953231,   946.352,   946.349, 0.007783,-0.011334,-1.001079, 0.000024,-0.000034,-0.003003, 0.002076,-0.006329,-0.017874,1, 0.004482, 0.000088, 0.000571,1,-0.075576, 0.107341, 9.805771,1,1
1778021953242,   946.361,   946.358, 0.006619,-0.010993,-0.999969, 0.000019,-0.000033,-0.003001,-0.006642,-0.012046,-0.010069,1,-0.007026, 0.000673, 0.000892,1,-0.075624, 0.107107, 9.805774,1,1
1778021953253,   946.370,   946.367, 0.005980,-0.008175,-0.997202, 0.000018,-0.000025,-0.002992,-0.013007, 0.011911, 0.015354,1,-0.015760, 0.001207, 0.001051,1,-0.075737, 0.105933, 9.805785,1,1
1778021953263,   946.376,   946.376, 0.005554,-0.006595,-0.994703, 0.000017,-0.000020,-0.002984,-0.021357, 0.039824, 0.051095,1,-0.018686, 0.000314, 0.000738,1,-0.075823, 0.104328, 9.805802,1,1
1778021953274,   946.385,   946.385, 0.005138,-0.003921,-0.990429, 0.000015,-0.000012,-0.002971,-0.025440, 0.064617, 0.093027,1,-0.012759, 0.000376, 0.001203,1,-0.075833, 0.102948, 9.805817,1,1
1778021953285,   946.394,   946.394, 0.005115,-0.003130,-0.991657, 0.000016,-0.000010,-0.002974,-0.025718, 0.071687, 0.080988,1,-0.002211,-0.000012, 0.001866,1,-0.075874, 0.102362, 9.805822,1,1
1778021953296,   946.403,   946.403, 0.005621,-0.003021,-0.991115, 0.000017,-0.000009,-0.002974,-0.020658, 0.073258, 0.086294,1, 0.013550,-0.000596, 0.000463,1,-0.075780, 0.103015, 9.805816,1,1
1778021953306,   946.412,   946.409, 0.006156,-0.005613,-0.993020, 0.000018,-0.000017,-0.002979,-0.024115, 0.062313, 0.073589,1, 0.020882,-0.001006, 0.000196,1,-0.075734, 0.104150, 9.805804,1,1
1778021953317,   946.421,   946.418, 0.006834,-0.007634,-0.996832, 0.000021,-0.000023,-0.002990,-0.013431, 0.042218, 0.030857,1, 0.031029,-0.001219, 0.000284,1,-0.075627, 0.106615, 9.805779,1,1
1778021953328,   946.430,   946.427, 0.006504,-0.011083,-0.999268, 0.000019,-0.000033,-0.002998,-0.018423, 0.010125, 0.010869,1, 0.029877, 0.000211, 0.000738,1,-0.075582, 0.109347, 9.805749,1,1
1778021953339,   946.439,   946.436, 0.007066,-0.012644,-0.998994, 0.000021,-0.000038,-0.002997,-0.004146,-0.006613, 0.017389,1, 0.019619,-0.000920, 0.000644,1,-0.075554, 0.111404, 9.805726,1,1
1778021953349,   946.448,   946.445, 0.007124,-0.013311,-0.997813, 0.000021,-0.000040,-0.002993,-0.005437,-0.020752, 0.010819,1, 0.005086, 0.000396, 0.000728,1,-0.075575, 0.112344, 9.805716,1,1
1778021953360,   946.454,   946.454, 0.008115,-0.012768,-0.998142, 0.000025,-0.000038,-0.002994, 0.004011,-0.013084, 0.017286,1,-0.007571, 0.000085, 0.001422,1,-0.075570, 0.112058, 9.805718,1,1
1778021953371,   946.463,   946.463, 0.008744,-0.010688,-0.996763, 0.000026,-0.000033,-0.002990, 0.010228, 0.005534, 0.030827,1,-0.013700, 0.000388,-0.000002,1,-0.075516, 0.110113, 9.805741,1,1
1778021953382,   946.472,   946.472, 0.008308,-0.008410,-0.993441, 0.000025,-0.000025,-0.002980, 0.005883, 0.026684, 0.063427,1,-0.009849, 0.001157, 0.000598,1,-0.075597, 0.109063, 9.805752,1,1
1778021953392,   946.481,   946.478, 0.008657,-0.006105,-0.991714, 0.000026,-0.000018,-0.002976, 0.008241, 0.040928, 0.069565,1,-0.005644, 0.000178,-0.000123,1,-0.075646, 0.108648, 9.805757,1,1
1778021953403,   946.490,   946.487, 0.008457,-0.006267,-0.990920, 0.000025,-0.000019,-0.002973, 0.008826, 0.050339, 0.075800,1, 0.004378, 0.000278, 0.000333,1,-0.075677, 0.108774, 9.805755,1,1
1778021953414,   946.499,   946.496, 0.008937,-0.006609,-0.992662, 0.000027,-0.000020,-0.002979, 0.004484, 0.046009, 0.083670,1, 0.014252, 0.000253, 0.000196,1,-0.075702, 0.109772, 9.805743,1,1
1778021953425,   946.508,   946.505, 0.008637,-0.009825,-0.995159, 0.000025,-0.000030,-0.002986, 0.012348, 0.028879, 0.053296,1, 0.020492,-0.001597,-0.000812,1,-0.075612, 0.111387, 9.805726,1,1
1778021953436,   946.583,   946.583, 0.009045,-0.009702,-0.994477, 0.000027,-0.000029,-0.002984, 0.012922, 0.015059, 0.053253,1, 0.000012,-0.001110,-0.000848,1,-0.075764, 0.110207, 9.805738,1,1
1778021953446,   946.592,   946.589, 0.008902,-0.011033,-0.993458, 0.000027,-0.000033,-0.002980, 0.008670, 0.018135, 0.057235,1, 0.006253,-0.000734,-0.000800,1,-0.075736, 0.110505, 9.805735,1,1
1778021953457,   946.601,   946.598, 0.006134,-0.011557,-0.993630, 0.000019,-0.000033,-0.002980,-0.007436, 0.001494, 0.060777,1, 0.010034,-0.001407,-0.001082,1,-0.075675, 0.111309, 9.805726,1,1
1778021953468,   946.610,   946.607, 0.005988,-0.015115,-0.996590, 0.000019,-0.000045,-0.002991,-0.020472,-0.009935, 0.038103,1, 0.007076, 0.001994,-0.002587,1,-0.075701, 0.112053, 9.805717,1,1
1778021953479,   946.619,   946.616, 0.003448,-0.011595,-0.998258, 0.000011,-0.000035,-0.002998,-0.050926,-0.026145,-0.007674,1,-0.001280, 0.001932,-0.002424,1,-0.075832, 0.112269, 9.805714,1,1
1778021953489,   946.628,   946.625, 0.005950,-0.010394,-1.001693, 0.000020,-0.000032,-0.003007, 0.013770,-0.022912,-0.035335,1,-0.012812,-0.000099,-0.002846,1,-0.075931, 0.111469, 9.805722,1,1
1778021953500,   946.634,   946.634, 0.006405,-0.006409,-1.001190, 0.000018,-0.000020,-0.003003,-0.013033, 0.047002,-0.012575,1,-0.023463, 0.000604,-0.001580,1,-0.075849, 0.109634, 9.805744,1,1
1778021953511,   946.643,   946.643, 0.005824,-0.005628,-0.997365, 0.000016,-0.000017,-0.002991,-0.018735, 0.052186, 0.024955,1,-0.029783, 0.000620,-0.000599,1,-0.075852, 0.107098, 9.805772,1,1
1778021953522,   946.652,   946.652, 0.010307,-0.005701,-0.992502, 0.000032,-0.000017,-0.002978, 0.025135, 0.049063, 0.072676,1,-0.023858, 0.000414,-0.001290,1,-0.075942, 0.104751, 9.805797,1,1
1778021953533,   946.661,   946.661, 0.009914,-0.004111,-0.988284, 0.000030,-0.000013,-0.002965, 0.021084, 0.062637, 0.114058,1,-0.014619, 0.003280,-0.001486,1,-0.076220, 0.102537, 9.805818,1,1
1778021953543,   946.670,   946.667, 0.008713,-0.007720,-0.988272, 0.000026,-0.000024,-0.002964,-0.003967, 0.026115, 0.113470,1,-0.007809,-0.000421,-0.001442,1,-0.076242, 0.101961, 9.805823,1,1
1778021953554,   946.679,   946.676, 0.005737,-0.005510,-0.992803, 0.000017,-0.000017,-0.002980,-0.015091, 0.036607, 0.096528,1, 0.002271,-0.000794,-0.001648,1,-0.076202, 0.101960, 9.805824,1,1
1778021953565,   946.688,   946.685, 0.006544,-0.007706,-0.997655, 0.000021,-0.000024,-0.002993,-0.007505, 0.012369, 0.043754,1, 0.012063,-0.000400,-0.001911,1,-0.076218, 0.102721, 9.805816,1,1
1778021953575,   946.697,   946.694, 0.007550,-0.011114,-1.001265, 0.000022,-0.000033,-0.003002,-0.026829, 0.046755, 0.036120,1, 0.012607, 0.000114,-0.001250,1,-0.076203, 0.103735, 9.805805,1,1
1778021953586,   946.703,   946.703, 0.007067,-0.008332,-1.000876, 0.000020,-0.000025,-0.003001,-0.006915, 0.022648,-0.009443,1, 0.004382,-0.000673,-0.002577,1,-0.076213, 0.104401, 9.805799,1,1
1778021953597,   946.712,   946.712, 0.009160,-0.008242,-1.004293, 0.000027,-0.000024,-0.003015, 0.013646, 0.023449,-0.042948,1,-0.005771,-0.001102,-0.002208,1,-0.076170, 0.104224, 9.805800,1,1
1778021953608,   946.721,   946.721, 0.006144,-0.008151,-0.997758, 0.000018,-0.000026,-0.002995,-0.015959, 0.023395, 0.021141,1,-0.017073, 0.001428,-0.001762,1,-0.076221, 0.103170, 9.805811,1,1
1778021953619,   946.730,   946.730, 0.006020,-0.009711,-0.996259, 0.000017,-0.000029,-0.002989,-0.017361, 0.006432, 0.035864,1,-0.019397, 0.002227,-0.002828,1,-0.076423, 0.101478, 9.805827,1,1
1778021953629,   946.739,   946.736, 0.005026,-0.009460,-0.989245, 0.000016,-0.000029,-0.002969,-0.004071, 0.006312, 0.106248,1,-0.015962, 0.002710,-0.002831,1,-0.076622, 0.100442, 9.805837,1,1
1778021953640,   946.748,   946.745, 0.004298,-0.008058,-0.989609, 0.000014,-0.000024,-0.002968,-0.029699, 0.020570, 0.133156,1,-0.003662, 0.003569,-0.005918,1,-0.076854, 0.099603, 9.805843,1,1
1778021953651,   946.757,   946.754, 0.002700,-0.005506,-0.988302, 0.000008,-0.000015,-0.002963,-0.061892, 0.064138, 0.115196,1, 0.014972, 0.001200,-0.008632,1,-0.077025, 0.100300, 9.805835,1,1
1778021953662,   946.766,   946.763, 0.002191,-0.005009,-0.990144, 0.000006,-0.000015,-0.002969,-0.059041, 0.028899, 0.099230,1, 0.037146,-0.001267,-0.011200,1,-0.077040, 0.103050, 9.805806,1,1
1778021953672,   946.775,   946.772, 0.006312,-0.007570,-1.000356, 0.000020,-0.000022,-0.003002,-0.020754, 0.040924, 0.004918,1, 0.053310,-0.000996,-0.013198,1,-0.076961, 0.107395, 9.805760,1,1
1778021953683,   946.781,   946.781, 0.005296,-0.009396,-0.999961, 0.000015,-0.000028,-0.003000,-0.024698, 0.019820,-0.000555,1, 0.059043,-0.004907,-0.012787,1,-0.076588, 0.112518, 9.805705,1,1
1778021953694,   946.790,   946.790, 0.012667,-0.008968,-1.003480, 0.000039,-0.000026,-0.003010, 0.047881, 0.028933,-0.035117,1, 0.051720,-0.003552,-0.014038,1,-0.076305, 0.117358, 9.805651,1,1
1778021953705,   946.799,   946.799, 0.018208,-0.008420,-1.005909, 0.000055,-0.000025,-0.003018, 0.102502, 0.038044,-0.058988,1, 0.033965,-0.003715,-0.012776,1,-0.076025, 0.120933, 9.805610,1,1
1778021953715,   946.808,   946.808, 0.020690,-0.006757,-0.998651, 0.000062,-0.000020,-0.002996, 0.127106, 0.056258, 0.012167,1, 0.010772,-0.001670,-0.009630,1,-0.075783, 0.122617, 9.805591,1,1
1778021953726,   946.817,   946.814, 0.023522,-0.000336,-0.997269, 0.000071,-0.000001,-0.002992, 0.135889, 0.105485, 0.027116,1,-0.003983,-0.000165,-0.007502,1,-0.075732, 0.122620, 9.805591,1,1
1778021953737,   946.826,   946.823, 0.020632, 0.003057,-0.991795, 0.000063, 0.000009,-0.002976, 0.137590, 0.140524, 0.056175,1,-0.016017, 0.000437,-0.002148,1,-0.075754, 0.121458, 9.805605,1,1
1778021953748,   946.892,   946.832,-0.000378,-0.022807,-1.009204,-0.000001,-0.000069,-0.003028, 0.097588, 0.154064, 0.127307,1,-0.016039, 0.002056, 0.002070,1,-0.075924, 0.119894, 9.805623,1,1
1778021953758,   946.898,   946.898, 0.002656,-0.021729,-1.011654, 0.000008,-0.000065,-0.003034,-0.050514,-0.078962,-0.115506,1,-0.004069,-0.001758,-0.000387,1,-0.076548, 0.134091, 9.805434,1,1
1778021953769,   946.907,   946.907, 0.009574,-0.016582,-1.008564, 0.000029,-0.000050,-0.003026, 0.017408,-0.029879,-0.085181,1,-0.023854,-0.000731, 0.000261,1,-0.076478, 0.132511, 9.805456,1,1
1778021953780,   946.916,   946.916, 0.013681,-0.010382,-0.995749, 0.000041,-0.000031,-0.002987, 0.057661, 0.028077, 0.040531,1,-0.037161, 0.001006,-0.000245,1,-0.076515, 0.129547, 9.805496,1,1
1778021953791,   946.925,   946.922, 0.016139,-0.005194,-0.987676, 0.000048,-0.000015,-0.002963, 0.068535, 0.057127, 0.094211,1,-0.041251, 0.002837, 0.000967,1,-0.076653, 0.127161, 9.805526,1,1
1778021953802,   946.934,   946.931, 0.015161,-0.001902,-0.978837, 0.000046,-0.000006,-0.002937, 0.076878, 0.095588, 0.171022,1,-0.033987, 0.001192, 0.003676,1,-0.076791, 0.123885, 9.805567,1,1
1778021953812,   946.943,   946.940, 0.013986,-0.001671,-0.977001, 0.000042,-0.000005,-0.002930, 0.064881, 0.103690, 0.231593,1,-0.016475, 0.001772, 0.005089,1,-0.076927, 0.121819, 9.805592,1,1
1778021953823,   946.952,   946.949, 0.011737,-0.003511,-0.984948, 0.000035,-0.000011,-0.002954, 0.041005, 0.092935, 0.174036,1, 0.006951,-0.000081, 0.004844,1,-0.077026, 0.121682, 9.805593,1,1
1778021953834,   946.961,   946.958, 0.007353,-0.008891,-0.995463, 0.000022,-0.000026,-0.002986, 0.008479, 0.058657, 0.086947,1, 0.030592,-0.000608, 0.004869,1,-0.076941, 0.123670, 9.805569,1,1
1778021953845,   946.967,   946.967, 0.006057,-0.012304,-1.002901, 0.000018,-0.000037,-0.003008,-0.017450, 0.006182,-0.029569,1, 0.044417,-0.001497, 0.003809,1,-0.076832, 0.127261, 9.805523,1,1
1778021953855,   946.976,   946.976, 0.005026,-0.018432,-1.008910, 0.000015,-0.000055,-0.003027,-0.027462,-0.050004,-0.088548,1, 0.042155,-0.000255, 0.002194,1,-0.076748, 0.131149, 9.805472,1,1
1778021953866,   946.985,   946.985, 0.005817,-0.023958,-1.009210, 0.000017,-0.000071,-0.003028,-0.019561,-0.101380,-0.091524,1, 0.021366,-0.000790, 0.002381,1,-0.076593, 0.133769, 9.805438,1,1
1778021953877,   946.994,   946.994, 0.006173,-0.022927,-1.003967, 0.000018,-0.000069,-0.003013,-0.016029,-0.091053,-0.040115,1,-0.013481, 0.000612, 0.000983,1,-0.076566, 0.133656, 9.805440,1,1
1778021953888,   947.003,   947.000, 0.007540,-0.019116,-1.001264, 0.000023,-0.000058,-0.003004, 0.009217,-0.077858,-0.006696,1,-0.035579, 0.000335, 0.000456,1,-0.076586, 0.131911, 9.805464,1,1
1778021953898,   947.012,   947.009, 0.009912,-0.012496,-0.996137, 0.000030,-0.000038,-0.002988, 0.033133,-0.010437, 0.025809,1,-0.053703, 0.001174, 0.000736,1,-0.076664, 0.127525, 9.805521,1,1
1778021953909,   947.021,   947.018, 0.011070,-0.003628,-0.988514, 0.000033,-0.000011,-0.002965, 0.026815, 0.066639, 0.097893,1,-0.055566, 0.001936, 0.000213,1,-0.076739, 0.122454, 9.805585,1,1
1778021953920,   947.030,   947.027, 0.010997, 0.001594,-0.985883, 0.000033, 0.000005,-0.002957, 0.015250, 0.118267, 0.129628,1,-0.035127, 0.000685, 0.000360,1,-0.076805, 0.118638, 9.805632,1,1
1778021953931,   947.039,   947.036, 0.008870, 0.001442,-0.984044, 0.000026, 0.000004,-0.002952, 0.015166, 0.130191, 0.142875,1,-0.002467, 0.000176, 0.001110,1,-0.076894, 0.117501, 9.805645,1,1
1778021953941,   947.045,   947.045, 0.008576,-0.001311,-0.986345, 0.000027,-0.000004,-0.002958, 0.007191, 0.106193, 0.132883,1, 0.031111,-0.000045, 0.000549,1,-0.076906, 0.119337, 9.805622,1,1
1778021953952,   947.054,   947.054, 0.007318,-0.007683,-0.990178, 0.000022,-0.000023,-0.002970,-0.004993, 0.047433, 0.095250,1, 0.049877,-0.002671, 0.000907,1,-0.076731, 0.123244, 9.805575,1,1
1778021953963,   947.063,   947.063, 0.004806,-0.015837,-0.995544, 0.000015,-0.000048,-0.002986,-0.029024,-0.028347, 0.042582,1, 0.051375,-0.003382, 0.000954,1,-0.076085, 0.127384, 9.805528,1,1
1778021953974,   947.072,   947.072, 0.004357,-0.020786,-1.005842, 0.000013,-0.000062,-0.003017,-0.033257,-0.073226,-0.058455,1, 0.033131,-0.000339,-0.000169,1,-0.075981, 0.130928, 9.805482,1,1
1778021953984,   947.081,   947.078, 0.002930,-0.021894,-1.009024, 0.000008,-0.000066,-0.003027,-0.048870,-0.087791,-0.079070,1, 0.015857, 0.000350,-0.001081,1,-0.075953, 0.132122, 9.805466,1,1
1778021953995,   947.090,   947.087, 0.003402,-0.018827,-1.006487, 0.000010,-0.000057,-0.003020,-0.050908,-0.071238,-0.067998,1,-0.014141, 0.002478,-0.001397,1,-0.076014, 0.131816, 9.805470,1,1
1778021954006,   947.099,   947.096, 0.005149,-0.012321,-1.002678, 0.000015,-0.000037,-0.003008,-0.038697,-0.010770,-0.051840,1,-0.037185, 0.001754,-0.001346,1,-0.076143, 0.129095, 9.805505,1,1
1778021954017,   947.108,   947.105, 0.005923,-0.007536,-0.994929, 0.000018,-0.000023,-0.002985,-0.029126, 0.037204, 0.022342,1,-0.046703, 0.001744,-0.001564,1,-0.076355, 0.125130, 9.805554,1,1
1778021954028,   947.114,   947.114, 0.006974,-0.004390,-0.990440, 0.000022,-0.000013,-0.002971,-0.008132, 0.078725, 0.092696,1,-0.037220, 0.002499,-0.000713,1,-0.076544, 0.121429, 9.805599,1,1
1778021954038,   947.123,   947.123, 0.007869,-0.002304,-0.982293, 0.000023,-0.000007,-0.002947, 0.000491, 0.096931, 0.172616,1,-0.015190, 0.001658,-0.000784,1,-0.076691, 0.119378, 9.805623,1,1
1778021954049,   947.132,   947.132, 0.009731,-0.003276,-0.981727, 0.000029,-0.000010,-0.002945, 0.018734, 0.087445, 0.178171,1, 0.012692,-0.001049,-0.000887,1,-0.076684, 0.119691, 9.805619,1,1
1778021954060,   947.210,   947.207, 0.008120,-0.004283,-0.987003, 0.000024,-0.000013,-0.002961, 0.005205, 0.063225, 0.108799,1,-0.043751, 0.002528, 0.000010,1,-0.076932, 0.120954, 9.805602,1,1
1778021954071,   947.219,   947.216, 0.008807,-0.000679,-0.984928, 0.000026,-0.000002,-0.002955, 0.010785, 0.108071, 0.144660,1,-0.026106, 0.000747,-0.000385,1,-0.077066, 0.118031, 9.805636,1,1
1778021954081,   947.225,   947.225, 0.008391,-0.001789,-0.985959, 0.000025,-0.000006,-0.002958, 0.005238, 0.099717, 0.136690,1, 0.000436,-0.000784,-0.000360,1,-0.077042, 0.117263, 9.805646,1,1
1778021954092,   947.234,   947.234, 0.007937,-0.004889,-0.989386, 0.000024,-0.000015,-0.002968, 0.000940, 0.070549, 0.103066,1, 0.023632,-0.001868,-0.000122,1,-0.076880, 0.118715, 9.805630,1,1
1778021954103,   947.243,   947.243, 0.007776,-0.009777,-0.995017, 0.000024,-0.000029,-0.002985,-0.000465, 0.025434, 0.047820,1, 0.036435,-0.001660,-0.000482,1,-0.076706, 0.121659, 9.805595,1,1
1778021954114,   947.252,   947.252, 0.006967,-0.013942,-1.001748, 0.000021,-0.000042,-0.003006,-0.008263,-0.012206,-0.018236,1, 0.033446,-0.001526,-0.000896,1,-0.076574, 0.124832, 9.805556,1,1
1778021954124,   947.261,   947.258, 0.007621,-0.017517,-1.004448, 0.000023,-0.000053,-0.003013,-0.001492,-0.036239,-0.046713,1, 0.022591,-0.000464,-0.000904,1,-0.076521, 0.126382, 9.805537,1,1
1778021954135,   947.270,   947.258, 0.006357,-0.018149,-1.004033, 0.000019,-0.000054,-0.003012,-0.001492,-0.036239,-0.046713,1, 0.022591,-0.000464,-0.000904,1,-0.076521, 0.126382, 9.805537,1,1
1778021954146,   947.279,   947.276, 0.006070,-0.015244,-1.000179, 0.000019,-0.000046,-0.003001,-0.017910,-0.040436,-0.023240,1,-0.029921, 0.000557,-0.000304,1,-0.076559, 0.124435, 9.805562,1,1
1778021954157,   947.288,   947.285, 0.005948,-0.010922,-0.996562, 0.000018,-0.000033,-0.002990,-0.020132,-0.001769, 0.021233,1,-0.046777, 0.000802, 0.000182,1,-0.076623, 0.120670, 9.805608,1,1
1778021954167,   947.297,   947.294, 0.005322,-0.006568,-0.992316, 0.000016,-0.000020,-0.002977,-0.021125, 0.046095, 0.049713,1,-0.048645, 0.001025, 0.000952,1,-0.076805, 0.116225, 9.805660,1,1
1778021954178,   947.303,   947.303, 0.005568,-0.003727,-0.987937, 0.000017,-0.000012,-0.002964,-0.022327, 0.076449, 0.117347,1,-0.033425, 0.000175,-0.000053,1,-0.076934, 0.112682, 9.805701,1,1
1778021954189,   947.312,   947.312, 0.006822,-0.001829,-0.985591, 0.000020,-0.000005,-0.002957,-0.010082, 0.093314, 0.140374,1,-0.008326,-0.000308,-0.000542,1,-0.076979, 0.111175, 9.805717,1,1
1778021954200,   947.321,   947.321, 0.007695,-0.002895,-0.988393, 0.000023,-0.000010,-0.002965,-0.001538, 0.083419, 0.112888,1, 0.017565,-0.000881, 0.000265,1,-0.076990, 0.111978, 9.805709,1,1
1778021954211,   947.330,   947.327, 0.008740,-0.005586,-0.993276, 0.000026,-0.000017,-0.002980, 0.005012, 0.072350, 0.082774,1, 0.030203,-0.001183,-0.000762,1,-0.076921, 0.113569, 9.805691,1,1
1778021954221,   947.339,   947.336, 0.008965,-0.010543,-0.997901, 0.000027,-0.000031,-0.002994, 0.008220, 0.030847, 0.038063,1, 0.035435,-0.003039,-0.000852,1,-0.076769, 0.116616, 9.805656,1,1
1778021954232,   947.348,   947.345, 0.010221,-0.014569,-1.001122, 0.000031,-0.000043,-0.003003, 0.023891,-0.015651,-0.002496,1, 0.024914,-0.001806, 0.000365,1,-0.076585, 0.119274, 9.805626,1,1
1778021954243,   947.357,   947.354, 0.010470,-0.017115,-1.005031, 0.000032,-0.000051,-0.003015, 0.023727,-0.039921,-0.039907,1, 0.005032,-0.000968,-0.000089,1,-0.076481, 0.120334, 9.805614,1,1
1778021954254,   947.366,   947.363, 0.010453,-0.016017,-1.003120, 0.000032,-0.000048,-0.003009, 0.026309,-0.043961,-0.045181,1,-0.018727, 0.000769, 0.000597,1,-0.076559, 0.119426, 9.805624,1,1
1778021954264,   947.372,   947.372, 0.008884,-0.013434,-1.000414, 0.000026,-0.000040,-0.003001, 0.010519,-0.014701,-0.005061,1,-0.036284, 0.001134,-0.000045,1,-0.076615, 0.116702, 9.805656,1,1
1778021954275,   947.381,   947.381, 0.008457,-0.008324,-0.996155, 0.000025,-0.000025,-0.002988, 0.006162, 0.031828, 0.036752,1,-0.042010, 0.002232,-0.000242,1,-0.076792, 0.113061, 9.805697,1,1
1778021954286,   947.390,   947.390, 0.007434,-0.004366,-0.991142, 0.000022,-0.000013,-0.002974,-0.004068, 0.067235, 0.085947,1,-0.032876, 0.002167, 0.000831,1,-0.076994, 0.109744, 9.805734,1,1
1778021954297,   947.399,   947.399, 0.007298,-0.002195,-0.987923, 0.000022,-0.000007,-0.002964,-0.005493, 0.086420, 0.117539,1,-0.017082, 0.000099, 0.000039,1,-0.077062, 0.107787, 9.805755,1,1
1778021954307,   947.408,   947.405, 0.006835,-0.001096,-0.987007, 0.000021,-0.000003,-0.002962,-0.001736, 0.097250, 0.124185,1,-0.001362,-0.000403, 0.000338,1,-0.077056, 0.107478, 9.805758,1,1
1778021954318,   947.417,   947.414, 0.007653,-0.004257,-0.989086, 0.000023,-0.000012,-0.002967,-0.004579, 0.079288, 0.117949,1, 0.018901,-0.001368, 0.000429,1,-0.077003, 0.108633, 9.805746,1,1
1778021954329,   947.426,   947.423, 0.008272,-0.008238,-0.994268, 0.000025,-0.000025,-0.002983, 0.004140, 0.048792, 0.072684,1, 0.029590,-0.002128,-0.000108,1,-0.076861, 0.110971, 9.805721,1,1
1778021954340,   947.435,   947.432, 0.008579,-0.012893,-0.999531, 0.000025,-0.000039,-0.002999, 0.005902,-0.001454, 0.021667,1, 0.028423,-0.002054,-0.000947,1,-0.076634, 0.113578, 9.805693,1,1
1778021954350,   947.444,   947.441, 0.008645,-0.014318,-1.002781, 0.000025,-0.000043,-0.003008, 0.002855,-0.029711,-0.026002,1, 0.017651,-0.001286,-0.000016,1,-0.076439, 0.115559, 9.805671,1,1
1778021954361,   947.447,   947.450, 0.008170,-0.014969,-1.004495, 0.000025,-0.000045,-0.003014, 0.012533,-0.031840,-0.059337,1,-0.001118, 0.000864,-0.000855,1,-0.076393, 0.116000, 9.805666,1,1
1778021954372,   947.513,   947.513, 0.008827,-0.005629,-0.993727, 0.000027,-0.000017,-0.002982, 0.009869, 0.053019, 0.060619,1, 0.029008,-0.001584, 0.000369,1,-0.076683, 0.108496, 9.805750,1,1
1778021954383,   947.522,   947.519, 0.008806,-0.008597,-0.998929, 0.000026,-0.000026,-0.002997, 0.002005, 0.037624, 0.030463,1, 0.032671,-0.001714, 0.000566,1,-0.076587, 0.110378, 9.805730,1,1
1778021954393,   947.531,   947.528, 0.009069,-0.012125,-1.000062, 0.000027,-0.000036,-0.003000, 0.003308, 0.007037, 0.002318,1, 0.026281,-0.000167, 0.000222,1,-0.076510, 0.112983, 9.805700,1,1
1778021954404,   947.540,   947.537, 0.008427,-0.014503,-1.001395, 0.000025,-0.000044,-0.003003, 0.015010,-0.023195,-0.010887,1, 0.010493,-0.001029, 0.001377,1,-0.076491, 0.114399, 9.805684,1,1
1778021954415,   947.546,   947.546, 0.009350,-0.014560,-1.001453, 0.000027,-0.000044,-0.003004, 0.015210,-0.028447,-0.015211,1,-0.007811, 0.000487, 0.001864,1,-0.076488, 0.114268, 9.805686,1,1
1778021954426,   947.555,   947.555, 0.008124,-0.013257,-1.000455, 0.000024,-0.000040,-0.003002, 0.003127,-0.017112,-0.005413,1,-0.022706, 0.000236, 0.001570,1,-0.076543, 0.112680, 9.805704,1,1
1778021954437,   947.564,   947.564, 0.008584,-0.010203,-0.996019, 0.000026,-0.000030,-0.002988, 0.007518, 0.010651, 0.038117,1,-0.025308,-0.000034, 0.001343,1,-0.076657, 0.110475, 9.805728,1,1
1778021954447,   947.573,   947.573, 0.008193,-0.007071,-0.993174, 0.000025,-0.000021,-0.002979, 0.003557, 0.039340, 0.066036,1,-0.020190, 0.001739, 0.001561,1,-0.076809, 0.108491, 9.805749,1,1
1778021954458,   947.582,   947.582, 0.008582,-0.004742,-0.990010, 0.000026,-0.000014,-0.002970, 0.007304, 0.060978, 0.097078,1,-0.007428,-0.000136, 0.001360,1,-0.076850, 0.107407, 9.805760,1,1
1778021954469,   947.591,   947.588, 0.007250,-0.003017,-0.990560, 0.000021,-0.000009,-0.002972, 0.000664, 0.077572, 0.099073,1, 0.001144,-0.000336, 0.001647,1,-0.076792, 0.107355, 9.805761,1,1
1778021954480,   947.600,   947.597, 0.007540,-0.005423,-0.992504, 0.000023,-0.000016,-0.002977,-0.000749, 0.063483, 0.081546,1, 0.016380,-0.000217, 0.001796,1,-0.076723, 0.108388, 9.805751,1,1
1778021954490,   947.609,   947.606, 0.007323,-0.007853,-0.994447, 0.000022,-0.000023,-0.002983,-0.012361, 0.042030, 0.055718,1, 0.023058,-0.000836, 0.001688,1,-0.076679, 0.110262, 9.805730,1,1
1778021954501,   947.618,   947.615, 0.006479,-0.010517,-0.998155, 0.000019,-0.000031,-0.002995,-0.014567, 0.010306, 0.031983,1, 0.022857,-0.001220, 0.001525,1,-0.076587, 0.112308, 9.805708,1,1
1778021954512,   947.627,   947.624, 0.006272,-0.013005,-1.001302, 0.000019,-0.000039,-0.003004,-0.016431,-0.015839, 0.003468,1, 0.013658,-0.000847, 0.001432,1,-0.076468, 0.113805, 9.805692,1,1
1778021954523,   947.633,   947.633, 0.005932,-0.013580,-1.001625, 0.000018,-0.000041,-0.003004,-0.018203,-0.018852,-0.016905,1, 0.002280,-0.000551, 0.001681,1,-0.076373, 0.114347, 9.805686,1,1
1778021954533,   947.642,   947.642, 0.006196,-0.012134,-0.999208, 0.000018,-0.000037,-0.002998,-0.015646,-0.005047, 0.006806,1,-0.008894, 0.001731, 0.002207,1,-0.076420, 0.113864, 9.805691,1,1
1778021954544,   947.651,   947.651, 0.006927,-0.011030,-0.996605, 0.000021,-0.000033,-0.002990,-0.008532, 0.004635, 0.032345,1,-0.015853, 0.000875, 0.001460,1,-0.076469, 0.112652, 9.805705,1,1
1778021954555,   947.660,   947.660, 0.006648,-0.009147,-0.994393, 0.000020,-0.000027,-0.002983,-0.011332, 0.021640, 0.054058,1,-0.016151, 0.000865, 0.001795,1,-0.076537, 0.111194, 9.805721,1,1
1778021954566,   947.669,   947.666, 0.007366,-0.006794,-0.993044, 0.000022,-0.000021,-0.002979,-0.006350, 0.031789, 0.069339,1,-0.012308,-0.000683, 0.000970,1,-0.076511, 0.109430, 9.805741,1,1
1778021954576,   947.678,   947.675, 0.007377,-0.005339,-0.991961, 0.000022,-0.000015,-0.002975,-0.010475, 0.055946, 0.072938,1,-0.002716,-0.000974, 0.001710,1,-0.076452, 0.108893, 9.805747,1,1
1778021954587,   947.687,   947.684, 0.007826,-0.004983,-0.991925, 0.000024,-0.000015,-0.002976, 0.009065, 0.059417, 0.080168,1, 0.006707,-0.000389, 0.001031,1,-0.076441, 0.109214, 9.805744,1,1
1778021954598,   947.696,   947.693, 0.008528,-0.007777,-0.993294, 0.000025,-0.000024,-0.002980, 0.012278, 0.043610, 0.068270,1, 0.012071,-0.001204, 0.000945,1,-0.076428, 0.110149, 9.805734,1,1
1778021954609,   947.705,   947.702, 0.008390,-0.008802,-0.997159, 0.000026,-0.000026,-0.002991, 0.007744, 0.033934, 0.044478,1, 0.015369,-0.001898, 0.002135,1,-0.076365, 0.111428, 9.805719,1,1
1778021954620,   947.711,   947.711, 0.008957,-0.010198,-0.999999, 0.000027,-0.000031,-0.003000, 0.011533, 0.012542,-0.000936,1, 0.011707,-0.000423, 0.001094,1,-0.076297, 0.112659, 9.805706,1,1
1778021954630,   947.720,   947.720, 0.008899,-0.012291,-0.999925, 0.000027,-0.000037,-0.003000, 0.011049,-0.007142,-0.000212,1, 0.006626,-0.000509, 0.002648,1,-0.076215, 0.113456, 9.805697,1,1
1778021954641,   947.729,   947.729, 0.008853,-0.011805,-0.998633, 0.000026,-0.000036,-0.002996, 0.010559,-0.002135, 0.012448,1, 0.000330, 0.000067, 0.002326,1,-0.076257, 0.113635, 9.805696,1,1
1778021954652,   947.738,   947.735, 0.009369,-0.012165,-0.997963, 0.000028,-0.000037,-0.002994, 0.009064,-0.008904, 0.021129,1,-0.006129, 0.000462, 0.001485,1,-0.076283, 0.113387, 9.805697,1,1
1778021954663,   947.747,   947.744, 0.009917,-0.010362,-0.996839, 0.000030,-0.000031,-0.002991, 0.015407, 0.008345, 0.030301,1,-0.009456,-0.000031, 0.001300,1,-0.076323, 0.112629, 9.805706,1,1
1778021954673,   947.756,   947.753, 0.009716,-0.009031,-0.994230, 0.000029,-0.000027,-0.002983, 0.011222, 0.018427, 0.048632,1,-0.008862, 0.000610, 0.000700,1,-0.076372, 0.111823, 9.805715,1,1
1778021954684,   947.831,   947.831, 0.006391,-0.011415,-0.995749, 0.000019,-0.000034,-0.002987,-0.013381, 0.003151, 0.040716,1,-0.004254,-0.000121, 0.000075,1,-0.076053, 0.115049, 9.805680,1,1
1778021954695,   947.840,   947.840, 0.006967,-0.010665,-0.994944, 0.000020,-0.000032,-0.002985,-0.007764, 0.010048, 0.048619,1,-0.005052, 0.000766,-0.000754,1,-0.076098, 0.114586, 9.805685,1,1
1778021954706,   947.849,   947.846, 0.005370,-0.009149,-0.995080, 0.000016,-0.000028,-0.002985,-0.022512, 0.015660, 0.046612,1,-0.003441, 0.000697,-0.000276,1,-0.076161, 0.114367, 9.805687,1,1
1778021954716,   947.858,   947.855, 0.005824,-0.009395,-0.995642, 0.000018,-0.000029,-0.002987,-0.013767, 0.018247, 0.042024,1,-0.000092,-0.001150,-0.000038,1,-0.076160, 0.114238, 9.805689,1,1
1778021954727,   947.867,   947.864, 0.006116,-0.009710,-0.994763, 0.000018,-0.000029,-0.002984,-0.020608, 0.029125, 0.049907,1, 0.005365,-0.000621, 0.000061,1,-0.076253, 0.113779, 9.805694,1,1
1778021954738,   947.876,   947.873, 0.006388,-0.009178,-0.994478, 0.000019,-0.000027,-0.002984,-0.015419, 0.017751, 0.052396,1, 0.007608,-0.001479,-0.000439,1,-0.076129, 0.114421, 9.805687,1,1
1778021954749,   947.885,   947.882, 0.006884,-0.010649,-0.996178, 0.000020,-0.000032,-0.002989,-0.012719, 0.009295, 0.041529,1, 0.007936, 0.000452, 0.000019,1,-0.076146, 0.115167, 9.805678,1,1
1778021954759,   947.891,   947.891, 0.007461,-0.010976,-0.997313, 0.000022,-0.000032,-0.002992,-0.002923, 0.007995, 0.025377,1, 0.004448,-0.000089,-0.000516,1,-0.076088, 0.115677, 9.805673,1,1
1778021954770,   947.900,   947.900, 0.008784,-0.011734,-0.997052, 0.000027,-0.000036,-0.002991, 0.010028, 0.000802, 0.027926,1, 0.001553,-0.000459,-0.001773,1,-0.076108, 0.115889, 9.805670,1,1
1778021954781,   947.909,   947.909, 0.008175,-0.011450,-0.996742, 0.000024,-0.000034,-0.002990, 0.004046, 0.003445, 0.030969,1,-0.003812,-0.000371, 0.000518,1,-0.076117, 0.115695, 9.805672,1,1
1778021954792,   947.918,   947.918, 0.008357,-0.011003,-0.996693, 0.000025,-0.000033,-0.002990, 0.005840, 0.007300, 0.031454,1,-0.007556, 0.000223,-0.001333,1,-0.076113, 0.115128, 9.805678,1,1
1778021954802,   947.927,   947.924, 0.009122,-0.009671,-0.996029, 0.000028,-0.000028,-0.002988, 0.017189, 0.019298, 0.032724,1,-0.008684,-0.000061,-0.000627,1,-0.076124, 0.114639, 9.805684,1,1
1778021954813,   947.936,   947.933, 0.009634,-0.009319,-0.995068, 0.000029,-0.000028,-0.002985, 0.018976, 0.014613, 0.047782,1,-0.008400,-0.000100,-0.000550,1,-0.076099, 0.113851, 9.805694,1,1
1778021954824,   947.945,   947.942, 0.010173,-0.009659,-0.994758, 0.000030,-0.000029,-0.002984, 0.025982, 0.022624, 0.047145,1,-0.006146,-0.000446,-0.000009,1,-0.076110, 0.113227, 9.805701,1,1
1778021954835,   947.954,   947.951, 0.010367,-0.009242,-0.994421, 0.000032,-0.000028,-0.002984, 0.016667, 0.019423, 0.053439,1,-0.002374,-0.000302,-0.000968,1,-0.076092, 0.112998, 9.805704,1,1
1778021954846,   947.963,   947.960, 0.009435,-0.010134,-0.995354, 0.000029,-0.000030,-0.002986, 0.019639, 0.019257, 0.042575,1, 0.001798,-0.000363,-0.000810,1,-0.076046, 0.113040, 9.805703,1,1
1778021954856,   947.969,   947.969, 0.008947,-0.010371,-0.995302, 0.000026,-0.000032,-0.002986, 0.011752, 0.011354, 0.045121,1, 0.000124, 0.000100,-0.000904,1,-0.075991, 0.113060, 9.805704,1,1
1778021954867,   947.978,   947.978, 0.008803,-0.009405,-0.996203, 0.000027,-0.000028,-0.002989, 0.010353, 0.020819, 0.036292,1,-0.001829, 0.000687,-0.000475,1,-0.075978, 0.113036, 9.805704,1,1
1778021954878,   947.987,   947.987, 0.007339,-0.008812,-0.996008, 0.000022,-0.000026,-0.002988,-0.003991, 0.026433, 0.038206,1,-0.005013,-0.000088,-0.001364,1,-0.075962, 0.112801, 9.805707,1,1
1778021954889,   947.996,   947.993, 0.006499,-0.009304,-0.996850, 0.000019,-0.000028,-0.002991,-0.008192, 0.022967, 0.035601,1,-0.005569,-0.000152,-0.000971,1,-0.075939, 0.112474, 9.805711,1,1
1778021954899,   948.005,   948.002, 0.006123,-0.008802,-0.995407, 0.000018,-0.000027,-0.002987,-0.017064, 0.016316, 0.032698,1,-0.008083,-0.000086,-0.000888,1,-0.075969, 0.111848, 9.805717,1,1
1778021954910,   948.014,   948.011, 0.006794,-0.008192,-0.995943, 0.000021,-0.000024,-0.002988,-0.014338, 0.031306, 0.038747,1,-0.008229, 0.000202,-0.000277,1,-0.075908, 0.111139, 9.805726,1,1
1778021954921,   948.023,   948.020, 0.006908,-0.008663,-0.995231, 0.000021,-0.000026,-0.002986,-0.007070, 0.021720, 0.049324,1,-0.005228, 0.000068,-0.000580,1,-0.075921, 0.110585, 9.805733,1,1
1778021954932,   948.032,   948.029, 0.006549,-0.008570,-0.994554, 0.000019,-0.000026,-0.002983,-0.012220, 0.023264, 0.052657,1,-0.003431,-0.000456,-0.001642,1,-0.075881, 0.110213, 9.805737,1,1
1778021954942,   948.038,   948.038, 0.006622,-0.008927,-0.994240, 0.000020,-0.000027,-0.002983,-0.010921, 0.022501, 0.055574,1,-0.001289,-0.001679, 0.000234,1,-0.075846, 0.110030, 9.805739,1,1
1778021954953,   948.047,   948.047, 0.007524,-0.009098,-0.994812, 0.000022,-0.000027,-0.002984,-0.002054, 0.020763, 0.049966,1,-0.000435, 0.000134,-0.000753,1,-0.075844, 0.109980, 9.805740,1,1
1778021954964,   948.056,   948.056, 0.007842,-0.009555,-0.995922, 0.000024,-0.000029,-0.002987, 0.001073, 0.016362, 0.039077,1, 0.000467,-0.001123,-0.000053,1,-0.075816, 0.110067, 9.805739,1,1
1778021954975,   948.065,   948.065, 0.007656,-0.008745,-0.997106, 0.000023,-0.000026,-0.002991,-0.000759, 0.023622, 0.027480,1,-0.000782, 0.000018,-0.000865,1,-0.075835, 0.109353, 9.805747,1,1
1778021954985,   948.074,   948.071, 0.007173,-0.009140,-0.997180, 0.000021,-0.000027,-0.002991,-0.001812, 0.026150, 0.029079,1,-0.001197,-0.000067,-0.001233,1,-0.075829, 0.109257, 9.805748,1,1
1778021954996,   948.140,   948.137, 0.008418,-0.008360,-0.996409, 0.000025,-0.000025,-0.002989, 0.000295, 0.025096, 0.043417,1, 0.008154,-0.000737,-0.000419,1,-0.075941, 0.109162, 9.805748,1,1
1778021955007,   948.149,   948.146, 0.009258,-0.008317,-0.996682, 0.000028,-0.000025,-0.002990, 0.003739, 0.022022, 0.032708,1, 0.007267, 0.000010, 0.000278,1,-0.075931, 0.109869, 9.805740,1,1
1778021955018,   948.155,   948.155, 0.008022,-0.009488,-0.995683, 0.000024,-0.000029,-0.002987, 0.002822, 0.017256, 0.041424,1, 0.004575,-0.001435, 0.000131,1,-0.075837, 0.110342, 9.805736,1,1
1778021955029,   948.164,   948.164, 0.008481,-0.010789,-0.995521, 0.000026,-0.000032,-0.002986, 0.007295, 0.004736, 0.043007,1, 0.001498, 0.000997,-0.000119,1,-0.075880, 0.110553, 9.805734,1,1
1778021955039,   948.173,   948.173, 0.008291,-0.010074,-0.995387, 0.000025,-0.000030,-0.002986, 0.005418, 0.011755, 0.044324,1,-0.001195,-0.000250, 0.000147,1,-0.075887, 0.110538, 9.805734,1,1
1778021955050,   948.182,   948.179, 0.007852,-0.008648,-0.995957, 0.000024,-0.000026,-0.002988, 0.003985, 0.024647, 0.042824,1,-0.001648, 0.000031, 0.000511,1,-0.075904, 0.110421, 9.805735,1,1
1778021955061,   948.191,   948.188, 0.007690,-0.007760,-0.996947, 0.000023,-0.000024,-0.002991, 0.002214, 0.032363, 0.036409,1,-0.000823, 0.001457,-0.000219,1,-0.075950, 0.110310, 9.805736,1,1
1778021955072,   948.200,   948.197, 0.007346,-0.006930,-0.994958, 0.000023,-0.000021,-0.002985,-0.001139, 0.042590, 0.038687,1, 0.002658, 0.000021, 0.000156,1,-0.075987, 0.110438, 9.805734,1,1
1778021955082,   948.209,   948.206, 0.007959,-0.008178,-0.994625, 0.000024,-0.000024,-0.002985, 0.007751, 0.032741, 0.056422,1, 0.005637,-0.000101, 0.000828,1,-0.076001, 0.110811, 9.805730,1,1
1778021955093,   948.218,   948.215, 0.009022,-0.009121,-0.995425, 0.000027,-0.000027,-0.002987, 0.010943, 0.027511, 0.051622,1, 0.006680,-0.000170, 0.001061,1,-0.076029, 0.111409, 9.805722,1,1
1778021955104,   948.224,   948.224, 0.009302,-0.009063,-0.994439, 0.000028,-0.000027,-0.002983, 0.015262, 0.023109, 0.053601,1, 0.007988,-0.000295, 0.001199,1,-0.075958, 0.112063, 9.805716,1,1
1778021955115,   948.233,   948.233, 0.009697,-0.009455,-0.995660, 0.000029,-0.000028,-0.002988, 0.019197, 0.019963, 0.041617,1, 0.007076,-0.000475, 0.000537,1,-0.075897, 0.112755, 9.805708,1,1
1778021955125,   948.242,   948.242, 0.010120,-0.009926,-0.996683, 0.000030,-0.000030,-0.002991, 0.023414, 0.015965, 0.031583,1, 0.007985,-0.000220, 0.000604,1,-0.075829, 0.113377, 9.805701,1,1
1778021955136,   948.251,   948.251, 0.010442,-0.010513,-0.997432, 0.000031,-0.000031,-0.002993, 0.026599, 0.010777, 0.024231,1, 0.005394,-0.001828, 0.000436,1,-0.075781, 0.113928, 9.805696,1,1
1778021955147,   948.260,   948.257, 0.010035,-0.010802,-0.997913, 0.000030,-0.000032,-0.002994, 0.020448, 0.007960, 0.022646,1, 0.003731, 0.000225,-0.000282,1,-0.075755, 0.114154, 9.805693,1,1
1778021955158,   948.269,   948.266, 0.009524,-0.010962,-0.997073, 0.000029,-0.000033,-0.002991, 0.021001, 0.002896, 0.027545,1, 0.001363, 0.000387, 0.000069,1,-0.075923, 0.113416, 9.805700,1,1
1778021955168,   948.278,   948.275, 0.009101,-0.009843,-0.997062, 0.000027,-0.000029,-0.002991, 0.016246, 0.010464, 0.032251,1,-0.000598, 0.000675,-0.000032,1,-0.075972, 0.113465, 9.805699,1,1
1778021955179,   948.287,   948.284, 0.008893,-0.009111,-0.994546, 0.000027,-0.000027,-0.002984, 0.011898, 0.023420, 0.052063,1,-0.000436, 0.000162,-0.000142,1,-0.075969, 0.113403, 9.805700,1,1
1778021955190,   948.296,   948.293, 0.007675,-0.008365,-0.995099, 0.000023,-0.000025,-0.002985, 0.009586, 0.027447, 0.052925,1, 0.000434, 0.000094, 0.001056,1,-0.075990, 0.113400, 9.805700,1,1
1778021955201,   948.302,   948.302, 0.007506,-0.007919,-0.994336, 0.000023,-0.000024,-0.002983,-0.002369, 0.035693, 0.054597,1, 0.000466, 0.000068, 0.001329,1,-0.075978, 0.113360, 9.805700,1,1
1778021955211,   948.311,   948.311, 0.007008,-0.008752,-0.994769, 0.000021,-0.000026,-0.002984,-0.007314, 0.027796, 0.050349,1, 0.004849, 0.000175,-0.000185,1,-0.076039, 0.113664, 9.805696,1,1
1778021955222,   948.320,   948.320, 0.007163,-0.009557,-0.994532, 0.000022,-0.000028,-0.002984,-0.005714, 0.020423, 0.052664,1, 0.007435,-0.001108, 0.000621,1,-0.075953, 0.114211, 9.805691,1,1
1778021955233,   948.329,   948.329, 0.007117,-0.011212,-0.995433, 0.000022,-0.000033,-0.002986,-0.006061, 0.004989, 0.043816,1, 0.009203,-0.001232, 0.001053,1,-0.075847, 0.115027, 9.805682,1,1
1778021955244,   948.338,   948.335, 0.007045,-0.011993,-0.997455, 0.000022,-0.000035,-0.002993,-0.003338,-0.002798, 0.029775,1, 0.009770,-0.001031, 0.000461,1,-0.075765, 0.115631, 9.805676,1,1
1778021955255,   948.347,   948.344, 0.007040,-0.011609,-0.998190, 0.000021,-0.000035,-0.002995,-0.009067,-0.004404, 0.014197,1, 0.007468,-0.000760,-0.000109,1,-0.075671, 0.116407, 9.805667,1,1
1778021955265,   948.356,   948.353, 0.007741,-0.012102,-0.997426, 0.000023,-0.000036,-0.002992,-0.002674,-0.002198, 0.015068,1, 0.002776,-0.000642, 0.000584,1,-0.075601, 0.116835, 9.805662,1,1
1778021955276,   948.365,   948.362, 0.006881,-0.010716,-0.996641, 0.000021,-0.000032,-0.002990,-0.007711,-0.000289, 0.027598,1,-0.004030, 0.000727, 0.000761,1,-0.075642, 0.116766, 9.805663,1,1
1778021955287,   948.371,   948.371, 0.007134,-0.009854,-0.996166, 0.000021,-0.000030,-0.002988,-0.005736, 0.019571, 0.036621,1,-0.008503, 0.000423, 0.000550,1,-0.075698, 0.116124, 9.805671,1,1
1778021955298,   948.380,   948.380, 0.006937,-0.009797,-0.995360, 0.000021,-0.000030,-0.002986,-0.007723, 0.019168, 0.044536,1,-0.011419, 0.000503, 0.000304,1,-0.075753, 0.115141, 9.805681,1,1
1778021955308,   948.455,   948.452, 0.007616,-0.011472,-0.996972, 0.000023,-0.000034,-0.002991, 0.003158, 0.008472, 0.019110,1,-0.007265, 0.001202, 0.000103,1,-0.075868, 0.115720, 9.805674,1,1
1778021955319,   948.464,   948.461, 0.008213,-0.011316,-0.994789, 0.000025,-0.000034,-0.002985, 0.004395, 0.007219, 0.038876,1,-0.009313, 0.000875, 0.000517,1,-0.075926, 0.114394, 9.805689,1,1
1778021955330,   948.473,   948.470, 0.007509,-0.010387,-0.994335, 0.000023,-0.000031,-0.002984,-0.003768, 0.012238, 0.057517,1,-0.008909, 0.000950,-0.000541,1,-0.075995, 0.113581, 9.805697,1,1
1778021955341,   948.479,   948.479, 0.007318,-0.009155,-0.994044, 0.000021,-0.000028,-0.002982,-0.004242, 0.023251, 0.057464,1,-0.005601, 0.001196,-0.000761,1,-0.076017, 0.112975, 9.805704,1,1
1778021955351,   948.488,   948.488, 0.007792,-0.009574,-0.993527, 0.000023,-0.000029,-0.002981, 0.000376, 0.018870, 0.062537,1,-0.000866, 0.000226,-0.001061,1,-0.076042, 0.112752, 9.805707,1,1
1778021955362,   948.497,   948.497, 0.007167,-0.009086,-0.993005, 0.000021,-0.000027,-0.002979,-0.005794, 0.023682, 0.067653,1, 0.001583, 0.000172,-0.001206,1,-0.076082, 0.112797, 9.805706,1,1
1778021955373,   948.506,   948.506, 0.007420,-0.009241,-0.995280, 0.000022,-0.000028,-0.002986,-0.003262, 0.022314, 0.045343,1, 0.002243,-0.001181,-0.000521,1,-0.076014, 0.112962, 9.805705,1,1
1778021955384,   948.515,   948.512, 0.008247,-0.009902,-0.998526, 0.000025,-0.000029,-0.002995, 0.006144, 0.019745, 0.020246,1, 0.002479,-0.000748,-0.000040,1,-0.075984, 0.113150, 9.805703,1,1
1778021955395,   948.524,   948.521, 0.008580,-0.010652,-0.998028, 0.000026,-0.000032,-0.002995, 0.003953, 0.011762, 0.014783,1, 0.000465,-0.000110,-0.001597,1,-0.075880, 0.113239, 9.805702,1,1
1778021955405,   948.533,   948.530, 0.008629,-0.012319,-0.997955, 0.000026,-0.000037,-0.002994, 0.007960,-0.007545, 0.023520,1,-0.003367, 0.000469,-0.001126,1,-0.075890, 0.113129, 9.805704,1,1
1778021955416,   948.542,   948.539, 0.008120,-0.011966,-0.997253, 0.000024,-0.000036,-0.002992, 0.012324, 0.001193, 0.020360,1,-0.006690,-0.000174,-0.001498,1,-0.075869, 0.112601, 9.805710,1,1
1778021955427,   948.551,   948.548, 0.008592,-0.011466,-0.996699, 0.000026,-0.000034,-0.002990, 0.005994,-0.004206, 0.026551,1,-0.009444, 0.001429,-0.001170,1,-0.075893, 0.111731, 9.805719,1,1
1778021955438,   948.557,   948.557, 0.007759,-0.009841,-0.995561, 0.000023,-0.000029,-0.002986, 0.000173, 0.014326, 0.042610,1,-0.011863,-0.000362,-0.000955,1,-0.075910, 0.110722, 9.805731,1,1
1778021955448,   948.566,   948.566, 0.007281,-0.007678,-0.993277, 0.000022,-0.000023,-0.002980,-0.004504, 0.034461, 0.065024,1,-0.012319, 0.000935,-0.000123,1,-0.075917, 0.109638, 9.805743,1,1
1778021955459,   948.575,   948.575, 0.006921,-0.006507,-0.993195, 0.000020,-0.000020,-0.002980,-0.008063, 0.044953, 0.065832,1,-0.009278,-0.000084,-0.001027,1,-0.075930, 0.108683, 9.805754,1,1
1778021955470,   948.584,   948.584, 0.007023,-0.006797,-0.995037, 0.000022,-0.000020,-0.002984,-0.007077, 0.041631, 0.047774,1,-0.002661,-0.001091,-0.000118,1,-0.075940, 0.108258, 9.805758,1,1
1778021955481,   948.593,   948.590, 0.007916,-0.007590,-0.994661, 0.000023,-0.000023,-0.002984,-0.005867, 0.038959, 0.058493,1,-0.001112, 0.000434,-0.000038,1,-0.075950, 0.108140, 9.805759,1,1
1778021955491,   948.602,   948.599, 0.007637,-0.008904,-0.995512, 0.000023,-0.000026,-0.002987,-0.003546, 0.032947, 0.038676,1, 0.006050,-0.000259,-0.000836,1,-0.075967, 0.108504, 9.805756,1,1
1778021955502,   948.611,   948.608, 0.007851,-0.010142,-0.997136, 0.000024,-0.000030,-0.002991, 0.003763, 0.015917, 0.029491,1, 0.006408,-0.000951,-0.001074,1,-0.075902, 0.109164, 9.805749,1,1
1778021955513,   948.620,   948.617, 0.008195,-0.010249,-0.998669, 0.000025,-0.000031,-0.002997, 0.006967, 0.005635, 0.018228,1, 0.004387, 0.000199,-0.001176,1,-0.075885, 0.109676, 9.805743,1,1
1778021955524,   948.626,   948.626, 0.007327,-0.010185,-0.997707, 0.000022,-0.000030,-0.002993,-0.004043, 0.009916, 0.021579,1,-0.000155, 0.000631,-0.001722,1,-0.075906, 0.109798, 9.805741,1,1
1778021955534,   948.635,   948.635, 0.007850,-0.008877,-0.997263, 0.000023,-0.000026,-0.002991, 0.001045, 0.022340, 0.025935,1,-0.007880, 0.000065,-0.000240,1,-0.075934, 0.109316, 9.805747,1,1
1778021955545,   948.644,   948.644, 0.008301,-0.007613,-0.994466, 0.000025,-0.000023,-0.002983, 0.005415, 0.033868, 0.053371,1,-0.012181, 0.000238, 0.000286,1,-0.075992, 0.108415, 9.805757,1,1
1778021955556,   948.653,   948.653, 0.008193,-0.006607,-0.994149, 0.000025,-0.000020,-0.002983, 0.004353, 0.042634, 0.056496,1,-0.012383,-0.000358,-0.000319,1,-0.075989, 0.107313, 9.805768,1,1
1778021955567,   948.662,   948.659, 0.007720,-0.006246,-0.993444, 0.000023,-0.000019,-0.002981,-0.001244, 0.044800, 0.064818,1,-0.007849,-0.000450, 0.000398,1,-0.075983, 0.106754, 9.805775,1,1
1778021955577,   948.671,   948.668, 0.007711,-0.006766,-0.993929, 0.000023,-0.000020,-0.002982, 0.004978, 0.045299, 0.052385,1, 0.000925, 0.000802,-0.000348,1,-0.076109, 0.105914, 9.805782,1,1
1778021955591,   948.680,   948.677, 0.007545,-0.007346,-0.993901, 0.000023,-0.000022,-0.002982,-0.004578, 0.035071, 0.060867,1, 0.011162, 0.000157,-0.000536,1,-0.076153, 0.106588, 9.805775,1,1
1778021955599,   948.689,   948.686, 0.008121,-0.008951,-0.995128, 0.000024,-0.000027,-0.002985, 0.001973, 0.025856, 0.046635,1, 0.014540, 0.000515,-0.000557,1,-0.076167, 0.107728, 9.805762,1,1
1778021955610,   948.698,   948.695, 0.008569,-0.009762,-0.996574, 0.000026,-0.000029,-0.002990, 0.004827, 0.021215, 0.032414,1, 0.013999,-0.001366,-0.000976,1,-0.076110, 0.109080, 9.805748,1,1
1778021955621,   948.761,   948.761, 0.008489,-0.007036,-0.992497, 0.000025,-0.000020,-0.002977, 0.006954, 0.039667, 0.072683,1, 0.005165,-0.000267, 0.000847,1,-0.076288, 0.108711, 9.805751,1,1
1778021955631,   948.770,   948.770, 0.007977,-0.008083,-0.993758, 0.000024,-0.000024,-0.002981, 0.001959, 0.030092, 0.060308,1, 0.009681,-0.000276, 0.001199,1,-0.076265, 0.109454, 9.805742,1,1
1778021955642,   948.779,   948.776, 0.007707,-0.009911,-0.995349, 0.000023,-0.000030,-0.002986, 0.006523, 0.018965, 0.046566,1, 0.011824,-0.000349, 0.000996,1,-0.076241, 0.110128, 9.805736,1,1
1778021955653,   948.788,   948.785, 0.007161,-0.010767,-0.995083, 0.000022,-0.000032,-0.002984, 0.003660, 0.006984, 0.051802,1, 0.011781, 0.000886, 0.000654,1,-0.076211, 0.111198, 9.805723,1,1
1778021955664,   948.797,   948.791, 0.007068,-0.011357,-0.997898, 0.000021,-0.000034,-0.002994,-0.007033,-0.000198, 0.039133,1, 0.010640,-0.000345,-0.001018,1,-0.076183, 0.111837, 9.805717,1,1
1778021955674,   948.806,   948.803, 0.006917,-0.012183,-0.998492, 0.000020,-0.000037,-0.002995, 0.003773,-0.003463, 0.016130,1, 0.004183, 0.000259, 0.000808,1,-0.076149, 0.112597, 9.805708,1,1
1778021955685,   948.812,   948.812, 0.007488,-0.011221,-0.996868, 0.000022,-0.000034,-0.002990,-0.002709, 0.002557, 0.029771,1,-0.001724,-0.000020, 0.001119,1,-0.076137, 0.112579, 9.805708,1,1
1778021955696,   948.821,   948.821, 0.008292,-0.010585,-0.996282, 0.000026,-0.000032,-0.002989, 0.005129, 0.008407, 0.035525,1,-0.005020,-0.000513, 0.000426,1,-0.076180, 0.112164, 9.805713,1,1
1778021955707,   948.830,   948.830, 0.008697,-0.010464,-0.995608, 0.000025,-0.000032,-0.002987, 0.009158, 0.009078, 0.042140,1,-0.006352,-0.000623,-0.000223,1,-0.076126, 0.111637, 9.805719,1,1
1778021955717,   948.839,   948.839, 0.008626,-0.009497,-0.995170, 0.000026,-0.000028,-0.002985, 0.008501, 0.018143, 0.046438,1,-0.002964,-0.000480,-0.000000,1,-0.076086, 0.111248, 9.805724,1,1
1778021955728,   948.848,   948.845, 0.008523,-0.008992,-0.994948, 0.000026,-0.000027,-0.002985, 0.012505, 0.019111, 0.046223,1,-0.000944, 0.000666, 0.000195,1,-0.076114, 0.111135, 9.805725,1,1
1778021955739,   948.857,   948.854, 0.008120,-0.007773,-0.994069, 0.000024,-0.000023,-0.002982, 0.010512, 0.031280, 0.064397,1, 0.002631,-0.000496, 0.000251,1,-0.076136, 0.111250, 9.805723,1,1
1778021955750,   948.866,   948.863, 0.007143,-0.007829,-0.995723, 0.000022,-0.000024,-0.002988, 0.004895, 0.040032, 0.057549,1, 0.004030,-0.000803, 0.000781,1,-0.076247, 0.110925, 9.805726,1,1
1778021955760,   948.875,   948.872, 0.007991,-0.008306,-0.996265, 0.000025,-0.000025,-0.002990, 0.001834, 0.030297, 0.039665,1, 0.006759,-0.000099, 0.000430,1,-0.076270, 0.111446, 9.805720,1,1
1778021955771,   948.884,   948.881, 0.007515,-0.009573,-0.995595, 0.000023,-0.000029,-0.002987,-0.005286, 0.024448, 0.030376,1, 0.005487,-0.000359, 0.000054,1,-0.076263, 0.111950, 9.805715,1,1
1778021955782,   948.890,   948.890, 0.007802,-0.010489,-0.996152, 0.000023,-0.000032,-0.002988, 0.000233, 0.009480, 0.036800,1, 0.004250,-0.000047, 0.000408,1,-0.076280, 0.112378, 9.805710,1,1
1778021955793,   948.899,   948.899, 0.007761,-0.011503,-0.996225, 0.000023,-0.000034,-0.002988,-0.000169,-0.000282, 0.036073,1, 0.001547,-0.000210,-0.000154,1,-0.076275, 0.112541, 9.805708,1,1
1778021955803,   948.908,   948.908, 0.008093,-0.012301,-0.996643, 0.000024,-0.000037,-0.002989, 0.003102,-0.008098, 0.031980,1, 0.000091, 0.000546, 0.000353,1,-0.076270, 0.112539, 9.805708,1,1
1778021955814,   948.917,   948.917, 0.008240,-0.011210,-0.996539, 0.000025,-0.000034,-0.002989, 0.004520, 0.002522, 0.032998,1,-0.001239, 0.000327, 0.000275,1,-0.076289, 0.112440, 9.805709,1,1
1778021955825,   948.926,   948.923, 0.008311,-0.010152,-0.995503, 0.000025,-0.000031,-0.002986, 0.002289, 0.005708, 0.039672,1,-0.001543, 0.001155,-0.000216,1,-0.076301, 0.112358, 9.805710,1,1
1778021955836,   948.935,   948.932, 0.008702,-0.009193,-0.996167, 0.000027,-0.000028,-0.002989, 0.002523, 0.012799, 0.041284,1,-0.002303, 0.001102,-0.000964,1,-0.076330, 0.112167, 9.805712,1,1
1778021955847,   948.944,   948.941, 0.008927,-0.009162,-0.995336, 0.000027,-0.000027,-0.002986, 0.003196, 0.021771, 0.037884,1,-0.003789, 0.000076,-0.000157,1,-0.076395, 0.111898, 9.805714,1,1
1778021955857,   948.953,   948.950, 0.008437,-0.009766,-0.995209, 0.000025,-0.000029,-0.002986, 0.004140, 0.011553, 0.047020,1,-0.004377, 0.000288, 0.000384,1,-0.076430, 0.111518, 9.805718,1,1
1778021955868,   948.962,   948.959, 0.008483,-0.009387,-0.994359, 0.000026,-0.000028,-0.002983, 0.014024, 0.018662, 0.049294,1,-0.003010,-0.001178, 0.000519,1,-0.076394, 0.111218, 9.805721,1,1
1778021955879,   948.968,   948.968, 0.008772,-0.009469,-0.995080, 0.000027,-0.000029,-0.002985, 0.009656, 0.018106, 0.047323,1,-0.002758,-0.001408, 0.000821,1,-0.076354, 0.110936, 9.805725,1,1
1778021955890,   948.977,   948.977, 0.008724,-0.009052,-0.995747, 0.000025,-0.000027,-0.002987, 0.009190, 0.022046, 0.040789,1,-0.000597,-0.000293, 0.001054,1,-0.076363, 0.110810, 9.805727,1,1
1778021955900,   948.986,   948.986, 0.007641,-0.009326,-0.996650, 0.000023,-0.000027,-0.002990,-0.001379, 0.019353, 0.031932,1, 0.000076,-0.000172, 0.000239,1,-0.076308, 0.110813, 9.805727,1,1
1778021955911,   948.995,   948.992, 0.007415,-0.010528,-0.995492, 0.000022,-0.000031,-0.002987,-0.001690, 0.012512, 0.038571,1, 0.000292,-0.000628, 0.000057,1,-0.076279, 0.110840, 9.805727,1,1
1778021955922,   949.004,   949.001, 0.008075,-0.010569,-0.995978, 0.000024,-0.000032,-0.002988,-0.002969, 0.007211, 0.037703,1, 0.000376, 0.000462,-0.000622,1,-0.076338, 0.110884, 9.805726,1,1
1778021955933,   949.079,   949.079, 0.007816,-0.008555,-0.994215, 0.000024,-0.000026,-0.002983, 0.000304, 0.024462, 0.055833,1, 0.001166,-0.001456,-0.000909,1,-0.076327, 0.108369, 9.805754,1,1
1778021955943,   949.088,   949.088, 0.008053,-0.008658,-0.996535, 0.000024,-0.000026,-0.002989, 0.002669, 0.023550, 0.033083,1, 0.000742,-0.000519,-0.000095,1,-0.076295, 0.108468, 9.805754,1,1
1778021955954,   949.097,   949.097, 0.008499,-0.009067,-0.995944, 0.000026,-0.000027,-0.002988, 0.007101, 0.019561, 0.038878,1,-0.000219,-0.001245,-0.001370,1,-0.076235, 0.108473, 9.805754,1,1
1778021955965,   949.106,   949.103, 0.008207,-0.008703,-0.996121, 0.000024,-0.000026,-0.002989, 0.001518, 0.022405, 0.036292,1,-0.000718, 0.001537,-0.000832,1,-0.076285, 0.108419, 9.805754,1,1
1778021955976,   949.115,   949.112, 0.008267,-0.008834,-0.995716, 0.000025,-0.000026,-0.002986, 0.008544, 0.023265, 0.039657,1,-0.002237, 0.000085,-0.000759,1,-0.076261, 0.108273, 9.805756,1,1
1778021955986,   949.124,   949.121, 0.007978,-0.008124,-0.996297, 0.000024,-0.000024,-0.002989, 0.005282, 0.021290, 0.038150,1,-0.002591, 0.000238,-0.000241,1,-0.076248, 0.108067, 9.805758,1,1
1778021955997,   949.133,   949.130, 0.007741,-0.008682,-0.995223, 0.000024,-0.000026,-0.002985, 0.007267, 0.030266, 0.039003,1, 0.000438,-0.000706,-0.001336,1,-0.076247, 0.108007, 9.805758,1,1
1778021956008,   949.142,   949.139, 0.007659,-0.008675,-0.995005, 0.000023,-0.000026,-0.002985,-0.000286, 0.026783, 0.051503,1,-0.000236,-0.000428,-0.001001,1,-0.076227, 0.108031, 9.805758,1,1
1778021956019,   949.148,   949.148, 0.007341,-0.009236,-0.994941, 0.000022,-0.000028,-0.002985,-0.004279, 0.017514, 0.048716,1, 0.001374, 0.000623, 0.000215,1,-0.076272, 0.108105, 9.805758,1,1
1778021956029,   949.157,   949.157, 0.007318,-0.008097,-0.996038, 0.000022,-0.000024,-0.002988,-0.004481, 0.028854, 0.037959,1, 0.002794,-0.001026, 0.000203,1,-0.076240, 0.108287, 9.805756,1,1
1778021956040,   949.166,   949.166, 0.007750,-0.009002,-0.995867, 0.000023,-0.000027,-0.002988,-0.000204, 0.020235, 0.039629,1, 0.003383,-0.000612, 0.000041,1,-0.076205, 0.108545, 9.805753,1,1
1778021956051,   949.175,   949.175, 0.007680,-0.008329,-0.995395, 0.000023,-0.000025,-0.002986,-0.000844, 0.027085, 0.044260,1, 0.002590,-0.001285,-0.000336,1,-0.076143, 0.108786, 9.805751,1,1
1778021956062,   949.184,   949.181, 0.007183,-0.009005,-0.995296, 0.000021,-0.000027,-0.002986,-0.002911, 0.018773, 0.043202,1, 0.003372,-0.000041, 0.000247,1,-0.076120, 0.108977, 9.805749,1,1
1778021956073,   949.193,   949.190, 0.007544,-0.009246,-0.997020, 0.000023,-0.000027,-0.002991,-0.002668, 0.021238, 0.039312,1, 0.002504,-0.001000,-0.000349,1,-0.076077, 0.109226, 9.805747,1,1
1778021956083,   949.202,   949.199, 0.007971,-0.009073,-0.995855, 0.000024,-0.000027,-0.002988,-0.003358, 0.022540, 0.041251,1, 0.003342, 0.000146, 0.000464,1,-0.076086, 0.109486, 9.805743,1,1
1778021956094,   949.211,   949.208, 0.007594,-0.008848,-0.994888, 0.000023,-0.000026,-0.002984,-0.003398, 0.022023, 0.040797,1, 0.004233, 0.000273, 0.000482,1,-0.076134, 0.109818, 9.805739,1,1
1778021956105,   949.220,   949.217, 0.007989,-0.009153,-0.995078, 0.000024,-0.000028,-0.002985,-0.002009, 0.028015, 0.042530,1, 0.004063,-0.000106,-0.000131,1,-0.076092, 0.110131, 9.805737,1,1
1778021956116,   949.226,   949.226, 0.007686,-0.009329,-0.995862, 0.000023,-0.000028,-0.002987,-0.000691, 0.018928, 0.039661,1, 0.004339, 0.000420, 0.000033,1,-0.076073, 0.110453, 9.805733,1,1
1778021956126,   949.235,   949.235, 0.007986,-0.009514,-0.995757, 0.000024,-0.000029,-0.002988, 0.002217, 0.017430, 0.040688,1, 0.004903, 0.000168, 0.000872,1,-0.076102, 0.110781, 9.805729,1,1
1778021956137,   949.244,   949.244, 0.008448,-0.010282,-0.994792, 0.000026,-0.000031,-0.002984, 0.006815, 0.010287, 0.050144,1, 0.004503,-0.000619, 0.000787,1,-0.076027, 0.111160, 9.805725,1,1
1778021956149,   949.253,   949.250, 0.009007,-0.009978,-0.995636, 0.000027,-0.000030,-0.002987, 0.011721, 0.014925, 0.040873,1, 0.004138,-0.000791,-0.000313,1,-0.075970, 0.111403, 9.805723,1,1
1778021956159,   949.262,   949.259, 0.008625,-0.010559,-0.996629, 0.000026,-0.000032,-0.002989, 0.011905, 0.008746, 0.042077,1, 0.006956,-0.000638, 0.000030,1,-0.075958, 0.111912, 9.805717,1,1
1778021956169,   949.271,   949.268, 0.008484,-0.009565,-0.996840, 0.000026,-0.000029,-0.002991, 0.011716, 0.016025, 0.026565,1, 0.005417, 0.000660, 0.000307,1,-0.076026, 0.111585, 9.805720,1,1
1778021956182,   949.280,   949.277, 0.008236,-0.009195,-0.995131, 0.000024,-0.000027,-0.002985, 0.003254, 0.027020, 0.046478,1, 0.003507,-0.000471, 0.000495,1,-0.076059, 0.111941, 9.805717,1,1
1778021956191,   949.289,   949.286, 0.008388,-0.009062,-0.995791, 0.000025,-0.000027,-0.002987, 0.000285, 0.021023, 0.041468,1, 0.001743, 0.000017, 0.000494,1,-0.076002, 0.112151, 9.805715,1,1
1778021956202,   949.295,   949.295, 0.008255,-0.009240,-0.994732, 0.000024,-0.000028,-0.002984, 0.004920, 0.021725, 0.050722,1, 0.002100,-0.001380, 0.001186,1,-0.076017, 0.112357, 9.805712,1,1
1778021956212,   949.304,   949.304, 0.007319,-0.009755,-0.995106, 0.000022,-0.000029,-0.002985,-0.004208, 0.016837, 0.047049,1, 0.002662, 0.000175, 0.000774,1,-0.075982, 0.112527, 9.805710,1,1
1778021956223,   949.313,   949.313, 0.008460,-0.010100,-0.996079, 0.000025,-0.000030,-0.002988, 0.006948, 0.013722, 0.037510,1, 0.003731,-0.000995,-0.000717,1,-0.076005, 0.112803, 9.805707,1,1
1778021956234,   949.322,   949.322, 0.007275,-0.010905,-0.995802, 0.000022,-0.000032,-0.002987,-0.004682, 0.006263, 0.040221,1, 0.005720, 0.000341,-0.000417,1,-0.076026, 0.113254, 9.805701,1,1
1778021956245,   949.385,   949.382, 0.008515,-0.010378,-0.994537, 0.000025,-0.000031,-0.002984, 0.001976, 0.018474, 0.042093,1,-0.001725,-0.000061,-0.001137,1,-0.076156, 0.114583, 9.805685,1,1
1778021956256,   949.394,   949.391, 0.007016,-0.009205,-0.993702, 0.000021,-0.000028,-0.002981, 0.001832, 0.017054, 0.058865,1, 0.001634,-0.000107, 0.001197,1,-0.076131, 0.114609, 9.805685,1,1
1778021956266,   949.403,   949.400, 0.007921,-0.009641,-0.995339, 0.000024,-0.000029,-0.002986,-0.000985, 0.011489, 0.044759,1, 0.004605,-0.000170, 0.000082,1,-0.076119, 0.114909, 9.805681,1,1
1778021956277,   949.409,   949.409, 0.008191,-0.010143,-0.995801, 0.000025,-0.000031,-0.002987, 0.004234, 0.015863, 0.040200,1, 0.005429,-0.001020,-0.001417,1,-0.076080, 0.115382, 9.805676,1,1
1778021956288,   949.418,   949.418, 0.008104,-0.011356,-0.996629, 0.000024,-0.000034,-0.002990, 0.003428, 0.004509, 0.032083,1, 0.006500, 0.000323,-0.001180,1,-0.076047, 0.115935, 9.805670,1,1
1778021956299,   949.427,   949.427, 0.008089,-0.011316,-0.996649, 0.000024,-0.000034,-0.002990, 0.003281, 0.005363, 0.031878,1, 0.003677,-0.000061,-0.000989,1,-0.076047, 0.116365, 9.805665,1,1
1778021956309,   949.436,   949.433, 0.008272,-0.011297,-0.996975, 0.000025,-0.000034,-0.002991, 0.002876, 0.010035, 0.028688,1, 0.001958,-0.001851,-0.001084,1,-0.075981, 0.116534, 9.805663,1,1
1778021956320,   949.445,   949.442, 0.008834,-0.011106,-0.996661, 0.000027,-0.000034,-0.002990, 0.013014, 0.002025, 0.030216,1,-0.002472,-0.000258,-0.000638,1,-0.075921, 0.116423, 9.805665,1,1
1778021956331,   949.454,   949.451, 0.008414,-0.010315,-0.995417, 0.000025,-0.000031,-0.002987, 0.003278, 0.012582, 0.033801,1,-0.005356, 0.000513,-0.000560,1,-0.075964, 0.116011, 9.805670,1,1
1778021956342,   949.463,   949.460, 0.007405,-0.009289,-0.994711, 0.000022,-0.000027,-0.002984, 0.000226, 0.023351, 0.053007,1,-0.005072, 0.000743,-0.000180,1,-0.075999, 0.115518, 9.805676,1,1
1778021956352,   949.472,   949.469, 0.008620,-0.008929,-0.994283, 0.000026,-0.000027,-0.002983, 0.005952, 0.030584, 0.057167,1,-0.001904, 0.000596,-0.000133,1,-0.076184, 0.114765, 9.805682,1,1
1778021956363,   949.478,   949.478, 0.007916,-0.008787,-0.993668, 0.000024,-0.000026,-0.002981, 0.001375, 0.028617, 0.061131,1, 0.001615, 0.000684, 0.000467,1,-0.076262, 0.114798, 9.805681,1,1
1778021956374,   949.487,   949.487, 0.008308,-0.009358,-0.994260, 0.000025,-0.000028,-0.002983, 0.005177, 0.023369, 0.055313,1, 0.004881,-0.000162,-0.000132,1,-0.076292, 0.115183, 9.805676,1,1
1778021956385,   949.496,   949.493, 0.007473,-0.010770,-0.995019, 0.000023,-0.000032,-0.002985, 0.001451, 0.010181, 0.049180,1, 0.007758, 0.000317,-0.000940,1,-0.076287, 0.115626, 9.805672,1,1
1778021956395,   949.505,   949.505, 0.008052,-0.011862,-0.996439, 0.000024,-0.000036,-0.002990, 0.002732, 0.000076, 0.033938,1, 0.007136,-0.000179, 0.000274,1,-0.076231, 0.116473, 9.805662,1,1
1778021956406,   949.514,   949.511, 0.007310,-0.011773,-0.996995, 0.000022,-0.000036,-0.002991, 0.001670, 0.004821, 0.027150,1, 0.004617,-0.000026,-0.000785,1,-0.076210, 0.116800, 9.805658,1,1
1778021956417,   949.523,   949.520, 0.007903,-0.011989,-0.997304, 0.000024,-0.000036,-0.002992,-0.003463,-0.003145, 0.021653,1, 0.000552,-0.001119,-0.000275,1,-0.076149, 0.117011, 9.805656,1,1
1778021956428,   949.532,   949.529, 0.007763,-0.010848,-0.997842, 0.000024,-0.000033,-0.002994,-0.003789, 0.008706, 0.021217,1,-0.004760, 0.000218,-0.000533,1,-0.076198, 0.116700, 9.805659,1,1
1778021956439,   949.541,   949.538, 0.007777,-0.009121,-0.996451, 0.000024,-0.000027,-0.002989, 0.007623, 0.018730, 0.022117,1,-0.008488, 0.000533,-0.000586,1,-0.076200, 0.116077, 9.805667,1,1
1778021956449,   949.550,   949.547, 0.007952,-0.008775,-0.994918, 0.000024,-0.000026,-0.002985, 0.013985, 0.028574, 0.049663,1,-0.008461, 0.000172,-0.000942,1,-0.076222, 0.115299, 9.805676,1,1
1778021956460,   949.556,   949.556, 0.008470,-0.008246,-0.994524, 0.000026,-0.000025,-0.002984, 0.006867, 0.033914, 0.052736,1,-0.006439,-0.000656, 0.000498,1,-0.076185, 0.114720, 9.805683,1,1
1778021956471,   949.565,   949.565, 0.008356,-0.008012,-0.993088, 0.000025,-0.000023,-0.002979, 0.005735, 0.035929, 0.066815,1,-0.000637, 0.000082,-0.000087,1,-0.076212, 0.114498, 9.805685,1,1
1778021956482,   949.574,   949.574, 0.008179,-0.008689,-0.993314, 0.000024,-0.000026,-0.002981, 0.003989, 0.029539, 0.064595,1, 0.005214, 0.000072,-0.000666,1,-0.076217, 0.114801, 9.805682,1,1
1778021956492,   949.583,   949.583, 0.007918,-0.008531,-0.994724, 0.000024,-0.000025,-0.002984, 0.001416, 0.031786, 0.050767,1, 0.010272,-0.001047,-0.000038,1,-0.076227, 0.115547, 9.805673,1,1
1778021956503,   949.592,   949.589, 0.007263,-0.009939,-0.995269, 0.000022,-0.000030,-0.002986,-0.006522, 0.021895, 0.051202,1, 0.010165,-0.000278, 0.000835,1,-0.076217, 0.116158, 9.805666,1,1
1778021956514,   949.601,   949.598, 0.007018,-0.011359,-0.996763, 0.000021,-0.000034,-0.002991,-0.006059, 0.009684, 0.031359,1, 0.009640,-0.000733, 0.000656,1,-0.076164, 0.117020, 9.805656,1,1
1778021956525,   949.610,   949.607, 0.007016,-0.012481,-0.997806, 0.000021,-0.000037,-0.002994,-0.007642,-0.006577, 0.021748,1, 0.005209,-0.000244,-0.000614,1,-0.076097, 0.117636, 9.805649,1,1
1778021956535,   949.619,   949.616, 0.006783,-0.012515,-0.997995, 0.000021,-0.000038,-0.002994,-0.011055,-0.008156, 0.020905,1, 0.000584, 0.000740,-0.000516,1,-0.076076, 0.117834, 9.805647,1,1
1778021956546,   949.694,   949.622, 0.009666,-0.011616,-0.997621, 0.000029,-0.000035,-0.002993,-0.007846, 0.001740, 0.031278,1,-0.002908,-0.000502,-0.000051,1,-0.076088, 0.117754, 9.805648,1,1
1778021956557,   949.703,   949.700, 0.009832,-0.012109,-0.998272, 0.000030,-0.000036,-0.002994, 0.028806,-0.006302, 0.021320,1, 0.007625, 0.000317,-0.000592,1,-0.076187, 0.117749, 9.805647,1,1
1778021956568,   949.712,   949.709, 0.010238,-0.011758,-0.996697, 0.000031,-0.000036,-0.002990, 0.025945, 0.002414, 0.031463,1, 0.002694,-0.000088,-0.000719,1,-0.076156, 0.118164, 9.805642,1,1
1778021956578,   949.721,   949.718, 0.009962,-0.011675,-0.996900, 0.000030,-0.000035,-0.002990, 0.022687, 0.004913, 0.024073,1,-0.003740,-0.000348,-0.000633,1,-0.076208, 0.118028, 9.805644,1,1
1778021956589,   949.730,   949.727, 0.009222,-0.011364,-0.995575, 0.000028,-0.000034,-0.002987, 0.025502, 0.009472, 0.037710,1,-0.008727, 0.000015,-0.000251,1,-0.076222, 0.117372, 9.805652,1,1
1778021956600,   949.736,   949.736, 0.009889,-0.011244,-0.995010, 0.000030,-0.000034,-0.002985, 0.020781, 0.006351, 0.047946,1,-0.010074,-0.000821,-0.000101,1,-0.076190, 0.116523, 9.805662,1,1
1778021956611,   949.745,   949.745, 0.008318,-0.009589,-0.994301, 0.000025,-0.000028,-0.002983, 0.005341, 0.021770, 0.054910,1,-0.006911,-0.000291,-0.000657,1,-0.076229, 0.115740, 9.805671,1,1
1778021956621,   949.754,   949.754, 0.008265,-0.008731,-0.993412, 0.000025,-0.000026,-0.002980, 0.004819, 0.029841, 0.063625,1,-0.001158, 0.000619,-0.000660,1,-0.076238, 0.115450, 9.805674,1,1
1778021956632,   949.763,   949.763, 0.007271,-0.008015,-0.994039, 0.000022,-0.000024,-0.002982,-0.004878, 0.037069, 0.057480,1, 0.004341,-0.001785,-0.000860,1,-0.076170, 0.115708, 9.805672,1,1
1778021956643,   949.772,   949.769, 0.007342,-0.009053,-0.995302, 0.000022,-0.000027,-0.002986,-0.004135, 0.031090, 0.043003,1, 0.006827,-0.000486,-0.001165,1,-0.076133, 0.116060, 9.805668,1,1
1778021956654,   949.781,   949.778, 0.006702,-0.009878,-0.996013, 0.000020,-0.000029,-0.002989,-0.011233, 0.022878, 0.041643,1, 0.007498,-0.000666,-0.001442,1,-0.076073, 0.116817, 9.805659,1,1
