Time,GPS_ts,fGPS_ts,scaledAccelX,scaledAccelY,scaledAccelZ,deltaVelX,deltaVelY,deltaVelZ,estLinearAccelX,estLinearAccelY,estLinearAccelZ,estLinearAccel:valid,estAngularRateX,estAngularRateY,estAngularRateZ,estAngularRate:valid,estGravityX,estGravityY,estGravityZ,estGravity:valid,flag
1778021831968,   812.461,   812.458, 0.016922,-0.020046,-0.995593, 0.000051,-0.000060,-0.002987,-0.027521, 0.013208, 0.055608,1, 0.007694,-0.000203, 0.003806,1,-0.189811, 0.212833, 9.802503,1,0
1778021831969,   812.470,   812.467, 0.015387,-0.019919,-0.999414, 0.000046,-0.000060,-0.002998,-0.033455, 0.018385, 0.020421,1, 0.002642,-0.000121, 0.003478,1,-0.189797, 0.213265, 9.802493,1,0
1778021831969,   812.479,   812.476, 0.014759,-0.019442,-0.994082, 0.000045,-0.000058,-0.002982,-0.019752, 0.030131, 0.031161,1,-0.000966, 0.000336, 0.004140,1,-0.189801, 0.213315, 9.802492,1,0
1778021831969,   812.488,   812.485, 0.016446,-0.016399,-0.992452, 0.000051,-0.000049,-0.002978,-0.021351, 0.049037, 0.066657,1,-0.003385, 0.001437, 0.003686,1,-0.189867, 0.213099, 9.802496,1,0
1778021831969,   812.497,   812.494, 0.017979,-0.016957,-0.998624, 0.000054,-0.000052,-0.002997,-0.032598, 0.022539, 0.008773,1,-0.001398,-0.000009, 0.004208,1,-0.189876, 0.212955, 9.802499,1,0
1778021831969,   812.506,   812.503, 0.018529,-0.017274,-0.999971, 0.000056,-0.000052,-0.003001,-0.027117, 0.038863,-0.006935,1, 0.002299, 0.000502, 0.003972,1,-0.189847, 0.212973, 9.802499,1,0
1778021831969,   812.515,   812.512, 0.018366,-0.017038,-0.996614, 0.000055,-0.000052,-0.002991,-0.017263, 0.035657, 0.014221,1, 0.005258,-0.000319, 0.004523,1,-0.188810, 0.211992, 9.802540,1,0
1778021831969,   812.524,   812.521, 0.017928,-0.018018,-0.990838, 0.000053,-0.000054,-0.002972,-0.003529, 0.050421, 0.086583,1, 0.007825,-0.000433, 0.004003,1,-0.188751, 0.212638, 9.802527,1,0
1778021831969,   812.533,   812.530, 0.018684,-0.016705,-0.993011, 0.000056,-0.000050,-0.002978, 0.015147, 0.057610, 0.083690,1, 0.008412,-0.001290, 0.003731,1,-0.188648, 0.213314, 9.802515,1,0
1778021831969,   812.542,   812.539, 0.019199,-0.014080,-0.993053, 0.000058,-0.000042,-0.002979, 0.011337, 0.076641, 0.061943,1, 0.005295,-0.000685, 0.004783,1,-0.188562, 0.213873, 9.802505,1,0
1778021831969,   812.548,   812.545, 0.019447,-0.012389,-0.994404, 0.000058,-0.000037,-0.002983,-0.012770, 0.080456, 0.061692,1, 0.005078, 0.000046, 0.005947,1,-0.188539, 0.214166, 9.802498,1,0
1778021831974,   825.088,   825.085, 0.022227,-0.019009,-0.979293, 0.000066,-0.000053,-0.002933, 0.018201, 0.114171, 0.142865,1,-0.013317,-0.001305, 0.002861,1,-0.176686, 0.253781, 9.801773,1,0
1778021831985,   825.097,   825.094, 0.015113,-0.030356,-0.948765, 0.000049,-0.000090,-0.002846, 0.009629, 0.067514, 0.466779,1,-0.007343,-0.004248, 0.002891,1,-0.176196, 0.252992, 9.801803,1,0
1778021831996,   825.106,   825.103, 0.023090,-0.040410,-1.027839, 0.000071,-0.000122,-0.003084, 0.042936,-0.199239,-0.046637,1,-0.000991,-0.001631,-0.002091,1,-0.175745, 0.253149, 9.801806,1,0
1778021832007,   825.112,   825.112, 0.018473,-0.052842,-1.067286, 0.000057,-0.000161,-0.003213, 0.005728,-0.266740,-0.664647,1,-0.012387,-0.006498,-0.002833,1,-0.175408, 0.250981, 9.801868,1,0
1778021832017,   825.121,   825.121, 0.011450,-0.050161,-1.018525, 0.000032,-0.000155,-0.003054,-0.063058,-0.242734,-0.186404,1,-0.031827, 0.006075,-0.004018,1,-0.175398, 0.248873, 9.801923,1,0
1778021832028,   825.130,   825.130, 0.016191,-0.021089,-1.034930, 0.000049,-0.000064,-0.003106,-0.017717, 0.038493,-0.347207,1,-0.051400, 0.016681,-0.001585,1,-0.176657, 0.244824, 9.802002,1,0
1778021832039,   825.139,   825.136, 0.017178, 0.007465,-0.971005, 0.000053, 0.000024,-0.002911, 0.025128, 0.242796,-0.004174,1,-0.063320, 0.014806, 0.003047,1,-0.177613, 0.241202, 9.802074,1,0
1778021832050,   825.145,   825.145, 0.016156, 0.017808,-0.939316, 0.000047, 0.000053,-0.002814,-0.020067, 0.411738, 0.590617,1,-0.041864, 0.012698, 0.003394,1,-0.178623, 0.236706, 9.802165,1,0
1778021832060,   825.202,   825.199, 0.016234,-0.014316,-1.028807, 0.000049,-0.000044,-0.003090,-0.035786, 0.027709,-0.368621,1,-0.059102, 0.015462, 0.002724,1,-0.177345, 0.237642, 9.802166,1,0
1778021832071,   825.211,   825.208, 0.015344, 0.005058,-0.962763, 0.000046, 0.000015,-0.002886,-0.030997, 0.234280, 0.195955,1,-0.054253, 0.009280, 0.000880,1,-0.178321, 0.232352, 9.802275,1,0
1778021832082,   825.220,   825.217, 0.020471, 0.004026,-0.986684, 0.000062, 0.000014,-0.002960,-0.000428, 0.310501, 0.267417,1,-0.011050, 0.005569,-0.003302,1,-0.178947, 0.229939, 9.802320,1,0
1778021832093,   825.229,   825.226, 0.018026,-0.011501,-0.977249, 0.000055,-0.000035,-0.002935, 0.015557, 0.147404, 0.073232,1, 0.028677,-0.006977,-0.007088,1,-0.178687, 0.231479, 9.802289,1,0
1778021832103,   825.235,   825.235, 0.013129,-0.025871,-0.961551, 0.000039,-0.000078,-0.002882,-0.048941,-0.018864, 0.372637,1, 0.047386,-0.012421,-0.005732,1,-0.177576, 0.235286, 9.802218,1,0
1778021832114,   825.244,   825.244, 0.015531,-0.042361,-1.010916, 0.000047,-0.000127,-0.003034,-0.024594,-0.176936,-0.111546,1, 0.030719,-0.007221,-0.003803,1,-0.176833, 0.238767, 9.802148,1,0
1778021832125,   825.253,   825.253, 0.017310,-0.040704,-1.000180, 0.000052,-0.000123,-0.003001,-0.006560,-0.160022,-0.006267,1,-0.009074,-0.004250,-0.001467,1,-0.176269, 0.239065, 9.802151,1,0
1778021832136,   825.262,   825.262, 0.023641,-0.028366,-1.008763, 0.000072,-0.000085,-0.003024, 0.055276,-0.041492,-0.090384,1,-0.040956, 0.008088, 0.000424,1,-0.176642, 0.236305, 9.802211,1,0
1778021832147,   825.271,   825.268, 0.027006,-0.012795,-1.018876, 0.000082,-0.000039,-0.003061, 0.064218, 0.041654,-0.281274,1,-0.053396, 0.010056,-0.000418,1,-0.177228, 0.233322, 9.802272,1,0
1778021832157,   825.280,   825.277, 0.023281, 0.001689,-0.974603, 0.000070, 0.000005,-0.002922, 0.061387, 0.219791, 0.147176,1,-0.047367, 0.005599,-0.001187,1,-0.177859, 0.228708, 9.802369,1,0
1778021832168,   825.289,   825.286, 0.025556,-0.002849,-1.001095, 0.000077,-0.000009,-0.003004, 0.077874, 0.221501, 0.077448,1,-0.019025, 0.003720,-0.002259,1,-0.178283, 0.226109, 9.802422,1,0
1778021832179,   825.298,   825.295, 0.023571,-0.010796,-0.979072, 0.000071,-0.000033,-0.002938, 0.068018, 0.154275, 0.078494,1, 0.008603,-0.003262,-0.000960,1,-0.178254, 0.226082, 9.802423,1,0
1778021832190,   825.307,   825.304, 0.023422,-0.023975,-0.986115, 0.000070,-0.000072,-0.002955, 0.036781, 0.051382, 0.267207,1, 0.027226,-0.006842, 0.000418,1,-0.177702, 0.228052, 9.802387,1,0
1778021832200,   825.313,   825.313, 0.025944,-0.030479,-1.007058, 0.000078,-0.000092,-0.003023, 0.077378,-0.070037,-0.073483,1, 0.027004,-0.005409, 0.000634,1,-0.176959, 0.228909, 9.802381,1,0
1778021832211,   825.322,   825.322, 0.025106,-0.032151,-0.988903, 0.000075,-0.000097,-0.002966, 0.069757,-0.085008, 0.104529,1, 0.009529,-0.005233, 0.000344,1,-0.176402, 0.230371, 9.802357,1,0
1778021832222,   825.331,   825.331, 0.025785,-0.029722,-1.006029, 0.000077,-0.000090,-0.003017, 0.076492,-0.061351,-0.063408,1,-0.010603, 0.002245, 0.000151,1,-0.176398, 0.230025, 9.802365,1,0
1778021832233,   825.340,   825.337, 0.025335,-0.020657,-1.005188, 0.000076,-0.000063,-0.003018, 0.078029,-0.007451,-0.137913,1,-0.027013, 0.003119,-0.001404,1,-0.176575, 0.228656, 9.802394,1,0
1778021832243,   825.349,   825.343, 0.023154,-0.013149,-0.989570, 0.000070,-0.000039,-0.002967, 0.067634, 0.055476, 0.049712,1,-0.034880, 0.004609,-0.000757,1,-0.176813, 0.226673, 9.802436,1,0
1778021832254,   825.358,   825.355, 0.025439,-0.010449,-1.005293, 0.000077,-0.000032,-0.003017, 0.063000, 0.119475,-0.037431,1,-0.026193, 0.006122,-0.000829,1,-0.177538, 0.222941, 9.802508,1,0
1778021832265,   825.367,   825.364, 0.023025,-0.009581,-0.981776, 0.000070,-0.000029,-0.002945, 0.049825, 0.132670, 0.103925,1,-0.003635, 0.000371,-0.000396,1,-0.177743, 0.221854, 9.802529,1,0
1778021832276,   825.376,   825.373, 0.022873,-0.017214,-0.992875, 0.000068,-0.000051,-0.002978, 0.044474, 0.091986, 0.137343,1, 0.020879,-0.003302, 0.000101,1,-0.177535, 0.222964, 9.802507,1,0
1778021832286,   825.382,   825.382, 0.021755,-0.020780,-0.999375, 0.000064,-0.000061,-0.002999, 0.036180, 0.021499, 0.001935,1, 0.031690,-0.007170,-0.000240,1,-0.177100, 0.225577, 9.802456,1,0
1778021832297,   825.391,   825.391, 0.019271,-0.026387,-0.988475, 0.000056,-0.000080,-0.002964, 0.012425,-0.030868, 0.108779,1, 0.023507,-0.005817,-0.000705,1,-0.176509, 0.228123, 9.802407,1,0
1778021832308,   825.400,   825.400, 0.018200,-0.032028,-1.006070, 0.000054,-0.000097,-0.003018, 0.002152,-0.084898,-0.063792,1, 0.004069, 0.000928,-0.001924,1,-0.176336, 0.229232, 9.802384,1,0
1778021832319,   825.409,   825.409, 0.016183,-0.024681,-0.997736, 0.000048,-0.000074,-0.002994,-0.017722,-0.013798, 0.017956,1,-0.018645, 0.001852,-0.000955,1,-0.176437, 0.228068, 9.802410,1,0
1778021832329,   825.418,   825.415, 0.015669,-0.020328,-0.994366, 0.000047,-0.000061,-0.002983,-0.004938, 0.015135, 0.084976,1,-0.028402, 0.005196,-0.000983,1,-0.176727, 0.226505, 9.802441,1,0
1778021832340,   825.427,   825.424, 0.018449,-0.013415,-0.999497, 0.000057,-0.000040,-0.002998, 0.020063, 0.085298,-0.033932,1,-0.025248, 0.005633,-0.000825,1,-0.177309, 0.224070, 9.802486,1,0
1778021832351,   825.436,   825.433, 0.018057,-0.010251,-0.987347, 0.000054,-0.000031,-0.002962,-0.007116, 0.102759, 0.089096,1,-0.006256, 0.000657,-0.000325,1,-0.177470, 0.222878, 9.802510,1,0
1778021832362,   825.523,   825.520, 0.016555,-0.017676,-0.992092, 0.000049,-0.000052,-0.002976,-0.008931, 0.060826, 0.050968,1, 0.012095,-0.002193,-0.000875,1,-0.177750, 0.224701, 9.802464,1,0
1778021832373,   825.532,   825.529, 0.017755,-0.018510,-0.993842, 0.000053,-0.000055,-0.002981,-0.014874, 0.051167, 0.084627,1, 0.010171,-0.002635,-0.001627,1,-0.177574, 0.225640, 9.802445,1,0
1778021832383,   825.541,   825.538, 0.017737,-0.020177,-0.997787, 0.000053,-0.000061,-0.002994,-0.000323, 0.032449, 0.001610,1, 0.004607,-0.002048,-0.001192,1,-0.177465, 0.226206, 9.802435,1,0
1778021832394,   825.550,   825.547, 0.016715,-0.019393,-0.993441, 0.000050,-0.000057,-0.002980,-0.008678, 0.027175, 0.055046,1,-0.002407,-0.000639,-0.001225,1,-0.177349, 0.226129, 9.802439,1,0
1778021832405,   825.556,   825.556, 0.016998,-0.019735,-0.996724, 0.000051,-0.000059,-0.002990,-0.010808, 0.032338, 0.027917,1,-0.003901, 0.001807,-0.001430,1,-0.177518, 0.225831, 9.802443,1,0
1778021832416,   825.565,   825.565, 0.016295,-0.018811,-0.996911, 0.000049,-0.000057,-0.002992,-0.017796, 0.041100, 0.026086,1,-0.002251, 0.000528,-0.001515,1,-0.177600, 0.225548, 9.802447,1,0
1778021832426,   825.574,   825.574, 0.016526,-0.017842,-0.994111, 0.000050,-0.000053,-0.002983,-0.015562, 0.050597, 0.053552,1, 0.002203, 0.000934,-0.000703,1,-0.177640, 0.225591, 9.802445,1,0
1778021832437,   825.583,   825.580, 0.017124,-0.017279,-0.997987, 0.000052,-0.000051,-0.002994,-0.012130, 0.056577, 0.020688,1, 0.003840,-0.000256,-0.001165,1,-0.177642, 0.225778, 9.802441,1,0
1778021832448,   825.592,   825.589, 0.016927,-0.017209,-0.992004, 0.000050,-0.000051,-0.002976,-0.018880, 0.058786, 0.051572,1, 0.008770,-0.000733,-0.000114,1,-0.177539, 0.226406, 9.802428,1,0
1778021832459,   825.601,   825.598, 0.016347,-0.019050,-0.993607, 0.000049,-0.000057,-0.002981,-0.011063, 0.047403, 0.064010,1, 0.009134,-0.000612,-0.001077,1,-0.177437, 0.227239, 9.802411,1,0
1778021832469,   825.610,   825.604, 0.016701,-0.019233,-0.994465, 0.000050,-0.000057,-0.002984,-0.012049, 0.041739, 0.037661,1, 0.008557,-0.001661,-0.000463,1,-0.177366, 0.227746, 9.802401,1,0
1778021832480,   825.619,   825.616, 0.015841,-0.019170,-0.994231, 0.000047,-0.000058,-0.002982,-0.014645, 0.036373, 0.059402,1, 0.004470,-0.001037,-0.000400,1,-0.177303, 0.228490, 9.802384,1,0
1778021832491,   825.625,   825.625, 0.016628,-0.019239,-0.998318, 0.000050,-0.000058,-0.002995,-0.014214, 0.039873, 0.012227,1,-0.001182, 0.000721,-0.001019,1,-0.177282, 0.228533, 9.802383,1,0
1778021832502,   825.634,   825.631, 0.017158,-0.019117,-0.997742, 0.000052,-0.000057,-0.002993,-0.006968, 0.038129, 0.012035,1,-0.001300, 0.001591,-0.000778,1,-0.177361, 0.228486, 9.802383,1,0
1778021832512,   825.643,   825.643, 0.016710,-0.017929,-0.995749, 0.000050,-0.000054,-0.002987,-0.013520, 0.052767, 0.037423,1, 0.002678, 0.000695,-0.000797,1,-0.177393, 0.228612, 9.802380,1,0
1778021832523,   825.652,   825.652, 0.018338,-0.018296,-0.996795, 0.000054,-0.000055,-0.002991, 0.002453, 0.049767, 0.027150,1, 0.009891,-0.000647,-0.000219,1,-0.177373, 0.229279, 9.802364,1,0
1778021832534,   825.661,   825.658, 0.017818,-0.019766,-0.992521, 0.000053,-0.000059,-0.002978,-0.002055, 0.043927, 0.052093,1, 0.011995, 0.000159,-0.000910,1,-0.177352, 0.229933, 9.802350,1,0
1778021832545,   825.670,   825.667, 0.018793,-0.020613,-0.995022, 0.000056,-0.000062,-0.002985,-0.003532, 0.035589, 0.044076,1, 0.013289,-0.000996, 0.000084,1,-0.177253, 0.231116, 9.802323,1,0
1778021832556,   825.679,   825.676, 0.018011,-0.020806,-0.993437, 0.000054,-0.000062,-0.002981, 0.002105, 0.029674, 0.048106,1, 0.009923,-0.001084, 0.000447,1,-0.177165, 0.232136, 9.802301,1,0
1778021832566,   825.688,   825.685, 0.017969,-0.020095,-0.994200, 0.000054,-0.000060,-0.002982,-0.006195, 0.034401, 0.065349,1, 0.005005,-0.000199,-0.000475,1,-0.177151, 0.232686, 9.802288,1,0
1778021832577,   825.697,   825.694, 0.019028,-0.019379,-0.997653, 0.000057,-0.000058,-0.002993, 0.011583, 0.044185, 0.021014,1, 0.002062,-0.000139, 0.000495,1,-0.177090, 0.232929, 9.802284,1,0
1778021832588,   825.703,   825.703, 0.019570,-0.018258,-0.995812, 0.000059,-0.000054,-0.002988, 0.014802, 0.054054, 0.036700,1, 0.002899, 0.000180, 0.000263,1,-0.177117, 0.233132, 9.802279,1,0
1778021832599,   825.712,   825.712, 0.019505,-0.018212,-0.996665, 0.000059,-0.000055,-0.002990, 0.014507, 0.053615, 0.028363,1, 0.008976,-0.001090, 0.001169,1,-0.176686, 0.231850, 9.802317,1,0
1778021832609,   825.721,   825.721, 0.020056,-0.018009,-0.996063, 0.000060,-0.000054,-0.002988, 0.020072, 0.056124, 0.034255,1, 0.012996,-0.000859, 0.000572,1,-0.176601, 0.232851, 9.802295,1,0
1778021832620,   825.730,   825.730, 0.019795,-0.019214,-0.993127, 0.000059,-0.000058,-0.002979, 0.017651, 0.045616, 0.063018,1, 0.015578,-0.000866, 0.000509,1,-0.176465, 0.234189, 9.802265,1,0
1778021832631,   825.739,   825.736, 0.020148,-0.020188,-0.996613, 0.000060,-0.000061,-0.002990, 0.022561, 0.037652, 0.036134,1, 0.014846,-0.001011, 0.000645,1,-0.176373, 0.235023, 9.802247,1,0
1778021832642,   825.748,   825.745, 0.020111,-0.020369,-0.993683, 0.000060,-0.000061,-0.002980, 0.018564, 0.039675, 0.047283,1, 0.010328,-0.000701, 0.000205,1,-0.176276, 0.236105, 9.802222,1,0
1778021832652,   825.757,   825.754, 0.020564,-0.021117,-0.994239, 0.000062,-0.000063,-0.002983, 0.027542, 0.037952, 0.056758,1, 0.010002,-0.000178, 0.000583,1,-0.176287, 0.236981, 9.802201,1,0
1778021832663,   825.766,   825.763, 0.020232,-0.019988,-0.995792, 0.000061,-0.000060,-0.002987, 0.025702, 0.034507, 0.039396,1, 0.010210,-0.001204, 0.000642,1,-0.176227, 0.237798, 9.802182,1,0
1778021832674,   825.772,   825.772, 0.020064,-0.019541,-0.994585, 0.000060,-0.000059,-0.002984, 0.020614, 0.047035, 0.048614,1, 0.012943,-0.000084, 0.000756,1,-0.176142, 0.238784, 9.802160,1,0
1778021832685,   825.823,   825.823, 0.019874,-0.020739,-0.995178, 0.000060,-0.000062,-0.002985, 0.019253, 0.042880, 0.042621,1, 0.015301,-0.001909, 0.000665,1,-0.175626, 0.246402, 9.801981,1,0
1778021832696,   825.832,   825.832, 0.018928,-0.020989,-0.994344, 0.000057,-0.000063,-0.002983, 0.010051, 0.041749, 0.050765,1, 0.015198,-0.001048, 0.000192,1,-0.175557, 0.247725, 9.801949,1,0
1778021832706,   825.841,   825.841, 0.018326,-0.021154,-0.994343, 0.000055,-0.000063,-0.002983, 0.004230, 0.041530, 0.050743,1, 0.016697,-0.001237, 0.001681,1,-0.175475, 0.249138, 9.801914,1,0
1778021832717,   825.850,   825.850, 0.017853,-0.022486,-0.997209, 0.000054,-0.000067,-0.002992,-0.000341, 0.029949, 0.022601,1, 0.017211,-0.001003, 0.001176,1,-0.175407, 0.250623, 9.801878,1,0
1778021832728,   825.859,   825.856, 0.017449,-0.022800,-0.994994, 0.000052,-0.000068,-0.002985,-0.000625, 0.026301, 0.038941,1, 0.015981,-0.000906, 0.000088,1,-0.175351, 0.251559, 9.801855,1,0
1778021832739,   825.868,   825.865, 0.016712,-0.023351,-0.995086, 0.000050,-0.000070,-0.002985,-0.008360, 0.030670, 0.053814,1, 0.017487,-0.000381, 0.001121,1,-0.175278, 0.253051, 9.801818,1,0
1778021832749,   825.877,   825.874, 0.016072,-0.022943,-0.995402, 0.000048,-0.000070,-0.002986,-0.008140, 0.028117, 0.034654,1, 0.016559,-0.000916, 0.001087,1,-0.175313, 0.254567, 9.801778,1,0
1778021832760,   825.886,   825.883, 0.016835,-0.023209,-0.994921, 0.000051,-0.000070,-0.002985,-0.008992, 0.030816, 0.043276,1, 0.015524,-0.000064, 0.001019,1,-0.175264, 0.256006, 9.801741,1,0
1778021832771,   825.895,   825.892, 0.016405,-0.023743,-0.995442, 0.000049,-0.000071,-0.002987,-0.015997, 0.025470, 0.040921,1, 0.014449,-0.000019, 0.000471,1,-0.175210, 0.257315, 9.801708,1,0
1778021832782,   825.901,   825.901, 0.016336,-0.023441,-0.995578, 0.000049,-0.000070,-0.002987,-0.015001, 0.028653, 0.038387,1, 0.015382,-0.001212, 0.001073,1,-0.175195, 0.258671, 9.801672,1,0
1778021832792,   825.910,   825.910, 0.015966,-0.022844,-0.994753, 0.000048,-0.000068,-0.002984,-0.018563, 0.035777, 0.046445,1, 0.014661,-0.000042, 0.000502,1,-0.175134, 0.259936, 9.801640,1,0
1778021832803,   825.919,   825.919, 0.016933,-0.023635,-0.995394, 0.000050,-0.000071,-0.002986,-0.009542, 0.027820, 0.040158,1, 0.016469, 0.000341,-0.000019,1,-0.175599, 0.259749, 9.801637,1,0
1778021832814,   825.928,   825.928, 0.016941,-0.024275,-0.995084, 0.000051,-0.000073,-0.002985,-0.009402, 0.023028, 0.043158,1, 0.016797,-0.000967,-0.000161,1,-0.175526, 0.261241, 9.801599,1,0
1778021832825,   825.937,   825.934, 0.017118,-0.025522,-0.995837, 0.000052,-0.000077,-0.002988,-0.014321, 0.014931, 0.039989,1, 0.016639,-0.001013, 0.000843,1,-0.175457, 0.262219, 9.801574,1,0
1778021832835,   825.946,   825.943, 0.016901,-0.026190,-0.995726, 0.000051,-0.000078,-0.002987,-0.002443, 0.007103, 0.043463,1, 0.015476,-0.001992, 0.000112,1,-0.175293, 0.263640, 9.801538,1,0
1778021832846,   825.955,   825.952, 0.017332,-0.025733,-0.995356, 0.000052,-0.000078,-0.002986,-0.009157, 0.014121, 0.047064,1, 0.013921,-0.000353, 0.000615,1,-0.175287, 0.264887, 9.801505,1,0
1778021832857,   825.964,   825.958, 0.017767,-0.025519,-0.995973, 0.000054,-0.000076,-0.002988,-0.001225, 0.015713, 0.042832,1, 0.011363,-0.000675, 0.001371,1,-0.175237, 0.265590, 9.801487,1,0
1778021832868,   825.970,   825.970, 0.018116,-0.024922,-0.994704, 0.000055,-0.000075,-0.002984, 0.002467, 0.022333, 0.046745,1, 0.009767, 0.000317, 0.000357,1,-0.175193, 0.266828, 9.801454,1,0
1778021832878,   825.979,   825.979, 0.018326,-0.023956,-0.995555, 0.000055,-0.000072,-0.002986, 0.004473, 0.032753, 0.038367,1, 0.011935, 0.000395, 0.000750,1,-0.175246, 0.267789, 9.801427,1,0
1778021832889,   825.988,   825.988, 0.017967,-0.025327,-0.995218, 0.000054,-0.000076,-0.002986, 0.000975, 0.020394, 0.041640,1, 0.012337,-0.000606, 0.001684,1,-0.175211, 0.268885, 9.801397,1,0
1778021832900,   825.997,   825.997, 0.017516,-0.024886,-0.994588, 0.000052,-0.000075,-0.002983,-0.003317, 0.025841, 0.047798,1, 0.013507,-0.001793, 0.001241,1,-0.175075, 0.270015, 9.801369,1,0
1778021832911,   826.006,   826.003, 0.018323,-0.025382,-0.995803, 0.000055,-0.000076,-0.002988,-0.006007, 0.019918, 0.035871,1, 0.011846,-0.001380, 0.000947,1,-0.175024, 0.270749, 9.801350,1,0
1778021832922,   826.015,   826.012, 0.018337,-0.027142,-0.995420, 0.000055,-0.000082,-0.002986, 0.005577, 0.006731, 0.036159,1, 0.010335,-0.000816, 0.000287,1,-0.174907, 0.271647, 9.801327,1,0
1778021832932,   826.024,   826.021, 0.018164,-0.026698,-0.995834, 0.000055,-0.000080,-0.002987, 0.003630, 0.012353, 0.034985,1, 0.009826,-0.000579, 0.000675,1,-0.174815, 0.272466, 9.801306,1,0
1778021832943,   826.033,   826.030, 0.018964,-0.026613,-0.995395, 0.000057,-0.000080,-0.002987, 0.003067, 0.009218, 0.040587,1, 0.007724,-0.000163, 0.000678,1,-0.174772, 0.273188, 9.801286,1,0
1778021832954,   826.042,   826.039, 0.017990,-0.027373,-0.994700, 0.000054,-0.000082,-0.002984, 0.010600, 0.014823, 0.042485,1, 0.007460, 0.000743, 0.000673,1,-0.174770, 0.273773, 9.801270,1,0
1778021832965,   826.048,   826.048, 0.017954,-0.026010,-0.995557, 0.000054,-0.000078,-0.002986, 0.001309, 0.019310, 0.038175,1, 0.008571,-0.000969, 0.001111,1,-0.174750, 0.274466, 9.801250,1,0
1778021832975,   826.057,   826.057, 0.017785,-0.026102,-0.994976, 0.000053,-0.000079,-0.002985,-0.000330, 0.019101, 0.043848,1, 0.007694, 0.000236, 0.000808,1,-0.174740, 0.275143, 9.801232,1,0
1778021832986,   826.144,   826.144, 0.020838,-0.024075,-0.997462, 0.000062,-0.000072,-0.002992, 0.029732, 0.039657, 0.019451,1,-0.005785, 0.000685,-0.000233,1,-0.174626, 0.275700, 9.801218,1,0
1778021832997,   826.153,   826.153, 0.020304,-0.024755,-0.995192, 0.000061,-0.000075,-0.002987, 0.024446, 0.032539, 0.041728,1,-0.006004, 0.001439,-0.000647,1,-0.174681, 0.275249, 9.801230,1,0
1778021833008,   826.162,   826.162, 0.019236,-0.025044,-0.993950, 0.000057,-0.000075,-0.002982, 0.013949, 0.029342, 0.053915,1,-0.003996,-0.000428, 0.000657,1,-0.174692, 0.274899, 9.801240,1,0
1778021833018,   826.171,   826.171, 0.019593,-0.025080,-0.994441, 0.000059,-0.000076,-0.002982, 0.017475, 0.028636, 0.049114,1,-0.003981,-0.000875,-0.000334,1,-0.174662, 0.274549, 9.801250,1,0
1778021833029,   826.180,   826.177, 0.019683,-0.026135,-0.996631, 0.000059,-0.000079,-0.002990, 0.024631, 0.032150, 0.038792,1,-0.003755,-0.000378, 0.000141,1,-0.174654, 0.274300, 9.801257,1,0
1778021833040,   826.189,   826.186, 0.019270,-0.025560,-0.997039, 0.000058,-0.000076,-0.002991, 0.018102, 0.029780, 0.022738,1,-0.003398, 0.000353, 0.000432,1,-0.174680, 0.273934, 9.801267,1,0
1778021833051,   826.198,   826.195, 0.020071,-0.024374,-0.994106, 0.000060,-0.000072,-0.002982, 0.016217, 0.027456, 0.045044,1,-0.004557,-0.000010, 0.000977,1,-0.174759, 0.273544, 9.801276,1,0
1778021833061,   826.207,   826.204, 0.020056,-0.024155,-0.995439, 0.000060,-0.000072,-0.002987, 0.019581, 0.034589, 0.044473,1,-0.003494, 0.000045,-0.000029,1,-0.174787, 0.273176, 9.801286,1,0
1778021833072,   826.213,   826.213, 0.019518,-0.023696,-0.995976, 0.000058,-0.000072,-0.002988, 0.016626, 0.040483, 0.034106,1,-0.003470, 0.000053,-0.000484,1,-0.174784, 0.272828, 9.801296,1,0
1778021833083,   826.222,   826.222, 0.019739,-0.023078,-0.996041, 0.000060,-0.000070,-0.002987, 0.018824, 0.046321, 0.033472,1,-0.002298,-0.000655,-0.000452,1,-0.174744, 0.272614, 9.801303,1,0
1778021833094,   826.231,   826.231, 0.019997,-0.023174,-0.996262, 0.000060,-0.000070,-0.002990, 0.021361, 0.045237, 0.031316,1,-0.001654, 0.000180,-0.000512,1,-0.174741, 0.272480, 9.801307,1,0
1778021833105,   826.240,   826.240, 0.018972,-0.023890,-0.994140, 0.000057,-0.000072,-0.002982, 0.011320, 0.038120, 0.052122,1,-0.000240,-0.000369,-0.000458,1,-0.174728, 0.272398, 9.801309,1,0
1778021833115,   826.249,   826.246, 0.018961,-0.024681,-0.995586, 0.000057,-0.000074,-0.002986, 0.010526, 0.034955, 0.050988,1, 0.000712,-0.000354,-0.000834,1,-0.174721, 0.272446, 9.801308,1,0
1778021833127,   826.258,   826.255, 0.019218,-0.024694,-0.997363, 0.000058,-0.000074,-0.002992, 0.014632, 0.034212, 0.029780,1, 0.000110,-0.000188,-0.000871,1,-0.174678, 0.272462, 9.801308,1,0
1778021833137,   826.267,   826.264, 0.019747,-0.024848,-0.996039, 0.000059,-0.000075,-0.002988, 0.020563, 0.034138, 0.033791,1,-0.000790,-0.001117,-0.000656,1,-0.174623, 0.272448, 9.801310,1,0
1778021833148,   826.276,   826.273, 0.019201,-0.023864,-0.995325, 0.000058,-0.000072,-0.002986, 0.015731, 0.037813, 0.037672,1,-0.000074,-0.000326,-0.001228,1,-0.174617, 0.272428, 9.801310,1,0
1778021833158,   826.285,   826.282, 0.018300,-0.023171,-0.994430, 0.000055,-0.000069,-0.002983, 0.007804, 0.039662, 0.058144,1,-0.001149,-0.000481,-0.001069,1,-0.174572, 0.272369, 9.801312,1,0
1778021833169,   826.291,   826.291, 0.019465,-0.022872,-0.996394, 0.000058,-0.000068,-0.002989, 0.016387, 0.048178, 0.030020,1, 0.002396,-0.000625,-0.000916,1,-0.174489, 0.272502, 9.801311,1,0
1778021833180,   826.300,   826.300, 0.018501,-0.023870,-0.995062, 0.000056,-0.000072,-0.002985, 0.006953, 0.038680, 0.043082,1, 0.003913,-0.000088,-0.001080,1,-0.174481, 0.272805, 9.801302,1,0
1778021833191,   826.309,   826.309, 0.018448,-0.024953,-0.993635, 0.000056,-0.000075,-0.002981, 0.006484, 0.028467, 0.057062,1, 0.004345,-0.001191,-0.000654,1,-0.174419, 0.273214, 9.801291,1,0
1778021833201,   826.318,   826.318, 0.017657,-0.024877,-0.994272, 0.000053,-0.000075,-0.002983,-0.001821, 0.028504, 0.050827,1, 0.004841,-0.000613,-0.001329,1,-0.174974, 0.272506, 9.801301,1,0
1778021833212,   826.327,   826.324, 0.017661,-0.025870,-0.995499, 0.000053,-0.000078,-0.002986,-0.006534, 0.021447, 0.043910,1, 0.003270,-0.000481,-0.001322,1,-0.174939, 0.272707, 9.801296,1,0
1778021833223,   826.336,   826.333, 0.017178,-0.025881,-0.997211, 0.000051,-0.000078,-0.002991,-0.008389, 0.024140, 0.023244,1, 0.002397,-0.000004,-0.000966,1,-0.174891, 0.272991, 9.801290,1,0
1778021833234,   826.345,   826.342, 0.017014,-0.025519,-0.996388, 0.000051,-0.000076,-0.002989,-0.011769, 0.020508, 0.025189,1, 0.000166,-0.000009,-0.001360,1,-0.174897, 0.273059, 9.801288,1,0
1778021833244,   826.354,   826.351, 0.016316,-0.024348,-0.993909, 0.000049,-0.000073,-0.002980,-0.012063, 0.038087, 0.042699,1, 0.000924,-0.001708, 0.000122,1,-0.174852, 0.273111, 9.801287,1,0
1778021833255,   826.363,   826.360, 0.015414,-0.021208,-0.996090, 0.000047,-0.000063,-0.002989,-0.000701, 0.050031, 0.015011,1, 0.000934, 0.001203,-0.001088,1,-0.174907, 0.273218, 9.801283,1,0
1778021833266,   826.369,   826.369, 0.017515,-0.025301,-0.997226, 0.000052,-0.000076,-0.002991,-0.003089, 0.025404, 0.021831,1, 0.003657, 0.000544,-0.000173,1,-0.174856, 0.273556, 9.801274,1,0
1778021833277,   826.378,   826.378, 0.016301,-0.024100,-0.994750, 0.000049,-0.000072,-0.002985,-0.014934, 0.037574, 0.046095,1, 0.005320, 0.000387,-0.000690,1,-0.174798, 0.273962, 9.801264,1,0
1778021833288,   826.387,   826.387, 0.016072,-0.025237,-0.993939, 0.000047,-0.000075,-0.002981,-0.017129, 0.026934, 0.054040,1, 0.004936,-0.000353,-0.001045,1,-0.174740, 0.274469, 9.801250,1,0
1778021833298,   826.396,   826.393, 0.016242,-0.025727,-0.994430, 0.000049,-0.000077,-0.002982,-0.002584, 0.046291, 0.061971,1, 0.004859, 0.000135,-0.000447,1,-0.174752, 0.274755, 9.801243,1,0
1778021833309,   826.450,   826.447, 0.016870,-0.025443,-0.995991, 0.000051,-0.000077,-0.002988,-0.010407, 0.031895, 0.030521,1, 0.004034,-0.000882,-0.000336,1,-0.174628, 0.276783, 9.801188,1,0
1778021833320,   826.459,   826.456, 0.016804,-0.025984,-0.994131, 0.000051,-0.000078,-0.002982,-0.002633, 0.023386, 0.046449,1, 0.002450,-0.000958,-0.000171,1,-0.174603, 0.277042, 9.801181,1,0
1778021833331,   826.468,   826.465, 0.017206,-0.025733,-0.994596, 0.000052,-0.000077,-0.002984, 0.000361, 0.018246, 0.048901,1, 0.001929,-0.000502,-0.000094,1,-0.174572, 0.277207, 9.801177,1,0
1778021833341,   826.477,   826.474, 0.017787,-0.026222,-0.996914, 0.000053,-0.000079,-0.002991,-0.005181, 0.019469, 0.035411,1, 0.001069,-0.000574, 0.000201,1,-0.174524, 0.277325, 9.801174,1,0
1778021833352,   826.486,   826.483, 0.017541,-0.025849,-0.996068, 0.000053,-0.000078,-0.002988,-0.006377, 0.029599, 0.027976,1,-0.000779, 0.000712, 0.000641,1,-0.174547, 0.277276, 9.801175,1,0
1778021833363,   826.492,   826.492, 0.017650,-0.026472,-0.995725, 0.000053,-0.000080,-0.002987,-0.001528, 0.017680, 0.036446,1,-0.000367, 0.000477,-0.000195,1,-0.174624, 0.277276, 9.801174,1,0
1778021833374,   826.501,   826.501, 0.018529,-0.025790,-0.995458, 0.000055,-0.000078,-0.002986, 0.007082, 0.024371, 0.039060,1,-0.000450,-0.000064,-0.000641,1,-0.174627, 0.277279, 9.801174,1,0
1778021833384,   826.510,   826.510, 0.017636,-0.025020,-0.994687, 0.000053,-0.000075,-0.002984,-0.001648, 0.031975, 0.046621,1, 0.001365,-0.000610,-0.000960,1,-0.174594, 0.277349, 9.801172,1,0
1778021833395,   826.519,   826.519, 0.017948,-0.024574,-0.996141, 0.000054,-0.000074,-0.002988, 0.001621, 0.035338, 0.032401,1, 0.001817, 0.000346, 0.000500,1,-0.174394, 0.276343, 9.801205,1,0
1778021833406,   826.528,   826.522, 0.018102,-0.024363,-0.994039, 0.000055,-0.000073,-0.002982, 0.006423, 0.028314, 0.035136,1, 0.002112, 0.000993, 0.000341,1,-0.174422, 0.276404, 9.801202,1,0
1778021833417,   826.537,   826.534, 0.018764,-0.025611,-0.994794, 0.000056,-0.000077,-0.002984, 0.008266, 0.038522, 0.049982,1, 0.001452, 0.000694, 0.000848,1,-0.174422, 0.276478, 9.801200,1,0
1778021833427,   826.546,   826.543, 0.018731,-0.025118,-0.995444, 0.000056,-0.000075,-0.002987, 0.011627, 0.033057, 0.039160,1, 0.000851,-0.000243, 0.000451,1,-0.174396, 0.276613, 9.801197,1,0
1778021833438,   826.555,   826.552, 0.019245,-0.024960,-0.996125, 0.000058,-0.000075,-0.002988, 0.004500, 0.029142, 0.035577,1, 0.000245, 0.000234, 0.000044,1,-0.174341, 0.276639, 9.801197,1,0
1778021833449,   826.564,   826.561, 0.018530,-0.025154,-0.995528, 0.000056,-0.000076,-0.002987, 0.007339, 0.030865, 0.028828,1, 0.000564, 0.000154, 0.000318,1,-0.174346, 0.276670, 9.801196,1,0
1778021833460,   826.570,   826.570, 0.017828,-0.025647,-0.995690, 0.000054,-0.000077,-0.002987, 0.000565, 0.025274, 0.036806,1, 0.002019,-0.001279, 0.000408,1,-0.174255, 0.276807, 9.801193,1,0
1778021833471,   826.579,   826.579, 0.018149,-0.025099,-0.994825, 0.000054,-0.000075,-0.002984, 0.003700, 0.030813, 0.045285,1, 0.002520, 0.000102, 0.000746,1,-0.174286, 0.276973, 9.801188,1,0
1778021833481,   826.588,   826.588, 0.018706,-0.025194,-0.995096, 0.000056,-0.000076,-0.002985, 0.009190, 0.030123, 0.042620,1, 0.003128,-0.000571,-0.000235,1,-0.174249, 0.277223, 9.801182,1,0
1778021833492,   826.597,   826.594, 0.018566,-0.025410,-0.995108, 0.000056,-0.000076,-0.002985, 0.007786, 0.029643, 0.038048,1, 0.001997,-0.000773, 0.000342,1,-0.174213, 0.277353, 9.801179,1,0
1778021833503,   826.606,   826.603, 0.019295,-0.026069,-0.994958, 0.000058,-0.000078,-0.002984, 0.006689, 0.035002, 0.046133,1, 0.001965,-0.000456, 0.000971,1,-0.174176, 0.277510, 9.801175,1,0
1778021833514,   826.615,   826.612, 0.019162,-0.025543,-0.994722, 0.000057,-0.000077,-0.002984, 0.016007, 0.028883, 0.038308,1, 0.002277, 0.000578,-0.000251,1,-0.174183, 0.277683, 9.801170,1,0
1778021833524,   826.624,   826.621, 0.019585,-0.025584,-0.995256, 0.000059,-0.000077,-0.002985, 0.011699, 0.032654, 0.047422,1, 0.001938,-0.000182,-0.000166,1,-0.174164, 0.277818, 9.801167,1,0
1778021833535,   826.633,   826.630, 0.019457,-0.024683,-0.995342, 0.000058,-0.000074,-0.002986, 0.013466, 0.024554, 0.036488,1, 0.003210, 0.000202,-0.000089,1,-0.174171, 0.278057, 9.801160,1,0
1778021833546,   826.639,   826.639, 0.019036,-0.025103,-0.994514, 0.000058,-0.000075,-0.002983, 0.012431, 0.032063, 0.048303,1, 0.002307,-0.000123, 0.000375,1,-0.174245, 0.278262, 9.801152,1,0
1778021833557,   826.648,   826.648, 0.018135,-0.025434,-0.995917, 0.000054,-0.000077,-0.002988, 0.003702, 0.029110, 0.034533,1, 0.003181,-0.000887, 0.000858,1,-0.174131, 0.278560, 9.801147,1,0
1778021833567,   826.657,   826.657, 0.018455,-0.024772,-0.995932, 0.000056,-0.000074,-0.002988, 0.006849, 0.035845, 0.034385,1, 0.001917,-0.000126, 0.001697,1,-0.174133, 0.278796, 9.801140,1,0
1778021833578,   826.666,   826.666, 0.018184,-0.025836,-0.994321, 0.000055,-0.000078,-0.002983, 0.004228, 0.025552, 0.050175,1, 0.002067,-0.000470, 0.000977,1,-0.174093, 0.278941, 9.801136,1,0
1778021833589,   826.675,   826.672, 0.017268,-0.025353,-0.993657, 0.000052,-0.000076,-0.002981, 0.001395, 0.030449, 0.059955,1, 0.002528, 0.000338, 0.001142,1,-0.174067, 0.279075, 9.801133,1,0
1778021833600,   826.684,   826.681, 0.017840,-0.025958,-0.995302, 0.000053,-0.000078,-0.002986,-0.002199, 0.026469, 0.045993,1, 0.001476,-0.000418, 0.000092,1,-0.174079, 0.279244, 9.801127,1,0
1778021833611,   826.771,   826.768, 0.017374,-0.025472,-0.996043, 0.000052,-0.000077,-0.002988,-0.000623, 0.027641, 0.042518,1, 0.001984,-0.000549, 0.000322,1,-0.174136, 0.279057, 9.801132,1,0
1778021833621,   826.780,   826.777, 0.016741,-0.025722,-0.995847, 0.000050,-0.000077,-0.002988,-0.000424, 0.023252, 0.031041,1, 0.000921,-0.000638,-0.000300,1,-0.174075, 0.279158, 9.801130,1,0
1778021833632,   826.789,   826.786, 0.015915,-0.025701,-0.994882, 0.000048,-0.000077,-0.002985,-0.005419, 0.025600, 0.035620,1, 0.001763,-0.000833,-0.000021,1,-0.174060, 0.279261, 9.801127,1,0
1778021833643,   826.798,   826.795, 0.016506,-0.026160,-0.996266, 0.000049,-0.000079,-0.002989,-0.011533, 0.024867, 0.038746,1, 0.001722, 0.000160,-0.000133,1,-0.174018, 0.279384, 9.801125,1,0
1778021833654,   826.807,   826.804, 0.016714,-0.026566,-0.996637, 0.000050,-0.000079,-0.002990,-0.015966, 0.026285, 0.025369,1, 0.000910, 0.000562, 0.000634,1,-0.174048, 0.279488, 9.801122,1,0
1778021833664,   826.813,   826.813, 0.016125,-0.025676,-0.996239, 0.000048,-0.000077,-0.002988,-0.015952, 0.027826, 0.031351,1, 0.001718, 0.000875,-0.000240,1,-0.174089, 0.279635, 9.801116,1,0
1778021833675,   826.822,   826.822, 0.017043,-0.026282,-0.993996, 0.000051,-0.000079,-0.002982,-0.006984, 0.022059, 0.053338,1, 0.001570,-0.000252, 0.000139,1,-0.174112, 0.279816, 9.801111,1,0
1778021833686,   826.831,   826.831, 0.017007,-0.026065,-0.994142, 0.000051,-0.000078,-0.002982,-0.007355, 0.024356, 0.051898,1, 0.002334, 0.000210,-0.000679,1,-0.174144, 0.279991, 9.801105,1,0
1778021833697,   826.840,   826.837, 0.016596,-0.025645,-0.996135, 0.000050,-0.000077,-0.002988,-0.013964, 0.031175, 0.043863,1, 0.002195, 0.000297,-0.000445,1,-0.174165, 0.280094, 9.801102,1,0
1778021833707,   826.849,   826.846, 0.016937,-0.025934,-0.995992, 0.000051,-0.000078,-0.002988,-0.000375, 0.025256, 0.033244,1, 0.002196,-0.000904,-0.000779,1,-0.174161, 0.280123, 9.801101,1,0
1778021833718,   826.858,   826.855, 0.017311,-0.025589,-0.996111, 0.000052,-0.000077,-0.002988,-0.010046, 0.028925, 0.035324,1, 0.000026, 0.000247,-0.001261,1,-0.174215, 0.280198, 9.801098,1,0
1778021833729,   826.867,   826.864, 0.018092,-0.026082,-0.995183, 0.000054,-0.000079,-0.002986, 0.001052, 0.021505, 0.034171,1, 0.001196, 0.000316,-0.001122,1,-0.174215, 0.280265, 9.801096,1,0
1778021833740,   826.876,   826.873, 0.017979,-0.026010,-0.995330, 0.000054,-0.000078,-0.002986, 0.000829, 0.020742, 0.041153,1, 0.001331, 0.000784,-0.000289,1,-0.174275, 0.280347, 9.801093,1,0
1778021833750,   826.882,   826.882, 0.018499,-0.026069,-0.996368, 0.000056,-0.000077,-0.002990, 0.007122, 0.024825, 0.030060,1, 0.001219,-0.000534,-0.001138,1,-0.174283, 0.280489, 9.801088,1,0
1778021833761,   826.891,   826.891, 0.017815,-0.026000,-0.995387, 0.000054,-0.000078,-0.002986, 0.000433, 0.025543, 0.039671,1,-0.000599, 0.000464,-0.001431,1,-0.174281, 0.280512, 9.801088,1,0
1778021833772,   826.900,   826.900, 0.018761,-0.025482,-0.993841, 0.000056,-0.000076,-0.002981, 0.009709, 0.030707, 0.054831,1, 0.000717,-0.000114, 0.000627,1,-0.174272, 0.280605, 9.801085,1,0
1778021833783,   826.909,   826.909, 0.018636,-0.025074,-0.994023, 0.000056,-0.000076,-0.002982, 0.008521, 0.034670, 0.053052,1,-0.001047, 0.000577,-0.000122,1,-0.174246, 0.280551, 9.801087,1,0
1778021833793,   826.918,   826.915, 0.018960,-0.025401,-0.995501, 0.000057,-0.000076,-0.002986, 0.012468, 0.033537, 0.039854,1,-0.000013, 0.000311,-0.000195,1,-0.174073, 0.279510, 9.801120,1,0
1778021833804,   826.927,   826.924, 0.019137,-0.025599,-0.996270, 0.000057,-0.000077,-0.002989, 0.010031, 0.030929, 0.035239,1,-0.001711, 0.000514, 0.000091,1,-0.174084, 0.279366, 9.801125,1,0
1778021833815,   826.936,   826.933, 0.019222,-0.026389,-0.996015, 0.000058,-0.000079,-0.002988, 0.015547, 0.022298, 0.028774,1,-0.001821,-0.000678, 0.000569,1,-0.174062, 0.279225, 9.801128,1,0
1778021833826,   826.945,   826.942, 0.019415,-0.026131,-0.996025, 0.000058,-0.000078,-0.002988, 0.019917, 0.029624, 0.050312,1,-0.000561,-0.000266,-0.000103,1,-0.174072, 0.279212, 9.801128,1,0
1778021833837,   826.954,   826.951, 0.020254,-0.026147,-0.994982, 0.000060,-0.000079,-0.002985, 0.024685, 0.025563, 0.037951,1, 0.001594, 0.000239,-0.000281,1,-0.174057, 0.279296, 9.801126,1,0
1778021833847,   826.960,   826.960, 0.020176,-0.025573,-0.995165, 0.000060,-0.000077,-0.002986, 0.023835, 0.028585, 0.041887,1, 0.001644, 0.001004, 0.000561,1,-0.174037, 0.279389, 9.801125,1,0
1778021833858,   826.969,   826.969, 0.020421,-0.024689,-0.994039, 0.000061,-0.000074,-0.002982, 0.026261, 0.037292, 0.052933,1, 0.000225, 0.000664, 0.000181,1,-0.174003, 0.279410, 9.801125,1,0
1778021833869,   826.978,   826.978, 0.019903,-0.023704,-0.994495, 0.000060,-0.000071,-0.002984, 0.021217, 0.046909, 0.048460,1, 0.000005, 0.000562,-0.000128,1,-0.173970, 0.279367, 9.801126,1,0
1778021833880,   826.987,   826.987, 0.020685,-0.025217,-0.994626, 0.000062,-0.000075,-0.002984, 0.028877, 0.032049, 0.047176,1, 0.000383, 0.000534,-0.000179,1,-0.173982, 0.279344, 9.801126,1,0
1778021833890,   826.996,   826.993, 0.019824,-0.024859,-0.995476, 0.000059,-0.000075,-0.002986, 0.020942, 0.034584, 0.038490,1,-0.000442,-0.000237, 0.000741,1,-0.173973, 0.279355, 9.801126,1,0
1778021833901,   827.005,   827.002, 0.019957,-0.024328,-0.995365, 0.000059,-0.000073,-0.002986, 0.016819, 0.036598, 0.036242,1, 0.001425,-0.000449, 0.000442,1,-0.173903, 0.279421, 9.801126,1,0
1778021833912,   827.014,   827.011, 0.020118,-0.024475,-0.995662, 0.000061,-0.000074,-0.002987, 0.017203, 0.039352, 0.039185,1, 0.001090,-0.000189, 0.001065,1,-0.173886, 0.279512, 9.801124,1,0
1778021833923,   827.065,   827.017, 0.018986,-0.024943,-0.993585, 0.000057,-0.000075,-0.002980, 0.016641, 0.037616, 0.043382,1, 0.001880, 0.000198, 0.001085,1,-0.173886, 0.279619, 9.801121,1,0
1778021833933,   827.074,   827.071, 0.018548,-0.024462,-0.995651, 0.000055,-0.000074,-0.002987, 0.000633, 0.040413, 0.047328,1, 0.006444,-0.000180, 0.000595,1,-0.173612, 0.281778, 9.801064,1,0
1778021833944,   827.080,   827.080, 0.017558,-0.024878,-0.996998, 0.000052,-0.000074,-0.002991,-0.001405, 0.038325, 0.023836,1, 0.006749,-0.000316, 0.001593,1,-0.173583, 0.282360, 9.801047,1,0
1778021833955,   827.089,   827.089, 0.017967,-0.025077,-0.995618, 0.000054,-0.000075,-0.002987, 0.002678, 0.037093, 0.037352,1, 0.008422,-0.000481, 0.001123,1,-0.173510, 0.283089, 9.801027,1,0
1778021833966,   827.098,   827.098, 0.018222,-0.025477,-0.995356, 0.000055,-0.000076,-0.002986, 0.005228, 0.033871, 0.039902,1, 0.008299,-0.000525, 0.000952,1,-0.173465, 0.283789, 9.801008,1,0
1778021833976,   827.107,   827.107, 0.018279,-0.026642,-0.994100, 0.000055,-0.000080,-0.002982, 0.005841, 0.023223, 0.052198,1, 0.009765,-0.001164, 0.000446,1,-0.173407, 0.284585, 9.800986,1,0
1778021833987,   827.116,   827.113, 0.017207,-0.026624,-0.995062, 0.000052,-0.000080,-0.002985,-0.004485, 0.023336, 0.053709,1, 0.008709,-0.001125, 0.000933,1,-0.173977, 0.283667, 9.801003,1,0
1778021833998,   827.125,   827.122, 0.017249,-0.027145,-0.995441, 0.000051,-0.000082,-0.002986,-0.004535, 0.018695, 0.036099,1, 0.010009,-0.001015, 0.000310,1,-0.173888, 0.284468, 9.800981,1,0
1778021834009,   827.134,   827.131, 0.017021,-0.026807,-0.995885, 0.000051,-0.000081,-0.002987,-0.004620, 0.012626, 0.045164,1, 0.008646,-0.000273, 0.000463,1,-0.173909, 0.285258, 9.800958,1,0
1778021834020,   827.143,   827.140, 0.017122,-0.026869,-0.995121, 0.000052,-0.000081,-0.002985,-0.009142, 0.019916, 0.042824,1, 0.008623,-0.000083, 0.000384,1,-0.173854, 0.285992, 9.800937,1,0
1778021834030,   827.152,   827.149, 0.016645,-0.027287,-0.995186, 0.000050,-0.000082,-0.002985,-0.002816, 0.019543, 0.045696,1, 0.007827, 0.000229, 0.000158,1,-0.173867, 0.286735, 9.800915,1,0
1778021834041,   827.158,   827.158, 0.016557,-0.027117,-0.995965, 0.000050,-0.000081,-0.002988,-0.011454, 0.021431, 0.033814,1, 0.007892, 0.000480,-0.000338,1,-0.173829, 0.287434, 9.800896,1,0
1778021834052,   827.167,   827.167, 0.016233,-0.027126,-0.996496, 0.000048,-0.000081,-0.002989,-0.014605, 0.022034, 0.028586,1, 0.006901,-0.000161, 0.001140,1,-0.173799, 0.288117, 9.800876,1,0
1778021834063,   827.176,   827.176, 0.016635,-0.027244,-0.994853, 0.000051,-0.000082,-0.002985,-0.010636, 0.021509, 0.044688,1, 0.006750,-0.000596, 0.000052,1,-0.173765, 0.288741, 9.800858,1,0
1778021834073,   827.185,   827.185, 0.016033,-0.027492,-0.995221, 0.000048,-0.000082,-0.002986,-0.016448, 0.019607, 0.041063,1, 0.005702,-0.001554, 0.000051,1,-0.173661, 0.289269, 9.800844,1,0
1778021834084,   827.194,   827.191, 0.016431,-0.028382,-0.995313, 0.000050,-0.000085,-0.002986,-0.012323, 0.014666, 0.036199,1, 0.006565,-0.000960, 0.000276,1,-0.173591, 0.289656, 9.800834,1,0
1778021834095,   827.203,   827.200, 0.015827,-0.027563,-0.995174, 0.000047,-0.000082,-0.002986,-0.011564, 0.020819, 0.040991,1, 0.004808,-0.000271, 0.000564,1,-0.173533, 0.290192, 9.800819,1,0
1778021834106,   827.212,   827.209, 0.016794,-0.028075,-0.995082, 0.000050,-0.000085,-0.002985,-0.010179, 0.011838, 0.035849,1, 0.004841,-0.000920, 0.000586,1,-0.173455, 0.290662, 9.800807,1,0
1778021834116,   827.221,   827.218, 0.016190,-0.028262,-0.995058, 0.000048,-0.000085,-0.002985,-0.011131, 0.016310, 0.037720,1, 0.002793,-0.001130, 0.000507,1,-0.173389, 0.291011, 9.800797,1,0
1778021834127,   827.230,   827.227, 0.016754,-0.028188,-0.995739, 0.000050,-0.000085,-0.002988,-0.008501, 0.014870, 0.034945,1, 0.003093, 0.000967,-0.000323,1,-0.173440, 0.291261, 9.800789,1,0
1778021834138,   827.236,   827.236, 0.016545,-0.027825,-0.995489, 0.000049,-0.000083,-0.002986,-0.011216, 0.018606, 0.038369,1, 0.001781,-0.000255, 0.000846,1,-0.173462, 0.291495, 9.800782,1,0
1778021834149,   827.245,   827.245, 0.016992,-0.028288,-0.995092, 0.000051,-0.000085,-0.002985,-0.006783, 0.014311, 0.042257,1, 0.002448,-0.000900, 0.000367,1,-0.173408, 0.291741, 9.800776,1,0
1778021834160,   827.254,   827.254, 0.017575,-0.028550,-0.995447, 0.000053,-0.000086,-0.002987,-0.001024, 0.011933, 0.038772,1, 0.001343, 0.000355, 0.000258,1,-0.173382, 0.291923, 9.800771,1,0
1778021834170,   827.263,   827.260, 0.017601,-0.028394,-0.994793, 0.000052,-0.000085,-0.002984,-0.009497, 0.019330, 0.040873,1, 0.002236,-0.000202, 0.000803,1,-0.173391, 0.292040, 9.800767,1,0
1778021834181,   827.272,   827.269, 0.017462,-0.027962,-0.996034, 0.000052,-0.000084,-0.002988,-0.003079, 0.015133, 0.037593,1, 0.000681,-0.000049, 0.001428,1,-0.173376, 0.292155, 9.800764,1,0
1778021834192,   827.281,   827.278, 0.018565,-0.027849,-0.996895, 0.000055,-0.000084,-0.002991, 0.010533, 0.022116, 0.028060,1, 0.001517, 0.001638, 0.000720,1,-0.173465, 0.292184, 9.800761,1,0
1778021834203,   827.290,   827.287, 0.019070,-0.027818,-0.995547, 0.000057,-0.000083,-0.002987, 0.005173, 0.025810, 0.038130,1,-0.000202,-0.000598, 0.000285,1,-0.173456, 0.292196, 9.800761,1,0
1778021834213,   827.299,   827.296, 0.017983,-0.027804,-0.993967, 0.000054,-0.000083,-0.002982, 0.014843, 0.018580, 0.049417,1, 0.000742, 0.000874,-0.000170,1,-0.173486, 0.292222, 9.800760,1,0
1778021834224,   827.386,   827.302, 0.018014,-0.028118,-0.995880, 0.000054,-0.000084,-0.002988, 0.010534, 0.018287, 0.043809,1, 0.001044,-0.000356,-0.000856,1,-0.173485, 0.292278, 9.800758,1,0
1778021834235,   827.395,   827.392, 0.017818,-0.028403,-0.994891, 0.000054,-0.000085,-0.002985,-0.006836, 0.010262, 0.041959,1,-0.004903,-0.000527,-0.000322,1,-0.173172, 0.289854, 9.800836,1,0
1778021834246,   827.401,   827.401, 0.017289,-0.027863,-0.995295, 0.000052,-0.000084,-0.002986,-0.003596, 0.016163, 0.040343,1,-0.006490,-0.000813,-0.000144,1,-0.173133, 0.289341, 9.800852,1,0
1778021834256,   827.410,   827.410, 0.017395,-0.027644,-0.995636, 0.000052,-0.000083,-0.002987,-0.002600, 0.017723, 0.037014,1,-0.006970, 0.000690,-0.000251,1,-0.173192, 0.288755, 9.800868,1,0
1778021834267,   827.419,   827.419, 0.016647,-0.028673,-0.995012, 0.000050,-0.000086,-0.002984,-0.009909, 0.007032, 0.043152,1,-0.006772,-0.000786,-0.000475,1,-0.173151, 0.288151, 9.800886,1,0
1778021834278,   827.428,   827.428, 0.016948,-0.027996,-0.995252, 0.000051,-0.000084,-0.002985,-0.006928, 0.013049, 0.040814,1,-0.007965,-0.000331,-0.000384,1,-0.173132, 0.287521, 9.800905,1,0
1778021834289,   827.437,   827.434, 0.017558,-0.028087,-0.996115, 0.000053,-0.000085,-0.002989,-0.005902, 0.009276, 0.038955,1,-0.006478, 0.000873, 0.000129,1,-0.173170, 0.287086, 9.800918,1,0
1778021834299,   827.446,   827.443, 0.016807,-0.028026,-0.995708, 0.000050,-0.000084,-0.002987,-0.013023, 0.016640, 0.037897,1,-0.006562, 0.000639, 0.000205,1,-0.173236, 0.286493, 9.800934,1,0
1778021834310,   827.455,   827.452, 0.017052,-0.027807,-0.995812, 0.000051,-0.000083,-0.002987,-0.006145, 0.014902, 0.041306,1,-0.008623, 0.001048, 0.000298,1,-0.173306, 0.285737, 9.800954,1,0
1778021834321,   827.464,   827.461, 0.016729,-0.028631,-0.995471, 0.000050,-0.000086,-0.002987,-0.008681, 0.006737, 0.046282,1,-0.010580, 0.001331,-0.000582,1,-0.173406, 0.284890, 9.800977,1,0
1778021834332,   827.470,   827.470, 0.017157,-0.027757,-0.995532, 0.000052,-0.000084,-0.002987,-0.005155, 0.011815, 0.038167,1,-0.011525, 0.000993,-0.000458,1,-0.173415, 0.283914, 9.801005,1,0
1778021834342,   827.479,   827.479, 0.016850,-0.027967,-0.995423, 0.000051,-0.000084,-0.002987,-0.008255, 0.008735, 0.039262,1,-0.012178,-0.000071,-0.000142,1,-0.173494, 0.282887, 9.801034,1,0
1778021834353,   827.488,   827.488, 0.017166,-0.027878,-0.993762, 0.000051,-0.000084,-0.002982,-0.005192, 0.008536, 0.055587,1,-0.012376, 0.000264,-0.000691,1,-0.173537, 0.281814, 9.801064,1,0
1778021834364,   827.497,   827.497, 0.016888,-0.027380,-0.994224, 0.000050,-0.000083,-0.002983,-0.007920, 0.012278, 0.051082,1,-0.013707, 0.000671,-0.000347,1,-0.173540, 0.280658, 9.801097,1,0
1778021834375,   827.506,   827.503, 0.018269,-0.025770,-0.997630, 0.000055,-0.000077,-0.002994,-0.006384, 0.010273, 0.037130,1,-0.013769, 0.001791,-0.000966,1,-0.173574, 0.279872, 9.801119,1,0
1778021834386,   827.515,   827.512, 0.018221,-0.026774,-0.995405, 0.000054,-0.000080,-0.002986,-0.005647, 0.012593, 0.035170,1,-0.014250, 0.000256,-0.000894,1,-0.173698, 0.278095, 9.801167,1,0
1778021834396,   827.524,   827.521, 0.018246,-0.026361,-0.996134, 0.000054,-0.000078,-0.002987,-0.005775, 0.028757, 0.055250,1,-0.014672, 0.000315,-0.000341,1,-0.173775, 0.276714, 9.801205,1,0
1778021834407,   827.533,   827.530, 0.017401,-0.026056,-0.995237, 0.000052,-0.000078,-0.002985,-0.002883, 0.030364, 0.053442,1,-0.014379,-0.000613,-0.000743,1,-0.173806, 0.275427, 9.801241,1,0
1778021834418,   827.542,   827.539, 0.016500,-0.025877,-0.994662, 0.000049,-0.000077,-0.002984, 0.011148, 0.030654, 0.047640,1,-0.014693,-0.000311,-0.000613,1,-0.173881, 0.274153, 9.801275,1,0
1778021834429,   827.548,   827.548, 0.018767,-0.025227,-0.996369, 0.000057,-0.000076,-0.002990, 0.010090, 0.025565, 0.030260,1,-0.015262, 0.000889,-0.000245,1,-0.173960, 0.272817, 9.801311,1,0
1778021834439,   827.557,   827.557, 0.017040,-0.026366,-0.996439, 0.000051,-0.000079,-0.002990,-0.006945, 0.013123, 0.029616,1,-0.015164, 0.003000,-0.000583,1,-0.174082, 0.271545, 9.801344,1,0
1778021834450,   827.566,   827.566, 0.017243,-0.026502,-0.996055, 0.000052,-0.000080,-0.002988,-0.005096, 0.010468, 0.033408,1,-0.016246, 0.000939, 0.000466,1,-0.174202, 0.270209, 9.801379,1,0
1778021834461,   827.575,   827.575, 0.017880,-0.026595,-0.995130, 0.000053,-0.000080,-0.002985, 0.001111, 0.008123, 0.042522,1,-0.017003, 0.000568, 0.000345,1,-0.174238, 0.268774, 9.801417,1,0
1778021834472,   827.584,   827.581, 0.017465,-0.024877,-0.994794, 0.000052,-0.000074,-0.002984, 0.002470, 0.021125, 0.053457,1,-0.017542, 0.001805,-0.000590,1,-0.174295, 0.267736, 9.801445,1,0
1778021834482,   827.593,   827.590, 0.017939,-0.023941,-0.993884, 0.000054,-0.000071,-0.002982,-0.000294, 0.025354, 0.056328,1,-0.018246, 0.001464,-0.000351,1,-0.174417, 0.266173, 9.801485,1,0
1778021834493,   827.602,   827.599, 0.018686,-0.023955,-0.994327, 0.000056,-0.000072,-0.002983, 0.007341, 0.027066, 0.055652,1,-0.017054, 0.000084,-0.000166,1,-0.174433, 0.264648, 9.801526,1,0
1778021834504,   827.611,   827.608, 0.019396,-0.022570,-0.995598, 0.000058,-0.000068,-0.002987, 0.010542, 0.033161, 0.046198,1,-0.016688,-0.000234,-0.000402,1,-0.174424, 0.263181, 9.801566,1,0
1778021834515,   827.620,   827.617, 0.019779,-0.022974,-0.995977, 0.000059,-0.000069,-0.002988, 0.013446, 0.032685, 0.027390,1,-0.015552, 0.000225,-0.001152,1,-0.174454, 0.261886, 9.801600,1,0
1778021834525,   827.626,   827.626, 0.019655,-0.022207,-0.996804, 0.000059,-0.000067,-0.002990, 0.018340, 0.042883, 0.026328,1,-0.014939,-0.000073,-0.000603,1,-0.174407, 0.260522, 9.801638,1,0
1778021834536,   827.635,   827.635, 0.020439,-0.022492,-0.996729, 0.000062,-0.000067,-0.002991, 0.026023, 0.038820, 0.027098,1,-0.015334,-0.000729,-0.001265,1,-0.174411, 0.259245, 9.801671,1,0
1778021834547,   827.689,   827.689, 0.020319,-0.021083,-0.996021, 0.000061,-0.000064,-0.002988, 0.024557, 0.046957, 0.034177,1,-0.008972, 0.000823,-0.000996,1,-0.174712, 0.253627, 9.801813,1,0
1778021834558,   827.698,   827.698, 0.019297,-0.022130,-0.997871, 0.000058,-0.000066,-0.002993, 0.014452, 0.035837, 0.016059,1,-0.010306, 0.001288,-0.001465,1,-0.174803, 0.252757, 9.801833,1,0
1778021834569,   827.707,   827.704, 0.019365,-0.022124,-0.996815, 0.000058,-0.000067,-0.002991, 0.012270, 0.039212, 0.026469,1,-0.009766, 0.000598,-0.001034,1,-0.174836, 0.252173, 9.801848,1,0
1778021834579,   827.716,   827.713, 0.018951,-0.022257,-0.994659, 0.000057,-0.000067,-0.002984, 0.008596, 0.028979, 0.037153,1,-0.006816, 0.000641,-0.001321,1,-0.175340, 0.250276, 9.801888,1,0
1778021834590,   827.725,   827.722, 0.018631,-0.022619,-0.993897, 0.000056,-0.000068,-0.002981, 0.011546, 0.026603, 0.053706,1,-0.005799,-0.001022,-0.001140,1,-0.175339, 0.249692, 9.801903,1,0
1778021834601,   827.734,   827.731, 0.019129,-0.022650,-0.993155, 0.000058,-0.000068,-0.002979, 0.011181, 0.019580, 0.065714,1,-0.005001,-0.000458,-0.001824,1,-0.175293, 0.249188, 9.801916,1,0
1778021834612,   827.743,   827.740, 0.018508,-0.022807,-0.994253, 0.000056,-0.000069,-0.002982,-0.004863, 0.023521, 0.054608,1,-0.005170,-0.000132,-0.003070,1,-0.175269, 0.248745, 9.801928,1,0
1778021834622,   827.749,   827.749, 0.018157,-0.021728,-0.995394, 0.000054,-0.000065,-0.002987, 0.002803, 0.035210, 0.040459,1,-0.006369, 0.000920,-0.001475,1,-0.175262, 0.248226, 9.801941,1,0
1778021834633,   827.758,   827.758, 0.018083,-0.020585,-0.996115, 0.000054,-0.000062,-0.002988, 0.001999, 0.045782, 0.033401,1,-0.007488, 0.000277,-0.001586,1,-0.175334, 0.247583, 9.801956,1,0
1778021834644,   827.767,   827.767, 0.018724,-0.019017,-0.997887, 0.000056,-0.000057,-0.002993, 0.008262, 0.060527, 0.016036,1,-0.006962, 0.000322,-0.001451,1,-0.175356, 0.246956, 9.801971,1,0
1778021834655,   827.776,   827.776, 0.018843,-0.019137,-0.995786, 0.000056,-0.000057,-0.002987, 0.009412, 0.058958, 0.036652,1,-0.004370,-0.000113,-0.001375,1,-0.175377, 0.246583, 9.801981,1,0
1778021834665,   827.785,   827.782, 0.019154,-0.019707,-0.995725, 0.000058,-0.000060,-0.002987, 0.016198, 0.058430, 0.032591,1,-0.001911, 0.000095,-0.001122,1,-0.175397, 0.246440, 9.801984,1,0
1778021834676,   827.794,   827.791, 0.018436,-0.020465,-0.994980, 0.000055,-0.000061,-0.002985, 0.003348, 0.053227, 0.041019,1, 0.000808,-0.000734,-0.000325,1,-0.175362, 0.246393, 9.801986,1,0
1778021834687,   827.803,   827.800, 0.018044,-0.022322,-0.993523, 0.000053,-0.000067,-0.002981, 0.001242, 0.031370, 0.059396,1, 0.001112, 0.000077,-0.001508,1,-0.175362, 0.246463, 9.801984,1,0
1778021834698,   827.812,   827.809, 0.017295,-0.022629,-0.993460, 0.000052,-0.000068,-0.002980, 0.002081, 0.029313, 0.059373,1, 0.001935, 0.000030,-0.001990,1,-0.175329, 0.246572, 9.801982,1,0
1778021834708,   827.821,   827.818, 0.017468,-0.023078,-0.995322, 0.000053,-0.000069,-0.002986,-0.013286, 0.022764, 0.052127,1,-0.000567, 0.000147,-0.000010,1,-0.175325, 0.246491, 9.801984,1,0
1778021834719,   827.827,   827.827, 0.016215,-0.022801,-0.995971, 0.000048,-0.000068,-0.002988,-0.016384, 0.022761, 0.034846,1,-0.002756, 0.000448,-0.000366,1,-0.175403, 0.246333, 9.801987,1,0
1778021834730,   827.836,   827.836, 0.016296,-0.020689,-0.997723, 0.000049,-0.000062,-0.002993,-0.015608, 0.043223, 0.017671,1,-0.001817, 0.000556,-0.000905,1,-0.175420, 0.246091, 9.801992,1,0
1778021834741,   827.845,   827.845, 0.015968,-0.020398,-0.996809, 0.000048,-0.000061,-0.002990,-0.018859, 0.045924, 0.026638,1,-0.000662, 0.000536,-0.000525,1,-0.175458, 0.245954, 9.801995,1,0
1778021834751,   827.854,   827.854, 0.015932,-0.020025,-0.995668, 0.000048,-0.000060,-0.002987,-0.019256, 0.049617, 0.037827,1, 0.001469,-0.000963,-0.000312,1,-0.175485, 0.246007, 9.801993,1,0
1778021834762,   827.863,   827.860, 0.016072,-0.020086,-0.995009, 0.000048,-0.000061,-0.002985,-0.016783, 0.048445, 0.040668,1, 0.003286,-0.000045,-0.000941,1,-0.175463, 0.246164, 9.801990,1,0
1778021834773,   827.872,   827.869, 0.016246,-0.020791,-0.993103, 0.000049,-0.000062,-0.002979,-0.012320, 0.049625, 0.061170,1, 0.004952, 0.000808,-0.000232,1,-0.175484, 0.246536, 9.801980,1,0
1778021834784,   827.881,   827.878, 0.015874,-0.021747,-0.994121, 0.000048,-0.000065,-0.002982,-0.015646, 0.037501, 0.054912,1, 0.005580,-0.000714,-0.000109,1,-0.175430, 0.247032, 9.801969,1,0
1778021834795,   827.890,   827.887, 0.016192,-0.022050,-0.995424, 0.000049,-0.000066,-0.002986,-0.015568, 0.041695, 0.049018,1, 0.004406,-0.001056,-0.000789,1,-0.175371, 0.247487, 9.801958,1,0
1778021834805,   827.896,   827.896, 0.017050,-0.021246,-0.995918, 0.000051,-0.000064,-0.002988,-0.008144, 0.039378, 0.035336,1, 0.001615,-0.000219,-0.000251,1,-0.175349, 0.247747, 9.801951,1,0
1778021834816,   827.905,   827.905, 0.016891,-0.022222,-0.996373, 0.000051,-0.000067,-0.002989,-0.009607, 0.029953, 0.030874,1, 0.002405,-0.000397,-0.000628,1,-0.175250, 0.247894, 9.801950,1,0
1778021834827,   827.914,   827.914, 0.017708,-0.021589,-0.996408, 0.000052,-0.000065,-0.002990,-0.001553, 0.034925, 0.030561,1, 0.002030, 0.001579, 0.000308,1,-0.175225, 0.246573, 9.801984,1,0
1778021834838,   827.923,   827.923, 0.017473,-0.020981,-0.996186, 0.000052,-0.000063,-0.002988,-0.003860, 0.041068, 0.032730,1, 0.004214,-0.000753, 0.000064,1,-0.175208, 0.246855, 9.801977,1,0
1778021834848,   828.007,   828.007, 0.020464,-0.022222,-0.995592, 0.000062,-0.000067,-0.002986, 0.025953, 0.034042, 0.038430,1, 0.008196,-0.001289,-0.000021,1,-0.174717, 0.252042, 9.801853,1,0
1778021834859,   828.016,   828.016, 0.020740,-0.022579,-0.995128, 0.000063,-0.000067,-0.002985, 0.028748, 0.031240, 0.042970,1, 0.007499,-0.000410, 0.000961,1,-0.174636, 0.252740, 9.801837,1,0
1778021834870,   828.025,   828.022, 0.020712,-0.023720,-0.993824, 0.000062,-0.000071,-0.002982, 0.032556, 0.016659, 0.049539,1, 0.008377,-0.000578, 0.000294,1,-0.174628, 0.253232, 9.801825,1,0
1778021834881,   828.034,   828.031, 0.020253,-0.023042,-0.993962, 0.000061,-0.000070,-0.002983, 0.024784, 0.022699, 0.051164,1, 0.007138,-0.000589, 0.000088,1,-0.174596, 0.253881, 9.801808,1,0
1778021834891,   828.043,   828.040, 0.020099,-0.024018,-0.995006, 0.000061,-0.000072,-0.002985, 0.020878, 0.015689, 0.043436,1, 0.007265,-0.001110,-0.000062,1,-0.174572, 0.254511, 9.801792,1,0
1778021834902,   828.052,   828.049, 0.019679,-0.023500,-0.996652, 0.000060,-0.000070,-0.002990, 0.019161, 0.021172, 0.036371,1, 0.007118, 0.000087, 0.000619,1,-0.174535, 0.255076, 9.801778,1,0
1778021834913,   828.061,   828.058, 0.018569,-0.023368,-0.996125, 0.000056,-0.000070,-0.002987, 0.012680, 0.020657, 0.029264,1, 0.007776, 0.000306, 0.000338,1,-0.174508, 0.255728, 9.801762,1,0
1778021834924,   828.067,   828.067, 0.018981,-0.023993,-0.995134, 0.000057,-0.000072,-0.002985, 0.011641, 0.021047, 0.042812,1, 0.008876,-0.001241, 0.000319,1,-0.174488, 0.256417, 9.801744,1,0
1778021834935,   828.076,   828.076, 0.018226,-0.023458,-0.996078, 0.000055,-0.000070,-0.002989, 0.004244, 0.026970, 0.033542,1, 0.007672, 0.000348, 0.000022,1,-0.174491, 0.257089, 9.801726,1,0
1778021834945,   828.085,   828.085, 0.017426,-0.022873,-0.995663, 0.000052,-0.000069,-0.002987,-0.003567, 0.033306, 0.037592,1, 0.006687,-0.000990, 0.000495,1,-0.174444, 0.257679, 9.801712,1,0
1778021834956,   828.094,   828.091, 0.017876,-0.022967,-0.996013, 0.000054,-0.000069,-0.002988, 0.004087, 0.026467, 0.041586,1, 0.007996,-0.000538, 0.000491,1,-0.174433, 0.258124, 9.801701,1,0
1778021834967,   828.103,   828.100, 0.017637,-0.023893,-0.995413, 0.000053,-0.000071,-0.002986, 0.001763, 0.031406, 0.043807,1, 0.007214, 0.000058, 0.000304,1,-0.174376, 0.258740, 9.801685,1,0
1778021834978,   828.112,   828.109, 0.016996,-0.023372,-0.995378, 0.000051,-0.000070,-0.002986,-0.004291, 0.031637, 0.043916,1, 0.008381,-0.001159,-0.000113,1,-0.174285, 0.259434, 9.801668,1,0
1778021834988,   828.121,   828.118, 0.017544,-0.024396,-0.995826, 0.000053,-0.000073,-0.002987,-0.007828, 0.024028, 0.037433,1, 0.006913,-0.001566, 0.000437,1,-0.174674, 0.258953, 9.801674,1,0
1778021834999,   828.130,   828.127, 0.017150,-0.024654,-0.996391, 0.000051,-0.000074,-0.002989,-0.000835, 0.016156, 0.038437,1, 0.007075,-0.001387, 0.000159,1,-0.174611, 0.259593, 9.801659,1,0
1778021835010,   828.133,   828.136, 0.016993,-0.024955,-0.995611, 0.000051,-0.000075,-0.002987,-0.009149, 0.016343, 0.042472,1, 0.006471,-0.000447, 0.000980,1,-0.174553, 0.260230, 9.801642,1,0
1778021835021,   828.145,   828.145, 0.017237,-0.024449,-0.995039, 0.000051,-0.000074,-0.002985,-0.005476, 0.021028, 0.043629,1, 0.007473,-0.000473, 0.001005,1,-0.174512, 0.260858, 9.801626,1,0
1778021835031,   828.154,   828.154, 0.016814,-0.023654,-0.996065, 0.000051,-0.000071,-0.002988,-0.009575, 0.029410, 0.033549,1, 0.006898,-0.000617, 0.000613,1,-0.174454, 0.261445, 9.801612,1,0
1778021835042,   828.163,   828.163, 0.016628,-0.024566,-0.995353, 0.000050,-0.000074,-0.002986,-0.011375, 0.021033, 0.040520,1, 0.005895,-0.001172, 0.001396,1,-0.174428, 0.262003, 9.801598,1,0
1778021835053,   828.172,   828.169, 0.016870,-0.024269,-0.995011, 0.000051,-0.000073,-0.002985,-0.018296, 0.027529, 0.045661,1, 0.005986,-0.000428, 0.001002,1,-0.174395, 0.262331, 9.801589,1,0
1778021835064,   828.181,   828.178, 0.016178,-0.024639,-0.994650, 0.000049,-0.000074,-0.002984,-0.014945, 0.024783, 0.040803,1, 0.005742,-0.000306, 0.001091,1,-0.174352, 0.262866, 9.801576,1,0
1778021835074,   828.190,   828.187, 0.016793,-0.023931,-0.995013, 0.000051,-0.000071,-0.002985,-0.008004, 0.023406, 0.043176,1, 0.005362,-0.000491, 0.001175,1,-0.174314, 0.263377, 9.801562,1,0
1778021835085,   828.199,   828.196, 0.016485,-0.024443,-0.995645, 0.000049,-0.000073,-0.002987,-0.012159, 0.019550, 0.039641,1, 0.005000, 0.000487, 0.001640,1,-0.174296, 0.263878, 9.801550,1,0
1778021835096,   828.208,   828.205, 0.016387,-0.024509,-0.996029, 0.000049,-0.000073,-0.002989,-0.017535, 0.026287, 0.033875,1, 0.005118,-0.000565, 0.001210,1,-0.174292, 0.264335, 9.801538,1,0
1778021835107,   828.214,   828.214, 0.017574,-0.024172,-0.994852, 0.000053,-0.000072,-0.002985,-0.001920, 0.027691, 0.045357,1, 0.005085, 0.000325, 0.000704,1,-0.174266, 0.264783, 9.801526,1,0
1778021835117,   828.223,   828.223, 0.017033,-0.024609,-0.995158, 0.000051,-0.000074,-0.002986,-0.007173, 0.023854, 0.042353,1, 0.006030,-0.000787, 0.001756,1,-0.174203, 0.265241, 9.801515,1,0
1778021835128,   828.232,   828.232, 0.017719,-0.023615,-0.995989, 0.000053,-0.000071,-0.002988,-0.000408, 0.034253, 0.034182,1, 0.008260, 0.000304, 0.000248,1,-0.174174, 0.265917, 9.801497,1,0
1778021835139,   828.241,   828.241, 0.017298,-0.024582,-0.995844, 0.000052,-0.000073,-0.002987,-0.004505, 0.025371, 0.035587,1, 0.007982,-0.000806,-0.000256,1,-0.174130, 0.266513, 9.801481,1,0
1778021835150,   828.250,   828.247, 0.018140,-0.024393,-0.995329, 0.000054,-0.000073,-0.002986, 0.001030, 0.031795, 0.041182,1, 0.007703,-0.000278, 0.000508,1,-0.174087, 0.266962, 9.801470,1,0
1778021835161,   828.259,   828.256, 0.018077,-0.024729,-0.994347, 0.000054,-0.000074,-0.002983,-0.002240, 0.022052, 0.048069,1, 0.008516,-0.000762, 0.000185,1,-0.174065, 0.267660, 9.801451,1,0
1778021835171,   828.313,   828.310, 0.017893,-0.025793,-0.995310, 0.000053,-0.000077,-0.002985, 0.002046, 0.026180, 0.042975,1, 0.009681,-0.000494, 0.000236,1,-0.173712, 0.272347, 9.801329,1,0
1778021835182,   828.322,   828.319, 0.018554,-0.025159,-0.995719, 0.000056,-0.000076,-0.002987, 0.008284, 0.021107, 0.037336,1, 0.008784,-0.000026,-0.000524,1,-0.173555, 0.272233, 9.801334,1,0
1778021835193,   828.331,   828.328, 0.018791,-0.026113,-0.995509, 0.000057,-0.000078,-0.002987, 0.009502, 0.016487, 0.043016,1, 0.009489,-0.000701,-0.000200,1,-0.173456, 0.273103, 9.801311,1,0
1778021835204,   828.337,   828.337, 0.018713,-0.026398,-0.995614, 0.000057,-0.000079,-0.002987, 0.010079, 0.014996, 0.037655,1, 0.009768, 0.000106, 0.000672,1,-0.173428, 0.273961, 9.801289,1,0
1778021835214,   828.346,   828.346, 0.018842,-0.027187,-0.995622, 0.000056,-0.000082,-0.002987, 0.011433, 0.008025, 0.037550,1, 0.008714,-0.000585, 0.000149,1,-0.173342, 0.274724, 9.801269,1,0
1778021835225,   828.355,   828.355, 0.019665,-0.026613,-0.996008, 0.000059,-0.000080,-0.002988, 0.019559, 0.014368, 0.033751,1, 0.007892,-0.000556, 0.000243,1,-0.173288, 0.275426, 9.801250,1,0
1778021835236,   828.364,   828.364, 0.019408,-0.026815,-0.994039, 0.000058,-0.000081,-0.002982, 0.017096, 0.013077, 0.053037,1, 0.007895,-0.000005, 0.000392,1,-0.173227, 0.276116, 9.801231,1,0
1778021835247,   828.373,   828.370, 0.019402,-0.026607,-0.994838, 0.000058,-0.000080,-0.002985, 0.008894, 0.017150, 0.046885,1, 0.006472, 0.000645,-0.000425,1,-0.173260, 0.276531, 9.801219,1,0
1778021835257,   828.382,   828.379, 0.018850,-0.026697,-0.995315, 0.000056,-0.000080,-0.002987, 0.011676, 0.019510, 0.038646,1, 0.006238, 0.000258, 0.000322,1,-0.173264, 0.277132, 9.801202,1,0
1778021835268,   828.391,   828.388, 0.019487,-0.026009,-0.995660, 0.000058,-0.000078,-0.002987, 0.015185, 0.022056, 0.043272,1, 0.006527,-0.000654,-0.000409,1,-0.173237, 0.277673, 9.801188,1,0
1778021835279,   828.400,   828.397, 0.017950,-0.027492,-0.995011, 0.000054,-0.000082,-0.002985, 0.009023, 0.014409, 0.040507,1, 0.005657,-0.000140, 0.000785,1,-0.173213, 0.278245, 9.801171,1,0
1778021835290,   828.409,   828.406, 0.018077,-0.027322,-0.995187, 0.000054,-0.000083,-0.002986, 0.008372, 0.010034, 0.041457,1, 0.005933,-0.000269, 0.000143,1,-0.173124, 0.278777, 9.801158,1,0
1778021835300,   828.415,   828.415, 0.018255,-0.027467,-0.994885, 0.000055,-0.000083,-0.002985, 0.005892, 0.009826, 0.044657,1, 0.005615,-0.000344,-0.001204,1,-0.173122, 0.279235, 9.801145,1,0
1778021835311,   828.424,   828.424, 0.017508,-0.027036,-0.995027, 0.000052,-0.000082,-0.002985,-0.001338, 0.014553, 0.043256,1, 0.005612,-0.000640,-0.000532,1,-0.173025, 0.279742, 9.801132,1,0
1778021835322,   828.433,   828.433, 0.017662,-0.026662,-0.995335, 0.000053,-0.000080,-0.002986, 0.000216, 0.018683, 0.040216,1, 0.004897, 0.000216, 0.000037,1,-0.172987, 0.280195, 9.801120,1,0
1778021835333,   828.442,   828.442, 0.017768,-0.026401,-0.995125, 0.000054,-0.000078,-0.002985, 0.001260, 0.021590, 0.042266,1, 0.002123,-0.000940,-0.000042,1,-0.172975, 0.280517, 9.801111,1,0
1778021835344,   828.451,   828.448, 0.017242,-0.026569,-0.995572, 0.000051,-0.000080,-0.002987,-0.009433, 0.022940, 0.039396,1, 0.003578,-0.000421, 0.000181,1,-0.172964, 0.280731, 9.801105,1,0
1778021835354,   828.460,   828.457, 0.017298,-0.025931,-0.995789, 0.000052,-0.000077,-0.002987,-0.001138, 0.021041, 0.039097,1, 0.003942,-0.000770, 0.000399,1,-0.172899, 0.281079, 9.801096,1,0
1778021835365,   828.469,   828.466, 0.017429,-0.026483,-0.995372, 0.000053,-0.000080,-0.002986,-0.002012, 0.018875, 0.040273,1, 0.004299,-0.000424,-0.000144,1,-0.172852, 0.281472, 9.801085,1,0
1778021835376,   828.478,   828.475, 0.016354,-0.026507,-0.994594, 0.000049,-0.000079,-0.002984,-0.007450, 0.016964, 0.045680,1, 0.003119,-0.001375, 0.000447,1,-0.172850, 0.281824, 9.801076,1,0
1778021835387,   828.487,   828.484, 0.016106,-0.026921,-0.995645, 0.000049,-0.000081,-0.002986,-0.012028, 0.015023, 0.041595,1, 0.004530,-0.000139,-0.000464,1,-0.172845, 0.282198, 9.801064,1,0
1778021835397,   828.493,   828.493, 0.015577,-0.027653,-0.995579, 0.000047,-0.000083,-0.002986,-0.020035, 0.011250, 0.037759,1, 0.001564,-0.000400,-0.000228,1,-0.172789, 0.282443, 9.801059,1,0
1778021835408,   828.502,   828.502, 0.016564,-0.027404,-0.995387, 0.000049,-0.000082,-0.002986,-0.010324, 0.013910, 0.039645,1, 0.002363,-0.000876, 0.000039,1,-0.172752, 0.282674, 9.801053,1,0
1778021835419,   828.511,   828.511, 0.016049,-0.026891,-0.994822, 0.000048,-0.000080,-0.002985,-0.015428, 0.018734, 0.045184,1, 0.001358, 0.000074, 0.000513,1,-0.172906, 0.282140, 9.801065,1,0
1778021835430,   828.520,   828.517, 0.016199,-0.027362,-0.994550, 0.000048,-0.000082,-0.002983,-0.012370, 0.018273, 0.047966,1, 0.001629,-0.001314, 0.000588,1,-0.172864, 0.282226, 9.801064,1,0
1778021835440,   828.529,   828.526, 0.016400,-0.026777,-0.995007, 0.000049,-0.000080,-0.002984,-0.004991, 0.019974, 0.045329,1, 0.000305, 0.000609,-0.000262,1,-0.172892, 0.282240, 9.801063,1,0
1778021835451,   828.538,   828.535, 0.016302,-0.027379,-0.996024, 0.000049,-0.000082,-0.002988,-0.012875, 0.020533, 0.035202,1,-0.000435,-0.000706,-0.000314,1,-0.172855, 0.282250, 9.801064,1,0
1778021835462,   828.547,   828.544, 0.016368,-0.026924,-0.995162, 0.000049,-0.000080,-0.002986,-0.012866, 0.018340, 0.037182,1,-0.000030, 0.000452, 0.000645,1,-0.172821, 0.282303, 9.801063,1,0
1778021835473,   828.634,   828.631, 0.018394,-0.026561,-0.995289, 0.000055,-0.000080,-0.002986, 0.010621, 0.018382, 0.040419,1,-0.003418,-0.000766,-0.001417,1,-0.172999, 0.280513, 9.801110,1,0
1778021835483,   828.643,   828.640, 0.018275,-0.025825,-0.996361, 0.000055,-0.000078,-0.002989, 0.004828, 0.020220, 0.040945,1,-0.002677,-0.000238,-0.000563,1,-0.173040, 0.280245, 9.801118,1,0
1778021835494,   828.652,   828.649, 0.018983,-0.025730,-0.995877, 0.000057,-0.000077,-0.002987, 0.003067, 0.017181, 0.031301,1,-0.003940, 0.000553,-0.001013,1,-0.173097, 0.279941, 9.801126,1,0
1778021835505,   828.658,   828.658, 0.018080,-0.026819,-0.994883, 0.000054,-0.000081,-0.002985, 0.004176, 0.016702, 0.044662,1,-0.002340, 0.000804,-0.000116,1,-0.173139, 0.279683, 9.801132,1,0
1778021835516,   828.667,   828.667, 0.017688,-0.025979,-0.994284, 0.000052,-0.000078,-0.002984, 0.000307, 0.024597, 0.050541,1,-0.003989, 0.000404,-0.000221,1,-0.173157, 0.279323, 9.801142,1,0
1778021835527,   828.676,   828.676, 0.017839,-0.027111,-0.994868, 0.000054,-0.000081,-0.002984, 0.001751, 0.013172, 0.044822,1,-0.003468,-0.000077, 0.000266,1,-0.173194, 0.279006, 9.801150,1,0
1778021835537,   828.685,   828.685, 0.018272,-0.026930,-0.995737, 0.000055,-0.000080,-0.002988, 0.005964, 0.014561, 0.036317,1,-0.004428, 0.001269,-0.000170,1,-0.173238, 0.278614, 9.801161,1,0
1778021835548,   828.694,   828.691, 0.018651,-0.026919,-0.995111, 0.000056,-0.000081,-0.002985, 0.005754, 0.015976, 0.037937,1,-0.004643, 0.000102,-0.000351,1,-0.173231, 0.278357, 9.801167,1,0
1778021835559,   828.703,   828.700, 0.018624,-0.026309,-0.995095, 0.000056,-0.000079,-0.002985, 0.002177, 0.022287, 0.039617,1,-0.005676, 0.001423,-0.000525,1,-0.173284, 0.277872, 9.801181,1,0
1778021835570,   828.712,   828.709, 0.017578,-0.026232,-0.995116, 0.000053,-0.000079,-0.002985, 0.007708, 0.018993, 0.044911,1,-0.005864, 0.000916,-0.001140,1,-0.173392, 0.277367, 9.801193,1,0
1778021835580,   828.721,   828.718, 0.018060,-0.026166,-0.994854, 0.000054,-0.000078,-0.002984, 0.011804, 0.023014, 0.046290,1,-0.005831, 0.000826,-0.000870,1,-0.173357, 0.276152, 9.801229,1,0
1778021835591,   828.727,   828.727, 0.017924,-0.026228,-0.995528, 0.000053,-0.000079,-0.002987, 0.002426, 0.018545, 0.038449,1,-0.004753,-0.000086,-0.001146,1,-0.173352, 0.275706, 9.801241,1,0
1778021835602,   828.736,   828.736, 0.017801,-0.026125,-0.994227, 0.000053,-0.000078,-0.002982, 0.001154, 0.019146, 0.051212,1,-0.004219, 0.001231,-0.001284,1,-0.173427, 0.275309, 9.801250,1,0
1778021835613,   828.745,   828.745, 0.018333,-0.026058,-0.995283, 0.000055,-0.000078,-0.002986, 0.006406, 0.019449, 0.040871,1,-0.003965,-0.001185,-0.000886,1,-0.173365, 0.274958, 9.801262,1,0
1778021835623,   828.754,   828.754, 0.019287,-0.026008,-0.994536, 0.000058,-0.000078,-0.002984, 0.015803, 0.019603, 0.048205,1,-0.003977,-0.001083,-0.000839,1,-0.173330, 0.274617, 9.801271,1,0
1778021835634,   828.763,   828.760, 0.018630,-0.025466,-0.995112, 0.000056,-0.000077,-0.002986, 0.010371, 0.026272, 0.036108,1,-0.004905, 0.000116,-0.001073,1,-0.173326, 0.274312, 9.801280,1,0
1778021835645,   828.772,   828.769, 0.018429,-0.024955,-0.995533, 0.000055,-0.000075,-0.002987, 0.009216, 0.028801, 0.038970,1,-0.005539, 0.000200,-0.001121,1,-0.173321, 0.273898, 9.801292,1,0
1778021835656,   828.781,   828.778, 0.018797,-0.025695,-0.995407, 0.000056,-0.000076,-0.002986, 0.000519, 0.024496, 0.040488,1,-0.004295, 0.000799,-0.001542,1,-0.173321, 0.273475, 9.801304,1,0
1778021835666,   828.790,   828.787, 0.018316,-0.024944,-0.995339, 0.000055,-0.000075,-0.002986, 0.002000, 0.032869, 0.034793,1,-0.004338,-0.000215,-0.001064,1,-0.173381, 0.273102, 9.801313,1,0
1778021835677,   828.799,   828.796, 0.017401,-0.024860,-0.995154, 0.000052,-0.000074,-0.002985, 0.007042, 0.025685, 0.040767,1,-0.003562, 0.001107,-0.001224,1,-0.173413, 0.272731, 9.801323,1,0
1778021835688,   828.805,   828.805, 0.017810,-0.024772,-0.995288, 0.000054,-0.000075,-0.002986, 0.001245, 0.029623, 0.040888,1,-0.002510, 0.000343,-0.000451,1,-0.173413, 0.272527, 9.801329,1,0
1778021835699,   828.814,   828.814, 0.018162,-0.024678,-0.995874, 0.000055,-0.000074,-0.002988, 0.004693, 0.030275, 0.035147,1,-0.002637, 0.000042,-0.000999,1,-0.173416, 0.272264, 9.801335,1,0
1778021835710,   828.823,   828.823, 0.017934,-0.025194,-0.995526, 0.000054,-0.000076,-0.002986, 0.002440, 0.024900, 0.038563,1,-0.003552,-0.000115,-0.001197,1,-0.173434, 0.271939, 9.801345,1,0
1778021835720,   828.832,   828.832, 0.017739,-0.025823,-0.995629, 0.000053,-0.000077,-0.002987, 0.000522, 0.018331, 0.037571,1,-0.005176, 0.000158,-0.001424,1,-0.173441, 0.271515, 9.801356,1,0
1778021835731,   828.841,   828.838, 0.017138,-0.026314,-0.995089, 0.000051,-0.000079,-0.002985, 0.002529, 0.011741, 0.036621,1,-0.005764,-0.000601, 0.000106,1,-0.173418, 0.271208, 9.801365,1,1
1778021835742,   828.850,   828.847, 0.018735,-0.024871,-0.995801, 0.000056,-0.000075,-0.002987, 0.002226, 0.017955, 0.039935,1,-0.004487, 0.000599, 0.000083,1,-0.173502, 0.270795, 9.801375,1,1
1778021835753,   828.859,   828.856, 0.018307,-0.025245,-0.994767, 0.000055,-0.000076,-0.002984, 0.009500, 0.023405, 0.044842,1,-0.004588, 0.000213,-0.001168,1,-0.173519, 0.270396, 9.801386,1,1
1778021835763,   828.868,   828.865, 0.018522,-0.024853,-0.995010, 0.000055,-0.000074,-0.002985, 0.007672, 0.030538, 0.045079,1,-0.004953, 0.000561,-0.000781,1,-0.173506, 0.269947, 9.801398,1,1
1778021835774,   828.877,   828.874, 0.018489,-0.024605,-0.995965, 0.000055,-0.000074,-0.002988, 0.005630, 0.024337, 0.034345,1,-0.005566, 0.000092,-0.000488,1,-0.173470, 0.269455, 9.801413,1,1
1778021835785,   828.883,   828.883, 0.018505,-0.024560,-0.995694, 0.000055,-0.000074,-0.002987, 0.007946, 0.028237, 0.036996,1,-0.003552, 0.000319,-0.001790,1,-0.173526, 0.269053, 9.801422,1,1
1778021835796,   828.934,   828.934, 0.018697,-0.025225,-0.995565, 0.000056,-0.000076,-0.002987, 0.009462, 0.018349, 0.038350,1,-0.006423, 0.000189, 0.000125,1,-0.173894, 0.265663, 9.801509,1,1
1778021835807,   828.943,   828.943, 0.018882,-0.024119,-0.995631, 0.000057,-0.000072,-0.002988, 0.011209, 0.028653, 0.037712,1,-0.006057, 0.001188,-0.000976,1,-0.173971, 0.265118, 9.801522,1,1
1778021835817,   828.952,   828.952, 0.018599,-0.024291,-0.994280, 0.000056,-0.000073,-0.002983, 0.008357, 0.026324, 0.050981,1,-0.007312, 0.001219,-0.000770,1,-0.174053, 0.264465, 9.801538,1,1
1778021835828,   828.961,   828.958, 0.018925,-0.023941,-0.996093, 0.000057,-0.000072,-0.002988, 0.020205, 0.032112, 0.045063,1,-0.005843, 0.000800, 0.000028,1,-0.174082, 0.264115, 9.801547,1,1
1778021835839,   828.970,   828.967, 0.019364,-0.023509,-0.995689, 0.000058,-0.000071,-0.002987, 0.011672, 0.030901, 0.040171,1,-0.006341, 0.000012,-0.000720,1,-0.174164, 0.263611, 9.801559,1,1
1778021835849,   828.979,   828.976, 0.019487,-0.023121,-0.995499, 0.000059,-0.000069,-0.002986, 0.013312, 0.022341, 0.039218,1,-0.003242,-0.000330,-0.000179,1,-0.174157, 0.263252, 9.801569,1,1
1778021835860,   828.988,   828.985, 0.019728,-0.024028,-0.995360, 0.000059,-0.000072,-0.002986, 0.015591, 0.027533, 0.045087,1,-0.003519,-0.000186,-0.001075,1,-0.174135, 0.262935, 9.801578,1,1
1778021835871,   828.997,   828.994, 0.019153,-0.024477,-0.994954, 0.000057,-0.000074,-0.002985, 0.017544, 0.020572, 0.036586,1,-0.004732, 0.000485,-0.000575,1,-0.174194, 0.262564, 9.801587,1,1
1778021835882,   829.003,   829.003, 0.019427,-0.023715,-0.996426, 0.000058,-0.000071,-0.002989, 0.016283, 0.029680, 0.029989,1,-0.003713,-0.000051, 0.000241,1,-0.174233, 0.262210, 9.801596,1,1
1778021835893,   829.012,   829.012, 0.019426,-0.023814,-0.995272, 0.000058,-0.000071,-0.002986, 0.016242, 0.028270, 0.041320,1,-0.005757, 0.000124,-0.000351,1,-0.174263, 0.261755, 9.801607,1,1
1778021835903,   829.021,   829.021, 0.019291,-0.023563,-0.995112, 0.000058,-0.000070,-0.002985, 0.014952, 0.030250, 0.042908,1,-0.005329, 0.000389,-0.000176,1,-0.174232, 0.261277, 9.801620,1,1
1778021835914,   829.030,   829.030, 0.019435,-0.023483,-0.995286, 0.000059,-0.000070,-0.002985, 0.016299, 0.030616, 0.041212,1,-0.003995, 0.000934,-0.000330,1,-0.174306, 0.260865, 9.801630,1,1
1778021835925,   829.039,   829.036, 0.019811,-0.024634,-0.996023, 0.000059,-0.000074,-0.002988, 0.015459, 0.024892, 0.039200,1,-0.004785, 0.000616,-0.000784,1,-0.174328, 0.260601, 9.801637,1,1
1778021835936,   829.048,   829.045, 0.019627,-0.023960,-0.995916, 0.000059,-0.000072,-0.002988, 0.018434, 0.022259, 0.040948,1,-0.003530,-0.000883,-0.000896,1,-0.174283, 0.260293, 9.801645,1,1
1778021835946,   829.057,   829.054, 0.019143,-0.024972,-0.995561, 0.000057,-0.000075,-0.002987, 0.014005, 0.022567, 0.037453,1,-0.003227, 0.000574,-0.000478,1,-0.174323, 0.260001, 9.801653,1,1
1778021835957,   829.066,   829.063, 0.019527,-0.023277,-0.995394, 0.000058,-0.000070,-0.002986, 0.018986, 0.024664, 0.042548,1,-0.003747,-0.001309,-0.000725,1,-0.174254, 0.259655, 9.801663,1,1
1778021835968,   829.075,   829.072, 0.019154,-0.023780,-0.995041, 0.000057,-0.000071,-0.002985, 0.012869, 0.022639, 0.043957,1,-0.002989, 0.000219, 0.000096,1,-0.174267, 0.259385, 9.801670,1,1
1778021835979,   829.081,   829.081, 0.019496,-0.023286,-0.995263, 0.000058,-0.000070,-0.002986, 0.016891, 0.030719, 0.041484,1,-0.004204, 0.000899,-0.000127,1,-0.174310, 0.259041, 9.801679,1,1
1778021835989,   829.090,   829.090, 0.019167,-0.022971,-0.995424, 0.000058,-0.000069,-0.002986, 0.013625, 0.033488, 0.039911,1,-0.003172,-0.000467, 0.000206,1,-0.174335, 0.258727, 9.801686,1,1
1778021836000,   829.099,   829.099, 0.019711,-0.022931,-0.994871, 0.000059,-0.000069,-0.002984, 0.018939, 0.033652, 0.045339,1,-0.002100, 0.000398,-0.000020,1,-0.174359, 0.258506, 9.801692,1,1
1778021836011,   829.108,   829.108, 0.019464,-0.023678,-0.995247, 0.000058,-0.000071,-0.002986, 0.016479, 0.026140, 0.041659,1,-0.001104,-0.000064,-0.000399,1,-0.174395, 0.258328, 9.801696,1,1
1778021836022,   829.117,   829.114, 0.018756,-0.023936,-0.994918, 0.000056,-0.000072,-0.002985, 0.013007, 0.024974, 0.048628,1,-0.001070,-0.000078, 0.000216,1,-0.174997, 0.257252, 9.801713,1,1
1778021836033,   829.126,   829.123, 0.018665,-0.024548,-0.996275, 0.000056,-0.000074,-0.002989, 0.011055, 0.020633, 0.034875,1,-0.001653,-0.001501, 0.000206,1,-0.174926, 0.257071, 9.801720,1,1
1778021836043,   829.135,   829.132, 0.018895,-0.024239,-0.995850, 0.000057,-0.000073,-0.002988, 0.001935, 0.017973, 0.038110,1,-0.001691, 0.000790,-0.000173,1,-0.174925, 0.256915, 9.801723,1,1
1778021836054,   829.144,   829.141, 0.018040,-0.024069,-0.995942, 0.000054,-0.000072,-0.002988,-0.000197, 0.025354, 0.033958,1,-0.002680,-0.000029, 0.000104,1,-0.174961, 0.256687, 9.801728,1,1
1778021836065,   829.150,   829.150, 0.018296,-0.023271,-0.995249, 0.000055,-0.000070,-0.002986, 0.004422, 0.028232, 0.041671,1,-0.002121,-0.000264, 0.000081,1,-0.174995, 0.256422, 9.801735,1,1
1778021836076,   829.159,   829.159, 0.017745,-0.022894,-0.995203, 0.000053,-0.000069,-0.002985,-0.001007, 0.031713, 0.042131,1,-0.002409, 0.000356, 0.000985,1,-0.175031, 0.256208, 9.801740,1,1
1778021836086,   829.168,   829.168, 0.017736,-0.021863,-0.994823, 0.000053,-0.000066,-0.002985,-0.001102, 0.041601, 0.045869,1,-0.002123, 0.000516,-0.000030,1,-0.175035, 0.255981, 9.801745,1,1
1778021836097,   829.255,   829.255, 0.017477,-0.023589,-0.995271, 0.000053,-0.000071,-0.002986,-0.003642, 0.024836, 0.041462,1, 0.002135, 0.000048,-0.000057,1,-0.175032, 0.256187, 9.801741,1,1
1778021836108,   829.264,   829.264, 0.017496,-0.023916,-0.995795, 0.000052,-0.000072,-0.002987,-0.003413, 0.021889, 0.036319,1, 0.002084,-0.000836, 0.000267,1,-0.174983, 0.256442, 9.801735,1,1
1778021836119,   829.273,   829.273, 0.017128,-0.023707,-0.995898, 0.000052,-0.000071,-0.002988,-0.007018, 0.024091, 0.035312,1, 0.001902,-0.000506,-0.000229,1,-0.174983, 0.256596, 9.801731,1,1
1778021836129,   829.282,   829.279, 0.017561,-0.023565,-0.994972, 0.000052,-0.000071,-0.002985,-0.006863, 0.021842, 0.041684,1, 0.001793,-0.000554,-0.000270,1,-0.174923, 0.256699, 9.801729,1,1
1778021836140,   829.291,   829.288, 0.018024,-0.023507,-0.995433, 0.000055,-0.000071,-0.002986, 0.002631, 0.022032, 0.033356,1, 0.001276, 0.000667,-0.000546,1,-0.174925, 0.256815, 9.801726,1,1
1778021836151,   829.297,   829.297, 0.017172,-0.023667,-0.995970, 0.000052,-0.000071,-0.002988,-0.006532, 0.024833, 0.034593,1, 0.001741,-0.000620,-0.000189,1,-0.174931, 0.256944, 9.801723,1,1
1778021836162,   829.309,   829.306, 0.018040,-0.023265,-0.995173, 0.000054,-0.000070,-0.002985,-0.000672, 0.032084, 0.043182,1, 0.002260,-0.000713,-0.000299,1,-0.174896, 0.257144, 9.801718,1,1
1778021836172,   829.318,   829.315, 0.018295,-0.023350,-0.995685, 0.000055,-0.000070,-0.002987,-0.000664, 0.029131, 0.046601,1, 0.003085, 0.000847, 0.000054,1,-0.174834, 0.256314, 9.801741,1,1
1778021836183,   829.324,   829.324, 0.018671,-0.023481,-0.996105, 0.000056,-0.000071,-0.002989, 0.008262, 0.026303, 0.033283,1, 0.002967, 0.000827, 0.000521,1,-0.174842, 0.256600, 9.801733,1,1
1778021836194,   829.333,   829.333, 0.019371,-0.023063,-0.995540, 0.000058,-0.000069,-0.002986, 0.015151, 0.030695, 0.038817,1, 0.003326, 0.000425, 0.000393,1,-0.174816, 0.256901, 9.801725,1,1
1778021836205,   829.342,   829.342, 0.019812,-0.023478,-0.994814, 0.000059,-0.000070,-0.002985, 0.019451, 0.026907, 0.045931,1, 0.002588,-0.000459,-0.000134,1,-0.174836, 0.257167, 9.801719,1,1
1778021836215,   829.351,   829.348, 0.018861,-0.023383,-0.995094, 0.000057,-0.000071,-0.002986, 0.005274, 0.026997, 0.045581,1, 0.003478, 0.000391,-0.000080,1,-0.174801, 0.257365, 9.801714,1,1
1778021836226,   829.360,   829.357, 0.018800,-0.023505,-0.995643, 0.000056,-0.000071,-0.002987, 0.008982, 0.029880, 0.035862,1, 0.003206,-0.000614,-0.000666,1,-0.174800, 0.257663, 9.801706,1,1
1778021836237,   829.369,   829.366, 0.018789,-0.023635,-0.995329, 0.000057,-0.000071,-0.002986, 0.006157, 0.031637, 0.037405,1, 0.003928,-0.000054,-0.000796,1,-0.174735, 0.258007, 9.801698,1,1
1778021836248,   829.378,   829.375, 0.018550,-0.023239,-0.994743, 0.000056,-0.000070,-0.002984, 0.013718, 0.030471, 0.049904,1, 0.004897,-0.001296,-0.000189,1,-0.174657, 0.258403, 9.801689,1,1
1778021836259,   829.387,   829.381, 0.019006,-0.023423,-0.995536, 0.000057,-0.000070,-0.002986, 0.004840, 0.026269, 0.043225,1, 0.006055, 0.000199, 0.000183,1,-0.174655, 0.258735, 9.801681,1,1
1778021836269,   829.393,   829.393, 0.018921,-0.023773,-0.994773, 0.000057,-0.000072,-0.002985, 0.010926, 0.026186, 0.046274,1, 0.005389,-0.001044,-0.000094,1,-0.174611, 0.259373, 9.801664,1,1
1778021836280,   829.402,   829.402, 0.018389,-0.024450,-0.994931, 0.000055,-0.000073,-0.002984, 0.005673, 0.020103, 0.044707,1, 0.006488, 0.001173, 0.000402,1,-0.174668, 0.259933, 9.801648,1,1
1778021836291,   829.411,   829.411, 0.019393,-0.024536,-0.995646, 0.000058,-0.000073,-0.002986, 0.015447, 0.019776, 0.037685,1, 0.006221, 0.001262, 0.001418,1,-0.174742, 0.260453, 9.801633,1,1
1778021836302,   829.420,   829.420, 0.018109,-0.024277,-0.994994, 0.000055,-0.000073,-0.002985, 0.002860, 0.022861, 0.044065,1, 0.006451, 0.000433, 0.000862,1,-0.174728, 0.260994, 9.801620,1,1
1778021836312,   829.429,   829.426, 0.019149,-0.024299,-0.995908, 0.000058,-0.000073,-0.002988, 0.002938, 0.024453, 0.042342,1, 0.005697,-0.000263,-0.000336,1,-0.174731, 0.261328, 9.801610,1,1
1778021836323,   829.438,   829.435, 0.018961,-0.024571,-0.995506, 0.000057,-0.000073,-0.002986, 0.014029, 0.019738, 0.038833,1, 0.004802, 0.000961,-0.000316,1,-0.174721, 0.261784, 9.801599,1,1
1778021836334,   829.447,   829.444, 0.019373,-0.023463,-0.994666, 0.000058,-0.000070,-0.002984, 0.017635, 0.031391, 0.038826,1, 0.004733, 0.000098, 0.000086,1,-0.174673, 0.262234, 9.801587,1,1
1778021836345,   829.456,   829.453, 0.019607,-0.024339,-0.995456, 0.000059,-0.000073,-0.002987, 0.014566, 0.026443, 0.043401,1, 0.005575,-0.000381,-0.000108,1,-0.174736, 0.262725, 9.801573,1,1
1778021836355,   829.465,   829.462, 0.018639,-0.023596,-0.995788, 0.000055,-0.000071,-0.002987, 0.011582, 0.026805, 0.035624,1, 0.005883, 0.000151, 0.000710,1,-0.174715, 0.263241, 9.801559,1,1
1778021836366,   829.471,   829.471, 0.019240,-0.024163,-0.995893, 0.000058,-0.000072,-0.002988, 0.014003, 0.026730, 0.035170,1, 0.005562,-0.000051, 0.000481,1,-0.174679, 0.263745, 9.801546,1,1
1778021836377,   829.480,   829.480, 0.019381,-0.024374,-0.995706, 0.000058,-0.000073,-0.002987, 0.015420, 0.025162, 0.036992,1, 0.005575,-0.000001, 0.000451,1,-0.174644, 0.264239, 9.801534,1,1
1778021836388,   829.489,   829.489, 0.019964,-0.024277,-0.994519, 0.000060,-0.000073,-0.002983, 0.021141, 0.026715, 0.048618,1, 0.006792,-0.000607,-0.000047,1,-0.174630, 0.264859, 9.801517,1,1
1778021836398,   829.498,   829.498, 0.018879,-0.025234,-0.994384, 0.000057,-0.000076,-0.002983, 0.010595, 0.017872, 0.049926,1, 0.005057,-0.001444, 0.000588,1,-0.174535, 0.265378, 9.801505,1,1
1778021836409,   829.507,   829.504, 0.019050,-0.025290,-0.995753, 0.000057,-0.000076,-0.002987, 0.016606, 0.016908, 0.044712,1, 0.007035,-0.000728,-0.000502,1,-0.174462, 0.265813, 9.801495,1,1
1778021836420,   829.561,   829.558, 0.017482,-0.025833,-0.995135, 0.000052,-0.000078,-0.002986, 0.002068, 0.025201, 0.048499,1, 0.009388,-0.001327, 0.000626,1,-0.174516, 0.268587, 9.801417,1,1
1778021836431,   829.570,   829.567, 0.016875,-0.025727,-0.996277, 0.000051,-0.000078,-0.002988, 0.006311, 0.028209, 0.042491,1, 0.009124,-0.001068, 0.000608,1,-0.174515, 0.269373, 9.801396,1,1
1778021836442,   829.579,   829.576, 0.018142,-0.025770,-0.994303, 0.000055,-0.000077,-0.002982, 0.007466, 0.023787, 0.041851,1, 0.008886, 0.000612, 0.000247,1,-0.174484, 0.270131, 9.801375,1,1
1778021836452,   829.588,   829.585, 0.017575,-0.027082,-0.993039, 0.000052,-0.000081,-0.002979, 0.000108, 0.013112, 0.061464,1, 0.007418, 0.000220, 0.000160,1,-0.174421, 0.270841, 9.801357,1,1
1778021836463,   829.597,   829.594, 0.017578,-0.026061,-0.995900, 0.000054,-0.000078,-0.002987,-0.003571, 0.007103, 0.038718,1, 0.006117,-0.000546, 0.000082,1,-0.174419, 0.271470, 9.801340,1,1
1778021836474,   829.603,   829.603, 0.016480,-0.026588,-0.996095, 0.000049,-0.000080,-0.002989,-0.012786, 0.011210, 0.032973,1, 0.006258,-0.000694, 0.000156,1,-0.174396, 0.272009, 9.801326,1,1
1778021836485,   829.612,   829.612, 0.017014,-0.026338,-0.995216, 0.000051,-0.000079,-0.002985,-0.007504, 0.014239, 0.041576,1, 0.006693, 0.000253,-0.000134,1,-0.174361, 0.272594, 9.801310,1,1
1778021836495,   829.621,   829.621, 0.016995,-0.025487,-0.994870, 0.000051,-0.000076,-0.002984,-0.007623, 0.023142, 0.044957,1, 0.005661,-0.000973,-0.000098,1,-0.174280, 0.273141, 9.801296,1,1
1778021836506,   829.630,   829.627, 0.017047,-0.025444,-0.995594, 0.000051,-0.000076,-0.002987,-0.003754, 0.027913, 0.054893,1, 0.005736, 0.000625,-0.000190,1,-0.174288, 0.273442, 9.801288,1,1
1778021836517,   829.639,   829.636, 0.016956,-0.025734,-0.996991, 0.000051,-0.000078,-0.002991,-0.000180, 0.026442, 0.029927,1, 0.006230,-0.000118, 0.000028,1,-0.174230, 0.273989, 9.801273,1,1
1778021836528,   829.648,   829.645, 0.017423,-0.025874,-0.994712, 0.000053,-0.000078,-0.002984,-0.009689, 0.016405, 0.036746,1, 0.006212, 0.000166,-0.000271,1,-0.174232, 0.274514, 9.801258,1,1
1778021836538,   829.657,   829.654, 0.017623,-0.026664,-0.994816, 0.000053,-0.000080,-0.002984,-0.003202, 0.014841, 0.049986,1, 0.005393,-0.001932,-0.000668,1,-0.174131, 0.274990, 9.801247,1,1
1778021836549,   829.666,   829.663, 0.016915,-0.027570,-0.995839, 0.000051,-0.000083,-0.002988,-0.009138, 0.011308, 0.034035,1, 0.004744, 0.000151,-0.000524,1,-0.174143, 0.275481, 9.801233,1,1
1778021836560,   829.672,   829.672, 0.017271,-0.027579,-0.995892, 0.000052,-0.000083,-0.002988,-0.004751, 0.005465, 0.034852,1, 0.006107,-0.000188, 0.000119,1,-0.174116, 0.275982, 9.801219,1,1
1778021836571,   829.681,   829.681, 0.017247,-0.027248,-0.996464, 0.000052,-0.000082,-0.002989,-0.005002, 0.009157, 0.029237,1, 0.004903, 0.000025, 0.000735,1,-0.174142, 0.276417, 9.801207,1,1
1778021836581,   829.690,   829.690, 0.017536,-0.027428,-0.994985, 0.000053,-0.000083,-0.002984,-0.002170, 0.007707, 0.043731,1, 0.003593, 0.000210,-0.000090,1,-0.174138, 0.276714, 9.801198,1,1
1778021836592,   829.699,   829.699, 0.017841,-0.026516,-0.994716, 0.000054,-0.000080,-0.002984, 0.000804, 0.016959, 0.046363,1, 0.003669,-0.000682,-0.000113,1,-0.174151, 0.277031, 9.801189,1,1
1778021836603,   829.708,   829.705, 0.017670,-0.026243,-0.995781, 0.000054,-0.000079,-0.002987, 0.002993, 0.015188, 0.041810,1, 0.003317,-0.000578, 0.000315,1,-0.174130, 0.277208, 9.801185,1,1
1778021836614,   829.717,   829.714, 0.017229,-0.026469,-0.994716, 0.000052,-0.000079,-0.002984,-0.000171, 0.018376, 0.037875,1, 0.001969,-0.000362, 0.000341,1,-0.174128, 0.276724, 9.801198,1,1
1778021836625,   829.726,   829.723, 0.018054,-0.026324,-0.995528, 0.000054,-0.000079,-0.002987,-0.003664, 0.016265, 0.044421,1, 0.002107,-0.000783,-0.000067,1,-0.174143, 0.276933, 9.801192,1,1
1778021836635,   829.735,   829.732, 0.017850,-0.027113,-0.994461, 0.000053,-0.000082,-0.002984,-0.000085, 0.016463, 0.050599,1, 0.002019,-0.001256, 0.000641,1,-0.174086, 0.277125, 9.801188,1,1
1778021836646,   829.744,   829.741, 0.017412,-0.027247,-0.995892, 0.000052,-0.000082,-0.002987,-0.000779, 0.016395, 0.040769,1, 0.001503, 0.000735,-0.000968,1,-0.174115, 0.277301, 9.801182,1,1
1778021836657,   829.750,   829.750, 0.017634,-0.026126,-0.996962, 0.000053,-0.000078,-0.002991,-0.001204, 0.021230, 0.024318,1, 0.001562, 0.000499, 0.000291,1,-0.174143, 0.277454, 9.801177,1,1
1778021836668,   829.759,   829.759, 0.018545,-0.026596,-0.995462, 0.000056,-0.000079,-0.002986, 0.007807, 0.016739, 0.039031,1, 0.001556,-0.001008,-0.000110,1,-0.174051, 0.277569, 9.801176,1,1
1778021836678,   829.768,   829.768, 0.018009,-0.026772,-0.995095, 0.000055,-0.000080,-0.002985, 0.002515, 0.015112, 0.042628,1, 0.001395, 0.001282, 0.000713,1,-0.174103, 0.277664, 9.801172,1,1
1778021836689,   829.777,   829.777, 0.017959,-0.026770,-0.994708, 0.000054,-0.000081,-0.002984, 0.002049, 0.015206, 0.046415,1, 0.001110,-0.000211, 0.000259,1,-0.174066, 0.277745, 9.801170,1,1
1778021836700,   829.786,   829.783, 0.018161,-0.025908,-0.995015, 0.000054,-0.000078,-0.002985, 0.010759, 0.026461, 0.048287,1, 0.002031, 0.000205,-0.000291,1,-0.174050, 0.277834, 9.801168,1,1
1778021836711,   829.795,   829.792, 0.018053,-0.026549,-0.994968, 0.000055,-0.000080,-0.002985, 0.009963, 0.026488, 0.041195,1, 0.001894, 0.000048, 0.000545,1,-0.174022, 0.277957, 9.801166,1,1
1778021836721,   829.882,   829.879, 0.018417,-0.027223,-0.995837, 0.000055,-0.000082,-0.002988, 0.000901, 0.017147, 0.033080,1, 0.001330, 0.000939,-0.001045,1,-0.174004, 0.279272, 9.801128,1,1
1778021836732,   829.891,   829.888, 0.017870,-0.026312,-0.995597, 0.000054,-0.000079,-0.002986, 0.008014, 0.016357, 0.041946,1,-0.000119,-0.000031,-0.000016,1,-0.174003, 0.279331, 9.801126,1,1
1778021836743,   829.900,   829.897, 0.018594,-0.027153,-0.995143, 0.000056,-0.000082,-0.002985, 0.003962, 0.015752, 0.041277,1, 0.000438, 0.000207,-0.000764,1,-0.174018, 0.279324, 9.801126,1,1
1778021836754,   829.909,   829.906, 0.018280,-0.027337,-0.995704, 0.000055,-0.000082,-0.002987, 0.004909, 0.023772, 0.030832,1, 0.001163, 0.000684,-0.000298,1,-0.174017, 0.279355, 9.801126,1,1
1778021836764,   829.915,   829.915, 0.017366,-0.026364,-0.995616, 0.000052,-0.000080,-0.002987,-0.003855, 0.020212, 0.037483,1,-0.000056,-0.000208,-0.000506,1,-0.174165, 0.278730, 9.801141,1,1
1778021836775,   829.924,   829.924, 0.017702,-0.026333,-0.995843, 0.000053,-0.000079,-0.002988,-0.000647, 0.020541, 0.035257,1, 0.000847, 0.000133, 0.000331,1,-0.174241, 0.278786, 9.801138,1,1
1778021836786,   829.933,   829.933, 0.017647,-0.026182,-0.995115, 0.000054,-0.000078,-0.002986,-0.001174, 0.022057, 0.042393,1, 0.000893,-0.000889, 0.000089,1,-0.174228, 0.278822, 9.801137,1,1
1778021836797,   829.942,   829.942, 0.017828,-0.026168,-0.995375, 0.000054,-0.000079,-0.002987, 0.000640, 0.022137, 0.039846,1,-0.000775,-0.000263,-0.000060,1,-0.174194, 0.278745, 9.801140,1,1
1778021836808,   829.951,   829.948, 0.018359,-0.027192,-0.995487, 0.000055,-0.000082,-0.002986,-0.002194, 0.019322, 0.040707,1,-0.001245,-0.000794,-0.000928,1,-0.174166, 0.278675, 9.801143,1,1
1778021836818,   829.960,   829.957, 0.018030,-0.026882,-0.994829, 0.000054,-0.000080,-0.002984, 0.001776, 0.015865, 0.043451,1,-0.000391, 0.000208, 0.000141,1,-0.174192, 0.278652, 9.801143,1,1
1778021836829,   829.969,   829.966, 0.017502,-0.026391,-0.995096, 0.000053,-0.000079,-0.002985, 0.002121, 0.013494, 0.040312,1, 0.000627,-0.000801,-0.000392,1,-0.174177, 0.278598, 9.801145,1,1
1778021836840,   829.978,   829.975, 0.017010,-0.026320,-0.994944, 0.000051,-0.000078,-0.002985,-0.011842, 0.016766, 0.046850,1,-0.001026,-0.000795,-0.000203,1,-0.174130, 0.278521, 9.801147,1,1
1778021836851,   829.984,   829.984, 0.017599,-0.027323,-0.995979, 0.000053,-0.000082,-0.002988,-0.001525, 0.010580, 0.033932,1,-0.000367,-0.000250,-0.000369,1,-0.174109, 0.278523, 9.801147,1,1
1778021836861,   829.993,   829.993, 0.017965,-0.026657,-0.996187, 0.000054,-0.000080,-0.002989, 0.002055, 0.016983, 0.031893,1,-0.001804,-0.000731,-0.000614,1,-0.174111, 0.278380, 9.801151,1,1
1778021836872,   830.002,   830.002, 0.017151,-0.026870,-0.995911, 0.000050,-0.000081,-0.002988,-0.005928, 0.014767, 0.034607,1,-0.002066, 0.000090,-0.000789,1,-0.174123, 0.278257, 9.801155,1,1
1778021836883,   830.011,   830.011, 0.018150,-0.026424,-0.995192, 0.000054,-0.000079,-0.002986, 0.003859, 0.018984, 0.041660,1,-0.001387,-0.000878,-0.000421,1,-0.174120, 0.278103, 9.801160,1,1
1778021836894,   830.020,   830.017, 0.017934,-0.025297,-0.995404, 0.000053,-0.000076,-0.002985,-0.002686, 0.016939, 0.042522,1,-0.000874,-0.000088, 0.000160,1,-0.174119, 0.278035, 9.801162,1,1
1778021836904,   830.029,   830.026, 0.018121,-0.026310,-0.994842, 0.000054,-0.000079,-0.002984, 0.004889, 0.016183, 0.044470,1,-0.002245,-0.000720,-0.000199,1,-0.174042, 0.277871, 9.801167,1,1
1778021836915,   830.038,   830.035, 0.017961,-0.026608,-0.996002, 0.000054,-0.000080,-0.002988, 0.003860, 0.013895, 0.038824,1,-0.000937,-0.000169,-0.000093,1,-0.174004, 0.277785, 9.801170,1,1
1778021836926,   830.047,   830.044, 0.017769,-0.026253,-0.994989, 0.000054,-0.000079,-0.002985, 0.001938, 0.024200, 0.040576,1,-0.000620,-0.001301,-0.000502,1,-0.173971, 0.277670, 9.801174,1,1
1778021836937,   830.056,   830.053, 0.017592,-0.026649,-0.995575, 0.000053,-0.000080,-0.002987,-0.001971, 0.015478, 0.041650,1,-0.001100,-0.000021, 0.000496,1,-0.173935, 0.277515, 9.801179,1,1
1778021836947,   830.062,   830.062, 0.017556,-0.026824,-0.996318, 0.000053,-0.000080,-0.002989,-0.001824, 0.014263, 0.030647,1,-0.002822, 0.000385,-0.000185,1,-0.173988, 0.277285, 9.801185,1,1
1778021836958,   830.071,   830.071, 0.017818,-0.027039,-0.994238, 0.000054,-0.000081,-0.002983, 0.000752, 0.011862, 0.051046,1,-0.004111,-0.000158,-0.000408,1,-0.173979, 0.276984, 9.801193,1,1
1778021836969,   830.080,   830.080, 0.017750,-0.026569,-0.994405, 0.000053,-0.000080,-0.002983, 0.000067, 0.016106, 0.049419,1,-0.003917,-0.000672,-0.000454,1,-0.173994, 0.276627, 9.801204,1,1
1778021836980,   830.089,   830.089, 0.017981,-0.026049,-0.995953, 0.000054,-0.000078,-0.002988, 0.002327, 0.020887, 0.034244,1,-0.003568, 0.000892,-0.000311,1,-0.174013, 0.276308, 9.801212,1,1
1778021836991,   830.098,   830.095, 0.017556,-0.026447,-0.994374, 0.000053,-0.000079,-0.002983, 0.004175, 0.018050, 0.043782,1,-0.003136,-0.000339, 0.000567,1,-0.174040, 0.276125, 9.801217,1,1
1778021837001,   830.107,   830.104, 0.017703,-0.025771,-0.995089, 0.000053,-0.000077,-0.002985,-0.000629, 0.018339, 0.035468,1,-0.004403, 0.001586,-0.000217,1,-0.174121, 0.275730, 9.801227,1,1
1778021837012,   830.116,   830.113, 0.017337,-0.025023,-0.995419, 0.000052,-0.000075,-0.002986,-0.003534, 0.020962, 0.039829,1,-0.003953, 0.000466,-0.000376,1,-0.174222, 0.274755, 9.801252,1,1
1778021837023,   830.125,   830.122, 0.017644,-0.024943,-0.995601, 0.000053,-0.000075,-0.002987,-0.005409, 0.026485, 0.042323,1,-0.003191,-0.000462,-0.000148,1,-0.174200, 0.274475, 9.801260,1,1
1778021837034,   830.176,   830.128, 0.017888,-0.026104,-0.995145, 0.000053,-0.000078,-0.002986,-0.003451, 0.028083, 0.039586,1,-0.002424, 0.000497, 0.000519,1,-0.174207, 0.274289, 9.801266,1,1
1778021837044,   830.185,   830.182, 0.018099,-0.025635,-0.994763, 0.000054,-0.000078,-0.002984, 0.004464, 0.021573, 0.042482,1,-0.003543,-0.000088,-0.000370,1,-0.174330, 0.272756, 9.801306,1,1
1778021837055,   830.191,   830.191, 0.017863,-0.025854,-0.995550, 0.000053,-0.000078,-0.002987, 0.000790, 0.019012, 0.038295,1,-0.002650,-0.000017, 0.000125,1,-0.174389, 0.272526, 9.801311,1,1
1778021837066,   830.200,   830.200, 0.018739,-0.024682,-0.995822, 0.000056,-0.000073,-0.002988, 0.009351, 0.030245, 0.035637,1,-0.003828, 0.000333,-0.000892,1,-0.174418, 0.272255, 9.801318,1,1
1778021837077,   830.209,   830.209, 0.018590,-0.024775,-0.995165, 0.000056,-0.000074,-0.002985, 0.007872, 0.029052, 0.042092,1,-0.002032,-0.000277,-0.000548,1,-0.174435, 0.271993, 9.801325,1,1
1778021837087,   830.218,   830.218, 0.018170,-0.025659,-0.994774, 0.000055,-0.000077,-0.002984, 0.003756, 0.020124, 0.045932,1,-0.002151, 0.000976,-0.000156,1,-0.174444, 0.271730, 9.801332,1,1
1778021837098,   830.227,   830.224, 0.018811,-0.026246,-0.995227, 0.000057,-0.000079,-0.002986, 0.008711, 0.014775, 0.044571,1,-0.002870, 0.000285,-0.000163,1,-0.174452, 0.271575, 9.801336,1,1
1778021837109,   830.236,   830.233, 0.018802,-0.026994,-0.995497, 0.000056,-0.000081,-0.002987, 0.008996, 0.015219, 0.032501,1,-0.002167, 0.000113, 0.000230,1,-0.174500, 0.271421, 9.801340,1,1
1778021837120,   830.245,   830.242, 0.018979,-0.026613,-0.996113, 0.000058,-0.000080,-0.002988, 0.015938, 0.012977, 0.036622,1,-0.002006, 0.000215,-0.000986,1,-0.174487, 0.271190, 9.801347,1,1
1778021837130,   830.254,   830.251, 0.018073,-0.025567,-0.995704, 0.000054,-0.000076,-0.002987, 0.016149, 0.016563, 0.036117,1,-0.003803, 0.001577,-0.000815,1,-0.174550, 0.270877, 9.801354,1,1
1778021837141,   830.260,   830.260, 0.018305,-0.025122,-0.995656, 0.000055,-0.000075,-0.002987, 0.004907, 0.024209, 0.037309,1,-0.003874,-0.000374,-0.000122,1,-0.174603, 0.270534, 9.801363,1,1
1778021837152,   830.269,   830.269, 0.018977,-0.025299,-0.995485, 0.000057,-0.000076,-0.002987, 0.011474, 0.022081, 0.038998,1,-0.004530, 0.000029,-0.000655,1,-0.174630, 0.270141, 9.801373,1,1
1778021837163,   830.278,   830.278, 0.019083,-0.025135,-0.995362, 0.000058,-0.000076,-0.002986, 0.012496, 0.023291, 0.040213,1,-0.004583,-0.001019, 0.000150,1,-0.174634, 0.269740, 9.801384,1,1
1778021837173,   830.287,   830.287, 0.018374,-0.024911,-0.994898, 0.000055,-0.000074,-0.002985, 0.005545, 0.025235, 0.044772,1,-0.003871,-0.000275,-0.000102,1,-0.174643, 0.269489, 9.801391,1,1
1778021837184,   830.296,   830.293, 0.018590,-0.025933,-0.995025, 0.000056,-0.000078,-0.002985, 0.007413, 0.017008, 0.042207,1,-0.002835,-0.000096,-0.000325,1,-0.174668, 0.269316, 9.801395,1,1
1778021837195,   830.305,   830.302, 0.018912,-0.026298,-0.996301, 0.000057,-0.000079,-0.002989, 0.006315, 0.020228, 0.039205,1,-0.002402,-0.000092, 0.000391,1,-0.174691, 0.269105, 9.801400,1,1
1778021837206,   830.314,   830.311, 0.018631,-0.026132,-0.995180, 0.000056,-0.000079,-0.002985, 0.010091, 0.007117, 0.034525,1,-0.004194, 0.000114,-0.000220,1,-0.174837, 0.268039, 9.801427,1,1
1778021837217,   830.323,   830.320, 0.018371,-0.024809,-0.995049, 0.000055,-0.000075,-0.002986, 0.006020, 0.012171, 0.036361,1,-0.004228, 0.000925,-0.000544,1,-0.174931, 0.267719, 9.801435,1,1
1778021837227,   830.332,   830.329, 0.018227,-0.025590,-0.995290, 0.000055,-0.000076,-0.002986, 0.006437, 0.018593, 0.044913,1,-0.004473,-0.000320,-0.000665,1,-0.174987, 0.267294, 9.801445,1,1
1778021837238,   830.338,   830.338, 0.018634,-0.025130,-0.995875, 0.000056,-0.000075,-0.002988, 0.007670, 0.020562, 0.035251,1,-0.003597, 0.001492,-0.000190,1,-0.175079, 0.266967, 9.801452,1,1
1778021837249,   830.347,   830.347, 0.018189,-0.023972,-0.995771, 0.000055,-0.000072,-0.002987, 0.003217, 0.031562, 0.036277,1,-0.004292, 0.001639, 0.000518,1,-0.175169, 0.266605, 9.801460,1,1
1778021837260,   830.356,   830.356, 0.017466,-0.024193,-0.995011, 0.000052,-0.000072,-0.002985,-0.003914, 0.029102, 0.043737,1,-0.003058, 0.000432, 0.000477,1,-0.175197, 0.266326, 9.801467,1,1
1778021837270,   830.365,   830.365, 0.018682,-0.024947,-0.994115, 0.000056,-0.000074,-0.002982, 0.008021, 0.021500, 0.052534,1,-0.001510, 0.000060,-0.000527,1,-0.175192, 0.266131, 9.801473,1,1
1778021837281,   830.374,   830.371, 0.018081,-0.025346,-0.994778, 0.000055,-0.000076,-0.002984,-0.001300, 0.019892, 0.050476,1,-0.002392,-0.001049,-0.000212,1,-0.175169, 0.265992, 9.801476,1,1
1778021837292,   830.383,   830.380, 0.017946,-0.024925,-0.995449, 0.000053,-0.000075,-0.002986,-0.009275, 0.013621, 0.037272,1,-0.003308,-0.000136,-0.000522,1,-0.175207, 0.265753, 9.801482,1,1
1778021837303,   830.392,   830.389, 0.017718,-0.024966,-0.996144, 0.000053,-0.000075,-0.002988, 0.007324, 0.020461, 0.034076,1,-0.003570,-0.000657, 0.000180,1,-0.175190, 0.265444, 9.801492,1,1
1778021837313,   830.401,   830.398, 0.017753,-0.024604,-0.995057, 0.000053,-0.000074,-0.002985, 0.001113, 0.017201, 0.037755,1,-0.003467,-0.000219,-0.000823,1,-0.175209, 0.265118, 9.801499,1,1
1778021837324,   830.410,   830.407, 0.017770,-0.023881,-0.995074, 0.000054,-0.000071,-0.002985, 0.004385, 0.031405, 0.042080,1,-0.003113, 0.000476,-0.000453,1,-0.175202, 0.264836, 9.801508,1,1
1778021837335,   830.497,   830.413, 0.018207,-0.023454,-0.995143, 0.000054,-0.000070,-0.002985, 0.000459, 0.031456, 0.045232,1,-0.002639, 0.000614,-0.000390,1,-0.175218, 0.264653, 9.801512,1,1
1778021837346,   830.503,   830.503, 0.017973,-0.023390,-0.995414, 0.000054,-0.000070,-0.002987, 0.000908, 0.033740, 0.039873,1,-0.000312,-0.000835,-0.000291,1,-0.175339, 0.263112, 9.801552,1,1
1778021837356,   830.512,   830.512, 0.018174,-0.023512,-0.994120, 0.000054,-0.000070,-0.002981, 0.002856, 0.031961, 0.052581,1, 0.001059,-0.000035,-0.000727,1,-0.175391, 0.262347, 9.801571,1,1
1778021837367,   830.521,   830.521, 0.017740,-0.024402,-0.995081, 0.000053,-0.000073,-0.002985,-0.001439, 0.023203, 0.043153,1, 0.000362, 0.000207,-0.000844,1,-0.175415, 0.262508, 9.801566,1,1
1778021837378,   830.530,   830.530, 0.017648,-0.023740,-0.995523, 0.000054,-0.000071,-0.002987,-0.002378, 0.029756, 0.038821,1, 0.000133,-0.000224,-0.000038,1,-0.175447, 0.262563, 9.801564,1,1
1778021837389,   830.539,   830.536, 0.018394,-0.024547,-0.995712, 0.000055,-0.000074,-0.002988, 0.000680, 0.017890, 0.031657,1, 0.000133,-0.000642, 0.000160,1,-0.175422, 0.262547, 9.801565,1,1
1778021837400,   830.548,   830.545, 0.018031,-0.025004,-0.995634, 0.000054,-0.000075,-0.002987, 0.000973, 0.015025, 0.036342,1,-0.000303, 0.001019, 0.000897,1,-0.175450, 0.262573, 9.801564,1,1
1778021837410,   830.557,   830.554, 0.018610,-0.023459,-0.995703, 0.000056,-0.000070,-0.002987, 0.003799, 0.025584, 0.042555,1, 0.000689,-0.000892,-0.000537,1,-0.175391, 0.262643, 9.801563,1,1
1778021837421,   830.566,   830.563, 0.018298,-0.024360,-0.995302, 0.000055,-0.000073,-0.002987,-0.000452, 0.029969, 0.037703,1, 0.001733, 0.000167,-0.000012,1,-0.175357, 0.262727, 9.801561,1,1
1778021837432,   830.575,   830.572, 0.018307,-0.024662,-0.994899, 0.000055,-0.000074,-0.002985, 0.007266, 0.022096, 0.040961,1, 0.001740,-0.000024, 0.000045,1,-0.175381, 0.262914, 9.801556,1,1
1778021837443,   830.581,   830.581, 0.018469,-0.024592,-0.995641, 0.000055,-0.000073,-0.002987, 0.005758, 0.021997, 0.037650,1, 0.003190,-0.000235,-0.000486,1,-0.175364, 0.263188, 9.801549,1,1
1778021837453,   830.590,   830.590, 0.018137,-0.024982,-0.994901, 0.000054,-0.000075,-0.002984, 0.002492, 0.018382, 0.044895,1, 0.001581,-0.000284,-0.000391,1,-0.175367, 0.263386, 9.801543,1,1
1778021837464,   830.599,   830.599, 0.017766,-0.024856,-0.994809, 0.000054,-0.000075,-0.002984,-0.001097, 0.019818, 0.045793,1, 0.001549,-0.001254, 0.000406,1,-0.175313, 0.263586, 9.801539,1,1
1778021837475,   830.608,   830.605, 0.018903,-0.024334,-0.996449, 0.000057,-0.000073,-0.002989, 0.006859, 0.018447, 0.039267,1, 0.001530, 0.000198, 0.000120,1,-0.175300, 0.263671, 9.801538,1,1
1778021837486,   830.617,   830.614, 0.018645,-0.024249,-0.996588, 0.000056,-0.000073,-0.002989, 0.007261, 0.026025, 0.027871,1, 0.000734, 0.000244,-0.000107,1,-0.175347, 0.263806, 9.801533,1,1
1778021837496,   830.626,   830.623, 0.019004,-0.024133,-0.995683, 0.000057,-0.000073,-0.002987, 0.004767, 0.027936, 0.023077,1, 0.001808,-0.000397, 0.000254,1,-0.175357, 0.264001, 9.801527,1,1
1778021837507,   830.635,   830.632, 0.019357,-0.023727,-0.994491, 0.000058,-0.000071,-0.002984, 0.006591, 0.030419, 0.042460,1, 0.003976, 0.000019,-0.000903,1,-0.175374, 0.264327, 9.801518,1,1
1778021837518,   830.644,   830.641, 0.018309,-0.024639,-0.995138, 0.000056,-0.000074,-0.002985, 0.010953, 0.028791, 0.045512,1, 0.004717,-0.000762,-0.000633,1,-0.175369, 0.264702, 9.801508,1,1
1778021837529,   830.650,   830.650, 0.018956,-0.024233,-0.994580, 0.000057,-0.000072,-0.002984, 0.010506, 0.027394, 0.047998,1, 0.005051,-0.000311, 0.000156,1,-0.175384, 0.265087, 9.801497,1,1
1778021837540,   830.659,   830.659, 0.018552,-0.024732,-0.995461, 0.000056,-0.000074,-0.002986, 0.006542, 0.022931, 0.039351,1, 0.004352, 0.000035,-0.000431,1,-0.175393, 0.265507, 9.801486,1,1
1778021837550,   830.668,   830.668, 0.018539,-0.024958,-0.994712, 0.000056,-0.000075,-0.002985, 0.006396, 0.021108, 0.046687,1, 0.004360, 0.000677,-0.000556,1,-0.175418, 0.265903, 9.801475,1,1
1778021837561,   830.677,   830.677, 0.018359,-0.024557,-0.994782, 0.000056,-0.000074,-0.002984, 0.004624, 0.025467, 0.045982,1, 0.005660,-0.000253,-0.000997,1,-0.175415, 0.266339, 9.801463,1,1
1778021837572,   830.686,   830.683, 0.018441,-0.024952,-0.994667, 0.000055,-0.000075,-0.002985, 0.004908, 0.022979, 0.048744,1, 0.005755, 0.000597,-0.000020,1,-0.175417, 0.266648, 9.801455,1,1
1778021837583,   830.695,   830.692, 0.017759,-0.024829,-0.996308, 0.000053,-0.000075,-0.002989,-0.006830, 0.025497, 0.038343,1, 0.005624,-0.001043,-0.000204,1,-0.175386, 0.267163, 9.801441,1,1
1778021837593,   830.704,   830.701, 0.018138,-0.025063,-0.995769, 0.000055,-0.000075,-0.002988,-0.002567, 0.019648, 0.034910,1, 0.006195,-0.001135, 0.000472,1,-0.175343, 0.267665, 9.801428,1,1
1778021837604,   830.713,   830.707, 0.017539,-0.025181,-0.995398, 0.000052,-0.000075,-0.002986,-0.011176, 0.024919, 0.037696,1, 0.005687,-0.000389, 0.000078,1,-0.175322, 0.268034, 9.801418,1,1
1778021837615,   830.722,   830.719, 0.017505,-0.025673,-0.995027, 0.000052,-0.000077,-0.002985,-0.004964, 0.018745, 0.047110,1, 0.005663, 0.000445, 0.000429,1,-0.175525, 0.267866, 9.801419,1,1
1778021837626,   830.728,   830.728, 0.016770,-0.025112,-0.994586, 0.000050,-0.000076,-0.002984,-0.011048, 0.022070, 0.047850,1, 0.004983,-0.000905,-0.000254,1,-0.175496, 0.268382, 9.801406,1,1
1778021837636,   830.737,   830.737, 0.017719,-0.024971,-0.995172, 0.000054,-0.000075,-0.002986,-0.001761, 0.023937, 0.042090,1, 0.005604, 0.000583, 0.000060,1,-0.175525, 0.268870, 9.801392,1,1
1778021837647,   830.746,   830.746, 0.017217,-0.025256,-0.994990, 0.000051,-0.000076,-0.002984,-0.006702, 0.021617, 0.043860,1, 0.004343, 0.000451, 0.000156,1,-0.175548, 0.269332, 9.801379,1,1
1778021837658,   830.800,   830.797, 0.019009,-0.024947,-0.994960, 0.000057,-0.000075,-0.002985, 0.011228, 0.025625, 0.047266,1, 0.007546,-0.000718,-0.000143,1,-0.175384, 0.272300, 9.801300,1,1
1778021837669,   830.809,   830.806, 0.018924,-0.025935,-0.994976, 0.000057,-0.000078,-0.002985, 0.013407, 0.021425, 0.040887,1, 0.007809,-0.000405, 0.000403,1,-0.175321, 0.272954, 9.801283,1,1
1778021837679,   830.815,   830.815, 0.019108,-0.026020,-0.995218, 0.000058,-0.000077,-0.002986, 0.012133, 0.018397, 0.041515,1, 0.008041,-0.000453, 0.000271,1,-0.175249, 0.273641, 9.801265,1,1
1778021837690,   830.824,   830.824, 0.019345,-0.026158,-0.995721, 0.000058,-0.000079,-0.002987, 0.014507, 0.017702, 0.036565,1, 0.007451,-0.001129, 0.000553,1,-0.175190, 0.274294, 9.801248,1,1
1778021837701,   830.833,   830.833, 0.018458,-0.025976,-0.995230, 0.000055,-0.000078,-0.002986, 0.005876, 0.020114, 0.041359,1, 0.006897,-0.001113, 0.001122,1,-0.175121, 0.274914, 9.801231,1,1
1778021837712,   830.842,   830.842, 0.018681,-0.026950,-0.995818, 0.000056,-0.000081,-0.002988, 0.008090, 0.011149, 0.035573,1, 0.007366,-0.000026, 0.000895,1,-0.175108, 0.275510, 9.801215,1,1
1778021837722,   830.851,   830.848, 0.018533,-0.026434,-0.994017, 0.000056,-0.000079,-0.002982, 0.010767, 0.016014, 0.053863,1, 0.006128,-0.000150,-0.000026,1,-0.175058, 0.275878, 9.801206,1,1
1778021837733,   830.860,   830.857, 0.018651,-0.026886,-0.994280, 0.000056,-0.000081,-0.002983, 0.004996, 0.016278, 0.051129,1, 0.006687, 0.000689,-0.000032,1,-0.175088, 0.276503, 9.801188,1,1
1778021837744,   830.869,   830.866, 0.018280,-0.026760,-0.995107, 0.000055,-0.000080,-0.002985, 0.008854, 0.013914, 0.037804,1, 0.005567,-0.001423, 0.000264,1,-0.175084, 0.277100, 9.801170,1,1
1778021837755,   830.878,   830.875, 0.018519,-0.027481,-0.996767, 0.000055,-0.000082,-0.002990, 0.004207, 0.009382, 0.031004,1, 0.006976,-0.000035,-0.000122,1,-0.175048, 0.277698, 9.801154,1,1
1778021837766,   830.884,   830.884, 0.018280,-0.027632,-0.995164, 0.000055,-0.000082,-0.002985, 0.004258, 0.007199, 0.041913,1, 0.005255,-0.000431,-0.000306,1,-0.175008, 0.278223, 9.801140,1,1
1778021837776,   830.893,   830.893, 0.018700,-0.027461,-0.994454, 0.000056,-0.000082,-0.002983, 0.008417, 0.009389, 0.048861,1, 0.005169,-0.001297, 0.000144,1,-0.174960, 0.278740, 9.801126,1,1
1778021837787,   830.902,   830.902, 0.018312,-0.027563,-0.995062, 0.000055,-0.000083,-0.002985, 0.004665, 0.008854, 0.042894,1, 0.006309,-0.000513, 0.000502,1,-0.174914, 0.279214, 9.801114,1,1
1778021837798,   830.911,   830.911, 0.018024,-0.027584,-0.995635, 0.000054,-0.000083,-0.002987, 0.001745, 0.008751, 0.037264,1, 0.004621, 0.000082, 0.000733,1,-0.175092, 0.278985, 9.801117,1,1
1778021837809,   830.920,   830.917, 0.017451,-0.027246,-0.995602, 0.000052,-0.000082,-0.002988,-0.004074, 0.017957, 0.036644,1, 0.004816,-0.000846, 0.000256,1,-0.175072, 0.279243, 9.801110,1,1
1778021837819,   830.929,   830.926, 0.017849,-0.027098,-0.995618, 0.000053,-0.000081,-0.002987,-0.001268, 0.011814, 0.037268,1, 0.004021, 0.000826,-0.000082,1,-0.175124, 0.279609, 9.801099,1,1
1778021837830,   830.938,   830.935, 0.017755,-0.028021,-0.994603, 0.000053,-0.000084,-0.002984,-0.003877, 0.007599, 0.045740,1, 0.004944,-0.000301,-0.000386,1,-0.175108, 0.279992, 9.801088,1,1
1778021837841,   830.947,   830.944, 0.017249,-0.027993,-0.995478, 0.000051,-0.000084,-0.002987,-0.013659, 0.005117, 0.042103,1, 0.004192, 0.000734,-0.000079,1,-0.175145, 0.280342, 9.801077,1,1
1778021837852,   830.956,   830.953, 0.017474,-0.028378,-0.995797, 0.000053,-0.000085,-0.002987,-0.003292, 0.002549, 0.042232,1, 0.002082,-0.000942,-0.000063,1,-0.175141, 0.280561, 9.801071,1,1
1778021837862,   830.962,   830.962, 0.017403,-0.028443,-0.995722, 0.000053,-0.000085,-0.002988,-0.004453, 0.001797, 0.036367,1, 0.002605, 0.000173, 0.000043,1,-0.175115, 0.280751, 9.801066,1,1
1778021837873,   830.971,   830.971, 0.017240,-0.027688,-0.995218, 0.000052,-0.000083,-0.002986,-0.006011, 0.009347, 0.041307,1, 0.000727,-0.000774, 0.000763,1,-0.175069, 0.280880, 9.801064,1,1
1778021837884,   830.980,   830.980, 0.017585,-0.027941,-0.994859, 0.000053,-0.000084,-0.002984,-0.002598, 0.006909, 0.044829,1, 0.000825,-0.001356, 0.000877,1,-0.175033, 0.280929, 9.801063,1,1
1778021837895,   830.989,   830.989, 0.016820,-0.027225,-0.995034, 0.000051,-0.000082,-0.002985,-0.010054, 0.013973, 0.043116,1, 0.000328,-0.001430,-0.000579,1,-0.174992, 0.280965, 9.801063,1,1
1778021837905,   830.998,   830.995, 0.017118,-0.027681,-0.995776, 0.000051,-0.000083,-0.002988,-0.008043, 0.007827, 0.036610,1,-0.000386,-0.000914,-0.000083,1,-0.174958, 0.280974, 9.801063,1,1
1778021837916,   831.007,   831.004, 0.017529,-0.027431,-0.995929, 0.000053,-0.000083,-0.002988,-0.000308, 0.006928, 0.034473,1, 0.000038,-0.000608, 0.000736,1,-0.174878, 0.280973, 9.801064,1,1
1778021837927,   831.016,   831.013, 0.017665,-0.027959,-0.996589, 0.000053,-0.000083,-0.002990,-0.009594, 0.005725, 0.031680,1,-0.000073, 0.001052, 0.000098,1,-0.174906, 0.280972, 9.801064,1,1
1778021837938,   831.025,   831.022, 0.017502,-0.028474,-0.995108, 0.000052,-0.000085,-0.002985,-0.008123, 0.004240, 0.026362,1,-0.001992, 0.000088,-0.000118,1,-0.174972, 0.280845, 9.801066,1,1
1778021837949,   831.034,   831.031, 0.016909,-0.028328,-0.993862, 0.000051,-0.000085,-0.002982,-0.009714, 0.003710, 0.047996,1,-0.002901, 0.001055,-0.000590,1,-0.175036, 0.280667, 9.801070,1,1
1778021837959,   831.118,   831.118, 0.017998,-0.027398,-0.993744, 0.000054,-0.000082,-0.002981, 0.001452, 0.007861, 0.055891,1,-0.006642,-0.000063,-0.000500,1,-0.175048, 0.276481, 9.801188,1,1
1778021837970,   831.127,   831.124, 0.018967,-0.026816,-0.993160, 0.000057,-0.000081,-0.002979, 0.003415, 0.001430, 0.055162,1,-0.007360, 0.000906,-0.000523,1,-0.175057, 0.276093, 9.801200,1,1
1778021837981,   831.136,   831.133, 0.019100,-0.025644,-0.993969, 0.000058,-0.000077,-0.002982, 0.013282, 0.020543, 0.051880,1,-0.009433, 0.000153,-0.000733,1,-0.175073, 0.275336, 9.801221,1,1
1778021837992,   831.145,   831.142, 0.019102,-0.026471,-0.995830, 0.000057,-0.000079,-0.002987, 0.009333, 0.018249, 0.045726,1,-0.008454,-0.000205,-0.001055,1,-0.175059, 0.274631, 9.801241,1,1
1778021838002,   831.154,   831.151, 0.019737,-0.025872,-0.997128, 0.000059,-0.000078,-0.002992, 0.018291, 0.019317, 0.022766,1,-0.008171,-0.000308,-0.000003,1,-0.175029, 0.273873, 9.801262,1,1
1778021838013,   831.163,   831.160, 0.019669,-0.026392,-0.995088, 0.000059,-0.000079,-0.002985, 0.019921, 0.010825, 0.033640,1,-0.008483,-0.000545, 0.000237,1,-0.175038, 0.273203, 9.801281,1,1
1778021838024,   831.169,   831.169, 0.019354,-0.026147,-0.994235, 0.000058,-0.000079,-0.002982, 0.014729, 0.016302, 0.051177,1,-0.007280, 0.000824,-0.000508,1,-0.175079, 0.272646, 9.801295,1,1
1778021838035,   831.178,   831.178, 0.019388,-0.026898,-0.995623, 0.000058,-0.000081,-0.002987, 0.015043, 0.008332, 0.037585,1,-0.006577,-0.000181,-0.001074,1,-0.175084, 0.272045, 9.801312,1,1
1778021838045,   831.187,   831.187, 0.018952,-0.026510,-0.995223, 0.000056,-0.000080,-0.002986, 0.010729, 0.011548, 0.041526,1,-0.006565, 0.000434,-0.001330,1,-0.175130, 0.271459, 9.801328,1,1
1778021838056,   831.196,   831.196, 0.019623,-0.026197,-0.995275, 0.000059,-0.000079,-0.002986, 0.017244, 0.013973, 0.041025,1,-0.008470, 0.002134,-0.001402,1,-0.175214, 0.270798, 9.801345,1,1
1778021838067,   831.205,   831.202, 0.018896,-0.026095,-0.995318, 0.000057,-0.000079,-0.002986, 0.006938, 0.010946, 0.040709,1,-0.008649, 0.000314,-0.000636,1,-0.175257, 0.270340, 9.801356,1,1
1778021838078,   831.214,   831.211, 0.017992,-0.025703,-0.994643, 0.000054,-0.000077,-0.002984, 0.006679, 0.021259, 0.051759,1,-0.009759,-0.000283,-0.000547,1,-0.175234, 0.269479, 9.801380,1,1
1778021838088,   831.223,   831.220, 0.018266,-0.025248,-0.996055, 0.000055,-0.000076,-0.002988, 0.011163, 0.020650, 0.042511,1,-0.008939, 0.000757,-0.000485,1,-0.175270, 0.268699, 9.801401,1,1
1778021838099,   831.232,   831.229, 0.017984,-0.024887,-0.995214, 0.000054,-0.000075,-0.002985, 0.009035, 0.021034, 0.044041,1,-0.007334,-0.000180,-0.000502,1,-0.175242, 0.268017, 9.801420,1,1
1778021838110,   831.238,   831.238, 0.018594,-0.024564,-0.995999, 0.000056,-0.000073,-0.002988, 0.007125, 0.026586, 0.034022,1,-0.006169, 0.000152,-0.000055,1,-0.175218, 0.267415, 9.801437,1,1
1778021838121,   831.247,   831.247, 0.017620,-0.025036,-0.995651, 0.000052,-0.000075,-0.002987,-0.002417, 0.021395, 0.037454,1,-0.006486,-0.000346,-0.000701,1,-0.175203, 0.266852, 9.801453,1,1
1778021838132,   831.256,   831.256, 0.018536,-0.025289,-0.995670, 0.000055,-0.000076,-0.002987, 0.006564, 0.018336, 0.037281,1,-0.006264, 0.000116,-0.000541,1,-0.175216, 0.266282, 9.801468,1,1
1778021838142,   831.265,   831.265, 0.018073,-0.025037,-0.995805, 0.000055,-0.000075,-0.002988, 0.001940, 0.020173, 0.035969,1,-0.007249, 0.000118,-0.000882,1,-0.175293, 0.265632, 9.801484,1,1
1778021838153,   831.274,   831.271, 0.018622,-0.024173,-0.994966, 0.000056,-0.000072,-0.002985, 0.006102, 0.023032, 0.046789,1,-0.006603, 0.000829,-0.000896,1,-0.175285, 0.265223, 9.801496,1,1
1778021838164,   831.283,   831.280, 0.018345,-0.023406,-0.995862, 0.000055,-0.000070,-0.002988, 0.005470, 0.031280, 0.042172,1,-0.006085, 0.001069,-0.001400,1,-0.175312, 0.264638, 9.801511,1,1
1778021838175,   831.292,   831.289, 0.018458,-0.023901,-0.994723, 0.000056,-0.000072,-0.002984, 0.002585, 0.035781, 0.041094,1,-0.005546,-0.000672,-0.000664,1,-0.175341, 0.264127, 9.801524,1,1
1778021838185,   831.301,   831.298, 0.017890,-0.023048,-0.995774, 0.000054,-0.000069,-0.002987, 0.005331, 0.036650, 0.046303,1,-0.004799, 0.000402,-0.001315,1,-0.175342, 0.263697, 9.801536,1,1
1778021838196,   831.310,   831.307, 0.017042,-0.023187,-0.995554, 0.000051,-0.000070,-0.002987,-0.004400, 0.037936, 0.037782,1,-0.003940, 0.000530,-0.000721,1,-0.175399, 0.263380, 9.801543,1,1
1778021838207,   831.316,   831.316, 0.017403,-0.022890,-0.995360, 0.000053,-0.000069,-0.002986,-0.005020, 0.037961, 0.040415,1,-0.003630,-0.000144,-0.000979,1,-0.175684, 0.262392, 9.801564,1,1
1778021838218,   831.325,   831.325, 0.017526,-0.023356,-0.995025, 0.000052,-0.000070,-0.002984,-0.003814, 0.033136, 0.043704,1,-0.002726, 0.000071,-0.000295,1,-0.175688, 0.262158, 9.801571,1,1
1778021838228,   831.334,   831.334, 0.017352,-0.023811,-0.994034, 0.000052,-0.000071,-0.002982,-0.005508, 0.028522, 0.053432,1,-0.001410, 0.000703,-0.000750,1,-0.175679, 0.262013, 9.801575,1,1
1778021838239,   831.343,   831.343, 0.016897,-0.023197,-0.996024, 0.000051,-0.000070,-0.002988,-0.009960, 0.034390, 0.033915,1,-0.001515,-0.000818,-0.000652,1,-0.175658, 0.261858, 9.801579,1,1
1778021838250,   831.352,   831.349, 0.016917,-0.023888,-0.995512, 0.000050,-0.000071,-0.002987,-0.011335, 0.026919, 0.037166,1,-0.000517,-0.000022,-0.001209,1,-0.175666, 0.261808, 9.801580,1,1
1778021838261,   831.361,   831.358, 0.016593,-0.024012,-0.994882, 0.000050,-0.000072,-0.002985,-0.006967, 0.029995, 0.040242,1,-0.000124,-0.000724,-0.000902,1,-0.175672, 0.261761, 9.801581,1,1
1778021838271,   831.370,   831.367, 0.017542,-0.023132,-0.994813, 0.000052,-0.000070,-0.002985,-0.006465, 0.028995, 0.046104,1, 0.000013,-0.000620,-0.001869,1,-0.175601, 0.261700, 9.801584,1,1
1778021838282,   831.424,   831.421, 0.018755,-0.025562,-0.995379, 0.000056,-0.000077,-0.002986, 0.006058, 0.020144, 0.036531,1, 0.003417,-0.000452, 0.000038,1,-0.175571, 0.262528, 9.801563,1,1
1778021838293,   831.433,   831.430, 0.017112,-0.024977,-0.993800, 0.000051,-0.000075,-0.002981, 0.005856, 0.019806, 0.055484,1, 0.002551,-0.001059,-0.000111,1,-0.175526, 0.262758, 9.801558,1,1
1778021838304,   831.442,   831.439, 0.018496,-0.025034,-0.995112, 0.000055,-0.000075,-0.002985, 0.007333, 0.013464, 0.043528,1, 0.002042,-0.000377, 0.000269,1,-0.175502, 0.262912, 9.801554,1,1
1778021838315,   831.448,   831.448, 0.018452,-0.025486,-0.995670, 0.000055,-0.000076,-0.002987, 0.005456, 0.013057, 0.037363,1, 0.000429,-0.000424,-0.000785,1,-0.175496, 0.262989, 9.801552,1,1
1778021838325,   831.457,   831.457, 0.017838,-0.025172,-0.995820, 0.000053,-0.000076,-0.002988,-0.000509, 0.016197, 0.035892,1, 0.000497,-0.000204, 0.000126,1,-0.175442, 0.263054, 9.801551,1,1
1778021838336,   831.466,   831.466, 0.018300,-0.026042,-0.995471, 0.000055,-0.000078,-0.002987, 0.004045, 0.007715, 0.039314,1, 0.001395,-0.000044,-0.000199,1,-0.175422, 0.263109, 9.801550,1,1
1778021838347,   831.475,   831.475, 0.018396,-0.024800,-0.995442, 0.000055,-0.000074,-0.002986, 0.005009, 0.019976, 0.039599,1, 0.000970,-0.000971,-0.000242,1,-0.175382, 0.263188, 9.801549,1,1
1778021838358,   831.484,   831.481, 0.019334,-0.024877,-0.996629, 0.000058,-0.000074,-0.002990, 0.009762, 0.021516, 0.034826,1, 0.000597,-0.000828,-0.000163,1,-0.175330, 0.263247, 9.801548,1,1
1778021838368,   831.493,   831.490, 0.019360,-0.024901,-0.994915, 0.000058,-0.000075,-0.002985, 0.015269, 0.019779, 0.032913,1, 0.001388,-0.000147,-0.000865,1,-0.175342, 0.263343, 9.801545,1,1
1778021838379,   831.502,   831.499, 0.020292,-0.024555,-0.994478, 0.000061,-0.000074,-0.002983, 0.022641, 0.020072, 0.049740,1, 0.001234, 0.000102, 0.001169,1,-0.175348, 0.263391, 9.801544,1,1
1778021838390,   831.511,   831.508, 0.020164,-0.024451,-0.995102, 0.000061,-0.000073,-0.002985, 0.020243, 0.024597, 0.056660,1, 0.001293, 0.000688, 0.000217,1,-0.175349, 0.263454, 9.801542,1,1
1778021838401,   831.517,   831.517, 0.019666,-0.024091,-0.994384, 0.000059,-0.000072,-0.002983, 0.017473, 0.026402, 0.049982,1, 0.001305,-0.000715,-0.000561,1,-0.175380, 0.262659, 9.801563,1,1
1778021838411,   831.526,   831.526, 0.020300,-0.024856,-0.995181, 0.000061,-0.000074,-0.002986, 0.023715, 0.019024, 0.042166,1, 0.001785,-0.000541, 0.000227,1,-0.175352, 0.262799, 9.801559,1,1
1778021838422,   831.535,   831.535, 0.020066,-0.024985,-0.995382, 0.000060,-0.000074,-0.002986, 0.021450, 0.017969, 0.040193,1, 0.002464,-0.000008, 0.000078,1,-0.175328, 0.263013, 9.801555,1,1
1778021838433,   831.544,   831.544, 0.019849,-0.025086,-0.995332, 0.000059,-0.000075,-0.002986, 0.019302, 0.017130, 0.040680,1, 0.001780,-0.000398, 0.000033,1,-0.175344, 0.263157, 9.801550,1,1
1778021838444,   831.553,   831.547, 0.018972,-0.024961,-0.995111, 0.000057,-0.000075,-0.002985, 0.015673, 0.023936, 0.039447,1, 0.001159, 0.000314,-0.000746,1,-0.175347, 0.263193, 9.801549,1,1
1778021838454,   831.562,   831.559, 0.019081,-0.024628,-0.995862, 0.000057,-0.000074,-0.002987, 0.005572, 0.020265, 0.040853,1, 0.001460, 0.000052,-0.000578,1,-0.175339, 0.263328, 9.801546,1,1
1778021838465,   831.571,   831.568, 0.018179,-0.024925,-0.995523, 0.000055,-0.000075,-0.002986, 0.010513, 0.015914, 0.032403,1, 0.003651, 0.000332, 0.000286,1,-0.175355, 0.263518, 9.801540,1,1
1778021838476,   831.580,   831.577, 0.018074,-0.024554,-0.994268, 0.000055,-0.000073,-0.002983, 0.006258, 0.017645, 0.036606,1, 0.002912, 0.001017,-0.000146,1,-0.175400, 0.263755, 9.801533,1,1
1778021838487,   831.589,   831.586, 0.018141,-0.025235,-0.994886, 0.000055,-0.000076,-0.002985, 0.003669, 0.017494, 0.040593,1, 0.002149, 0.000807, 0.000545,1,-0.175460, 0.264039, 9.801524,1,1
