unix_time_ms_sensor,GPS_ts_week,GPS_ts_tow,scaledAccelX,scaledAccelY,scaledAccelZ,deltaVelX,deltaVelY,deltaVelZ,unix_time_ms_filter,fGPS_ts_week,fGPS_ts_tow,estLinAccelX,estLinAccelY,estLinAccelZ,estLinAccel_valid,estAngRateX,estAngRateY,estAngRateZ,estAngRate_valid,estGravityX,estGravityY,estGravityZ,estGravity_valid,flag_sensor,flag_filter
1779140671838.000000000,2419,164689.838000000,0.013564844,-0.018039335,-0.999235213,0.000124084,-0.000175831,-0.009977775,1779140671838.000000000,2419,164689.838000000,-0.010381310,0.006683582,0.004731598,1,0.000426478,0.003446274,0.000915088,1,-0.143514007,0.183602765,9.803880692,1,0,0
1779140671848.000000000,2419,164689.848000000,0.015785463,-0.015628431,-0.993729413,0.000158383,-0.000160049,-0.009959782,1779140671848.000000000,2419,164689.848000000,0.011469469,0.030257519,0.058727913,1,0.000392530,-0.002247105,0.000299921,1,-0.143262759,0.183532476,9.803885460,1,0,0
1779140671868.000000000,2419,164689.868000000,0.014843200,-0.013639800,-0.993142545,0.000151978,-0.000145545,-0.009955433,1779140671868.000000000,2419,164689.868000000,0.002219086,0.050055329,0.064477511,1,-0.000599925,-0.000552343,-0.000389912,1,-0.143326730,0.183799148,9.803879738,1,0,0
1779140671878.000000000,2419,164689.878000000,0.015218902,-0.016953340,-0.998784959,0.000150869,-0.000162273,-0.009962255,1779140671878.000000000,2419,164689.878000000,0.005916134,0.017615173,0.009143376,1,0.000805851,-0.000524974,-0.000124667,1,-0.143314064,0.183895871,9.803877831,1,0,0
1779140671898.000000000,2419,164689.898000000,0.014223095,-0.020175472,-0.997519255,0.000136609,-0.000197775,-0.009952816,1779140671898.000000000,2419,164689.898000000,-0.003967654,-0.014064323,0.021555297,1,0.000043586,0.001362792,-0.001573166,1,-0.143492028,0.183790132,9.803877831,1,0,0
1779140671908.000000000,2419,164689.908000000,0.011079854,-0.019397344,-0.993751585,0.000118917,-0.000201256,-0.009958458,1779140671908.000000000,2419,164689.908000000,-0.034664575,-0.006464504,0.058506094,1,0.000305098,-0.002013861,-0.000066778,1,-0.143258035,0.183767989,9.803881645,1,0,0
1779140671928.000000000,2419,164689.928000000,0.014082825,-0.019439306,-0.994334579,0.000142718,-0.000200873,-0.009962343,1779140671928.000000000,2419,164689.928000000,-0.005402483,-0.006836237,0.052785657,1,-0.000338559,-0.000530017,-0.000148500,1,-0.143491372,0.183787629,9.803877831,1,0,0
1779140671938.000000000,2419,164689.938000000,0.014728825,-0.019829985,-0.997671366,0.000141473,-0.000197669,-0.009957860,1779140671938.000000000,2419,164689.938000000,0.000940122,-0.010645837,0.020062158,1,0.000233587,0.000649484,-0.000134253,1,-0.143520653,0.183827117,9.803876877,1,0,0
1779140671948.000000000,2419,164689.948000000,0.017284228,-0.018803235,-0.994811177,0.000171627,-0.000191672,-0.009962728,1779140671948.000000000,2419,164689.948000000,0.025895512,-0.000640425,0.048110969,1,-0.000508400,0.000540354,-0.000251981,1,-0.143621892,0.183740348,9.803876877,1,0,0
1779140671968.000000000,2419,164689.968000000,0.016875213,-0.019857660,-0.994838893,0.000169965,-0.000199685,-0.009962142,1779140671968.000000000,2419,164689.968000000,0.021897838,-0.010911099,0.047837824,1,-0.000654691,0.000348478,0.000236990,1,-0.143602207,0.183805734,9.803875923,1,0,0
1779140671978.000000000,2419,164689.978000000,0.017712111,-0.019522946,-0.995470583,0.000175196,-0.000194928,-0.009947899,1779140671978.000000000,2419,164689.978000000,0.030048117,-0.007664027,0.041642688,1,-0.000546927,-0.000166859,0.000093402,1,-0.143643081,0.183773652,9.803875923,1,0,0
1779140671988.000000000,2419,164689.988000000,0.015056673,-0.018493285,-0.995128930,0.000155796,-0.000186507,-0.009960853,1779140671988.000000000,2419,164689.988000000,0.004118219,0.002463442,0.044994082,1,-0.000222604,-0.001160996,0.000302088,1,-0.143500909,0.183813825,9.803876877,1,0,0
1779140671998.000000000,2419,164689.998000000,0.014493981,-0.017964128,-0.995158255,0.000141337,-0.000174328,-0.009944594,1779140671998.000000000,2419,164689.998000000,-0.001409313,0.007632190,0.044707227,1,-0.000315679,0.001413926,0.000060048,1,-0.143590808,0.183790296,9.803875923,1,0,0
1779140672008.000000000,2419,164690.008000000,0.014210492,-0.018341444,-0.996392787,0.000143464,-0.000182160,-0.009973357,1779140672008.000000000,2419,164690.008000000,-0.004149234,0.003887061,0.032601643,1,-0.000441451,-0.001559486,0.000570530,1,-0.143457577,0.183741689,9.803878784,1,0,0
1779140672028.000000000,2419,164690.028000000,0.013603784,-0.018120827,-0.995757282,0.000137953,-0.000184899,-0.009968009,1779140672028.000000000,2419,164690.028000000,-0.010023123,0.005958784,0.038837273,1,-0.000462436,0.000412222,0.000364278,1,-0.143443331,0.183649138,9.803880692,1,0,0
1779140672038.000000000,2419,164690.038000000,0.014330851,-0.019028621,-0.995849669,0.000139414,-0.000187995,-0.009948598,1779140672038.000000000,2419,164690.038000000,-0.002931642,-0.002945211,0.037930310,1,0.000624209,0.000188898,-0.000037205,1,-0.143475205,0.183681279,9.803879738,1,0,0
1779140672058.000000000,2419,164690.058000000,0.014833884,-0.018234545,-0.996107578,0.000147452,-0.000182063,-0.009955470,1779140672058.000000000,2419,164690.058000000,0.001921613,0.004808806,0.035400007,1,0.000332228,0.000485078,-0.000569299,1,-0.143561810,0.183630958,9.803879738,1,0,0
1779140672068.000000000,2419,164690.068000000,0.014742125,-0.016926114,-0.995787978,0.000151360,-0.000171101,-0.009962982,1779140672068.000000000,2419,164690.068000000,0.001065959,0.017632896,0.038535647,1,-0.000340559,-0.000921724,-0.000555097,1,-0.143476292,0.183609992,9.803881645,1,0,0
1779140672078.000000000,2419,164690.078000000,0.014278507,-0.017563675,-0.995463848,0.000138570,-0.000175447,-0.009951198,1779140672078.000000000,2419,164690.078000000,-0.003446368,0.011380284,0.041714963,1,0.000187030,0.000540037,-0.001268269,1,-0.143488273,0.183626339,9.803880692,1,0,0
1779140672098.000000000,2419,164690.098000000,0.014436631,-0.019094503,-0.995348871,0.000142028,-0.000191180,-0.009952620,1779140672098.000000000,2419,164690.098000000,-0.001892369,-0.003628711,0.042842288,1,0.000839162,-0.000542485,-0.000359235,1,-0.143450648,0.183650434,9.803880692,1,0,0
1779140672108.000000000,2419,164690.108000000,0.014593548,-0.019784663,-0.996097267,0.000141964,-0.000199014,-0.009965201,1779140672108.000000000,2419,164690.108000000,-0.000363825,-0.010375503,0.035501905,1,-0.000053754,0.000236881,-0.000172021,1,-0.143485144,0.183644027,9.803880692,1,0,0
1779140672128.000000000,2419,164690.128000000,0.015304958,-0.019413233,-0.996571183,0.000153096,-0.000192415,-0.009967689,1779140672128.000000000,2419,164690.128000000,0.006614652,-0.006693476,0.030854288,1,-0.000575662,-0.000344739,0.000021420,1,-0.143464953,0.183667377,9.803880692,1,0,0
1779140672138.000000000,2419,164690.138000000,0.015927127,-0.018792313,-0.995327175,0.000157571,-0.000186711,-0.009948300,1779140672138.000000000,2419,164690.138000000,0.012703631,-0.000637120,0.043054376,1,-0.000458475,0.000328280,0.000093113,1,-0.143498316,0.183638245,9.803880692,1,0,0
1779140672158.000000000,2419,164690.158000000,0.014174071,-0.018685356,-0.995229006,0.000139178,-0.000185924,-0.009952135,1779140672158.000000000,2419,164690.158000000,-0.004545623,0.000339316,0.044017542,1,-0.000525822,0.000953736,-0.000136489,1,-0.143575639,0.183563590,9.803880692,1,0,0
1779140672168.000000000,2419,164690.168000000,0.014057962,-0.018197633,-0.995682955,0.000142366,-0.000183635,-0.009959146,1779140672168.000000000,2419,164690.168000000,-0.005757356,0.005079870,0.039565511,1,-0.000018919,0.000361897,0.000085201,1,-0.143630132,0.183537140,9.803880692,1,0,0
1779140672188.000000000,2419,164690.188000000,0.014926063,-0.017538702,-0.996633351,0.000145914,-0.000177092,-0.009966211,1779140672188.000000000,2419,164690.188000000,0.002770591,0.011552735,0.030245278,1,0.000177417,0.000027503,-0.000287789,1,-0.143605113,0.183554053,9.803880692,1,0,0
1779140672198.000000000,2419,164690.198000000,0.015418033,-0.018333536,-0.995712101,0.000154435,-0.000182825,-0.009955605,1779140672198.000000000,2419,164690.198000000,0.007580410,0.003771184,0.039279133,1,-0.000006966,-0.000051401,0.000179411,1,-0.143617138,0.183561623,9.803879738,1,0,0
1779140672218.000000000,2419,164690.218000000,0.015430800,-0.019932138,-0.995145798,0.000153885,-0.000199418,-0.009952316,1779140672218.000000000,2419,164690.218000000,0.007627848,-0.011977280,0.044833105,1,-0.000513274,0.000152623,0.000173583,1,-0.143701270,0.183474302,9.803880692,1,0,0
1779140672228.000000000,2419,164690.228000000,0.014989235,-0.020240458,-0.996350169,0.000148949,-0.000201108,-0.009960178,1779140672228.000000000,2419,164690.228000000,0.003317711,-0.015040924,0.033023208,1,-0.000890166,-0.000872465,-0.000224780,1,-0.143649369,0.183422282,9.803882599,1,0,0
1779140672238.000000000,2419,164690.238000000,0.014261857,-0.019065054,-0.995668888,0.000141612,-0.000192242,-0.009959155,1779140672238.000000000,2419,164690.238000000,-0.003793945,-0.003502619,0.039704584,1,-0.000128761,0.000287120,-0.000114804,1,-0.143664017,0.183457628,9.803881645,1,0,0
1779140672258.000000000,2419,164690.258000000,0.013830816,-0.018349303,-0.995604515,0.000138712,-0.000181276,-0.009958224,1779140672258.000000000,2419,164690.258000000,-0.008140702,0.003589808,0.040333152,1,0.000703546,0.000497838,-0.000673329,1,-0.143800735,0.183562845,9.803876877,1,0,0
1779140672268.000000000,2419,164690.268000000,0.014217097,-0.018591680,-0.996634245,0.000141575,-0.000185027,-0.009964196,1779140672268.000000000,2419,164690.268000000,-0.004442481,0.001245221,0.030232569,1,0.000268871,0.000465032,-0.000389515,1,-0.143879980,0.183575943,9.803875923,1,0,0
1779140672288.000000000,2419,164690.288000000,0.014974535,-0.019086109,-0.996131241,0.000149319,-0.000191049,-0.009957184,1779140672288.000000000,2419,164690.288000000,0.002922137,-0.003563254,0.035163693,1,0.000638184,-0.000035906,-0.000038430,1,-0.143926799,0.183627442,9.803874016,1,0,0
1779140672298.000000000,2419,164690.298000000,0.014986159,-0.019130932,-0.996131480,0.000150205,-0.000193335,-0.009966001,1779140672298.000000000,2419,164690.298000000,0.003011728,-0.003976536,0.035160054,1,0.000174961,0.000243236,-0.000361608,1,-0.143960103,0.183639139,9.803874016,1,0,0
1779140672318.000000000,2419,164690.318000000,0.014785874,-0.018502455,-0.995020807,0.000148502,-0.000187173,-0.009952514,1779140672318.000000000,2419,164690.318000000,0.001029816,0.002279137,0.046049807,1,0.000343818,0.000131829,0.000436987,1,-0.143973947,0.183737159,9.803871155,1,0,0
1779140672328.000000000,2419,164690.328000000,0.015089444,-0.018323394,-0.995780170,0.000148831,-0.000183091,-0.009955633,1779140672328.000000000,2419,164690.328000000,0.003934795,0.004078909,0.038601793,1,0.000293630,0.000886587,-0.000079049,1,-0.144069821,0.183779150,9.803869247,1,0,0
1779140672348.000000000,2419,164690.348000000,0.014740529,-0.018623693,-0.996040165,0.000148942,-0.000186778,-0.009959094,1779140672348.000000000,2419,164690.348000000,0.000484423,0.001207489,0.036050025,1,0.000286687,-0.000203128,-0.000401000,1,-0.144064695,0.183852300,9.803868294,1,0,0
1779140672358.000000000,2419,164690.358000000,0.014323374,-0.018589426,-0.995407522,0.000143803,-0.000185477,-0.009957472,1779140672358.000000000,2419,164690.358000000,-0.003584016,0.001467554,0.042256217,1,-0.000310425,-0.000173762,0.000122406,1,-0.144042864,0.183757931,9.803870201,1,0,0
1779140672368.000000000,2419,164690.368000000,0.014368206,-0.019194786,-0.996070325,0.000142022,-0.000191624,-0.009959990,1779140672368.000000000,2419,164690.368000000,-0.003083865,-0.004408922,0.035755932,1,0.000375726,-0.001161026,-0.000495641,1,-0.143951893,0.183839127,9.803870201,1,0,0
1779140672388.000000000,2419,164690.388000000,0.013808138,-0.020155871,-0.996102631,0.000140322,-0.000202044,-0.009959862,1779140672388.000000000,2419,164690.388000000,-0.008518132,-0.013831676,0.035440091,1,-0.000297580,0.000310498,0.000206491,1,-0.143939286,0.183820724,9.803870201,1,0,0
1779140672398.000000000,2419,164690.398000000,0.013547026,-0.017823014,-0.995106518,0.000137458,-0.000178365,-0.009953375,1779140672398.000000000,2419,164690.398000000,-0.011116120,0.009046844,0.045207947,1,0.000138112,-0.000517032,-0.000164155,1,-0.143951029,0.183835164,9.803870201,1,0,0
1779140672418.000000000,2419,164690.418000000,0.014141530,-0.017622434,-0.996228516,0.000141962,-0.000174396,-0.009964657,1779140672418.000000000,2419,164690.418000000,-0.005276783,0.010970124,0.034205519,1,-0.000426843,0.000364305,-0.000282055,1,-0.143969357,0.183773726,9.803871155,1,0,0
1779140672428.000000000,2419,164690.428000000,0.014436929,-0.018157141,-0.995904148,0.000145459,-0.000180657,-0.009955330,1779140672428.000000000,2419,164690.428000000,-0.002434192,0.005664837,0.037387405,1,-0.001017559,0.000452428,-0.000701757,1,-0.144026637,0.183693498,9.803871155,1,0,0
1779140672448.000000000,2419,164690.448000000,0.014683193,-0.018671829,-0.995736897,0.000146213,-0.000185560,-0.009952291,1779140672448.000000000,2419,164690.448000000,0.000013920,0.000516994,0.039029613,1,-0.000080304,0.000713605,-0.000589648,1,-0.144001633,0.183622316,9.803873062,1,0,0
1779140672458.000000000,2419,164690.458000000,0.015349371,-0.019357491,-0.995431542,0.000152342,-0.000194504,-0.009956976,1779140672458.000000000,2419,164690.458000000,0.006578346,-0.006215979,0.042024676,1,-0.000388027,-0.000051557,-0.000376349,1,-0.143939823,0.183603168,9.803874969,1,0,0
1779140672478.000000000,2419,164690.478000000,0.015150065,-0.018055407,-0.995668173,0.000151496,-0.000180747,-0.009959605,1779140672478.000000000,2419,164690.478000000,0.004555656,0.006548692,0.039703578,1,-0.000014745,0.001086830,-0.000438279,1,-0.144049883,0.183611110,9.803873062,1,0,0
1779140672488.000000000,2419,164690.488000000,0.015647894,-0.019560594,-0.995411754,0.000154923,-0.000192905,-0.009955437,1779140672488.000000000,2419,164690.488000000,0.009396622,-0.008191229,0.042216796,1,0.000362261,0.000706493,-0.000620979,1,-0.144079208,0.183643714,9.803872108,1,0,0
1779140672508.000000000,2419,164690.508000000,0.015373377,-0.020620955,-0.994844437,0.000153907,-0.000207678,-0.009954032,1779140672508.000000000,2419,164690.508000000,0.006671995,-0.018508470,0.047778383,1,0.000070138,0.000321968,-0.000089417,1,-0.144099444,0.183716178,9.803870201,1,0,0
1779140672518.000000000,2419,164690.518000000,0.015443558,-0.020247916,-0.996053457,0.000155164,-0.000200918,-0.009956561,1779140672518.000000000,2419,164690.518000000,0.007341307,-0.014820677,0.035920862,1,0.000339388,-0.000350674,0.000284377,1,-0.144097164,0.183754265,9.803869247,1,0,0
1779140672528.000000000,2419,164690.528000000,0.014940274,-0.018170219,-0.994985640,0.000149036,-0.000183792,-0.009952178,1779140672528.000000000,2419,164690.528000000,0.002391484,0.005528852,0.046392377,1,-0.000113620,0.000276073,0.000037198,1,-0.144131169,0.183714330,9.803869247,1,0,0
1779140672548.000000000,2419,164690.548000000,0.013646533,-0.017238423,-0.996020615,0.000135862,-0.000173900,-0.009956433,1779140672548.000000000,2419,164690.548000000,-0.010380415,0.014746319,0.036240775,1,0.000441072,0.000446065,-0.000227428,1,-0.144221246,0.183811173,9.803866386,1,0,0
1779140672558.000000000,2419,164690.558000000,0.013541484,-0.016708761,-0.995529950,0.000133841,-0.000166325,-0.009956979,1779140672558.000000000,2419,164690.558000000,-0.011429186,0.019938001,0.041052017,1,-0.000306750,0.000146502,-0.000613606,1,-0.144230723,0.183785126,9.803866386,1,0,0
1779140672578.000000000,2419,164690.578000000,0.014323422,-0.019901235,-0.995851457,0.000142310,-0.000198422,-0.009960679,1779140672578.000000000,2419,164690.578000000,-0.003835423,-0.011263043,0.037896115,1,0.000382175,0.000363367,-0.000107176,1,-0.144311622,0.183913276,9.803863525,1,0,0
1779140672588.000000000,2419,164690.588000000,0.014984964,-0.021558022,-0.995738387,0.000150301,-0.000213943,-0.009956935,1779140672588.000000000,2419,164690.588000000,0.002601764,-0.027537845,0.039005045,1,-0.000297178,0.000265230,-0.000642364,1,-0.144359201,0.183864579,9.803863525,1,0,0
1779140672608.000000000,2419,164690.608000000,0.016024072,-0.020797160,-0.995157301,0.000159958,-0.000209723,-0.009956246,1779140672608.000000000,2419,164690.608000000,0.012746461,-0.020155655,0.044703897,1,-0.000227701,-0.000319775,-0.000102024,1,-0.144386098,0.183787674,9.803864479,1,0,0
1779140672618.000000000,2419,164690.618000000,0.015074603,-0.019873369,-0.996102095,0.000153359,-0.000197331,-0.009957848,1779140672618.000000000,2419,164690.618000000,0.003461795,-0.011091495,0.035439480,1,0.000204596,0.000445502,0.000337175,1,-0.144383281,0.183806241,9.803864479,1,0,0
1779140672638.000000000,2419,164690.638000000,0.014041672,-0.017522154,-0.996721506,0.000140130,-0.000175162,-0.009961801,1779140672638.000000000,2419,164690.638000000,-0.006740864,0.011900688,0.029364731,1,-0.000114865,0.000339568,-0.000244917,1,-0.144453377,0.183730617,9.803864479,1,0,0
1779140672648.000000000,2419,164690.648000000,0.013865352,-0.016748628,-0.994948089,0.000138618,-0.000169868,-0.009953710,1779140672648.000000000,2419,164690.648000000,-0.008452903,0.019440118,0.046756864,1,-0.000298812,-0.000282680,-0.000315913,1,-0.144416913,0.183678582,9.803866386,1,0,0
1779140672658.000000000,2419,164690.658000000,0.014540827,-0.018645735,-0.996266961,0.000143302,-0.000183094,-0.009960147,1779140672658.000000000,2419,164690.658000000,-0.001944098,0.001028842,0.033818420,1,0.000249496,0.000691895,-0.000696626,1,-0.144573599,0.183910042,9.803859711,1,0,0
1779140672678.000000000,2419,164690.678000000,0.016103998,-0.019416075,-0.996473968,0.000159709,-0.000193076,-0.009963970,1779140672678.000000000,2419,164690.678000000,0.013287133,-0.006445604,0.031785589,1,0.000227695,0.000622149,-0.000235479,1,-0.144658759,0.183968157,9.803856850,1,0,0
1779140672688.000000000,2419,164690.688000000,0.015616869,-0.020289604,-0.995864451,0.000157431,-0.000201071,-0.009957725,1779140672688.000000000,2419,164690.688000000,0.008487224,-0.015024479,0.037762772,1,-0.000181924,0.000251677,0.000443871,1,-0.144669548,0.183943093,9.803857803,1,0,0
1779140672708.000000000,2419,164690.708000000,0.013828734,-0.020255275,-0.996592402,0.000139940,-0.000205618,-0.009963285,1779140672708.000000000,2419,164690.708000000,-0.009072738,-0.014706884,0.030624429,1,0.000024524,-0.000222044,0.000508343,1,-0.144679070,0.183930531,9.803857803,1,0,0
1779140672718.000000000,2419,164690.718000000,0.013547576,-0.019609757,-0.994685352,0.000133647,-0.000197671,-0.009947692,1779140672718.000000000,2419,164690.718000000,-0.011836792,-0.008399587,0.049325921,1,-0.000202940,0.000437481,0.000127923,1,-0.144706726,0.183900177,9.803857803,1,0,0
1779140672738.000000000,2419,164690.738000000,0.013979617,-0.018372599,-0.995530486,0.000141711,-0.000181015,-0.009950755,1779140672738.000000000,2419,164690.738000000,-0.007764990,0.003759899,0.041035529,1,0.000637966,0.000891308,0.000897504,1,-0.144885495,0.183953896,9.803853989,1,0,0
1779140672748.000000000,2419,164690.748000000,0.015801510,-0.018138872,-0.996276140,0.000154563,-0.000182504,-0.009966410,1779140672748.000000000,2419,164690.748000000,0.010055873,0.006080128,0.033721395,1,0.000181092,0.000136498,0.000369709,1,-0.144908071,0.183967531,9.803853035,1,0,0
1779140672768.000000000,2419,164690.768000000,0.016979467,-0.019334897,-0.996267378,0.000169458,-0.000194194,-0.009961681,1779140672768.000000000,2419,164690.768000000,0.021645902,-0.005637653,0.033807695,1,-0.000013389,-0.000217588,-0.000488074,1,-0.144859299,0.183972284,9.803853989,1,0,0
1779140672778.000000000,2419,164690.778000000,0.016615484,-0.018820388,-0.995316148,0.000164401,-0.000188534,-0.009952320,1779140672778.000000000,2419,164690.778000000,0.018059028,-0.000627511,0.043136477,1,-0.000095533,0.000027834,0.000118994,1,-0.144884020,0.183934525,9.803853989,1,0,0
1779140672798.000000000,2419,164690.798000000,0.014328196,-0.016562384,-0.995759666,0.000142847,-0.000167696,-0.009959156,1779140672798.000000000,2419,164690.798000000,-0.004388411,0.021510312,0.038787242,1,0.000412541,-0.000104448,0.000319722,1,-0.144896567,0.183944836,9.803853989,1,0,0
1779140672808.000000000,2419,164690.808000000,0.013675928,-0.017461272,-0.997095406,0.000138311,-0.000171121,-0.009967208,1779140672808.000000000,2419,164690.808000000,-0.010784435,0.012752899,0.025686225,1,0.000185527,0.000327512,0.000334440,1,-0.144909501,0.183995426,9.803853035,1,0,0
1779140672818.000000000,2419,164690.818000000,0.013279773,-0.017791891,-0.994829059,0.000133430,-0.000178115,-0.009956672,1779140672818.000000000,2419,164690.818000000,-0.014621759,0.009482279,0.047913671,1,-0.000336594,-0.000242479,0.000133893,1,-0.144844204,0.183950707,9.803854942,1,0,0
1779140672838.000000000,2419,164690.838000000,0.013967432,-0.019856771,-0.994583607,0.000140000,-0.000194995,-0.009950090,1779140672838.000000000,2419,164690.838000000,-0.007872134,-0.010742347,0.050319545,1,0.000033737,-0.000336176,0.000117608,1,-0.144835308,0.183987185,9.803853989,1,0,0
1779140672848.000000000,2419,164690.848000000,0.014872515,-0.021322085,-0.996705055,0.000146583,-0.000210951,-0.009964598,1779140672848.000000000,2419,164690.848000000,0.000955179,-0.025081690,0.029514156,1,0.000641106,0.001001233,0.000140965,1,-0.144925535,0.184036627,9.803852081,1,0,0
1779140672868.000000000,2419,164690.868000000,0.014685459,-0.018407675,-0.996318877,0.000147475,-0.000186058,-0.009963037,1779140672868.000000000,2419,164690.868000000,-0.000981256,0.003562469,0.033298071,1,-0.000354101,0.000203507,0.000185611,1,-0.145002767,0.184069604,9.803850174,1,0,0
1779140672878.000000000,2419,164690.878000000,0.014174663,-0.017872652,-0.995967031,0.000142824,-0.000177565,-0.009955813,1779140672878.000000000,2419,164690.878000000,-0.006030382,0.008816510,0.036748797,1,-0.000116127,0.000151740,-0.000110316,1,-0.145041153,0.184083730,9.803849220,1,0,0
1779140672898.000000000,2419,164690.898000000,0.013859612,-0.018652231,-0.996181667,0.000135585,-0.000185602,-0.009958336,1779140672898.000000000,2419,164690.898000000,-0.009200724,0.001084353,0.034644015,1,-0.000410002,0.000966027,-0.000581293,1,-0.145147592,0.183987185,9.803849220,1,0,0
1779140672908.000000000,2419,164690.908000000,0.013789909,-0.017596329,-0.995490313,0.000137508,-0.000179452,-0.009961079,1779140672908.000000000,2419,164690.908000000,-0.009869806,0.011459948,0.041423641,1,0.000330832,-0.000317921,-0.000489260,1,-0.145092994,0.184031069,9.803849220,1,0,0
1779140672928.000000000,2419,164690.928000000,0.016070966,-0.018365145,-0.996425152,0.000158846,-0.000183736,-0.009957542,1779140672928.000000000,2419,164690.928000000,0.012364206,0.004002721,0.032252535,1,0.000922517,0.000701515,0.000910120,1,-0.145259500,0.184132472,9.803845406,1,0,0
1779140672938.000000000,2419,164690.938000000,0.016019285,-0.019176189,-0.996052742,0.000160997,-0.000192654,-0.009962119,1779140672938.000000000,2419,164690.938000000,0.011843315,-0.003970212,0.035904307,1,-0.001453337,-0.000193395,0.000531654,1,-0.145245865,0.184038863,9.803847313,1,0,0
1779140672948.000000000,2419,164690.948000000,0.015851256,-0.019213654,-0.995631456,0.000158804,-0.000190657,-0.009948529,1779140672948.000000000,2419,164690.948000000,0.010204357,-0.004414263,0.040037960,1,-0.000785607,0.000243101,-0.000151126,1,-0.145251051,0.183982760,9.803848267,1,0,0
1779140672968.000000000,2419,164690.968000000,0.014229392,-0.019022502,-0.996087372,0.000138641,-0.000189246,-0.009954795,1779140672968.000000000,2419,164690.968000000,-0.005776063,-0.002553972,0.035566334,1,0.000402976,0.000740148,0.000485237,1,-0.145341545,0.184005857,9.803846359,1,0,0
1779140672978.000000000,2419,164690.978000000,0.013812029,-0.018001463,-0.995833099,0.000140751,-0.000183309,-0.009959285,1779140672978.000000000,2419,164690.978000000,-0.009879298,0.007433224,0.038060058,1,-0.000336367,-0.000306206,0.000367925,1,-0.145319268,0.183956951,9.803847313,1,0,0
1779140672998.000000000,2419,164690.998000000,0.013773671,-0.018123582,-0.995755792,0.000136292,-0.000181295,-0.009955887,1779140672998.000000000,2419,164690.998000000,-0.010279055,0.006241722,0.038817775,1,0.000552567,0.000613832,0.000016388,1,-0.145371780,0.183990628,9.803846359,1,0,0
1779140673008.000000000,2419,164691.008000000,0.015053123,-0.018915556,-0.995219171,0.000147636,-0.000186641,-0.009957860,1779140673008.000000000,2419,164691.008000000,0.002240407,-0.001521453,0.044079438,1,-0.000214343,0.000257530,0.000388785,1,-0.145388126,0.183970287,9.803846359,1,0,0
1779140673028.000000000,2419,164691.028000000,0.015608317,-0.018728113,-0.995131135,0.000155845,-0.000189792,-0.009955283,1779140673028.000000000,2419,164691.028000000,0.007557561,0.000263723,0.044942241,1,0.000151458,0.000376549,0.000031222,1,-0.145519495,0.183928519,9.803845406,1,0,0
1779140673038.000000000,2419,164691.038000000,0.015781883,-0.018134840,-0.997148633,0.000160312,-0.000182896,-0.009969248,1779140673038.000000000,2419,164691.038000000,0.009195793,0.006094969,0.025155639,1,-0.000257051,0.000359539,-0.000329304,1,-0.145583034,0.183928818,9.803844452,1,0,0
1779140673058.000000000,2419,164691.058000000,0.014790307,-0.019150568,-0.997112691,0.000146053,-0.000191854,-0.009972450,1779140673058.000000000,2419,164691.058000000,-0.000597940,-0.003853758,0.025506627,1,-0.000836040,0.000309350,-0.000336099,1,-0.145649791,0.183924392,9.803843498,1,0,0
1779140673068.000000000,2419,164691.068000000,0.013830553,-0.018467825,-0.994929254,0.000137882,-0.000182574,-0.009945961,1779140673068.000000000,2419,164691.068000000,-0.010014925,0.002796805,0.046919718,1,-0.000151028,0.000196070,0.000016555,1,-0.145652354,0.183899701,9.803843498,1,0,0
1779140673088.000000000,2419,164691.088000000,0.014735430,-0.019191248,-0.996016681,0.000145096,-0.000188840,-0.009954053,1779140673088.000000000,2419,164691.088000000,-0.001193806,-0.004315115,0.036255267,1,0.000567770,0.000494559,-0.000061540,1,-0.145714477,0.183904439,9.803842545,1,0,0
1779140673098.000000000,2419,164691.098000000,0.014916056,-0.019596577,-0.995428801,0.000152232,-0.000196045,-0.009956054,1779140673098.000000000,2419,164691.098000000,0.000568696,-0.008245996,0.042019375,1,-0.000026078,0.000186358,-0.000124814,1,-0.145713732,0.183929920,9.803842545,1,0,0
1779140673108.000000000,2419,164691.108000000,0.015159789,-0.020068239,-0.995806873,0.000148645,-0.000199975,-0.009961214,1779140673108.000000000,2419,164691.108000000,0.002943657,-0.012873384,0.038312111,1,-0.000108530,-0.000174574,0.000173517,1,-0.145717561,0.183925524,9.803842545,1,0,0
1779140673128.000000000,2419,164691.128000000,0.014851691,-0.018858615,-0.995442569,0.000151178,-0.000188357,-0.009960677,1779140673128.000000000,2419,164691.128000000,-0.000136602,-0.001072494,0.041885175,1,-0.000084111,-0.000055819,0.000163555,1,-0.145780116,0.183864817,9.803842545,1,0,0
1779140673138.000000000,2419,164691.138000000,0.015128374,-0.019008087,-0.996650398,0.000144199,-0.000186720,-0.009957036,1779140673138.000000000,2419,164691.138000000,0.002587468,-0.002522236,0.030039493,1,0.000855903,0.000133821,0.000331615,1,-0.145775199,0.183910295,9.803841591,1,0,0
1779140673158.000000000,2419,164691.158000000,0.014516838,-0.017392209,-0.997350931,0.000142551,-0.000171363,-0.009966353,1779140673158.000000000,2419,164691.158000000,-0.003474578,0.013402730,0.023167297,1,0.000517703,0.001034352,-0.000009351,1,-0.145868421,0.183978185,9.803838730,1,0,0
1779140673168.000000000,2419,164691.168000000,0.014289285,-0.017502714,-0.995095432,0.000143175,-0.000176477,-0.009952878,1779140673168.000000000,2419,164691.168000000,-0.005669786,0.012299249,0.045286797,1,-0.000021150,-0.000703071,0.000280584,1,-0.145777717,0.183941722,9.803840637,1,0,0
1779140673188.000000000,2419,164691.188000000,0.015212989,-0.019236749,-0.995519876,0.000149410,-0.000192172,-0.009956785,1779140673188.000000000,2419,164691.188000000,0.003481650,-0.004756498,0.041126803,1,-0.000826535,0.000399459,-0.000257673,1,-0.145719439,0.183865666,9.803843498,1,0,0
1779140673198.000000000,2419,164691.198000000,0.015785158,-0.019939533,-0.996147335,0.000157152,-0.000200129,-0.009963127,1779140673198.000000000,2419,164691.198000000,0.009046379,-0.011679098,0.034974020,1,0.000027379,0.000043627,-0.000141007,1,-0.145754591,0.183861718,9.803842545,1,0,0
1779140673218.000000000,2419,164691.218000000,0.015741332,-0.018809598,-0.995430291,0.000158452,-0.000187027,-0.009958612,1779140673218.000000000,2419,164691.218000000,0.008595549,-0.000558316,0.042004775,1,-0.000050830,0.000198325,0.000237503,1,-0.145780236,0.183899388,9.803841591,1,0,0
1779140673228.000000000,2419,164691.228000000,0.014817839,-0.017838322,-0.996756732,0.000150795,-0.000180546,-0.009967732,1779140673228.000000000,2419,164691.228000000,-0.000500016,0.008990041,0.028995968,1,0.000048673,-0.000072713,0.000236016,1,-0.145810977,0.183925867,9.803840637,1,0,0
1779140673238.000000000,2419,164691.238000000,0.014286452,-0.017150244,-0.995469689,0.000141722,-0.000174671,-0.009950487,1779140673238.000000000,2419,164691.238000000,-0.005688963,0.015710948,0.041618466,1,-0.000356051,0.000216674,-0.000505032,1,-0.145798266,0.183886066,9.803841591,1,0,0
1779140673258.000000000,2419,164691.258000000,0.013723291,-0.019445056,-0.995829463,0.000135846,-0.000192600,-0.009957726,1779140673258.000000000,2419,164691.258000000,-0.011169454,-0.006835472,0.038091201,1,-0.000760953,-0.000096460,0.000266498,1,-0.145747229,0.183833942,9.803843498,1,0,0
1779140673268.000000000,2419,164691.268000000,0.014156272,-0.019490458,-0.995401800,0.000142084,-0.000195328,-0.009958084,1779140673268.000000000,2419,164691.268000000,-0.006925290,-0.007338758,0.042286459,1,-0.000406201,-0.000059817,-0.000004290,1,-0.145749137,0.183784828,9.803844452,1,0,0
1779140673288.000000000,2419,164691.288000000,0.014682062,-0.017999025,-0.995705903,0.000148334,-0.000180905,-0.009953267,1779140673288.000000000,2419,164691.288000000,-0.001859551,0.007331321,0.039301362,1,0.000569331,0.000651108,0.000359059,1,-0.145861521,0.183859408,9.803841591,1,0,0
1779140673298.000000000,2419,164691.298000000,0.015082286,-0.018957091,-0.996901751,0.000150761,-0.000189185,-0.009968617,1779140673298.000000000,2419,164691.298000000,0.002010450,-0.002061501,0.027573939,1,-0.000547491,0.000545760,-0.000542561,1,-0.145913601,0.183826745,9.803841591,1,0,0
1779140673318.000000000,2419,164691.318000000,0.013944160,-0.018940421,-0.995670497,0.000142133,-0.000189935,-0.009961786,1779140673318.000000000,2419,164691.318000000,-0.009188379,-0.002026885,0.039650682,1,-0.000127913,0.000166519,-0.000387544,1,-0.145939305,0.183711037,9.803842545,1,0,0
1779140673328.000000000,2419,164691.328000000,0.013815021,-0.019141041,-0.995220125,0.000134861,-0.000191161,-0.009947492,1779140673328.000000000,2419,164691.328000000,-0.010512134,-0.003975868,0.044065680,1,0.000042023,0.000437184,-0.000314448,1,-0.146005034,0.183734789,9.803841591,1,0,0
1779140673348.000000000,2419,164691.348000000,0.014441284,-0.019544054,-0.996493816,0.000141992,-0.000193929,-0.009961614,1779140673348.000000000,2419,164691.348000000,-0.004540528,-0.007874078,0.031570666,1,0.000161854,0.000783061,-0.000487534,1,-0.146185890,0.183792472,9.803837776,1,0,0
1779140673358.000000000,2419,164691.358000000,0.014538627,-0.018581172,-0.995250404,0.000145915,-0.000189738,-0.009957607,1779140673358.000000000,2419,164691.358000000,-0.003644261,0.001539656,0.043764640,1,-0.000435798,0.001036245,-0.000013014,1,-0.146251857,0.183745116,9.803837776,1,0,0
1779140673378.000000000,2419,164691.378000000,0.014852694,-0.019667424,-0.996343970,0.000149309,-0.000195085,-0.009960357,1779140673378.000000000,2419,164691.378000000,-0.000757580,-0.009154621,0.033038203,1,-0.000137945,0.000718260,-0.000724437,1,-0.146435603,0.183712289,9.803835869,1,0,0
1779140673388.000000000,2419,164691.388000000,0.014603450,-0.019950321,-0.995627403,0.000149982,-0.000201294,-0.009960582,1779140673388.000000000,2419,164691.388000000,-0.003287455,-0.011959609,0.040064830,1,-0.000685143,0.001537470,-0.000444199,1,-0.146546632,0.183664620,9.803834915,1,0,0
1779140673398.000000000,2419,164691.398000000,0.014983221,-0.018682716,-0.996559680,0.000150510,-0.000187078,-0.009961154,1779140673398.000000000,2419,164691.398000000,0.000312881,0.000435564,0.030921247,1,-0.000508346,0.001327975,-0.000404044,1,-0.146664008,0.183634385,9.803833961,1,0,0
1779140673418.000000000,2419,164691.418000000,0.015265523,-0.019059796,-0.996999979,0.000153429,-0.000190602,-0.009967279,1779140673418.000000000,2419,164691.418000000,0.002849441,-0.003412898,0.026603278,1,-0.000710644,0.001456235,0.000437872,1,-0.146899387,0.183477893,9.803833008,1,0,0
1779140673428.000000000,2419,164691.428000000,0.014438524,-0.018858852,-0.995563030,0.000141583,-0.000186416,-0.009953528,1779140673428.000000000,2419,164691.428000000,-0.005340641,-0.001509869,0.040694319,1,-0.000053244,0.000857838,-0.000115908,1,-0.146961033,0.183430597,9.803833008,1,0,0
1779140673448.000000000,2419,164691.448000000,0.015249133,-0.017935967,-0.995314300,0.000153837,-0.000179799,-0.009950341,1779140673448.000000000,2419,164691.448000000,0.002487363,0.007481774,0.043132719,1,0.000801929,0.000028284,0.000826125,1,-0.147055969,0.183398962,9.803832054,1,0,0
1779140673458.000000000,2419,164691.458000000,0.015668400,-0.016451867,-0.995642126,0.000155537,-0.000168657,-0.009960745,1779140673458.000000000,2419,164691.458000000,0.006631005,0.022164801,0.039916016,1,-0.000721638,0.000814933,0.000527285,1,-0.147032335,0.183496311,9.803830147,1,0,0
1779140673478.000000000,2419,164691.478000000,0.015266716,-0.015436464,-0.996112406,0.000154339,-0.000156393,-0.009957438,1779140673478.000000000,2419,164691.478000000,0.002607648,0.032023229,0.035305105,1,-0.000384195,0.000294365,-0.000037939,1,-0.147116855,0.183391303,9.803831100,1,0,0
1779140673488.000000000,2419,164691.488000000,0.015606228,-0.017297236,-0.996436954,0.000154637,-0.000165849,-0.009965044,1779140673488.000000000,2419,164691.488000000,0.005898564,0.013789587,0.032120824,1,0.000259562,-0.000092337,-0.000581831,1,-0.147143722,0.183425367,9.803830147,1,0,0
1779140673508.000000000,2419,164691.508000000,0.014805136,-0.019978754,-0.995728433,0.000146913,-0.000198500,-0.009964537,1779140673508.000000000,2419,164691.508000000,-0.002006511,-0.012521176,0.039068900,1,-0.000398668,-0.000316932,-0.000677555,1,-0.147185817,0.183390737,9.803830147,1,0,0
1779140673518.000000000,2419,164691.518000000,0.014169494,-0.019574532,-0.995844185,0.000141159,-0.000197167,-0.009953692,1779140673518.000000000,2419,164691.518000000,-0.008230587,-0.008522311,0.037933126,1,0.000737357,-0.000236040,-0.000524975,1,-0.147178799,0.183461055,9.803829193,1,0,0
1779140673528.000000000,2419,164691.528000000,0.014704877,-0.019131791,-0.995840013,0.000148770,-0.000195591,-0.009958719,1779140673528.000000000,2419,164691.528000000,-0.002919345,-0.004122194,0.037974022,1,0.000652831,-0.000510577,0.000570503,1,-0.147108674,0.183517233,9.803829193,1,0,0
1779140673548.000000000,2419,164691.548000000,0.014822143,-0.018410942,-0.996446013,0.000149664,-0.000184273,-0.009960938,1779140673548.000000000,2419,164691.548000000,-0.001791566,0.003003735,0.032029871,1,-0.000371692,0.000856461,0.000403407,1,-0.147173643,0.183541998,9.803827286,1,0,0
1779140673558.000000000,2419,164691.558000000,0.014590358,-0.018142510,-0.995145082,0.000146323,-0.000182964,-0.009956836,1779140673558.000000000,2419,164691.558000000,-0.004160414,0.005557982,0.044787835,1,-0.000798470,0.000529856,-0.000661592,1,-0.147259891,0.183449998,9.803828239,1,0,0
1779140673578.000000000,2419,164691.578000000,0.012887392,-0.019412898,-0.994788170,0.000128595,-0.000195772,-0.009951575,1779140673578.000000000,2419,164691.578000000,-0.021053568,-0.006985135,0.048286330,1,-0.000610988,0.001025682,-0.000760191,1,-0.147468165,0.183370948,9.803826332,1,0,0
1779140673588.000000000,2419,164691.588000000,0.013804709,-0.019306736,-0.995719254,0.000134374,-0.000193963,-0.009957556,1779140673588.000000000,2419,164691.588000000,-0.012173406,-0.005972501,0.039154716,1,-0.000094298,0.000868017,-0.000961975,1,-0.147579014,0.183358520,9.803825378,1,0,0
1779140673608.000000000,2419,164691.608000000,0.015448701,-0.018508120,-0.996853113,0.000152362,-0.000184532,-0.009968473,1779140673608.000000000,2419,164691.608000000,0.003766030,0.001869885,0.028032299,1,-0.000532644,0.000824496,-0.001406428,1,-0.147760525,0.183355272,9.803822517,1,0,0
1779140673618.000000000,2419,164691.618000000,0.016236490,-0.018393723,-0.994678497,0.000163288,-0.000181199,-0.009941611,1779140673618.000000000,2419,164691.618000000,0.011440281,0.002956739,0.049358290,1,-0.000224978,0.000455236,-0.001256358,1,-0.147800252,0.183329955,9.803822517,1,0,0
1779140673638.000000000,2419,164691.638000000,0.016695704,-0.019113367,-0.996372402,0.000164767,-0.000189944,-0.009951768,1779140673638.000000000,2419,164691.638000000,0.015878879,-0.004144314,0.032745954,1,0.000161325,0.001663456,-0.000814541,1,-0.147902444,0.183298454,9.803821564,1,0,0
1779140673648.000000000,2419,164691.648000000,0.015703674,-0.018679025,-0.996311128,0.000160037,-0.000191833,-0.009964081,1779140673648.000000000,2419,164691.648000000,0.006108072,0.000080650,0.033347040,1,-0.000404816,-0.000205815,-0.000304975,1,-0.147886142,0.183246538,9.803822517,1,0,0
1779140673668.000000000,2419,164691.668000000,0.015632940,-0.016824102,-0.995787203,0.000159051,-0.000168834,-0.009958836,1779140673668.000000000,2419,164691.668000000,0.005336409,0.018269170,0.038483571,1,0.000972282,0.000193000,-0.000149210,1,-0.147976711,0.183286682,9.803820610,1,0,0
1779140673678.000000000,2419,164691.678000000,0.015402176,-0.016364777,-0.995890439,0.000152960,-0.000161696,-0.009956570,1779140673678.000000000,2419,164691.678000000,0.003080073,0.022839775,0.037470523,1,0.000413920,-0.000117961,-0.000080583,1,-0.147960082,0.183336243,9.803819656,1,0,0
1779140673688.000000000,2419,164691.688000000,0.015233371,-0.017706478,-0.996531606,0.000153647,-0.000175566,-0.009968257,1779140673688.000000000,2419,164691.688000000,0.001425640,0.009734634,0.031181797,1,0.000454499,-0.000443302,-0.001324661,1,-0.147949666,0.183389440,9.803818703,1,0,0
1779140673708.000000000,2419,164691.708000000,0.014506260,-0.020678189,-0.996079504,0.000147254,-0.000203461,-0.009961289,1779140673708.000000000,2419,164691.708000000,-0.005585700,-0.019400930,0.035616707,1,-0.000602855,-0.000916445,-0.000294921,1,-0.147815108,0.183363885,9.803821564,1,0,0
1779140673718.000000000,2419,164691.718000000,0.015111678,-0.021685960,-0.995452523,0.000148982,-0.000213753,-0.009950039,1779140673718.000000000,2419,164691.718000000,0.000388128,-0.029300570,0.041765373,1,0.000015924,0.000031794,-0.000070016,1,-0.147807866,0.183366522,9.803821564,1,0,0
1779140673738.000000000,2419,164691.738000000,0.012798760,-0.021388335,-0.996281445,0.000127511,-0.000216512,-0.009956966,1779140673738.000000000,2419,164691.738000000,-0.022340437,-0.026320258,0.033635546,1,-0.000074859,0.000753546,0.000693666,1,-0.147876516,0.183425680,9.803819656,1,0,0
1779140673748.000000000,2419,164691.748000000,0.013563354,-0.020380767,-0.995343506,0.000137825,-0.000208421,-0.009957509,1779140673748.000000000,2419,164691.748000000,-0.014871910,-0.016473195,0.042834040,1,-0.001080944,-0.000105683,0.000694360,1,-0.147879288,0.183360457,9.803820610,1,0,0
1779140673768.000000000,2419,164691.768000000,0.012888026,-0.019854218,-0.995312810,0.000130017,-0.000199050,-0.009959308,1779140673768.000000000,2419,164691.768000000,-0.021618323,-0.011479924,0.043135673,1,-0.001192048,0.000268648,-0.000385921,1,-0.148015305,0.183186069,9.803821564,1,0,0
1779140673778.000000000,2419,164691.778000000,0.013784741,-0.019438971,-0.996516585,0.000134504,-0.000192429,-0.009960191,1779140673778.000000000,2419,164691.778000000,-0.012903513,-0.007473352,0.031331349,1,0.000268330,0.001221576,-0.000391834,1,-0.148123994,0.183166042,9.803820610,1,0,0
1779140673798.000000000,2419,164691.798000000,0.015869461,-0.018836269,-0.997878015,0.000148745,-0.000194486,-0.009961406,1779140673798.000000000,2419,164691.798000000,0.007212453,-0.001696642,0.017977946,1,0.000077283,0.001714158,-0.000943758,1,-0.148467839,0.183026046,9.803817749,1,0,0
1779140673808.000000000,2419,164691.808000000,0.014194436,-0.016608197,-0.995201051,0.000152788,-0.000180062,-0.009954028,1779140673808.000000000,2419,164691.808000000,-0.009331608,0.020062614,0.044229593,1,-0.001279680,0.001669673,-0.001350158,1,-0.148584381,0.182892814,9.803818703,1,0,0
1779140673818.000000000,2419,164691.818000000,0.016886387,-0.014973002,-0.997753739,0.000166021,-0.000155499,-0.009967048,1779140673818.000000000,2419,164691.818000000,0.016845498,0.036061194,0.019193634,1,-0.000049004,0.002211722,-0.001346807,1,-0.148823202,0.182894021,9.803814888,1,0,0
1779140673838.000000000,2419,164691.838000000,0.017386667,-0.016148243,-0.995107949,0.000173896,-0.000157913,-0.009949286,1779140673838.000000000,2419,164691.838000000,0.021463621,0.024528921,0.045135599,1,-0.000526062,0.000842235,-0.000860032,1,-0.149068132,0.182872280,9.803811073,1,0,0
1779140673848.000000000,2419,164691.848000000,0.016428120,-0.016863419,-0.995035231,0.000167670,-0.000169523,-0.009966620,1779140673848.000000000,2419,164691.848000000,0.012071030,0.017473081,0.045849774,1,-0.000650432,-0.000645100,-0.001154915,1,-0.149014354,0.182825893,9.803812981,1,0,0
1779140673868.000000000,2419,164691.868000000,0.016589204,-0.019372514,-0.994177282,0.000168318,-0.000190621,-0.009955692,1779140673868.000000000,2419,164691.868000000,0.013656148,-0.007024331,0.054260958,1,0.000860789,-0.000269585,-0.000982967,1,-0.149019942,0.182981744,9.803810120,1,0,0
1779140673878.000000000,2419,164691.878000000,0.017335074,-0.019242937,-0.997316897,0.000167887,-0.000187186,-0.009962741,1779140673878.000000000,2419,164691.878000000,0.020992232,-0.005670880,0.023470581,1,0.001063737,-0.000892475,-0.000584279,1,-0.148979247,0.183070824,9.803809166,1,0,0
1779140673898.000000000,2419,164691.898000000,0.016074972,-0.018377988,-0.996457696,0.000165279,-0.000181371,-0.009964103,1779140673898.000000000,2419,164691.898000000,0.008775082,0.002814884,0.031898711,1,-0.000522493,-0.001058672,0.000540298,1,-0.148833185,0.183025330,9.803812027,1,0,0
1779140673908.000000000,2419,164691.908000000,0.016023995,-0.018059036,-0.996322513,0.000158632,-0.000184482,-0.009960162,1779140673908.000000000,2419,164691.908000000,0.008317513,0.005911056,0.033225924,1,0.000440284,-0.000949115,0.000176442,1,-0.148794487,0.183023527,9.803812981,1,0,0
1779140673928.000000000,2419,164691.928000000,0.014079059,-0.019536788,-0.995647192,0.000143048,-0.000194165,-0.009954857,1779140673928.000000000,2419,164691.928000000,-0.010563386,-0.008439898,0.039848387,1,0.000095646,-0.000655147,0.000576888,1,-0.148611009,0.183153808,9.803812981,1,0,0
1779140673938.000000000,2419,164691.938000000,0.014001651,-0.018532827,-0.996034503,0.000141292,-0.000188479,-0.009962852,1779140673938.000000000,2419,164691.938000000,-0.011239209,0.001460960,0.036050729,1,0.001034934,-0.000416797,0.000864042,1,-0.148534998,0.183238640,9.803812981,1,0,0
1779140673958.000000000,2419,164691.958000000,0.014555579,-0.017592549,-0.996597171,0.000145810,-0.000175542,-0.009970308,1779140673958.000000000,2419,164691.958000000,-0.005776875,0.010880512,0.030529860,1,0.000876116,-0.000863487,0.000115548,1,-0.148491338,0.183431894,9.803810120,1,0,0
1779140673968.000000000,2419,164691.968000000,0.014421981,-0.016905295,-0.995638967,0.000141378,-0.000167798,-0.009951837,1779140673968.000000000,2419,164691.968000000,-0.007059921,0.017636463,0.039926443,1,-0.000178731,-0.000152457,0.000137031,1,-0.148486421,0.183415264,9.803810120,1,0,0
1779140673978.000000000,2419,164691.978000000,0.014623518,-0.018624617,-0.996289134,0.000148946,-0.000183028,-0.009965451,1779140673978.000000000,2419,164691.978000000,-0.005058155,0.000809171,0.033550315,1,0.000085874,-0.000868942,-0.000766871,1,-0.148439214,0.183456600,9.803810120,1,0,0
1779140673998.000000000,2419,164691.998000000,0.014470127,-0.021127537,-0.995955229,0.000147826,-0.000209349,-0.009962142,1779140673998.000000000,2419,164691.998000000,-0.006438169,-0.023725158,0.036826320,1,0.000240900,-0.000482673,-0.000772822,1,-0.148327038,0.183472350,9.803812027,1,0,0
1779140674008.000000000,2419,164692.008000000,0.014687780,-0.020138204,-0.995388925,0.000146473,-0.000202584,-0.009950126,1779140674008.000000000,2419,164692.008000000,-0.004236412,-0.013987303,0.042380430,1,0.000624764,-0.000729816,-0.000097197,1,-0.148251638,0.183520481,9.803812027,1,0,0
1779140674028.000000000,2419,164692.028000000,0.015566321,-0.017460678,-0.995264888,0.000153752,-0.000174995,-0.009948051,1779140674028.000000000,2419,164692.028000000,0.004433884,0.012366031,0.043595910,1,0.000484023,-0.000259928,-0.000094889,1,-0.148211524,0.183611855,9.803811073,1,0,0
1779140674038.000000000,2419,164692.038000000,0.015396016,-0.018046979,-0.996079624,0.000153834,-0.000178965,-0.009966866,1779140674038.000000000,2419,164692.038000000,0.002784031,0.006660290,0.035604984,1,0.000833359,-0.000122825,-0.000762069,1,-0.148195922,0.183666348,9.803810120,1,0,0
1779140674058.000000000,2419,164692.058000000,0.014309594,-0.020114599,-0.995074689,0.000145595,-0.000204012,-0.009956889,1779140674058.000000000,2419,164692.058000000,-0.007834219,-0.013541481,0.045460291,1,-0.000187939,-0.000681509,-0.001225546,1,-0.148151517,0.183706269,9.803810120,1,0,0
1779140674068.000000000,2419,164692.068000000,0.015156863,-0.020957274,-0.995586097,0.000150729,-0.000206344,-0.009949146,1779140674068.000000000,2419,164692.068000000,0.000485450,-0.021813158,0.040445510,1,0.000462763,-0.000213705,-0.000856574,1,-0.148147002,0.183721364,9.803809166,1,0,0
1779140674088.000000000,2419,164692.088000000,0.015408805,-0.019762611,-0.996201873,0.000156734,-0.000197926,-0.009960387,1779140674088.000000000,2419,164692.088000000,0.003006356,-0.009961937,0.034404468,1,0.000769653,-0.000256180,0.000076414,1,-0.148094371,0.183867142,9.803807259,1,0,0
1779140674098.000000000,2419,164692.098000000,0.015723340,-0.017862841,-0.996220946,0.000158398,-0.000180479,-0.009965017,1779140674098.000000000,2419,164692.098000000,0.006116768,0.008640581,0.034217823,1,0.000375171,-0.000686762,0.000323441,1,-0.148054913,0.183827102,9.803809166,1,0,0
1779140674108.000000000,2419,164692.108000000,0.015613978,-0.018363995,-0.995844483,0.000155296,-0.000183045,-0.009958223,1779140674108.000000000,2419,164692.108000000,0.005051138,0.003742800,0.037909742,1,0.000099450,0.000484906,-0.000217171,1,-0.148084939,0.183835089,9.803808212,1,0,0
1779140674118.000000000,2419,164692.118000000,0.014999483,-0.018630721,-0.995733500,0.000152296,-0.000184477,-0.009956584,1779140674118.000000000,2419,164692.118000000,-0.000981712,0.001075827,0.038998567,1,-0.000532017,-0.000300491,0.000168845,1,-0.148066923,0.183764264,9.803810120,1,0,0
1779140674128.000000000,2419,164692.128000000,0.014739385,-0.018223010,-0.995517015,0.000145742,-0.000182967,-0.009952951,1779140674128.000000000,2419,164692.128000000,-0.003540697,0.005046885,0.041122235,1,0.000087932,0.000278276,-0.000069320,1,-0.148093417,0.183756277,9.803810120,1,0,0
1779140674138.000000000,2419,164692.138000000,0.014548960,-0.017862916,-0.995736778,0.000145795,-0.000179472,-0.009960595,1779140674138.000000000,2419,164692.138000000,-0.005413222,0.008584452,0.038966410,1,0.000208353,0.000060129,0.000091642,1,-0.148091614,0.183766380,9.803809166,1,0,0
1779140674158.000000000,2419,164692.158000000,0.015245494,-0.017864550,-0.995799065,0.000154225,-0.000179296,-0.009961024,1779140674158.000000000,2419,164692.158000000,0.001581340,0.008617843,0.038357466,1,0.000215015,-0.001528530,-0.000232770,1,-0.147878319,0.183815852,9.803812027,1,0,0
1779140674168.000000000,2419,164692.168000000,0.015391733,-0.018587977,-0.995660484,0.000154271,-0.000183787,-0.009952962,1779140674168.000000000,2419,164692.168000000,0.003067490,0.001519339,0.039717622,1,-0.000240054,-0.000306063,0.000452395,1,-0.147864029,0.183797851,9.803812027,1,0,0
1779140674188.000000000,2419,164692.188000000,0.015699688,-0.019613678,-0.996060371,0.000154640,-0.000196934,-0.009959730,1779140674188.000000000,2419,164692.188000000,0.006178684,-0.008520034,0.035796486,1,0.000524906,-0.000778575,0.000565802,1,-0.147758037,0.183841094,9.803812981,1,0,0
1779140674198.000000000,2419,164692.198000000,0.015202936,-0.020074053,-0.995804250,0.000150744,-0.000200110,-0.009956900,1779140674198.000000000,2419,164692.198000000,0.001348497,-0.012969790,0.038307782,1,-0.000217637,-0.000308931,0.001157892,1,-0.147731066,0.183883190,9.803812981,1,0,0
1779140674218.000000000,2419,164692.218000000,0.013750170,-0.019870425,-0.995675206,0.000140265,-0.000198846,-0.009958643,1779140674218.000000000,2419,164692.218000000,-0.012717285,-0.011115380,0.039579537,1,-0.000453456,-0.001239268,0.000784623,1,-0.147521272,0.183733135,9.803818703,1,0,0
1779140674228.000000000,2419,164692.228000000,0.013732732,-0.019117039,-0.995567322,0.000138494,-0.000192211,-0.009960066,1779140674228.000000000,2419,164692.228000000,-0.012841506,-0.003782243,0.040638965,1,-0.000906040,-0.000692095,0.000816227,1,-0.147491530,0.183663979,9.803820610,1,0,0
1779140674248.000000000,2419,164692.248000000,0.015310112,-0.017607408,-0.995382786,0.000151358,-0.000177772,-0.009958520,1779140674248.000000000,2419,164692.248000000,0.002647786,0.011016265,0.042448390,1,0.000252154,-0.000334853,0.000683520,1,-0.147482291,0.183694154,9.803820610,1,0,0
1779140674258.000000000,2419,164692.258000000,0.015802797,-0.017427171,-0.996315420,0.000157870,-0.000174073,-0.009960496,1779140674258.000000000,2419,164692.258000000,0.007535521,0.012934891,0.033301227,1,0.000356009,-0.000444636,-0.000146793,1,-0.147423625,0.183864832,9.803817749,1,0,0
1779140674268.000000000,2419,164692.268000000,0.014814181,-0.017493283,-0.995822251,0.000150246,-0.000176548,-0.009957131,1779140674268.000000000,2419,164692.268000000,-0.002124247,0.012268277,0.038137913,1,-0.000416769,-0.000225657,-0.000120180,1,-0.147394806,0.183806822,9.803819656,1,0,0
1779140674288.000000000,2419,164692.288000000,0.012963368,-0.020070590,-0.996065199,0.000129245,-0.000198623,-0.009960876,1779140674288.000000000,2419,164692.288000000,-0.020175783,-0.012958414,0.035755828,1,-0.000355597,-0.001183332,0.000229367,1,-0.147265941,0.183855876,9.803820610,1,0,0
1779140674298.000000000,2419,164692.298000000,0.013316891,-0.020926358,-0.995022833,0.000132925,-0.000210692,-0.009952703,1779140674298.000000000,2419,164692.298000000,-0.016634336,-0.021328572,0.045978770,1,0.000719680,-0.000613828,0.000045809,1,-0.147209242,0.183911383,9.803820610,1,0,0
1779140674318.000000000,2419,164692.318000000,0.014951389,-0.018912761,-0.995468795,0.000149899,-0.000190930,-0.009955373,1779140674318.000000000,2419,164692.318000000,-0.000594359,-0.001514419,0.041604858,1,0.000500652,0.000508450,0.000991985,1,-0.147232696,0.183972508,9.803818703,1,0,0
1779140674328.000000000,2419,164692.328000000,0.015776273,-0.018921537,-0.996931732,0.000157260,-0.000189640,-0.009966697,1779140674328.000000000,2419,164692.328000000,0.007475419,-0.001577695,0.027256893,1,0.000196581,-0.000181808,0.000689819,1,-0.147230908,0.183985680,9.803818703,1,0,0
1779140674348.000000000,2419,164692.348000000,0.016400751,-0.019058300,-0.996129096,0.000164564,-0.000187333,-0.009966237,1779140674348.000000000,2419,164692.348000000,0.013548579,-0.003028479,0.035129517,1,-0.000639758,-0.000168387,-0.000253809,1,-0.147282735,0.183849528,9.803820610,1,0,0
1779140674358.000000000,2419,164692.358000000,0.015519690,-0.018686721,-0.995404243,0.000154938,-0.000184566,-0.009948732,1779140674358.000000000,2419,164692.358000000,0.004902584,0.000625637,0.042237863,1,0.000619166,0.000823674,0.000392451,1,-0.147319064,0.183899283,9.803818703,1,0,0
1779140674378.000000000,2419,164692.378000000,0.014219924,-0.017974330,-0.996041596,0.000145193,-0.000177974,-0.009959515,1779140674378.000000000,2419,164692.378000000,-0.007847540,0.007672640,0.035986315,1,0.000905112,-0.000249811,-0.000248485,1,-0.147289708,0.183968753,9.803817749,1,0,0
1779140674388.000000000,2419,164692.388000000,0.014699285,-0.017451450,-0.995578051,0.000147736,-0.000172996,-0.009957326,1779140674388.000000000,2419,164692.388000000,-0.003120662,0.012834617,0.040532302,1,0.000131562,-0.000343302,-0.000469082,1,-0.147260994,0.183978766,9.803817749,1,0,0
1779140674408.000000000,2419,164692.408000000,0.014717428,-0.019053828,-0.995819628,0.000148027,-0.000189224,-0.009953788,1779140674408.000000000,2419,164692.408000000,-0.002860642,-0.002927830,0.038165003,1,-0.000214350,-0.000246925,0.000205921,1,-0.147181496,0.183919817,9.803820610,1,0,0
1779140674418.000000000,2419,164692.418000000,0.014766849,-0.019041156,-0.995660841,0.000151200,-0.000193462,-0.009962050,1779140674418.000000000,2419,164692.418000000,-0.002328601,-0.002827487,0.039723113,1,-0.000323532,-0.000983227,0.000669510,1,-0.147110865,0.183892697,9.803821564,1,0,0
1779140674428.000000000,2419,164692.428000000,0.015200588,-0.018649209,-0.996532857,0.000150846,-0.000189241,-0.009960396,1779140674428.000000000,2419,164692.428000000,0.001947440,0.001003936,0.031171855,1,0.000483733,-0.000155529,0.001077947,1,-0.147113934,0.183905810,9.803821564,1,0,0
1779140674448.000000000,2419,164692.448000000,0.014415799,-0.019025374,-0.996857762,0.000145277,-0.000187489,-0.009965076,1779140674448.000000000,2419,164692.448000000,-0.005745724,-0.002654321,0.027986301,1,0.000745542,0.000665313,0.000701509,1,-0.147136778,0.183944464,9.803820610,1,0,0
1779140674458.000000000,2419,164692.458000000,0.013206868,-0.017378572,-0.994619966,0.000132883,-0.000174783,-0.009950716,1779140674458.000000000,2419,164692.458000000,-0.017616628,0.013502413,0.049930796,1,-0.000487404,0.000416298,0.000696403,1,-0.147142306,0.183913052,9.803821564,1,0,0
1779140674468.000000000,2419,164692.468000000,0.014290067,-0.017349146,-0.996684968,0.000144307,-0.000175915,-0.009965803,1779140674468.000000000,2419,164692.468000000,-0.006977164,0.013821029,0.029679816,1,0.000299086,0.000050951,0.000544480,1,-0.147116005,0.183967635,9.803820610,1,0,0
1779140674478.000000000,2419,164692.478000000,0.014017901,-0.018257499,-0.995443881,0.000139076,-0.000181085,-0.009953813,1779140674478.000000000,2419,164692.478000000,-0.009661912,0.004903633,0.041850142,1,-0.000253312,0.000162498,0.000271231,1,-0.147135466,0.183940753,9.803820610,1,0,0
1779140674488.000000000,2419,164692.488000000,0.015618001,-0.019229665,-0.995587945,0.000152751,-0.000192461,-0.009960252,1779140674488.000000000,2419,164692.488000000,0.006035794,-0.004617996,0.040437434,1,0.000455398,-0.000309172,0.000084381,1,-0.147114784,0.183974862,9.803820610,1,0,0
1779140674508.000000000,2419,164692.508000000,0.016424261,-0.018587593,-0.995243728,0.000163249,-0.000190708,-0.009957614,1779140674508.000000000,2419,164692.508000000,0.014085729,0.001852175,0.043812290,1,0.000568894,-0.001307051,0.000243053,1,-0.146940321,0.184152082,9.803819656,1,0,0
1779140674518.000000000,2419,164692.518000000,0.016091149,-0.018299306,-0.996277213,0.000159151,-0.000182833,-0.009961686,1779140674518.000000000,2419,164692.518000000,0.010867214,0.004684675,0.033678401,1,-0.000170998,-0.000306054,0.000333128,1,-0.146923319,0.184134409,9.803820610,1,0,0
1779140674538.000000000,2419,164692.538000000,0.014257149,-0.018033512,-0.995726228,0.000144974,-0.000184336,-0.009965168,1779140674538.000000000,2419,164692.538000000,-0.006959344,0.007268706,0.039083876,1,-0.000133569,-0.001145552,-0.000527541,1,-0.146738783,0.184112638,9.803823471,1,0,0
1779140674548.000000000,2419,164692.548000000,0.014008566,-0.018414672,-0.995567620,0.000138098,-0.000181631,-0.009952605,1779140674548.000000000,2419,164692.548000000,-0.009301677,0.003581263,0.040639292,1,0.001418751,-0.000696170,-0.000570335,1,-0.146657407,0.184211537,9.803822517,1,0,0
1779140674558.000000000,2419,164692.558000000,0.013216720,-0.018448118,-0.994389176,0.000135669,-0.000187730,-0.009948035,1779140674558.000000000,2419,164692.558000000,-0.017005354,0.003357096,0.052194767,1,0.000742455,-0.000411985,-0.000478332,1,-0.146604523,0.184294283,9.803822517,1,0,0
1779140674578.000000000,2419,164692.578000000,0.014240687,-0.019628134,-0.994952321,0.000140286,-0.000194405,-0.009951755,1779140674578.000000000,2419,164692.578000000,-0.006986858,-0.008149618,0.046671070,1,0.000304808,-0.000462189,0.000239600,1,-0.146625727,0.184346259,9.803820610,1,0,0
1779140674588.000000000,2419,164692.588000000,0.015075334,-0.018879330,-0.997077703,0.000150916,-0.000190524,-0.009968055,1779140674588.000000000,2419,164692.588000000,0.001236409,-0.000804381,0.025828389,1,-0.000141276,-0.000378526,0.000366657,1,-0.146590099,0.184334368,9.803821564,1,0,0
1779140674608.000000000,2419,164692.608000000,0.015279549,-0.018449396,-0.995362043,0.000155190,-0.000188757,-0.009959870,1779140674608.000000000,2419,164692.608000000,0.003234193,0.003394035,0.042653583,1,0.000231820,0.000484062,-0.000188860,1,-0.146622241,0.184327960,9.803821564,1,0,0
1779140674618.000000000,2419,164692.618000000,0.014932318,-0.019269688,-0.997008801,0.000149653,-0.000189467,-0.009962361,1779140674618.000000000,2419,164692.618000000,-0.000192718,-0.004597623,0.026503064,1,0.000804754,0.000390052,-0.000009218,1,-0.146640927,0.184398577,9.803819656,1,0,0
1779140674638.000000000,2419,164692.638000000,0.014652005,-0.018648298,-0.995382667,0.000144009,-0.000183315,-0.009953479,1779140674638.000000000,2419,164692.638000000,-0.002871825,0.001514988,0.042451225,1,0.000656223,-0.000245522,-0.000435291,1,-0.146551505,0.184412599,9.803820610,1,0,0
1779140674648.000000000,2419,164692.648000000,0.014412954,-0.018223926,-0.995192349,0.000143849,-0.000182358,-0.009953580,1779140674648.000000000,2419,164692.648000000,-0.005212585,0.005726519,0.044316862,1,0.000798983,0.000089014,-0.000692428,1,-0.146558568,0.184466809,9.803819656,1,0,0
1779140674668.000000000,2419,164692.668000000,0.014957150,-0.017995929,-0.995488942,0.000149005,-0.000178484,-0.009952796,1779140674668.000000000,2419,164692.668000000,0.000153520,0.008021377,0.041406661,1,0.000281698,-0.000184616,-0.000210749,1,-0.146519914,0.184509665,9.803819656,1,0,0
1779140674678.000000000,2419,164692.678000000,0.014520728,-0.019193573,-0.996046126,0.000146317,-0.000195811,-0.009963074,1779140674678.000000000,2419,164692.678000000,-0.004129366,-0.003745819,0.035943668,1,0.000141306,0.000836438,-0.000331481,1,-0.146555334,0.184483111,9.803819656,1,0,0
1779140674698.000000000,2419,164692.698000000,0.015067963,-0.020228382,-0.995171309,0.000153693,-0.000204569,-0.009957763,1779140674698.000000000,2419,164692.698000000,0.001165803,-0.013913024,0.044521399,1,-0.000324902,0.000025502,0.000222158,1,-0.146601111,0.184449628,9.803819656,1,0,0
1779140674708.000000000,2419,164692.708000000,0.015510418,-0.019555671,-0.996056974,0.000154064,-0.000195463,-0.009959744,1779140674708.000000000,2419,164692.708000000,0.005513121,-0.007328361,0.035836622,1,-0.000192237,-0.000245510,0.000152123,1,-0.146584377,0.184441358,9.803819656,1,0,0
1779140674718.000000000,2419,164692.718000000,0.015012091,-0.018929873,-0.995610416,0.000151287,-0.000191077,-0.009955064,1779140674718.000000000,2419,164692.718000000,0.000665553,-0.001153348,0.040215828,1,0.000858640,0.000276285,0.000648346,1,-0.146561027,0.184512407,9.803818703,1,0,0
1779140674738.000000000,2419,164692.738000000,0.014170209,-0.017382111,-0.996313930,0.000140288,-0.000172368,-0.009960219,1779140674738.000000000,2419,164692.738000000,-0.007509679,0.014032304,0.033317357,1,-0.000620636,-0.000218017,0.000001018,1,-0.146465167,0.184473217,9.803820610,1,0,0
1779140674748.000000000,2419,164692.748000000,0.014564484,-0.017000176,-0.995026171,0.000142873,-0.000169203,-0.009957116,1779140674748.000000000,2419,164692.748000000,-0.003694881,0.017736541,0.045946050,1,-0.000697023,0.001251681,-0.000165768,1,-0.146562859,0.184429511,9.803820610,1,0,0
1779140674768.000000000,2419,164692.768000000,0.013947082,-0.018404562,-0.995289147,0.000139275,-0.000184285,-0.009955416,1779140674768.000000000,2419,164692.768000000,-0.009842870,0.003947368,0.043365870,1,-0.000075674,0.000245624,-0.000379259,1,-0.146624923,0.184431940,9.803818703,1,0,0
1779140674778.000000000,2419,164692.778000000,0.013971905,-0.019195611,-0.996117830,0.000141495,-0.000190273,-0.009961883,1779140674778.000000000,2419,164692.778000000,-0.009612359,-0.003783339,0.035239145,1,-0.000688499,-0.000294633,0.000212193,1,-0.146620646,0.184439927,9.803818703,1,0,0
1779140674798.000000000,2419,164692.798000000,0.015308121,-0.020451393,-0.996608198,0.000153798,-0.000207619,-0.009962365,1779140674798.000000000,2419,164692.798000000,0.003429687,-0.016032940,0.030428225,1,0.000393131,0.000452224,0.000157753,1,-0.146705732,0.184539080,9.803815842,1,0,0
1779140674808.000000000,2419,164692.808000000,0.016063372,-0.020103008,-0.996140242,0.000158327,-0.000203877,-0.009960171,1779140674808.000000000,2419,164692.808000000,0.010763379,-0.012562227,0.035015371,1,0.000727982,0.000861170,0.000137711,1,-0.146791264,0.184603721,9.803812981,1,0,0
1779140674828.000000000,2419,164692.828000000,0.015618959,-0.018536719,-0.996031165,0.000155263,-0.000184516,-0.009958770,1779140674828.000000000,2419,164692.828000000,0.006316456,0.002807672,0.036083244,1,-0.000160067,-0.000282744,0.000141195,1,-0.146844313,0.184585869,9.803812981,1,0,0
1779140674838.000000000,2419,164692.838000000,0.014380625,-0.018539064,-0.995062530,0.000143861,-0.000184630,-0.009954633,1779140674838.000000000,2419,164692.838000000,-0.005853653,0.002715476,0.045583382,1,-0.000729833,0.000479236,0.000291411,1,-0.146894202,0.184498966,9.803813934,1,0,0
1779140674848.000000000,2419,164692.848000000,0.014957411,-0.018763687,-0.997719467,0.000150602,-0.000185949,-0.009971844,1779140674848.000000000,2419,164692.848000000,-0.000255682,0.000513790,0.019526379,1,-0.000229462,-0.000070161,0.000642677,1,-0.146935225,0.184515864,9.803812981,1,0,0
1779140674868.000000000,2419,164692.868000000,0.015234726,-0.018453846,-0.996278524,0.000154113,-0.000185500,-0.009963192,1779140674868.000000000,2419,164692.868000000,0.002472467,0.003695327,0.033655077,1,0.000193395,-0.000622733,0.000001206,1,-0.146909475,0.184672445,9.803810120,1,0,0
1779140674878.000000000,2419,164692.878000000,0.015277861,-0.018104833,-0.996188700,0.000152165,-0.000180632,-0.009955884,1779140674878.000000000,2419,164692.878000000,0.002934057,0.007090924,0.034536906,1,-0.000368594,-0.000207579,0.000349668,1,-0.146883890,0.184627399,9.803812027,1,0,0
1779140674898.000000000,2419,164692.898000000,0.015375107,-0.016737223,-0.995043457,0.000155883,-0.000163247,-0.009948933,1779140674898.000000000,2419,164692.898000000,0.003863038,0.020548908,0.045766469,1,0.000498651,0.000858463,0.000076658,1,-0.146942019,0.184700593,9.803809166,1,0,0
1779140674908.000000000,2419,164692.908000000,0.015542284,-0.017097101,-0.996116877,0.000152345,-0.000169675,-0.009961164,1779140674908.000000000,2419,164692.908000000,0.005488240,0.017087594,0.035238121,1,0.000510722,-0.000307845,0.000095272,1,-0.146919847,0.184768856,9.803808212,1,0,0
1779140674928.000000000,2419,164692.928000000,0.014782368,-0.018189382,-0.996148944,0.000146768,-0.000181388,-0.009959402,1779140674928.000000000,2419,164692.928000000,-0.001958157,0.006423366,0.034922820,1,0.000010059,-0.000575383,-0.000529618,1,-0.146906033,0.184800342,9.803808212,1,0,0
1779140674938.000000000,2419,164692.938000000,0.013881749,-0.019699415,-0.994362116,0.000140248,-0.000198779,-0.009946547,1779140674938.000000000,2419,164692.938000000,-0.010678886,-0.008413152,0.052447833,1,-0.000146962,-0.000846979,-0.000574285,1,-0.146786273,0.184767276,9.803810120,1,0,0
1779140674958.000000000,2419,164692.958000000,0.014278479,-0.021000069,-0.995025933,0.000142190,-0.000211290,-0.009954281,1779140674958.000000000,2419,164692.958000000,-0.006699011,-0.021203909,0.045940276,1,-0.000397684,-0.000784263,0.000381732,1,-0.146698371,0.184724197,9.803812981,1,0,0
1779140674968.000000000,2419,164692.968000000,0.014386133,-0.019803239,-0.996121526,0.000142992,-0.000201698,-0.009963170,1779140674968.000000000,2419,164692.968000000,-0.005648259,-0.009473054,0.035196271,1,0.000293159,-0.000051792,0.000512441,1,-0.146726131,0.184739783,9.803812027,1,0,0
1779140674988.000000000,2419,164692.988000000,0.015279734,-0.018098839,-0.996912241,0.000151029,-0.000181733,-0.009969296,1779140674988.000000000,2419,164692.988000000,0.003123302,0.007271902,0.027441800,1,-0.000021363,-0.000809272,-0.000302250,1,-0.146694630,0.184760079,9.803812027,1,0,0
1779140674998.000000000,2419,164692.998000000,0.015341701,-0.018086564,-0.995908856,0.000150750,-0.000179822,-0.009958103,1779140674998.000000000,2419,164692.998000000,0.003749418,0.007401286,0.037281580,1,0.000356054,-0.000035139,-0.000935232,1,-0.146700740,0.184780583,9.803811073,1,0,0
1779140675008.000000000,2419,164693.008000000,0.015019056,-0.018660704,-0.996759415,0.000150627,-0.000186710,-0.009964751,1779140675008.000000000,2419,164693.008000000,0.000555970,0.001822866,0.028938796,1,0.000405032,0.000223594,-0.000415820,1,-0.146737903,0.184834316,9.803810120,1,0,0
1779140675028.000000000,2419,164693.028000000,0.014066775,-0.019561505,-0.995821714,0.000139331,-0.000196441,-0.009956060,1779140675028.000000000,2419,164693.028000000,-0.008856645,-0.006986405,0.038133115,1,-0.000183948,0.000595313,0.000245439,1,-0.146823034,0.184840798,9.803808212,1,0,0
1779140675038.000000000,2419,164693.038000000,0.013627651,-0.018738899,-0.995904863,0.000136788,-0.000191151,-0.009963781,1779140675038.000000000,2419,164693.038000000,-0.013195208,0.001107239,0.037316624,1,-0.000186336,-0.000045138,0.000625431,1,-0.146835044,0.184867561,9.803808212,1,0,0
1779140675058.000000000,2419,164693.058000000,0.014836574,-0.016872276,-0.995556653,0.000146929,-0.000170048,-0.009959205,1779140675058.000000000,2419,164693.058000000,-0.001260651,0.019321134,0.040734343,1,-0.000456474,-0.000136605,0.000413468,1,-0.146742836,0.184760273,9.803811073,1,0,0
1779140675068.000000000,2419,164693.068000000,0.015857864,-0.016830064,-0.996623158,0.000156607,-0.000166006,-0.009961030,1779140675068.000000000,2419,164693.068000000,0.008769246,0.019676801,0.030276570,1,-0.000398795,-0.000162481,-0.000865730,1,-0.146738052,0.184710026,9.803812027,1,0,0
1779140675088.000000000,2419,164693.088000000,0.017184298,-0.020106064,-0.996281445,0.000167910,-0.000196063,-0.009958995,1779140675088.000000000,2419,164693.088000000,0.021766951,-0.012478318,0.033628348,1,0.000223951,-0.000673869,-0.001104033,1,-0.146733090,0.184701294,9.803812027,1,0,0
1779140675098.000000000,2419,164693.098000000,0.015965978,-0.020146593,-0.995033026,0.000162162,-0.000202589,-0.009952996,1779140675098.000000000,2419,164693.098000000,0.009862635,-0.012929525,0.045872778,1,-0.000250535,-0.000137023,-0.000094662,1,-0.146705911,0.184633210,9.803813934,1,0,0
1779140675118.000000000,2419,164693.118000000,0.015095349,-0.018413933,-0.996151090,0.000153481,-0.000189871,-0.009957678,1779140675118.000000000,2419,164693.118000000,0.001342917,0.003981709,0.034909789,1,0.000688938,0.000176570,-0.000298475,1,-0.146697596,0.184582084,9.803814888,1,0,0
1779140675128.000000000,2419,164693.128000000,0.014139479,-0.017957829,-0.995891511,0.000140757,-0.000181127,-0.009961024,1779140675128.000000000,2419,164693.128000000,-0.007986947,0.008470595,0.037456434,1,-0.000334356,-0.000084642,-0.000504969,1,-0.146645531,0.184566095,9.803816795,1,0,0
1779140675138.000000000,2419,164693.138000000,0.013767960,-0.017904846,-0.996082067,0.000135712,-0.000177944,-0.009961228,1779140675138.000000000,2419,164693.138000000,-0.011599170,0.008945582,0.035588365,1,-0.000871974,-0.000430479,-0.000618643,1,-0.146603674,0.184504643,9.803817749,1,0,0
1779140675158.000000000,2419,164693.158000000,0.014234044,-0.020118002,-0.996335089,0.000140120,-0.000201811,-0.009966240,1779140675158.000000000,2419,164693.158000000,-0.006919299,-0.012775950,0.033109251,1,-0.000299477,-0.000600309,0.000291076,1,-0.146488696,0.184505060,9.803819656,1,0,0
1779140675168.000000000,2419,164693.168000000,0.014208325,-0.021087594,-0.995438755,0.000140951,-0.000210857,-0.009949066,1779140675168.000000000,2419,164693.168000000,-0.007122879,-0.022314359,0.041900612,1,-0.000683162,-0.000380073,0.000221644,1,-0.146446973,0.184463099,9.803821564,1,0,0
1779140675188.000000000,2419,164693.188000000,0.017544918,-0.022868535,-0.995637298,0.000152430,-0.000231979,-0.009952881,1779140675188.000000000,2419,164693.188000000,0.025739556,-0.039821852,0.039955873,1,0.000203901,0.000526038,-0.000087143,1,-0.146333799,0.184448197,9.803823471,1,0,0
1779140675198.000000000,2419,164693.198000000,0.016778583,-0.019111067,-0.997770548,0.000139316,-0.000174311,-0.009958220,1779140675198.000000000,2419,164693.198000000,0.018224845,-0.002942953,0.019035880,1,-0.000186419,0.000191398,0.000624220,1,-0.146322459,0.184467092,9.803823471,1,0,0
1779140675218.000000000,2419,164693.218000000,0.013552973,-0.017706202,-0.997410893,0.000137780,-0.000169201,-0.009976257,1779140675218.000000000,2419,164693.218000000,-0.013292984,0.010826727,0.022564851,1,0.000405918,0.000475901,-0.001051941,1,-0.146217719,0.184477448,9.803824425,1,0,0
1779140675228.000000000,2419,164693.228000000,0.014546461,-0.017988587,-0.996031404,0.000146380,-0.000167582,-0.009965708,1779140675228.000000000,2419,164693.228000000,-0.003559378,0.007965169,0.036094598,1,-0.000992937,0.000430034,-0.001554417,1,-0.146225780,0.184341252,9.803827286,1,0,0
1779140675248.000000000,2419,164693.248000000,0.016140621,-0.017579582,-0.992999792,0.000158267,-0.000176626,-0.009947241,1779140675248.000000000,2419,164693.248000000,0.012111323,0.011939205,0.065825701,1,0.000114493,-0.000240849,-0.002124800,1,-0.146167845,0.184338614,9.803827286,1,0,0
1779140675258.000000000,2419,164693.258000000,0.017745107,-0.020940706,-0.995879769,0.000171889,-0.000206066,-0.009963195,1779140675258.000000000,2419,164693.258000000,0.027907912,-0.021046210,0.037584253,1,0.002072296,-0.000258135,-0.000963793,1,-0.146098733,0.184363216,9.803828239,1,0,0
1779140675278.000000000,2419,164693.278000000,0.017309930,-0.021681542,-0.998280108,0.000171876,-0.000216907,-0.009965875,1779140675278.000000000,2419,164693.278000000,0.023755733,-0.028251823,0.014045475,1,0.000696290,-0.000396775,-0.001235049,1,-0.145985022,0.184392586,9.803829193,1,0,0
1779140675288.000000000,2419,164693.288000000,0.014900967,-0.020102680,-0.996009469,0.000156889,-0.000206298,-0.009956744,1779140675288.000000000,2419,164693.288000000,0.000205683,-0.012772331,0.036313396,1,0.000037567,-0.001057051,-0.000391666,1,-0.145890146,0.184368595,9.803831100,1,0,0
1779140675298.000000000,2419,164693.298000000,0.013624951,-0.017843449,-0.996920347,0.000139134,-0.000183690,-0.009954973,1779140675298.000000000,2419,164693.298000000,-0.012278927,0.009430647,0.027380330,1,0.000599087,-0.000976620,0.000976057,1,-0.145863011,0.184434265,9.803830147,1,0,0
1779140675318.000000000,2419,164693.318000000,0.012903312,-0.014677264,-0.996106982,0.000129356,-0.000147951,-0.009959619,1779140675318.000000000,2419,164693.318000000,-0.019410705,0.040614657,0.035353541,1,0.000408624,0.000988535,-0.000102606,1,-0.145979896,0.184562162,9.803826332,1,0,0
1779140675328.000000000,2419,164693.328000000,0.013118848,-0.016627779,-0.995790899,0.000130286,-0.000161260,-0.009966025,1779140675328.000000000,2419,164693.328000000,-0.017305419,0.021452513,0.038453840,1,-0.000580487,-0.000123122,-0.000540611,1,-0.145953849,0.184496969,9.803828239,1,0,0
1779140675348.000000000,2419,164693.348000000,0.015511658,-0.020127479,-0.995122731,0.000153105,-0.000201224,-0.009957707,1779140675348.000000000,2419,164693.348000000,0.006121096,-0.012959623,0.045007557,1,-0.000080714,-0.000092932,-0.000599558,1,-0.145993769,0.184420735,9.803829193,1,0,0
1779140675358.000000000,2419,164693.358000000,0.016054641,-0.022072418,-0.994892061,0.000155049,-0.000212246,-0.009944203,1779140675358.000000000,2419,164693.358000000,0.011403360,-0.031985443,0.047268681,1,0.000126515,0.000931410,-0.000124521,1,-0.146068037,0.184474930,9.803826332,1,0,0
1779140675378.000000000,2419,164693.378000000,0.015699260,-0.019938329,-0.996581495,0.000156751,-0.000196419,-0.009959877,1779140675378.000000000,2419,164693.378000000,0.007857153,-0.010996346,0.030698067,1,0.001029443,-0.000011915,0.000365215,1,-0.146099418,0.184564188,9.803824425,1,0,0
1779140675388.000000000,2419,164693.388000000,0.014799998,-0.018571747,-0.995554805,0.000152416,-0.000188368,-0.009963381,1779140675388.000000000,2419,164693.388000000,-0.000962945,0.002358886,0.040768057,1,-0.000643275,0.000047523,0.000203703,1,-0.146102726,0.184465528,9.803826332,1,0,0
1779140675408.000000000,2419,164693.408000000,0.014095219,-0.019249301,-0.995806575,0.000139583,-0.000191611,-0.009961959,1779140675408.000000000,2419,164693.408000000,-0.007905262,-0.004329290,0.038299091,1,-0.000097254,0.000207205,0.000165790,1,-0.146138519,0.184438929,9.803826332,1,0,0
1779140675418.000000000,2419,164693.418000000,0.014674950,-0.019891359,-0.995472968,0.000145244,-0.000200541,-0.009954515,1779140675418.000000000,2419,164693.418000000,-0.002241386,-0.010631305,0.041569915,1,-0.000056672,0.000401995,-0.000064635,1,-0.146166086,0.184434503,9.803826332,1,0,0
1779140675428.000000000,2419,164693.428000000,0.015319104,-0.019981593,-0.995788336,0.000154043,-0.000202132,-0.009960497,1779140675428.000000000,2419,164693.428000000,0.004088244,-0.011529719,0.038477808,1,-0.000405171,-0.000423788,0.000287283,1,-0.146127462,0.184410259,9.803827286,1,0,0
1779140675448.000000000,2419,164693.448000000,0.015856372,-0.019351630,-0.996124089,0.000159382,-0.000192374,-0.009960936,1779140675448.000000000,2419,164693.448000000,0.009376355,-0.005337046,0.035185598,1,0.000029424,-0.000211314,0.000206684,1,-0.146114841,0.184438646,9.803826332,1,0,0
1779140675458.000000000,2419,164693.458000000,0.015364637,-0.018032147,-0.995432079,0.000155407,-0.000182792,-0.009953051,1779140675458.000000000,2419,164693.458000000,0.004450160,0.007761359,0.041967139,1,0.000092229,-0.000419910,0.000627001,1,-0.146225587,0.184623003,9.803821564,1,0,0
1779140675478.000000000,2419,164693.478000000,0.013771337,-0.016996359,-0.995522022,0.000136413,-0.000167667,-0.009950668,1779140675478.000000000,2419,164693.478000000,-0.011147792,0.017966507,0.041084934,1,0.000575223,-0.000754232,0.000815352,1,-0.146174520,0.184662297,9.803821564,1,0,0
1779140675488.000000000,2419,164693.488000000,0.013723227,-0.018169608,-0.995994568,0.000140674,-0.000182797,-0.009963631,1779140675488.000000000,2419,164693.488000000,-0.011549708,0.006483726,0.036450997,1,-0.000215859,-0.000880370,0.000000480,1,-0.146101132,0.184659988,9.803822517,1,0,0
1779140675508.000000000,2419,164693.508000000,0.013853426,-0.019310389,-0.995426595,0.000140277,-0.000194337,-0.009958729,1779140675508.000000000,2419,164693.508000000,-0.010277604,-0.004756164,0.042022493,1,0.000028956,-0.000210583,0.000572232,1,-0.146126404,0.184615225,9.803823471,1,0,0
1779140675518.000000000,2419,164693.518000000,0.014494989,-0.019074721,-0.995623112,0.000145250,-0.000187550,-0.009954769,1779140675518.000000000,2419,164693.518000000,-0.003938291,-0.002451839,0.040096298,1,-0.000126561,0.000413204,0.000831601,1,-0.146097988,0.184603736,9.803823471,1,0,0
1779140675538.000000000,2419,164693.538000000,0.015300481,-0.018676315,-0.996097088,0.000151915,-0.000186182,-0.009962238,1779140675538.000000000,2419,164693.538000000,0.003888606,0.001358700,0.035447791,1,0.000587579,-0.000304557,0.000299810,1,-0.146148190,0.184529275,9.803824425,1,0,0
1779140675548.000000000,2419,164693.548000000,0.014798047,-0.018710058,-0.996586621,0.000148651,-0.000188046,-0.009961460,1779140675548.000000000,2419,164693.548000000,-0.001024463,0.001032047,0.030648042,1,-0.000523082,-0.000126346,0.000155928,1,-0.146139696,0.184498802,9.803825378,1,0,0
1779140675568.000000000,2419,164693.568000000,0.013664839,-0.018093985,-0.995632648,0.000139063,-0.000180142,-0.009957950,1779140675568.000000000,2419,164693.568000000,-0.012097536,0.006984889,0.040005561,1,-0.000293071,-0.000352337,-0.000163451,1,-0.146092936,0.184417054,9.803827286,1,0,0
1779140675578.000000000,2419,164693.578000000,0.014004307,-0.018266525,-0.995614231,0.000136375,-0.000183638,-0.009951980,1779140675578.000000000,2419,164693.578000000,-0.008801871,0.005294604,0.040185530,1,-0.000488110,0.000518794,-0.000393251,1,-0.146153644,0.184412628,9.803826332,1,0,0
1779140675588.000000000,2419,164693.588000000,0.014376659,-0.018055853,-0.996781111,0.000143534,-0.000179148,-0.009968729,1779140675588.000000000,2419,164693.588000000,-0.005159294,0.007297707,0.028743410,1,-0.000447138,-0.000111274,0.000206177,1,-0.146142572,0.184351295,9.803828239,1,0,0
1779140675608.000000000,2419,164693.608000000,0.015465712,-0.019454287,-0.995836556,0.000153711,-0.000191668,-0.009958363,1779140675608.000000000,2419,164693.608000000,0.005444318,-0.006519435,0.038006864,1,-0.000282762,-0.000008699,-0.000738597,1,-0.146222681,0.184252799,9.803828239,1,0,0
1779140675618.000000000,2419,164693.618000000,0.014908896,-0.020088598,-0.995549798,0.000147283,-0.000199071,-0.009953727,1779140675618.000000000,2419,164693.618000000,0.000003305,-0.012758585,0.040820047,1,-0.000544495,-0.000612850,0.000223938,1,-0.146183789,0.184226379,9.803829193,1,0,0
1779140675638.000000000,2419,164693.638000000,0.015132335,-0.019819314,-0.995933771,0.000152374,-0.000198938,-0.009961480,1779140675638.000000000,2419,164693.638000000,0.002151759,-0.010122303,0.037053827,1,-0.000669962,0.000092505,0.000925799,1,-0.146248117,0.184218302,9.803829193,1,0,0
1779140675648.000000000,2419,164693.648000000,0.014424091,-0.019539893,-0.995736301,0.000145221,-0.000193931,-0.009953112,1779140675648.000000000,2419,164693.648000000,-0.004793655,-0.007446833,0.038991466,1,-0.000424476,0.000196668,0.000428163,1,-0.146251574,0.184161022,9.803830147,1,0,0
1779140675668.000000000,2419,164693.668000000,0.015195529,-0.019816229,-0.995832026,0.000148415,-0.000198224,-0.009955468,1779140675668.000000000,2419,164693.668000000,0.002859052,-0.010206240,0.038055636,1,-0.000687156,0.000641429,0.000556971,1,-0.146177024,0.184103370,9.803832054,1,0,0
1779140675678.000000000,2419,164693.678000000,0.014984972,-0.019494835,-0.995627880,0.000151930,-0.000197519,-0.009959998,1779140675678.000000000,2419,164693.678000000,0.000756288,-0.007098069,0.040057223,1,0.000008303,0.000343534,0.001047327,1,-0.146206141,0.184081733,9.803832054,1,0,0
1779140675698.000000000,2419,164693.698000000,0.014589061,-0.018127153,-0.995546162,0.000147087,-0.000180694,-0.009955429,1779140675698.000000000,2419,164693.698000000,-0.003253444,0.006260603,0.040857725,1,-0.000165280,0.000445244,0.000769565,1,-0.146336704,0.184022456,9.803831100,1,0,0
1779140675708.000000000,2419,164693.708000000,0.014674766,-0.017172091,-0.996053696,0.000145244,-0.000170938,-0.009959085,1779140675708.000000000,2419,164693.708000000,-0.002392867,0.015642954,0.035880692,1,0.000290473,-0.000265210,0.000155851,1,-0.146294802,0.184052780,9.803831100,1,0,0
1779140675718.000000000,2419,164693.718000000,0.014579483,-0.016185539,-0.995979607,0.000147038,-0.000163460,-0.009959738,1779140675718.000000000,2419,164693.718000000,-0.003323406,0.025371036,0.036606591,1,0.000843999,-0.000668599,0.000414505,1,-0.146278203,0.184123501,9.803830147,1,0,0
1779140675738.000000000,2419,164693.738000000,0.014639959,-0.018635526,-0.995501280,0.000146186,-0.000182379,-0.009958873,1779140675738.000000000,2419,164693.738000000,-0.002768632,0.001346367,0.041296273,1,0.000918539,0.000493327,0.000138211,1,-0.146352902,0.184127197,9.803829193,1,0,0
1779140675748.000000000,2419,164693.748000000,0.013567272,-0.020278683,-0.995651722,0.000137461,-0.000201197,-0.009952041,1779140675748.000000000,2419,164693.748000000,-0.013302810,-0.014746198,0.039820831,1,0.000103302,0.000271844,0.000078147,1,-0.146360740,0.184123009,9.803829193,1,0,0
1779140675768.000000000,2419,164693.768000000,0.014303679,-0.020888742,-0.996326447,0.000142134,-0.000207227,-0.009956411,1779140675768.000000000,2419,164693.768000000,-0.006209336,-0.020715358,0.033201553,1,0.000358344,0.001114053,0.000775573,1,-0.146514833,0.184144810,9.803826332,1,0,0
1779140675778.000000000,2419,164693.778000000,0.013788575,-0.019102702,-0.995041728,0.000138635,-0.000194268,-0.009959880,1779140675778.000000000,2419,164693.778000000,-0.011348666,-0.003204236,0.045798782,1,0.000158375,0.000419621,0.000943039,1,-0.146580949,0.184134677,9.803825378,1,0,0
1779140675798.000000000,2419,164693.798000000,0.014613122,-0.017509757,-0.995142460,0.000146959,-0.000179397,-0.009954412,1779140675798.000000000,2419,164693.798000000,-0.003351367,0.012418896,0.044809975,1,0.000124783,0.000366290,0.000526669,1,-0.146668270,0.184135124,9.803824425,1,0,0
1779140675808.000000000,2419,164693.808000000,0.014902287,-0.017516552,-0.997422397,0.000147471,-0.000175825,-0.009969315,1779140675808.000000000,2419,164693.808000000,-0.000560021,0.012352215,0.022450449,1,-0.000630049,0.000164325,0.000301643,1,-0.146706492,0.184111387,9.803824425,1,0,0
1779140675828.000000000,2419,164693.828000000,0.014899021,-0.017822996,-0.996153235,0.000148028,-0.000181542,-0.009960388,1779140675828.000000000,2419,164693.828000000,-0.000693400,0.009242410,0.034897428,1,-0.000172999,0.000057860,-0.000121399,1,-0.146804765,0.184020847,9.803824425,1,0,0
1779140675838.000000000,2419,164693.838000000,0.015087713,-0.017173260,-0.995490849,0.000147452,-0.000171283,-0.009955483,1779140675838.000000000,2419,164693.838000000,0.001156055,0.015604767,0.041393567,1,0.000139975,0.000486903,-0.001004192,1,-0.146819651,0.184020832,9.803824425,1,0,0
1779140675858.000000000,2419,164693.858000000,0.016116878,-0.017748019,-0.996514499,0.000158851,-0.000175459,-0.009961382,1779140675858.000000000,2419,164693.858000000,0.011293527,0.009882157,0.031356599,1,-0.000154300,0.000300484,-0.000461889,1,-0.146756232,0.183919549,9.803827286,1,0,0
1779140675868.000000000,2419,164693.868000000,0.015695155,-0.017461259,-0.994939029,0.000154784,-0.000177615,-0.009946091,1779140675868.000000000,2419,164693.868000000,0.007201022,0.012673934,0.046808168,1,-0.000030109,-0.000378175,-0.001185971,1,-0.146703959,0.183908492,9.803828239,1,0,0
1779140675878.000000000,2419,164693.878000000,0.016024316,-0.019042416,-0.995999813,0.000161867,-0.000189703,-0.009961157,1779140675878.000000000,2419,164693.878000000,0.010507883,-0.002842340,0.036406774,1,-0.001132131,-0.001711944,-0.000719126,1,-0.146583930,0.183864281,9.803830147,1,0,0
1779140675898.000000000,2419,164693.898000000,0.016210085,-0.019785028,-0.995941937,0.000164788,-0.000194545,-0.009967986,1779140675898.000000000,2419,164693.898000000,0.012488258,-0.010176855,0.036977179,1,-0.000866131,-0.000571260,-0.000343730,1,-0.146460757,0.183820814,9.803833008,1,0,0
1779140675908.000000000,2419,164693.908000000,0.015255061,-0.019107405,-0.996073663,0.000151901,-0.000190442,-0.009956879,1779140675908.000000000,2419,164693.908000000,0.003140976,-0.003549356,0.035686325,1,0.000096373,0.000465528,-0.000137713,1,-0.146474689,0.183833227,9.803833008,1,0,0
1779140675928.000000000,2419,164693.928000000,0.014274505,-0.019233882,-0.996171951,0.000144728,-0.000192056,-0.009957846,1779140675928.000000000,2419,164693.928000000,-0.006475277,-0.004788180,0.034722354,1,-0.000173235,-0.000223518,0.000828681,1,-0.146452904,0.183826774,9.803833008,1,0,0
1779140675938.000000000,2419,164693.938000000,0.013806297,-0.019283416,-0.995347381,0.000135500,-0.000192358,-0.009953493,1779140675938.000000000,2419,164693.938000000,-0.011078008,-0.005292166,0.042809017,1,-0.000208300,0.000428005,0.000528202,1,-0.146484599,0.183807299,9.803833008,1,0,0
1779140675958.000000000,2419,164693.958000000,0.013991961,-0.018532444,-0.995925248,0.000138731,-0.000183884,-0.009962392,1779140675958.000000000,2419,164693.958000000,-0.009251323,0.002142274,0.037140310,1,0.001378478,-0.000389633,0.000057028,1,-0.146453395,0.183926493,9.803831100,1,0,0
1779140675968.000000000,2419,164693.968000000,0.014234080,-0.018510301,-0.995349586,0.000144127,-0.000186749,-0.009955960,1779140675968.000000000,2419,164693.968000000,-0.006840013,0.002453725,0.042785060,1,0.000903415,-0.000404073,-0.000119448,1,-0.146416113,0.184005901,9.803830147,1,0,0
1779140675988.000000000,2419,164693.988000000,0.014792353,-0.017834092,-0.994649708,0.000147068,-0.000180025,-0.009950467,1779140675988.000000000,2419,164693.988000000,-0.001300752,0.009166817,0.049648061,1,-0.000332957,-0.000679857,-0.000047407,1,-0.146343008,0.184049115,9.803830147,1,0,0
1779140675998.000000000,2419,164693.998000000,0.015874634,-0.019624259,-0.996545613,0.000159299,-0.000194118,-0.009965267,1779140675998.000000000,2419,164693.998000000,0.009360543,-0.008387526,0.031055482,1,-0.000180892,-0.000603796,-0.000813158,1,-0.146298081,0.184054688,9.803831100,1,0,0
1779140676008.000000000,2419,164694.008000000,0.015598536,-0.018560022,-0.994891942,0.000157278,-0.000187139,-0.009946822,1779140676008.000000000,2419,164694.008000000,0.006692449,0.002012904,0.047274563,1,0.000185421,-0.000816974,-0.000863450,1,-0.146251962,0.184029922,9.803832054,1,0,0
1779140676028.000000000,2419,164694.028000000,0.014930979,-0.018014101,-0.995364726,0.000148541,-0.000180965,-0.009947808,1779140676028.000000000,2419,164694.028000000,0.000198908,0.007375013,0.042638894,1,0.000135601,-0.000068118,-0.000999329,1,-0.146222457,0.184036776,9.803833008,1,0,0
1779140676038.000000000,2419,164694.038000000,0.014857294,-0.018848771,-0.996275842,0.000148416,-0.000191099,-0.009964203,1779140676038.000000000,2419,164694.038000000,-0.000506404,-0.000787165,0.033702880,1,-0.000048680,-0.000319235,-0.000759736,1,-0.146197185,0.184054270,9.803833008,1,0,0
1779140676058.000000000,2419,164694.058000000,0.014331408,-0.018993819,-0.995176017,0.000144460,-0.000190925,-0.009952705,1779140676058.000000000,2419,164694.058000000,-0.005769643,-0.002213828,0.044486899,1,0.000590753,0.000729328,-0.000078994,1,-0.146340862,0.184069797,9.803830147,1,0,0
1779140676068.000000000,2419,164694.068000000,0.014982937,-0.019869104,-0.995751560,0.000147749,-0.000195932,-0.009959517,1779140676068.000000000,2419,164694.068000000,0.000565388,-0.010783300,0.038842127,1,0.000012102,-0.000220916,-0.000282444,1,-0.146360651,0.184066266,9.803830147,1,0,0
1779140676088.000000000,2419,164694.088000000,0.015277367,-0.019942826,-0.995888352,0.000154510,-0.000200949,-0.009962333,1779140676088.000000000,2419,164694.088000000,0.003335195,-0.011531170,0.037499107,1,0.000054350,0.000467192,0.000491866,1,-0.146498904,0.184043065,9.803828239,1,0,0
1779140676098.000000000,2419,164694.098000000,0.015807709,-0.019702740,-0.996074677,0.000157761,-0.000196758,-0.009952908,1779140676098.000000000,2419,164694.098000000,0.008541492,-0.009237638,0.035673171,1,-0.000709470,0.000359654,0.000192518,1,-0.146490306,0.183958203,9.803830147,1,0,0
1779140676118.000000000,2419,164694.118000000,0.014823703,-0.018629240,-0.996614516,0.000147684,-0.000186752,-0.009962523,1779140676118.000000000,2419,164694.118000000,-0.001120909,0.001350933,0.030378176,1,0.000316502,-0.000166407,0.000462340,1,-0.146486327,0.184051484,9.803828239,1,0,0
1779140676128.000000000,2419,164694.128000000,0.014757374,-0.017534452,-0.995406747,0.000148176,-0.000176676,-0.009960119,1779140676128.000000000,2419,164694.128000000,-0.001737804,0.012073792,0.042222977,1,-0.000452262,-0.000438008,0.000885021,1,-0.146444023,0.184014320,9.803830147,1,0,0
1779140676148.000000000,2419,164694.148000000,0.014940677,-0.017796692,-0.995870113,0.000147359,-0.000175480,-0.009950961,1779140676148.000000000,2419,164694.148000000,0.000130189,0.009399063,0.037681956,1,-0.001197095,-0.000727576,-0.000680923,1,-0.146365508,0.183887318,9.803833008,1,0,0
1779140676158.000000000,2419,164694.158000000,0.014814166,-0.018359873,-0.995656908,0.000149085,-0.000184643,-0.009959040,1779140676158.000000000,2419,164694.158000000,-0.001036622,0.003789019,0.039775264,1,-0.000523153,-0.000417318,0.000092545,1,-0.146300897,0.183821589,9.803835869,1,0,0
1779140676168.000000000,2419,164694.168000000,0.015319098,-0.019192118,-0.996199369,0.000150863,-0.000192247,-0.009960548,1779140676168.000000000,2419,164694.168000000,0.003905516,-0.004437937,0.034457348,1,-0.000484859,0.000277771,-0.000025759,1,-0.146332204,0.183757305,9.803835869,1,0,0
1779140676188.000000000,2419,164694.188000000,0.015732627,-0.020434394,-0.996406853,0.000156932,-0.000202800,-0.009962745,1779140676188.000000000,2419,164694.188000000,0.008078351,-0.016702060,0.032424662,1,-0.000245487,-0.000563316,0.001168648,1,-0.146187767,0.183683798,9.803839684,1,0,0
1779140676198.000000000,2419,164694.198000000,0.015819930,-0.019621834,-0.994670153,0.000158189,-0.000197453,-0.009947255,1779140676198.000000000,2419,164694.198000000,0.008981565,-0.008745114,0.049457431,1,0.000537532,0.000146152,0.000212989,1,-0.146163404,0.183696240,9.803839684,1,0,0
1779140676218.000000000,2419,164694.218000000,0.014575541,-0.018581601,-0.995964289,0.000145249,-0.000186114,-0.009954707,1779140676218.000000000,2419,164694.218000000,-0.003240989,0.001451170,0.036766212,1,-0.000002850,0.000420215,0.000877533,1,-0.146190837,0.183674753,9.803839684,1,0,0
1779140676228.000000000,2419,164694.228000000,0.014034934,-0.017789481,-0.995255888,0.000144189,-0.000182769,-0.009958592,1779140676228.000000000,2419,164694.228000000,-0.008528058,0.009188836,0.043714151,1,-0.000549061,-0.000027152,0.001139352,1,-0.146162242,0.183627456,9.803841591,1,0,0
1779140676248.000000000,2419,164694.248000000,0.013688936,-0.017768351,-0.995148838,0.000137483,-0.000177152,-0.009956904,1779140676248.000000000,2419,164694.248000000,-0.011872908,0.009435081,0.044764038,1,0.000380918,-0.000264655,0.000329561,1,-0.146107063,0.183695138,9.803840637,1,0,0
1779140676258.000000000,2419,164694.258000000,0.014490840,-0.017928712,-0.996484995,0.000144034,-0.000179199,-0.009966594,1779140676258.000000000,2419,164694.258000000,-0.004002931,0.007998809,0.031658489,1,0.000257427,-0.000003515,0.000237791,1,-0.146112069,0.183840007,9.803837776,1,0,0
1779140676278.000000000,2419,164694.278000000,0.014719785,-0.019415701,-0.995489478,0.000147325,-0.000197685,-0.009956799,1779140676278.000000000,2419,164694.278000000,-0.001900996,-0.006576266,0.041418690,1,0.000053510,0.000549598,-0.000489089,1,-0.146270230,0.183828220,9.803835869,1,0,0
1779140676288.000000000,2419,164694.288000000,0.015625859,-0.019446624,-0.996178567,0.000155840,-0.000193705,-0.009957345,1779140676288.000000000,2419,164694.288000000,0.006954949,-0.006882587,0.034660995,1,0.000324827,0.000413588,0.000170406,1,-0.146295190,0.183833882,9.803834915,1,0,0
1779140676298.000000000,2419,164694.298000000,0.015633669,-0.018118810,-0.995321333,0.000156940,-0.000184546,-0.009957657,1779140676298.000000000,2419,164694.298000000,0.007031448,0.006178923,0.043066364,1,0.000732002,0.000187126,0.000231637,1,-0.146288186,0.183886722,9.803833961,1,0,0
1779140676318.000000000,2419,164694.318000000,0.014771369,-0.017960899,-0.995070934,0.000150949,-0.000177529,-0.009951810,1779140676318.000000000,2419,164694.318000000,-0.001418083,0.007816130,0.045520339,1,0.000471125,-0.000412836,0.000517598,1,-0.146262556,0.183967337,9.803833008,1,0,0
1779140676328.000000000,2419,164694.328000000,0.014932930,-0.018374112,-0.996242046,0.000149184,-0.000183139,-0.009964019,1779140676328.000000000,2419,164694.328000000,0.000204860,0.003805435,0.034035318,1,0.000376915,-0.000404023,0.000302929,1,-0.146224380,0.184005842,9.803833008,1,0,0
1779140676348.000000000,2419,164694.348000000,0.013799231,-0.019057663,-0.994908512,0.000141731,-0.000189475,-0.009956035,1779140676348.000000000,2419,164694.348000000,-0.010873226,-0.002875390,0.047112927,1,-0.000086439,-0.000109453,0.000241381,1,-0.146193922,0.184013873,9.803833008,1,0,0
1779140676358.000000000,2419,164694.358000000,0.014090139,-0.020356674,-0.996428132,0.000139827,-0.000201346,-0.009962371,1779140676358.000000000,2419,164694.358000000,-0.007963633,-0.015569489,0.032211047,1,0.000429133,-0.000829396,0.000284005,1,-0.146114662,0.184074819,9.803833961,1,0,0
1779140676378.000000000,2419,164694.378000000,0.013809324,-0.019139955,-0.996991336,0.000138623,-0.000191625,-0.009968595,1779140676378.000000000,2419,164694.378000000,-0.010646833,-0.003598688,0.026687769,1,0.000457321,-0.000419401,0.000552839,1,-0.146056652,0.184114695,9.803833961,1,0,0
1779140676388.000000000,2419,164694.388000000,0.014037055,-0.018578188,-0.995190203,0.000139987,-0.000184197,-0.009950786,1779140676388.000000000,2419,164694.388000000,-0.008437113,0.001870855,0.044351887,1,-0.000782289,0.000493580,-0.000061157,1,-0.146109059,0.184036210,9.803833961,1,0,0
1779140676408.000000000,2419,164694.408000000,0.014527668,-0.019295802,-0.995694160,0.000145591,-0.000190973,-0.009950695,1779140676408.000000000,2419,164694.408000000,-0.003643366,-0.005249698,0.039410397,1,-0.000134294,0.000450933,-0.000627036,1,-0.146125570,0.183973014,9.803834915,1,0,0
1779140676418.000000000,2419,164694.418000000,0.015164031,-0.018720280,-0.995106101,0.000152457,-0.000189524,-0.009958799,1779140676418.000000000,2419,164694.418000000,0.002604406,0.000374286,0.045178089,1,-0.000285483,-0.000490017,-0.000630421,1,-0.146089017,0.183948353,9.803835869,1,0,0
1779140676438.000000000,2419,164694.438000000,0.015354264,-0.018792788,-0.995979846,0.000153876,-0.000188623,-0.009959690,1779140676438.000000000,2419,164694.438000000,0.004464413,-0.000367093,0.036609989,1,-0.000233612,0.000166210,0.000235074,1,-0.146114543,0.183920041,9.803836823,1,0,0
1779140676448.000000000,2419,164694.448000000,0.015580571,-0.018336928,-0.996294916,0.000154641,-0.000184331,-0.009964392,1779140676448.000000000,2419,164694.448000000,0.006675741,0.004092911,0.033520598,1,-0.000228515,-0.000710505,0.000512592,1,-0.146095008,0.183909848,9.803836823,1,0,0
1779140676458.000000000,2419,164694.458000000,0.015180640,-0.017381361,-0.995912850,0.000152243,-0.000174430,-0.009955058,1779140676458.000000000,2419,164694.458000000,0.002845751,0.013492730,0.037267826,1,0.000172572,-0.000187481,0.000189192,1,-0.146015182,0.183956936,9.803836823,1,0,0
1779140676478.000000000,2419,164694.478000000,0.015426886,-0.019281814,-0.996191680,0.000153165,-0.000190703,-0.009957314,1779140676478.000000000,2419,164694.478000000,0.005178744,-0.005098862,0.034531083,1,-0.000236357,-0.000151910,0.000342156,1,-0.146102384,0.183983952,9.803834915,1,0,0
1779140676488.000000000,2419,164694.488000000,0.014227856,-0.018627260,-0.995675147,0.000142995,-0.000186619,-0.009960462,1779140676488.000000000,2419,164694.488000000,-0.006538412,0.001270833,0.039598245,1,-0.000418628,-0.000637361,0.000390538,1,-0.146045908,0.183928981,9.803836823,1,0,0
1779140676508.000000000,2419,164694.508000000,0.013041615,-0.019032424,-0.995600879,0.000133041,-0.000188570,-0.009953698,1779140676508.000000000,2419,164694.508000000,-0.018250253,-0.002749153,0.040326234,1,0.000083209,0.001045406,0.000199311,1,-0.146177322,0.183897853,9.803835869,1,0,0
1779140676518.000000000,2419,164694.518000000,0.013087329,-0.019066639,-0.996269763,0.000129966,-0.000189315,-0.009960782,1779140676518.000000000,2419,164694.518000000,-0.017827565,-0.003069580,0.033765834,1,-0.000083204,0.000328217,-0.000139450,1,-0.146180749,0.183907628,9.803835869,1,0,0
1779140676538.000000000,2419,164694.538000000,0.014253760,-0.018653521,-0.994941950,0.000143625,-0.000188515,-0.009955874,1779140676538.000000000,2419,164694.538000000,-0.006493037,0.000899591,0.046787333,1,-0.000259517,0.000002743,0.000139594,1,-0.146274686,0.183820128,9.803835869,1,0,0
1779140676548.000000000,2419,164694.548000000,0.015193990,-0.018793982,-0.996555984,0.000152049,-0.000189720,-0.009958763,1779140676548.000000000,2419,164694.548000000,0.002679947,-0.000458501,0.030957827,1,-0.000236749,0.001277625,-0.000118966,1,-0.146362141,0.183840066,9.803833961,1,0,0
1779140676568.000000000,2419,164694.568000000,0.015920172,-0.019285677,-0.996755004,0.000157048,-0.000196921,-0.009966614,1779140676568.000000000,2419,164694.568000000,0.009700075,-0.005343261,0.029006448,1,-0.000572082,0.000468624,-0.000520429,1,-0.146438405,0.183766544,9.803834915,1,0,0
1779140676578.000000000,2419,164694.578000000,0.015551793,-0.018013349,-0.996018648,0.000157004,-0.000180456,-0.009958045,1779140676578.000000000,2419,164694.578000000,0.006062183,0.007072427,0.036228638,1,-0.000450991,0.000275055,-0.000450324,1,-0.146457672,0.183708757,9.803834915,1,0,0
1779140676588.000000000,2419,164694.588000000,0.014965708,-0.018003112,-0.995336533,0.000151752,-0.000177598,-0.009959025,1779140676588.000000000,2419,164694.588000000,0.000329876,0.007151783,0.042918485,1,-0.000336148,-0.000544000,-0.000460586,1,-0.146416903,0.183691308,9.803835869,1,0,0
1779140676598.000000000,2419,164694.598000000,0.015066161,-0.018284159,-0.995632112,0.000147740,-0.000180982,-0.009955309,1779140676598.000000000,2419,164694.598000000,0.001256881,0.004401321,0.040018454,1,0.000300363,0.000700281,0.000034011,1,-0.146513537,0.183717057,9.803833961,1,0,0
1779140676608.000000000,2419,164694.608000000,0.015096246,-0.018377829,-0.995939195,0.000153006,-0.000186179,-0.009966107,1779140676608.000000000,2419,164694.608000000,0.001571813,0.003464334,0.037007421,1,-0.000396892,-0.000505254,-0.000060614,1,-0.146456063,0.183676869,9.803835869,1,0,0
1779140676618.000000000,2419,164694.618000000,0.016087560,-0.018349048,-0.996020079,0.000160059,-0.000183695,-0.009958045,1779140676618.000000000,2419,164694.618000000,0.011232991,0.003769652,0.036213297,1,0.000245311,0.000139524,-0.000003875,1,-0.146536455,0.183720008,9.803833961,1,0,0
1779140676638.000000000,2419,164694.638000000,0.015892660,-0.019296570,-0.995721161,0.000159386,-0.000191288,-0.009961425,1779140676638.000000000,2419,164694.638000000,0.009297284,-0.005512248,0.039143246,1,0.000985107,-0.000095685,0.000807623,1,-0.146553025,0.183753565,9.803833008,1,0,0
1779140676648.000000000,2419,164694.648000000,0.016183671,-0.019037567,-0.995916069,0.000159636,-0.000190248,-0.009956555,1779140676648.000000000,2419,164694.648000000,0.012154044,-0.002952176,0.037232395,1,-0.000202994,-0.000018234,0.000957740,1,-0.146552429,0.183736712,9.803833008,1,0,0
1779140676668.000000000,2419,164694.668000000,0.014425826,-0.018105799,-0.995670676,0.000145172,-0.000183104,-0.009954024,1779140676668.000000000,2419,164694.668000000,-0.004993842,0.006061324,0.039641701,1,-0.000345844,-0.000217144,0.000856916,1,-0.146455824,0.183608100,9.803836823,1,0,0
1779140676678.000000000,2419,164694.678000000,0.012654658,-0.017891889,-0.994797051,0.000129370,-0.000180641,-0.009956107,1779140676678.000000000,2419,164694.678000000,-0.022361305,0.008098164,0.048211418,1,-0.000733467,-0.000049999,0.000124517,1,-0.146459505,0.183534846,9.803838730,1,0,0
1779140676698.000000000,2419,164694.698000000,0.012310426,-0.018532319,-0.995284379,0.000121607,-0.000182101,-0.009959444,1779140676698.000000000,2419,164694.698000000,-0.025678944,0.001837045,0.043432236,1,0.000631085,-0.000295063,-0.000468430,1,-0.146394044,0.183596507,9.803838730,1,0,0
1779140676708.000000000,2419,164694.708000000,0.013227255,-0.018987607,-0.996189535,0.000132137,-0.000188725,-0.009961329,1779140676708.000000000,2419,164694.708000000,-0.016641460,-0.002615687,0.034556042,1,-0.000216618,-0.000575153,-0.000329110,1,-0.146338776,0.183582231,9.803839684,1,0,0
1779140676728.000000000,2419,164694.728000000,0.015567956,-0.019273434,-0.996039987,0.000153338,-0.000192110,-0.009959674,1779140676728.000000000,2419,164694.728000000,0.006268666,-0.005483158,0.036023777,1,-0.000019216,0.001149200,-0.000811509,1,-0.146437183,0.183523715,9.803838730,1,0,0
1779140676738.000000000,2419,164694.738000000,0.016403224,-0.019408314,-0.995822251,0.000163159,-0.000191261,-0.009960103,1779140676738.000000000,2419,164694.738000000,0.014438830,-0.006797979,0.038158182,1,-0.000620326,-0.000158268,-0.001004348,1,-0.146417513,0.183512762,9.803839684,1,0,0
1779140676748.000000000,2419,164694.748000000,0.016439417,-0.018947054,-0.995487094,0.000167229,-0.000188659,-0.009955533,1779140676748.000000000,2419,164694.748000000,0.014792516,-0.002282305,0.041444663,1,0.000063022,0.000336337,-0.000809237,1,-0.146434069,0.183526441,9.803838730,1,0,0
1779140676768.000000000,2419,164694.768000000,0.014787544,-0.019304397,-0.995738924,0.000150290,-0.000192422,-0.009951415,1779140676768.000000000,2419,164694.768000000,-0.001419460,-0.005804604,0.038975582,1,0.000385882,0.000205325,-0.000040945,1,-0.146442175,0.183518887,9.803838730,1,0,0
1779140676778.000000000,2419,164694.778000000,0.014226609,-0.018986126,-0.995803893,0.000142763,-0.000191473,-0.009961566,1779140676778.000000000,2419,164694.778000000,-0.006833537,-0.002676029,0.038339283,1,0.000368909,-0.001039896,0.000662257,1,-0.146316081,0.183526099,9.803840637,1,0,0
1779140676798.000000000,2419,164694.798000000,0.014451977,-0.018102234,-0.995579422,0.000144849,-0.000181645,-0.009959817,1779140676798.000000000,2419,164694.798000000,-0.004578237,0.005963664,0.040542401,1,-0.000306798,-0.000424515,-0.000112991,1,-0.146290541,0.183476329,9.803842545,1,0,0
1779140676808.000000000,2419,164694.808000000,0.014194626,-0.018898485,-0.996405482,0.000142221,-0.000187963,-0.009961557,1779140676808.000000000,2419,164694.808000000,-0.007068495,-0.001782303,0.032440603,1,0.000483226,-0.000210067,0.000480479,1,-0.146263406,0.183563843,9.803840637,1,0,0
1779140676828.000000000,2419,164694.828000000,0.015149839,-0.019535124,-0.995327592,0.000151693,-0.000193452,-0.009955559,1779140676828.000000000,2419,164694.828000000,0.002375831,-0.007880270,0.043009665,1,0.000220157,-0.000015493,0.000050642,1,-0.146192849,0.183700770,9.803839684,1,0,0
1779140676838.000000000,2419,164694.838000000,0.015465526,-0.019947700,-0.995421052,0.000154593,-0.000199915,-0.009954922,1779140676838.000000000,2419,164694.838000000,0.005487391,-0.011871809,0.042092178,1,0.000610307,-0.000252325,0.000243216,1,-0.146169603,0.183767483,9.803838730,1,0,0
1779140676858.000000000,2419,164694.858000000,0.014422296,-0.018862637,-0.996155918,0.000146631,-0.000188387,-0.009960418,1779140676858.000000000,2419,164694.858000000,-0.004637223,-0.001070247,0.034883674,1,0.000609839,-0.000313429,0.000134319,1,-0.146051288,0.183936745,9.803836823,1,0,0
1779140676868.000000000,2419,164694.868000000,0.014791804,-0.018483380,-0.995579600,0.000146078,-0.000184702,-0.009954818,1779140676868.000000000,2419,164694.868000000,-0.000955361,0.002648669,0.040536463,1,0.000399419,-0.000036199,-0.000493393,1,-0.146011889,0.183921516,9.803837776,1,0,0
1779140676888.000000000,2419,164694.888000000,0.014551384,-0.018004024,-0.995464444,0.000145090,-0.000179181,-0.009951644,1779140676888.000000000,2419,164694.888000000,-0.003295182,0.007305238,0.041667491,1,-0.000054089,-0.000885976,0.000520732,1,-0.145967573,0.183862984,9.803839684,1,0,0
1779140676898.000000000,2419,164694.898000000,0.014368410,-0.017398816,-0.996028841,0.000145143,-0.000175049,-0.009961514,1779140676898.000000000,2419,164694.898000000,-0.005026848,0.013212723,0.036133569,1,-0.000059850,-0.000789115,0.000359910,1,-0.145907998,0.183835134,9.803840637,1,0,0
1779140676908.000000000,2419,164694.908000000,0.015220348,-0.016908420,-0.996158004,0.000153560,-0.000167283,-0.009955668,1779140676908.000000000,2419,164694.908000000,0.003317647,0.018003959,0.034867138,1,-0.000350758,0.000704854,0.000141975,1,-0.145964906,0.183808059,9.803840637,1,0,0
1779140676928.000000000,2419,164694.928000000,0.014677391,-0.018517669,-0.995965958,0.000147226,-0.000184713,-0.009958440,1779140676928.000000000,2419,164694.928000000,-0.002064319,0.002214690,0.036749300,1,0.000123421,0.000446312,-0.000084746,1,-0.146014348,0.183814809,9.803839684,1,0,0
1779140676938.000000000,2419,164694.938000000,0.013731944,-0.019470703,-0.996040940,0.000139582,-0.000192416,-0.009960847,1779140676938.000000000,2419,164694.938000000,-0.011382651,-0.007099119,0.036013450,1,0.000288446,0.000691461,-0.000143777,1,-0.146068692,0.183852211,9.803838730,1,0,0
1779140676948.000000000,2419,164694.948000000,0.013878045,-0.020038964,-0.995494366,0.000140324,-0.000201327,-0.009952310,1779140676948.000000000,2419,164694.948000000,-0.009972556,-0.012671749,0.041373134,1,0.000338424,-0.000436574,-0.000252556,1,-0.146056220,0.183853820,9.803838730,1,0,0
1779140676958.000000000,2419,164694.958000000,0.014420024,-0.020473987,-0.995324016,0.000144598,-0.000204593,-0.009952138,1779140676958.000000000,2419,164694.958000000,-0.004655471,-0.016872490,0.043042917,1,0.000325064,0.000398779,-0.000288914,1,-0.146080226,0.183918759,9.803836823,1,0,0
1779140676968.000000000,2419,164694.968000000,0.014384663,-0.019778790,-0.996003985,0.000142868,-0.000200601,-0.009958778,1779140676968.000000000,2419,164694.968000000,-0.005038349,-0.010072332,0.036374625,1,-0.000349351,-0.000162023,-0.000006251,1,-0.146098658,0.183880448,9.803837776,1,0,0
1779140676988.000000000,2419,164694.988000000,0.015310443,-0.018839719,-0.995545983,0.000151725,-0.000189029,-0.009959758,1779140676988.000000000,2419,164694.988000000,0.004014392,-0.000815985,0.040863641,1,0.000099629,0.000983379,0.000098124,1,-0.146160394,0.183941692,9.803834915,1,0,0
1779140676998.000000000,2419,164694.998000000,0.015679205,-0.018842269,-0.996218622,0.000157099,-0.000188603,-0.009960542,1779140676998.000000000,2419,164694.998000000,0.007591478,-0.000815540,0.034266740,1,-0.000261130,-0.000109222,0.000007541,1,-0.146165594,0.183955878,9.803834915,1,0,0
1779140677018.000000000,2419,164695.018000000,0.015175633,-0.018309522,-0.996555865,0.000149290,-0.000184880,-0.009965402,1779140677018.000000000,2419,164695.018000000,0.002619652,0.004340904,0.030960554,1,-0.000305398,0.000311389,-0.000121786,1,-0.146212280,0.183886409,9.803835869,1,0,0
1779140677028.000000000,2419,164695.028000000,0.014632334,-0.018113211,-0.996712923,0.000147684,-0.000183643,-0.009963159,1779140677028.000000000,2419,164695.028000000,-0.002716843,0.006245169,0.029420210,1,0.000402132,0.000155810,0.000297985,1,-0.146215722,0.183887765,9.803835869,1,0,0
1779140677038.000000000,2419,164695.038000000,0.014228500,-0.017355762,-0.995277643,0.000140979,-0.000175773,-0.009954138,1779140677038.000000000,2419,164695.038000000,-0.006667763,0.013683361,0.043495305,1,-0.000420439,-0.000173708,0.000175036,1,-0.146196172,0.183872223,9.803835869,1,0,0
1779140677058.000000000,2419,164695.058000000,0.014559591,-0.017812526,-0.995155990,0.000145293,-0.000175846,-0.009951797,1779140677058.000000000,2419,164695.058000000,-0.003329521,0.009226841,0.044689804,1,0.000996436,-0.000458944,0.000549564,1,-0.146090746,0.183935419,9.803836823,1,0,0
1779140677068.000000000,2419,164695.068000000,0.014339258,-0.018475097,-0.996354818,0.000142016,-0.000181294,-0.009964348,1779140677068.000000000,2419,164695.068000000,-0.005416618,0.002793998,0.032932762,1,0.000410153,-0.000594923,-0.000587903,1,-0.146018177,0.183985099,9.803836823,1,0,0
1779140677088.000000000,2419,164695.088000000,0.014595438,-0.019951459,-0.996099353,0.000146865,-0.000199792,-0.009959709,1779140677088.000000000,2419,164695.088000000,-0.002891567,-0.011707898,0.035438474,1,-0.000102937,-0.000200287,-0.001064435,1,-0.146018296,0.183945373,9.803837776,1,0,0
1779140677098.000000000,2419,164695.098000000,0.015287845,-0.020053506,-0.995182872,0.000151403,-0.000198980,-0.009954803,1779140677098.000000000,2419,164695.098000000,0.003901656,-0.012713639,0.044426583,1,0.000365852,-0.000175131,-0.000544622,1,-0.146015763,0.183955267,9.803836823,1,0,0
1779140677118.000000000,2419,164695.118000000,0.015726475,-0.018836899,-0.995705009,0.000157082,-0.000189337,-0.009955397,1779140677118.000000000,2419,164695.118000000,0.008229498,-0.000880158,0.039307989,1,-0.000245712,-0.000095236,-0.000128061,1,-0.145991653,0.183838993,9.803839684,1,0,0
1779140677128.000000000,2419,164695.128000000,0.015559550,-0.018634548,-0.996311903,0.000154796,-0.000186566,-0.009961036,1779140677128.000000000,2419,164695.128000000,0.006602838,0.001127200,0.033356674,1,0.000144111,0.000232586,-0.000122608,1,-0.145991564,0.183874145,9.803838730,1,0,0
1779140677148.000000000,2419,164695.148000000,0.015095277,-0.018344089,-0.995692015,0.000149160,-0.000182499,-0.009956519,1779140677148.000000000,2419,164695.148000000,0.002155587,0.004032596,0.039436292,1,-0.000663720,-0.000647277,0.000656902,1,-0.145857945,0.183906272,9.803840637,1,0,0
1779140677158.000000000,2419,164695.158000000,0.015046839,-0.018345483,-0.995261669,0.000148685,-0.000183789,-0.009951071,1779140677158.000000000,2419,164695.158000000,0.001705070,0.003957991,0.043657597,1,-0.000288587,0.000476413,0.000083695,1,-0.145868838,0.183856755,9.803841591,1,0,0
1779140677178.000000000,2419,164695.178000000,0.015295859,-0.018679651,-0.995531321,0.000153184,-0.000189366,-0.009959257,1779140677178.000000000,2419,164695.178000000,0.004218028,0.000639712,0.041015975,1,0.000030776,-0.000156525,0.000411681,1,-0.145778000,0.183825672,9.803843498,1,0,0
1779140677188.000000000,2419,164695.188000000,0.015056197,-0.018079596,-0.996747673,0.000149639,-0.000182239,-0.009957876,1779140677188.000000000,2419,164695.188000000,0.001860133,0.006536271,0.029086923,1,-0.000256937,0.000094330,0.000228444,1,-0.145793542,0.183828637,9.803842545,1,0,0
1779140677198.000000000,2419,164695.198000000,0.014520731,-0.017726935,-0.995009720,0.000148182,-0.000175105,-0.009953896,1779140677198.000000000,2419,164695.198000000,-0.003341201,0.010009034,0.046130389,1,0.000377717,-0.000119887,-0.000045488,1,-0.145737231,0.183862671,9.803843498,1,0,0
1779140677218.000000000,2419,164695.218000000,0.014452233,-0.017357875,-0.995716095,0.000144783,-0.000174210,-0.009962058,1779140677218.000000000,2419,164695.218000000,-0.004007637,0.013685222,0.039202332,1,0.000198195,-0.000465209,-0.000715245,1,-0.145721540,0.183913693,9.803842545,1,0,0
1779140677228.000000000,2419,164695.228000000,0.014955405,-0.018045472,-0.995485723,0.000149072,-0.000180044,-0.009953780,1779140677228.000000000,2419,164695.228000000,0.000977220,0.006983986,0.041461814,1,0.000647428,-0.000511040,0.000075532,1,-0.145669222,0.183969885,9.803842545,1,0,0
1779140677248.000000000,2419,164695.248000000,0.014394621,-0.019541627,-0.995510757,0.000145864,-0.000192231,-0.009951727,1779140677248.000000000,2419,164695.248000000,-0.004495254,-0.007648166,0.041215900,1,0.000373934,-0.000375699,-0.000224671,1,-0.145646691,0.184001312,9.803841591,1,0,0
1779140677258.000000000,2419,164695.258000000,0.013954647,-0.020660082,-0.995981693,0.000139403,-0.000205766,-0.009963823,1779140677258.000000000,2419,164695.258000000,-0.008840216,-0.018678050,0.036597956,1,-0.000171822,0.000368561,-0.000536567,1,-0.145702973,0.183914497,9.803842545,1,0,0
1779140677278.000000000,2419,164695.278000000,0.012857323,-0.019923909,-0.995348394,0.000129488,-0.000201397,-0.009957827,1779140677278.000000000,2419,164695.278000000,-0.019562129,-0.011569702,0.042811226,1,0.000188337,0.000431289,-0.000139733,1,-0.145662948,0.183822885,9.803845406,1,0,0
1779140677288.000000000,2419,164695.288000000,0.013967386,-0.019540362,-0.995856941,0.000137205,-0.000194892,-0.009954645,1779140677288.000000000,2419,164695.288000000,-0.008733504,-0.007784504,0.037822552,1,0.000992017,0.000699585,-0.000410301,1,-0.145728841,0.183871746,9.803843498,1,0,0
1779140677308.000000000,2419,164695.308000000,0.015667398,-0.017411768,-0.996493876,0.000155922,-0.000176833,-0.009958854,1779140677308.000000000,2419,164695.308000000,0.007874005,0.013139443,0.031574544,1,-0.000083269,0.000730377,-0.000924627,1,-0.145794019,0.183887541,9.803841591,1,0,0
1779140677318.000000000,2419,164695.318000000,0.016517092,-0.017536614,-0.995816886,0.000164100,-0.000172948,-0.009959289,1779140677318.000000000,2419,164695.318000000,0.016182426,0.011842139,0.038214773,1,-0.000949029,0.000475290,-0.000657753,1,-0.145810142,0.183787674,9.803843498,1,0,0
1779140677328.000000000,2419,164695.328000000,0.016272495,-0.017798254,-0.994904399,0.000163894,-0.000180201,-0.009952238,1779140677328.000000000,2419,164695.328000000,0.013732378,0.009265342,0.047162477,1,0.000195841,0.000446545,-0.000815018,1,-0.145860702,0.183812335,9.803842545,1,0,0
1779140677348.000000000,2419,164695.348000000,0.016275411,-0.018375846,-0.995040178,0.000164162,-0.000184741,-0.009950333,1779140677348.000000000,2419,164695.348000000,0.013781779,0.003589589,0.045832030,1,0.000038305,-0.000657361,-0.001023212,1,-0.145805582,0.183795810,9.803843498,1,0,0
1779140677358.000000000,2419,164695.358000000,0.015730746,-0.017875152,-0.996477127,0.000156149,-0.000180979,-0.009963077,1779140677358.000000000,2419,164695.358000000,0.008533977,0.008542111,0.031740349,1,0.000144856,-0.001391994,0.000056103,1,-0.145688489,0.183842033,9.803844452,1,0,0
1779140677378.000000000,2419,164695.378000000,0.015029391,-0.018858751,-0.995797336,0.000149786,-0.000185761,-0.009963373,1779140677378.000000000,2419,164695.378000000,0.001870689,-0.001042224,0.038408536,1,0.000300741,-0.000313323,-0.000166941,1,-0.145507619,0.183908269,9.803845406,1,0,0
1779140677388.000000000,2419,164695.388000000,0.014500906,-0.019205591,-0.995475948,0.000143847,-0.000189676,-0.009953995,1779140677388.000000000,2419,164695.388000000,-0.003324566,-0.004375221,0.041559137,1,0.001701623,-0.000008377,-0.000128254,1,-0.145529687,0.184020326,9.803843498,1,0,0
1779140677408.000000000,2419,164695.408000000,0.013744665,-0.020792255,-0.996210039,0.000137202,-0.000207320,-0.009954204,1779140677408.000000000,2419,164695.408000000,-0.010646669,-0.019887123,0.034360588,1,-0.000187952,-0.000455301,-0.000197245,1,-0.145421699,0.184009299,9.803845406,1,0,0
1779140677418.000000000,2419,164695.418000000,0.014135266,-0.020527340,-0.995532930,0.000139998,-0.000208524,-0.009952800,1779140677418.000000000,2419,164695.418000000,-0.006754714,-0.017308975,0.041002423,1,-0.000667774,-0.000798251,0.000137682,1,-0.145349339,0.183974728,9.803846359,1,0,0
1779140677438.000000000,2419,164695.438000000,0.014177083,-0.019684771,-0.995706022,0.000143330,-0.000194727,-0.009957151,1779140677438.000000000,2419,164695.438000000,-0.006282269,-0.008981531,0.039304268,1,0.000650968,0.000218479,-0.000097123,1,-0.145318851,0.184080422,9.803845406,1,0,0
1779140677448.000000000,2419,164695.448000000,0.013852682,-0.019408969,-0.995493472,0.000139010,-0.000194714,-0.009959828,1779140677448.000000000,2419,164695.448000000,-0.009461640,-0.006288163,0.041389138,1,-0.000154976,-0.000238268,0.000155935,1,-0.145302519,0.184044063,9.803846359,1,0,0
1779140677468.000000000,2419,164695.468000000,0.014796962,-0.018065905,-0.994832516,0.000149818,-0.000183247,-0.009949937,1779140677468.000000000,2419,164695.468000000,-0.000226623,0.007053195,0.047867648,1,-0.000338330,0.000248640,0.000131730,1,-0.145342767,0.184210226,9.803842545,1,0,0
1779140677478.000000000,2419,164695.478000000,0.014753326,-0.017284065,-0.996133506,0.000145558,-0.000173236,-0.009958232,1779140677478.000000000,2419,164695.478000000,-0.000674993,0.014711403,0.035108577,1,-0.000082924,-0.000268772,0.000278650,1,-0.145347148,0.184207827,9.803842545,1,0,0
1779140677488.000000000,2419,164695.488000000,0.014377723,-0.016882183,-0.995205998,0.000145905,-0.000167908,-0.009955243,1779140677488.000000000,2419,164695.488000000,-0.004322261,0.018681593,0.044204623,1,0.000418017,-0.000276957,0.000507288,1,-0.145310625,0.184252545,9.803842545,1,0,0
1779140677508.000000000,2419,164695.508000000,0.014675331,-0.018029720,-0.995591223,0.000148553,-0.000175243,-0.009955097,1779140677508.000000000,2419,164695.508000000,-0.001341348,0.007412607,0.040428169,1,0.000163485,-0.000786102,0.000131661,1,-0.145232588,0.184228927,9.803843498,1,0,0
1779140677518.000000000,2419,164695.518000000,0.015137881,-0.019308705,-0.995955586,0.000151903,-0.000191584,-0.009957650,1779140677518.000000000,2419,164695.518000000,0.003236587,-0.005101902,0.036855418,1,0.000586244,-0.000323613,-0.001039455,1,-0.145205840,0.184269637,9.803843498,1,0,0
1779140677538.000000000,2419,164695.538000000,0.014642550,-0.020444248,-0.995394349,0.000146136,-0.000206250,-0.009953114,1779140677538.000000000,2419,164695.538000000,-0.001585879,-0.016122477,0.042356849,1,0.000868364,-0.000276149,-0.000291344,1,-0.145171791,0.184394091,9.803841591,1,0,0
1779140677548.000000000,2419,164695.548000000,0.014201803,-0.020274183,-0.995933890,0.000143963,-0.000206131,-0.009960396,1779140677548.000000000,2419,164695.548000000,-0.005941197,-0.014408541,0.037064310,1,0.000267472,0.000679502,-0.000198954,1,-0.145234644,0.184421539,9.803839684,1,0,0
1779140677568.000000000,2419,164695.568000000,0.013540000,-0.018245254,-0.995676219,0.000136987,-0.000184840,-0.009959170,1779140677568.000000000,2419,164695.568000000,-0.012423717,0.005540213,0.039590538,1,0.000105918,-0.000709709,0.000611257,1,-0.145183250,0.184468627,9.803839684,1,0,0
1779140677578.000000000,2419,164695.578000000,0.014246545,-0.018216601,-0.996185541,0.000140200,-0.000180094,-0.009957992,1779140677578.000000000,2419,164695.578000000,-0.005502157,0.005813218,0.034596048,1,0.000047712,0.000613229,0.000301918,1,-0.145232007,0.184458673,9.803839684,1,0,0
1779140677598.000000000,2419,164695.598000000,0.015085335,-0.018148448,-0.996223211,0.000149499,-0.000181697,-0.009959267,1779140677598.000000000,2419,164695.598000000,0.002667537,0.006510160,0.034225743,1,0.000408946,0.000432635,-0.000142023,1,-0.145282671,0.184498340,9.803837776,1,0,0
1779140677608.000000000,2419,164695.608000000,0.015107575,-0.018130798,-0.994854450,0.000151599,-0.000182531,-0.009950623,1779140677608.000000000,2419,164695.608000000,0.002899493,0.006688023,0.047648545,1,-0.000641614,-0.000161555,-0.000307258,1,-0.145250350,0.184470251,9.803838730,1,0,0
1779140677618.000000000,2419,164695.618000000,0.015834384,-0.018808648,-0.996968567,0.000155414,-0.000186689,-0.009970441,1779140677618.000000000,2419,164695.618000000,0.010037464,0.000039649,0.026916323,1,0.000038469,-0.000210820,-0.000018749,1,-0.145238250,0.184490696,9.803838730,1,0,0
1779140677638.000000000,2419,164695.638000000,0.015688779,-0.018916853,-0.995868623,0.000156895,-0.000191439,-0.009961758,1779140677638.000000000,2419,164695.638000000,0.008672239,-0.001050883,0.037704110,1,0.000128150,0.000064878,0.000269730,1,-0.145183995,0.184464201,9.803839684,1,0,0
1779140677648.000000000,2419,164695.648000000,0.014743666,-0.019207096,-0.995773554,0.000148114,-0.000192699,-0.009954893,1779140677648.000000000,2419,164695.648000000,-0.000619174,-0.003870131,0.038635585,1,-0.000176744,0.000025619,0.000409434,1,-0.145205721,0.184481815,9.803839684,1,0,0
1779140677668.000000000,2419,164695.668000000,0.014656463,-0.018702364,-0.996904314,0.000146498,-0.000186889,-0.009968177,1779140677668.000000000,2419,164695.668000000,-0.001467202,0.001150151,0.027545622,1,0.000983745,0.000355533,0.000583542,1,-0.145208642,0.184588581,9.803836823,1,0,0
1779140677678.000000000,2419,164695.678000000,0.013719880,-0.018054646,-0.994586825,0.000136859,-0.000179397,-0.009949290,1779140677678.000000000,2419,164695.678000000,-0.010595959,0.007503156,0.050273471,1,-0.000028187,-0.000039593,-0.000071420,1,-0.145140827,0.184557855,9.803838730,1,0,0
1779140677698.000000000,2419,164695.698000000,0.013371936,-0.019311268,-0.995699227,0.000131338,-0.000191161,-0.009951592,1779140677698.000000000,2419,164695.698000000,-0.014043206,-0.004875668,0.039365102,1,0.000303954,-0.000135153,0.000481786,1,-0.145172611,0.184512913,9.803839684,1,0,0
1779140677708.000000000,2419,164695.708000000,0.014635556,-0.019900683,-0.995198786,0.000147077,-0.000201067,-0.009956496,1779140677708.000000000,2419,164695.708000000,-0.001573799,-0.010722061,0.044274822,1,-0.001210596,-0.000679887,-0.000115510,1,-0.145078436,0.184399173,9.803842545,1,0,0
1779140677728.000000000,2419,164695.728000000,0.015121901,-0.019435363,-0.995213926,0.000150497,-0.000193628,-0.009956721,1779140677728.000000000,2419,164695.728000000,0.003146518,-0.006349675,0.044129379,1,-0.000691742,-0.000016832,0.000203102,1,-0.145148039,0.184224635,9.803845406,1,0,0
1779140677738.000000000,2419,164695.738000000,0.015647674,-0.018548632,-0.996418774,0.000159293,-0.000186829,-0.009963453,1779140677738.000000000,2419,164695.738000000,0.008313689,0.002327737,0.032314003,1,0.000341093,0.000181878,0.000658354,1,-0.145142868,0.184238642,9.803844452,1,0,0
