FILE_INFO
ListSeparator=,
DecimalSeparator=.

SESSION_INFO
TimeZone,UTC
TimeZoneOffset,0
DateTimeFormat,nnnnnnnnnnnnnnnnnnn
StartTime,04/27/26 18:59:45.645536512
TimeFormat,Unix

DEVICE_INFO
Address,*

CHANNEL_INFO
Channel,Type,SampleRate,Equation,Coefficients,Unit,UnitSymbol,WhereApplied,WhenApplied
inertial-6286.188861:scaledAccelX,Timeseries,100Hz,,,,,,
inertial-6286.188861:scaledAccelY,Timeseries,100Hz,,,,,,
inertial-6286.188861:scaledAccelZ,Timeseries,100Hz,,,,,,
inertial-6286.188861:scaledGyroX,Timeseries,100Hz,,,,,,
inertial-6286.188861:scaledGyroY,Timeseries,100Hz,,,,,,
inertial-6286.188861:scaledGyroZ,Timeseries,100Hz,,,,,,

DATA_START
Time,inertial-6286.188861:scaledAccelX,inertial-6286.188861:scaledAccelY,inertial-6286.188861:scaledAccelZ,inertial-6286.188861:scaledGyroX,inertial-6286.188861:scaledGyroY,inertial-6286.188861:scaledGyroZ
1777316385645536512,0.007511160336434841,0.001785701606422663,-0.9957318305969238,0.000268861505901441,-0.0001152965996880084,0.0001807263906812295
1777316385655467264,0.007530394475907087,0.001565234852023423,-0.9957731962203979,7.406466465909034e-05,9.447699267184362e-05,0.0002404433325864375
1777316385665378560,0.007566455285996199,0.001332499086856842,-0.9959241151809692,-6.387915345840156e-05,0.000157718124683015,-5.718697502743453e-05
1777316385675270144,0.007507689762860537,0.0014854003675282,-0.9957123398780823,-2.49820568569703e-05,0.0001487437984906137,0.0001936999033205211
1777316385685142272,0.007501732558012009,0.001717217382974923,-0.9957535862922668,-0.0001854553120210767,-1.884524499473628e-05,0.0002117806579917669
1777316385695270656,0.007528323214501143,0.001697671483270824,-0.9958623051643372,-0.0001655736123211682,-0.0001345919736195356,5.939081165706739e-05
1777316385705378816,0.007608806248754263,0.001793351722881198,-0.9958383440971375,-0.0002319213235750794,4.78595175081864e-05,0.000171753839822486
1777316385715466752,0.007756649982184172,0.001679356559179723,-0.9957579374313354,-0.000302626343909651,-9.181966743199155e-05,0.0002269224205520004
1777316385725534976,0.007747423369437456,0.001518637174740434,-0.9955859184265137,0.0001830168766900897,-3.723578993231058e-05,0.0003592987777665257
1777316385735582976,0.00766847375780344,0.001541174133308232,-0.9954609274864197,0.0004521552473306656,7.373133121291175e-05,0.0001621552073629573
1777316385745611520,0.007915816269814968,0.001396500505506992,-0.9955209493637085,0.0002998108102474362,-0.0001592581684235483,0.0001440724008716643
1777316385755620608,0.00792640820145607,0.001480115577578545,-0.9957154393196106,0.0003545173676684499,0.0002853771147783846,9.105078061111271e-05
1777316385765609728,0.007718727923929691,0.001589224208146334,-0.9956109523773193,0.0002481045958120376,0.0005199298029765487,-1.684830203885213e-05
1777316385775579392,0.007626187056303024,0.001423062407411635,-0.9956310987472534,0.0003686039126478136,0.0001202790881507099,0.0002597809652797878
1777316385785529088,0.007556676398962736,0.001324511365965009,-0.9958602786064148,0.0002239490277133882,9.426135511603206e-05,0.0002803884563036263
1777316385795459072,0.007627451326698065,0.001429716590791941,-0.9957218766212463,0.0001194982323795557,5.262727063382044e-05,0.0002313965960638598
1777316385805369600,0.007670360617339611,0.001256877090781927,-0.9956182241439819,-0.0002586109039839357,-1.560438613523729e-05,0.0001161065665655769
1777316385815260160,0.007574113085865974,0.001277605420909822,-0.9958660006523132,-0.0004767855862155557,-0.0002760130446404219,0.0001577387738507241
1777316385825131520,0.007914029061794281,0.001215386553667486,-0.9958456754684448,-0.000326184876030311,0.000208469427889213,0.0003141711349599063
1777316385835259392,0.007912295870482922,0.001347392331808805,-0.995866596698761,-0.0003112389531452209,0.0002620828745421022,0.0003216929908376187
1777316385845367296,0.007959571667015553,0.001275278860703111,-0.9955363273620605,0.0001355770946247503,-0.0002406722487648949,0.0001556600473122671
1777316385855455232,0.007693448103964329,0.001414257916621864,-0.9953739047050476,0.0001143736735684797,-0.0002305581729160622,9.380278788739815e-05
1777316385865523712,0.007681532297283411,0.001393410144373775,-0.9955500960350037,0.0002051821502391249,-5.690832767868415e-05,0.0002469644241500646
1777316385875572992,0.007830595597624779,0.001414813566952944,-0.9957420825958252,6.004938040859997e-05,-5.628204235108569e-05,9.864734602160752e-05
1777316385885602560,0.007611043751239777,0.001297580078244209,-0.9957739114761353,0.0002776135224848986,-0.0001835846342146397,-0.0002572518424130976
1777316385895612416,0.007743613794445992,0.001484784414060414,-0.9960349798202515,0.0001791266695363447,-0.0002768228878267109,5.354408131097443e-05
1777316385905602560,0.007939034141600132,0.001446310547180474,-0.9958251118659973,0.0002276911836815998,-0.0005856177303940058,-8.541041097487323e-06
1777316385915573248,0.007804116699844599,0.001626245211809874,-0.9959393739700317,0.0004671883361879736,-0.0004106225096620619,0.0001023613513098098
1777316385925523968,0.007801986765116453,0.001658899825997651,-0.9958816766738892,0.0001917224435601383,-0.0002353262680117041,9.273131581721827e-05
1777316385935455232,0.007848231121897697,0.001497633405961096,-0.9958499670028687,0.0002106706670019776,-0.00019029613758903,-0.0001009620827971958
1777316385945366784,0.007797517813742161,0.001416903571225703,-0.995809018611908,0.0001275052782148123,-0.0004572036268655211,-0.0001297713752137497
1777316385955258880,0.007925393059849739,0.001167777576483786,-0.9958581328392029,0.000158492213813588,-0.0001665575837250799,-0.0002536204410716891
1777316385965131776,0.00775142852216959,0.001389905693940818,-0.9956905245780945,-4.461678327061236e-05,-0.0001828142849262804,-6.700067751808092e-05
1777316385975260672,0.007989812642335892,0.001298060291446745,-0.9957535266876221,0.0001783419720595703,0.0001219857949763536,-0.0001274519308935851
1777316385985370368,0.0078614866361022,0.001361607341095805,-0.9956098198890686,0.0001485355169279501,0.0002069773036055267,0.0001106715062633157
1777316385995460352,0.00780474441125989,0.00157987663988024,-0.9955698251724243,0.000311345182126388,-8.488012099405751e-05,0.0001045894605340436
1777316386005530880,0.00791423674672842,0.001632879953831434,-0.995377779006958,0.0002509232435841113,-0.0003878900315612555,0.0001987892901524901
1777316386015581440,0.007906630635261536,0.001836522482335567,-0.9953774213790894,0.0001499009667895734,-0.0001914206659421325,0.0001936826738528907
1777316386025612032,0.007710523903369904,0.001574696856550872,-0.9954788088798523,0.0001851099223131314,4.577970685204491e-05,0.0001863473298726603
1777316386035623168,0.007663026917725801,0.001599579816684127,-0.9957829713821411,0.0004492012085393071,-0.0001181859915959649,0.0003335414512548596
1777316386045614336,0.00769177358597517,0.001742033404298127,-0.9956900477409363,0.0002153429377358407,-0.0003292183100711554,0.0001799227175069973
1777316386055586048,0.007680057547986507,0.001666719675995409,-0.995664656162262,-0.0002123722661053762,-0.000185596538358368,0.0004225042066536844
1777316386065538048,0.007579952944070101,0.001484479755163193,-0.9955587983131409,2.198799484176561e-05,3.969965473515913e-05,0.0001299675786867738
1777316386075471104,0.007395000196993351,0.00122138496953994,-0.9956587553024292,0.0003229142457712442,-0.0003894066321663558,3.083852789131925e-06
1777316386085384704,0.007602808997035027,0.001389787066727877,-0.9957969784736633,3.988076059613377e-05,-0.0005227459478192031,0.0002243587950943038
1777316386095278336,0.007685001008212566,0.001422954257577658,-0.9955509901046753,3.257973730796948e-05,-0.0003108077798970044,0.0001394331193296239
1777316386105155840,0.007608830463141203,0.001669524237513542,-0.9954860806465149,0.0001198272220790386,-0.0002410843881079927,-5.290718036121689e-05
1777316386115282688,0.007784730289131403,0.001669915160164237,-0.9956228733062744,-1.123916445067152e-05,-0.000303485372569412,-0.0001551413151901215
1777316386125390080,0.007804250344634056,0.001691463403403759,-0.9957206249237061,6.186972314026207e-05,-0.0002957761753350496,-7.410064426949248e-06
1777316386135477248,0.007838950492441654,0.001526842592284083,-0.9956899881362915,-0.000290767929982394,-0.0002064841683022678,-0.0002275942388223484
1777316386145544704,0.007792604621499777,0.001367017859593034,-0.9958373308181763,-4.400882971822284e-06,-0.0002223922201665118,-0.0001674695522524416
1777316386155592960,0.007718443870544434,0.001364868599921465,-0.995780885219574,-0.0002402455284027383,-1.119429362006485e-05,2.877398219425231e-05
1777316386165621760,0.007833846844732761,0.001405402203090489,-0.9957661628723145,0.0004202515701763332,-0.0002118904667440802,8.083177090156823e-05
1777316386175630848,0.007866189815104008,0.001343619427643716,-0.9957956671714783,0.0005269789835438132,8.028387674130499e-05,5.802145096822642e-05
1777316386185619968,0.008093813434243202,0.001283287769183517,-0.9958647489547729,-0.0001196103257825598,0.0001923617674037814,4.063761298311874e-05
1777316386195589632,0.008085561916232109,0.001257140305824578,-0.9959307312965393,3.533480048645288e-05,0.0002653019037097692,1.184681786980946e-05
1777316386205539584,0.00784748699516058,0.001260424614883959,-0.9957032203674316,0.0001632828498259187,-0.0001132946345023811,-2.164710167562589e-06
1777316386215470080,0.007802722509950399,0.001475854078307748,-0.9958059191703796,0.000234981591347605,-0.0002854167541954666,-8.000191155588254e-05
1777316386225380608,0.007883372716605663,0.001525271451100707,-0.9955866932868958,0.0002787460689432919,-0.0001948907738551497,-0.0001346256321994588
1777316386235271936,0.007838874123990536,0.00162387324962765,-0.9958094954490662,-7.680497947148979e-05,4.980614176020026e-05,-0.0003158128820359707
1777316386245144064,0.00782205443829298,0.001439447398297489,-0.9958318471908569,0.0001857250754255801,0.0001042679214151576,4.507573248702101e-05
1777316386255270656,0.007931629195809364,0.001238720025867224,-0.9957318902015686,0.0003785702283494174,0.0001337607100140303,0.000372233975213021
1777316386265377536,0.007869266904890537,0.001064220909029245,-0.995568573474884,0.0002986242761835456,7.842125341994688e-06,0.0001602771662874147
1777316386275464448,0.007808372844010592,0.001462950021959841,-0.995715856552124,0.000227522716159001,-3.248611756134778e-05,0.0001039924100041389
1777316386285531392,0.007860429584980011,0.00153959181625396,-0.9957228899002075,8.2178863522131e-05,0.0001269826752832159,0.0001129627926275134
1777316386295579136,0.007750745862722397,0.001639255788177252,-0.9957258701324463,-1.511774826212786e-06,0.0001182789274025708,3.317497612442821e-05
1777316386305607168,0.007626458536833525,0.001549999695271254,-0.9957684874534607,5.557920667342842e-05,0.0001762564061209559,-2.429375308565795e-05
1777316386315615488,0.007754828315228224,0.001348215155303478,-0.9959073066711426,0.0001010966225294396,-3.222128725610673e-05,5.209580922382884e-05
1777316386325604608,0.007400661241263151,0.001182379084639251,-0.9959332346916199,1.332492684014142e-05,-0.0002851731551345438,0.0001476095203543082
1777316386335574528,0.007749889045953751,0.001233790768310428,-0.9959979653358459,0.0003424877941142768,-0.0003388161712791771,9.617586329113692e-05
1777316386345524480,0.007607378996908665,0.001546472311019897,-0.9959298372268677,5.72013232158497e-05,-0.0001926942641148344,0.0002347630070289597
1777316386355454976,0.007821626029908657,0.001557066454552114,-0.9957820773124695,6.029438009136356e-05,-0.0003201265062671155,0.0002088723122142255
1777316386365366016,0.00782422162592411,0.001440160442143679,-0.9959032535552979,9.891431545838714e-06,-0.0002971866342704743,7.919141353340819e-05
1777316386375257856,0.007512808311730623,0.001426063943654299,-0.9956874251365662,0.0002966284519061446,-0.0003728707088157535,0.0001898503687698394
1777316386385130496,0.007637529633939266,0.001536420895718038,-0.9961223602294922,0.0003518620214890689,-0.0004939882201142609,0.000203341172891669
1777316386395257344,0.007539730053395033,0.001604118733666837,-0.9957595467567444,0.0004570591554511338,-0.0002104401792166755,0.0003033547836821526
1777316386405364224,0.007484294939786196,0.001737350365146995,-0.9960088729858398,0.0003271805762778968,-0.0001867807877715677,0.0004362680774647743
1777316386415451136,0.007611204870045185,0.001496685203164816,-0.9957088828086853,0.0002426041901344433,-0.0001179873288492672,0.0001479837519582361
1777316386425518336,0.00753339845687151,0.001521133002825081,-0.9958800673484802,0.0001530573790660128,-0.0001291048247367144,6.348059105221182e-05
1777316386435565824,0.007494842167943716,0.001447795308195055,-0.9958664178848267,0.0002292350691277534,-0.0004909845883958042,2.971224239445291e-05
1777316386445593856,0.007637321017682552,0.001306641846895218,-0.9957848787307739,-0.0002283665089635178,-0.0001548716390971094,0.0003215446777176112
1777316386455601664,0.007642410695552826,0.001551836729049683,-0.9958723783493042,-9.360162039229181e-06,-1.69218001246918e-05,0.0002889134048018605
1777316386465590016,0.00769494567066431,0.001692707068286836,-0.9958300590515137,-2.363671228522435e-06,1.047560726874508e-05,0.0002368691493757069
1777316386475558656,0.007896778173744678,0.001612769206985831,-0.9956912994384766,1.498105120845139e-05,-6.94659975124523e-05,-3.340034891152754e-05
1777316386485507584,0.007700949441641569,0.001496331882663071,-0.9957175254821777,-5.373549356590956e-07,-5.108280311105773e-05,-1.418019746779464e-05
1777316386495436544,0.007728787139058113,0.001420046668499708,-0.9954533576965332,8.061887638177723e-05,2.626575587783009e-05,-8.024788257898763e-05
1777316386505346304,0.007537964265793562,0.001444197841919959,-0.9955028295516968,-0.0002188584039686248,0.0001606413425179198,0.0001214016228914261
1777316386515236864,0.007598919328302145,0.001514740055426955,-0.9954624176025391,-0.0002515640226192772,-6.535521242767572e-05,-6.63197261019377e-06
1777316386525107456,0.007731480523943901,0.001584836980327964,-0.9955568909645081,-0.000456116977147758,-7.766982162138447e-05,-0.0002115405659424141
1777316386535232768,0.007773506455123425,0.001744512934237719,-0.9956580996513367,-0.0004749848158098757,0.0002363076055189595,-0.0001379965397063643
1777316386545338112,0.007758918218314648,0.001670359284617007,-0.9957361221313477,-0.0003660725778900087,6.541088077938184e-05,-0.0001704801252344623
1777316386555423488,0.00788289587944746,0.001628777594305575,-0.9956498742103577,-6.023929381626658e-05,0.0001379622990498319,-0.0001112907193601131
1777316386565488640,0.007743260823190212,0.00163093488663435,-0.9955542087554932,-0.0004236270033288747,0.000138798015541397,-4.425520455697551e-05
1777316386575534336,0.007614938542246819,0.001471623545512557,-0.9957416653633118,-0.0002838854561559856,-9.568089444655925e-05,-2.666136060724966e-05
1777316386585560320,0.007612924557179213,0.001393548445776105,-0.9957181811332703,-0.0001097297645173967,0.0001474465825594962,6.332411430776119e-07
1777316386595566336,0.007374073844403028,0.001537472824566066,-0.9955502152442932,9.945668716682121e-05,6.371235940605402e-05,0.0003833969822153449
1777316386605552384,0.007445303723216057,0.001329642138443887,-0.9956135153770447,0.0001007948230835609,-0.0001187740781460889,0.0003956924192607403
1777316386615518976,0.007518583443015814,0.001146838068962097,-0.9956042766571045,0.0003554592258296907,-0.0001988587609957904,0.0001966960990102962
1777316386625465600,0.007509794551879168,0.001373059814795852,-0.9957864284515381,0.0002139781718142331,-0.000465517514385283,0.0002105934254359454
1777316386635392256,0.007296769879758358,0.001512328046374023,-0.9958328008651733,0.0003313797351438552,-0.0005357213667593896,0.000310188188450411
1777316386645299456,0.007555457763373852,0.001681410940364003,-0.9959791898727417,0.000152612294186838,-0.0002636742137838155,0.0001801318721845746
1777316386655186944,0.007596714422106743,0.001911028986796737,-0.9959030151367188,-0.0001264972670469433,0.0002804106916300952,-0.0001386656367685646
1777316386665054720,0.007552968803793192,0.001530561945401132,-0.9960794448852539,0.0001039689159370027,4.496777546592057e-05,-0.0004137407522648573
1777316386675179776,0.007437997963279486,0.001509425463154912,-0.9959309697151184,0.0001141629181802273,-8.627230999991298e-05,-0.000139155556098558
1777316386685285120,0.007361456286162138,0.001649993006139994,-0.9956390261650085,0.0002011106844292954,-0.0002719622862059623,0.000111099419882521
1777316386695370240,0.007354624569416046,0.001473320997320116,-0.9956266283988953,0.0001337432477157563,-0.0002644674095790833,-3.485543857095763e-05
1777316386705435648,0.007554562762379646,0.001596009940840304,-0.9958488345146179,5.311190034262836e-05,-4.42444761574734e-05,0.0001590360625414178
1777316386715481344,0.007663799915462732,0.001596698653884232,-0.9960097074508667,8.126669854391366e-05,-0.0002797392371576279,0.0001565724960528314
1777316386725507072,0.007697166875004768,0.001497179036960006,-0.995979368686676,0.0002112984075210989,-1.537245043436997e-05,-0.000114757931442
1777316386735512576,0.007679831702262163,0.001542523270472884,-0.995785653591156,0.0001514994655735791,0.0004560051311273128,0.0001562257093610242
1777316386745498624,0.00782676599919796,0.001353466883301735,-0.9957090020179749,0.0001256269897567108,0.0003243896062485874,-0.0001192682757391594
1777316386755464704,0.007556072436273098,0.001553419628180563,-0.9957794547080994,0.0001428393443347886,-0.0001282892771996558,-0.0003128766838926822
1777316386765410816,0.007687679026275873,0.001833323040045798,-0.9959846138954163,0.0001621348928892985,-0.0003417987318243831,5.59746622457169e-05
1777316386775337728,0.007702283095568419,0.001429470954462886,-0.9957956075668335,4.655461816582829e-05,2.567572664702311e-05,0.0002457623486407101
1777316386785244672,0.007599587086588144,0.00140296493191272,-0.9956406354904175,9.606820822227746e-05,4.294519749237224e-05,0.0001005697922664694
1777316386795131904,0.007440378423780203,0.001217540469951928,-0.9957171678543091,0.0001809486275305972,-0.0001973658800125122,7.36021320335567e-05
1777316386805000448,0.007542530540376902,0.001203924533911049,-0.9958223104476929,-0.0002000511449296027,-0.0003941344039049,7.555459160357714e-05
1777316386815125760,0.007508253213018179,0.001400379696860909,-0.995810866355896,0.0003851809306070209,3.460994412307627e-05,9.883460734272376e-05
1777316386825231360,0.00763504346832633,0.001720835687592626,-0.9958770275115967,-4.33629538747482e-05,2.348849375266582e-05,0.0002063680731225759
1777316386835317504,0.007630207110196352,0.001642554299905896,-0.995570957660675,-9.766745279193856e-06,-6.655754987150431e-05,0.0002615635457914323
1777316386845383424,0.007493995595723391,0.001630137674510479,-0.9953682422637939,-0.0002740774943958968,-0.0001597303635207936,0.0001365560747217387
1777316386855429888,0.007369923405349255,0.001701631699688733,-0.9955311417579651,-0.0002239820023532957,-0.0002858390507753938,4.580532549880445e-05
1777316386865456128,0.007509422488510609,0.001475750934332609,-0.9956687092781067,-0.0002856998762581497,-0.0002280205808347091,-0.0002275531151099131
1777316386875462912,0.007787837646901608,0.001461282256059349,-0.9958096146583557,-0.0003239080833736807,-0.0002004857815336436,-0.000266079674474895
1777316386885449728,0.007829501293599606,0.001551476772874594,-0.9955788850784302,0.0001677789259701967,-0.0003741768014151603,4.193556378595531e-06
1777316386895416576,0.007813580334186554,0.001279419055208564,-0.9956694841384888,0.0002557607367634773,-2.140324795618653e-05,0.0001256667310371995
1777316386905363968,0.007674717344343662,0.001417376450262964,-0.995511531829834,5.357015834306367e-05,-3.983308852184564e-05,0.0001027259568218142
1777316386915291392,0.0074254903011024,0.001484702341258526,-0.9954054355621338,0.0001746652123983949,6.369270704453811e-05,9.470595978200436e-05
1777316386925199616,0.007563717663288116,0.001710937940515578,-0.9956368803977966,0.000130987711600028,-0.000434898684034124,-2.885385219997261e-05
1777316386935088128,0.007583215367048979,0.001754759112372994,-0.9957036375999451,-2.840326123987325e-05,-0.0003630160063039511,-1.127672294387594e-05
1777316386944956672,0.007668573409318924,0.001571670756675303,-0.9959473013877869,7.455959712387994e-05,-0.0002553212398197502,-1.840808181441389e-06
1777316386955081472,0.007691418752074242,0.001534499344415963,-0.9959160089492798,-0.0001739186991471797,-5.869029337191023e-05,0.0001931790611706674
1777316386965185792,0.007915201596915722,0.001536121359094977,-0.9957636594772339,-0.0002311449497938156,-0.0001500050420872867,0.000197286470211111
1777316386975270656,0.007742362562566996,0.001446574693545699,-0.9955516457557678,-0.0002858217048924416,-1.704542410152499e-05,0.0002121439611073583
1777316386985335552,0.00768793560564518,0.001234287861734629,-0.9955884218215942,-6.077656144043431e-05,0.0001085064286598936,0.0003795784723479301
1777316386995380480,0.007567152380943298,0.001258423202671111,-0.9958013892173767,-4.793660627910867e-05,1.148598494182806e-05,0.000162214069860056
1777316387005405440,0.007838165387511253,0.001263997284695506,-0.9958536028862,-0.000110437220428139,-0.0001416993472957984,2.344456152059138e-05
1777316387015410432,0.007784573826938868,0.001669656950980425,-0.9959198236465454,-0.0002369886788073927,0.0001967407733900473,-0.0001381862384732813
1777316387025395968,0.007725372910499573,0.001798912417143583,-0.9959849715232849,-0.0002279076143167913,0.0001117143110604957,-0.0001326919737039134
1777316387035361536,0.007742688059806824,0.001512403949163854,-0.9955536127090454,-1.491092370997649e-05,6.314381607808173e-05,0.0001014436711557209
1777316387045307136,0.007801242172718048,0.001610898994840682,-0.995613157749176,0.000157010872499086,-4.671306305681355e-05,4.286122930352576e-05
1777316387055233024,0.007813318632543087,0.001731739263050258,-0.9956092238426208,0.000284640904283151,-0.0002511025522835553,-1.289737883780617e-05
1777316387065139456,0.00758748035877943,0.00161045603454113,-0.9957045912742615,0.0001373292325297371,-4.612969860318117e-05,-6.45813561277464e-05
1777316387075026432,0.007647520396858454,0.001492004259489477,-0.9958204030990601,0.0001309216895606369,-9.847520414041355e-05,-6.963608029764146e-06
1777316387085032448,0.007775361649692059,0.001496283686719835,-0.9957361221313477,0.0001871709973784164,-0.0001763987238518894,-8.578377310186625e-05
1777316387095156992,0.007698045577853918,0.001314786495640874,-0.9955316781997681,0.0002339404891245067,-0.0002791022707242519,-6.094783384469338e-05
1777316387105261312,0.007601218763738871,0.001310324063524604,-0.995441734790802,0.0001486303663114086,-0.0001811285328585654,-8.410962618654594e-05
1777316387115346176,0.007734948769211769,0.001451467862352729,-0.9956414103507996,0.0002573196834418923,-4.790995808434673e-05,4.243153671268374e-05
1777316387125410816,0.007647132035344839,0.001480375532992184,-0.9958879351615906,9.448458149563521e-05,-0.000274115678621456,6.869808566989377e-05
1777316387135456768,0.007710371632128954,0.001519334502518177,-0.9959409236907959,-0.0001046043107635342,-0.000371134839951992,0.0003009289503097534
1777316387145483008,0.007757301442325115,0.00157370138913393,-0.995663583278656,-4.654490476241335e-05,-0.0002676639996934682,0.000296543788863346
1777316387155489280,0.007707260083407164,0.001405703136697412,-0.9955832958221436,-0.0003192538279108703,-0.0003929905069526285,0.0001527609420008957
1777316387165476096,0.007656938396394253,0.001678176806308329,-0.9956870079040527,-0.0002051100018434227,-0.0003728009469341487,-3.326583828311414e-05
1777316387175443456,0.007525877095758915,0.001738333841785789,-0.9956954121589661,7.058981282170862e-05,-0.0002461176482029259,2.175592999265064e-05
1777316387185390848,0.007521946914494038,0.001626654295250773,-0.9957900643348694,-0.0003987861564382911,-0.0002467308077029884,4.776048444909975e-05
1777316387195319040,0.007674228865653276,0.001548014464788139,-0.995747447013855,8.53157980600372e-05,9.169492113869637e-05,-9.996805601986125e-06
1777316387205227264,0.007693641819059849,0.001738883671350777,-0.9955286979675293,0.0001788447552826256,-5.291480920277536e-05,-0.0001492789597250521
1777316387215116800,0.007581739686429501,0.001568100531585515,-0.9956936836242676,0.0001294177782256156,-0.0001463232620153576,3.66768945241347e-05
1777316387225123328,0.007662347052246332,0.001450854353606701,-0.9957586526870728,0.0004214318178128451,-0.0001962215756066144,-0.0001338950387435034
1777316387235246848,0.007800684310495853,0.001636506873182952,-0.9959121942520142,0.0002014937635976821,-0.0001542255340609699,-0.0001939994981512427
1777316387245350656,0.00784760806709528,0.001718406099826097,-0.9957650303840637,0.0002615407574921846,-0.0001153305274783634,0.000184465796337463
1777316387255434240,0.007654733955860138,0.001701163360849023,-0.995961606502533,0.0001498423225712031,0.0002048468450084329,5.848175351275131e-05
1777316387265497600,0.007641303818672895,0.001469195354729891,-0.9958717823028564,0.0002699908218346536,-4.095012991456315e-05,4.377781442599371e-05
1777316387275542016,0.007609137333929539,0.001484333071857691,-0.9957012534141541,-0.0003463774919509888,-0.0002739196934271604,0.0002121299621649086
1777316387285566208,0.007696047890931368,0.001517271855846047,-0.9957458972930908,-5.777908518211916e-05,7.283786544576287e-06,0.0001277547999052331
1777316387295570432,0.007802466861903667,0.001588308718055487,-0.995643138885498,0.0003227595007047057,6.34861207799986e-05,0.0001467398833483458
1777316387305554944,0.007690948434174061,0.001826856518164277,-0.9957534074783325,7.379461021628231e-05,1.285967664443888e-05,0.000302869884762913
1777316387315519744,0.007473233621567488,0.001664065290242434,-0.9956210851669312,-0.0001859426411101595,0.0002569876087363809,-0.0001074551037163474
1777316387325464576,0.007582660298794508,0.001607004553079605,-0.9956201314926147,-6.084998676669784e-05,0.0002393546456005424,0.0001181848347187042
1777316387335389440,0.007528633344918489,0.001567161292769015,-0.9954162836074829,-1.745296322042122e-05,-0.0002032860647886992,0.0001951288722921163
1777316387345295104,0.007563541177660227,0.001773913158103824,-0.9956271052360535,-4.045385867357254e-05,-0.0002882256521843374,-3.835892857750878e-05
1777316387355181056,0.00781378336250782,0.001754840021021664,-0.9958136677742004,9.861360013019294e-05,-0.0005892970366403461,0.0001391219702782109
1777316387365185536,0.007739214692264795,0.001853668480180204,-0.9956446886062622,0.0001473726297263056,-0.0005461638793349266,0.0001894726592581719
1777316387375308800,0.007573420647531748,0.001576839247718453,-0.9956202507019043,0.0001163005217676982,-0.000379433564376086,0.0003065724449697882
1777316387385412608,0.007468427531421185,0.001608293270692229,-0.9957252740859985,0.000166877856827341,-0.0003497814177535474,0.0002723770157899708
1777316387395495936,0.007604382932186127,0.001704818685539067,-0.9956573247909546,0.0002548971096985042,-0.0003618384071160108,3.826689498964697e-05
1777316387405560064,0.007574498653411865,0.001899645430967212,-0.9958460927009583,0.0004870968114119023,-0.0002882310654968023,0.0002361619117436931
1777316387415604736,0.00767042487859726,0.001902352436445653,-0.9959654211997986,0.0005121108260937035,-0.0002575930557213724,5.445989881991409e-05
1777316387425629696,0.007719053886830807,0.001829416025429964,-0.9959442615509033,0.0002211960672866553,2.94878554996103e-06,6.508240039693192e-05
1777316387435635200,0.00772878946736455,0.001680649002082646,-0.9957692623138428,0.0001371914986521006,-0.0001610072358744219,-0.0001074313913704827
1777316387445621248,0.007682295050472021,0.001676692510955036,-0.9957060813903809,-9.491988021181896e-05,-0.0001163854758488014,5.220327511779033e-05
1777316387455588096,0.00767187075689435,0.001466242014430463,-0.9955904483795166,0.0001655764353927225,-8.793986489763483e-05,5.018512092647143e-05
1777316387465535488,0.007620371878147125,0.001401304383762181,-0.9956758618354797,7.568429282400757e-05,-5.985143798170611e-05,0.0001429935364285484
1777316387475463168,0.007741073612123728,0.001460422528907657,-0.995733380317688,-0.0001414668367942795,8.292858547065407e-05,3.527129592839628e-05
1777316387485371392,0.007788107264786959,0.001412820653058589,-0.995776891708374,-0.0002101604040944949,0.0002184998011216521,-1.84242453542538e-05
1777316387495260672,0.007703919429332018,0.001423969282768667,-0.9958900809288025,0.0001434292789781466,-7.136926433304325e-05,0.0001528527936898172
1777316387505267200,0.007633683737367392,0.001383308554068208,-0.9961544871330261,0.000297571299597621,0.0001431236742064357,5.997465632390231e-05
1777316387515388928,0.007637585047632456,0.001403456670232117,-0.9958204030990601,0.0001710063952486962,0.0001912520674522966,0.0001208160319947638
1777316387525490944,0.007780555170029402,0.001548921340145171,-0.9956324696540833,0.0003629799175541848,0.0002260077162645757,0.0001433454308426008
1777316387535573248,0.007690883707255125,0.001593755092471838,-0.9959051012992859,0.0004605219874065369,3.937575093004853e-05,0.0001260626595467329
1777316387545636096,0.007747457828372717,0.001631580758839846,-0.9957990050315857,0.0002767473342828453,3.851848305203021e-05,-0.0001232592185260728
1777316387555678720,0.007790615316480398,0.001463833497837186,-0.9960483908653259,4.111399175599217e-05,7.973997708177194e-05,-0.0001778492005541921
1777316387565701888,0.007646038196980953,0.001434003701433539,-0.9957828521728516,-1.356367283733562e-05,0.0004435142618604004,-0.0002005312562687322
1777316387575705088,0.007746541406959295,0.001348989433608949,-0.9957261681556702,-1.263277772522997e-05,0.0001877832546597347,-0.0002303724468220025
1777316387585688576,0.007756068371236324,0.001440832857042551,-0.9957306385040283,3.361682320246473e-05,-0.0001188231472042389,-3.253966860938817e-05
1777316387595652352,0.007663277443498373,0.001636157743632793,-0.9957541823387146,-0.0001295858237426728,-0.0002747267426457256,9.619806951377541e-05
1777316387605597184,0.007728312630206347,0.001696484512649477,-0.995659351348877,-8.647682261653244e-05,-0.000114520029455889,0.0001431245036656037
1777316387615522048,0.00757337361574173,0.00141380587592721,-0.99579256772995,-0.000166528727277182,-0.0004471745633054525,0.0001974173646885902
1777316387625426944,0.007568386383354664,0.001500003854744136,-0.9958471655845642,-0.0001362548937322572,-0.0003712587640620768,-3.999403634225018e-05
1777316387635312640,0.007737473119050264,0.001333523076027632,-0.9959150552749634,0.0002207476209150627,-0.0005416608182713389,-0.0001295370020670816
1777316387645316352,0.007819035090506077,0.001434833626262844,-0.9958910346031189,0.0002436327777104452,-0.0002071735361823812,-2.55371605817345e-06
1777316387655437568,0.007581685669720173,0.001486935070715845,-0.9962060451507568,-6.684793333988637e-05,-0.0002322077198186889,-0.0001568039006087929
1777316387665539072,0.007590862456709146,0.001664552139118314,-0.9960324764251709,-0.0001884889497887343,-0.000154458248289302,2.129683161911089e-05
1777316387675620352,0.007762725930660963,0.001451187767088413,-0.9961682558059692,-0.0001508767309132963,-0.0005923558492213488,0.0001607117592357099
1777316387685681664,0.007805040571838617,0.001501979073509574,-0.9961507320404053,0.000177838490344584,-0.0001191582850879058,0.0002730301930569112
1777316387695723776,0.007729658856987953,0.001396491774357855,-0.9959292411804199,0.0003663490933831781,-8.43275265651755e-05,7.918341725599021e-05
1777316387705745664,0.007700012531131506,0.001586363418027759,-0.9958203434944153,0.0001649581681704149,-1.733607496134937e-05,-6.73191825626418e-05
1777316387715748096,0.007693909108638763,0.001756547600962222,-0.9955442547798157,0.000359248515451327,0.0001052533043548465,-0.000247278978349641
1777316387725730560,0.007610400207340717,0.001566102029755712,-0.9958926439285278,0.0001714379177428782,-0.0002264302311232314,-0.0001191708724945784
1777316387735693056,0.007715137209743261,0.001589352614246309,-0.9957438707351685,-0.000232269085245207,-0.0002469430037308484,9.66061998042278e-06
1777316387745636096,0.007862482219934464,0.001529982429929078,-0.9955862164497375,-6.813896470703185e-05,-0.00019818902364932,-4.366137727629393e-05
1777316387755559424,0.007960401475429535,0.001417866093106568,-0.9956337213516235,0.000140988442581147,-0.0001767283538356423,5.244796739134472e-07
1777316387765462784,0.007768883369863033,0.001486768131144345,-0.9956715703010559,4.740364238386974e-05,-0.0001173891287180595,-0.0001598473027115688
1777316387775346944,0.007676484528928995,0.00158760929480195,-0.9958575367927551,-5.451319157145917e-05,-0.0002707165549509227,-2.002260771405417e-05
1777316387785349632,0.007673615589737892,0.002013665158301592,-0.9959460496902466,8.181984594557434e-05,-0.0002081571728922427,-0.0001445356319891289
1777316387795470848,0.007719897665083408,0.001763394684530795,-0.9958541393280029,-0.000371964939404279,-0.0002152149681933224,-0.0001810786197893322
1777316387805572352,0.007632963359355927,0.00172445026692003,-0.9960966110229492,-0.000335492251906544,-0.0003642847004812211,-0.0001498188794357702
1777316387815653888,0.007700934074819088,0.001637617009691894,-0.9957298636436462,-0.0002702980127651244,-0.0004201137344352901,-5.176324339117855e-05
1777316387825715712,0.00772068602964282,0.001527423271909356,-0.9957900047302246,-0.0001198055324493907,-5.869760570931248e-05,0.0001893193839350715
1777316387835758336,0.007744226604700089,0.001717688166536391,-0.9957954287528992,-0.0001167485606856644,-0.0001405980583513156,0.0002446968865115196
1777316387845782016,0.007733448874205351,0.001754590659402311,-0.9959131479263306,-0.000415745482314378,1.228952714882325e-05,5.739217886002734e-05
1777316387855786496,0.007737995125353336,0.001803821185603738,-0.9958928227424622,-0.0002147202321793884,0.0002442284894641489,0.000196942433831282
1777316387865771264,0.007618865929543972,0.001564797828905284,-0.9955928921699524,0.0002394493640167639,0.0001041151117533445,0.0001518490025773644
1777316387875736576,0.007681981194764376,0.001372991944663227,-0.9957783818244934,0.0001136236023739912,7.609723979840055e-07,0.0002000084205064923
1777316387885682432,0.007532209157943726,0.001319470349699259,-0.9962723255157471,0.0004803197225555778,-0.0001479869824834168,-0.0001903672964544967
1777316387895608832,0.007710937410593033,0.001507335575297475,-0.9959455132484436,0.000466051627881825,-0.0003630299761425704,-0.000139722804306075
1777316387905515776,0.007845944724977016,0.001648850156925619,-0.9957282543182373,0.0004431902198120952,-0.0001375145511701703,-4.251179780112579e-05
1777316387915403776,0.007666048593819141,0.001502163475379348,-0.995593249797821,0.0005213207914493978,-3.388211916899309e-05,6.781279807910323e-05
1777316387925408256,0.007554179988801479,0.001444139401428401,-0.9956617951393127,0.0004985021078027785,0.0002025460271397606,0.0001841580669861287
1777316387935528960,0.007570330519229174,0.001239695120602846,-0.9956855773925781,0.0005213897675275803,3.308882514829747e-05,4.41608062828891e-05
1777316387945629440,0.007498505990952253,0.001381621696054935,-0.9957451224327087,0.0003133674326818436,-0.0003150606935378164,8.301205525640398e-05
1777316387955710208,0.00759925926104188,0.001431827200576663,-0.9956495761871338,0.0003502430045045912,0.0001435979356756434,0.0001808582746889442
1777316387965770752,0.00761761050671339,0.001637722481973469,-0.995572566986084,0.0004121446108911186,-0.0001184342836495489,2.234109706478193e-05
1777316387975812352,0.00779490964487195,0.00161963514983654,-0.9955125451087952,0.0003886964987032115,-0.0003934970882255584,0.0001659861300140619
1777316387985833984,0.007756807841360569,0.001516347285360098,-0.9955533742904663,0.0004081108199898154,-0.0003499296144582331,0.0003533591807354242
1777316387995835904,0.007738391403108835,0.001457966747693717,-0.9955892562866211,0.0005230340175330639,1.077255001291633e-05,0.0003761238185688853
1777316388005817856,0.007691700477153063,0.001408594776876271,-0.9956628084182739,0.0003150386619381607,0.0001254980597877875,0.000547814997844398
1777316388015780352,0.007621846627444029,0.001450879266485572,-0.99568772315979,-7.855841977288947e-05,0.0001602932316018268,0.0002968221378978342
1777316388025722880,0.00758080743253231,0.001497613731771708,-0.9956867694854736,-1.82180774572771e-05,-3.172695869579911e-05,8.505834557581693e-05
1777316388035645952,0.007619075942784548,0.001434572623111308,-0.9955862760543823,-0.0001057583431247622,2.684665378183126e-05,-0.0001360597088932991
1777316388045549312,0.007494152989238501,0.001297550974413753,-0.9956499338150024,-0.0003264347033109516,0.0002276763261761516,-1.766665445757098e-05
1777316388055433216,0.007585056591778994,0.001269536442123353,-0.9956050515174866,-1.483678897784557e-05,-9.502322791377082e-05,0.0001667660981183872
1777316388065435392,0.007686452008783817,0.001237466232851148,-0.9957318902015686,0.0001603077398613095,-0.0002052729832939804,0.000108387328509707
1777316388075555584,0.007708352990448475,0.001370821730233729,-0.9957259297370911,-0.0001782971812644973,-0.0006185687379911542,0.0002307079121237621
1777316388085655552,0.007733681239187717,0.001614495296962559,-0.9957267642021179,-0.0004090961301699281,-0.0005119303823448718,2.44340808421839e-05
1777316388095735808,0.007687897421419621,0.00151602434925735,-0.9958081245422363,-0.0002941740385722369,-0.0002651342947501689,-0.0001372830010950565
1777316388105795840,0.007651953957974911,0.001432046992704272,-0.9957525134086609,-0.0004075427423231304,-2.893186319852248e-05,6.616015161853284e-05
1777316388115836416,0.007669830229133368,0.001628431840799749,-0.9956964254379272,4.928139605908655e-05,-4.211918712826446e-05,-5.238183803157881e-06
1777316388125856768,0.007561821490526199,0.001648809527978301,-0.9958146214485168,-2.579661304480396e-05,9.881162986857817e-05,5.313498695613816e-05
1777316388135857664,0.007586771156638861,0.001723736524581909,-0.9959437251091003,5.787674672319554e-05,-0.0001503025850979611,-8.7578700913582e-06
1777316388145838592,0.00753452256321907,0.001787539222277701,-0.9959625005722046,5.620865340461023e-05,-7.118032954167575e-05,0.0003458371502347291
1777316388155799808,0.007659419439733028,0.001831028377637267,-0.995835542678833,0.0004927669069729745,9.469399810768664e-05,0.0001418798638042063
1777316388165741312,0.007728666998445988,0.001737327547743917,-0.9956839084625244,0.0002289951662532985,-0.0001709459465928376,0.0002168029313907027
1777316388175663104,0.007905660197138786,0.001659235102124512,-0.9957458972930908,0.0003541889309417456,-0.0001737653801683336,0.0003768146561924368
1777316388185564928,0.007729759439826012,0.001573884743265808,-0.99569171667099,0.0005169315845705569,-0.0002101046120515093,0.000277208280749619
1777316388195447552,0.007788760587573051,0.001644132076762617,-0.9957033395767212,0.0001093073733500205,-0.0004916935577057302,0.0001503965904703364
1777316388205448960,0.007714394945651293,0.00162466149777174,-0.9956158995628357,-5.111197424412239e-06,-0.0008056818041950464,9.366581798531115e-05
1777316388215568640,0.007809731177985668,0.001641971524804831,-0.9955477714538574,7.183810521382838e-05,-0.0004447634564712644,0.000205632604775019
1777316388225668608,0.007666185963898897,0.001419993466697633,-0.9955071806907654,-0.0001228769833687693,-0.0006182732759043574,0.0002164295583497733
1777316388235748608,0.007609977386891842,0.001467893016524613,-0.9956554174423218,0.0001335182314505801,-0.0007887055398896337,0.0001272163062822074
1777316388245808896,0.007656192872673273,0.001718632411211729,-0.995848536491394,-1.835927105275914e-05,-0.0001048405974870548,1.970189259736799e-06
1777316388255850240,0.007695934735238552,0.001563948462717235,-0.9957332015037537,0.0001360964233754203,-6.715297786286101e-05,0.0001001449418254197
1777316388265871616,0.007575144059956074,0.001519524026662111,-0.9957930445671082,6.137540185591206e-05,0.0002012149634538218,8.27751646284014e-05
1777316388275873536,0.007481797132641077,0.001578279538080096,-0.9959008693695068,0.0001440468768123537,0.0001347962243016809,4.97094115416985e-05
1777316388285855744,0.007588798180222511,0.001469644485041499,-0.9955161213874817,5.660294118570164e-05,0.0001966028939932585,-8.512392378179356e-05
1777316388295818240,0.007748027332127094,0.001776155550032854,-0.9957614541053772,-5.160356522537768e-05,0.0001285984326386824,-0.0001776376011548564
1777316388305761280,0.007720442954450846,0.001765250810422003,-0.9956552386283875,-7.008810644038022e-05,-1.782604522304609e-05,0.0001524142571724951
1777316388315684608,0.00770482374355197,0.001637889188714325,-0.9957005977630615,6.108005618443713e-05,-0.0001554187183501199,0.0002577390696387738
1777316388325588480,0.007652354892343283,0.001393015147186816,-0.9957695603370667,-0.0002126564213540405,5.421176683739759e-05,0.0001823601051000878
1777316388335473152,0.007693293504416943,0.001282832934521139,-0.9955872893333435,-6.385056622093543e-05,-5.399817746365443e-05,-1.121795321523678e-06
1777316388345475584,0.007494446355849504,0.00113786815200001,-0.9954987168312073,-0.0002978407428599894,3.525112697388977e-05,0.0003892836684826761
1777316388355595264,0.007464637514203787,0.001129794283770025,-0.9955289959907532,-4.094742507732008e-06,0.0001151010656030849,8.397096826229244e-05
1777316388365695232,0.007474475540220737,0.00146078085526824,-0.9956718683242798,0.0004506692639552057,-0.0001096083433367312,7.187596202129498e-05
1777316388375775488,0.007599203381687403,0.00177527463529259,-0.9956997036933899,0.0004529091238509864,-0.0002374667237745598,0.000203979347134009
1777316388385835776,0.00757669797167182,0.001625662785954773,-0.9957079887390137,6.759751704521477e-05,-2.959781886602286e-05,-8.378384518437088e-05
1777316388395876352,0.007367395330220461,0.001551751047372818,-0.9955704808235168,6.536197906825691e-05,-0.000125811857287772,-0.0001005177982733585
1777316388405896960,0.007427733857184649,0.001437211409211159,-0.9955776333808899,0.0001546045241411775,-0.0001770310045685619,-0.0002141306758858263
1777316388415898624,0.007650780025869608,0.001528367516584694,-0.9954714179039001,0.0001400597393512726,-0.0001230987545568496,-0.0002336301404284313
1777316388425881600,0.007497342303395271,0.001347587560303509,-0.9955126643180847,8.439410157734528e-05,-0.0002914309443440288,-8.494734356645495e-05
1777316388435845120,0.00765455374494195,0.00154288427438587,-0.9956690669059753,2.310705167474225e-05,-0.0001596279616933316,0.0001489115529693663
1777316388445789440,0.007708330173045397,0.00151981832459569,-0.9956923127174377,0.0002304506342625245,-9.010654321173206e-05,0.0001869233383331448
1777316388455714304,0.007805405650287867,0.001545141451060772,-0.9958525896072388,0.0003766153240576386,-0.0001589377789059654,-6.539007154060528e-05
1777316388465619712,0.00788169726729393,0.001393528538756073,-0.9961271286010742,0.0004100551013834774,-0.0001228461042046547,8.944806177169085e-05
1777316388475505664,0.007775586098432541,0.001343983924016356,-0.99581378698349,0.0003940656897611916,-3.514488707878627e-05,-5.23167873325292e-05
1777316388485504000,0.007746190298348665,0.001280253054574132,-0.9956902861595154,0.0001750828669173643,-0.0001516383781563491,-0.0001626880548428744
1777316388495614464,0.007867520675063133,0.001563695259392262,-0.9958347678184509,0.000152975000673905,-0.0002333010488655418,0.0001214415824506432
1777316388505704960,0.007824202068150043,0.001648464123718441,-0.995945155620575,-7.555809861514717e-05,-8.681968756718561e-05,0.000299051171168685
1777316388515775488,0.007720073219388723,0.001318913302384317,-0.9959995746612549,0.0001174138669739477,-0.0002492650237400085,0.0002176056004827842
1777316388525826560,0.00787621084600687,0.001540667028166354,-0.9959340691566467,0.0001075889231287874,-0.0003357266541570425,0.0004781363531947136
1777316388535858432,0.007832380011677742,0.001342425006441772,-0.9958453774452209,7.662532152608037e-05,-3.263111284468323e-05,0.0002498789690434933
1777316388545870848,0.007664910517632961,0.001527835614979267,-0.9956733584403992,0.0002181163290515542,-3.229202411603183e-05,1.593525666976348e-06
1777316388555863296,0.00795524287968874,0.001741308136843145,-0.9957018494606018,-6.815174856455997e-05,-9.142935596173629e-05,-8.584178431192413e-05
1777316388565836288,0.00789673812687397,0.001882782322354615,-0.9955262541770935,-2.729832704062574e-05,0.0001974570914171636,0.0002132092195097357
1777316388575789824,0.007734557148069143,0.001794414129108191,-0.9955952763557434,5.440444147097878e-05,6.548663805006072e-05,2.051261617452838e-05
1777316388585723392,0.007515771314501762,0.001369386445730925,-0.9956732392311096,-0.0001064754542312585,0.0001461783976992592,-0.0001710863580228761
1777316388595637504,0.0074177086353302,0.001467926078476012,-0.9958879947662354,-0.0003712042234838009,0.0003673241881188005,-5.959783811704256e-05
1777316388605531904,0.00745660113170743,0.001640198170207441,-0.9958958625793457,-0.0005527206230908632,2.13119164982345e-05,0.0001391213154420257
1777316388615407104,0.007510141003876925,0.001753164920955896,-0.9957389235496521,9.869947098195553e-05,-0.0002972183283418417,0.0002616046986076981
1777316388625399808,0.007662609685212374,0.001748818205669522,-0.9959914684295654,9.045936167240143e-06,-0.000579692714381963,0.0002665604988578707
1777316388635510016,0.00767565006390214,0.00161962560378015,-0.9958181977272034,-0.0002781367511488497,-0.0003028264036402106,0.000362427526852116
1777316388645600000,0.00770787987858057,0.001424666028469801,-0.9954946637153625,0.0002049577014986426,-0.0002752259315457195,0.0002690614783205092
1777316388655670016,0.007571645081043243,0.001493511605076492,-0.9954503774642944,0.0001938420173246413,-0.0001696281833574176,-0.0001596290530869737
1777316388665720064,0.007561376318335533,0.001659403555095196,-0.9954830408096313,-1.05723665910773e-06,-8.921990229282528e-05,-0.0001593698398210108
1777316388675750144,0.007536919321864843,0.001710031763650477,-0.9955002069473267,-0.0003203671076335013,-7.668703801755328e-06,-9.898961434373632e-05
1777316388685760768,0.007620146498084068,0.001666507683694363,-0.9956463575363159,-0.0004880219930782914,-0.0001868895487859845,-1.454492667107843e-05
1777316388695751424,0.007558705285191536,0.001434191013686359,-0.9957880973815918,-0.0003038840368390083,-7.560174708487466e-06,-6.231103907339275e-05
1777316388705722112,0.007559206336736679,0.001438782433979213,-0.9956664443016052,-0.0003090983373112977,-8.9075299911201e-05,-0.0004261338908690959
1777316388715673088,0.007621825207024813,0.001389349461533129,-0.9958444833755493,-0.0002900538966059685,-7.274800736922771e-05,0.0001166892325272784
1777316388725604352,0.007557957898825407,0.001520756166428328,-0.9959242343902588,6.022325396770611e-05,-7.228273170767352e-05,0.0001139500527642667
1777316388735515904,0.007479340769350529,0.001557516865432262,-0.996153712272644,7.693526276852936e-05,-0.0002393989416304976,0.0001580496900714934
1777316388745407488,0.007536032702773809,0.001543603604659438,-0.9962089657783508,0.000246995419729501,-0.0002824738330673426,0.0002121434808941558
1777316388755279872,0.00758312176913023,0.001514018629677594,-0.9961394071578979,0.0002877088554669172,-0.0002337398036615923,0.0001833140850067139
1777316388765271296,0.007435163017362356,0.001399830565787852,-0.9959490299224854,0.0006333980127237737,-0.0002499730617273599,0.0001541431847726926
1777316388775381248,0.007442457135766745,0.001521529746241868,-0.9958042502403259,0.0007051537977531552,4.817497028852813e-05,0.0002706883242353797
1777316388785471744,0.007609126623719931,0.001560743781737983,-0.9957798719406128,0.0006191575084812939,-0.000249685428570956,0.0002549195778556168
1777316388795542528,0.007694939617067575,0.001602343516424298,-0.9959059357643127,0.0005150034558027983,-0.0001199992766487412,7.243878644658253e-05
1777316388805593088,0.007741533685475588,0.001555257826112211,-0.9958733916282654,5.798622441943735e-05,-0.0001077070337487385,0.0002923367719631642
1777316388815623680,0.007839947938919067,0.001636140397749841,-0.9955048561096191,-0.0002305177476955578,-3.224593820050359e-05,0.0002847856376320124
1777316388825634560,0.00771529832854867,0.001540206372737885,-0.9957761764526367,-0.0001774017000570893,0.0001836694136727601,0.0003453776589594781
1777316388835625472,0.007653220556676388,0.001549186883494258,-0.9956300258636475,-0.0001030030107358471,0.0001756224664859474,0.0002259354660054669
1777316388845596416,0.007780193816870451,0.001432028715498745,-0.995684802532196,8.598624845035374e-06,0.0003757687809411436,6.43283492536284e-05
1777316388855547648,0.007779351901262999,0.001604821067303419,-0.9957088232040405,-4.263341543264687e-05,0.0001461974752601236,0.0001240689307451248
1777316388865479168,0.007808794267475605,0.001564620761200786,-0.9957029223442078,8.191437518689781e-05,-0.0001696611288934946,0.0002482238051015884
1777316388875390976,0.007548173889517784,0.00146606529597193,-0.9958165287971497,-0.0001979421067517251,-0.0003220375219825655,0.0001427436363883317
1777316388885283584,0.007428540382534266,0.00147003645543009,-0.9959158301353455,-9.582807251717895e-05,-0.0001557664072606713,0.0001486223045503721
1777316388895156224,0.007413591723889112,0.001611710293218493,-0.9961892366409302,-8.07911783340387e-05,-4.530992009676993e-05,8.4818915638607e-05
1777316388905147904,0.007622781675308943,0.001583061879500747,-0.9960640668869019,-7.932967855595052e-05,0.0002184120821766555,-0.0003582274657674134
1777316388915257856,0.007538747042417526,0.001736326608806849,-0.995844304561615,-7.790620293235406e-05,-9.480590233579278e-05,1.949684519786388e-05
1777316388925348352,0.007528811693191528,0.001661665854044259,-0.995870053768158,-0.0004166373400948942,-6.485218182206154e-05,8.290960249723867e-05
1777316388935418880,0.00745993759483099,0.00153723219409585,-0.9957018494606018,-0.00032033771276474,-6.43680032226257e-05,3.627405021688901e-05
1777316388945469184,0.007619522046297789,0.001623010146431625,-0.9958016872406006,-0.0001055403117788956,-0.0001088961653294973,0.0002104444720316678
1777316388955499776,0.007636481896042824,0.001660209964029491,-0.9957214593887329,-0.0002129099739249796,0.0002008477167692035,3.954004205297679e-05
1777316388965510400,0.007908361963927746,0.001405819552019238,-0.9955626726150513,3.848875348921865e-05,0.0003192902368027717,9.698734356788918e-05
1777316388975501056,0.007810025475919247,0.001400859910063446,-0.9957310557365417,0.0001497672783443704,0.0003399392298888415,1.558299118187279e-05
1777316388985471744,0.007370537146925926,0.001280990662053227,-0.9956925511360168,0.0001169481693068519,1.500693178968504e-05,0.000200473063159734
1777316388995423232,0.007413887418806553,0.001421762048266828,-0.9959033727645874,0.0003167364629916847,-0.0001417442108504474,0.0002461100229993463
1777316389005354752,0.007399922236800194,0.001561162061989307,-0.9957829117774963,0.0002185366756748408,-0.0001302517048316076,0.0002283366047777236
1777316389015266816,0.007466381415724754,0.001507431385107338,-0.9959074258804321,0.0002575069374870509,6.825364835094661e-05,0.0001399441534886137
1777316389025159168,0.007693387567996979,0.00146563642192632,-0.9958003163337708,0.0001904558448586613,0.0001065133183146827,0.0001421059423591942
1777316389035031808,0.007695065345615149,0.001666909083724022,-0.9958806037902832,-0.0001032052387017757,0.0001508119312347844,6.008831405779347e-06
1777316389045161728,0.007717858999967575,0.001684058574028313,-0.995877742767334,-8.279902976937592e-05,-2.614408731460571e-05,5.904830322833732e-05
1777316389055271680,0.007760203443467617,0.001584575744345784,-0.9956654906272888,-0.000250626791967079,-4.897358303423971e-05,-3.814548108493909e-07
1777316389065361920,0.007599811069667339,0.001509751076810062,-0.9956763982772827,-0.0001028943370329216,6.366134039126337e-05,0.000142482400406152
1777316389075432192,0.007633908186107874,0.001454000943340361,-0.9954829812049866,-0.0003242712409701198,-0.000207024539122358,0.0002188285870943218
1777316389085482752,0.007572886999696493,0.001516452874056995,-0.9955605268478394,-0.0003994962899014354,-0.0002555405662860721,0.0004298321146052331
1777316389095513600,0.007458691019564867,0.001398571999743581,-0.9956393241882324,-5.466298171086237e-05,-0.0005013415357097983,0.0003358389076311141
1777316389105525504,0.007647749036550522,0.001238947501406074,-0.9956704378128052,-0.0001183020212920383,-0.0006652334122918546,0.0004595390055328608
1777316389115517696,0.007668952457606792,0.001365904579870403,-0.9955483078956604,-9.97676033875905e-05,-0.0004262147122062743,0.0002901119005400687
1777316389125490176,0.007585552986711264,0.001311637810431421,-0.9954835176467896,-0.0001248888147529215,-8.238779264502227e-05,6.858774577267468e-05
1777316389135443200,0.007539277896285057,0.001586033846251667,-0.9955297112464905,0.0002066166489385068,-0.0003561897901818156,4.824625284527428e-05
1777316389145376512,0.007654998917132616,0.001789214322343469,-0.9956567883491516,0.0001074554020306095,-0.0003311988548375666,-0.0001330750819761306
1777316389155290112,0.00766091188415885,0.001882945653051138,-0.9958895444869995,6.773595669073984e-05,-0.0005006458959542215,-8.917319792089984e-05
1777316389165184512,0.007502772379666567,0.001603266689926386,-0.9957809448242188,5.548544140765443e-05,-0.0003374373191036284,2.827313437592238e-05
1777316389175059200,0.007535431999713182,0.001489995629526675,-0.9957140684127808,3.127775198663585e-05,-0.0002711757842916995,-0.000172635045601055
1777316389185188608,0.007822727784514427,0.00149596284609288,-0.9955587387084961,-3.488837683107704e-05,-0.0001275243266718462,-9.287540160585195e-05
1777316389195299328,0.007657691836357117,0.001684398972429335,-0.9955803751945496,-2.847910218406469e-05,-0.0003150102565996349,-9.645570389693603e-05
1777316389205391360,0.007798868231475353,0.001565571175888181,-0.9957910180091858,0.0002532943326514214,-0.0002375915937591344,-0.000242061578319408
1777316389215463424,0.007981587201356888,0.001703437534160912,-0.9957126975059509,-8.879596134647727e-05,-0.0003089139354415238,-0.000148668565088883
1777316389225516032,0.007967783138155937,0.001354041742160916,-0.9958016872406006,9.013716771733016e-05,-0.0002799311769194901,2.276053055538796e-05
1777316389235548672,0.007805964443832636,0.001465114881284535,-0.9956744909286499,0.0001825491490308195,0.0001217581157106906,9.274320473195985e-05
1777316389245562112,0.007480035535991192,0.00156386278104037,-0.9954686164855957,-0.0001237485557794571,-8.031858305912465e-05,0.0001763219042913988
1777316389255556096,0.007622989360243082,0.001584797515533864,-0.9956429004669189,-0.0004393215349409729,-0.0001938699570018798,7.010786794126034e-05
1777316389265530368,0.007679903879761696,0.001605353667400777,-0.9955591559410095,-0.0002923754509538412,-0.0005126180476509035,0.0001102512615034357
1777316389275485440,0.007605635561048985,0.001735329977236688,-0.9955046772956848,-0.0002474366629030555,-0.0002133490925189108,7.913540321169421e-05
1777316389285420800,0.007654712069779634,0.001537990290671587,-0.995695948600769,-0.0002917527162935585,-4.157283183303662e-05,9.994440188165754e-05
1777316389295336448,0.007410145364701748,0.001497875084169209,-0.9958906769752502,0.00018446528702043,-7.743856986053288e-05,-1.290856744162738e-05
1777316389305232896,0.007650108076632023,0.001492004841566086,-0.9958995580673218,0.0004752353706862777,-2.139826756319962e-05,7.049371197354048e-05
1777316389315109632,0.007627574726939201,0.001653021085076034,-0.9955285787582397,0.0002877610095310956,-7.794197153998539e-05,9.458697604713961e-05
1777316389325238528,0.007916360162198544,0.001538436161354184,-0.9957089424133301,6.357810343615711e-05,0.0001197922465507872,-6.314406346064061e-05
1777316389335347456,0.007809019181877375,0.001606712816283107,-0.9959851503372192,3.804832886089571e-05,7.647767051821575e-05,-3.021726479346398e-05
1777316389345436672,0.007623286917805672,0.001392883597873151,-0.9957954287528992,7.434593135258183e-05,0.0002594628895167261,6.182156357681379e-05
1777316389355505664,0.007481982465833426,0.001386753399856389,-0.995708703994751,0.0002109347260557115,0.0002296534803463146,0.000182495525223203
1777316389365555200,0.007497829850763083,0.001445402042008936,-0.9956967830657959,0.0001718355197226629,0.0001251878275070339,0.0002745933597907424
1777316389375585024,0.007792137563228607,0.001434559351764619,-0.9958069920539856,-0.0002805526601150632,-6.006202602293342e-05,0.0004215102235320956
1777316389385594880,0.007752715144306421,0.001413360354490578,-0.9958624839782715,-3.283984551671892e-05,-0.0002303133514942601,0.0003916126443073153
1777316389395585024,0.007735297549515963,0.001677241525612772,-0.9957888722419739,0.0002925573498941958,-0.0002801512600854039,0.0002253724524052814
1777316389405555200,0.007681338116526604,0.001569953747093678,-0.9955828785896301,9.153703285846859e-05,-0.0006025056936778128,0.0001345921191386878
1777316389415506176,0.00766998203471303,0.001405122457072139,-0.9955639243125916,-0.0003960280155297369,-0.0004893109435215592,-0.0002421566314296797
1777316389425437184,0.007740938570350409,0.001591343432664871,-0.995758593082428,-6.903195026097819e-05,-0.0002286284579895437,-0.0003846664912998676
1777316389435348480,0.007793515454977751,0.001659537781961262,-0.9956356883049011,-0.000127906008856371,0.0001058899069903418,-0.0001175544603029266
1777316389445240576,0.007807277608662844,0.001625648932531476,-0.9955699443817139,0.000145824858918786,0.0002177457499783486,-0.0001561481622047722
1777316389455113216,0.007890339009463787,0.001668562996201217,-0.9956749677658081,0.0003696054627653211,0.000238187174545601,-0.0001354773557977751
1777316389465240832,0.007823364809155464,0.001583237550221384,-0.9957080483436584,0.0003446468035690486,-0.0002204290358349681,0.0001042967051034793
1777316389475348736,0.007442428730428219,0.001465010805986822,-0.9957354664802551,0.000434407324064523,0.000186628065421246,0.0001063028175849468
1777316389485436672,0.007602061610668898,0.001550456508994102,-0.9960799813270569,9.839488484431058e-05,0.0002059485414065421,6.727240543114021e-05
1777316389495505152,0.007519541773945093,0.001635953667573631,-0.9956907629966736,0.0001282710873056203,-2.267032141389791e-05,0.0002125637111021206
1777316389505553664,0.007662336342036724,0.001679990906268358,-0.9956172704696655,0.0002278628671774641,0.0002280650660395622,-3.571974229998887e-05
1777316389515582464,0.007637786213308573,0.001729801180772483,-0.9958786964416504,-0.0003075800195802003,0.0003110511461272836,-0.0003452905802987516
1777316389525591296,0.007743485737591982,0.001611523213796318,-0.9960180521011353,-0.0002160423318855464,6.3592720835004e-05,-9.089530976780225e-06
1777316389535580416,0.007769624702632427,0.001453590230084956,-0.995756983757019,0.0001058571506291628,0.0002408576110610738,9.342101111542434e-05
1777316389545549824,0.00774229085072875,0.001605463214218616,-0.9957188367843628,1.806524232961237e-05,0.0003853547386825085,-2.89668605546467e-06
1777316389555499264,0.007608200423419476,0.001987849827855825,-0.9960266351699829,-0.0004606217262335122,0.0001283629244426265,5.497288657352328e-05
1777316389565429248,0.007626607548445463,0.001805796986445785,-0.995835542678833,-0.0002353586605750024,0.0002199551090598106,9.561849583406001e-05
1777316389575340032,0.00758058438077569,0.001712115481495857,-0.995572030544281,-0.0002363382227485999,0.0001213441792060621,0.0002606745983939618
1777316389585230848,0.007598126772791147,0.001570320571772754,-0.9958353042602539,-2.409313310636207e-05,0.0002524954616092145,0.0003245984844397753
1777316389595102208,0.007527120411396027,0.001537869102321565,-0.9958192706108093,0.0003247881832066923,0.000231213605729863,0.0001809727400541306
1777316389605229824,0.007611163426190615,0.001441888860426843,-0.9956311583518982,0.0001644517469685525,-8.174755203071982e-05,7.101956725819036e-05
1777316389615337216,0.00758418021723628,0.001559783006086946,-0.9960194826126099,-0.000130252621602267,-0.0002193520922446623,8.66112022777088e-05
1777316389625424640,0.007450297474861145,0.001608284772373736,-0.9958350658416748,-0.0001267993357032537,-9.883182792691514e-05,-2.898592538258526e-05
1777316389635492096,0.007445225492119789,0.001550199463963509,-0.9955830574035645,-0.0002185454359278083,-0.0001856166345532984,-0.0001075405816663988
1777316389645539584,0.00767520722001791,0.001583657576702535,-0.9959664940834045,8.030419849092141e-05,-1.900662937259767e-05,-2.501229755580425e-05
1777316389655567616,0.007682670373469591,0.001435191952623427,-0.9957892298698425,-0.0002086173044517636,5.613359098788351e-05,-9.511306416243315e-06
1777316389665575424,0.0078323595225811,0.001371691236272454,-0.9956900477409363,-0.0004534909385256469,0.000137761962832883,-6.583395588677377e-07
1777316389675563264,0.007778015919029713,0.001490948721766472,-0.9957535862922668,-0.000284415582427755,-0.0002961943973787129,-0.0001094933249987662
1777316389685531648,0.007695042993873358,0.001495633507147431,-0.9957849979400635,-8.596430416218936e-05,-0.0001864818332251161,-2.87505317828618e-05
1777316389695480064,0.007618491537868977,0.001565708080306649,-0.9958171844482422,-6.836702959844843e-05,0.0002812213206198066,9.711530583444983e-05
1777316389705408512,0.007544474210590124,0.001551247551105917,-0.9958242774009705,2.212663093814626e-05,-0.0002423268160782754,3.195040335413069e-05
1777316389715317760,0.00748508470132947,0.001358008943498135,-0.9959365725517273,8.737630560062826e-05,-0.0002743861987255514,-3.639545320766047e-05
1777316389725207296,0.007438677363097668,0.001403260510414839,-0.9958006739616394,-0.0001525271218270063,-0.000139055831823498,-9.939735900843516e-05
1777316389735076864,0.007582631427794695,0.001394596532918513,-0.9960107803344727,-0.0005965576274320483,-0.0002547166077420115,2.823591421474703e-05
1777316389745204224,0.007687182631343603,0.001645397045649588,-0.9959168434143066,-0.000339859863743186,-4.43579992861487e-05,0.0001920229406096041
1777316389755311360,0.007730428595095873,0.001542923389934003,-0.9959371089935303,-5.423243419500068e-05,-4.269579221727327e-06,-6.322264380287379e-05
1777316389765398784,0.007728954777121544,0.001324063981883228,-0.9960404634475708,0.0001810159592423588,3.167922841385007e-05,-0.0001218976467498578
1777316389775465984,0.007663906086236238,0.001391231548041105,-0.9959766268730164,-0.0002671611728146672,-9.533697448205203e-05,-1.849349064286798e-05
1777316389785513216,0.007507706992328167,0.001441593514755368,-0.9957462549209595,-0.0001389708340866491,-0.0003069281810894608,-3.415430546738207e-05
1777316389795540736,0.00759629113599658,0.001513455528765917,-0.9960666298866272,0.0002059246035059914,-6.404590385500342e-05,0.0001802240294637159
1777316389805548288,0.007647237274795771,0.001533776405267417,-0.995812714099884,0.0003547574742697179,-5.086529563413933e-05,0.0001169166644103825
1777316389815536384,0.007639439776539803,0.001682843081653118,-0.9959390759468079,0.0003240060177631676,0.0002339141938136891,0.0002496526576578617
1777316389825505280,0.00771208293735981,0.001474623219110072,-0.9959144592285156,0.0005407092976383865,4.404380160849541e-05,-2.012536788242869e-05
1777316389835454720,0.007731457240879536,0.001427769893780351,-0.9956663250923157,9.398149995831773e-05,0.0001022841461235657,1.727275957819074e-07
1777316389845384448,0.007612537126988173,0.001482064370065928,-0.9956221580505371,8.604784670751542e-05,0.0002255605795653537,0.0001232121867360547
1777316389855294720,0.007647116202861071,0.001695050392299891,-0.9957789182662964,1.217527824337594e-05,-0.000114249240141362,-0.0003070399106945843
1777316389865185280,0.007728580385446548,0.001527756452560425,-0.9958310723304749,-0.0003439863794483244,-2.263965143356472e-06,-0.0001819677127059549
1777316389875056640,0.007706013042479753,0.001524393795989454,-0.9957319498062134,6.683354149572551e-05,0.0001061776201822795,-0.0001335219130851328
1777316389885183488,0.007744847796857357,0.001429621013812721,-0.9960813522338867,0.0002944970037788153,0.0003421574947424233,-3.389950870769098e-05
1777316389895290624,0.007772909477353096,0.001206832122988999,-0.9958814382553101,0.0003341709088999778,0.0004855422885157168,-5.152598532731645e-05
1777316389905377536,0.007683545351028442,0.001470889081247151,-0.9956346154212952,1.098102802643552e-05,0.0002586886985227466,0.0001538244978291914
1777316389915445248,0.007635639514774084,0.001612012158147991,-0.9957493543624878,6.25606335233897e-05,0.0001735954720061272,9.537352889310569e-05
1777316389925493248,0.007896891795098782,0.001703595160506666,-0.9956409931182861,0.0002369977883063257,0.000176346002263017,1.970636731130071e-05
1777316389935521536,0.007721789181232452,0.001450328272767365,-0.9954473376274109,0.0005973906954750419,0.0002165647310903296,-4.045073728775606e-05
1777316389945530368,0.00778625626116991,0.001473089563660324,-0.9957323670387268,0.0004293678211979568,-8.097050886135548e-05,1.928405617945828e-05
1777316389955520512,0.007547910325229168,0.001425763010047376,-0.9956851005554199,0.0002836548665072769,0.0002695271978154778,-0.0001419913314748555
1777316389965491200,0.007669940125197172,0.001435714191757143,-0.9957153797149658,-4.786937643075362e-05,0.0001557266805320978,-0.0002566812327131629
1777316389975442432,0.007675357162952423,0.001605153433047235,-0.9956416487693787,0.0001808937086025253,-2.913191929110326e-05,-0.0001140004242188297
1777316389985374208,0.007675586268305779,0.001633190549910069,-0.9955247640609741,-8.145412721205503e-05,-8.018167136469856e-06,-0.0001114458136726171
1777316389995286784,0.007762915920466185,0.001552854082547128,-0.9955893754959106,-0.0002034805074799806,0.0002713723224587739,-0.0003248799475841224
1777316390005179904,0.007772762794047594,0.001379730761982501,-0.9957885146141052,7.39233655622229e-05,0.0003990721015725285,-0.0002676139411050826
1777316390015053824,0.0077526462264359,0.001329999067820609,-0.9959536194801331,0.0002080984995700419,0.0001598962116986513,-0.0001721966982586309
1777316390025180160,0.007755638565868139,0.001368511584587395,-0.995926558971405,0.0001395516737829894,-9.517253783997148e-05,-9.314002090832219e-05
1777316390035287040,0.007634534500539303,0.001628659083507955,-0.9958727359771729,0.0002431640750728548,0.0002675399300642312,8.947790047386661e-05
1777316390045373696,0.007582803256809711,0.00178787496406585,-0.9960108399391174,0.0006042309105396271,-7.636469672434032e-05,5.179353320272639e-05
1777316390055441152,0.007496035657823086,0.001737696467898786,-0.9959028959274292,0.0002714286965783685,-0.0001020357594825327,0.0001386161748087034
1777316390065489152,0.007756553590297699,0.001727466238662601,-0.9958070516586304,1.512613744125701e-05,-0.0001161202017101459,0.0002374816394876689
1777316390075517440,0.00760242436081171,0.001496730954386294,-0.9958407282829285,-4.81476126878988e-05,-0.000104140053736046,0.000327676854794845
1777316390085526272,0.007676145993173122,0.001410581287927926,-0.995610773563385,8.936571248341352e-05,2.230453537777066e-05,0.0001967154967132956
1777316390095515392,0.007570390589535236,0.001693963073194027,-0.9956912398338318,-4.176209404249676e-05,-0.0001854746660683304,0.0001234500086866319
1777316390105485568,0.007559556514024734,0.001433939090929925,-0.9957674145698547,-4.085324326297268e-05,-2.255342405987903e-05,0.0001295070396736264
1777316390115436800,0.007711091544479132,0.001583307515829802,-0.9958335757255554,-0.000146391976159066,0.0002110693167196587,0.0001241255959030241
1777316390125368832,0.007750004529953003,0.001665341202169657,-0.9959672689437866,-9.721914830151945e-05,4.747758066514507e-05,-0.0002121260622516274
1777316390135281408,0.007451308891177177,0.001627825200557709,-0.9957640767097473,-2.052604395430535e-05,-0.0001645426527829841,-3.236498741898686e-05
1777316390145174528,0.00751328794285655,0.001680353656411171,-0.9959447979927063,7.981235103216022e-05,-0.0003109462559223175,-3.455505066085607e-05
1777316390155048704,0.007536507211625576,0.001758974161930382,-0.9959717988967896,0.0001596578513272107,-0.0003390049969311804,-0.0001651158963795751
1777316390165174784,0.007505536545068026,0.001793687464669347,-0.9957780241966248,0.0002622174506541342,-7.837614975869656e-05,-0.0001574017805978656
1777316390175281152,0.007740198168903589,0.001746160094626248,-0.9958482384681702,0.0001192788986372761,0.0001342803589068353,-0.0001135744387283921
1777316390185367296,0.00775945046916604,0.001670922501944005,-0.9957654476165771,-3.977886080974713e-06,0.0002421583194518462,6.149560795165598e-05
1777316390195433728,0.007664595730602741,0.00178300472907722,-0.9956990480422974,3.298871160950512e-05,-0.0001328321814071387,3.477600694168359e-05
1777316390205480192,0.007599679287523031,0.001624859520234168,-0.9956740140914917,8.062220877036452e-05,-1.830310975492466e-05,0.0001338080764980987
1777316390215506944,0.007761492859572172,0.001727432594634593,-0.9959085583686829,0.0001731967349769548,9.97661700239405e-05,0.0001775232667569071
1777316390225513728,0.007759705185890198,0.001775806420482695,-0.9959534406661987,4.712470399681479e-05,2.7172573027201e-05,7.416338121402077e-06
1777316390235500544,0.007672951556742191,0.001603152602910995,-0.9957143068313599,0.0001406151422997937,-2.803984534693882e-05,2.571443474153057e-05
1777316390245467904,0.007368996273726225,0.001453010365366936,-0.9955513477325439,0.0001342203177046031,0.0003221376973669976,-6.515028871945105e-07
1777316390255415296,0.007310840301215649,0.001534953014925122,-0.9956605434417725,0.000193840591236949,4.249029370839708e-05,-0.0002269683900522068
1777316390265342720,0.007604045793414116,0.001336437650024891,-0.9956255555152893,0.0002000778913497925,-6.562093767570332e-05,-0.0002582755405455828
1777316390275250688,0.007460162509232759,0.001771304523572326,-0.9956769347190857,0.0001840445620473474,1.195510503748665e-05,-0.0001072172526619397
1777316390285138944,0.007476898841559887,0.001776449964381754,-0.9957758188247681,4.919208367937244e-05,7.800335879437625e-07,-1.106072522816248e-05
1777316390295008256,0.007425562012940645,0.00178621057420969,-0.9957309365272522,-8.051776967477053e-05,0.0001838772732298821,9.063511242857203e-05
1777316390305134592,0.007571132853627205,0.00156483007594943,-0.9956135749816895,7.187192386481911e-05,0.0005439651431515813,0.0002197990397689864
1777316390315240704,0.007687465287744999,0.001526707201264799,-0.9958202838897705,-9.057039278559387e-05,0.000614141346886754,0.0002235654392279685
1777316390325327104,0.007759806700050831,0.001286275684833527,-0.9955284595489502,-0.0001016253590933047,0.0001405297662131488,0.0001534945185994729
1777316390335393792,0.007780726067721844,0.001463230350054801,-0.995807409286499,1.220701960846782e-06,-3.535286305123009e-05,0.0001394225546391681
1777316390345441280,0.007791236974298954,0.00170260586310178,-0.9957723617553711,-0.0001309705257881433,0.0001035613677231595,0.0001825906365411356
1777316390355468800,0.007839221507310867,0.001776481396518648,-0.9958076477050781,-0.000194594293134287,-0.0001747641072142869,-6.793325155740604e-07
1777316390365476608,0.007741788402199745,0.001467030844651163,-0.9956048130989075,-0.0006335544167086482,-5.470369069371372e-05,5.121817957842723e-05
1777316390375464704,0.007893841713666916,0.00171326519921422,-0.9954912662506104,-0.0006145342485979199,-0.0002888869203161448,-0.0002971362555399537
1777316390385433344,0.007670794147998095,0.001691438490524888,-0.9956772923469543,-0.000377227202989161,-0.0003414756502024829,-0.0002052500931313261
1777316390395382272,0.007693462073802948,0.001531540416181087,-0.9955540895462036,-0.0002230655809398741,-7.904427184257656e-05,6.158289033919573e-05
1777316390405312000,0.007598831783980131,0.001423848792910576,-0.9955908060073853,-0.0002982214500661939,-3.581678538466804e-05,0.0001720122527331114
1777316390415222016,0.00760362297296524,0.00130405998788774,-0.995812714099884,-0.0002937301178462803,0.0001363477640552446,0.0002225218049716204
1777316390425112576,0.00783925224095583,0.001561179175041616,-0.9958236813545227,-7.586679566884413e-05,-0.0001144571433542296,8.459483797196299e-05
1777316390434983680,0.007827827706933022,0.00165646686218679,-0.9957323670387268,0.0002099485864164308,-0.0001138813095167279,0.0003360263654030859
1777316390445108736,0.007883254438638687,0.001603903481736779,-0.9959824681282043,0.0005275837029330432,-5.293378853821196e-05,0.0004081976949237287
1777316390455214080,0.00786223541945219,0.001726276241242886,-0.99605792760849,0.0007026401581242681,-0.0002479656250216067,0.0002380861260462552
1777316390465299712,0.007795727346092463,0.001493375981226563,-0.9963116049766541,0.0004595002392306924,-0.0002903749700635672,0.0003207499685231596
1777316390475365632,0.007606469560414553,0.00143683678470552,-0.9962554574012756,0.0002593860845081508,0.0001700323482509702,0.0001749955117702484
1777316390485411584,0.007739102002233267,0.001357021508738399,-0.9959414601325989,0.0003462332824710757,0.0002200598682975397,0.0001645570155233145
1777316390495438080,0.007730962242931128,0.001357738743536174,-0.995866596698761,0.0003755464276764542,0.0001275693211937323,8.323423389811069e-05
1777316390505444864,0.007713476661592722,0.001118159852921963,-0.9959363341331482,0.0002462471020407975,-2.576569022494368e-05,7.9732621088624e-05
1777316390515431936,0.00758689921349287,0.001536317518912256,-0.9960660934448242,0.0004266305186320096,0.0001063642121152952,0.0001138189181801863
1777316390525399040,0.007672938983887434,0.001522553851827979,-0.996058464050293,0.0005972891813144088,4.677694232668728e-05,0.0001464532251702622
1777316390535346688,0.007762941531836987,0.001599363749846816,-0.9958037137985229,0.0005839771474711597,-0.0003311011241748929,0.0001190762413898483
1777316390545274624,0.007767237722873688,0.001400542096234858,-0.9956116676330566,0.0002857063082046807,-0.0003188374103046954,0.000184244621777907
1777316390555184640,0.007596562150865793,0.001546036102809012,-0.9954916834831238,0.0002530849887989461,-0.0004622738342732191,-4.096658813068643e-05
1777316390565075200,0.007786190137267113,0.001715721446089447,-0.9957216382026672,0.0004147153231315315,-0.0001087276614271104,1.498240089858882e-05
1777316390574946304,0.007785232271999121,0.001577703864313662,-0.9955698251724243,0.0001300407020607963,-7.170523167587817e-05,0.0002760990464594215
1777316390585070592,0.007699454668909311,0.001613423344679177,-0.9957858920097351,-0.0001528426655568182,4.735280163004063e-05,0.0005695931031368673
1777316390595174912,0.007527373731136322,0.001583318691700697,-0.9958020448684692,-0.0004677744291257113,-0.0001142045730375685,0.0004185608122497797
1777316390605259264,0.007486465852707624,0.001352770486846566,-0.9955769777297974,-0.0001411629928043112,4.551343590719625e-05,0.0002753974695224315
1777316390615323904,0.007644123863428831,0.001317505841143429,-0.995627224445343,-0.0002876906364690512,-0.0002150734362658113,0.0002362919185543433
1777316390625368576,0.007476437371224165,0.001180754974484444,-0.9958456754684448,-0.0004078575584571809,-0.0003912487009074539,-2.749035047600046e-05
1777316390635393280,0.00772060127928853,0.001244895858690143,-0.9959973096847534,-0.0001633411156944931,-0.0002306385431438684,0.0002275128208566457
1777316390645398016,0.007699632085859776,0.00139804626815021,-0.995879054069519,-0.0001816799776861444,-4.148340303800069e-05,0.0002054971409961581
1777316390655383040,0.007791826035827398,0.001587697537615895,-0.9959830641746521,0.0001568666775710881,0.000106952058558818,3.091065445914865e-05
1777316390665348608,0.007640250492841005,0.001488228677771986,-0.9960456490516663,7.954798638820648e-05,-0.0001265085302293301,4.36605369031895e-05
1777316390675294464,0.007634904701262712,0.001550752785988152,-0.9957680702209473,-0.0001326551719103009,-0.0002600523876026273,0.000133966765133664
1777316390685220864,0.007579256314784288,0.001585316145792603,-0.9958324432373047,-8.449293090961874e-06,-0.0001311808591708541,-5.77150312892627e-05
1777316390695127808,0.007734324317425489,0.001573098474182189,-0.9958363771438599,0.0002192633546655998,-0.0001710825599730015,-1.988588701351546e-05
1777316390705016064,0.007723962888121605,0.001457012142054737,-0.9959506988525391,-0.0001098269276553765,7.503259985242039e-05,-6.784661673009396e-05
1777316390715022848,0.00757961580529809,0.001596819027327001,-0.9958086609840393,8.577217522542924e-05,-5.96696263528429e-05,1.185208566312212e-05
1777316390725146880,0.007482300046831369,0.001401123474352062,-0.9959062933921814,0.0001307646598434076,-0.0001018942130031064,4.26617480115965e-05
1777316390735250944,0.007322240155190229,0.00159195379819721,-0.9958029985427856,0.000401086377678439,-0.0002308593830093741,0.0001009989719022997
1777316390745335296,0.007686796132475138,0.001855434034951031,-0.9961455464363098,-8.959100523497909e-05,-0.0002252983540529385,-2.498752655810677e-05
1777316390755399936,0.007558476179838181,0.001773015828803182,-0.9960072040557861,5.362090087146498e-05,-0.0002190385275753215,2.062313069473021e-05
1777316390765445120,0.00736992945894599,0.001643314142711461,-0.9959671497344971,-0.0001488054404035211,-0.000385344319511205,0.000190244143595919
1777316390775470592,0.007342511788010597,0.001545884413644671,-0.9959895610809326,-4.288566196919419e-05,-5.626679921988398e-05,0.0001403249334543943
1777316390785476096,0.007498238235712051,0.001503936713561416,-0.9957659840583801,1.843395511968993e-05,4.872450517723337e-05,1.137133403972257e-05
1777316390795462144,0.007707221433520317,0.001617187168449163,-0.9956532120704651,1.146869908552617e-05,-1.006877937470563e-05,-1.711422009975649e-05
1777316390805428736,0.007609367836266756,0.001668401644565165,-0.9958940148353577,0.0001507924753241241,-0.0001411261328030378,9.565716027282178e-05
1777316390815375616,0.007656261790543795,0.001554453046992421,-0.996009349822998,3.075814311159775e-05,-6.314706843113527e-05,0.000377996067982167
1777316390825303040,0.007800077088177204,0.001398837775923312,-0.9958919286727905,1.821787918743212e-05,-0.0001805048814276233,0.0001054751264746301
1777316390835211264,0.007735892664641142,0.001313073327764869,-0.9957490563392639,1.178270031232387e-05,-0.0002239267050754279,0.0002294766309205443
1777316390845099776,0.007834500633180141,0.001420067274011672,-0.9957852959632874,-3.670484147733077e-05,-0.0002316410100320354,0.000412360968766734
1777316390855106304,0.007698772940784693,0.00148527673445642,-0.9958904981613159,-1.73023363458924e-05,2.210619277320802e-05,0.0003270777524448931
1777316390865229824,0.007591070607304573,0.001663496368564665,-0.9955651760101318,2.490557744749822e-05,1.999257438001223e-05,0.0003573741414584219
1777316390875333120,0.007680163718760014,0.001736556529067457,-0.9957860112190247,5.867281288374215e-06,-0.0001965396222658455,0.0002920491097029299
1777316390885416448,0.007702629081904888,0.001618086360394955,-0.9960342049598694,0.0002522773866076022,-3.490653398330323e-05,0.0003164286026731133
1777316390895479808,0.00767295528203249,0.001482572522945702,-0.9960154891014099,0.000192371808225289,-0.0003560882178135216,0.0002496466913726181
1777316390905523712,0.007446462754160166,0.001551342196762562,-0.9957955479621887,7.221207488328218e-05,3.344115248182788e-05,0.0001992567849811167
1777316390915547648,0.007519178558140993,0.001540507189929485,-0.9958000183105469,2.510404738131911e-05,-0.0006007359479553998,0.0003691986203193665
1777316390925551616,0.007714260835200548,0.001479268656112254,-0.9956773519515991,-0.0001980827946681529,-0.0003262409009039402,0.0002969736815430224
1777316390935536128,0.007822981104254723,0.001458785030990839,-0.995887815952301,-0.0001970653393073007,-0.0002357240446144715,0.0001960700901690871
1777316390945500672,0.007505425717681646,0.001437602215446532,-0.9959831833839417,0.0001944011601153761,-9.281932580051944e-05,1.766663990565576e-05
1777316390955445248,0.00759791536256671,0.001411658246070147,-0.995817244052887,-3.203544838470407e-05,-0.0002338604826945812,-2.649283487698995e-05
1777316390965370368,0.00770152360200882,0.001607068115845323,-0.9957872629165649,-8.373395758098923e-06,-0.0003370027407072484,-3.604700759751722e-05
1777316390975275776,0.007767748553305864,0.001718719489872456,-0.9957940578460693,0.0002207228390034288,0.0001085833209799603,0.000151620275573805
1777316390985161472,0.007715200539678335,0.001636523171328008,-0.9957651495933533,0.0002557869884185493,-0.0002818517968989909,0.0002781593939289451
1777316390995165952,0.007827308960258961,0.001639271387830377,-0.9957089424133301,0.0006078704609535635,-7.185468712123111e-05,0.0003210535505786538
1777316391005289216,0.007758026942610741,0.001478408579714596,-0.995724081993103,0.0002310890849912539,6.807003956055269e-05,0.0003551033732946962
1777316391015392512,0.007586788851767778,0.001385716372169554,-0.995787501335144,0.0001261242287000641,0.000144857243867591,0.0004021887143608183
1777316391025475840,0.007485642563551664,0.00164907390717417,-0.9957287907600403,0.000325344706652686,4.299342981539667e-05,0.0003720516979228705
1777316391035539968,0.007565286010503769,0.001488448120653629,-0.9955980181694031,0.0001579353556735441,0.0001895387831609696,0.0002043253189185634
1777316391045584384,0.007708459161221981,0.00122753088362515,-0.9958298206329346,0.000268360658083111,7.069861567288171e-06,-2.433409099467099e-05
1777316391055609344,0.007742470595985651,0.001400866080075502,-0.9957314133644104,-0.0003495010314509273,-0.0001209945185109973,0.0001041971700033173
1777316391065614592,0.008038489148020744,0.001509921276010573,-0.9956156611442566,-9.300004421675112e-06,-0.0001763676991686225,-4.893563527730294e-05
1777316391075599872,0.008092277683317661,0.001453476957976818,-0.9955847859382629,2.991590190504212e-05,-0.0002484304422978312,-6.232591840671375e-05
1777316391085565696,0.00778531888499856,0.001602335250936449,-0.9957705140113831,0.0002047649031737819,-0.000191454091691412,5.804369357065298e-05
1777316391095511808,0.00780412508174777,0.001522573409602046,-0.9958333969116211,0.0003327098966110498,-0.0002219344605691731,0.0001666865573497489
1777316391105438464,0.007765884511172771,0.001461069798097014,-0.9955971240997314,0.0004084660031367093,-0.0003978942695539445,0.0001223491999553517
1777316391115345408,0.007736593019217253,0.001214393181726336,-0.9955902099609375,0.0001396203006152064,-4.821858601644635e-05,0.0001804262865334749
1777316391125233408,0.007807628717273474,0.001320974202826619,-0.9956623911857605,0.0001307096390519291,-0.0002087494358420372,-2.479880276951008e-05
1777316391135238912,0.007655113935470581,0.001173484255559742,-0.99573814868927,6.710189336445183e-05,-8.541362331015989e-05,7.066012767609209e-05
1777316391145361664,0.007569227367639542,0.001393638784065843,-0.9957922697067261,0.0001432046265108511,0.0002874050114769489,0.0003804763837251812
1777316391155464448,0.007625236641615629,0.001243293634615839,-0.9957731366157532,-0.0001128261210396886,0.0003760619729291648,9.828876500250772e-06
1777316391165547520,0.007547301240265369,0.001398805761709809,-0.9957982897758484,0.0001801476319087669,0.0001273600646527484,2.706075247260742e-05
1777316391175610624,0.007489582523703575,0.001137404702603817,-0.9957030415534973,0.0005766548565588892,-0.0001558207004563883,0.0002477703965269029
1777316391185654784,0.007443564012646675,0.001337980036623776,-0.995922327041626,0.0004909810377284884,-0.0002475533692631871,0.0001716440892778337
1777316391195679232,0.007603412494063377,0.001546157989650965,-0.995832622051239,0.0003348284517414868,-0.000339155230903998,0.0001586982543813065
1777316391205684224,0.007568967994302511,0.001736447564326227,-0.9956468939781189,0.0006071992102079093,-0.0002308224502485245,6.195983587531373e-05
1777316391215669760,0.00752746406942606,0.001566137769259512,-0.9955905675888062,0.0008234863635152578,-5.727039388148114e-05,0.000214560772292316
1777316391225635840,0.007539554033428431,0.001478980178944767,-0.9954575300216675,0.0001811517868191004,-3.098316301475279e-05,0.0003275054623372853
1777316391235582208,0.00766645185649395,0.001230269204825163,-0.9956336617469788,0.0001962538517545909,-2.037337617366575e-05,0.0002828104188665748
1777316391245509120,0.007484820671379566,0.001128950389102101,-0.9955519437789917,0.0003031959640793502,2.745029632933438e-05,-2.14550964301452e-05
1777316391255417088,0.007614976726472378,0.00125459220726043,-0.9956117868423462,0.0003744428104255348,-0.0001060529830283485,5.777276237495244e-05
1777316391265306112,0.00761083560064435,0.001516114338301122,-0.9954321980476379,0.0004743890895042568,-0.0001096975393011235,-0.0002355213655391708
1777316391275312128,0.00742236664518714,0.001453589065931737,-0.9957149624824524,0.000485278433188796,-0.0001600824325578287,-0.0002041539410129189
1777316391285433856,0.007484897505491972,0.001346301753073931,-0.9957954287528992,0.0002348495181649923,0.0001588457089383155,-0.0001901226787595078
1777316391295536128,0.007476446218788624,0.001455982215702534,-0.9957193732261658,0.0004324034380260855,-0.000400965625885874,-0.0001209480469697155
1777316391305618688,0.007649440318346024,0.001393529819324613,-0.9955205917358398,0.0003490273957140744,-0.0001113279577111825,-2.907981797761749e-05
1777316391315681280,0.007672086823731661,0.001340844784863293,-0.9955851435661316,-0.0001670761121204123,-5.96043755649589e-05,-1.837499439716339e-06
1777316391325725696,0.00776753993704915,0.001679981825873256,-0.9958895444869995,4.589233867591247e-05,8.91695381142199e-05,0.0004448588297236711
1777316391335750400,0.007712786551564932,0.001647876459173858,-0.9957864880561829,-0.000142715682159178,-0.0001364788040518761,0.0004488429112825543
1777316391345755648,0.007697735447436571,0.00151587079744786,-0.9959162473678589,-0.0001735425903461874,0.0001731435040710494,0.0004288870841264725
1777316391355741184,0.007560917641967535,0.001360671478323638,-0.9959990978240967,-9.304111154051498e-05,0.000103875354398042,0.0003983368223998696
1777316391365707520,0.007613117340952158,0.001419990556314588,-0.9957289099693298,5.762535147368908e-05,9.835288437898271e-06,0.0003781929844990373
1777316391375654144,0.007525552064180374,0.001589779392816126,-0.9957403540611267,0.0001912845182232559,3.101293987128884e-05,0.0002706995001062751
1777316391385581056,0.007586978375911713,0.001716310041956604,-0.9955941438674927,-3.377199027454481e-05,8.087758033070713e-05,0.0001772363029886037
1777316391395488768,0.007446290925145149,0.001846389262937009,-0.9956954121589661,-6.064337867428549e-05,0.0001709449716145173,5.592128582065925e-05
1777316391405377792,0.007375251967459917,0.0016763856401667,-0.9958969950675964,-5.206247806199826e-05,6.169821426738054e-05,-0.0001278502750210464
1777316391415382784,0.007333486340939999,0.001782403094694018,-0.9957782030105591,-0.0001073903986252844,-0.0001411831908626482,-2.605889312690124e-05
1777316391425503488,0.007631127256900072,0.001609578961506486,-0.9960342049598694,0.0004708228225354105,9.282185783376917e-05,0.0001054444510373287
1777316391435604736,0.007561800070106983,0.001542230136692524,-0.99605393409729,0.0003631127474363893,-0.0003852540103252977,9.748924640007317e-05
1777316391445685760,0.007618577685207129,0.001577896880917251,-0.9960459470748901,0.0001982687099371105,-0.0002525833551771939,9.836706158239394e-05
1777316391455747072,0.007723309565335512,0.001465822686441243,-0.9960250854492188,-0.0001358819718006998,-0.0004109031287953258,0.0001398198073729873
1777316391465788672,0.007927854545414448,0.00143634807318449,-0.9959781169891357,-3.988233947893605e-05,-0.0005710509140044451,0.0001614658249309286
1777316391475810816,0.007763171568512917,0.001594383618794382,-0.9958627820014954,0.0002646133943926543,-0.0004602539120242,0.0002737856120802462
1777316391485813248,0.007514250464737415,0.001499322359450161,-0.9957595467567444,0.000236354855587706,-0.0002482840791344643,9.953122207662091e-05
1777316391495795712,0.007628511637449265,0.001601710100658238,-0.9956826567649841,0.0001040023562381975,4.228989200782962e-05,0.0001471214927732944
1777316391505758720,0.007496087811887264,0.001846144441515207,-0.9956540465354919,7.996086787898093e-05,1.961153429874685e-05,-0.0001432124117854983
1777316391515702528,0.007582628168165684,0.001726823858916759,-0.9958625435829163,-4.907796210318338e-06,6.772628694307059e-05,-0.0001070366051862948
1777316391525626880,0.007803527638316154,0.001620533410459757,-0.9958892464637756,-5.156231054570526e-05,-9.887360647553578e-05,-9.194991434924304e-07
1777316391535531264,0.007843874394893646,0.001599778770469129,-0.9957074522972107,3.876797563862056e-06,-7.949171413201839e-05,0.0001133771293098107
1777316391545416448,0.007687452249228954,0.001620568917132914,-0.9956167936325073,4.61981471744366e-07,-0.0001882592478068545,0.0005713005666621029
1777316391555419648,0.007568283937871456,0.00152119342237711,-0.9954912066459656,2.482824493199587e-05,-0.0005665931385010481,0.000341918901540339
1777316391565540352,0.007554186042398214,0.001581578282639384,-0.9956108331680298,0.0002483454300090671,-0.0003545799700077623,0.0001014078297885135
1777316391575641088,0.00772527139633894,0.001755376346409321,-0.9959195256233215,0.0002446940343361348,-5.881102333660237e-05,0.0002242795017082244
1777316391585721856,0.007573234383016825,0.001792407245375216,-0.9959856271743774,-4.701767829828896e-05,-0.0001092002930818126,6.049547664588317e-05
1777316391595783424,0.007499707862734795,0.001726977410726249,-0.996103823184967,-0.0001105795090552419,-0.0001091034864657559,9.310852328781039e-05
1777316391605825280,0.007573483511805534,0.001601036870852113,-0.9960770606994629,-0.0002223363262601197,-0.0002845768176484853,1.717258783173747e-05
1777316391615847680,0.007425912655889988,0.00163485121447593,-0.9959964752197266,0.0002189050137531012,-0.0003318358212709427,0.0001133946934714913
1777316391625850368,0.007480718661099672,0.001866273581981659,-0.9957581162452698,4.1902058001142e-06,-0.0002756492758635432,0.0002674957213457674
1777316391635833600,0.007674555294215679,0.001858884352259338,-0.9956049919128418,0.0001888370316009969,-7.162718975450844e-05,-0.000125015911180526
1777316391645797888,0.00786599051207304,0.001747037749737501,-0.9956421256065369,-5.386644261307083e-05,-9.270334703614935e-05,1.72780710272491e-05
1777316391655742720,0.007798145525157452,0.001597444177605212,-0.9957123398780823,-0.0001083036404452287,-0.0001390593533869833,-3.529811147018336e-05
1777316391665668096,0.007563241757452488,0.001501780468970537,-0.9956670999526978,9.749165474204347e-05,-4.191748303128406e-05,0.0001168152593891136
1777316391675574016,0.007461105473339558,0.001566138584166765,-0.9955695271492004,-5.799629070679657e-05,-0.0003693648031912744,0.00018847115279641
1777316391685461504,0.007721700705587864,0.001760210259817541,-0.9957264065742493,-3.434387326706201e-05,-0.0002336616453249007,0.0001483299129176885
1777316391695465984,0.007670487277209759,0.001934075145982206,-0.9959784746170044,-0.0002935435622930527,-0.0003987127565778792,-6.937934085726738e-05
1777316391705585664,0.007590364199131727,0.001812117407098413,-0.9958156943321228,-5.260287707642419e-06,-6.050550291547552e-05,7.753965473966673e-05
1777316391715685888,0.007617815863341093,0.001653045415878296,-0.9957581162452698,-1.960070949280635e-05,-0.0001890589337563142,8.029905984585639e-06
1777316391725765888,0.007573164068162441,0.001311996136792004,-0.9954357743263245,2.534808663767762e-05,-0.0002145386824849993,-0.0001575180212967098
1777316391735826432,0.007600977551192045,0.001385993673466146,-0.9954880475997925,-2.752370346570387e-05,2.320207386219408e-05,5.549824345507659e-05
1777316391745867776,0.007879562675952911,0.001576494774781168,-0.995561420917511,0.0002520529087632895,-0.000189164697076194,3.232769086025655e-05
1777316391755889664,0.007998665794730186,0.00148947024717927,-0.9958908557891846,0.0003310141328256577,-0.0001915829780045897,-6.814341759309173e-05
1777316391765891584,0.007812877185642719,0.001387242460623384,-0.9957735538482666,0.0001966380514204502,-4.158796218689531e-05,2.364441752433777e-05
1777316391775874304,0.007884868420660496,0.001663368078880012,-0.9958852529525757,0.000108405489299912,-0.0001079714929801412,5.912163760513067e-05
1777316391785837312,0.007703689858317375,0.001635051798075438,-0.9958309531211853,0.0002679256140254438,-0.0001564182457514107,-4.770639498019591e-05
1777316391795781120,0.007411975413560867,0.00181273662019521,-0.9959989190101624,0.0002096374228131026,-0.0003348493773955852,-5.738126128562726e-05
1777316391805705472,0.007597058080136776,0.001880268682725728,-0.9960694909095764,-2.323936132597737e-05,-0.0003363928699400276,2.235655301774386e-05
1777316391815610624,0.007591395173221827,0.001781377359293401,-0.9959942698478699,9.873672752291895e-06,1.464460729039274e-05,-5.026700819144025e-05
1777316391825496320,0.00764180812984705,0.001476560602895916,-0.9957948923110962,-0.0002421437966404483,-0.0002440485404804349,-2.053546631941572e-05
1777316391835500032,0.007434383034706116,0.001578945782966912,-0.9958569407463074,6.889886572025716e-05,-0.0001602433039806783,-0.0001900726201711223
1777316391845619712,0.007261062972247601,0.001688181539066136,-0.9956135749816895,0.0002992311492562294,-0.0004151726607233286,-5.597637573373504e-05
1777316391855719424,0.007332786917686462,0.001700860913842916,-0.995857298374176,6.714018672937527e-05,-0.0002547132025938481,4.782645555678755e-05
1777316391865799168,0.00754841510206461,0.001735946047119796,-0.9956893920898438,0.0001505057734902948,-0.0002113325608661398,-0.0001037071415339597
1777316391875859712,0.007601864635944366,0.001810144865885377,-0.9957165122032166,-9.719055015011691e-06,-0.0004147806612309068,-4.736799382953905e-06
1777316391885900800,0.007557675708085299,0.00157261872664094,-0.9956828355789185,6.22129809926264e-05,-3.188634218531661e-05,0.0002836448838934302
1777316391895922432,0.007579224184155464,0.001479048398323357,-0.9956302046775818,-0.0004426456871442497,0.0002325417735846713,3.191149153281003e-05
1777316391905923840,0.007572098635137081,0.00144849787466228,-0.9956845045089722,-5.293681533657946e-05,0.0001398216554662213,0.0001014233857858926
1777316391915905792,0.007535808254033327,0.001527645625174046,-0.9958194494247437,0.0001376283616991714,-7.864921644795686e-05,0.0001090147852664813
1777316391925868288,0.007847607135772705,0.001661535119637847,-0.9956039786338806,0.0002928315661847591,0.0001469105773139745,-5.34690625499934e-05
1777316391935811072,0.007935753092169762,0.001861211378127337,-0.9957454204559326,0.0004332587122917175,0.0001757583522703499,5.897610753891058e-05
1777316391945734400,0.007781099062412977,0.001636331318877637,-0.9959099888801575,0.000281426589936018,-0.0002551202196627855,7.13699046173133e-05
1777316391955638528,0.007746355142444372,0.001661977614276111,-0.9958507418632507,0.0002868437441065907,-2.859003143385053e-05,0.0001226774911629036
1777316391965523456,0.007612626068294048,0.001582091092132032,-0.9956473112106323,0.0005000018863938749,-0.0001351703831460327,6.490414671134204e-05
1777316391975525632,0.007317130919545889,0.001729329815134406,-0.9956340193748474,0.0002480791590642184,-0.0002493674983270466,0.000165991616086103
1777316391985644288,0.007741415873169899,0.001681414898484945,-0.9956693053245544,0.000554718601051718,-0.0002117858966812491,-3.809764530160464e-05
1777316391995743488,0.007865623570978642,0.001682347268797457,-0.9957491755485535,0.0004140715464018285,-0.0001292357337661088,7.142317190300673e-05
1777316392005822208,0.007917447946965694,0.001522042555734515,-0.9955925345420837,0.000335865595843643,-7.195955549832433e-05,2.171574851672631e-05
1777316392015880960,0.007893108762800694,0.001395476050674915,-0.9955422282218933,0.0001132955367211252,-0.0003063761978410184,6.217182999534998e-06
1777316392025920000,0.007947918027639389,0.001407915493473411,-0.9956353306770325,-0.0001792237890185788,0.0001271606743102893,5.305678496370092e-05
1777316392035939584,0.007792534772306681,0.001325691933743656,-0.9957549571990967,6.482098251581192e-05,0.0002142033335985616,5.729935219278559e-05
1777316392045939200,0.007844025269150734,0.001431200420483947,-0.9957637786865234,-0.0001844436337705702,-3.701119203469716e-05,-3.727032890310511e-06
1777316392055918848,0.007760648149996996,0.001666347612626851,-0.9959022402763367,0.0001404112845193595,-5.394718391471542e-05,-9.919749572873116e-07
1777316392065879040,0.007834658958017826,0.001576655078679323,-0.9957491755485535,8.254862041212618e-05,-0.0001419615000486374,-0.0001948768622241914
1777316392075819264,0.007625854574143887,0.001745491055771708,-0.9957564473152161,-0.0001804680796340108,2.157663584512193e-05,-0.0001677268592175096
1777316392085739520,0.00760118942707777,0.001575410948134959,-0.9958301782608032,-0.000178270012838766,-0.0001280498981941491,-0.0001072526429197751
1777316392095640320,0.007483846973627806,0.001480218954384327,-0.9957486987113953,5.337069160304964e-05,-0.0001962375827133656,-8.055078069446608e-05
1777316392105521664,0.007554151583462954,0.001468918402679265,-0.9958138465881348,0.0002593895769678056,-0.000105138256913051,1.498818346590269e-05
1777316392115521536,0.007499939762055874,0.001532359048724174,-0.9957051873207092,0.0002062020066659898,-1.809164677979425e-05,5.094589141663164e-06
1777316392125640192,0.007695830427110195,0.001471341005526483,-0.9956328868865967,0.0002427142317174003,-7.335082773352042e-05,-9.013005183078349e-05
1777316392135739392,0.007648142520338297,0.001421828405000269,-0.995789110660553,0.000194482272490859,-0.0001927812118083239,8.109222835628316e-05
1777316392145818880,0.007629575673490763,0.001402102177962661,-0.9957621097564697,2.899451465054881e-05,-9.233561286237091e-05,1.693839658400975e-05
1777316392155878656,0.007502432446926832,0.001347914105281234,-0.996033251285553,-2.314619996468537e-05,-0.0004159781383350492,2.467299054842442e-05
1777316392165918464,0.00765656866133213,0.00150193995796144,-0.9961606860160828,0.0002546884934417903,-0.0002329535345779732,4.230119157000445e-05
1777316392175938560,0.007568154484033585,0.001529616652987897,-0.9961192607879639,0.0001033794032991864,-0.0002295480662724003,0.0002489777398295701
1777316392185939200,0.007603302132338285,0.00156149675603956,-0.995578944683075,-8.210229862015694e-05,-0.0005705297226086259,8.456473733531311e-05
1777316392195919872,0.007526753004640341,0.001437655533663929,-0.9955074191093445,-0.0001219509431393817,-0.0004515319596976042,8.735600567888469e-05
1777316392205881344,0.00762272858992219,0.001358927809633315,-0.9957432746887207,0.0002364757092436776,-0.0003975300642196089,8.330557466251776e-05
1777316392215823616,0.007601203396916389,0.001521476544439793,-0.995832622051239,5.955235246801749e-05,-0.0003782809362746775,5.39423990630894e-06
1777316392225746176,0.007572055328637362,0.001584056648425758,-0.9957855343818665,4.953115421812981e-06,-0.0001036939502228051,0.0001218884863192216
1777316392235649280,0.007797339931130409,0.001516927964985371,-0.9958758354187012,0.0002094741357723251,0.0001399070170009509,0.0002900531690102071
1777316392245533184,0.007835858501493931,0.001451865420676768,-0.9957959055900574,0.000221446025534533,1.562153192935511e-05,-5.449392119771801e-06
1777316392255534336,0.007672044914215803,0.001594007131643593,-0.9955991506576538,0.0002936449600383639,-5.71332493564114e-05,-8.113082003546879e-05
1777316392265652736,0.007436392828822136,0.001780715887434781,-0.9955471158027649,0.0005054372595623136,-5.58861720492132e-05,2.296758248121478e-05
1777316392275751424,0.007531784474849701,0.001698297914117575,-0.9954967498779297,0.0001863180514192209,-0.0001838559546740726,8.373770833713934e-05
1777316392285830400,0.007455886341631413,0.001847840379923582,-0.9956663250923157,0.0001592432963661849,-0.0001855423470260575,-0.0001510640431661159
1777316392295889408,0.007713047321885824,0.001672293175943196,-0.9957967400550842,0.0001210074551636353,-7.079023635014892e-05,-0.0001025241799652576
1777316392305930240,0.0077445306815207,0.001602577976882458,-0.9956099390983582,-0.0001558559015393257,-9.600819612387568e-05,-0.0002611352829262614
1777316392315951104,0.007809674832969904,0.0013760004658252,-0.9957327842712402,-0.0001348777877865359,5.078723188489676e-05,5.682240589521825e-05
1777316392325952768,0.007786082569509745,0.00146833376493305,-0.9958466291427612,0.0001912725274451077,-5.404239709605463e-05,0.0003282422840129584
1777316392335934464,0.007795817218720913,0.00145437172614038,-0.9960805773735046,7.144966366467997e-05,-0.0001351116079604253,0.0004184296994935721
1777316392345896704,0.00776700908318162,0.001459562452509999,-0.9958578944206238,-0.0001773501135176048,3.083975752815604e-05,0.0004841666086576879
1777316392355839488,0.007717748638242483,0.001578412367962301,-0.9960072636604309,2.298784238519147e-05,-4.840652400162071e-05,0.000219625566387549
1777316392365762304,0.007631678599864244,0.001651115017011762,-0.9958800077438354,-0.0002259282045997679,0.0003193672455381602,0.0003640577488113195
1777316392375665920,0.007919788360595703,0.001573332934640348,-0.9957839846611023,-0.0001250692002940923,0.00030750289442949,0.0004533096798695624
1777316392385550336,0.007700385991483927,0.001627917634323239,-0.9957796335220337,-0.0002112882357323542,-4.025662201456726e-05,0.0004573210899252445
1777316392395547904,0.007638121489435434,0.001429342082701623,-0.9958099126815796,2.438137016724795e-06,8.634975529275835e-05,0.0002314125595148653
1777316392405658112,0.007626008708029985,0.00144359574187547,-0.996058464050293,0.000202162453206256,0.000231081765377894,0.0001301470620092005
1777316392415748352,0.007605585269629955,0.001664498122408986,-0.9958875775337219,6.34219468338415e-05,0.0002410306915408,0.0001011718122754246
1777316392425818624,0.007733136881142855,0.001486448920331895,-0.9957283139228821,0.0002322207728866488,-0.0001985238632187247,0.0001911333529278636
1777316392435868672,0.007540796417742968,0.001452819327823818,-0.9958124160766602,0.0003132323327008635,-0.0003633266314864159,6.490288069471717e-05
1777316392445899264,0.007508673239499331,0.001632883097045124,-0.9958221316337585,0.0003941964532714337,-0.0001090801233658567,4.916462785331532e-05
1777316392455910400,0.007420153822749853,0.00166218017693609,-0.9958646893501282,-0.0001262806035811082,7.555368938483298e-05,-3.079603629885241e-06
1777316392465901568,0.007528324145823717,0.001683996757492423,-0.9957890510559082,-6.404114537872374e-05,9.281757229473442e-07,3.01528416457586e-07
1777316392475872768,0.007577618584036827,0.001632443047128618,-0.99582439661026,-0.0002124910679413006,-5.732139106839895e-05,-0.0002098042314173654
1777316392485824512,0.007707886397838593,0.001585389603860676,-0.9957310557365417,-8.982935105450451e-05,0.0001644261355977505,-0.0001298064598813653
1777316392495756288,0.00763003621250391,0.001581692136824131,-0.995846152305603,0.0001648217439651489,-6.986201333347708e-05,0.0001395203871652484
1777316392505668352,0.007864858023822308,0.001483983360230923,-0.9958059191703796,6.999839388299733e-05,-1.798550511011854e-05,-0.0001527443673694506
1777316392515560960,0.007476527709513903,0.001682616421021521,-0.9959784746170044,0.0001023850563797168,-0.0001385236100759357,-0.0001898170303320512
1777316392525433856,0.007613447029143572,0.001724102883599699,-0.9957700967788696,4.034199082525447e-05,-0.0002307383110746741,-0.0001062325100065209
1777316392535425280,0.007700051181018353,0.001796720782294869,-0.99570232629776,8.014015475055203e-05,4.146291030338034e-05,-0.0001443270011804998
1777316392545534720,0.007674824446439743,0.001654501189477742,-0.9956058859825134,0.0001681291032582521,0.0001608527090866119,-0.0001379936875309795
1777316392555624704,0.007597718853503466,0.001492964802309871,-0.995760440826416,0.000170648709172383,0.0001454351149732247,-0.0002107393374899402
1777316392565694720,0.007566498126834631,0.001597400987520814,-0.9956797361373901,0.0004384873027447611,-0.0001015847956296057,-6.295973435044289e-05
1777316392575745280,0.007590243127197027,0.001802651444450021,-0.9957889318466187,0.0003670424921438098,0.0001433835568604991,-8.513511420460418e-05
1777316392585776128,0.007424548733979464,0.001522394013591111,-0.9957786202430725,4.532168168225326e-05,-0.0001852366112871096,5.86599089729134e-05
1777316392595787520,0.007493964862078428,0.001493419287726283,-0.9955779910087585,-0.0001318042195634916,-9.60756151471287e-05,7.499727507820353e-05
1777316392605778944,0.007774258032441139,0.001286255777813494,-0.9956678152084351,2.388275788689498e-05,-0.0001818018208723515,0.0001339249720331281
1777316392615751424,0.007782131899148226,0.001319849281571805,-0.9955665469169617,-0.0002253535931231454,3.286036371719092e-05,0.0002235981228295714
1777316392625704960,0.0078074736520648,0.001588731305673718,-0.9955966472625732,-0.0001174275603261776,0.0002699538017623127,0.0002257824089610949
1777316392635639040,0.007863658480346203,0.001703154179267585,-0.9955257773399353,-0.0002843927941285074,-0.0002237178850919008,-0.0001332150131929666
1777316392645553408,0.007661934476345778,0.001781326485797763,-0.9956113696098328,-0.0003828336484730244,-0.0002230897371191531,-9.702048555482179e-05
1777316392655448320,0.007574777584522963,0.001707027433440089,-0.9956048130989075,-0.0002167258498957381,-8.289167453767732e-05,-8.877924119587988e-05
1777316392665324032,0.007788020651787519,0.001532282331027091,-0.9954281449317932,4.941202132613398e-05,5.930039696977474e-05,0.0001228774053743109
1777316392675452928,0.007708330173045397,0.001507655484601855,-0.9955388903617859,0.0001926123222801834,-6.139549077488482e-05,2.523564398870803e-05
1777316392685561856,0.007734502665698528,0.001387616619467735,-0.9957329630851746,3.184906017850153e-05,-0.0001339098234893754,0.000137179740704596
1777316392695650560,0.007850600406527519,0.001326360506936908,-0.9957467913627625,8.769849227974191e-05,-0.0001714409881969914,0.000148300445289351
1777316392705719040,0.007911366410553455,0.001253055059351027,-0.9959114789962769,8.377073390875012e-05,-0.000422951445216313,0.0003114532446488738
1777316392715768064,0.007673897780478001,0.001166961505077779,-0.9959684610366821,0.0002759600756689906,-0.0005053255008533597,0.0001357445726171136
1777316392725797376,0.007726599927991629,0.001159396837465465,-0.9960535168647766,5.368038546293974e-05,-0.0002896234509535134,0.0002303955552633852
1777316392735807232,0.007624271791428328,0.001421295688487589,-0.995924174785614,9.50606627156958e-05,-7.099105278030038e-05,0.0001969323493540287
1777316392745797120,0.007486340589821339,0.001482508960179985,-0.9958583116531372,0.0005970427882857621,-0.0001393980201100931,0.0002599230501800776
1777316392755767552,0.007537216879427433,0.001641618786379695,-0.9957413077354431,0.0005164814065210521,1.477710975450464e-05,8.269320096587762e-05
1777316392765718016,0.007780440151691437,0.00166782911401242,-0.9956493973731995,0.0003654033353086561,-0.0001822225167416036,-8.821657502267044e-06
1777316392775649024,0.007658926770091057,0.001688312506303191,-0.9958496689796448,0.0001837489398894832,7.526921399403363e-05,-0.0001400159380864352
1777316392785560320,0.007550438400357962,0.001599185983650386,-0.9955419898033142,7.906324754003435e-06,0.0001721740409266204,7.069974526530132e-05
1777316392795451904,0.007721737027168274,0.001583292498253286,-0.9954203963279724,0.0002963835140690207,0.0001512356684543192,-4.059950151713565e-05
1777316392805324032,0.007742620538920164,0.001705775503069162,-0.9955993890762329,-1.220100239152089e-05,1.344495103694499e-05,2.640794991748407e-05
1777316392815452928,0.007680685725063086,0.001455701771192253,-0.995698094367981,-3.666998964035884e-05,-0.0002119709679391235,0.0001356350840069354
1777316392825561344,0.007650328800082207,0.001553540234453976,-0.9954888820648193,-5.165047332411632e-05,5.767194670625031e-05,0.0002399776712991297
1777316392835650304,0.007678786292672157,0.001483138767071068,-0.9957162737846375,-1.815889118006453e-05,-0.0001891798310680315,0.0001663164002820849
1777316392845719040,0.007758020423352718,0.001429061405360699,-0.995621919631958,-3.008953353855759e-05,-0.0002019754756474867,3.123515489278361e-05
1777316392855768064,0.007618133910000324,0.001358558423817158,-0.9957278966903687,2.046197914751247e-05,-0.0004450957349035889,-1.779828016879037e-05
1777316392865797120,0.007666597608476877,0.001268097665160894,-0.9958407878875732,-0.0005478824605233967,-0.0001546333660371602,-4.074190655956045e-05
1777316392875806464,0.00774875283241272,0.00157996523194015,-0.9958024024963379,-0.0002717643510550261,-7.970612205099314e-05,-9.999432222684845e-06
1777316392885795840,0.007606534287333488,0.001754448632709682,-0.9957581162452698,-0.0001590108004165813,7.253835065057501e-05,3.140565240755677e-06
1777316392895765248,0.007503247354179621,0.001862649107351899,-0.9958323240280151,-0.0004331557138357311,-3.715312413987704e-05,1.059828719007783e-05
1777316392905715200,0.007569968234747648,0.001540278666652739,-0.9957787394523621,-0.0005391965387389064,5.710074765374884e-05,5.967997276457027e-05
1777316392915645696,0.007658759597688913,0.001297882059589028,-0.9956763982772827,-4.558577347779647e-05,-0.0002658977755345404,9.72954003373161e-05
1777316392925557760,0.007632244378328323,0.001389762037433684,-0.9958668351173401,-5.272101770970039e-05,-0.0006050249794498086,0.0003926722565665841
1777316392935450368,0.007685783319175243,0.001513668335974216,-0.9958651661872864,8.85004410520196e-05,-0.0005796704790554941,0.0004453470464795828
1777316392945323008,0.007621506694704294,0.001492121024057269,-0.9959300756454468,0.0001224119914695621,-0.0002707072417251766,0.0003072500694543123
1777316392955451392,0.007748325355350971,0.001477507757954299,-0.9957994818687439,1.860865449998528e-05,-0.000191512139281258,0.0001957503991434351
1777316392965559808,0.007625103928148746,0.001408380456268787,-0.9956205487251282,9.648862760514021e-05,0.0002672152186278254,8.834725304041058e-05
1777316392975649024,0.007535398472100496,0.001651928061619401,-0.9957500696182251,0.0004162871045991778,0.0003845937899313867,7.867428212193772e-05
1777316392985718528,0.007675019558519125,0.00158280786126852,-0.9957154989242554,0.0002710924600251019,0.0004729382053483278,0.0001750209048623219
1777316392995768064,0.00751145463436842,0.00178657949436456,-0.9958539009094238,0.0001437474566046149,-0.000167974183568731,0.0001489135902374983
1777316393005798144,0.007472324185073376,0.001785380765795708,-0.9956679344177246,-4.579512096825056e-05,-0.0001531774905743077,-1.574390080349986e-05
1777316393015808768,0.007529708556830883,0.001475613680668175,-0.9956606030464172,-5.9813930420205e-05,-4.692593938671052e-05,-0.0001548664295114577
1777316393025799680,0.007659339811652899,0.001339294482022524,-0.9955704808235168,-0.0002265820512548089,0.000107144020148553,-0.0001096644191420637
1777316393035770880,0.007633325178176165,0.001154288067482412,-0.9956570863723755,0.0001010483247227967,-4.538045322988182e-05,-0.0001461478532291949
1777316393045722368,0.007534318137913942,0.00138337048701942,-0.9957976937294006,0.0003594929294195026,-4.179291863692924e-05,5.920312105445191e-05
1777316393055654656,0.007893927395343781,0.001455119578167796,-0.9958229660987854,0.0003620811039581895,-0.0001469092385377735,9.675096953287721e-05
1777316393065567488,0.00775638222694397,0.001507526729255915,-0.9958240985870361,0.0002152732049580663,-7.524301327066496e-05,-4.960090518579818e-05
1777316393075461888,0.007497540209442377,0.001412933575920761,-0.9956514239311218,0.0003033214015886188,-1.86297002073843e-05,-0.000293433724436909
1777316393085337600,0.007560926023870707,0.001449531526304781,-0.995472252368927,0.0002589941141195595,-9.020077413879335e-05,-3.90620953112375e-05
1777316393095465472,0.007508206646889448,0.001308760838583112,-0.9955049753189087,0.0001313325046794489,-5.804785541840829e-05,-3.595453017624095e-05
1777316393105573632,0.007511819712817669,0.00130548351444304,-0.995587170124054,-1.95190696103964e-05,0.0001255633833352476,0.0001151099277194589
1777316393115661824,0.007426801603287458,0.001439211657270789,-0.9958897233009338,5.301315468386747e-05,0.000385063816793263,7.41918120183982e-05
1777316393125730560,0.007704447954893112,0.001455150311812758,-0.9957152009010315,4.001345223514363e-05,0.0003854460373986512,0.0002751691499724984
1777316393135779840,0.007803571876138449,0.001372313243336976,-0.9957693219184875,0.0001991955650737509,0.0001794265699572861,7.678933616261929e-05
1777316393145809408,0.007786911446601152,0.001493785646744072,-0.9959121942520142,0.0001053673840942793,-0.0001461067149648443,-4.189705578028224e-06
1777316393155819776,0.007769005373120308,0.00158903724513948,-0.9958493709564209,0.0001520393416285515,-0.0001943560782819986,3.654168176581152e-05
1777316393165810432,0.007524149958044291,0.00178187433630228,-0.995958685874939,0.0002730268170125782,-0.0003271824098192155,0.0002027659356826916
1777316393175781632,0.007566639687865973,0.001797112287022173,-0.9957922697067261,0.0001769256487023085,-0.0002245328068966046,3.900016599800438e-05
1777316393185734144,0.007562003564089537,0.001744986744597554,-0.9958691000938416,0.0003317419032100588,-0.0002380372025072575,0.0001160231331596151
1777316393195666944,0.007742757443338633,0.001799902296625078,-0.9961294531822205,0.0001028141705319285,0.0002758211339823902,4.787810394191183e-05
1777316393205580544,0.007551547139883041,0.001583490869961679,-0.9957940578460693,0.0003857950796373188,0.0003862941230181605,6.161288183648139e-05
1777316393215474432,0.007590640801936388,0.001420917105861008,-0.9957099556922913,0.000315094948746264,0.0001808917295420542,0.0001083374372683465
1777316393225349120,0.007639606017619371,0.001548594445921481,-0.9957625865936279,0.0001512947346782312,0.0002436399227008224,0.0002220975584350526
1777316393235476480,0.007332540582865477,0.001703110290691257,-0.9958539009094238,-7.771839591441676e-05,-0.0001701675064396113,0.000328452413668856
1777316393245584128,0.007546879351139069,0.001342093572020531,-0.9956566095352173,-0.0002767785626929253,7.711238868068904e-05,8.848852303344756e-05
1777316393255672320,0.007735476829111576,0.001180504565127194,-0.9954080581665039,5.113412407808937e-05,3.732090044650249e-05,0.0002000042586587369
1777316393265740544,0.007635492365807295,0.001179351704195142,-0.9957290291786194,-4.011753117083572e-05,-4.467023973120376e-05,6.320823740679771e-05
1777316393275789312,0.007504495792090893,0.001522667240351439,-0.9957175850868225,0.0002727677347138524,0.0001978528744075447,0.0001348578371107578
1777316393285818368,0.007679133675992489,0.001733283046633005,-0.9955270290374756,0.000453652668511495,-0.0002251332625746727,0.0001291484222747386
1777316393295827456,0.007623020093888044,0.001553446869365871,-0.9957242012023926,0.0001058217894751579,-0.0003399052075110376,5.542915459955111e-05
1777316393305817088,0.007571191061288118,0.001636518049053848,-0.9957326054573059,0.0002906285808421671,-0.0001432091667084023,4.47677775810007e-05
1777316393315786752,0.007599680684506893,0.001452843891456723,-0.9955452084541321,0.0004389657406136394,-4.258575063431635e-05,-0.0002363334206165746
1777316393325736960,0.007602337282150984,0.001585221849381924,-0.9956237077713013,0.0002947256143670529,-1.791647264326457e-05,-2.430238964734599e-06
1777316393335667456,0.007339161820709705,0.001704583526588976,-0.9959098100662231,-6.308560841716826e-05,-9.596184827387333e-05,0.0001548153813928366
1777316393345578496,0.007397660054266453,0.001557379495352507,-0.9957537651062012,7.602445839438587e-05,-0.0003796214004978538,0.0003582934732548892
1777316393355470080,0.007486823946237564,0.001623344724066556,-0.9957483410835266,6.126156222308055e-05,-0.000265420792857185,0.0003397345426492393
1777316393365341952,0.007454699371010065,0.001636595698073506,-0.9958845973014832,0.0001101745656342246,-0.000114755894173868,0.0001216599630424753
1777316393375468800,0.00778233865275979,0.001472218777053058,-0.9957081079483032,0.0004079237696714699,-0.0002565266622696072,0.0003859115822706372
1777316393385576192,0.007546075154095888,0.001484191510826349,-0.9959111213684082,0.0003728474548552185,-0.0003067783545702696,0.0004090166767127812
1777316393395663104,0.007544482126832008,0.001449246890842915,-0.9959136843681335,0.0005694894935004413,-0.0003388241748325527,0.0003133413847535849
1777316393405730560,0.007567550987005234,0.001623276039026678,-0.9959740042686462,0.0005464899586513638,-0.0002058011741610244,0.0002139129937859252
1777316393415777792,0.007586357649415731,0.001730100135318935,-0.9959740042686462,0.0003947625518776476,-0.0002376583870500326,0.0001574183261254802
1777316393425804800,0.007467257790267467,0.001692093443125486,-0.9959996342658997,0.000105886378150899,-0.0003217331250198185,0.0003139243926852942
1777316393435812096,0.00738664111122489,0.001627556979656219,-0.9955076575279236,5.918629176449031e-05,-0.0001356683351332322,0.0002627187932375818
1777316393445799680,0.007415623869746923,0.001469536335207522,-0.9956515431404114,0.0001994721387745813,-0.0001009456100291573,0.0001718578423606232
1777316393455767296,0.007550666574388742,0.0016258645337075,-0.9957479238510132,0.0002480979601386935,-0.0003200373612344265,-4.089408321306109e-06
1777316393465714944,0.007461839821189642,0.001739356783218682,-0.9956490993499756,0.0001381098554702476,-0.0002402363606961444,0.0002188332873629406
1777316393475643136,0.007796853315085173,0.001815062714740634,-0.9958254098892212,-6.559588655363768e-06,-0.0002810688165482134,0.0001859331241576001
1777316393485551616,0.007907898165285587,0.001822404330596328,-0.9958369135856628,-7.331660890486091e-05,-0.0002625105262268335,6.885016773594543e-06
1777316393495440896,0.007812870666384697,0.001531346351839602,-0.9958383440971375,-5.254648931440897e-05,-8.052728662732989e-05,-6.944249616935849e-05
1777316393505310976,0.007662754505872726,0.001641720067709684,-0.9957529306411743,-9.417475666850805e-05,-0.0003235995245631784,-0.0001302588934777305
1777316393515437568,0.007674290332943201,0.00151011988054961,-0.9956050515174866,-1.321531999565195e-05,-0.0004263778682798147,-0.0001578049996169284
1777316393525544448,0.007797338999807835,0.001572315930388868,-0.9957830309867859,0.0003172246215399355,-0.0002038547972915694,-8.626762428320944e-05
1777316393535631360,0.007815979421138763,0.001378777087666094,-0.9959667325019836,0.0004092738381586969,-5.669671008945443e-05,0.0003278960939496756
1777316393545698304,0.007563794497400522,0.001706666545942426,-0.9959526062011719,-5.238302037469111e-05,-4.534638719633222e-05,0.0003967256634496152
1777316393555746816,0.007764209061861038,0.001458233571611345,-0.9956011772155762,-0.0002294126461492851,-7.165081569837639e-06,0.0004377375007607043
1777316393565775616,0.007573765236884356,0.001511721638962626,-0.9956520795822144,-0.0004519994545262307,3.898402792401612e-05,0.0003104645002167672
1777316393575784960,0.007718170527368784,0.001547997700981796,-0.9958202838897705,7.027580431895331e-05,-0.0003627126279752702,0.0001349491649307311
1777316393585774848,0.007823868654668331,0.001786570181138813,-0.9959443211555481,-0.0002004332200158387,-0.0001947819837369025,8.485929356538691e-06
1777316393595745536,0.00750218890607357,0.001672891317866743,-0.9958597421646118,-0.0002114571107085794,-0.0001670107012614608,0.0001944811665453017
1777316393605696768,0.007735390216112137,0.00147241773083806,-0.9958376884460449,-0.0002505133743397892,-0.0002589705109130591,9.87768144113943e-05
1777316393615628288,0.00779306422919035,0.00137655867729336,-0.9957790970802307,-0.0003254736657254398,2.530228084651753e-05,1.802780025172979e-05
1777316393625540352,0.007890152744948864,0.001583331264555454,-0.9959589242935181,-0.0001087337441276759,2.297263563377783e-05,-6.633861630689353e-05
1777316393635433728,0.007535950280725956,0.001532156020402908,-0.995849072933197,-0.0001569403830217198,0.0001624450087547302,-2.980401404784061e-05
1777316393645307904,0.007561817299574614,0.00135652010794729,-0.9959356784820557,-0.0002792766608763486,0.0002531766949687153,-5.555408279178664e-06
