Time,GPS_ts,fGPS_ts,scaledAccelX,scaledAccelY,scaledAccelZ,deltaVelX,deltaVelY,deltaVelZ,estLinearAccelX,estLinearAccelY,estLinearAccelZ,estLinearAccel:valid,estAngularRateX,estAngularRateY,estAngularRateZ,estAngularRate:valid,estGravityX,estGravityY,estGravityZ,estGravity:valid,flag
1778107864413,   905.711,   905.711, 0.013192, 0.032989,-0.995165, 0.000026, 0.000066,-0.001990,-0.003299, 0.003863, 0.041309,1, 0.001612,-0.001034, 0.000173,1,-0.132665,-0.319637, 9.800542,1,0
1778107864413,   905.716,   905.715, 0.013710, 0.032978,-0.995789, 0.000028, 0.000066,-0.001992, 0.001115, 0.003440, 0.037720,1, 0.001323,-0.000681,-0.000671,1,-0.132619,-0.319545, 9.800546,1,0
1778107864413,   905.721,   905.721, 0.013157, 0.033346,-0.995904, 0.000026, 0.000067,-0.001992,-0.003594, 0.007560, 0.034064,1, 0.001993, 0.000598, 0.000336,1,-0.132623,-0.319436, 9.800549,1,0
1778107864413,   905.726,   905.725, 0.012903, 0.033264,-0.995044, 0.000026, 0.000067,-0.001990,-0.006490, 0.003516, 0.040113,1, 0.002937, 0.000631,-0.001226,1,-0.132650,-0.319336, 9.800551,1,0
1778107864413,   905.731,   905.730, 0.013673, 0.033370,-0.995375, 0.000027, 0.000067,-0.001991, 0.001439, 0.008037, 0.039263,1, 0.002440, 0.000178, 0.000269,1,-0.132648,-0.319201, 9.800556,1,0
1778107864413,   905.736,   905.735, 0.013225, 0.033589,-0.994989, 0.000027, 0.000067,-0.001990,-0.001093, 0.014552, 0.043693,1, 0.002704,-0.000887, 0.001141,1,-0.132623,-0.319126, 9.800559,1,0
1778107864413,   905.740,   905.740, 0.013022, 0.033470,-0.994981, 0.000026, 0.000067,-0.001990,-0.004882, 0.009239, 0.043130,1, 0.002676,-0.001253, 0.000007,1,-0.132580,-0.318974, 9.800565,1,0
1778107864413,   905.745,   905.745, 0.012540, 0.033579,-0.995584, 0.000025, 0.000067,-0.001991,-0.009588, 0.010446, 0.037228,1, 0.004032, 0.000053, 0.000958,1,-0.132562,-0.318830, 9.800570,1,0
1778107864413,   905.749,   905.749, 0.013233, 0.033479,-0.994884, 0.000026, 0.000067,-0.001990,-0.002764, 0.009581, 0.044088,1, 0.001812,-0.000691,-0.001092,1,-0.132533,-0.318724, 9.800573,1,0
1778107864413,   905.755,   905.755, 0.013319, 0.032602,-0.995607, 0.000027, 0.000065,-0.001991,-0.001901, 0.001133, 0.037010,1, 0.002800,-0.000527,-0.000559,1,-0.132514,-0.318565, 9.800579,1,0
1778107864413,   905.758,   905.757, 0.013512, 0.033375,-0.996422, 0.000027, 0.000067,-0.001993,-0.003278, 0.007980, 0.036214,1, 0.003193,-0.000092, 0.000383,1,-0.132509,-0.318496, 9.800581,1,0
1778107864419,   915.459,   915.459, 0.011808, 0.025817,-0.996373, 0.000024, 0.000052,-0.001993,-0.014046, 0.026134, 0.032080,1,-0.001860, 0.000174, 0.000120,1,-0.129846,-0.227060, 9.803161,1,0
1778107864429,   915.464,   915.463, 0.011443, 0.027087,-0.996009, 0.000023, 0.000054,-0.001992,-0.015646, 0.038603, 0.038296,1,-0.001698, 0.001015, 0.000356,1,-0.129872,-0.227115, 9.803160,1,0
1778107864440,   915.468,   915.467, 0.011167, 0.027101,-0.994654, 0.000022, 0.000054,-0.001989,-0.019402, 0.038134, 0.042195,1, 0.000521,-0.000086,-0.000565,1,-0.129863,-0.227096, 9.803160,1,0
1778107864451,   915.473,   915.473, 0.011353, 0.026499,-0.994235, 0.000023, 0.000053,-0.001989,-0.018553, 0.032773, 0.053040,1, 0.000775, 0.000660, 0.000422,1,-0.129897,-0.227088, 9.803160,1,0
1778107864462,   915.478,   915.477, 0.011566, 0.026351,-0.994564, 0.000023, 0.000052,-0.001989,-0.017830, 0.035487, 0.051606,1, 0.001139, 0.000427, 0.000657,1,-0.129909,-0.227057, 9.803161,1,0
1778107864472,   915.482,   915.482, 0.011309, 0.027363,-0.994616, 0.000023, 0.000055,-0.001989,-0.019058, 0.041297, 0.049312,1,-0.000366, 0.000392,-0.000196,1,-0.129967,-0.227040, 9.803160,1,0
1778107864483,   915.487,   915.487, 0.012930, 0.026948,-0.994981, 0.000026, 0.000054,-0.001990,-0.003157, 0.037235, 0.045733,1, 0.000877,-0.000315,-0.000941,1,-0.129956,-0.227030, 9.803161,1,0
1778107864494,   915.492,   915.491, 0.011679, 0.025723,-0.994542, 0.000023, 0.000051,-0.001989,-0.012290, 0.018900, 0.046264,1, 0.001581, 0.000238,-0.000191,1,-0.129944,-0.226965, 9.803162,1,0
1778107864505,   915.496,   915.496, 0.012588, 0.025522,-0.996804, 0.000025, 0.000051,-0.001994,-0.006526, 0.023356, 0.027854,1, 0.002445, 0.000213,-0.001090,1,-0.129971,-0.226915, 9.803163,1,0
1778107864515,   915.501,   915.501, 0.013115, 0.024910,-0.997461, 0.000026, 0.000050,-0.001995,-0.001364, 0.017481, 0.021414,1, 0.003625, 0.000827,-0.000826,1,-0.129986,-0.226781, 9.803165,1,0
1778107864526,   915.506,   915.505, 0.010995, 0.024036,-0.996042, 0.000022, 0.000048,-0.001992,-0.019748, 0.012347, 0.031762,1, 0.002248,-0.000555,-0.000670,1,-0.129981,-0.226674, 9.803168,1,0
1778107864537,   915.510,   915.510, 0.011937, 0.023783,-0.997149, 0.000024, 0.000048,-0.001994,-0.012927, 0.006671, 0.024481,1, 0.002753, 0.000220,-0.000380,1,-0.129990,-0.226548, 9.803171,1,0
1778107864548,   915.515,   915.515, 0.012512, 0.024330,-0.997733, 0.000025, 0.000049,-0.001995,-0.007286, 0.012153, 0.018754,1, 0.003257,-0.000410,-0.000138,1,-0.129982,-0.226425, 9.803174,1,0
1778107864558,   915.520,   915.519, 0.010883, 0.024846,-0.995078, 0.000021, 0.000050,-0.001990,-0.016782, 0.022031, 0.038722,1, 0.003527,-0.000666, 0.000601,1,-0.129956,-0.226291, 9.803178,1,0
1778107864569,   915.524,   915.524, 0.012347, 0.024128,-0.995329, 0.000025, 0.000048,-0.001991,-0.008899, 0.010439, 0.042339,1, 0.001854, 0.000222,-0.000040,1,-0.129987,-0.226168, 9.803180,1,0
1778107864580,   915.529,   915.529, 0.012015, 0.025213,-0.996000, 0.000024, 0.000051,-0.001992,-0.012164, 0.021156, 0.035760,1, 0.001897,-0.000349,-0.000151,1,-0.129987,-0.226091, 9.803182,1,0
1778107864591,   915.534,   915.533, 0.012988, 0.024520,-0.994987, 0.000026, 0.000049,-0.001990,-0.009079, 0.018701, 0.045525,1, 0.002233,-0.001005,-0.001196,1,-0.129957,-0.226033, 9.803184,1,0
1778107864602,   915.538,   915.538, 0.012719, 0.024714,-0.995542, 0.000025, 0.000050,-0.001991,-0.005238, 0.016460, 0.040256,1, 0.002515,-0.000014, 0.000084,1,-0.129966,-0.225884, 9.803186,1,0
1778107864612,   915.893,   915.892, 0.012809, 0.025144,-0.995736, 0.000026, 0.000050,-0.001991,-0.004479, 0.010766, 0.038117,1,-0.007285, 0.000226,-0.000447,1,-0.130092,-0.235860, 9.802950,1,0
1778107864623,   915.897,   915.897, 0.013529, 0.025881,-0.995443, 0.000027, 0.000052,-0.001991, 0.002579, 0.017770, 0.040986,1,-0.004975,-0.000488,-0.000173,1,-0.130091,-0.236069, 9.802945,1,0
1778107864634,   915.902,   915.901, 0.013304, 0.025389,-0.996574, 0.000027, 0.000051,-0.001993,-0.000191, 0.011070, 0.025476,1,-0.005104,-0.000151,-0.000324,1,-0.130078,-0.236282, 9.802940,1,0
1778107864645,   915.907,   915.906, 0.013550, 0.025055,-0.996202, 0.000027, 0.000050,-0.001992, 0.002788, 0.009137, 0.033529,1,-0.005521, 0.000234, 0.000140,1,-0.130098,-0.236602, 9.802932,1,0
1778107864655,   915.911,   915.911, 0.013682, 0.024942,-0.995470, 0.000027, 0.000050,-0.001991, 0.004047, 0.007825, 0.040703,1,-0.004861, 0.001277,-0.000034,1,-0.130140,-0.236801, 9.802927,1,0
1778107864666,   915.916,   915.915, 0.013586, 0.025046,-0.994965, 0.000027, 0.000050,-0.001990, 0.002919, 0.008379, 0.046272,1,-0.004894,-0.000220,-0.000929,1,-0.130149,-0.236980, 9.802922,1,0
1778107864677,   915.921,   915.920, 0.013453, 0.025544,-0.994590, 0.000027, 0.000051,-0.001989, 0.001794, 0.013187, 0.049314,1,-0.007165,-0.000118, 0.000413,1,-0.130132,-0.237358, 9.802914,1,0
1778107864688,   915.925,   915.925, 0.013937, 0.025815,-0.995080, 0.000028, 0.000052,-0.001990, 0.006505, 0.015612, 0.044511,1,-0.006052, 0.001886,-0.000489,1,-0.130182,-0.237589, 9.802907,1,0
1778107864698,   915.930,   915.929, 0.014203, 0.026110,-0.995767, 0.000029, 0.000052,-0.001992, 0.008501, 0.017144, 0.037379,1,-0.004545,-0.000257,-0.000506,1,-0.130194,-0.237760, 9.802903,1,0
1778107864709,   915.934,   915.934, 0.014007, 0.026227,-0.994820, 0.000028, 0.000052,-0.001990, 0.007111, 0.019238, 0.047044,1,-0.003851, 0.000097, 0.000025,1,-0.130256,-0.237984, 9.802896,1,0
1778107864720,   915.939,   915.939, 0.013595, 0.026328,-0.995543, 0.000027, 0.000053,-0.001991, 0.003113, 0.020058, 0.039954,1,-0.004116,-0.000469, 0.000314,1,-0.130208,-0.238155, 9.802893,1,0
1778107864731,   915.944,   915.943, 0.014657, 0.026964,-0.996977, 0.000030, 0.000054,-0.001994, 0.013832, 0.027800, 0.030635,1,-0.004893, 0.001268, 0.000825,1,-0.130225,-0.238341, 9.802888,1,0
1778107864741,   915.949,   915.949, 0.013738, 0.026731,-0.995842, 0.000027, 0.000053,-0.001992, 0.004449, 0.023566, 0.037011,1,-0.004247, 0.000017,-0.000513,1,-0.130276,-0.238603, 9.802881,1,0
1778107864752,   915.953,   915.953, 0.013690, 0.027427,-0.996032, 0.000027, 0.000055,-0.001992, 0.003951, 0.030235, 0.035145,1,-0.003286, 0.000863,-0.000064,1,-0.130310,-0.238752, 9.802877,1,0
1778107864763,   915.958,   915.957, 0.014581, 0.027417,-0.995527, 0.000029, 0.000055,-0.001991, 0.011228, 0.025349, 0.038705,1,-0.004208, 0.000748, 0.000636,1,-0.130346,-0.238909, 9.802873,1,0
1778107864774,   915.963,   915.963, 0.013437, 0.027684,-0.995957, 0.000027, 0.000055,-0.001992, 0.001424, 0.032423, 0.035863,1,-0.002893, 0.000430,-0.000222,1,-0.130346,-0.239086, 9.802869,1,0
1778107864785,   915.968,   915.967, 0.013370, 0.027957,-0.995443, 0.000027, 0.000056,-0.001991, 0.001920, 0.037718, 0.033730,1,-0.002019, 0.000614,-0.000753,1,-0.130362,-0.239174, 9.802866,1,0
1778107864795,   915.972,   915.971, 0.013678, 0.027789,-0.995711, 0.000027, 0.000056,-0.001991, 0.000929, 0.031686, 0.043033,1,-0.001511, 0.000801,-0.000777,1,-0.130397,-0.239257, 9.802864,1,0
1778107864806,   915.977,   915.977, 0.014930, 0.027747,-0.995854, 0.000030, 0.000055,-0.001992, 0.015985, 0.032780, 0.036864,1,-0.001488, 0.000797, 0.000465,1,-0.130436,-0.239339, 9.802861,1,0
1778107864817,   915.982,   915.981, 0.013628, 0.027318,-0.994917, 0.000027, 0.000055,-0.001990, 0.007845, 0.025860, 0.042591,1,-0.001726, 0.000549,-0.000562,1,-0.130460,-0.239399, 9.802859,1,0
1778107864828,   915.986,   915.985, 0.014386, 0.026949,-0.995246, 0.000029, 0.000054,-0.001990, 0.010792, 0.025322, 0.049650,1,-0.001205, 0.000329, 0.000497,1,-0.130474,-0.239457, 9.802857,1,0
1778107864838,   915.991,   915.991, 0.013893, 0.026040,-0.995461, 0.000028, 0.000052,-0.001991, 0.005746, 0.015850, 0.040713,1,-0.000062,-0.000235,-0.000558,1,-0.130499,-0.239516, 9.802856,1,0
1778107864849,   915.996,   915.995, 0.014141, 0.026149,-0.995867, 0.000028, 0.000052,-0.001992, 0.008822, 0.012293, 0.041393,1,-0.000577, 0.000105, 0.000492,1,-0.130481,-0.239506, 9.802856,1,0
1778107864860,   916.000,   915.999, 0.014180, 0.026405,-0.995759, 0.000028, 0.000053,-0.001991, 0.004541, 0.016971, 0.035175,1,-0.001190,-0.000774, 0.000255,1,-0.130458,-0.239535, 9.802856,1,0
1778107864871,   916.005,   916.005, 0.014676, 0.025483,-0.996283, 0.000029, 0.000051,-0.001993, 0.013614, 0.009652, 0.032639,1, 0.000112,-0.001116,-0.000455,1,-0.130293,-0.240292, 9.802840,1,0
1778107864881,   916.010,   916.009, 0.014561, 0.025014,-0.995756, 0.000029, 0.000050,-0.001992, 0.011844, 0.007830, 0.034337,1,-0.000276, 0.000358, 0.000093,1,-0.130298,-0.240309, 9.802839,1,0
1778107864892,   916.014,   916.013, 0.014320, 0.025489,-0.995736, 0.000029, 0.000051,-0.001991, 0.014345, 0.001593, 0.041264,1,-0.000449, 0.000171,-0.000351,1,-0.130330,-0.240306, 9.802839,1,0
1778107864903,   916.019,   916.019, 0.014506, 0.025878,-0.996491, 0.000029, 0.000052,-0.001993, 0.012006, 0.013452, 0.030602,1,-0.000741,-0.000950,-0.000901,1,-0.130247,-0.240333, 9.802839,1,0
1778107864914,   916.024,   916.023, 0.014884, 0.025869,-0.996162, 0.000030, 0.000052,-0.001992, 0.012810, 0.003489, 0.029052,1,-0.000080, 0.000927,-0.000521,1,-0.130273,-0.240321, 9.802839,1,0
1778107864924,   916.028,   916.027, 0.014137, 0.025181,-0.996198, 0.000028, 0.000050,-0.001993, 0.011156, 0.014523, 0.032924,1,-0.001427,-0.000827, 0.000793,1,-0.130251,-0.240379, 9.802838,1,0
1778107864935,   916.033,   916.033, 0.014337, 0.025715,-0.995719, 0.000029, 0.000052,-0.001992, 0.010405, 0.011804, 0.038168,1,-0.000566,-0.001042, 0.000138,1,-0.130188,-0.240377, 9.802839,1,0
1778107864946,   916.038,   916.037, 0.013871, 0.025281,-0.995790, 0.000028, 0.000051,-0.001992, 0.016722, 0.009687, 0.040477,1,-0.000013, 0.000564, 0.000572,1,-0.130216,-0.240380, 9.802838,1,0
1778107864957,   916.042,   916.041, 0.013890, 0.025490,-0.994941, 0.000028, 0.000051,-0.001990, 0.002992, 0.007285, 0.039242,1, 0.000519,-0.001100, 0.000702,1,-0.130166,-0.240370, 9.802839,1,0
1778107864967,   916.047,   916.047, 0.013269, 0.025501,-0.994228, 0.000027, 0.000051,-0.001988,-0.000019, 0.009745, 0.052793,1,-0.000582, 0.000642,-0.000121,1,-0.130143,-0.240341, 9.802840,1,0
1778107864978,   916.052,   916.051, 0.013983, 0.025388,-0.995451, 0.000028, 0.000051,-0.001991,-0.000173, 0.013705, 0.041714,1,-0.000907,-0.000267, 0.000526,1,-0.130143,-0.240382, 9.802839,1,0
1778107864989,   916.056,   916.056, 0.013828, 0.025784,-0.995932, 0.000028, 0.000052,-0.001992, 0.005474, 0.012415, 0.036084,1,-0.001687,-0.000713,-0.000750,1,-0.130123,-0.240453, 9.802838,1,0
1778107865000,   916.061,   916.061, 0.013430, 0.025808,-0.994833, 0.000027, 0.000052,-0.001989, 0.001571, 0.012622, 0.046858,1,-0.000528,-0.000246,-0.000425,1,-0.130134,-0.240467, 9.802837,1,0
1778107865011,   916.066,   916.065, 0.014317, 0.024821,-0.996514, 0.000029, 0.000050,-0.001993, 0.008906, 0.010683, 0.033513,1,-0.000800,-0.000083,-0.000934,1,-0.130120,-0.240505, 9.802836,1,0
1778107865021,   916.070,   916.070, 0.013334, 0.025491,-0.995897, 0.000026, 0.000051,-0.001992, 0.000657, 0.009426, 0.036418,1,-0.000080, 0.000669, 0.000635,1,-0.130112,-0.240551, 9.802835,1,0
1778107865032,   916.075,   916.075, 0.013289, 0.025645,-0.995558, 0.000027, 0.000051,-0.001991, 0.000203, 0.010910, 0.039748,1,-0.001035,-0.000465,-0.000618,1,-0.130114,-0.240588, 9.802835,1,0
1778107865043,   916.082,   916.081, 0.012672, 0.025783,-0.995886, 0.000025, 0.000052,-0.001992,-0.005077, 0.008139, 0.033138,1, 0.000587, 0.000693,-0.000158,1,-0.130135,-0.240563, 9.802835,1,0
1778107865054,   916.087,   916.086, 0.013180, 0.026051,-0.995914, 0.000026, 0.000052,-0.001992,-0.000927, 0.014886, 0.036250,1,-0.001647, 0.000001, 0.000626,1,-0.130183,-0.240597, 9.802834,1,0
1778107865064,   916.091,   916.091, 0.013336, 0.025658,-0.995629, 0.000027, 0.000051,-0.001991, 0.000629, 0.010998, 0.039047,1,-0.000546,-0.001269, 0.000916,1,-0.130143,-0.240629, 9.802834,1,0
1778107865075,   916.096,   916.095, 0.012683, 0.026047,-0.995750, 0.000025, 0.000052,-0.001991,-0.005589, 0.012453, 0.034231,1,-0.000974, 0.000727, 0.000407,1,-0.130164,-0.240690, 9.802832,1,0
1778107865086,   916.101,   916.100, 0.012671, 0.025995,-0.996890, 0.000025, 0.000052,-0.001994,-0.005908, 0.014218, 0.026680,1,-0.000795,-0.000535, 0.000479,1,-0.130169,-0.240712, 9.802831,1,0
1778107865097,   916.105,   916.105, 0.013057, 0.025952,-0.995341, 0.000026, 0.000052,-0.001990,-0.002098, 0.013742, 0.041865,1,-0.001606,-0.000629, 0.000063,1,-0.130138,-0.240771, 9.802830,1,0
1778107865107,   916.110,   916.109, 0.013102, 0.026014,-0.995720, 0.000026, 0.000052,-0.001992,-0.002705, 0.008030, 0.036945,1,-0.000151,-0.000525,-0.000113,1,-0.130139,-0.240801, 9.802830,1,0
1778107865118,   916.115,   916.114, 0.012041, 0.025721,-0.995488, 0.000024, 0.000051,-0.001991,-0.012021, 0.011427, 0.040430,1,-0.000571,-0.000368, 0.000248,1,-0.130103,-0.240815, 9.802830,1,0
1778107865129,   916.119,   916.119, 0.012426, 0.026071,-0.995589, 0.000025, 0.000052,-0.001991,-0.008240, 0.014833, 0.039439,1, 0.000554,-0.000818, 0.000539,1,-0.130095,-0.240829, 9.802829,1,0
1778107865140,   916.124,   916.123, 0.012346, 0.024828,-0.996338, 0.000025, 0.000050,-0.001993,-0.009698, 0.007276, 0.038937,1, 0.000696, 0.000213, 0.000332,1,-0.130096,-0.240818, 9.802830,1,0
1778107865150,   916.129,   916.128, 0.012136, 0.025250,-0.996572, 0.000024, 0.000051,-0.001993,-0.011073, 0.006801, 0.029798,1, 0.000093, 0.000049,-0.000390,1,-0.130088,-0.240817, 9.802830,1,0
1778107865161,   916.133,   916.133, 0.012375, 0.025337,-0.995549, 0.000025, 0.000051,-0.001991,-0.008742, 0.007620, 0.039823,1,-0.000530, 0.000349,-0.000910,1,-0.130104,-0.240857, 9.802829,1,0
1778107865172,   916.138,   916.137, 0.012398, 0.024873,-0.995580, 0.000025, 0.000050,-0.001991,-0.005581,-0.001020, 0.038446,1, 0.000087, 0.000130, 0.000701,1,-0.130108,-0.240858, 9.802829,1,0
1778107865183,   916.143,   916.143, 0.012181, 0.024757,-0.995656, 0.000024, 0.000049,-0.001992,-0.010670, 0.001846, 0.038780,1,-0.001340,-0.000023,-0.000745,1,-0.130123,-0.240941, 9.802826,1,0
1778107865194,   916.147,   916.147, 0.012491, 0.025649,-0.996493, 0.000025, 0.000051,-0.001993,-0.007626, 0.010595, 0.030573,1,-0.000075, 0.000112, 0.000042,1,-0.130124,-0.240937, 9.802826,1,0
1778107865204,   916.152,   916.151, 0.012242, 0.024948,-0.996086, 0.000025, 0.000050,-0.001992,-0.010365, 0.010902, 0.029336,1,-0.000424,-0.001043,-0.000390,1,-0.130104,-0.240958, 9.802826,1,0
1778107865215,   916.157,   916.157, 0.012303, 0.024551,-0.996785, 0.000024, 0.000049,-0.001994,-0.009458,-0.000242, 0.027697,1,-0.001891,-0.000332,-0.000487,1,-0.130103,-0.241015, 9.802825,1,0
1778107865226,   916.161,   916.511, 0.012623, 0.025245,-0.996349, 0.000025, 0.000051,-0.001993,-0.006324, 0.006531, 0.031974,1,-0.000631, 0.000040,-0.000749,1,-0.130118,-0.241041, 9.802824,1,0
1778107865237,   916.516,   916.515, 0.011753, 0.026635,-0.996147, 0.000023, 0.000053,-0.001992,-0.017739, 0.008510, 0.032791,1,-0.003125, 0.000373,-0.000151,1,-0.130683,-0.249763, 9.802598,1,0
1778107865247,   916.520,   916.520, 0.012225, 0.027069,-0.995971, 0.000024, 0.000054,-0.001992,-0.010814, 0.015572, 0.035450,1,-0.002854, 0.001248, 0.000393,1,-0.130710,-0.249904, 9.802594,1,0
1778107865258,   916.525,   916.525, 0.013102, 0.027010,-0.995538, 0.000026, 0.000054,-0.001991,-0.002209, 0.014894, 0.039703,1,-0.003317,-0.000543, 0.000866,1,-0.130695,-0.250008, 9.802591,1,0
1778107865269,   916.530,   916.529, 0.012457, 0.027534,-0.995762, 0.000025, 0.000055,-0.001992,-0.001186, 0.016753, 0.038863,1,-0.003093,-0.000051, 0.001245,1,-0.130699,-0.250141, 9.802588,1,0
1778107865280,   916.534,   916.534, 0.012756, 0.027272,-0.995584, 0.000026, 0.000054,-0.001991,-0.005644, 0.017156, 0.039241,1,-0.003194, 0.000728, 0.000883,1,-0.130743,-0.250309, 9.802583,1,0
1778107865290,   916.539,   916.539, 0.013103, 0.027059,-0.995099, 0.000026, 0.000054,-0.001990,-0.002248, 0.014958, 0.043994,1,-0.003589,-0.000751, 0.000115,1,-0.130737,-0.250427, 9.802580,1,0
1778107865301,   916.544,   916.543, 0.013776, 0.027125,-0.995371, 0.000028, 0.000054,-0.001991, 0.000263, 0.009950, 0.041414,1,-0.002353,-0.001317, 0.000012,1,-0.130681,-0.250529, 9.802578,1,0
1778107865312,   916.548,   916.548, 0.013625, 0.026862,-0.995155, 0.000027, 0.000054,-0.001990, 0.002940, 0.012758, 0.043433,1,-0.003242, 0.000167,-0.000756,1,-0.130674,-0.250693, 9.802574,1,0
1778107865323,   916.553,   916.553, 0.013520, 0.026594,-0.995477, 0.000027, 0.000053,-0.001991, 0.001896, 0.010049, 0.040281,1,-0.002021, 0.000188,-0.000518,1,-0.130694,-0.250765, 9.802572,1,0
1778107865334,   916.558,   916.557, 0.014104, 0.027512,-0.996104, 0.000028, 0.000055,-0.001992, 0.007575, 0.018924, 0.045201,1,-0.001430, 0.000864, 0.000437,1,-0.130713,-0.250824, 9.802570,1,0
1778107865344,   916.562,   916.562, 0.013182, 0.027392,-0.996267, 0.000026, 0.000055,-0.001993,-0.001482, 0.017669, 0.032523,1,-0.001877, 0.001159, 0.001325,1,-0.130765,-0.250970, 9.802566,1,0
1778107865355,   916.567,   916.567, 0.013047, 0.027282,-0.995494, 0.000026, 0.000055,-0.001991,-0.002822, 0.016529, 0.040105,1,-0.001896,-0.000997, 0.000196,1,-0.130761,-0.251032, 9.802565,1,0
1778107865366,   916.572,   916.571, 0.013649, 0.027059,-0.996451, 0.000027, 0.000054,-0.001993, 0.006191, 0.010221, 0.029079,1,-0.001844,-0.000744,-0.000667,1,-0.130715,-0.251103, 9.802564,1,0
1778107865377,   916.576,   916.576, 0.013780, 0.026732,-0.995538, 0.000028, 0.000053,-0.001991, 0.004387, 0.010926, 0.039662,1,-0.002448, 0.001607, 0.000038,1,-0.130760,-0.251236, 9.802559,1,0
1778107865387,   916.581,   916.581, 0.013930, 0.026743,-0.996113, 0.000028, 0.000053,-0.001992, 0.005816, 0.010971, 0.034024,1,-0.001654, 0.000549,-0.000048,1,-0.130797,-0.251298, 9.802557,1,0
1778107865398,   916.586,   916.585, 0.013823, 0.027261,-0.996211, 0.000028, 0.000055,-0.001993, 0.010028, 0.013782, 0.029528,1,-0.001127, 0.000291,-0.000392,1,-0.130798,-0.251328, 9.802556,1,0
1778107865409,   916.591,   916.590, 0.013399, 0.027338,-0.996483, 0.000027, 0.000055,-0.001993, 0.007701, 0.020002, 0.033490,1, 0.000015,-0.001124, 0.000061,1,-0.130788,-0.251331, 9.802556,1,0
1778107865420,   916.595,   916.595, 0.014280, 0.027859,-0.994761, 0.000029, 0.000056,-0.001989, 0.009263, 0.021840, 0.047284,1,-0.001796, 0.000295,-0.000973,1,-0.130779,-0.251375, 9.802555,1,0
1778107865430,   916.600,   916.599, 0.013321, 0.027714,-0.994866, 0.000027, 0.000055,-0.001990, 0.004373, 0.021359, 0.043555,1,-0.001375, 0.000226,-0.000552,1,-0.130769,-0.251434, 9.802554,1,0
1778107865441,   916.605,   916.604, 0.013837, 0.027859,-0.994644, 0.000028, 0.000056,-0.001989, 0.004947, 0.021277, 0.048418,1,-0.000822,-0.000245,-0.000209,1,-0.130742,-0.251959, 9.802541,1,0
1778107865452,   916.609,   916.609, 0.014459, 0.027548,-0.994229, 0.000029, 0.000055,-0.001988, 0.011065, 0.018186, 0.052482,1, 0.000379, 0.000049, 0.000202,1,-0.130729,-0.251963, 9.802541,1,0
1778107865463,   916.614,   916.613, 0.013691, 0.028163,-0.995016, 0.000027, 0.000056,-0.001990, 0.005327, 0.017643, 0.048878,1,-0.000283, 0.000111,-0.000205,1,-0.130725,-0.251959, 9.802541,1,0
1778107865473,   916.619,   916.618, 0.013758, 0.029004,-0.995008, 0.000028, 0.000058,-0.001990, 0.004166, 0.032490, 0.044841,1, 0.001051, 0.000691, 0.000219,1,-0.130761,-0.251936, 9.802541,1,0
1778107865484,   916.623,   916.623, 0.013960, 0.027960,-0.995345, 0.000028, 0.000056,-0.001990, 0.006145, 0.022270, 0.041542,1, 0.001491,-0.000663,-0.000639,1,-0.130754,-0.251916, 9.802542,1,0
1778107865495,   916.628,   916.627, 0.012753, 0.028386,-0.995911, 0.000025, 0.000057,-0.001992,-0.006542, 0.019889, 0.034746,1, 0.000803, 0.000359,-0.000176,1,-0.130746,-0.251865, 9.802544,1,0
1778107865506,   916.633,   916.632, 0.012886, 0.028210,-0.996553, 0.000026, 0.000056,-0.001993,-0.004406, 0.024872, 0.029700,1, 0.003077, 0.001025,-0.000935,1,-0.130784,-0.251751, 9.802546,1,0
1778107865516,   916.637,   916.637, 0.012817, 0.027430,-0.996109, 0.000026, 0.000055,-0.001992,-0.005075, 0.017291, 0.034055,1, 0.000751,-0.001018,-0.000249,1,-0.130760,-0.251706, 9.802547,1,0
1778107865527,   916.642,   916.641, 0.013200, 0.027947,-0.996603, 0.000027, 0.000056,-0.001993,-0.003077, 0.025861, 0.029398,1, 0.002439, 0.000582,-0.000274,1,-0.130763,-0.251629, 9.802549,1,0
1778107865538,   916.647,   916.646, 0.012350, 0.026298,-0.996338, 0.000025, 0.000052,-0.001993,-0.009648, 0.006355, 0.031814,1, 0.001316,-0.000512,-0.000264,1,-0.130762,-0.251535, 9.802551,1,0
1778107865549,   916.651,   916.651, 0.012985, 0.027090,-0.996295, 0.000026, 0.000054,-0.001992,-0.003427, 0.014159, 0.032233,1, 0.001317, 0.001018, 0.000781,1,-0.130774,-0.251492, 9.802552,1,0
1778107865559,   916.656,   916.655, 0.012630, 0.026327,-0.996083, 0.000025, 0.000053,-0.001992,-0.004048, 0.003471, 0.031443,1, 0.001236, 0.000565,-0.000974,1,-0.130803,-0.251450, 9.802553,1,0
1778107865570,   916.661,   916.661, 0.012866, 0.026190,-0.995686, 0.000026, 0.000052,-0.001991,-0.004702, 0.005491, 0.038206,1, 0.001224, 0.000612, 0.000326,1,-0.130876,-0.251336, 9.802555,1,0
1778107865581,   916.665,   916.665, 0.012866, 0.026190,-0.995686, 0.000026, 0.000052,-0.001991,-0.001016, 0.005805, 0.041452,1, 0.002966, 0.000737,-0.000073,1,-0.130898,-0.251232, 9.802557,1,0
1778107865592,   916.670,   916.669, 0.014165, 0.026111,-0.995690, 0.000028, 0.000052,-0.001991, 0.008320, 0.002100, 0.034845,1, 0.001613,-0.000366, 0.000246,1,-0.130921,-0.251179, 9.802559,1,0
1778107865603,   916.675,   916.675, 0.013746, 0.026635,-0.995188, 0.000027, 0.000053,-0.001990, 0.003896, 0.010105, 0.043101,1, 0.002448,-0.000342,-0.001034,1,-0.130900,-0.251079, 9.802562,1,0
1778107865613,   916.680,   916.679, 0.013853, 0.026531,-0.994352, 0.000028, 0.000053,-0.001989, 0.000451, 0.015546, 0.053413,1, 0.000863, 0.000741, 0.000530,1,-0.130909,-0.251012, 9.802563,1,0
1778107865624,   916.684,   916.683, 0.013180, 0.025650,-0.996087, 0.000026, 0.000051,-0.001993, 0.005321,-0.004216, 0.042517,1, 0.002173, 0.000510, 0.000023,1,-0.130918,-0.250942, 9.802565,1,0
1778107865635,   916.689,   916.689, 0.011870, 0.025208,-0.994060, 0.000024, 0.000050,-0.001988,-0.014552,-0.003703, 0.054165,1, 0.000978, 0.000735, 0.000044,1,-0.130966,-0.250898, 9.802566,1,0
1778107865646,   916.694,   916.693, 0.014056, 0.025611,-0.996444, 0.000029, 0.000051,-0.001993, 0.008663, 0.000349, 0.035168,1,-0.000398, 0.001153, 0.000416,1,-0.130993,-0.250891, 9.802565,1,0
1778107865656,   916.698,   916.697, 0.011544, 0.024964,-0.994569, 0.000023, 0.000050,-0.001989,-0.012854,-0.006733, 0.038137,1, 0.001337,-0.000007, 0.000258,1,-0.130998,-0.250855, 9.802566,1,0
1778107865667,   916.705,   916.705, 0.013530, 0.025663,-0.997436, 0.000027, 0.000051,-0.001995, 0.001671, 0.000768, 0.021058,1, 0.000292,-0.001185, 0.000445,1,-0.131001,-0.250894, 9.802565,1,0
1778107865678,   916.710,   916.709, 0.012539, 0.025077,-0.994676, 0.000025, 0.000050,-0.001989,-0.021187,-0.008148, 0.036964,1,-0.001299,-0.000068,-0.001095,1,-0.130983,-0.250910, 9.802565,1,0
1778107865689,   916.714,   916.714, 0.014000, 0.024846,-0.994805, 0.000028, 0.000050,-0.001990, 0.006290,-0.007348, 0.046858,1,-0.001248,-0.000134,-0.000988,1,-0.130999,-0.251009, 9.802562,1,0
1778107865699,   916.719,   916.719, 0.012883, 0.025000,-0.997153, 0.000026, 0.000050,-0.001995,-0.004654,-0.005873, 0.023833,1,-0.000597,-0.000295, 0.000037,1,-0.130995,-0.251045, 9.802561,1,0
1778107865710,   916.724,   916.723, 0.012232, 0.025240,-0.995065, 0.000024, 0.000050,-0.001990,-0.012421, 0.002962, 0.033069,1,-0.000490,-0.001725, 0.001664,1,-0.130952,-0.251096, 9.802560,1,0
1778107865721,   916.728,   916.728, 0.010959, 0.026371,-0.993530, 0.000022, 0.000053,-0.001987,-0.023452, 0.007518, 0.059357,1, 0.000457, 0.000108, 0.000841,1,-0.130919,-0.251092, 9.802561,1,0
1778107865732,   916.733,   916.733, 0.013090, 0.026825,-0.996179, 0.000026, 0.000054,-0.001993,-0.002570, 0.011945, 0.033382,1,-0.001104, 0.000711,-0.000780,1,-0.130942,-0.251129, 9.802560,1,0
1778107865742,   916.738,   916.737, 0.013004, 0.026834,-0.996729, 0.000026, 0.000054,-0.001994,-0.001299, 0.015383, 0.025117,1,-0.000308,-0.000142,-0.000800,1,-0.130936,-0.251164, 9.802559,1,0
1778107865753,   916.742,   916.742, 0.012950, 0.027181,-0.995868, 0.000026, 0.000054,-0.001992,-0.003907, 0.015375, 0.036426,1, 0.000674,-0.000718, 0.000234,1,-0.130901,-0.251175, 9.802559,1,0
1778107865764,   916.747,   916.747, 0.012026, 0.026878,-0.995564, 0.000024, 0.000054,-0.001991,-0.012973, 0.012401, 0.039406,1,-0.000247, 0.000287, 0.000967,1,-0.130906,-0.251179, 9.802559,1,0
1778107865775,   916.752,   916.751, 0.013548, 0.028125,-0.997150, 0.000027, 0.000057,-0.001995,-0.001944, 0.025644, 0.028742,1,-0.000966, 0.001531,-0.000078,1,-0.130931,-0.251214, 9.802557,1,0
1778107865786,   916.756,   916.756, 0.013471, 0.026651,-0.996519, 0.000027, 0.000053,-0.001993, 0.001128, 0.010080, 0.030040,1,-0.001088,-0.000209,-0.001168,1,-0.130979,-0.251285, 9.802555,1,0
1778107865796,   916.761,   916.761, 0.013923, 0.026567,-0.994477, 0.000028, 0.000053,-0.001988, 0.005339, 0.011728, 0.043125,1,-0.000425, 0.000250,-0.000570,1,-0.130966,-0.251276, 9.802555,1,0
1778107865807,   916.766,   916.765, 0.013220, 0.027317,-0.995984, 0.000026, 0.000054,-0.001992, 0.002208, 0.019199, 0.038399,1, 0.000342, 0.001050, 0.000123,1,-0.131002,-0.251282, 9.802555,1,0
1778107865818,   916.770,   916.770, 0.014149, 0.027150,-0.995122, 0.000029, 0.000054,-0.001990, 0.007755, 0.014957, 0.043740,1,-0.001072,-0.000407, 0.000499,1,-0.130993,-0.251299, 9.802554,1,0
1778107865829,   916.775,   916.775, 0.014498, 0.027015,-0.994956, 0.000029, 0.000054,-0.001990, 0.011161, 0.013639, 0.045370,1,-0.000333, 0.000224,-0.000475,1,-0.131013,-0.251294, 9.802554,1,0
1778107865839,   916.780,   916.779, 0.013247, 0.026631,-0.995502, 0.000026, 0.000053,-0.001991, 0.007334, 0.005055, 0.042502,1,-0.000846, 0.000179, 0.000515,1,-0.131034,-0.251338, 9.802553,1,0
1778107865850,   917.134,   916.783, 0.012969, 0.026733,-0.995802, 0.000026, 0.000053,-0.001992, 0.005870, 0.011081, 0.039996,1,-0.000361, 0.000137, 0.000694,1,-0.131033,-0.251363, 9.802552,1,0
1778107865861,   917.139,   917.139, 0.012227, 0.026206,-0.996284, 0.000025, 0.000052,-0.001993,-0.011430, 0.004459, 0.032308,1, 0.002734, 0.000532,-0.000612,1,-0.131336,-0.252516, 9.802519,1,0
1778107865872,   917.144,   917.143, 0.012291, 0.026668,-0.996651, 0.000025, 0.000054,-0.001993,-0.012991, 0.002330, 0.029187,1, 0.002479, 0.000266,-0.000504,1,-0.131354,-0.252378, 9.802522,1,0
1778107865882,   917.148,   917.147, 0.012371, 0.026108,-0.995518, 0.000025, 0.000052,-0.001991,-0.011165, 0.006680, 0.042290,1, 0.003662, 0.000962, 0.000334,1,-0.131383,-0.252264, 9.802525,1,0
1778107865893,   917.153,   917.153, 0.012275, 0.025844,-0.996210, 0.000024, 0.000052,-0.001992,-0.011013, 0.001325, 0.033047,1, 0.001862, 0.001066,-0.000062,1,-0.131396,-0.252110, 9.802528,1,0
1778107865904,   917.158,   917.157, 0.012704, 0.025966,-0.996014, 0.000025, 0.000052,-0.001992,-0.003086, 0.006232, 0.031689,1, 0.001548,-0.000398, 0.000224,1,-0.131421,-0.252033, 9.802530,1,0
1778107865915,   917.162,   917.161, 0.013314, 0.026009,-0.996188, 0.000027, 0.000052,-0.001992,-0.001878,-0.000907, 0.039102,1, 0.002249,-0.000870,-0.000095,1,-0.131384,-0.251947, 9.802532,1,0
1778107865925,   917.167,   917.167, 0.013486, 0.025967,-0.995691, 0.000027, 0.000052,-0.001991, 0.000906, 0.002831, 0.038138,1, 0.001975,-0.002186,-0.001236,1,-0.131328,-0.251809, 9.802537,1,0
1778107865936,   917.172,   917.171, 0.014283, 0.025589,-0.995106, 0.000029, 0.000051,-0.001990, 0.000602, 0.000484, 0.041920,1, 0.002018,-0.001639, 0.000304,1,-0.131270,-0.251746, 9.802539,1,0
1778107865947,   917.176,   917.175, 0.014456, 0.026540,-0.995812, 0.000029, 0.000053,-0.001992, 0.009908, 0.002298, 0.037691,1, 0.002127,-0.000664, 0.000353,1,-0.131246,-0.251654, 9.802542,1,0
1778107865958,   917.181,   917.181, 0.014049, 0.025968,-0.996716, 0.000028, 0.000052,-0.001994, 0.006467, 0.003048, 0.028095,1, 0.000391, 0.001116, 0.000485,1,-0.131315,-0.251613, 9.802542,1,0
1778107865969,   917.186,   917.185, 0.014761, 0.025160,-0.995877, 0.000030, 0.000050,-0.001992, 0.006494,-0.004737, 0.037293,1, 0.001088,-0.000081, 0.000428,1,-0.131323,-0.251591, 9.802543,1,0
1778107865979,   917.190,   917.189, 0.014845, 0.024642,-0.995531, 0.000030, 0.000049,-0.001991, 0.010771,-0.002239, 0.033018,1,-0.000748, 0.000317, 0.000930,1,-0.131332,-0.251614, 9.802542,1,0
1778107865990,   917.195,   917.195, 0.014952, 0.024158,-0.997033, 0.000030, 0.000048,-0.001994, 0.015279,-0.014743, 0.024990,1,-0.000740, 0.000081, 0.000013,1,-0.131354,-0.251656, 9.802541,1,0
1778107866001,   917.200,   917.199, 0.014785, 0.024198,-0.995540, 0.000030, 0.000049,-0.001991, 0.020639,-0.011823, 0.041038,1,-0.001005,-0.000205,-0.000107,1,-0.131331,-0.251691, 9.802540,1,0
1778107866012,   917.204,   917.203, 0.014847, 0.023496,-0.995336, 0.000030, 0.000047,-0.001991, 0.013335,-0.020607, 0.042679,1,-0.000730, 0.000036,-0.000392,1,-0.131297,-0.252154, 9.802528,1,0
1778107866022,   917.209,   917.209, 0.014948, 0.023568,-0.994916, 0.000030, 0.000047,-0.001990, 0.015314,-0.021110, 0.045737,1,-0.002422, 0.000159,-0.001096,1,-0.131279,-0.252244, 9.802526,1,0
1778107866033,   917.214,   917.213, 0.015157, 0.023472,-0.995293, 0.000030, 0.000047,-0.001991, 0.008747,-0.014976, 0.038647,1,-0.001562,-0.000159, 0.000117,1,-0.131294,-0.252312, 9.802525,1,0
1778107866044,   917.218,   917.217, 0.015054, 0.024678,-0.994613, 0.000030, 0.000050,-0.001989, 0.020050,-0.018878, 0.048576,1,-0.002122,-0.000031,-0.000808,1,-0.131292,-0.252395, 9.802523,1,0
1778107866055,   917.223,   917.223, 0.014981, 0.024802,-0.994750, 0.000030, 0.000050,-0.001990, 0.015621,-0.009352, 0.047347,1,-0.004118,-0.000484, 0.001160,1,-0.131291,-0.252605, 9.802517,1,0
1778107866065,   917.228,   917.227, 0.015670, 0.024600,-0.995882, 0.000032, 0.000049,-0.001992, 0.018060,-0.011347, 0.032933,1,-0.005069, 0.000069, 0.001784,1,-0.131290,-0.252799, 9.802512,1,0
1778107866076,   917.232,   917.232, 0.015283, 0.024502,-0.994836, 0.000031, 0.000049,-0.001990, 0.018617,-0.012812, 0.046497,1,-0.005725, 0.000029, 0.000718,1,-0.131261,-0.253126, 9.802504,1,0
1778107866087,   917.237,   917.237, 0.016279, 0.023854,-0.995330, 0.000033, 0.000048,-0.001991, 0.028384,-0.019378, 0.041642,1,-0.005600, 0.000458, 0.000130,1,-0.131264,-0.253344, 9.802498,1,0
1778107866098,   917.242,   917.241, 0.017858, 0.024689,-0.996537, 0.000036, 0.000049,-0.001993, 0.040141,-0.016374, 0.037786,1,-0.007618, 0.000667, 0.001355,1,-0.131317,-0.253636, 9.802490,1,0
1778107866108,   917.246,   917.246, 0.016791, 0.024706,-0.995572, 0.000033, 0.000049,-0.001991, 0.033352,-0.011766, 0.039255,1,-0.007027,-0.001080, 0.000246,1,-0.131302,-0.254095, 9.802478,1,0
1778107866119,   917.251,   917.251, 0.017531, 0.023961,-0.995716, 0.000035, 0.000048,-0.001992, 0.040662,-0.019389, 0.037832,1,-0.008877,-0.001615, 0.000912,1,-0.131243,-0.254417, 9.802470,1,0
1778107866130,   917.256,   917.255, 0.017924, 0.025000,-0.997022, 0.000036, 0.000050,-0.001994, 0.043038,-0.014900, 0.028076,1,-0.009317,-0.001075, 0.000741,1,-0.131212,-0.254759, 9.802463,1,0
1778107866141,   917.260,   917.260, 0.019099, 0.023584,-0.996978, 0.000038, 0.000047,-0.001994, 0.056083,-0.023970, 0.025438,1,-0.009626,-0.000783, 0.000976,1,-0.131210,-0.255306, 9.802448,1,0
1778107866152,   917.265,   917.265, 0.019280, 0.021745,-0.996283, 0.000039, 0.000043,-0.001992, 0.057898,-0.042415, 0.032240,1,-0.011225,-0.000461, 0.000901,1,-0.131168,-0.255732, 9.802438,1,0
1778107866162,   917.270,   917.269, 0.020394, 0.021649,-0.997682, 0.000041, 0.000043,-0.001996, 0.057134,-0.042940, 0.029657,1,-0.013351, 0.000952, 0.002114,1,-0.131197,-0.256226, 9.802424,1,0
1778107866173,   917.274,   917.274, 0.021490, 0.021889,-0.998289, 0.000043, 0.000044,-0.001997, 0.079590,-0.042296, 0.012531,1,-0.015437,-0.000756, 0.000941,1,-0.131148,-0.257049, 9.802403,1,0
1778107866184,   917.279,   917.279, 0.021374, 0.019546,-0.996232, 0.000043, 0.000039,-0.001992, 0.078501,-0.065967, 0.032687,1,-0.017880,-0.000752, 0.001750,1,-0.131103,-0.257757, 9.802385,1,0
1778107866195,   917.284,   917.283, 0.022815, 0.017688,-0.994731, 0.000046, 0.000035,-0.001989, 0.082505,-0.083180, 0.049114,1,-0.021650,-0.000067, 0.001677,1,-0.131108,-0.258556, 9.802364,1,0
1778107866205,   917.288,   917.288, 0.024895, 0.018551,-0.997266, 0.000050, 0.000037,-0.001995, 0.113016,-0.077889, 0.022488,1,-0.025044,-0.000151, 0.003377,1,-0.131117,-0.259966, 9.802327,1,0
1778107866216,   917.293,   917.293, 0.025484, 0.017902,-0.997076, 0.000051, 0.000036,-0.001994, 0.118808,-0.085262, 0.024328,1,-0.026833,-0.000476, 0.003283,1,-0.131100,-0.260992, 9.802299,1,0
1778107866227,   917.298,   917.297, 0.024833, 0.015591,-0.992176, 0.000049, 0.000031,-0.001984, 0.119566,-0.096019, 0.044664,1,-0.028030,-0.000520, 0.002830,1,-0.131090,-0.261546, 9.802285,1,0
1778107866238,   917.303,   917.302, 0.025084, 0.018594,-0.990997, 0.000050, 0.000038,-0.001982, 0.114923,-0.081433, 0.083864,1,-0.031942,-0.000301, 0.002499,1,-0.131061,-0.263981, 9.802220,1,0
1778107866248,   917.307,   917.307, 0.024720, 0.020312,-0.989152, 0.000050, 0.000041,-0.001978, 0.111372,-0.065826, 0.101927,1,-0.030642, 0.000128, 0.003915,1,-0.131050,-0.265206, 9.802187,1,0
1778107866259,   917.312,   917.311, 0.020915, 0.020091,-0.987933, 0.000042, 0.000040,-0.001976, 0.084544,-0.076807, 0.118538,1,-0.029615, 0.000566, 0.001849,1,-0.131072,-0.266346, 9.802156,1,0
1778107866270,   917.317,   917.316, 0.021205, 0.022476,-0.994761, 0.000042, 0.000045,-0.001990, 0.076711,-0.047548, 0.046834,1,-0.031082, 0.004098, 0.002364,1,-0.131263,-0.268157, 9.802104,1,0
1778107866281,   917.321,   917.320, 0.021729, 0.024495,-1.000851, 0.000043, 0.000049,-0.002002, 0.081705,-0.028903,-0.012919,1,-0.029387, 0.004134, 0.000638,1,-0.131408,-0.269298, 9.802071,1,0
1778107866291,   917.328,   917.327, 0.019623, 0.025766,-0.998006, 0.000039, 0.000052,-0.001996, 0.065831,-0.020521, 0.007494,1,-0.027537, 0.004332,-0.001570,1,-0.131654,-0.270969, 9.802022,1,0
1778107866302,   917.333,   917.333, 0.018052, 0.028838,-0.997866, 0.000036, 0.000058,-0.001996, 0.045230, 0.010293, 0.016253,1,-0.029580, 0.002859,-0.001735,1,-0.131822,-0.272701, 9.801971,1,0
1778107866313,   917.338,   917.337, 0.016019, 0.030403,-0.996313, 0.000032, 0.000061,-0.001993, 0.039697, 0.024052, 0.008899,1,-0.027978, 0.001244,-0.002832,1,-0.131892,-0.273823, 9.801939,1,0
1778107866324,   917.342,   917.341, 0.014543, 0.031600,-0.992462, 0.000029, 0.000063,-0.001985, 0.003260, 0.031993, 0.051472,1,-0.025457,-0.000997,-0.003348,1,-0.131878,-0.274845, 9.801910,1,0
1778107866335,   917.347,   917.347, 0.013135, 0.030396,-0.994018, 0.000026, 0.000060,-0.001988,-0.003100, 0.022029, 0.053884,1,-0.021712, 0.001770,-0.004155,1,-0.131922,-0.276190, 9.801872,1,0
1778107866345,   917.352,   917.351, 0.014806, 0.034286,-0.998031, 0.000030, 0.000069,-0.001996,-0.000552, 0.049659, 0.031907,1,-0.020131, 0.001935,-0.004547,1,-0.131986,-0.276978, 9.801849,1,0
1778107866356,   917.356,   917.355, 0.014740, 0.032376,-0.998191, 0.000030, 0.000065,-0.001996, 0.013111, 0.052405, 0.003546,1,-0.018117,-0.000364,-0.004898,1,-0.132002,-0.277706, 9.801828,1,0
1778107866367,   917.361,   917.361, 0.012925, 0.031457,-0.996210, 0.000026, 0.000063,-0.001992,-0.005265, 0.029859, 0.032316,1,-0.017523, 0.001518,-0.007109,1,-0.132021,-0.278738, 9.801799,1,0
1778107866378,   917.366,   917.365, 0.015120, 0.034378,-0.994646, 0.000030, 0.000069,-0.001989, 0.016499, 0.048595, 0.040089,1,-0.013955, 0.001680,-0.007527,1,-0.132056,-0.279313, 9.801782,1,0
1778107866388,   917.370,   917.369, 0.014764, 0.034146,-0.993426, 0.000030, 0.000068,-0.001987, 0.020087, 0.059894, 0.053293,1,-0.010867,-0.000371,-0.009684,1,-0.132026,-0.279796, 9.801768,1,0
1778107866399,   917.375,   917.375, 0.014397, 0.033320,-0.991274, 0.000029, 0.000066,-0.001982, 0.009140, 0.046605, 0.080684,1,-0.005306, 0.000829,-0.011167,1,-0.132045,-0.280189, 9.801757,1,0
1778107866410,   917.380,   917.379, 0.014105, 0.035599,-0.996625, 0.000028, 0.000071,-0.001994, 0.005065, 0.057652, 0.052270,1,-0.004243,-0.000414,-0.013274,1,-0.131999,-0.280377, 9.801752,1,0
1778107866421,   917.384,   917.383, 0.013820, 0.034870,-0.998140, 0.000028, 0.000070,-0.001996, 0.004908, 0.069403, 0.012651,1,-0.001448,-0.000134,-0.013058,1,-0.131985,-0.280464, 9.801750,1,0
1778107866431,   917.389,   917.389, 0.013485, 0.034611,-0.994877, 0.000027, 0.000069,-0.001989, 0.000310, 0.059012, 0.045340,1, 0.001760,-0.000774,-0.013983,1,-0.131926,-0.280400, 9.801753,1,0
1778107866442,   917.394,   917.393, 0.015359, 0.033892,-0.995434, 0.000031, 0.000068,-0.001991, 0.007259, 0.055548, 0.055189,1, 0.001660, 0.000790,-0.014012,1,-0.131927,-0.280336, 9.801755,1,0
1778107866453,   917.398,   917.397, 0.016326, 0.033536,-0.996031, 0.000033, 0.000067,-0.001992, 0.025545, 0.048869, 0.035302,1, 0.000764, 0.000852,-0.013558,1,-0.131958,-0.280308, 9.801755,1,0
1778107866464,   917.403,   917.403, 0.015519, 0.031416,-0.996080, 0.000031, 0.000063,-0.001992, 0.019112, 0.028067, 0.033538,1, 0.000310, 0.000404,-0.013998,1,-0.133789,-0.279832, 9.801744,1,0
1778107866474,   917.757,   917.757, 0.010256, 0.025642,-0.998803, 0.000021, 0.000051,-0.001998,-0.032779,-0.050112, 0.006194,1, 0.005322, 0.000659,-0.000977,1,-0.133358,-0.301539, 9.801105,1,0
1778107866485,   917.762,   917.761, 0.008603, 0.025730,-0.993129, 0.000017, 0.000051,-0.001986,-0.043565,-0.053339, 0.043109,1, 0.005077, 0.000161,-0.001530,1,-0.133344,-0.301339, 9.801112,1,0
1778107866496,   917.766,   917.766, 0.010836, 0.027591,-0.991498, 0.000022, 0.000055,-0.001983,-0.027076,-0.030427, 0.077847,1, 0.006746, 0.000254,-0.000483,1,-0.133345,-0.300961, 9.801124,1,0
1778107866507,   917.771,   917.771, 0.009172, 0.028171,-0.993101, 0.000018, 0.000056,-0.001987,-0.043339,-0.024474, 0.062134,1, 0.007455,-0.002193,-0.001311,1,-0.133275,-0.300690, 9.801133,1,0
1778107866517,   917.776,   917.775, 0.007863, 0.029954,-0.992442, 0.000015, 0.000060,-0.001985,-0.025458,-0.008093, 0.064467,1, 0.009295,-0.001930,-0.002503,1,-0.133241,-0.300343, 9.801144,1,0
1778107866528,   917.780,   917.780, 0.011852, 0.034065,-0.993115, 0.000024, 0.000069,-0.001986,-0.016930, 0.034206, 0.062030,1, 0.010329, 0.000675,-0.003148,1,-0.133165,-0.299797, 9.801162,1,0
1778107866539,   917.785,   917.785, 0.010337, 0.033032,-0.995190, 0.000020, 0.000066,-0.001991,-0.031739, 0.024515, 0.041690,1, 0.010820,-0.001491,-0.004525,1,-0.133105,-0.299352, 9.801176,1,0
1778107866550,   917.790,   917.789, 0.009350, 0.035170,-0.997558, 0.000018, 0.000070,-0.001996,-0.039234, 0.041240, 0.045363,1, 0.010013, 0.000242,-0.005429,1,-0.133109,-0.298949, 9.801188,1,0
1778107866561,   917.794,   917.794, 0.014004, 0.033591,-0.999812, 0.000029, 0.000067,-0.002000, 0.004181, 0.030982,-0.003602,1, 0.009266, 0.000617,-0.006570,1,-0.133153,-0.298380, 9.801206,1,0
1778107866571,   917.799,   917.799, 0.013439, 0.034987,-0.999753, 0.000027, 0.000070,-0.002000,-0.001371, 0.045052,-0.003012,1, 0.009593,-0.000323,-0.005534,1,-0.133156,-0.297993, 9.801217,1,0
1778107866582,   917.804,   917.803, 0.013513, 0.030489,-0.999024, 0.000027, 0.000061,-0.001998,-0.007885,-0.003135,-0.020799,1, 0.006840, 0.000282,-0.004563,1,-0.131649,-0.298359, 9.801227,1,0
1778107866593,   917.808,   917.808, 0.011760, 0.029112,-0.996015, 0.000023, 0.000058,-0.001992,-0.016370,-0.012688, 0.033661,1, 0.002648, 0.001921,-0.003981,1,-0.131704,-0.298161, 9.801231,1,0
1778107866604,   917.813,   917.813, 0.014106, 0.026150,-0.993526, 0.000029, 0.000052,-0.001987, 0.006648,-0.041660, 0.058071,1, 0.000549,-0.001395,-0.003855,1,-0.131671,-0.298097, 9.801234,1,0
1778107866614,   917.818,   917.817, 0.013798, 0.021087,-0.990741, 0.000028, 0.000042,-0.001981,-0.000562,-0.060831, 0.082742,1,-0.002777,-0.000132,-0.002477,1,-0.131659,-0.298158, 9.801232,1,0
1778107866625,   917.822,   917.822, 0.011846, 0.019373,-0.989174, 0.000023, 0.000039,-0.001978,-0.015442,-0.108300, 0.100740,1,-0.003522,-0.000913,-0.002088,1,-0.131602,-0.298310, 9.801229,1,0
1778107866636,   917.827,   917.827, 0.012564, 0.018063,-0.991720, 0.000025, 0.000036,-0.001984,-0.008384,-0.121285, 0.075776,1,-0.003628,-0.000424,-0.002345,1,-0.131592,-0.298443, 9.801225,1,0
1778107866647,   917.832,   917.831, 0.012645, 0.015737,-0.991849, 0.000025, 0.000032,-0.001984, 0.001656,-0.139608, 0.075680,1,-0.002209,-0.000458,-0.005124,1,-0.131554,-0.298567, 9.801221,1,0
1778107866657,   917.837,   917.836, 0.013881, 0.014927,-0.994779, 0.000028, 0.000030,-0.001990, 0.004574,-0.152408, 0.045764,1,-0.004492, 0.001086,-0.005465,1,-0.131560,-0.298816, 9.801213,1,0
1778107866668,   917.841,   917.841, 0.015001, 0.016441,-0.998952, 0.000030, 0.000033,-0.001999, 0.015542,-0.137783, 0.004836,1,-0.005938, 0.000185,-0.006512,1,-0.131565,-0.299055, 9.801206,1,0
1778107866679,   917.846,   917.845, 0.015277, 0.017481,-1.002141, 0.000030, 0.000035,-0.002005, 0.018976,-0.137626,-0.023593,1,-0.004017, 0.000344,-0.007946,1,-0.131578,-0.299210, 9.801201,1,0
1778107866690,   917.851,   917.850, 0.015032, 0.021565,-1.000976, 0.000030, 0.000043,-0.002002, 0.015924,-0.088089,-0.015034,1,-0.007476,-0.000827,-0.008612,1,-0.131482,-0.299617, 9.801190,1,0
1778107866700,   917.855,   917.855, 0.015045, 0.023880,-1.002369, 0.000030, 0.000048,-0.002005, 0.016070,-0.065696,-0.028699,1,-0.008749, 0.000303,-0.008140,1,-0.131476,-0.299936, 9.801180,1,0
1778107866711,   917.860,   917.859, 0.015595, 0.029340,-1.000246, 0.000031, 0.000059,-0.002001, 0.018057,-0.030286,-0.014175,1,-0.010940, 0.000307,-0.006076,1,-0.131470,-0.300353, 9.801167,1,0
1778107866722,   917.865,   917.864, 0.015424, 0.031934,-0.999527, 0.000031, 0.000064,-0.001999, 0.019763, 0.012130,-0.000861,1,-0.014072, 0.000642,-0.004481,1,-0.131501,-0.301125, 9.801144,1,0
1778107866733,   917.869,   917.869, 0.016036, 0.034104,-0.996668, 0.000032, 0.000069,-0.001993, 0.025760, 0.032794, 0.027153,1,-0.015789,-0.000093,-0.003353,1,-0.131493,-0.301746, 9.801125,1,0
1778107866744,   917.874,   917.873, 0.017502, 0.036529,-0.995016, 0.000035, 0.000073,-0.001990, 0.038019, 0.054042, 0.041531,1,-0.018169, 0.000920,-0.001756,1,-0.131512,-0.302437, 9.801103,1,0
1778107866754,   917.879,   917.878, 0.017995, 0.037182,-0.993722, 0.000036, 0.000074,-0.001987, 0.044891, 0.061136, 0.055986,1,-0.020602, 0.001038,-0.000976,1,-0.131587,-0.303628, 9.801065,1,0
1778107866765,   917.883,   917.883, 0.018532, 0.036876,-0.991564, 0.000037, 0.000074,-0.001983, 0.050121, 0.057328, 0.077127,1,-0.021205, 0.000432, 0.000884,1,-0.131621,-0.304437, 9.801040,1,0
1778107866776,   917.888,   917.887, 0.020147, 0.036696,-0.991807, 0.000040, 0.000074,-0.001984, 0.065188, 0.053148, 0.077965,1,-0.023927, 0.000070, 0.001485,1,-0.131630,-0.305361, 9.801011,1,0
1778107866787,   917.893,   917.892, 0.020420, 0.035932,-0.991655, 0.000041, 0.000072,-0.001983, 0.068660, 0.045740, 0.076153,1,-0.024776,-0.001321, 0.001710,1,-0.131579,-0.306785, 9.800967,1,0
1778107866797,   917.897,   917.897, 0.019020, 0.024763,-0.981555, 0.000039, 0.000049,-0.001963, 0.054961,-0.064767, 0.175174,1,-0.025148, 0.000298, 0.000503,1,-0.131562,-0.307771, 9.800937,1,0
1778107866808,   917.902,   917.901, 0.050962, 0.059112,-0.973842, 0.000110, 0.000124,-0.001947, 0.185737,-0.019375, 0.385228,1,-0.034399, 0.009289,-0.002034,1,-0.131820,-0.308987, 9.800895,1,0
1778107866819,   917.907,   917.907,-0.004411, 0.057215,-1.012172,-0.000020, 0.000114,-0.002030,-0.174111, 0.250702,-0.125157,1,-0.007981,-0.025147, 0.007395,1,-0.130694,-0.310436, 9.800864,1,0
1778107866830,   917.911,   917.911, 0.013252, 0.000773,-0.989218, 0.000031,-0.000005,-0.001976,-0.000692,-0.302523, 0.099956,1, 0.003585,-0.001354,-0.001131,1,-0.130638,-0.310081, 9.800876,1,0
1778107866840,   917.916,   917.915, 0.016854, 0.056613,-1.006072, 0.000035, 0.000120,-0.002010,-0.069025, 0.268691, 0.431391,1,-0.045855, 0.008549, 0.010864,1,-0.130708,-0.311601, 9.800827,1,0
1778107866851,   917.921,   917.921, 0.066002, 0.037880,-1.096342, 0.000137, 0.000071,-0.002205, 0.515483, 0.058036,-0.950690,1,-0.037699, 0.002081, 0.010126,1,-0.131793,-0.313677, 9.800746,1,0
1778107866862,   917.926,   917.925, 0.006017, 0.014997,-0.996685, 0.000005, 0.000025,-0.001990,-0.124720, 0.088400,-0.286840,1,-0.024128,-0.017935, 0.008835,1,-0.131027,-0.314893, 9.800717,1,0
1778107866873,   917.930,   917.929, 0.019242, 0.025659,-0.982568, 0.000038, 0.000051,-0.001964, 0.133808,-0.221634, 0.243390,1,-0.028100, 0.006147, 0.008634,1,-0.131128,-0.315717, 9.800690,1,0
1778107866883,   917.935,   917.935, 0.037116, 0.062186,-1.000005, 0.000077, 0.000130,-0.002001, 0.232234, 0.291093,-0.006121,1,-0.049619, 0.008246, 0.020731,1,-0.131804,-0.319052, 9.800572,1,0
1778107866894,   917.940,   917.939, 0.025097, 0.031439,-0.948451, 0.000050, 0.000062,-0.001892, 0.167048,-0.048099, 0.185538,1,-0.023801,-0.005621, 0.014626,1,-0.131746,-0.320034, 9.800541,1,0
1778107866905,   917.946,   917.942, 0.029047, 0.038112,-1.019567, 0.000060, 0.000076,-0.002045, 0.015232,-0.024512, 0.544965,1,-0.027326,-0.015595, 0.013931,1,-0.131123,-0.321107, 9.800514,1,0
1778107866916,   917.951,   917.951, 0.042785, 0.068780,-1.039525, 0.000086, 0.000142,-0.002082, 0.288491, 0.351329,-0.393812,1,-0.018097,-0.001655, 0.013332,1,-0.131079,-0.323284, 9.800444,1,0
1778107866927,   917.956,   917.955, 0.025145, 0.025453,-0.927629, 0.000047, 0.000048,-0.001848, 0.125601,-0.016477, 0.391800,1, 0.005254,-0.015310, 0.008701,1,-0.130581,-0.323107, 9.800456,1,0
1778107866937,   917.960,   917.960, 0.058317, 0.031316,-0.984941, 0.000118, 0.000062,-0.001974, 0.441099,-0.016856, 0.141452,1,-0.030826, 0.012639, 0.009816,1,-0.130879,-0.324151, 9.800417,1,0
1778107866948,   917.965,   917.965, 0.068893, 0.070635,-1.057221, 0.000139, 0.000145,-0.002122, 0.544818, 0.367315,-0.567417,1,-0.032638,-0.010993, 0.006286,1,-0.130726,-0.325585, 9.800372,1,0
1778107866959,   917.970,   917.969, 0.053279, 0.029769,-0.982984, 0.000107, 0.000055,-0.001961, 0.428051, 0.268763,-0.227177,1, 0.011810,-0.025458, 0.007477,1,-0.129786,-0.325489, 9.800387,1,0
1778107866970,   917.974,   917.974, 0.041285, 0.019171,-0.948846, 0.000081, 0.000036,-0.001894, 0.275974,-0.137359, 0.495401,1,-0.018837,-0.004592, 0.005292,1,-0.128863,-0.325483, 9.800400,1,0
1778107866980,   917.979,   917.979, 0.080456, 0.061632,-1.003526, 0.000165, 0.000128,-0.002011, 0.659862, 0.277910,-0.040863,1,-0.028061, 0.007337, 0.014818,1,-0.129193,-0.326664, 9.800356,1,0
1778107866991,   917.984,   917.983, 0.064446, 0.041405,-1.021739, 0.000127, 0.000081,-0.002043, 0.726167, 0.316193,-0.318776,1,-0.016760,-0.006199, 0.013429,1,-0.129072,-0.326982, 9.800347,1,0
1778107867002,   917.988,   917.988, 0.056146, 0.015981,-0.984511, 0.000112, 0.000029,-0.001965, 0.422850,-0.170025, 0.145612,1, 0.001049,-0.005559, 0.002970,1,-0.127717,-0.326734, 9.800373,1,0
1778107867013,   917.993,   917.993, 0.074135, 0.031816,-0.991821, 0.000150, 0.000065,-0.001984, 0.599072,-0.015100, 0.073918,1,-0.012868, 0.009523, 0.004482,1,-0.128007,-0.327190, 9.800354,1,0
1778107867023,   917.998,   917.997, 0.086447, 0.034166,-0.996764, 0.000174, 0.000069,-0.001993, 0.708229, 0.087843,-0.087799,1,-0.005323, 0.008003, 0.005467,1,-0.128380,-0.327517, 9.800339,1,0
1778107867034,   918.002,   918.002, 0.070582, 0.010383,-0.966961, 0.000140, 0.000018,-0.001931, 0.563308,-0.225926, 0.317679,1, 0.004279,-0.003587,-0.001100,1,-0.129188,-0.327987, 9.800312,1,0
1778107867045,   918.007,   918.007, 0.064583, 0.015489,-0.977322, 0.000128, 0.000031,-0.001955, 0.504144,-0.176238, 0.216056,1,-0.007282, 0.004255, 0.000997,1,-0.129233,-0.328181, 9.800305,1,0
1778107867056,   918.012,   918.011, 0.070535, 0.033930,-1.001166, 0.000142, 0.000069,-0.002004, 0.599075,-0.031931,-0.107543,1,-0.008216, 0.005450, 0.000996,1,-0.129516,-0.328540, 9.800289,1,0
1778107867066,   918.016,   918.016, 0.051800, 0.019381,-0.951836, 0.000102, 0.000038,-0.001899, 0.378560,-0.138258, 0.465975,1, 0.008965,-0.001086, 0.002685,1,-0.129415,-0.328264, 9.800300,1,0
1778107867077,   918.021,   918.021, 0.052615, 0.010385,-0.944938, 0.000105, 0.000019,-0.001888, 0.386296,-0.226397, 0.533616,1,-0.005038, 0.010081, 0.003229,1,-0.129745,-0.328266, 9.800296,1,0
1778107867088,   918.026,   918.025, 0.059560, 0.045022,-1.007948, 0.000120, 0.000093,-0.002020, 0.428900, 0.015492, 0.100292,1,-0.016651, 0.009673, 0.003461,1,-0.130177,-0.328904, 9.800268,1,0
1778107867099,   918.380,   918.379, 0.074104, 0.031618,-0.993758, 0.000149, 0.000063,-0.001987, 0.603057,-0.027423, 0.050501,1,-0.037142, 0.004304, 0.006329,1,-0.121651,-0.335868, 9.800141,1,0
1778107867109,   918.385,   918.384, 0.072961, 0.032224,-0.993974, 0.000146, 0.000064,-0.001988, 0.593714,-0.021864, 0.052511,1,-0.039035, 0.002043, 0.006528,1,-0.121803,-0.338113, 9.800062,1,0
1778107867120,   918.389,   918.389, 0.071312, 0.031910,-0.996397, 0.000143, 0.000064,-0.001993, 0.577460,-0.026527, 0.028701,1,-0.040706, 0.002225, 0.006891,1,-0.121891,-0.339708, 9.800007,1,0
1778107867131,   918.394,   918.393, 0.071794, 0.034465,-0.994150, 0.000144, 0.000069,-0.001988, 0.573424,-0.007642, 0.042078,1,-0.042736, 0.001245, 0.006731,1,-0.121931,-0.341379, 9.799948,1,0
1778107867142,   918.399,   918.398, 0.072868, 0.033925,-0.996092, 0.000146, 0.000068,-0.001992, 0.592563,-0.010921, 0.031537,1,-0.042990, 0.001533, 0.005202,1,-0.122034,-0.343884, 9.799859,1,0
1778107867153,   918.403,   918.403, 0.069320, 0.036526,-0.997233, 0.000138, 0.000073,-0.001995, 0.557635, 0.014071, 0.020332,1,-0.042366, 0.000582, 0.006257,1,-0.122239,-0.343656, 9.799865,1,0
1778107867163,   918.408,   918.407, 0.071496, 0.036492,-0.997650, 0.000143, 0.000073,-0.001995, 0.585320, 0.008812, 0.016192,1,-0.039678, 0.001094, 0.005004,1,-0.122287,-0.345211, 9.799809,1,0
1778107867174,   918.413,   918.412, 0.068995, 0.037504,-0.999524, 0.000138, 0.000075,-0.001999, 0.554319, 0.020600,-0.002240,1,-0.036707,-0.000617, 0.004111,1,-0.122284,-0.347414, 9.799731,1,0
1778107867185,   918.417,   918.417, 0.070272, 0.038153,-1.005522, 0.000141, 0.000076,-0.002012, 0.566818, 0.025572,-0.061113,1,-0.035573, 0.000402, 0.002940,1,-0.122322,-0.348800, 9.799682,1,0
1778107867196,   918.422,   918.421, 0.070514, 0.037781,-1.004675, 0.000141, 0.000075,-0.002009, 0.574452, 0.030402,-0.066192,1,-0.033735, 0.001922, 0.001538,1,-0.122377,-0.350123, 9.799634,1,0
1778107867206,   918.427,   918.426, 0.069554, 0.038647,-1.003504, 0.000139, 0.000077,-0.002007, 0.559594, 0.027146,-0.041446,1,-0.031931, 0.002276, 0.002024,1,-0.122511,-0.352049, 9.799563,1,0
1778107867217,   918.431,   918.431, 0.071304, 0.038037,-1.002266, 0.000143, 0.000076,-0.002004, 0.576615, 0.019930,-0.029352,1,-0.031393, 0.004131, 0.000373,1,-0.122669,-0.353278, 9.799517,1,0
1778107867228,   918.436,   918.435, 0.073468, 0.037198,-0.997253, 0.000147, 0.000075,-0.001994, 0.597371, 0.007443,-0.002537,1,-0.031452, 0.004225,-0.000056,1,-0.122864,-0.354529, 9.799469,1,0
1778107867239,   918.441,   918.441, 0.069616, 0.036869,-0.994834, 0.000139, 0.000074,-0.001990, 0.559733, 0.005492, 0.043427,1,-0.028514, 0.001893, 0.001168,1,-0.122977,-0.356249, 9.799405,1,0
1778107867249,   918.445,   918.445, 0.069697, 0.036776,-0.988226, 0.000139, 0.000074,-0.001976, 0.560411, 0.003537, 0.108186,1,-0.025993, 0.004152, 0.002486,1,-0.123106,-0.357279, 9.799366,1,0
1778107867260,   918.450,   918.449, 0.071879, 0.035499,-0.982700, 0.000144, 0.000071,-0.001965, 0.589348,-0.014056, 0.156758,1,-0.026964, 0.003059, 0.001377,1,-0.123240,-0.358328, 9.799326,1,0
1778107867271,   918.455,   918.455, 0.070166, 0.035149,-0.983167, 0.000140, 0.000070,-0.001966, 0.564765,-0.014965, 0.157699,1,-0.023626, 0.000900, 0.002300,1,-0.123336,-0.359809, 9.799271,1,0
1778107867282,   918.460,   918.459, 0.071040, 0.034295,-0.982555, 0.000142, 0.000069,-0.001965, 0.580281,-0.034855, 0.145188,1,-0.023999,-0.000477, 0.002862,1,-0.123344,-0.360738, 9.799236,1,0
1778107867292,   918.464,   918.463, 0.069982, 0.036732,-0.983292, 0.000140, 0.000074,-0.001967, 0.572767,-0.019400, 0.167757,1,-0.023982,-0.001778, 0.002054,1,-0.123300,-0.361692, 9.799202,1,0
1778107867303,   918.469,   918.469, 0.074719, 0.037106,-0.984571, 0.000150, 0.000074,-0.001969, 0.609578, 0.000972, 0.143814,1,-0.023119,-0.001994, 0.001325,1,-0.123158,-0.363059, 9.799153,1,0
1778107867314,   918.474,   918.473, 0.070486, 0.039203,-0.980667, 0.000141, 0.000079,-0.001961, 0.586836, 0.010427, 0.163525,1,-0.021728,-0.002642, 0.000005,1,-0.123062,-0.363922, 9.799123,1,0
1778107867325,   918.478,   918.477, 0.070919, 0.040418,-0.985182, 0.000142, 0.000081,-0.001971, 0.566718, 0.029286, 0.174357,1,-0.018192,-0.002494, 0.000657,1,-0.122961,-0.364679, 9.799095,1,0
1778107867336,   918.483,   918.483, 0.072910, 0.042281,-0.992086, 0.000146, 0.000085,-0.001985, 0.592196, 0.049035, 0.070025,1,-0.016917,-0.003719,-0.001142,1,-0.122784,-0.365706, 9.799060,1,0
1778107867346,   918.488,   918.487, 0.072474, 0.042885,-0.998436, 0.000145, 0.000086,-0.001997, 0.580776, 0.059790, 0.012973,1,-0.014703,-0.003960,-0.001222,1,-0.122631,-0.366332, 9.799038,1,0
1778107867357,   918.492,   918.491, 0.070453, 0.041975,-1.000471, 0.000141, 0.000084,-0.002001, 0.582413, 0.048636, 0.004333,1,-0.011931,-0.005038,-0.002621,1,-0.122423,-0.366823, 9.799023,1,0
1778107867368,   918.497,   918.497, 0.067722, 0.044993,-1.002073, 0.000135, 0.000090,-0.002004, 0.541825, 0.073775,-0.027982,1,-0.011543,-0.002436,-0.003357,1,-0.122283,-0.367528, 9.798998,1,0
1778107867379,   918.502,   918.501, 0.071804, 0.045669,-1.000257, 0.000144, 0.000091,-0.002000, 0.569105, 0.088831,-0.021773,1,-0.006458,-0.002832,-0.002485,1,-0.122172,-0.367844, 9.798987,1,0
1778107867389,   918.506,   918.505, 0.070284, 0.044396,-0.997410, 0.000140, 0.000088,-0.001994, 0.578673, 0.074865, 0.006353,1,-0.005208,-0.002030,-0.004534,1,-0.122052,-0.368045, 9.798981,1,0
1778107867400,   918.511,   918.511, 0.070634, 0.046283,-0.999248, 0.000141, 0.000093,-0.001999, 0.570788, 0.085730,-0.000296,1, 0.000172,-0.003613,-0.003263,1,-0.121875,-0.368153, 9.798979,1,0
1778107867411,   918.516,   918.515, 0.068624, 0.046266,-0.997682, 0.000137, 0.000092,-0.001995, 0.562525, 0.090120,-0.006792,1, 0.002034,-0.002127,-0.002397,1,-0.121777,-0.368080, 9.798984,1,0
1778107867422,   918.520,   918.519, 0.068946, 0.047845,-0.990993, 0.000138, 0.000096,-0.001982, 0.540546, 0.090880, 0.042277,1, 0.004131,-0.001245,-0.003913,1,-0.121701,-0.367945, 9.798989,1,0
1778107867432,   918.525,   918.525, 0.070858, 0.045435,-0.988427, 0.000142, 0.000091,-0.001977, 0.573128, 0.078016, 0.105842,1, 0.008286, 0.001031,-0.004125,1,-0.121760,-0.367501, 9.799006,1,0
1778107867443,   918.530,   918.529, 0.066004, 0.046374,-0.984951, 0.000132, 0.000093,-0.001970, 0.524301, 0.077741, 0.119206,1, 0.009892,-0.000217,-0.004635,1,-0.121736,-0.367109, 9.799020,1,0
1778107867454,   918.534,   918.533, 0.066001, 0.046899,-0.978216, 0.000132, 0.000094,-0.001956, 0.529191, 0.088873, 0.179871,1, 0.011540, 0.000381,-0.005206,1,-0.121742,-0.366696, 9.799035,1,0
1778107867465,   918.539,   918.539, 0.065024, 0.045728,-0.974508, 0.000130, 0.000091,-0.001949, 0.515879, 0.082565, 0.242404,1, 0.016914, 0.001864,-0.006838,1,-0.121801,-0.365765, 9.799069,1,0
1778107867475,   918.544,   918.543, 0.065827, 0.046920,-0.978408, 0.000132, 0.000094,-0.001957, 0.532926, 0.094701, 0.217987,1, 0.017679, 0.002618,-0.006889,1,-0.121865,-0.365088, 9.799094,1,0
1778107867486,   918.548,   918.548, 0.059194, 0.047458,-0.984094, 0.000118, 0.000095,-0.001969, 0.458664, 0.101356, 0.148464,1, 0.022005,-0.001231,-0.007721,1,-0.121826,-0.363910, 9.799138,1,0
1778107867497,   918.553,   918.553, 0.062340, 0.046276,-0.988022, 0.000125, 0.000092,-0.001976, 0.489497, 0.090714, 0.109983,1, 0.024279, 0.001922,-0.008989,1,-0.121864,-0.362950, 9.799173,1,0
1778107867508,   918.558,   918.557, 0.059303, 0.043640,-1.000991, 0.000118, 0.000087,-0.002002, 0.496046, 0.070511, 0.025764,1, 0.023425, 0.000424,-0.008387,1,-0.121909,-0.362044, 9.799207,1,0
1778107867518,   918.562,   918.562, 0.060066, 0.042872,-1.008176, 0.000120, 0.000086,-0.002017, 0.467089, 0.059688,-0.087577,1, 0.025105, 0.002936,-0.007710,1,-0.121972,-0.360586, 9.799259,1,0
1778107867529,   918.569,   918.569, 0.053710, 0.042969,-1.008869, 0.000107, 0.000086,-0.002018, 0.404602, 0.062136,-0.094315,1, 0.025823, 0.002255,-0.008637,1,-0.122130,-0.359087, 9.799313,1,0
1778107867540,   918.574,   918.573, 0.057205, 0.040881,-1.009250, 0.000115, 0.000081,-0.002019, 0.428520, 0.059144,-0.082026,1, 0.029599, 0.004471,-0.009785,1,-0.122262,-0.357966, 9.799352,1,0
1778107867551,   918.579,   918.578, 0.050944, 0.040631,-1.006790, 0.000101, 0.000081,-0.002013, 0.377112, 0.042120,-0.073828,1, 0.032273, 0.003258,-0.012865,1,-0.122491,-0.356135, 9.799416,1,0
1778107867562,   918.583,   918.583, 0.049420, 0.040167,-1.006481, 0.000099, 0.000080,-0.002013, 0.362000, 0.038934,-0.070752,1, 0.036649, 0.005724,-0.011628,1,-0.122681,-0.354740, 9.799464,1,0
1778107867572,   918.588,   918.587, 0.049682, 0.042755,-1.010425, 0.000099, 0.000086,-0.002021, 0.370321, 0.053125,-0.106820,1, 0.035851, 0.003438,-0.012368,1,-0.122829,-0.353327, 9.799513,1,0
1778107867583,   918.593,   918.592, 0.047882, 0.040100,-1.011740, 0.000096, 0.000080,-0.002024, 0.346657, 0.041920,-0.122197,1, 0.038935, 0.000147,-0.012954,1,-0.122899,-0.351083, 9.799593,1,0
1778107867594,   918.597,   918.597, 0.044202, 0.037671,-1.007025, 0.000088, 0.000075,-0.002014, 0.310608, 0.019604,-0.075901,1, 0.038601,-0.001469,-0.013611,1,-0.122849,-0.349584, 9.799647,1,0
1778107867605,   918.602,   918.601, 0.042234, 0.035878,-1.003635, 0.000084, 0.000072,-0.002007, 0.297723, 0.009020,-0.036528,1, 0.038123, 0.000222,-0.015331,1,-0.122791,-0.348083, 9.799702,1,0
1778107867615,   918.607,   918.606, 0.041477, 0.033999,-1.004723, 0.000083, 0.000068,-0.002010, 0.283821,-0.014489,-0.053260,1, 0.039603,-0.001991,-0.016149,1,-0.122916,-0.347678, 9.799714,1,0
1778107867626,   918.611,   918.611, 0.042775, 0.028091,-1.002201, 0.000086, 0.000056,-0.002005, 0.296575,-0.070803,-0.028469,1, 0.042857, 0.001271,-0.018006,1,-0.122910,-0.346020, 9.799773,1,0
1778107867637,   918.616,   918.615, 0.040161, 0.024755,-0.997916, 0.000080, 0.000050,-0.001996, 0.296234,-0.103598, 0.009001,1, 0.043190,-0.000326,-0.020485,1,-0.122902,-0.344328, 9.799832,1,0
1778107867648,   918.621,   918.621, 0.043955, 0.022980,-0.998291, 0.000088, 0.000046,-0.001997, 0.308020,-0.116663, 0.010021,1, 0.043829, 0.004096,-0.020035,1,-0.123052,-0.341746, 9.799921,1,0
1778107867658,   918.625,   918.625, 0.046661, 0.020011,-0.996359, 0.000094, 0.000040,-0.001993, 0.334469,-0.144020, 0.029031,1, 0.045907, 0.002464,-0.020195,1,-0.123127,-0.339974, 9.799982,1,0
1778107867669,   918.630,   918.629, 0.048138, 0.016037,-0.995664, 0.000096, 0.000032,-0.001992, 0.329668,-0.172508, 0.043565,1, 0.045456, 0.001391,-0.020817,1,-0.123149,-0.338172, 9.800044,1,0
1778107867680,   918.635,   918.635, 0.046494, 0.019886,-0.995983, 0.000093, 0.000040,-0.001992, 0.332831,-0.140970, 0.032866,1, 0.040424,-0.001403,-0.018054,1,-0.123107,-0.335733, 9.800128,1,0
1778107867691,   918.640,   918.639, 0.048474, 0.022060,-0.990928, 0.000097, 0.000044,-0.001982, 0.342544,-0.115907, 0.057846,1, 0.039833,-0.004257,-0.016882,1,-0.122948,-0.334170, 9.800183,1,0
1778107867702,   918.644,   918.643, 0.050413, 0.024110,-0.984228, 0.000101, 0.000048,-0.001968, 0.379442,-0.106421, 0.123466,1, 0.040072,-0.006820,-0.018350,1,-0.122682,-0.332583, 9.800241,1,0
1778107867712,   918.649,   918.649, 0.044325, 0.029507,-0.985332, 0.000088, 0.000060,-0.001971, 0.312534,-0.041284, 0.137510,1, 0.036797,-0.010765,-0.016545,1,-0.122075,-0.330426, 9.800322,1,0
1778107867723,   919.003,   919.003, 0.023831, 0.012669,-1.017594, 0.000047, 0.000025,-0.002035, 0.123975, 0.000366,-0.173934,1, 0.076757, 0.001201,-0.029579,1,-0.109939,-0.123561, 9.805255,1,0
1778107867734,   919.008,   919.007, 0.024670, 0.014538,-1.007310, 0.000049, 0.000029,-0.002015, 0.136065, 0.026501,-0.086680,1, 0.075417,-0.000686,-0.029655,1,-0.109945,-0.120619, 9.805292,1,0
1778107867745,   919.012,   919.011, 0.029180, 0.008040,-1.006211, 0.000059, 0.000016,-0.002013, 0.146146,-0.003985,-0.065867,1, 0.077253,-0.005125,-0.031446,1,-0.109754,-0.117633, 9.805330,1,0
1778107867755,   919.017,   919.017, 0.030081, 0.006272,-1.000991, 0.000060, 0.000012,-0.002001, 0.185673,-0.051997,-0.010980,1, 0.076415,-0.010959,-0.034951,1,-0.109251,-0.113033, 9.805390,1,0
1778107867766,   919.022,   919.021, 0.024177, 0.009482,-1.003744, 0.000048, 0.000019,-0.002008, 0.120556,-0.012954,-0.007970,1, 0.078066,-0.015666,-0.034675,1,-0.108626,-0.110014, 9.805431,1,0
1778107867777,   919.026,   919.025, 0.024316, 0.006264,-1.013359, 0.000049, 0.000012,-0.002028, 0.148913,-0.035535,-0.089623,1, 0.079590,-0.017474,-0.035933,1,-0.107954,-0.106915, 9.805473,1,0
1778107867788,   919.031,   919.031, 0.013312, 0.003186,-1.018090, 0.000026, 0.000006,-0.002037, 0.023759,-0.071573,-0.178528,1, 0.078747,-0.021526,-0.036819,1,-0.106651,-0.102329, 9.805536,1,0
1778107867798,   919.036,   919.035, 0.024839,-0.000180,-1.023617, 0.000051,-0.000000,-0.002048, 0.094444,-0.099630,-0.210369,1, 0.074919,-0.008645,-0.038260,1,-0.106182,-0.099337, 9.805572,1,0
1778107867809,   919.040,   919.039, 0.024161, 0.001552,-1.022740, 0.000048, 0.000003,-0.002045, 0.155258,-0.093242,-0.231634,1, 0.069416,-0.003364,-0.038565,1,-0.106011,-0.096603, 9.805601,1,0
1778107867820,   919.045,   919.045, 0.020139,-0.003188,-1.017525, 0.000039,-0.000007,-0.002035, 0.091478,-0.124162,-0.172876,1, 0.072416, 0.002555,-0.036436,1,-0.106031,-0.092447, 9.805641,1,0
1778107867831,   919.050,   919.049, 0.031421,-0.005675,-0.994068, 0.000063,-0.000011,-0.001987, 0.167272,-0.149717,-0.010325,1, 0.069178, 0.005757,-0.036589,1,-0.106191,-0.089706, 9.805665,1,0
1778107867841,   919.054,   919.053, 0.031796,-0.002749,-0.985754, 0.000064,-0.000005,-0.001971, 0.231964,-0.124523, 0.105114,1, 0.065841, 0.005567,-0.035488,1,-0.106413,-0.087121, 9.805686,1,0
1778107867852,   919.059,   919.059, 0.016382,-0.002451,-0.972817, 0.000031,-0.000005,-0.001945, 0.132744,-0.114603, 0.175428,1, 0.066173, 0.001133,-0.033357,1,-0.106499,-0.084556, 9.805707,1,0
1778107867863,   919.064,   919.063, 0.017972, 0.002611,-0.936955, 0.000036, 0.000006,-0.001872, 0.017505,-0.066290, 0.512312,1, 0.066996,-0.000939,-0.029573,1,-0.106390,-0.080633, 9.805741,1,0
1778107867874,   919.068,   919.067, 0.023173, 0.005525,-0.929677, 0.000047, 0.000011,-0.001859, 0.122059,-0.040574, 0.668695,1, 0.068011,-0.001280,-0.032336,1,-0.106332,-0.077969, 9.805763,1,0
1778107867884,   919.073,   919.073, 0.011345, 0.007705,-0.937246, 0.000022, 0.000016,-0.001875, 0.005250, 0.001070, 0.614550,1, 0.067369,-0.008886,-0.031679,1,-0.105951,-0.074077, 9.805798,1,0
1778107867895,   919.078,   919.077, 0.010807, 0.004229,-0.951695, 0.000022, 0.000008,-0.001904,-0.041336,-0.007781, 0.526063,1, 0.069585,-0.008017,-0.032240,1,-0.105605,-0.071371, 9.805821,1,0
1778107867906,   919.082,   919.082, 0.017969,-0.000551,-0.978614, 0.000036,-0.000001,-0.001959, 0.070901,-0.073210, 0.208928,1, 0.065048,-0.003124,-0.037343,1,-0.105296,-0.067404, 9.805853,1,0
1778107867917,   919.087,   919.087, 0.021490, 0.001118,-1.007157, 0.000043, 0.000003,-0.002016, 0.105445,-0.054438,-0.070973,1, 0.060667, 0.001460,-0.036531,1,-0.105310,-0.065029, 9.805869,1,0
1778107867928,   919.092,   919.091, 0.022510, 0.000974,-1.025862, 0.000045, 0.000002,-0.002052, 0.112910,-0.044282,-0.224681,1, 0.062667, 0.007000,-0.036046,1,-0.105537,-0.062637, 9.805882,1,0
1778107867938,   919.096,   919.096, 0.019734,-0.000307,-1.034490, 0.000039,-0.000001,-0.002069, 0.087487,-0.062435,-0.338986,1, 0.060583, 0.011521,-0.037298,1,-0.106105,-0.059049, 9.805898,1,0
1778107867949,   919.101,   919.101, 0.026646, 0.001871,-1.050258, 0.000054, 0.000004,-0.002102, 0.154759,-0.038760,-0.493611,1, 0.058936, 0.014847,-0.035931,1,-0.106644,-0.056744, 9.805906,1,0
1778107867960,   919.106,   919.105, 0.024204, 0.003387,-1.048037, 0.000048, 0.000007,-0.002095, 0.166177,-0.027323,-0.529324,1, 0.056437, 0.012289,-0.034400,1,-0.107149,-0.054536, 9.805913,1,0
1778107867971,   919.110,   919.110, 0.018620, 0.003148,-1.037518, 0.000037, 0.000006,-0.002074, 0.074860,-0.020694,-0.368654,1, 0.056035, 0.014803,-0.030669,1,-0.107834,-0.051214, 9.805923,1,0
1778107867981,   919.115,   919.115, 0.020678, 0.007846,-1.033403, 0.000042, 0.000016,-0.002066, 0.094388, 0.027490,-0.328294,1, 0.053544, 0.016210,-0.030785,1,-0.108490,-0.049122, 9.805927,1,0
1778107867992,   919.120,   919.119, 0.018384, 0.011823,-1.023468, 0.000037, 0.000024,-0.002046, 0.058639, 0.085769,-0.291749,1, 0.056051, 0.011323,-0.028858,1,-0.108954,-0.046966, 9.805932,1,0
1778107868003,   919.124,   919.124, 0.016626, 0.005662,-1.009097, 0.000033, 0.000011,-0.002018, 0.053565, 0.011688,-0.089916,1, 0.060302, 0.009655,-0.031772,1,-0.109540,-0.043462, 9.805942,1,0
1778107868014,   919.129,   919.129, 0.020982, 0.006381,-0.996212, 0.000042, 0.000013,-0.001991, 0.095897, 0.021063, 0.036441,1, 0.059566, 0.010783,-0.032595,1,-0.109928,-0.041140, 9.805947,1,0
1778107868024,   919.134,   919.133, 0.030562, 0.003724,-0.995924, 0.000062, 0.000007,-0.001992, 0.218901, 0.003748, 0.024489,1, 0.057818, 0.010392,-0.035607,1,-0.110355,-0.038863, 9.805952,1,0
1778107868035,   919.138,   919.138, 0.012314, 0.005316,-0.981542, 0.000022, 0.000011,-0.001962, 0.010171, 0.016242, 0.180325,1, 0.057248, 0.002960,-0.036679,1,-0.110606,-0.035536, 9.805962,1,0
1778107868046,   919.143,   919.143, 0.016654, 0.001625,-0.963355, 0.000033, 0.000003,-0.001925, 0.052426,-0.017677, 0.358675,1, 0.058467, 0.010249,-0.038410,1,-0.110961,-0.033253, 9.805965,1,0
1778107868057,   919.148,   919.147, 0.015876,-0.001978,-0.949253, 0.000031,-0.000004,-0.001897, 0.070026,-0.054494, 0.473208,1, 0.055490, 0.005410,-0.041546,1,-0.111228,-0.031063, 9.805970,1,0
1778107868068,   919.153,   919.152, 0.019505,-0.005822,-0.954535, 0.000039,-0.000012,-0.001910, 0.079977,-0.085312, 0.445184,1, 0.054476, 0.000176,-0.041747,1,-0.111303,-0.027882, 9.805979,1,0
1778107868078,   919.157,   919.157, 0.014479,-0.010632,-0.953243, 0.000029,-0.000022,-0.001906, 0.030760,-0.130436, 0.457862,1, 0.051806,-0.004367,-0.041058,1,-0.111204,-0.025846, 9.805985,1,0
1778107868089,   919.162,   919.161, 0.004121,-0.016399,-0.950603, 0.000008,-0.000033,-0.001901,-0.066097,-0.152408, 0.494639,1, 0.049091,-0.005528,-0.039354,1,-0.110948,-0.023912, 9.805993,1,0
1778107868100,   919.167,   919.166, 0.014563,-0.017664,-0.954254, 0.000030,-0.000035,-0.001909, 0.031941,-0.194756, 0.447967,1, 0.041960,-0.000837,-0.039519,1,-0.110866,-0.021268, 9.806001,1,0
1778107868110,   919.171,   919.171, 0.021203,-0.017447,-0.955731, 0.000043,-0.000034,-0.001911, 0.097160,-0.191052, 0.433482,1, 0.040794,-0.003830,-0.038705,1,-0.110748,-0.019705, 9.806005,1,0
1778107868121,   919.176,   919.175, 0.015298,-0.023686,-0.963505, 0.000030,-0.000048,-0.001928, 0.083687,-0.237760, 0.394584,1, 0.037329,-0.003194,-0.037951,1,-0.110652,-0.018201, 9.806009,1,0
1778107868132,   919.181,   919.180, 0.016140,-0.018724,-0.969022, 0.000032,-0.000037,-0.001938, 0.047623,-0.200135, 0.303154,1, 0.030795, 0.002478,-0.033324,1,-0.110673,-0.016323, 9.806012,1,0
1778107868143,   919.185,   919.185, 0.027332,-0.015234,-0.976526, 0.000056,-0.000030,-0.001954, 0.157214,-0.164731, 0.229558,1, 0.029908, 0.004117,-0.035232,1,-0.110843,-0.015153, 9.806012,1,0
1778107868154,   919.192,   919.191, 0.026703,-0.013082,-0.991221, 0.000053,-0.000026,-0.001983, 0.160542,-0.170436, 0.144828,1, 0.029327, 0.006052,-0.036055,1,-0.111141,-0.013426, 9.806011,1,0
1778107868164,   919.197,   919.197, 0.023755,-0.007247,-1.010640, 0.000047,-0.000014,-0.002023, 0.121597,-0.083118,-0.104986,1, 0.025955, 0.002731,-0.032839,1,-0.111381,-0.011890, 9.806010,1,0
1778107868175,   919.202,   919.201, 0.029322,-0.005514,-1.025818, 0.000059,-0.000011,-0.002052, 0.178419,-0.075006,-0.221284,1, 0.023651, 0.002838,-0.033137,1,-0.111506,-0.010932, 9.806010,1,0
1778107868186,   919.206,   919.205, 0.021720,-0.000956,-1.027760, 0.000043,-0.000001,-0.002055, 0.146623,-0.030055,-0.256998,1, 0.020052,-0.000500,-0.032830,1,-0.112954,-0.008565, 9.805996,1,0
1778107868197,   919.211,   919.211, 0.022299,-0.002497,-1.032320, 0.000045,-0.000005,-0.002065, 0.105751,-0.031992,-0.317607,1, 0.019529, 0.000345,-0.032031,1,-0.112926,-0.007383, 9.805997,1,0
1778107868207,   919.216,   919.215, 0.019071, 0.003655,-1.029284, 0.000038, 0.000007,-0.002058, 0.090835, 0.006405,-0.292934,1, 0.014796,-0.000413,-0.032204,1,-0.112927,-0.006787, 9.805998,1,0
1778107868218,   919.220,   919.219, 0.016837, 0.003105,-1.031378, 0.000033, 0.000006,-0.002063, 0.058875, 0.039627,-0.291475,1, 0.016353,-0.000840,-0.030452,1,-0.112882,-0.006181, 9.805999,1,0
1778107868229,   919.225,   919.225, 0.018810,-0.000292,-1.035712, 0.000038,-0.000001,-0.002072, 0.071467,-0.008234,-0.350873,1, 0.014660, 0.004076,-0.030208,1,-0.113019,-0.005280, 9.805997,1,0
1778107868240,   919.230,   919.229, 0.023983,-0.000849,-1.043968, 0.000048,-0.000002,-0.002089, 0.108132,-0.009101,-0.386774,1, 0.009764, 0.007635,-0.029659,1,-0.113279,-0.004871, 9.805994,1,0
1778107868250,   919.234,   919.233, 0.022275,-0.000958,-1.050405, 0.000045,-0.000002,-0.002101, 0.127594,-0.017114,-0.473754,1, 0.005686, 0.009416,-0.029799,1,-0.113655,-0.004620, 9.805990,1,0
1778107868261,   919.239,   919.239, 0.021612,-0.001509,-1.048365, 0.000043,-0.000003,-0.002097, 0.097825,-0.019279,-0.474962,1, 0.003090, 0.009419,-0.029420,1,-0.114174,-0.004467, 9.805984,1,0
1778107868272,   919.244,   919.243, 0.029101,-0.003545,-1.029895, 0.000059,-0.000007,-0.002058, 0.143587,-0.033719,-0.377652,1, 0.002541, 0.007062,-0.031680,1,-0.114472,-0.004364, 9.805981,1,0
1778107868283,   919.248,   919.247, 0.031733,-0.004404,-1.021463, 0.000064,-0.000009,-0.002043, 0.196207,-0.048438,-0.246388,1, 0.004625, 0.007818,-0.034426,1,-0.114754,-0.004233, 9.805978,1,0
1778107868294,   919.253,   919.253, 0.026364, 0.000703,-1.012651, 0.000053, 0.000002,-0.002025, 0.143488, 0.002887,-0.124737,1, 0.006721, 0.002798,-0.035268,1,-0.115074,-0.003968, 9.805974,1,0
1778107868304,   919.258,   919.257, 0.028016,-0.002243,-0.990971, 0.000056,-0.000005,-0.001981, 0.125879, 0.006219,-0.004917,1, 0.011537, 0.003098,-0.034797,1,-0.115168,-0.003578, 9.805973,1,0
1778107868315,   919.262,   919.262, 0.031969,-0.003694,-0.973479, 0.000064,-0.000008,-0.001946, 0.198133,-0.039061, 0.259399,1, 0.012691, 0.003674,-0.038206,1,-0.115400,-0.002754, 9.805970,1,0
1778107868326,   919.267,   919.267, 0.031133,-0.000986,-0.966577, 0.000062,-0.000002,-0.001933, 0.189763,-0.012073, 0.327088,1, 0.011522, 0.004857,-0.036755,1,-0.115575,-0.002334, 9.805968,1,0
1778107868337,   919.271,   919.271, 0.033789,-0.002531,-0.961393, 0.000068,-0.000005,-0.001923, 0.204757,-0.032116, 0.335065,1, 0.010965, 0.006187,-0.037561,1,-0.115699,-0.002126, 9.805967,1,0
1778107868347,   919.625,   919.625, 0.021602,-0.044885,-0.995680, 0.000043,-0.000090,-0.001995, 0.092493,-0.189142, 0.038423,1, 0.104494,-0.029239,-0.070058,1,-0.119177, 0.251678, 9.802695,1,0
1778107868358,   919.630,   919.630, 0.016219,-0.040126,-1.031301, 0.000032,-0.000080,-0.002064, 0.040953,-0.136555,-0.311039,1, 0.098088,-0.018343,-0.069149,1,-0.117994, 0.257557, 9.802557,1,0
1778107868369,   919.635,   919.635, 0.014428,-0.034028,-1.055972, 0.000029,-0.000067,-0.002114, 0.023794,-0.072998,-0.553075,1, 0.095582,-0.008394,-0.067338,1,-0.117660, 0.261292, 9.802463,1,0
1778107868380,   919.640,   919.639, 0.027500,-0.031647,-1.074889, 0.000056,-0.000063,-0.002150, 0.092305,-0.099614,-0.745914,1, 0.090224, 0.004749,-0.070042,1,-0.117774, 0.264867, 9.802365,1,0
1778107868390,   919.644,   919.644, 0.028844,-0.022077,-1.081641, 0.000058,-0.000043,-0.002163, 0.164666, 0.052927,-0.805038,1, 0.088655, 0.004397,-0.070048,1,-0.118231, 0.269976, 9.802220,1,0
1778107868401,   919.649,   919.649, 0.026271,-0.018399,-1.107149, 0.000052,-0.000037,-0.002216, 0.139337, 0.092554,-1.055290,1, 0.092824, 0.000600,-0.071829,1,-0.118312, 0.273558, 9.802120,1,0
1778107868412,   919.654,   919.653, 0.026621,-0.011655,-1.120217, 0.000054,-0.000023,-0.002241, 0.181905, 0.125487,-1.210426,1, 0.093101, 0.001017,-0.075787,1,-0.118436, 0.277151, 9.802017,1,0
1778107868423,   919.658,   919.658, 0.016876,-0.011541,-1.104974, 0.000032,-0.000023,-0.002209, 0.047286, 0.169077,-1.034215,1, 0.100905,-0.006625,-0.075490,1,-0.118186, 0.282877, 9.801857,1,0
1778107868433,   919.663,   919.663, 0.034300,-0.021329,-1.088449, 0.000070,-0.000044,-0.002176, 0.218145, 0.077022,-0.872274,1, 0.099963, 0.000177,-0.081563,1,-0.118238, 0.286803, 9.801743,1,0
1778107868444,   919.668,   919.667, 0.022603,-0.018433,-1.045113, 0.000043,-0.000036,-0.002088, 0.204012, 0.092556,-0.587346,1, 0.096969,-0.004176,-0.085425,1,-0.118244, 0.290583, 9.801631,1,0
1778107868455,   919.672,   919.672, 0.023890,-0.026671,-1.013697, 0.000048,-0.000054,-0.002025, 0.116085, 0.034342,-0.139503,1, 0.104041, 0.000241,-0.083197,1,-0.118212, 0.296540, 9.801453,1,0
1778107868466,   919.677,   919.677, 0.029985,-0.035082,-0.965423, 0.000061,-0.000071,-0.001927, 0.166003,-0.012467, 0.088470,1, 0.103790, 0.004077,-0.084590,1,-0.118346, 0.298555, 9.801390,1,0
1778107868476,   919.682,   919.681, 0.037235,-0.044677,-0.918304, 0.000075,-0.000090,-0.001835, 0.156066,-0.066227, 0.553890,1, 0.099476, 0.004617,-0.085096,1,-0.118649, 0.302460, 9.801267,1,0
1778107868487,   919.687,   919.686, 0.044456,-0.051861,-0.899102, 0.000090,-0.000104,-0.001797, 0.316470,-0.199200, 0.983864,1, 0.091242, 0.009724,-0.086717,1,-0.119570, 0.309946, 9.801022,1,0
1778107868498,   919.691,   919.691, 0.035096,-0.047419,-0.867276, 0.000069,-0.000094,-0.001732, 0.224281,-0.152116, 1.295853,1, 0.091579, 0.006972,-0.081300,1,-0.119957, 0.313471, 9.800904,1,0
1778107868509,   919.696,   919.695, 0.052274,-0.058576,-0.849735, 0.000106,-0.000118,-0.001699, 0.326928,-0.199880, 1.455993,1, 0.094954, 0.008624,-0.079851,1,-0.120385, 0.317171, 9.800780,1,0
1778107868520,   919.701,   919.700, 0.044449,-0.061227,-0.853631, 0.000088,-0.000123,-0.001707, 0.315367,-0.278523, 1.429368,1, 0.091100,-0.005545,-0.081657,1,-0.120513, 0.322471, 9.800606,1,0
1778107868530,   919.705,   919.705, 0.042880,-0.057318,-0.871162, 0.000086,-0.000114,-0.001743, 0.291985,-0.245103, 1.376281,1, 0.094173,-0.009201,-0.079511,1,-0.120383, 0.324301, 9.800547,1,0
1778107868541,   919.710,   919.709, 0.037569,-0.064173,-0.908331, 0.000074,-0.000129,-0.001818, 0.311336,-0.263409, 1.010476,1, 0.103797,-0.018513,-0.081963,1,-0.119656, 0.330220, 9.800358,1,0
1778107868552,   919.715,   919.714, 0.039712,-0.058655,-0.936672, 0.000080,-0.000116,-0.001875, 0.270672,-0.239412, 0.614568,1, 0.108149,-0.019777,-0.082387,1,-0.118663, 0.336469, 9.800158,1,0
1778107868563,   919.719,   919.719, 0.039919,-0.053103,-0.978149, 0.000080,-0.000105,-0.001959, 0.273518,-0.180800, 0.207676,1, 0.105959,-0.025820,-0.081336,1,-0.117807, 0.340615, 9.800025,1,0
1778107868573,   919.724,   919.723, 0.042165,-0.044121,-1.041128, 0.000085,-0.000087,-0.002085, 0.235304,-0.135204,-0.226834,1, 0.104039,-0.021355,-0.082448,1,-0.116980, 0.344676, 9.799892,1,0
1778107868584,   919.729,   919.728, 0.040498,-0.038510,-1.072865, 0.000081,-0.000077,-0.002148, 0.280863,-0.027726,-0.721497,1, 0.099004,-0.013718,-0.082612,1,-0.116223, 0.350540, 9.799694,1,0
1778107868595,   919.733,   919.733, 0.030909,-0.030972,-1.081684, 0.000061,-0.000061,-0.002164, 0.187066, 0.050065,-0.808115,1, 0.099633,-0.004055,-0.080306,1,-0.116043, 0.354417, 9.799557,1,0
1778107868606,   919.738,   919.737, 0.038033,-0.014060,-1.077336, 0.000076,-0.000027,-0.002155, 0.263154, 0.155899,-0.747749,1, 0.098794, 0.006303,-0.081607,1,-0.116372, 0.358265, 9.799413,1,0
1778107868616,   919.743,   919.742, 0.043251,-0.004275,-1.101720, 0.000087,-0.000007,-0.002205, 0.307342, 0.321638,-1.004972,1, 0.105056, 0.004440,-0.082962,1,-0.116851, 0.364208, 9.799188,1,0
1778107868627,   919.747,   919.747, 0.041913,-0.007964,-1.117680, 0.000084,-0.000016,-0.002237, 0.294072, 0.289609,-1.161641,1, 0.108622,-0.002524,-0.086062,1,-0.116960, 0.368378, 9.799030,1,0
1778107868638,   919.752,   919.751, 0.020134,-0.005205,-1.087846, 0.000039,-0.000010,-0.002175, 0.117099, 0.295465,-0.995986,1, 0.110414,-0.005014,-0.087282,1,-0.116891, 0.372681, 9.798869,1,0
1778107868649,   919.757,   919.757, 0.019164,-0.003481,-1.062577, 0.000039,-0.000006,-0.002124, 0.071084, 0.344494,-0.621685,1, 0.118343,-0.006094,-0.089789,1,-0.116835, 0.379361, 9.798614,1,0
1778107868659,   919.761,   919.761, 0.030566,-0.015881,-1.033437, 0.000062,-0.000032,-0.002065, 0.183046, 0.227679,-0.336095,1, 0.125630,-0.007150,-0.094352,1,-0.116684, 0.384191, 9.798427,1,0
1778107868670,   919.766,   919.765, 0.018168,-0.037832,-1.000460, 0.000036,-0.000076,-0.001999, 0.178250, 0.047015,-0.087706,1, 0.125529,-0.013084,-0.099857,1,-0.116399, 0.389108, 9.798236,1,0
1778107868681,   919.771,   919.771, 0.000134,-0.044781,-0.990075,-0.000002,-0.000090,-0.001980,-0.114685,-0.043559, 0.088659,1, 0.126811,-0.005069,-0.098475,1,-0.115996, 0.396376, 9.797950,1,0
1778107868692,   919.776,   919.775, 0.021885,-0.059075,-0.939055, 0.000045,-0.000118,-0.001875, 0.041736,-0.149711, 0.369876,1, 0.126224, 0.006850,-0.103082,1,-0.116378, 0.401312, 9.797744,1,0
1778107868702,   919.780,   919.779, 0.024489,-0.073965,-0.903887, 0.000049,-0.000149,-0.001804, 0.099957,-0.232247, 0.801281,1, 0.127743, 0.005290,-0.106909,1,-0.116783, 0.406238, 9.797536,1,0
1778107868713,   919.785,   919.785, 0.025104,-0.086232,-0.900136, 0.000050,-0.000174,-0.001800, 0.128612,-0.432842, 0.969935,1, 0.120598, 0.011487,-0.106401,1,-0.117677, 0.413550, 9.797219,1,0
1778107868724,   919.790,   919.789, 0.024197,-0.077531,-0.904253, 0.000048,-0.000154,-0.001809, 0.082632,-0.322721, 0.960173,1, 0.119802, 0.003596,-0.100580,1,-0.118072, 0.418119, 9.797021,1,0
1778107868735,   919.794,   919.793, 0.033536,-0.090761,-0.903954, 0.000068,-0.000183,-0.001808, 0.175644,-0.402444, 0.898471,1, 0.129865,-0.004160,-0.100959,1,-0.118153, 0.423111, 9.796805,1,0
1778107868746,   919.799,   919.799, 0.020838,-0.093306,-0.902378, 0.000041,-0.000187,-0.001804, 0.086578,-0.485420, 0.947224,1, 0.121817,-0.014577,-0.097057,1,-0.117704, 0.430349, 9.796495,1,0
1778107868756,   919.804,   919.803, 0.018653,-0.080753,-0.936393, 0.000037,-0.000161,-0.001875, 0.051141,-0.382958, 0.773572,1, 0.120836,-0.019210,-0.091732,1,-0.118092, 0.436278, 9.796228,1,0
1778107868767,   919.808,   919.807, 0.017154,-0.077661,-0.965180, 0.000035,-0.000155,-0.001933, 0.078525,-0.341159, 0.449034,1, 0.120649,-0.023648,-0.090098,1,-0.117377, 0.440999, 9.796026,1,0
1778107868778,   919.816,   919.815, 0.018984,-0.058707,-1.014411, 0.000039,-0.000117,-0.002031, 0.041411,-0.146075, 0.006989,1, 0.116985,-0.023651,-0.084851,1,-0.115449, 0.450229, 9.795630,1,0
1778107868789,   919.820,   919.820, 0.013613,-0.047446,-1.027924, 0.000026,-0.000094,-0.002057, 0.018817,-0.009287,-0.285123,1, 0.108194,-0.015155,-0.088099,1,-0.114615, 0.456668, 9.795341,1,0
1778107868799,   919.825,   919.825, 0.020343,-0.036240,-1.031103, 0.000040,-0.000072,-0.002063, 0.085037, 0.104825,-0.316489,1, 0.108039,-0.007802,-0.087693,1,-0.114440, 0.460888, 9.795145,1,0
1778107868810,   919.830,   919.829, 0.034058,-0.024800,-1.065520, 0.000068,-0.000049,-0.002134, 0.244677, 0.169853,-0.468559,1, 0.105023,-0.002148,-0.092137,1,-0.114509, 0.464987, 9.794950,1,0
1778107868821,   919.834,   919.834, 0.030632,-0.010440,-1.093640, 0.000061,-0.000019,-0.002190, 0.186043, 0.367870,-0.930245,1, 0.103223,-0.010261,-0.093502,1,-0.114315, 0.470885, 9.794671,1,0
1778107868832,   919.839,   919.839, 0.033401,-0.022071,-1.088169, 0.000067,-0.000045,-0.002177, 0.213350, 0.258092,-0.876801,1, 0.112828,-0.007448,-0.099851,1,-0.114181, 0.475229, 9.794463,1,0
1778107868842,   919.844,   919.843, 0.018866,-0.015169,-1.034007, 0.000036,-0.000029,-0.002065, 0.109905, 0.288860,-0.455713,1, 0.108996,-0.003707,-0.101979,1,-0.114155, 0.479470, 9.794256,1,0
1778107868853,   919.849,   919.848, 0.035093,-0.021662,-1.036951, 0.000071,-0.000043,-0.002075, 0.229655, 0.273228,-0.375071,1, 0.125111, 0.001272,-0.103543,1,-0.114529, 0.486431, 9.793909,1,0
1778107868864,   919.853,   919.853, 0.047025,-0.042606,-1.029442, 0.000095,-0.000086,-0.002059, 0.346599, 0.072824,-0.301678,1, 0.129346,-0.005966,-0.110660,1,-0.114552, 0.491444, 9.793658,1,0
1778107868875,   919.858,   919.857, 0.027990,-0.062487,-1.001426, 0.000055,-0.000126,-0.002001, 0.196330,-0.102545,-0.106414,1, 0.124397,-0.006769,-0.112620,1,-0.114477, 0.496325, 9.793413,1,0
1778107868885,   919.863,   919.862, 0.034599,-0.065794,-0.986348, 0.000070,-0.000132,-0.001972, 0.224238,-0.142748, 0.120318,1, 0.114662, 0.011587,-0.110002,1,-0.115172, 0.503178, 9.793056,1,0
1778107868896,   919.867,   919.867, 0.036744,-0.072084,-0.939805, 0.000073,-0.000144,-0.001877, 0.244637,-0.200013, 0.576521,1, 0.115757, 0.009374,-0.111869,1,-0.115791, 0.507608, 9.792819,1,0
1778107868907,   919.872,   919.871, 0.052719,-0.094638,-0.880385, 0.000106,-0.000190,-0.001758, 0.343710,-0.356541, 1.057573,1, 0.118929, 0.010439,-0.113170,1,-0.116403, 0.512231, 9.792571,1,0
1778107868918,   919.877,   919.876, 0.039392,-0.092349,-0.896014, 0.000077,-0.000185,-0.001792, 0.269304,-0.387698, 1.005370,1, 0.104315,-0.000018,-0.109468,1,-0.117033, 0.518583, 9.792230,1,0
1778107868929,   919.881,   919.881, 0.031689,-0.084611,-0.923915, 0.000062,-0.000168,-0.001850, 0.193736,-0.307670, 0.731534,1, 0.110060,-0.007786,-0.103178,1,-0.117010, 0.522761, 9.792007,1,0
1778107868939,   919.886,   919.885, 0.039525,-0.102453,-0.916855, 0.000079,-0.000206,-0.001833, 0.301176,-0.406703, 0.722207,1, 0.116323,-0.014869,-0.105185,1,-0.116726, 0.527226, 9.791772,1,0
1778107868950,   919.891,   919.890, 0.029153,-0.103539,-0.920406, 0.000057,-0.000207,-0.001840, 0.169983,-0.482370, 0.765370,1, 0.108275,-0.021689,-0.101514,1,-0.115809, 0.533665, 9.791433,1,0
1778107868961,   920.245,   920.244, 0.026303,-0.093976,-0.954194, 0.000053,-0.000187,-0.001911, 0.167887, 0.249674, 0.668217,1,-0.076728,-0.020403,-0.003262,1,-0.112309, 0.608293, 9.787122,1,0
1778107868972,   920.249,   920.249, 0.033219,-0.019112,-0.939809, 0.000067,-0.000037,-0.001879, 0.213968, 0.418191, 0.570917,1,-0.083805,-0.012761,-0.005504,1,-0.111724, 0.605092, 9.787327,1,0
1778107868982,   920.254,   920.253, 0.040357, 0.004865,-0.992171, 0.000081, 0.000011,-0.001987, 0.263837, 0.578441, 0.267474,1,-0.090559,-0.005738,-0.009278,1,-0.111485, 0.601592, 9.787545,1,0
1778107868993,   920.259,   920.258, 0.042578, 0.010743,-1.023659, 0.000085, 0.000022,-0.002049, 0.306195, 0.702321,-0.250837,1,-0.084437,-0.003598,-0.016652,1,-0.111333, 0.596444, 9.787862,1,0
1778107869004,   920.263,   920.263, 0.046128, 0.002783,-1.045035, 0.000092, 0.000005,-0.002091, 0.340975, 0.621195,-0.460276,1,-0.074256, 0.002187,-0.024616,1,-0.111406, 0.593437, 9.788044,1,0
1778107869015,   920.268,   920.267, 0.053332,-0.012355,-1.079294, 0.000107,-0.000025,-0.002160, 0.368876, 0.561164,-0.563723,1,-0.072280, 0.005146,-0.028651,1,-0.111546, 0.592021, 9.788128,1,0
1778107869025,   920.273,   920.273, 0.051217,-0.022449,-1.093701, 0.000102,-0.000046,-0.002189, 0.389694, 0.366971,-0.937130,1,-0.063702, 0.013936,-0.038691,1,-0.112671, 0.586723, 9.788434,1,0
1778107869036,   920.277,   920.277, 0.048742,-0.041353,-1.076398, 0.000097,-0.000084,-0.002152, 0.364740, 0.179233,-0.767319,1,-0.056999, 0.017240,-0.041845,1,-0.113381, 0.584408, 9.788565,1,0
1778107869047,   920.282,   920.281, 0.049685,-0.074493,-1.044138, 0.000100,-0.000151,-0.002087, 0.389775,-0.057563,-0.525662,1,-0.056483, 0.024150,-0.042056,1,-0.114384, 0.582194, 9.788685,1,0
1778107869058,   920.287,   920.287, 0.045414,-0.082857,-1.035527, 0.000090,-0.000166,-0.002071, 0.329650,-0.233491,-0.366195,1,-0.059313, 0.021595,-0.037502,1,-0.115859, 0.578691, 9.788876,1,0
1778107869068,   920.292,   920.291, 0.059857,-0.095752,-1.025701, 0.000121,-0.000192,-0.002051, 0.445125,-0.295465,-0.328960,1,-0.061000, 0.026073,-0.030221,1,-0.116887, 0.576320, 9.789002,1,0
1778107869079,   920.296,   920.295, 0.052377,-0.109911,-1.000279, 0.000104,-0.000221,-0.001999, 0.439768,-0.441178,-0.176109,1,-0.064374, 0.021210,-0.022448,1,-0.117831, 0.573819, 9.789139,1,0
1778107869090,   920.301,   920.301, 0.050282,-0.119948,-0.981616, 0.000100,-0.000241,-0.001962, 0.374024,-0.606119, 0.162967,1,-0.075919, 0.026075,-0.003140,1,-0.119240, 0.569696, 9.789362,1,0
1778107869101,   920.306,   920.305, 0.055993,-0.100639,-0.968628, 0.000112,-0.000200,-0.001937, 0.439619,-0.519256, 0.231649,1,-0.091568, 0.024032, 0.008232,1,-0.120218, 0.566248, 9.789550,1,0
1778107869111,   920.310,   920.309, 0.049122,-0.082780,-0.944569, 0.000098,-0.000164,-0.001887, 0.412593,-0.322881, 0.390973,1,-0.096271, 0.012774, 0.018377,1,-0.120796, 0.562500, 9.789760,1,0
1778107869122,   920.315,   920.315, 0.034504,-0.074146,-0.913233, 0.000068,-0.000148,-0.001824, 0.217351,-0.169693, 0.834290,1,-0.099476, 0.003204, 0.030163,1,-0.121027, 0.556813, 9.790082,1,0
1778107869133,   920.320,   920.319, 0.031639,-0.032978,-0.891898, 0.000064,-0.000064,-0.001782, 0.174495, 0.062821, 1.075629,1,-0.108442, 0.004947, 0.033557,1,-0.121115, 0.552662, 9.790316,1,0
1778107869144,   920.324,   920.323, 0.035353,-0.002416,-0.923046, 0.000071,-0.000002,-0.001848, 0.174495, 0.062821, 1.075629,1,-0.108442, 0.004947, 0.033557,1,-0.121115, 0.552662, 9.790316,1,0
1778107869155,   920.329,   920.329, 0.029605, 0.010472,-0.951174, 0.000058, 0.000022,-0.001904, 0.169677, 0.645448, 0.463047,1,-0.098931,-0.011638, 0.021426,1,-0.120572, 0.542136, 9.790911,1,0
1778107869165,   920.334,   920.333, 0.023711, 0.020695,-0.958906, 0.000047, 0.000042,-0.001918, 0.132723, 0.725024, 0.415067,1,-0.093703,-0.010553, 0.013136,1,-0.120082, 0.538445, 9.791121,1,0
1778107869176,   920.338,   920.337, 0.029041, 0.022716,-0.983812, 0.000059, 0.000045,-0.001969, 0.124512, 0.749950, 0.316469,1,-0.088487, 0.000922, 0.004028,1,-0.120001, 0.534931, 9.791314,1,0
1778107869187,   920.343,   920.343, 0.037524, 0.022098,-1.019078, 0.000076, 0.000045,-0.002041, 0.247731, 0.747421,-0.202196,1,-0.075272, 0.004526,-0.009072,1,-0.120281, 0.530242, 9.791566,1,0
1778107869198,   920.348,   920.347, 0.033575,-0.013628,-1.059922, 0.000067,-0.000030,-0.002122, 0.223061, 0.508570,-0.509354,1,-0.064398, 0.003643,-0.018305,1,-0.120463, 0.527623, 9.791705,1,0
1778107869208,   920.352,   920.351, 0.036931,-0.025068,-1.069206, 0.000074,-0.000051,-0.002139, 0.200120, 0.338273,-0.663373,1,-0.064027, 0.010671,-0.021814,1,-0.120870, 0.525120, 9.791835,1,0
1778107869219,   920.357,   920.357, 0.042324,-0.047595,-1.068818, 0.000085,-0.000097,-0.002138, 0.293059, 0.055026,-0.689530,1,-0.062357, 0.024365,-0.021264,1,-0.122154, 0.521382, 9.792018,1,0
1778107869230,   920.362,   920.361, 0.029636,-0.080107,-1.037755, 0.000058,-0.000161,-0.002073, 0.203056,-0.168611,-0.483193,1,-0.062476, 0.024974,-0.018091,1,-0.123147, 0.518921, 9.792136,1,0
1778107869241,   920.366,   920.365, 0.038215,-0.090615,-1.037035, 0.000077,-0.000182,-0.002073, 0.183147,-0.342236,-0.356499,1,-0.063174, 0.024205,-0.010899,1,-0.124143, 0.516438, 9.792255,1,0
1778107869251,   920.371,   920.371, 0.051120,-0.098590,-1.056943, 0.000104,-0.000198,-0.002116, 0.375842,-0.453845,-0.572655,1,-0.064595, 0.024208,-0.000660,1,-0.125623, 0.512592, 9.792439,1,0
1778107869262,   920.376,   920.375, 0.027655,-0.111941,-1.032786, 0.000053,-0.000224,-0.002063, 0.237447,-0.554297,-0.505129,1,-0.063718, 0.018405, 0.009284,1,-0.126378, 0.510100, 9.792559,1,0
1778107869273,   920.380,   920.380, 0.031563,-0.112958,-1.004014, 0.000063,-0.000227,-0.002005, 0.181868,-0.601065,-0.053289,1,-0.071919, 0.031219, 0.026862,1,-0.127850, 0.506226, 9.792741,1,0
1778107869284,   920.385,   920.385, 0.040337,-0.089762,-0.994602, 0.000082,-0.000178,-0.001988, 0.266762,-0.376815, 0.039156,1,-0.088167, 0.028374, 0.034497,1,-0.128977, 0.502900, 9.792897,1,0
1778107869294,   920.390,   920.389, 0.035734,-0.054825,-0.983880, 0.000072,-0.000108,-0.001968, 0.252982,-0.114612, 0.039665,1,-0.087116, 0.017183, 0.039947,1,-0.129688, 0.499493, 9.793062,1,0
1778107869305,   920.394,   920.393, 0.024400,-0.041097,-0.940529, 0.000048,-0.000082,-0.001878, 0.163708, 0.012558, 0.349504,1,-0.086579, 0.009031, 0.042258,1,-0.129991, 0.496140, 9.793229,1,0
1778107869316,   920.399,   920.399, 0.022081,-0.010318,-0.918358, 0.000043,-0.000019,-0.001835, 0.086166, 0.389961, 0.787457,1,-0.100515, 0.011191, 0.042256,1,-0.130434, 0.490524, 9.793506,1,0
1778107869327,   920.403,   920.403, 0.031967, 0.018945,-0.925312, 0.000065, 0.000040,-0.001851, 0.182325, 0.674218, 0.719391,1,-0.095528, 0.006792, 0.036651,1,-0.131484, 0.488545, 9.793591,1,0
1778107869338,   920.408,   920.408, 0.018966, 0.033457,-0.916241, 0.000036, 0.000067,-0.001831, 0.054954, 0.812527, 0.808541,1,-0.067723,-0.009940, 0.022754,1,-0.130970, 0.484012, 9.793822,1,0
1778107869348,   920.413,   920.413, 0.027223, 0.022242,-0.926100, 0.000056, 0.000043,-0.001853, 0.136153, 0.700216, 0.711982,1,-0.057750,-0.003360, 0.010942,1,-0.130785, 0.481733, 9.793938,1,0
1778107869359,   920.418,   920.417, 0.018014, 0.020943,-0.973822, 0.000035, 0.000042,-0.001950, 0.076392, 0.721468, 0.405982,1,-0.055505,-0.004687, 0.002201,1,-0.130598, 0.479535, 9.794048,1,0
1778107869370,   920.422,   920.422, 0.027966,-0.002026,-0.991449, 0.000057,-0.000006,-0.001985, 0.143532, 0.457369, 0.071365,1,-0.039283, 0.006039,-0.009000,1,-0.130765, 0.476992, 9.794169,1,0
1778107869381,   920.427,   920.427, 0.032645,-0.023096,-0.988312, 0.000066,-0.000048,-0.001975, 0.189068, 0.249238, 0.102198,1,-0.037851, 0.009772,-0.015580,1,-0.131138, 0.475500, 9.794237,1,0
1778107869391,   920.435,   920.435, 0.041181,-0.045725,-1.006318, 0.000083,-0.000093,-0.002014, 0.272130, 0.025856,-0.074315,1,-0.036794, 0.020031,-0.018288,1,-0.131848, 0.474035, 9.794299,1,0
1778107869402,   920.440,   920.439, 0.039585,-0.082173,-1.021401, 0.000078,-0.000165,-0.002042, 0.226260,-0.264630,-0.206341,1,-0.038335, 0.024819,-0.009137,1,-0.133905, 0.470970, 9.794419,1,0
1778107869413,   920.444,   920.443, 0.063411,-0.098756,-1.038697, 0.000129,-0.000199,-0.002079, 0.368548,-0.437535,-0.308795,1,-0.037886, 0.035553,-0.000436,1,-0.135213, 0.469512, 9.794471,1,0
1778107869424,   920.449,   920.449, 0.060447,-0.095918,-1.041474, 0.000121,-0.000191,-0.002083, 0.455768,-0.473622,-0.418805,1,-0.050802, 0.030290, 0.011530,1,-0.137203, 0.466693, 9.794578,1,0
1778107869434,   920.454,   920.453, 0.048524,-0.102314,-1.016542, 0.000096,-0.000206,-0.002032, 0.352042,-0.520986,-0.289807,1,-0.041878, 0.028155, 0.023623,1,-0.138281, 0.464980, 9.794644,1,0
1778107869445,   920.458,   920.457, 0.042108,-0.088566,-0.989033, 0.000084,-0.000177,-0.001976, 0.318034,-0.498095,-0.021279,1,-0.046724, 0.027389, 0.029309,1,-0.139305, 0.463236, 9.794712,1,0
1778107869456,   920.463,   920.463, 0.047354,-0.064207,-0.979040, 0.000095,-0.000127,-0.001957, 0.323824,-0.169214, 0.193724,1,-0.054482, 0.023509, 0.039701,1,-0.140694, 0.460110, 9.794840,1,0
1778107869467,   920.468,   920.467, 0.043733,-0.032256,-0.968252, 0.000087,-0.000063,-0.001935, 0.331872, 0.032915, 0.212052,1,-0.056795, 0.009233, 0.038852,1,-0.141116, 0.457938, 9.794935,1,0
1778107869477,   920.472,   920.472, 0.034757,-0.011172,-0.949894, 0.000069,-0.000021,-0.001899, 0.199674, 0.345416, 0.479791,1,-0.056329, 0.003221, 0.033434,1,-0.141191, 0.454627, 9.795089,1,0
1778107869488,   920.477,   920.477, 0.035109, 0.011701,-0.923273, 0.000070, 0.000025,-0.001845, 0.203047, 0.567675, 0.740953,1,-0.049368, 0.003818, 0.025482,1,-0.141276, 0.452619, 9.795180,1,0
1778107869499,   920.482,   920.481, 0.037169, 0.029212,-0.922058, 0.000074, 0.000059,-0.001845, 0.259010, 0.732484, 0.870258,1,-0.036252, 0.009235, 0.015909,1,-0.141597, 0.451067, 9.795247,1,0
1778107869510,   920.486,   920.486, 0.034090, 0.035539,-0.959399, 0.000068, 0.000072,-0.001921, 0.192808, 0.798548, 0.386804,1,-0.013981,-0.006982, 0.002862,1,-0.141456, 0.449938, 9.795301,1,0
1778107869521,   920.491,   920.491, 0.028593, 0.024031,-1.004224, 0.000056, 0.000047,-0.002012, 0.139265, 0.685307,-0.052758,1,-0.009110,-0.009134,-0.002397,1,-0.141078, 0.449588, 9.795323,1,0
1778107869531,   920.496,   920.495, 0.021848, 0.015871,-1.031001, 0.000043, 0.000032,-0.002063, 0.083107, 0.605399,-0.230618,1,-0.013175,-0.004204,-0.007942,1,-0.140907, 0.449097, 9.795348,1,0
1778107869542,   920.500,   920.500, 0.019351,-0.004046,-1.051725, 0.000039,-0.000009,-0.002106, 0.048858, 0.409012,-0.518534,1,-0.004563,-0.000938,-0.011019,1,-0.140907, 0.448663, 9.795368,1,0
1778107869553,   920.505,   920.505, 0.012184,-0.037329,-1.048983, 0.000023,-0.000077,-0.002098,-0.021465, 0.082507,-0.491638,1,-0.002602, 0.002013,-0.015216,1,-0.140970, 0.448558, 9.795372,1,0
1778107869564,   920.510,   920.509, 0.023244,-0.072936,-1.041371, 0.000047,-0.000148,-0.002082, 0.080529,-0.157271,-0.373893,1, 0.002033, 0.010471,-0.014774,1,-0.141327, 0.448574, 9.795366,1,0
1778107869574,   920.514,   920.514, 0.008054,-0.086163,-1.074359, 0.000014,-0.000173,-0.002151,-0.062973,-0.396196,-0.740513,1, 0.003418, 0.011085,-0.005381,1,-0.142028, 0.448794, 9.795345,1,0
1778107869585,   920.868,   920.867, 0.017085,-0.094392,-0.929874, 0.000034,-0.000191,-0.001862, 0.050674,-0.307935, 0.851610,1, 0.031674,-0.012983,-0.014202,1,-0.127639, 0.500942, 9.793015,1,0
1778107869596,   920.872,   920.871, 0.020990,-0.103970,-0.964073, 0.000042,-0.000209,-0.001930, 0.053596,-0.484260, 0.503704,1, 0.027210,-0.009839,-0.014168,1,-0.127234, 0.502051, 9.792964,1,0
1778107869607,   920.877,   920.877, 0.028445,-0.111092,-0.995283, 0.000058,-0.000223,-0.001993, 0.152130,-0.585961, 0.032507,1, 0.027935,-0.010845,-0.004779,1,-0.126758, 0.503650, 9.792888,1,0
1778107869617,   920.882,   920.881, 0.012526,-0.112927,-1.032417, 0.000023,-0.000226,-0.002067, 0.052188,-0.628107,-0.235895,1, 0.024477,-0.013821, 0.002850,1,-0.126216, 0.504688, 9.792842,1,0
1778107869628,   920.886,   920.885, 0.023747,-0.094957,-1.053226, 0.000048,-0.000188,-0.002108, 0.023019,-0.519983,-0.417330,1, 0.013996,-0.008847, 0.011509,1,-0.125768, 0.505295, 9.792816,1,0
1778107869639,   920.891,   920.891, 0.045138,-0.071679,-1.088493, 0.000093,-0.000142,-0.002179, 0.317078,-0.197081,-0.881680,1, 0.007000,-0.003544, 0.017920,1,-0.125546, 0.505892, 9.792788,1,0
1778107869650,   920.896,   920.895, 0.013297,-0.041387,-1.130288, 0.000024,-0.000081,-0.002263, 0.067952,-0.004771,-1.273992,1,-0.003383,-0.011449, 0.025600,1,-0.125045, 0.505859, 9.792796,1,0
1778107869660,   920.900,   920.899, 0.034335,-0.024401,-1.087834, 0.000070,-0.000048,-0.002173, 0.063850, 0.172708,-1.146856,1,-0.005215, 0.003847, 0.028223,1,-0.124950, 0.505656, 9.792808,1,0
1778107869671,   920.905,   920.905, 0.050476,-0.002465,-1.036818, 0.000102,-0.000003,-0.002069, 0.369268, 0.481113,-0.374898,1,-0.005747, 0.016789, 0.021400,1,-0.125833, 0.505248, 9.792817,1,0
1778107869682,   920.910,   920.909, 0.037310, 0.010333,-1.032777, 0.000074, 0.000021,-0.002067, 0.294265, 0.570681,-0.345199,1, 0.011635, 0.010146, 0.018289,1,-0.126261, 0.505577, 9.792795,1,0
1778107869693,   920.914,   920.914, 0.024415, 0.010393,-1.003779, 0.000047, 0.000021,-0.002006, 0.113018, 0.608470,-0.050968,1, 0.021765, 0.003880, 0.015797,1,-0.126426, 0.506691, 9.792735,1,0
1778107869704,   920.919,   920.919, 0.024528, 0.009481,-0.969282, 0.000049, 0.000019,-0.001936, 0.113855, 0.600400, 0.287282,1, 0.021109, 0.009826, 0.013389,1,-0.126737, 0.507553, 9.792686,1,0
1778107869714,   920.924,   920.923, 0.028367,-0.010559,-0.949282, 0.000057,-0.000022,-0.001898, 0.134224, 0.498935, 0.409662,1, 0.023878, 0.015103, 0.008238,1,-0.127259, 0.508441, 9.792634,1,0
1778107869725,   920.928,   920.928, 0.020385,-0.023377,-0.920688, 0.000040,-0.000047,-0.001839, 0.072188, 0.280666, 0.763685,1, 0.030460, 0.003163, 0.000352,1,-0.127743, 0.510102, 9.792542,1,0
1778107869736,   920.933,   920.933, 0.027053,-0.039286,-0.915917, 0.000055,-0.000079,-0.001830, 0.137558, 0.125965, 0.810406,1, 0.035242, 0.000034,-0.003714,1,-0.127743, 0.511445, 9.792471,1,0
1778107869747,   920.938,   920.937, 0.022858,-0.075470,-0.971152, 0.000045,-0.000152,-0.001945, 0.146812,-0.144987, 0.407094,1, 0.039835,-0.005811,-0.007037,1,-0.127617, 0.512962, 9.792394,1,0
1778107869757,   920.942,   920.942, 0.019398,-0.093323,-0.977350, 0.000037,-0.000188,-0.001956, 0.063040,-0.399752, 0.207738,1, 0.051835,-0.003288,-0.002961,1,-0.127168, 0.515757, 9.792253,1,0
1778107869768,   920.947,   920.947, 0.032121,-0.102559,-0.998242, 0.000066,-0.000206,-0.001998, 0.187707,-0.488385, 0.002759,1, 0.047489, 0.003196,-0.003668,1,-0.127316, 0.517673, 9.792150,1,0
1778107869779,   920.952,   920.951, 0.014743,-0.091227,-1.065848, 0.000028,-0.000182,-0.002134, 0.044853,-0.396554,-0.449899,1, 0.042685,-0.001698, 0.003291,1,-0.127304, 0.519352, 9.792061,1,0
1778107869790,   920.956,   920.956, 0.039134,-0.086724,-1.082164, 0.000081,-0.000174,-0.002166, 0.256013,-0.329095,-0.820454,1, 0.031630, 0.014581, 0.011079,1,-0.127846, 0.521574, 9.791936,1,0
1778107869800,   920.961,   920.961, 0.030823,-0.062435,-1.077660, 0.000061,-0.000123,-0.002155, 0.174026,-0.090056,-0.776339,1, 0.016586, 0.010658, 0.018444,1,-0.128303, 0.522329, 9.791889,1,0
1778107869811,   920.966,   920.965, 0.032547,-0.040710,-1.108046, 0.000066,-0.000081,-0.002220, 0.100794, 0.060514,-0.985523,1, 0.010793, 0.014982, 0.027130,1,-0.128754, 0.522845, 9.791856,1,0
1778107869822,   920.970,   920.970, 0.036533,-0.018472,-1.077931, 0.000074,-0.000035,-0.002154, 0.228940, 0.341945,-0.779058,1, 0.007180, 0.004968, 0.023087,1,-0.129350, 0.523139, 9.791832,1,0
1778107869833,   920.975,   920.975, 0.021553,-0.004012,-1.024758, 0.000042,-0.000007,-0.002046, 0.082078, 0.484455,-0.257649,1, 0.024750,-0.000989, 0.026133,1,-0.129266, 0.523953, 9.791790,1,0
1778107869843,   920.980,   920.979, 0.015251,-0.004768,-0.978298, 0.000031,-0.000010,-0.001955, 0.062210, 0.435290, 0.044588,1, 0.037830, 0.000394, 0.020451,1,-0.129232, 0.525366, 9.791715,1,0
1778107869854,   920.985,   920.984, 0.002755, 0.004255,-0.943121, 0.000004, 0.000010,-0.001883,-0.101760, 0.569363, 0.542737,1, 0.047200,-0.011098, 0.017779,1,-0.128702, 0.527932, 9.791583,1,0
1778107869865,   920.989,   920.989,-0.001790,-0.013430,-0.927824,-0.000004,-0.000028,-0.001855,-0.145794, 0.398064, 0.692644,1, 0.056003,-0.014256, 0.010714,1,-0.128150, 0.530121, 9.791472,1,0
1778107869876,   920.994,   920.993, 0.002645,-0.025169,-0.902231, 0.000006,-0.000050,-0.001803,-0.163458, 0.308521, 0.852174,1, 0.049493,-0.011650, 0.004276,1,-0.127635, 0.532099, 9.791372,1,0
1778107869887,   920.999,   920.998, 0.009540,-0.050647,-0.898256, 0.000020,-0.000103,-0.001796,-0.033549, 0.038244, 0.982338,1, 0.054654,-0.011232,-0.002200,1,-0.127036, 0.535264, 9.791207,1,0
1778107869897,   921.003,   921.003, 0.004337,-0.074781,-0.896284, 0.000008,-0.000151,-0.001792,-0.084977,-0.197156, 1.001605,1, 0.046826,-0.008237,-0.004439,1,-0.127959, 0.536059, 9.791152,1,0
1778107869908,   921.008,   921.007, 0.017543,-0.090840,-0.935982, 0.000036,-0.000183,-0.001874,-0.031094,-0.275297, 0.823365,1, 0.046640,-0.003378,-0.001287,1,-0.127792, 0.537801, 9.791059,1,0
1778107869919,   921.013,   921.012, 0.025889,-0.101793,-0.979889, 0.000053,-0.000205,-0.001963, 0.126403,-0.457617, 0.181482,1, 0.055626,-0.007994,-0.004796,1,-0.127433, 0.540974, 9.790888,1,0
1778107869930,   921.017,   921.017, 0.017640,-0.104442,-1.005413, 0.000034,-0.000209,-0.002013, 0.045814,-0.481389,-0.068943,1, 0.056257,-0.007799,-0.000449,1,-0.127131, 0.543188, 9.790770,1,0
1778107869940,   921.022,   921.021, 0.017395,-0.097174,-1.019690, 0.000035,-0.000194,-0.002040, 0.004394,-0.454978,-0.166851,1, 0.053185,-0.001170, 0.005707,1,-0.126986, 0.545307, 9.790653,1,0
1778107869951,   921.027,   921.026, 0.023812,-0.079255,-1.042647, 0.000047,-0.000157,-0.002087, 0.106208,-0.229647,-0.434348,1, 0.035625, 0.008631, 0.010769,1,-0.127357, 0.547801, 9.790509,1,0
1778107869962,   921.031,   921.031, 0.039399,-0.059076,-1.084479, 0.000080,-0.000116,-0.002172, 0.258692,-0.030541,-0.844657,1, 0.028827, 0.011176, 0.013456,1,-0.127748, 0.548974, 9.790439,1,0
1778107869973,   921.036,   921.035, 0.016124,-0.036522,-1.092885, 0.000029,-0.000073,-0.002186, 0.199845, 0.130811,-1.019105,1, 0.027255, 0.002356, 0.015007,1,-0.127946, 0.550005, 9.790379,1,0
1778107869983,   921.041,   921.040, 0.020276,-0.028707,-1.055749, 0.000041,-0.000057,-0.002109, 0.070169, 0.270156,-0.563087,1, 0.033231, 0.029543, 0.017055,1,-0.128849, 0.551883, 9.790261,1,0
1778107869994,   921.045,   921.045, 0.039962,-0.016834,-1.020315, 0.000082,-0.000033,-0.002038, 0.261927, 0.387919,-0.215690,1, 0.033478, 0.032579, 0.011919,1,-0.130164, 0.553213, 9.790169,1,0
1778107870005,   921.050,   921.049, 0.046199,-0.010248,-0.994689, 0.000093,-0.000021,-0.001989, 0.316851, 0.522026, 0.000743,1, 0.045477, 0.026911, 0.012132,1,-0.131194, 0.554854, 9.790062,1,0
1778107870016,   921.058,   921.057, 0.009518,-0.024030,-0.927174, 0.000017,-0.000048,-0.001851, 0.251929, 0.403760, 0.129676,1, 0.050203, 0.018938, 0.009734,1,-0.132050, 0.556847, 9.789937,1,0
1778107870026,   921.063,   921.062, 0.024550,-0.045320,-0.906802, 0.000051,-0.000092,-0.001812, 0.107400, 0.117342, 0.896949,1, 0.053492, 0.018665, 0.002430,1,-0.133471, 0.562117, 9.789617,1,0
1778107870037,   921.067,   921.067, 0.024715,-0.048300,-0.891508, 0.000050,-0.000096,-0.001781, 0.108487, 0.090065, 1.046807,1, 0.049629, 0.009601, 0.000533,1,-0.133943, 0.564033, 9.789500,1,0
1778107870048,   921.072,   921.071, 0.014527,-0.083107,-0.899919, 0.000029,-0.000169,-0.001801, 0.021981,-0.086413, 1.031836,1, 0.062696, 0.002928, 0.000204,1,-0.134096, 0.566355, 9.789364,1,0
1778107870059,   921.077,   921.076, 0.012167,-0.096632,-0.922347, 0.000024,-0.000194,-0.001846,-0.014819,-0.377995, 0.744041,1, 0.060627, 0.001137,-0.002553,1,-0.134147, 0.570020, 9.789150,1,0
1778107870069,   921.081,   921.081, 0.025316,-0.095372,-0.971143, 0.000052,-0.000190,-0.001946, 0.113960,-0.363202, 0.265368,1, 0.063003, 0.006125,-0.000447,1,-0.134339, 0.572466, 9.789005,1,0
1778107870080,   921.086,   921.085, 0.022100,-0.092664,-1.031306, 0.000044,-0.000185,-0.002065, 0.141846,-0.340159,-0.228804,1, 0.061961, 0.002036,-0.000744,1,-0.134475, 0.574901, 9.788860,1,0
1778107870091,   921.091,   921.090, 0.012441,-0.083354,-1.027801, 0.000024,-0.000166,-0.002055,-0.012716,-0.239356,-0.290619,1, 0.058802, 0.009175, 0.004481,1,-0.134780, 0.578432, 9.788649,1,0
1778107870102,   921.095,   921.095, 0.024520,-0.065987,-1.047867, 0.000049,-0.000131,-0.002097, 0.105204,-0.066987,-0.487521,1, 0.048214, 0.017327, 0.010538,1,-0.135361, 0.580426, 9.788522,1,0
1778107870113,   921.100,   921.099, 0.057248,-0.039174,-1.107907, 0.000116,-0.000077,-0.002219, 0.418155, 0.105059,-0.958744,1, 0.040583, 0.020876, 0.009444,1,-0.136187, 0.582062, 9.788414,1,0
1778107870123,   921.105,   921.104, 0.032326,-0.024302,-1.089817, 0.000064,-0.000046,-0.002177, 0.180363, 0.346023,-0.899181,1, 0.047788, 0.005798, 0.014641,1,-0.136677, 0.584639, 9.788253,1,0
1778107870134,   921.109,   921.109, 0.022402,-0.028017,-1.060189, 0.000043,-0.000057,-0.002118, 0.082423, 0.311572,-0.608764,1, 0.049329, 0.024900, 0.016528,1,-0.137412, 0.586638, 9.788123,1,0
1778107870145,   921.114,   921.113, 0.038031,-0.001137,-1.015619, 0.000077,-0.000000,-0.002029, 0.242031, 0.489891,-0.303391,1, 0.046449, 0.028217, 0.014601,1,-0.138531, 0.588451, 9.787999,1,0
1778107870156,   921.119,   921.118, 0.029728,-0.007589,-0.989226, 0.000059,-0.000015,-0.001977, 0.152066, 0.517148, 0.086807,1, 0.066094, 0.014594, 0.013508,1,-0.139556, 0.591986, 9.787771,1,0
1778107870166,   921.123,   921.123, 0.022420,-0.017123,-0.946811, 0.000044,-0.000035,-0.001891, 0.079848, 0.426276, 0.502580,1, 0.066560, 0.014172, 0.009735,1,-0.140099, 0.594610, 9.787604,1,0
1778107870177,   921.128,   921.127, 0.016615,-0.041844,-0.896146, 0.000033,-0.000085,-0.001790,-0.005442, 0.290607, 0.903286,1, 0.071462, 0.011347, 0.008202,1,-0.140528, 0.597355, 9.787431,1,0
1778107870188,   921.133,   921.133, 0.019071,-0.059484,-0.894470, 0.000039,-0.000120,-0.001789, 0.045969, 0.017762, 1.015443,1, 0.068699, 0.006146, 0.002388,1,-0.141091, 0.601529, 9.787168,1,0
1778107870199,   921.137,   921.137, 0.012516,-0.072905,-0.900921, 0.000025,-0.000146,-0.001802,-0.018399,-0.111141, 0.952009,1, 0.071562,-0.000567, 0.001794,1,-0.141131, 0.604260, 9.786999,1,0
1778107870209,   921.491,   921.491,-0.012649,-0.112812,-0.948000,-0.000025,-0.000225,-0.001897,-0.275534,-0.373676, 0.481370,1,-0.061020,-0.017554, 0.010119,1,-0.151377, 0.732253, 9.778102,1,0
1778107870220,   921.496,   921.495,-0.017509,-0.076112,-1.019762,-0.000036,-0.000150,-0.002043,-0.307400,-0.136174,-0.002609,1,-0.078376,-0.024607, 0.009349,1,-0.150465, 0.729332, 9.778335,1,0
1778107870231,   921.501,   921.501,-0.010179,-0.059797,-1.035253,-0.000020,-0.000119,-0.002072,-0.249160, 0.138828,-0.373706,1,-0.074395,-0.018552,-0.000738,1,-0.149226, 0.724768, 9.778692,1,0
1778107870242,   921.505,   921.505,-0.010099,-0.044807,-1.027125,-0.000020,-0.000089,-0.002053,-0.247794, 0.283012,-0.293782,1,-0.071113,-0.013432,-0.007612,1,-0.148676, 0.721980, 9.778907,1,0
1778107870252,   921.510,   921.509,-0.001348,-0.027577,-1.044698,-0.000002,-0.000054,-0.002091,-0.222803, 0.421236,-0.369375,1,-0.060720,-0.002746,-0.013756,1,-0.148540, 0.719458, 9.779095,1,0
1778107870263,   921.515,   921.515, 0.001152,-0.026502,-1.054922, 0.000003,-0.000053,-0.002111,-0.137117, 0.457051,-0.565971,1,-0.043803,-0.005102,-0.025340,1,-0.148397, 0.716674, 9.779302,1,0
1778107870274,   921.520,   921.519, 0.017760,-0.041018,-1.067586, 0.000038,-0.000082,-0.002135,-0.051163, 0.380976,-0.653907,1,-0.040238, 0.007364,-0.029735,1,-0.148619, 0.715090, 9.779414,1,0
1778107870285,   921.524,   921.523, 0.003176,-0.053269,-1.066066, 0.000005,-0.000108,-0.002133,-0.018145, 0.226455,-0.726810,1,-0.045815, 0.010544,-0.033392,1,-0.149160, 0.713362, 9.779532,1,0
1778107870296,   921.529,   921.529, 0.003998,-0.068355,-1.026390, 0.000007,-0.000137,-0.002050,-0.111070, 0.040309,-0.285733,1,-0.050885, 0.028106,-0.027941,1,-0.150466, 0.710324, 9.779734,1,0
1778107870306,   921.534,   921.533, 0.024142,-0.093514,-0.962407, 0.000049,-0.000188,-0.001922, 0.073966,-0.174877, 0.164665,1,-0.058396, 0.029083,-0.025339,1,-0.151761, 0.708135, 9.779872,1,0
1778107870317,   921.538,   921.537, 0.026055,-0.110403,-0.947895, 0.000052,-0.000222,-0.001895, 0.078078,-0.274637, 0.430975,1,-0.059434, 0.016965,-0.018056,1,-0.152575, 0.705744, 9.780032,1,0
1778107870328,   921.543,   921.543, 0.021222,-0.131135,-0.931172, 0.000042,-0.000264,-0.001862, 0.055115,-0.583340, 0.648571,1,-0.063181,-0.000000,-0.004712,1,-0.153008, 0.702257, 9.780276,1,0
1778107870339,   921.548,   921.547,-0.000301,-0.129616,-0.909144,-0.000002,-0.000259,-0.001817,-0.130364,-0.579775, 0.861113,1,-0.071548,-0.011167, 0.009021,1,-0.152611, 0.699508, 9.780479,1,0
1778107870349,   921.552,   921.551,-0.001441,-0.121492,-0.917932,-0.000003,-0.000243,-0.001837,-0.154484,-0.547127, 0.818818,1,-0.079402,-0.013485, 0.015669,1,-0.152087, 0.696495, 9.780703,1,0
1778107870360,   921.557,   921.557,-0.001887,-0.099282,-0.911939,-0.000004,-0.000197,-0.001822,-0.169500,-0.281866, 0.837986,1,-0.094951,-0.020298, 0.021433,1,-0.150856, 0.691164, 9.781100,1,0
1778107870371,   921.562,   921.561, 0.006704,-0.070255,-0.956958, 0.000015,-0.000139,-0.001917,-0.121465,-0.098467, 0.614650,1,-0.103851,-0.020119, 0.020923,1,-0.150009, 0.687220, 9.781391,1,0
1778107870382,   921.566,   921.565, 0.003547,-0.052579,-0.998049, 0.000006,-0.000104,-0.002000,-0.104733, 0.075686, 0.167197,1,-0.111933,-0.019828, 0.015714,1,-0.149179, 0.682862, 9.781709,1,0
1778107870392,   921.571,   921.571, 0.006748,-0.033003,-1.019110, 0.000014,-0.000065,-0.002040,-0.082265, 0.353577,-0.211944,1,-0.100957,-0.009258, 0.004909,1,-0.148383, 0.676602, 9.782156,1,0
1778107870403,   921.576,   921.575, 0.018651,-0.016286,-1.033150, 0.000038,-0.000032,-0.002066,-0.022673, 0.489671,-0.300054,1,-0.087722, 0.000568,-0.004647,1,-0.148335, 0.673049, 9.782402,1,0
1778107870414,   921.580,   921.579, 0.034519,-0.011128,-1.051233, 0.000071,-0.000022,-0.002103, 0.131585, 0.539527,-0.416932,1,-0.076753, 0.014468,-0.015148,1,-0.148851, 0.669969, 9.782605,1,0
1778107870425,   921.585,   921.585, 0.022144,-0.014353,-1.079014, 0.000043,-0.000029,-0.002160, 0.067608, 0.525654,-0.798676,1,-0.061720, 0.007494,-0.023126,1,-0.149603, 0.666025, 9.782864,1,0
1778107870435,   921.590,   921.589, 0.031096,-0.032637,-1.086734, 0.000063,-0.000067,-0.002174, 0.083988, 0.433323,-0.876420,1,-0.057531, 0.013051,-0.024582,1,-0.150096, 0.663761, 9.783010,1,0
1778107870446,   921.594,   921.593, 0.044241,-0.043944,-1.069180, 0.000091,-0.000089,-0.002137, 0.255240, 0.279243,-0.816258,1,-0.067902, 0.029271,-0.028147,1,-0.151200, 0.661214, 9.783165,1,0
1778107870457,   921.599,   921.599, 0.027295,-0.057473,-1.041449, 0.000053,-0.000115,-0.002082, 0.114933, 0.093798,-0.429726,1,-0.070739, 0.027330,-0.018864,1,-0.152917, 0.656976, 9.783424,1,0
1778107870468,   921.604,   921.603, 0.036335,-0.099597,-0.978072, 0.000074,-0.000202,-0.001953, 0.156063,-0.228289,-0.064228,1,-0.064477, 0.032074,-0.015316,1,-0.152807, 0.656309, 9.783470,1,0
1778107870478,   921.608,   921.608, 0.039377,-0.098776,-0.932675, 0.000079,-0.000197,-0.001861, 0.232071,-0.315852, 0.637270,1,-0.066694, 0.017048,-0.002705,1,-0.154191, 0.652395, 9.783710,1,0
1778107870489,   921.613,   921.613, 0.034066,-0.124283,-0.931436, 0.000068,-0.000251,-0.001863, 0.179505,-0.568501, 0.649575,1,-0.065060, 0.009665, 0.006475,1,-0.154624, 0.649890, 9.783871,1,0
1778107870500,   921.618,   921.617, 0.009279,-0.117809,-0.898473, 0.000016,-0.000234,-0.001795, 0.036738,-0.591826, 0.850754,1,-0.077729,-0.004255, 0.014619,1,-0.154566, 0.646962, 9.784065,1,0
1778107870511,   921.622,   921.622, 0.014084,-0.106090,-0.901332, 0.000029,-0.000211,-0.001802,-0.015767,-0.397989, 0.945331,1,-0.091738,-0.012001, 0.026107,1,-0.153798, 0.641834, 9.784415,1,0
1778107870522,   921.627,   921.627, 0.018514,-0.085556,-0.922458, 0.000038,-0.000170,-0.001847, 0.028330,-0.200532, 0.738421,1,-0.104542,-0.016747, 0.025294,1,-0.153112, 0.637833, 9.784687,1,0
1778107870532,   921.632,   921.631, 0.005027,-0.048435,-0.930807, 0.000009,-0.000095,-0.001862,-0.089766, 0.103792, 0.681813,1,-0.109271,-0.022658, 0.027757,1,-0.152183, 0.633580, 9.784978,1,0
1778107870543,   921.636,   921.636, 0.018429,-0.040500,-0.942820, 0.000038,-0.000081,-0.001886, 0.029379, 0.230803, 0.539442,1,-0.108583,-0.010624, 0.016897,1,-0.151276, 0.627296, 9.785398,1,0
1778107870554,   921.641,   921.641, 0.017453,-0.015737,-0.983290, 0.000035,-0.000029,-0.001969, 0.020259, 0.469414, 0.142846,1,-0.105297,-0.011389, 0.011734,1,-0.150822, 0.623084, 9.785673,1,0
1778107870565,   921.646,   921.645, 0.015728,-0.008503,-1.055789, 0.000031,-0.000017,-0.002116, 0.002331, 0.549068,-0.417390,1,-0.084928,-0.010226, 0.004024,1,-0.150364, 0.619581, 9.785903,1,0
1778107870575,   921.650,   921.650, 0.012154,-0.009743,-1.055551, 0.000024,-0.000020,-0.002111,-0.031105, 0.520096,-0.565264,1,-0.072073, 0.003587,-0.007638,1,-0.150317, 0.615195, 9.786180,1,0
1778107870586,   921.655,   921.655, 0.005163,-0.012104,-1.075570, 0.000010,-0.000024,-0.002152,-0.100077, 0.494126,-0.761412,1,-0.071599, 0.013380,-0.009175,1,-0.150794, 0.612381, 9.786349,1,0
1778107870597,   921.660,   921.659, 0.007534,-0.029975,-1.133971, 0.000015,-0.000062,-0.002271,-0.123002, 0.371980,-1.213904,1,-0.073854, 0.019309,-0.011588,1,-0.151504, 0.609526, 9.786517,1,0
1778107870608,   921.664,   921.664, 0.027568,-0.043131,-1.117604, 0.000057,-0.000088,-0.002235, 0.116728, 0.182233,-1.173203,1,-0.084814, 0.047182,-0.015027,1,-0.153922, 0.604677, 9.786779,1,0
1778107870618,   921.669,   921.669, 0.017403,-0.055726,-1.075823, 0.000034,-0.000112,-0.002149, 0.015111, 0.055309,-0.763293,1,-0.087642, 0.049619,-0.010557,1,-0.155869, 0.601247, 9.786961,1,0
1778107870629,   921.674,   921.673, 0.031056,-0.083712,-0.998554, 0.000064,-0.000170,-0.001994, 0.032180,-0.138074,-0.289489,1,-0.086873, 0.066134,-0.004288,1,-0.158310, 0.597859, 9.787128,1,0
1778107870640,   921.681,   921.681, 0.042985,-0.086134,-0.932152, 0.000087,-0.000172,-0.001861, 0.259605,-0.253239, 0.646173,1,-0.081670, 0.030536, 0.007854,1,-0.162117, 0.590943, 9.787486,1,0
1778107870651,   921.686,   921.685, 0.014752,-0.122533,-0.926970, 0.000027,-0.000248,-0.001855, 0.119511,-0.604332, 0.613365,1,-0.076517, 0.008950, 0.012567,1,-0.162609, 0.587974, 9.787657,1,0
1778107870661,   921.690,   921.689, 0.003735,-0.098648,-0.906636, 0.000007,-0.000195,-0.001811,-0.091258,-0.488128, 0.839134,1,-0.090669,-0.002844, 0.025169,1,-0.162470, 0.584532, 9.787866,1,0
1778107870672,   921.695,   921.695, 0.013694,-0.096537,-0.916089, 0.000029,-0.000194,-0.001833,-0.028103,-0.367278, 0.804404,1,-0.104948, 0.002037, 0.036418,1,-0.162398, 0.578775, 9.788209,1,0
1778107870683,   921.700,   921.699, 0.013381,-0.056869,-0.914459, 0.000027,-0.000111,-0.001828,-0.051003,-0.104492, 0.798466,1,-0.124531,-0.006057, 0.039282,1,-0.162152, 0.574068, 9.788490,1,0
1778107870694,   921.704,   921.703, 0.013106,-0.051622,-0.923420, 0.000026,-0.000105,-0.001848,-0.013426, 0.033062, 0.796742,1,-0.121559,-0.013955, 0.038257,1,-0.161593, 0.569232, 9.788782,1,0
1778107870705,   921.709,   921.709,-0.001864,-0.022461,-0.926967,-0.000005,-0.000042,-0.001854,-0.178556, 0.342554, 0.698733,1,-0.121826,-0.024459, 0.027643,1,-0.160117, 0.562065, 9.789220,1,0
1778107870715,   921.714,   921.713, 0.020294,-0.010879,-0.938080, 0.000043,-0.000022,-0.001877,-0.066071, 0.441720, 0.619677,1,-0.104199,-0.008066, 0.022621,1,-0.159596, 0.557814, 9.789472,1,0
1778107870726,   921.718,   921.717, 0.015651,-0.007152,-0.953695, 0.000031,-0.000014,-0.001908, 0.047996, 0.479020, 0.532862,1,-0.092543,-0.010235, 0.016138,1,-0.159246, 0.554129, 9.789687,1,0
1778107870737,   921.723,   921.723, 0.018787,-0.014604,-0.999742, 0.000037,-0.000030,-0.002002, 0.025340, 0.406477,-0.014175,1,-0.081631, 0.000740, 0.009482,1,-0.158904, 0.549190, 9.789970,1,0
1778107870748,   921.728,   921.727, 0.016590,-0.007316,-1.067265, 0.000032,-0.000014,-0.002138, 0.084211, 0.446355,-0.538647,1,-0.081899,-0.001707, 0.003498,1,-0.158900, 0.545977, 9.790151,1,0
1778107870758,   921.732,   921.731, 0.015826,-0.023551,-1.072274, 0.000031,-0.000049,-0.002145,-0.045201, 0.435467,-0.720582,1,-0.074659, 0.004724, 0.002648,1,-0.158925, 0.542975, 9.790317,1,0
1778107870769,   921.737,   921.737, 0.041903,-0.042239,-1.059009, 0.000087,-0.000086,-0.002117, 0.250587, 0.124684,-0.594811,1,-0.084904, 0.032753,-0.001719,1,-0.160546, 0.538377, 9.790545,1,0
1778107870780,   921.742,   921.741, 0.039826,-0.057110,-1.064284, 0.000080,-0.000114,-0.002129, 0.211728, 0.054694,-0.572247,1,-0.093020, 0.031621, 0.005043,1,-0.161789, 0.534739, 9.790723,1,0
1778107870791,   921.746,   921.745, 0.042261,-0.073628,-1.063241, 0.000085,-0.000149,-0.002127, 0.243555,-0.145341,-0.706849,1,-0.092039, 0.031817, 0.011969,1,-0.162994, 0.531140, 9.790899,1,0
1778107870801,   921.751,   921.751, 0.028219,-0.070454,-1.029659, 0.000055,-0.000140,-0.002056, 0.112559,-0.164529,-0.306368,1,-0.084971, 0.016678, 0.021540,1,-0.164267, 0.525865, 9.791162,1,0
1778107870812,   921.756,   921.755, 0.026651,-0.102718,-0.995802, 0.000054,-0.000208,-0.001991, 0.122295,-0.394682,-0.080672,1,-0.077048, 0.011669, 0.029244,1,-0.164716, 0.522884, 9.791315,1,0
1778107870823,   921.760,   921.759, 0.010815,-0.087652,-0.966159, 0.000021,-0.000174,-0.001930, 0.024692,-0.462436, 0.176096,1,-0.096440, 0.001919, 0.035208,1,-0.164814, 0.519330, 9.791502,1,0
1778107870834,   922.114,   922.113, 0.000511, 0.012644,-0.982867,-0.000000, 0.000026,-0.001963,-0.094947, 0.342465, 0.003776,1,-0.064421,-0.026098, 0.024638,1,-0.155127, 0.257277, 9.802047,1,0
1778107870844,   922.119,   922.119,-0.001033, 0.013543,-0.959083,-0.000002, 0.000027,-0.001916,-0.163684, 0.387234, 0.396755,1,-0.050114,-0.030625, 0.022264,1,-0.153359, 0.254113, 9.802157,1,0
1778107870855,   922.124,   922.123,-0.018900, 0.010585,-0.948915,-0.000040, 0.000021,-0.001898,-0.244196, 0.363967, 0.520702,1,-0.047613,-0.034441, 0.019828,1,-0.152022, 0.252245, 9.802227,1,0
1778107870866,   922.128,   922.127,-0.017602, 0.011392,-0.960163,-0.000035, 0.000023,-0.001921,-0.354133, 0.361219, 0.447801,1,-0.043737,-0.028887, 0.017958,1,-0.150788, 0.250507, 9.802290,1,0
1778107870877,   922.133,   922.133,-0.011248,-0.000129,-0.966056,-0.000022,-0.000001,-0.001933,-0.259869, 0.247149, 0.328589,1,-0.038527,-0.020725, 0.011226,1,-0.149429, 0.248174, 9.802370,1,0
1778107870888,   922.138,   922.137,-0.008116,-0.025871,-0.955665,-0.000016,-0.000053,-0.001910,-0.255074, 0.075445, 0.409130,1,-0.041565,-0.013007, 0.007112,1,-0.148819, 0.246595, 9.802420,1,0
1778107870898,   922.142,   922.142, 0.002424,-0.039019,-0.966984, 0.000006,-0.000079,-0.001935,-0.124865,-0.138466, 0.319606,1,-0.048810,-0.001708, 0.006372,1,-0.148629, 0.243877, 9.802490,1,0
1778107870909,   922.147,   922.146, 0.005539,-0.046069,-0.985817, 0.000011,-0.000093,-0.001973,-0.094205,-0.209462, 0.134965,1,-0.045208,-0.003990, 0.007111,1,-0.148496, 0.242040, 9.802538,1,0
1778107870920,   922.152,   922.151, 0.020959,-0.055717,-1.009731, 0.000043,-0.000112,-0.002021, 0.029650,-0.285827,-0.025413,1,-0.042094,-0.005265, 0.007783,1,-0.148343, 0.240405, 9.802581,1,0
1778107870931,   922.156,   922.156, 0.021835,-0.063404,-1.020074, 0.000044,-0.000127,-0.002041, 0.066167,-0.383289,-0.200881,1,-0.033736,-0.006524, 0.014460,1,-0.147919, 0.238283, 9.802639,1,0
