unix_time_ms_sensor,GPS_ts_week,GPS_ts_tow,scaledAccelX,scaledAccelY,scaledAccelZ,deltaVelX,deltaVelY,deltaVelZ,unix_time_ms_filter,fGPS_ts_week,fGPS_ts_tow,estLinAccelX,estLinAccelY,estLinAccelZ,estLinAccel_valid,estAngRateX,estAngRateY,estAngRateZ,estAngRate_valid,estGravityX,estGravityY,estGravityZ,estGravity_valid,flag_sensor,flag_filter
1779141264936.000000000,2419,165282.936000000,0.014285470,-0.026483303,-0.997014284,0.000136767,-0.000249696,-0.009936475,1779141264936.000000000,2419,165282.936000000,0.011965688,0.008930924,0.024761457,1,0.000898964,0.001769624,0.000250917,1,-0.128181934,0.268671572,9.802130699,1,0,0
1779141264946.000000000,2419,165282.946000000,0.015037466,-0.024332324,-0.995323718,0.000150449,-0.000253292,-0.009968239,1779141264946.000000000,2419,165282.946000000,0.019278545,0.030029323,0.041338995,1,-0.000427924,-0.000279332,-0.000421102,1,-0.128180280,0.268634409,9.802131653,1,0,0
1779141264966.000000000,2419,165282.966000000,0.013153698,-0.027853562,-0.996010125,0.000134419,-0.000276770,-0.009972524,1779141264966.000000000,2419,165282.966000000,0.000775984,-0.004416413,0.034605812,1,-0.000415928,0.000236541,0.000044704,1,-0.128225073,0.268720776,9.802128792,1,0,0
1779141264976.000000000,2419,165282.976000000,0.012311301,-0.028405732,-0.994816899,0.000124183,-0.000280098,-0.009946000,1779141264976.000000000,2419,165282.976000000,-0.007535951,-0.009839155,0.046306621,1,0.000193288,0.001308211,-0.000539927,1,-0.128309861,0.268731743,9.802127838,1,0,0
1779141264986.000000000,2419,165282.986000000,0.011581645,-0.029448051,-0.996624947,0.000120637,-0.000295739,-0.009967401,1779141264986.000000000,2419,165282.986000000,-0.014744562,-0.020047074,0.028574772,1,0.000068591,-0.000103007,-0.000077246,1,-0.128318563,0.268741786,9.802126884,1,0,0
1779141265006.000000000,2419,165283.006000000,0.012387141,-0.028636416,-0.996073782,0.000120797,-0.000296165,-0.009965680,1779141265006.000000000,2419,165283.006000000,-0.006843337,-0.012154222,0.033981737,1,-0.001147175,0.000185896,0.000867010,1,-0.128324732,0.268636853,9.802129745,1,0,0
1779141265016.000000000,2419,165283.016000000,0.013107063,-0.028272303,-0.996130764,0.000129396,-0.000280531,-0.009947928,1779141265016.000000000,2419,165283.016000000,0.000194492,-0.008600892,0.033422336,1,0.000339070,0.000021715,0.000833199,1,-0.128341869,0.268666565,9.802128792,1,0,0
1779141265036.000000000,2419,165283.036000000,0.014366911,-0.025890261,-0.995683491,0.000143412,-0.000259227,-0.009957314,1779141265036.000000000,2419,165283.036000000,0.012478928,0.014795152,0.037806828,1,0.000504756,0.000002408,0.000482453,1,-0.128412008,0.268707842,9.802126884,1,0,0
1779141265046.000000000,2419,165283.046000000,0.013635002,-0.026010955,-0.995915711,0.000139604,-0.000260013,-0.009958033,1779141265046.000000000,2419,165283.046000000,0.005288507,0.013658918,0.035528209,1,0.000487937,-0.000322882,0.001002856,1,-0.128414258,0.268754900,9.802125931,1,0,0
1779141265066.000000000,2419,165283.066000000,0.013225368,-0.025887679,-0.995602965,0.000133049,-0.000257295,-0.009951756,1779141265066.000000000,2419,165283.066000000,0.001315485,0.014852232,0.038596250,1,0.000007047,0.000177301,0.000299963,1,-0.128386348,0.268723994,9.802126884,1,0,0
1779141265076.000000000,2419,165283.076000000,0.012473279,-0.026861433,-0.994720280,0.000125287,-0.000264638,-0.009950150,1779141265076.000000000,2419,165283.076000000,-0.006078900,0.005355679,0.047250796,1,0.001212273,-0.000395828,-0.000482980,1,-0.128388047,0.268813998,9.802124023,1,0,0
1779141265096.000000000,2419,165283.096000000,0.012717865,-0.027724899,-0.995705128,0.000128215,-0.000279250,-0.009958221,1779141265096.000000000,2419,165283.096000000,-0.003652627,-0.003053300,0.037591178,1,-0.000389920,-0.000133570,-0.000622971,1,-0.128368661,0.268822700,9.802124023,1,0,0
1779141265106.000000000,2419,165283.106000000,0.012638051,-0.027145207,-0.995807767,0.000126234,-0.000273466,-0.009963259,1779141265106.000000000,2419,165283.106000000,-0.004360161,0.002613002,0.036586754,1,-0.000135836,-0.001529210,-0.000283122,1,-0.128249645,0.268812239,9.802125931,1,0,0
1779141265126.000000000,2419,165283.126000000,0.012987797,-0.027483359,-0.995562911,0.000128735,-0.000276375,-0.009959495,1779141265126.000000000,2419,165283.126000000,-0.000861377,-0.000704573,0.038989216,1,-0.000491128,0.000049942,-0.000197633,1,-0.128229886,0.268799722,9.802126884,1,0,0
1779141265136.000000000,2419,165283.136000000,0.012801825,-0.028405895,-0.997030556,0.000129828,-0.000283703,-0.009969309,1779141265136.000000000,2419,165283.136000000,-0.002705684,-0.009755110,0.024595670,1,-0.000303696,-0.000141503,0.000175487,1,-0.128244147,0.268802166,9.802126884,1,0,0
1779141265146.000000000,2419,165283.146000000,0.013029899,-0.026841370,-0.994403660,0.000131928,-0.000268993,-0.009945108,1779141265146.000000000,2419,165283.146000000,-0.000468165,0.005557373,0.050357148,1,0.000194431,0.000137550,-0.000201701,1,-0.128252298,0.268787295,9.802126884,1,0,0
1779141265166.000000000,2419,165283.166000000,0.013526904,-0.028918443,-0.995784938,0.000131555,-0.000285225,-0.009950116,1779141265166.000000000,2419,165283.166000000,0.004499347,-0.014706385,0.036810312,1,0.001003625,0.000073898,0.000383798,1,-0.128156260,0.268918157,9.802124023,1,0,0
1779141265176.000000000,2419,165283.176000000,0.013358656,-0.028375812,-0.995972216,0.000134927,-0.000290931,-0.009967123,1779141265176.000000000,2419,165283.176000000,0.002893900,-0.009393217,0.034974471,1,-0.000229042,-0.000481326,0.000059301,1,-0.128094718,0.268871337,9.802126884,1,0,0
1779141265196.000000000,2419,165283.196000000,0.012751378,-0.026397152,-0.995060146,0.000130909,-0.000267486,-0.009955404,1779141265196.000000000,2419,165283.196000000,-0.002978222,0.009984076,0.043920785,1,-0.000461192,0.000054840,0.000075116,1,-0.128026083,0.268849343,9.802127838,1,0,0
1779141265206.000000000,2419,165283.206000000,0.013129311,-0.027330870,-0.997021556,0.000129220,-0.000270306,-0.009964645,1779141265206.000000000,2419,165283.206000000,0.000738087,0.000881218,0.024684547,1,0.000383751,-0.000487657,0.000110100,1,-0.128001034,0.268918306,9.802126884,1,0,0
1779141265226.000000000,2419,165283.226000000,0.012516825,-0.026263973,-0.995401144,0.000124554,-0.000261293,-0.009960338,1779141265226.000000000,2419,165283.226000000,-0.005309438,0.011345863,0.040575184,1,-0.000537571,0.000411959,0.000481268,1,-0.128070027,0.268890887,9.802125931,1,0,0
1779141265236.000000000,2419,165283.236000000,0.013395512,-0.025936937,-0.995661497,0.000131655,-0.000257832,-0.009953652,1779141265236.000000000,2419,165283.236000000,0.003291311,0.014560325,0.038020618,1,0.000532641,-0.000355414,-0.000361787,1,-0.128063008,0.268931270,9.802124977,1,0,0
1779141265256.000000000,2419,165283.256000000,0.013993598,-0.028474610,-0.996111333,0.000136775,-0.000279821,-0.009954078,1779141265256.000000000,2419,165283.256000000,0.009148538,-0.010262289,0.033608191,1,0.000217847,0.000551258,0.000183028,1,-0.128098831,0.268985152,9.802123070,1,0,0
1779141265266.000000000,2419,165283.266000000,0.013515868,-0.027281364,-0.994457304,0.000135944,-0.000272324,-0.009949278,1779141265266.000000000,2419,165283.266000000,0.004430887,0.001403370,0.049828600,1,-0.000306388,0.000471284,-0.000621273,1,-0.128129750,0.268932372,9.802124023,1,0,0
1779141265276.000000000,2419,165283.276000000,0.013041946,-0.027968602,-0.996115685,0.000131120,-0.000278558,-0.009959058,1779141265276.000000000,2419,165283.276000000,-0.000220507,-0.005281795,0.033564236,1,0.000587168,-0.000092472,-0.000595822,1,-0.128115937,0.269014597,9.802122116,1,0,0
1779141265296.000000000,2419,165283.296000000,0.013548559,-0.028609049,-0.997351408,0.000135890,-0.000286850,-0.009973509,1779141265296.000000000,2419,165283.296000000,0.004651195,-0.011522526,0.021443628,1,-0.000008502,0.000125461,0.000636252,1,-0.128218159,0.269036442,9.802120209,1,0,0
1779141265306.000000000,2419,165283.306000000,0.012211902,-0.026918437,-0.995027304,0.000123621,-0.000269433,-0.009943513,1779141265306.000000000,2419,165283.306000000,-0.008462954,0.005011149,0.044236340,1,-0.000419063,0.000353616,-0.000127770,1,-0.128231958,0.268977731,9.802122116,1,0,0
1779141265326.000000000,2419,165283.326000000,0.013280200,-0.026962588,-0.996235549,0.000129538,-0.000266499,-0.009951146,1779141265326.000000000,2419,165283.326000000,0.002003993,0.004629950,0.032386471,1,0.001199475,-0.000047610,0.000451641,1,-0.128228411,0.269080222,9.802119255,1,0,0
1779141265336.000000000,2419,165283.336000000,0.012577734,-0.027292753,-0.994906723,0.000127522,-0.000275357,-0.009956225,1779141265336.000000000,2419,165283.336000000,-0.004899574,0.001481778,0.045414511,1,0.000719083,-0.000298724,0.000243506,1,-0.128235489,0.269154787,9.802117348,1,0,0
1779141265356.000000000,2419,165283.356000000,0.013568798,-0.025986610,-0.994912386,0.000134942,-0.000264559,-0.009949227,1779141265356.000000000,2419,165283.356000000,0.004769030,0.014202985,0.045360636,1,0.000358237,0.000217639,0.000743535,1,-0.128301591,0.269056082,9.802118301,1,0,0
1779141265366.000000000,2419,165283.366000000,0.013441570,-0.027395682,-0.995937228,0.000137615,-0.000273429,-0.009963337,1779141265366.000000000,2419,165283.366000000,0.003513180,0.000419338,0.035309553,1,-0.000402086,0.000262361,-0.000227517,1,-0.128311992,0.269066602,9.802118301,1,0,0
1779141265386.000000000,2419,165283.386000000,0.012383621,-0.026809292,-0.994683802,0.000126367,-0.000273494,-0.009961070,1779141265386.000000000,2419,165283.386000000,-0.006831076,0.006101987,0.047603372,1,-0.001216268,-0.000688618,-0.000123352,1,-0.128251538,0.268973351,9.802122116,1,0,0
1779141265396.000000000,2419,165283.396000000,0.012757432,-0.027513511,-0.997241974,0.000123428,-0.000268636,-0.009958807,1779141265396.000000000,2419,165283.396000000,-0.003189510,-0.000862950,0.022517433,1,0.000174788,-0.000161682,0.000285297,1,-0.128298685,0.268945068,9.802122116,1,0,0
1779141265416.000000000,2419,165283.416000000,0.013177753,-0.027758006,-0.996873558,0.000130817,-0.000275454,-0.009959944,1779141265416.000000000,2419,165283.416000000,0.000984523,-0.003336882,0.026133727,1,-0.000340046,0.000368530,-0.000592652,1,-0.128257126,0.268865287,9.802124977,1,0,0
1779141265426.000000000,2419,165283.426000000,0.013286605,-0.026838578,-0.994141042,0.000133960,-0.000270376,-0.009951238,1779141265426.000000000,2419,165283.426000000,0.002036129,0.005675461,0.052930422,1,0.000060794,0.000576140,0.000412766,1,-0.128278583,0.268874079,9.802124023,1,0,0
1779141265436.000000000,2419,165283.436000000,0.013405840,-0.027103381,-0.996445417,0.000133461,-0.000271499,-0.009963750,1779141265436.000000000,2419,165283.436000000,0.003132835,0.003127999,0.030329665,1,-0.000544019,0.000699322,-0.000510332,1,-0.128355816,0.268904209,9.802122116,1,0,0
1779141265456.000000000,2419,165283.456000000,0.012999988,-0.028009944,-0.994894385,0.000133966,-0.000284616,-0.009957400,1779141265456.000000000,2419,165283.456000000,-0.000945996,-0.005741880,0.045537911,1,0.000422601,-0.000037914,-0.000263474,1,-0.128431380,0.268954933,9.802120209,1,0,0
1779141265466.000000000,2419,165283.466000000,0.013510358,-0.028146483,-0.996777594,0.000135810,-0.000281411,-0.009962935,1779141265466.000000000,2419,165283.466000000,0.004067228,-0.007037731,0.027069302,1,-0.000199307,-0.000584956,-0.000005438,1,-0.128405884,0.268978775,9.802119255,1,0,0
1779141265486.000000000,2419,165283.486000000,0.013005761,-0.026726570,-0.995887876,0.000132510,-0.000269571,-0.009962988,1779141265486.000000000,2419,165283.486000000,-0.000880949,0.006849989,0.035795413,1,0.000228837,-0.000525802,0.000278595,1,-0.128407270,0.268955380,9.802120209,1,0,0
1779141265496.000000000,2419,165283.496000000,0.013065266,-0.027199563,-0.995417774,0.000130441,-0.000268864,-0.009950300,1779141265496.000000000,2419,165283.496000000,-0.000317935,0.002266539,0.040404059,1,0.000718739,0.000598681,-0.000083950,1,-0.128463194,0.269025534,9.802117348,1,0,0
1779141265516.000000000,2419,165283.516000000,0.013053559,-0.026647963,-0.996131301,0.000130272,-0.000260708,-0.009952310,1779141265516.000000000,2419,165283.516000000,-0.000469842,0.007706590,0.033404831,1,0.000893875,0.000219824,-0.000213108,1,-0.128488570,0.269061655,9.802116394,1,0,0
1779141265526.000000000,2419,165283.526000000,0.012748148,-0.026913885,-0.994650900,0.000128532,-0.000270690,-0.009955503,1779141265526.000000000,2419,165283.526000000,-0.003416520,0.005114327,0.047924098,1,-0.000717634,-0.000326942,0.000233703,1,-0.128422767,0.269027114,9.802118301,1,0,0
1779141265546.000000000,2419,165283.546000000,0.012853424,-0.027812442,-0.994327605,0.000129334,-0.000279323,-0.009946113,1779141265546.000000000,2419,165283.546000000,-0.002479732,-0.003758092,0.051093619,1,-0.000204721,-0.000115798,-0.000106341,1,-0.128525257,0.268982381,9.802118301,1,0,0
1779141265556.000000000,2419,165283.556000000,0.013051013,-0.027814075,-0.995868623,0.000133046,-0.000281636,-0.009960809,1779141265556.000000000,2419,165283.556000000,-0.000528995,-0.003791641,0.035982385,1,-0.000459999,-0.000555598,-0.000093898,1,-0.128498465,0.268956900,9.802119255,1,0,0
1779141265566.000000000,2419,165283.566000000,0.013781586,-0.028025484,-0.995288134,0.000136319,-0.000279204,-0.009947101,1779141265566.000000000,2419,165283.566000000,0.006628518,-0.005845602,0.041674249,1,0.000125695,0.000284680,0.000375549,1,-0.128531247,0.268994600,9.802117348,1,0,0
1779141265586.000000000,2419,165283.586000000,0.013673065,-0.027880432,-0.997412086,0.000135631,-0.000276265,-0.009967517,1779141265586.000000000,2419,165283.586000000,0.005640347,-0.004448158,0.020847866,1,0.000245652,-0.000474965,0.000818404,1,-0.128431097,0.268973500,9.802119255,1,0,0
1779141265596.000000000,2419,165283.596000000,0.013163582,-0.025025334,-0.994030356,0.000129284,-0.000253390,-0.009940905,1779141265596.000000000,2419,165283.596000000,0.000632760,0.023561724,0.054010488,1,-0.000248160,0.000488290,0.000236379,1,-0.128477335,0.268974781,9.802118301,1,0,0
1779141265616.000000000,2419,165283.616000000,0.012955889,-0.026271638,-0.995428860,0.000126660,-0.000258492,-0.009947626,1779141265616.000000000,2419,165283.616000000,-0.001407745,0.011334772,0.040295567,1,-0.000087500,0.000705943,-0.000022925,1,-0.128483683,0.268968821,9.802118301,1,0,0
1779141265626.000000000,2419,165283.626000000,0.012693428,-0.025491916,-0.995430410,0.000128510,-0.000260588,-0.009964482,1779141265626.000000000,2419,165283.626000000,-0.003968044,0.018979929,0.040281173,1,-0.000524173,-0.001654597,0.000128617,1,-0.128396332,0.268953949,9.802120209,1,0,0
1779141265646.000000000,2419,165283.646000000,0.012663799,-0.027339164,-0.995106518,0.000126857,-0.000273440,-0.009956774,1779141265646.000000000,2419,165283.646000000,-0.004242137,0.000840363,0.043457501,1,-0.000274637,0.000664398,-0.000137228,1,-0.128452435,0.268937379,9.802120209,1,0,0
1779141265656.000000000,2419,165283.656000000,0.013941478,-0.029538684,-0.997252226,0.000135547,-0.000292041,-0.009970116,1779141265656.000000000,2419,165283.656000000,0.008216773,-0.020681938,0.022413729,1,0.000064390,0.000001100,0.000049363,1,-0.128502429,0.268995643,9.802117348,1,0,0
1779141265676.000000000,2419,165283.676000000,0.013453966,-0.028403411,-0.996589184,0.000137174,-0.000285904,-0.009968738,1779141265676.000000000,2419,165283.676000000,0.003542302,-0.009679834,0.028920975,1,-0.001724522,-0.000881687,0.000183832,1,-0.128368378,0.268808752,9.802124977,1,0,0
1779141265686.000000000,2419,165283.686000000,0.013172910,-0.027526826,-0.995899677,0.000130526,-0.000272170,-0.009947194,1779141265686.000000000,2419,165283.686000000,0.000826683,-0.001090920,0.035682835,1,0.001387615,-0.000247958,-0.000100266,1,-0.128347784,0.268898308,9.802122116,1,0,0
1779141265706.000000000,2419,165283.706000000,0.013245733,-0.028140549,-0.997390807,0.000129252,-0.000275896,-0.009962726,1779141265706.000000000,2419,165283.706000000,0.001521776,-0.007059853,0.021058824,1,0.000062651,0.000328609,0.000490692,1,-0.128384337,0.268906862,9.802122116,1,0,0
1779141265716.000000000,2419,165283.716000000,0.012462626,-0.026079990,-0.994379342,0.000125483,-0.000262108,-0.009949546,1779141265716.000000000,2419,165283.716000000,-0.006184803,0.013155440,0.050590739,1,0.000612902,0.000444809,0.000143978,1,-0.128415182,0.268931985,9.802120209,1,0,0
1779141265726.000000000,2419,165283.726000000,0.012777634,-0.026679276,-0.995870471,0.000128241,-0.000266546,-0.009961020,1779141265726.000000000,2419,165283.726000000,-0.003082446,0.007337383,0.035966232,1,0.000534907,-0.000152614,0.000789088,1,-0.128382802,0.268988729,9.802119255,1,0,0
1779141265746.000000000,2419,165283.746000000,0.012898630,-0.026569184,-0.995918274,0.000132212,-0.000269905,-0.009967892,1779141265746.000000000,2419,165283.746000000,-0.001899259,0.008512734,0.035494424,1,-0.000379918,0.000273628,-0.000555284,1,-0.128400639,0.269055367,9.802117348,1,0,0
1779141265756.000000000,2419,165283.756000000,0.013428729,-0.026907096,-0.995888293,0.000132892,-0.000264979,-0.009954249,1779141265756.000000000,2419,165283.756000000,0.003278040,0.005151886,0.035789438,1,-0.000554454,0.000587369,-0.000346992,1,-0.128431439,0.269002944,9.802118301,1,0,0
1779141265776.000000000,2419,165283.776000000,0.013444726,-0.028376609,-0.997188628,0.000135102,-0.000276529,-0.009964135,1779141265776.000000000,2419,165283.776000000,0.003338507,-0.009278806,0.023036547,1,0.000270389,0.001232470,-0.000437438,1,-0.128548071,0.269008964,9.802116394,1,0,0
1779141265786.000000000,2419,165283.786000000,0.012754609,-0.027738798,-0.994740546,0.000128432,-0.000278459,-0.009947840,1779141265786.000000000,2419,165283.786000000,-0.003441880,-0.003021801,0.047044441,1,0.000424480,-0.000377066,0.000417593,1,-0.128509760,0.269016325,9.802117348,1,0,0
1779141265806.000000000,2419,165283.806000000,0.012968074,-0.028423600,-0.995492697,0.000129385,-0.000282768,-0.009949835,1779141265806.000000000,2419,165283.806000000,-0.001379000,-0.009853086,0.039671060,1,0.000594967,0.000116726,0.000026434,1,-0.128555983,0.268904626,9.802119255,1,0,0
1779141265816.000000000,2419,165283.816000000,0.013318833,-0.028126346,-0.995282233,0.000133877,-0.000285120,-0.009957436,1779141265816.000000000,2419,165283.816000000,0.002083505,-0.006915815,0.041734423,1,0.000291313,-0.000034212,0.000293922,1,-0.128528327,0.268918574,9.802119255,1,0,0
1779141265836.000000000,2419,165283.836000000,0.013282344,-0.026720230,-0.995030165,0.000131354,-0.000272714,-0.009955293,1779141265836.000000000,2419,165283.836000000,0.001716983,0.006901709,0.044205911,1,-0.000592428,-0.000098029,0.000086936,1,-0.128535181,0.268919200,9.802119255,1,0,0
1779141265846.000000000,2419,165283.846000000,0.013484065,-0.027151028,-0.996387362,0.000133608,-0.000267300,-0.009961408,1779141265846.000000000,2419,165283.846000000,0.003712729,0.002635274,0.030897949,1,-0.001061923,-0.000831833,-0.000168855,1,-0.128494978,0.268862724,9.802121162,1,0,0
1779141265856.000000000,2419,165283.856000000,0.012688988,-0.025811691,-0.994617105,0.000130722,-0.000258007,-0.009949303,1779141265856.000000000,2419,165283.856000000,-0.004024850,0.015697800,0.048260394,1,-0.000613788,-0.000464344,-0.000127009,1,-0.128446937,0.268804818,9.802124023,1,0,0
1779141265866.000000000,2419,165283.866000000,0.013775187,-0.026844257,-0.996602297,0.000134945,-0.000268396,-0.009966689,1779141265866.000000000,2419,165283.866000000,0.006578987,0.005538225,0.028792996,1,-0.000284527,-0.000041769,-0.000160820,1,-0.128508285,0.268781543,9.802124023,1,0,0
1779141265876.000000000,2419,165283.876000000,0.013405509,-0.026666069,-0.996012449,0.000133785,-0.000264849,-0.009956243,1779141265876.000000000,2419,165283.876000000,0.002945994,0.007258566,0.034577366,1,-0.000423594,0.000247848,-0.000791558,1,-0.128525570,0.268749863,9.802124023,1,0,0
1779141265886.000000000,2419,165283.886000000,0.013276464,-0.027159829,-0.995732427,0.000132966,-0.000273464,-0.009961880,1779141265886.000000000,2419,165283.886000000,0.001700905,0.002363600,0.037325699,1,-0.000701159,-0.000760570,-0.000383355,1,-0.128473341,0.268688530,9.802126884,1,0,0
1779141265906.000000000,2419,165283.906000000,0.012486785,-0.028501851,-0.995166838,0.000124749,-0.000282885,-0.009954660,1779141265906.000000000,2419,165283.906000000,-0.006080598,-0.010749768,0.042870265,1,0.000521504,0.000504142,-0.000403975,1,-0.128550217,0.268774062,9.802123070,1,0,0
1779141265916.000000000,2419,165283.916000000,0.013031314,-0.028615126,-0.996867895,0.000132867,-0.000287183,-0.009963441,1779141265916.000000000,2419,165283.916000000,-0.000725989,-0.011862250,0.026189256,1,-0.000068587,-0.000404849,-0.000346737,1,-0.128507212,0.268754035,9.802124023,1,0,0
1779141265936.000000000,2419,165283.936000000,0.013268616,-0.027638372,-0.996121526,0.000130922,-0.000278237,-0.009960047,1779141265936.000000000,2419,165283.936000000,0.001629676,-0.002219951,0.033506669,1,0.000347327,-0.000262910,-0.000009062,1,-0.128482804,0.268830746,9.802122116,1,0,0
1779141265946.000000000,2419,165283.946000000,0.013167667,-0.026810100,-0.995336115,0.000129334,-0.000266351,-0.009946858,1779141265946.000000000,2419,165283.946000000,0.000679890,0.005928471,0.041209064,1,0.000508944,-0.000190196,-0.000002053,1,-0.128444895,0.268861622,9.802122116,1,0,0
1779141265966.000000000,2419,165283.966000000,0.013771147,-0.025778567,-0.996394813,0.000138397,-0.000257093,-0.009957249,1779141265966.000000000,2419,165283.966000000,0.006567814,0.015980944,0.030827565,1,-0.000396761,-0.000086806,0.000391722,1,-0.128477961,0.268770128,9.802124023,1,0,0
1779141265976.000000000,2419,165283.976000000,0.012881289,-0.025708716,-0.995203793,0.000128702,-0.000258875,-0.009954773,1779141265976.000000000,2419,165283.976000000,-0.002090373,0.016661644,0.042509019,1,-0.000002041,0.000129017,-0.000063402,1,-0.128416762,0.268777937,9.802124977,1,0,0
1779141265996.000000000,2419,165283.996000000,0.013565140,-0.026862839,-0.995072007,0.000133598,-0.000266435,-0.009954287,1779141265996.000000000,2419,165283.996000000,0.004654229,0.005395308,0.043800618,1,0.000135793,-0.001161925,-0.000260852,1,-0.128345028,0.268834800,9.802124023,1,0,0
1779141266006.000000000,2419,165284.006000000,0.012635345,-0.027655842,-0.995753884,0.000125403,-0.000279677,-0.009954076,1779141266006.000000000,2419,165284.006000000,-0.004382750,-0.002389283,0.037114821,1,0.000353408,-0.001030854,-0.000641672,1,-0.128261983,0.268832713,9.802124977,1,0,0
1779141266016.000000000,2419,165284.016000000,0.013002351,-0.028520146,-0.995368242,0.000129645,-0.000283974,-0.009952141,1779141266016.000000000,2419,165284.016000000,-0.000706222,-0.010832112,0.040896840,1,-0.000101524,-0.000078420,-0.000475955,1,-0.128213733,0.268851638,9.802125931,1,0,0
1779141266036.000000000,2419,165284.036000000,0.012984770,-0.028879529,-0.995959878,0.000131186,-0.000288935,-0.009960702,1779141266036.000000000,2419,165284.036000000,-0.000886953,-0.014340702,0.035093911,1,0.000193170,-0.000297933,0.000251343,1,-0.128214553,0.268876880,9.802124977,1,0,0
1779141266046.000000000,2419,165284.046000000,0.013104476,-0.028090747,-0.995733917,0.000130813,-0.000279256,-0.009952832,1779141266046.000000000,2419,165284.046000000,0.000282784,-0.006543181,0.037308294,1,0.000471659,0.000564183,-0.000013997,1,-0.128245845,0.268947691,9.802122116,1,0,0
1779141266066.000000000,2419,165284.066000000,0.013373836,-0.026636116,-0.995437026,0.000131255,-0.000266822,-0.009951998,1779141266066.000000000,2419,165284.066000000,0.002861315,0.007758790,0.040217895,1,-0.000050528,0.000156387,-0.000281447,1,-0.128296345,0.268968195,9.802121162,1,0,0
1779141266076.000000000,2419,165284.076000000,0.013517095,-0.026554797,-0.995628953,0.000136425,-0.000268690,-0.009959665,1779141266076.000000000,2419,165284.076000000,0.004279004,0.008533147,0.038336802,1,-0.000415785,-0.000621926,0.000336265,1,-0.128258735,0.268933922,9.802123070,1,0,0
1779141266096.000000000,2419,165284.096000000,0.012719852,-0.025745403,-0.995020390,0.000128629,-0.000259641,-0.009955230,1779141266096.000000000,2419,165284.096000000,-0.003595383,0.016388075,0.044306252,1,-0.000556719,0.000359872,-0.000792734,1,-0.128346443,0.268846571,9.802124023,1,0,0
1779141266106.000000000,2419,165284.106000000,0.012723851,-0.026580850,-0.995787799,0.000127616,-0.000264456,-0.009958465,1779141266106.000000000,2419,165284.106000000,-0.003574028,0.008226268,0.036779176,1,0.000480324,0.000212721,-0.000545279,1,-0.128359497,0.268910140,9.802122116,1,0,0
1779141266126.000000000,2419,165284.126000000,0.012503100,-0.027163830,-0.995766640,0.000128253,-0.000272847,-0.009959457,1779141266126.000000000,2419,165284.126000000,-0.005765455,0.002485907,0.036987234,1,-0.000524714,0.000386126,0.000178272,1,-0.128390878,0.268855810,9.802123070,1,0,0
1779141266136.000000000,2419,165284.136000000,0.012925684,-0.027062012,-0.995672464,0.000127378,-0.000271777,-0.009955429,1779141266136.000000000,2419,165284.136000000,-0.001697669,0.003467814,0.037910536,1,-0.000138114,0.000548980,-0.000339770,1,-0.128472760,0.268851072,9.802122116,1,0,0
1779141266156.000000000,2419,165284.156000000,0.013195969,-0.028080055,-0.996138513,0.000134136,-0.000279794,-0.009964256,1779141266156.000000000,2419,165284.156000000,0.000973502,-0.006542927,0.033341151,1,-0.000479342,-0.000812552,0.000297849,1,-0.128409162,0.268813521,9.802124023,1,0,0
1779141266166.000000000,2419,165284.166000000,0.012688651,-0.026844680,-0.994663417,0.000125146,-0.000267936,-0.009946419,1779141266166.000000000,2419,165284.166000000,-0.003964495,0.005534431,0.047808271,1,-0.000315293,-0.000016904,-0.000534574,1,-0.128397599,0.268780768,9.802124977,1,0,0
1779141266176.000000000,2419,165284.176000000,0.013110253,-0.027242811,-0.995702684,0.000130884,-0.000271457,-0.009958515,1779141266176.000000000,2419,165284.176000000,0.000180138,0.001608585,0.037617054,1,-0.000419598,-0.000168406,0.000118060,1,-0.128382176,0.268756270,9.802125931,1,0,0
1779141266196.000000000,2419,165284.196000000,0.012559713,-0.028255088,-0.995696306,0.000127824,-0.000281964,-0.009961300,1779141266196.000000000,2419,165284.196000000,-0.005221254,-0.008229814,0.037677366,1,-0.000152586,0.000742246,-0.000370609,1,-0.128415316,0.268853456,9.802123070,1,0,0
1779141266206.000000000,2419,165284.206000000,0.013100503,-0.028793545,-0.995852053,0.000129821,-0.000285843,-0.009957429,1779141266206.000000000,2419,165284.206000000,0.000059132,-0.013522549,0.036149785,1,-0.000063435,-0.000260574,0.000396606,1,-0.128404573,0.268843889,9.802123070,1,0,0
1779141266216.000000000,2419,165284.216000000,0.013079022,-0.027155112,-0.995716155,0.000130652,-0.000272811,-0.009958999,1779141266216.000000000,2419,165284.216000000,-0.000105144,0.002485635,0.037484288,1,-0.000471183,-0.000231174,-0.000015606,1,-0.128359348,0.268771648,9.802125931,1,0,0
1779141266226.000000000,2419,165284.226000000,0.012817417,-0.027961574,-0.996259034,0.000127186,-0.000278181,-0.009958465,1779141266226.000000000,2419,165284.226000000,-0.002658054,-0.005428224,0.032161471,1,-0.000111120,0.000056315,0.000085454,1,-0.128355667,0.268777728,9.802125931,1,0,0
1779141266236.000000000,2419,165284.236000000,0.012925871,-0.027861871,-0.995798171,0.000129719,-0.000280154,-0.009959066,1779141266236.000000000,2419,165284.236000000,-0.001642150,-0.004463434,0.036680721,1,-0.000540764,0.000536163,0.000216734,1,-0.128418192,0.268751413,9.802125931,1,0,0
1779141266256.000000000,2419,165284.256000000,0.013179203,-0.026942963,-0.995273292,0.000131163,-0.000268847,-0.009951419,1779141266256.000000000,2419,165284.256000000,0.000805851,0.004526765,0.041827898,1,-0.000614579,0.000378160,0.000584307,1,-0.128449291,0.268728048,9.802125931,1,0,0
1779141266266.000000000,2419,165284.266000000,0.013480716,-0.027210210,-0.995648444,0.000135244,-0.000272832,-0.009958652,1779141266266.000000000,2419,165284.266000000,0.003686010,0.001866736,0.038148955,1,-0.000080529,0.000651361,0.000266449,1,-0.128534764,0.268705368,9.802124977,1,0,0
1779141266286.000000000,2419,165284.286000000,0.012562038,-0.027175596,-0.996062100,0.000125271,-0.000270579,-0.009958737,1779141266286.000000000,2419,165284.286000000,-0.005428792,0.002279452,0.034089219,1,0.000246991,0.000721355,0.000740148,1,-0.128642187,0.268789023,9.802121162,1,0,0
1779141266296.000000000,2419,165284.296000000,0.012923512,-0.027209155,-0.995040655,0.000132001,-0.000274177,-0.009959388,1779141266296.000000000,2419,165284.296000000,-0.001921079,0.001960555,0.044105157,1,-0.000032873,0.000483567,0.000194045,1,-0.128672361,0.268790305,9.802121162,1,0,0
1779141266306.000000000,2419,165284.306000000,0.012532986,-0.027015163,-0.996467590,0.000126576,-0.000267614,-0.009956559,1779141266306.000000000,2419,165284.306000000,-0.005757734,0.003911383,0.030110002,1,0.000959284,-0.000510618,-0.000049157,1,-0.128648460,0.268869549,9.802119255,1,0,0
1779141266326.000000000,2419,165284.326000000,0.013263685,-0.026677419,-0.996467948,0.000131093,-0.000266202,-0.009965351,1779141266326.000000000,2419,165284.326000000,0.001299565,0.007411999,0.030100226,1,0.000495428,0.000584833,-0.000235534,1,-0.128791198,0.269043475,9.802112579,1,0,0
1779141266336.000000000,2419,165284.336000000,0.012746572,-0.027132252,-0.994920552,0.000128169,-0.000269384,-0.009952068,1779141266336.000000000,2419,165284.336000000,-0.003740950,0.002986217,0.045274641,1,0.000574530,-0.000463009,0.000066847,1,-0.128727630,0.269080698,9.802112579,1,0,0
1779141266356.000000000,2419,165284.356000000,0.012766561,-0.028087445,-0.995909214,0.000130462,-0.000282295,-0.009956295,1779141266356.000000000,2419,165284.356000000,-0.003591775,-0.006436960,0.035580114,1,-0.000078557,-0.000120454,0.000176111,1,-0.128785074,0.269004434,9.802113533,1,0,0
1779141266366.000000000,2419,165284.366000000,0.012915302,-0.027866179,-0.995513618,0.000130527,-0.000279879,-0.009958229,1779141266366.000000000,2419,165284.366000000,-0.002072405,-0.004322245,0.039462160,1,-0.000864365,-0.000142100,-0.000247349,1,-0.128724039,0.268924564,9.802116394,1,0,0
1779141266386.000000000,2419,165284.386000000,0.013177201,-0.027100047,-0.995242953,0.000130650,-0.000273321,-0.009954726,1779141266386.000000000,2419,165284.386000000,0.000454784,0.003150861,0.042116486,1,-0.000256576,-0.000643594,0.000047203,1,-0.128749296,0.268903583,9.802117348,1,0,0
1779141266396.000000000,2419,165284.396000000,0.013225242,-0.026668342,-0.996404529,0.000132920,-0.000265800,-0.009957877,1779141266396.000000000,2419,165284.396000000,0.000964923,0.007405787,0.030725157,1,-0.000191215,-0.000115380,-0.000348250,1,-0.128722176,0.268936694,9.802116394,1,0,0
1779141266416.000000000,2419,165284.416000000,0.013355653,-0.026932990,-0.995592237,0.000133405,-0.000270486,-0.009959016,1779141266416.000000000,2419,165284.416000000,0.002229492,0.004790791,0.038691211,1,-0.000425821,-0.000682812,-0.000414060,1,-0.128723755,0.268899828,9.802117348,1,0,0
1779141266426.000000000,2419,165284.426000000,0.013314412,-0.027702652,-0.996378958,0.000131689,-0.000273710,-0.009955827,1779141266426.000000000,2419,165284.426000000,0.001850398,-0.002787990,0.030977609,1,-0.000693424,-0.000336107,-0.000884118,1,-0.128709659,0.268860251,9.802118301,1,0,0
1779141266446.000000000,2419,165284.446000000,0.012526127,-0.028445985,-0.996148407,0.000127702,-0.000286986,-0.009964777,1779141266446.000000000,2419,165284.446000000,-0.005818115,-0.010212748,0.033242550,1,-0.000999519,-0.000623831,0.000344781,1,-0.128637701,0.268716067,9.802124023,1,0,0
1779141266456.000000000,2419,165284.456000000,0.012751000,-0.028068118,-0.994908571,0.000128017,-0.000280795,-0.009944412,1779141266456.000000000,2419,165284.456000000,-0.003580845,-0.006541139,0.045402948,1,0.000705287,0.000004036,0.000418004,1,-0.128625214,0.268735260,9.802123070,1,0,0
1779141266466.000000000,2419,165284.466000000,0.012693521,-0.027419938,-0.995593429,0.000124334,-0.000278121,-0.009961090,1779141266466.000000000,2419,165284.466000000,-0.004189805,-0.000177938,0.038686629,1,-0.000327542,0.000914226,0.000128555,1,-0.128699139,0.268709660,9.802123070,1,0,0
1779141266486.000000000,2419,165284.486000000,0.013423798,-0.026280066,-0.994963765,0.000136077,-0.000263272,-0.009958159,1779141266486.000000000,2419,165284.486000000,0.002929177,0.011113184,0.044857465,1,-0.000069277,-0.000182007,0.000073751,1,-0.128707573,0.268830478,9.802119255,1,0,0
1779141266496.000000000,2419,165284.496000000,0.013268546,-0.026537143,-0.996183276,0.000133327,-0.000264697,-0.009958541,1779141266496.000000000,2419,165284.496000000,0.001383771,0.008560139,0.032898758,1,-0.000427959,0.000528504,-0.000166868,1,-0.128752857,0.268787205,9.802120209,1,0,0
1779141266516.000000000,2419,165284.516000000,0.013134041,-0.026485281,-0.996485174,0.000130822,-0.000265311,-0.009964853,1779141266516.000000000,2419,165284.516000000,0.000064740,0.009048237,0.029938621,1,-0.000253635,0.000193578,0.000285631,1,-0.128742009,0.268772364,9.802121162,1,0,0
1779141266526.000000000,2419,165284.526000000,0.012399861,-0.026704686,-0.995820284,0.000122501,-0.000263007,-0.009955044,1779141266526.000000000,2419,165284.526000000,-0.007092997,0.006934183,0.036458634,1,0.000608856,-0.000091776,0.000059217,1,-0.128691182,0.268836737,9.802119255,1,0,0
1779141266546.000000000,2419,165284.546000000,0.012977006,-0.029098744,-0.997628152,0.000137833,-0.000291576,-0.009977394,1779141266546.000000000,2419,165284.546000000,-0.001510855,-0.016548978,0.018728426,1,-0.001008852,0.000004426,-0.000363439,1,-0.128772259,0.268780619,9.802120209,1,0,0
1779141266556.000000000,2419,165284.556000000,0.013750887,-0.027640363,-0.997485042,0.000129123,-0.000267929,-0.009942152,1779141266556.000000000,2419,165284.556000000,0.006084044,-0.002245330,0.020132365,1,0.000680513,0.001252642,-0.000278936,1,-0.128805429,0.268835187,9.802118301,1,0,0
1779141266576.000000000,2419,165284.576000000,0.012701980,-0.028141174,-0.995438099,0.000130018,-0.000277299,-0.009944735,1779141266576.000000000,2419,165284.576000000,-0.004223185,-0.007192024,0.040206917,1,0.000078677,-0.000100166,0.000306213,1,-0.128783673,0.268781215,9.802120209,1,0,0
1779141266586.000000000,2419,165284.586000000,0.012781714,-0.027473103,-0.994650602,0.000129695,-0.000272483,-0.009955500,1779141266586.000000000,2419,165284.586000000,-0.003382159,-0.000682824,0.047930893,1,-0.000583422,-0.000468614,0.000112419,1,-0.128713250,0.268718153,9.802123070,1,0,0
1779141266596.000000000,2419,165284.596000000,0.013405274,-0.026778774,-0.994304121,0.000133097,-0.000264381,-0.009938105,1779141266596.000000000,2419,165284.596000000,0.002692098,0.006096096,0.051328901,1,0.000899801,0.000868494,0.000020462,1,-0.128791451,0.268729150,9.802121162,1,0,0
1779141266616.000000000,2419,165284.616000000,0.013357316,-0.027887806,-0.996607065,0.000132325,-0.000271727,-0.009952355,1779141266616.000000000,2419,165284.616000000,0.002160716,-0.004767008,0.028743632,1,0.000877324,0.000461872,0.000391370,1,-0.128843859,0.268746465,9.802120209,1,0,0
1779141266626.000000000,2419,165284.626000000,0.012553533,-0.026068466,-0.994049489,0.000131647,-0.000266619,-0.009954480,1779141266626.000000000,2419,165284.626000000,-0.005697475,0.013067111,0.053825382,1,0.000438757,0.000117796,0.000169974,1,-0.128809124,0.268725216,9.802121162,1,0,0
1779141266646.000000000,2419,165284.646000000,0.012661261,-0.027237674,-0.995484054,0.000123743,-0.000267973,-0.009947199,1779141266646.000000000,2419,165284.646000000,-0.004618318,0.001656558,0.039755799,1,0.000415478,0.000078422,-0.000412632,1,-0.128785670,0.268779695,9.802120209,1,0,0
1779141266656.000000000,2419,165284.656000000,0.012515429,-0.027262961,-0.995082378,0.000128316,-0.000279339,-0.009968178,1779141266656.000000000,2419,165284.656000000,-0.006057248,0.001370565,0.043696281,1,-0.000531523,-0.000492250,0.000145610,1,-0.128776208,0.268712401,9.802122116,1,0,0
1779141266676.000000000,2419,165284.676000000,0.012376097,-0.026986780,-0.994069993,0.000124111,-0.000273360,-0.009947338,1779141266676.000000000,2419,165284.676000000,-0.007417376,0.004065900,0.053625036,1,-0.000370709,-0.000386695,0.000167595,1,-0.128773227,0.268704295,9.802122116,1,0,0
1779141266686.000000000,2419,165284.686000000,0.012886796,-0.028229151,-0.997247040,0.000130364,-0.000278909,-0.009968797,1779141266686.000000000,2419,165284.686000000,-0.002434732,-0.008023366,0.022465840,1,0.001036070,0.000307317,0.000508408,1,-0.128820196,0.268842578,9.802117348,1,0,0
1779141266706.000000000,2419,165284.706000000,0.013713581,-0.026789401,-0.996690452,0.000136826,-0.000270576,-0.009969844,1779141266706.000000000,2419,165284.706000000,0.005711212,0.006106240,0.027923893,1,-0.000704787,-0.000438278,0.000362697,1,-0.128759086,0.268798709,9.802120209,1,0,0
1779141266716.000000000,2419,165284.716000000,0.013812441,-0.024976211,-0.995269835,0.000135746,-0.000250255,-0.009944654,1779141266716.000000000,2419,165284.716000000,0.006666425,0.023815548,0.041857213,1,0.000533211,0.000503227,-0.000327195,1,-0.128803343,0.268765032,9.802120209,1,0,0
1779141266736.000000000,2419,165284.736000000,0.013251736,-0.026130801,-0.996770561,0.000130859,-0.000256294,-0.009958177,1779141266736.000000000,2419,165284.736000000,0.001226843,0.012585022,0.027138479,1,0.000655644,0.000168078,-0.000780300,1,-0.128734216,0.268860817,9.802118301,1,0,0
1779141266746.000000000,2419,165284.746000000,0.012655429,-0.026309779,-0.994968712,0.000127253,-0.000265955,-0.009957556,1779141266746.000000000,2419,165284.746000000,-0.004528384,0.010807083,0.044809952,1,-0.000886343,-0.000577689,-0.000548090,1,-0.128618196,0.268790007,9.802122116,1,0,0
1779141266756.000000000,2419,165284.756000000,0.012987589,-0.028274661,-0.996556520,0.000127647,-0.000277826,-0.009963742,1779141266756.000000000,2419,165284.756000000,-0.001315384,-0.008451152,0.029238194,1,0.000257400,0.000666573,-0.001449752,1,-0.128702164,0.268835992,9.802119255,1,0,0
1779141266776.000000000,2419,165284.776000000,0.012135295,-0.030066503,-0.995825231,0.000120447,-0.000297992,-0.009958892,1779141266776.000000000,2419,165284.776000000,-0.009717764,-0.025992325,0.036408093,1,0.000028476,0.000191030,-0.000374253,1,-0.128730640,0.268860102,9.802118301,1,0,0
1779141266786.000000000,2419,165284.786000000,0.012784668,-0.029853994,-0.995198548,0.000123854,-0.000298609,-0.009951031,1779141266786.000000000,2419,165284.786000000,-0.003403745,-0.023878790,0.042552512,1,-0.000042858,0.001040438,-0.000328135,1,-0.128811255,0.268887430,9.802116394,1,0,0
1779141266806.000000000,2419,165284.806000000,0.013676057,-0.028538965,-0.996369243,0.000131336,-0.000282322,-0.009956171,1779141266806.000000000,2419,165284.806000000,0.005333541,-0.010931387,0.031070488,1,0.000311979,-0.000095000,0.000194081,1,-0.128779069,0.268950135,9.802115440,1,0,0
1779141266816.000000000,2419,165284.816000000,0.013843828,-0.026684701,-0.995057106,0.000136550,-0.000272280,-0.009953221,1779141266816.000000000,2419,165284.816000000,0.006986977,0.007254511,0.043937985,1,0.000128430,0.000674741,0.000677400,1,-0.128795043,0.268946350,9.802115440,1,0,0
1779141266836.000000000,2419,165284.836000000,0.013076055,-0.024449088,-0.995097280,0.000132345,-0.000243135,-0.009949350,1779141266836.000000000,2419,165284.836000000,-0.000513500,0.029170776,0.043545559,1,-0.000161206,0.000579197,0.000470487,1,-0.128763467,0.268929601,9.802116394,1,0,0
1779141266846.000000000,2419,165284.846000000,0.013396494,-0.024459468,-0.995949507,0.000134998,-0.000248032,-0.009966512,1779141266846.000000000,2419,165284.846000000,0.002548962,0.029021025,0.035187390,1,-0.001078778,0.000305936,0.000189806,1,-0.128835157,0.268852919,9.802117348,1,0,0
1779141266866.000000000,2419,165284.866000000,0.012480620,-0.027044773,-0.994859636,0.000124438,-0.000272271,-0.009955000,1779141266866.000000000,2419,165284.866000000,-0.006491955,0.003623373,0.045875911,1,-0.000541771,-0.000187477,-0.000496488,1,-0.128879607,0.268824905,9.802117348,1,0,0
1779141266876.000000000,2419,165284.876000000,0.011613820,-0.029162826,-0.995780706,0.000115788,-0.000287807,-0.009955921,1779141266876.000000000,2419,165284.876000000,-0.014988074,-0.017146934,0.036843438,1,-0.000195803,-0.000067224,-0.000634002,1,-0.128879204,0.268836349,9.802117348,1,0,0
1779141266886.000000000,2419,165284.886000000,0.011715921,-0.029136838,-0.994246364,0.000116421,-0.000291640,-0.009943788,1779141266886.000000000,2419,165284.886000000,-0.013978376,-0.016912566,0.051890742,1,0.000149703,0.000239469,-0.000284598,1,-0.128880039,0.268826783,9.802117348,1,0,0
1779141266906.000000000,2419,165284.906000000,0.013429177,-0.029001750,-0.994737208,0.000131182,-0.000290085,-0.009945267,1779141266906.000000000,2419,165284.906000000,0.002742600,-0.015565925,0.047075666,1,0.000547227,0.000854192,0.000379911,1,-0.128978968,0.268861324,9.802115440,1,0,0
1779141266916.000000000,2419,165284.916000000,0.013872021,-0.027668206,-0.995794475,0.000138993,-0.000282120,-0.009966431,1779141266916.000000000,2419,165284.916000000,0.007086573,-0.002482254,0.036707327,1,-0.000732208,-0.000576958,0.001176668,1,-0.128932491,0.268827826,9.802116394,1,0,0
1779141266936.000000000,2419,165284.936000000,0.013752551,-0.025038108,-0.994623899,0.000139165,-0.000253085,-0.009953481,1779141266936.000000000,2419,165284.936000000,0.006005328,0.023265509,0.048188794,1,-0.000170498,-0.000324000,-0.000054350,1,-0.128851071,0.268800139,9.802118301,1,0,0
1779141266946.000000000,2419,165284.946000000,0.013794317,-0.025690867,-0.996968865,0.000138935,-0.000253817,-0.009967004,1779141266946.000000000,2419,165284.946000000,0.006424929,0.016870186,0.025193090,1,-0.000030237,-0.000170753,-0.000361078,1,-0.128846094,0.268810451,9.802118301,1,0,0
1779141266966.000000000,2419,165284.966000000,0.012157318,-0.026292861,-0.995460749,0.000125119,-0.000264184,-0.009962446,1779141266966.000000000,2419,165284.966000000,-0.009612448,0.010949416,0.039983176,1,0.000255519,-0.000267862,-0.000284979,1,-0.128826901,0.268802166,9.802119255,1,0,0
1779141266976.000000000,2419,165284.976000000,0.012050211,-0.027711729,-0.995833814,0.000119090,-0.000270690,-0.009947880,1779141266976.000000000,2419,165284.976000000,-0.010611299,-0.002866195,0.036322221,1,0.001148003,0.000321740,-0.000590676,1,-0.128794059,0.268928617,9.802115440,1,0,0
1779141266996.000000000,2419,165284.996000000,0.012701886,-0.028913554,-0.996573210,0.000125212,-0.000287040,-0.009962613,1779141266996.000000000,2419,165284.996000000,-0.004152834,-0.014653773,0.029072154,1,0.000778819,-0.001019668,-0.000508042,1,-0.128682181,0.268897861,9.802118301,1,0,0
1779141267006.000000000,2419,165285.006000000,0.013093859,-0.026848152,-0.993992805,0.000129852,-0.000271028,-0.009944008,1779141267006.000000000,2419,165285.006000000,-0.000238200,0.005605679,0.054378293,1,0.000679561,-0.000914916,0.000188010,1,-0.128616259,0.268916249,9.802118301,1,0,0
1779141267026.000000000,2419,165285.026000000,0.014491996,-0.026473302,-0.995400608,0.000140692,-0.000262996,-0.009949171,1779141267026.000000000,2419,165285.026000000,0.013483490,0.009250230,0.040573310,1,0.000479861,0.000803116,-0.000739655,1,-0.128660142,0.268879324,9.802119255,1,0,0
1779141267036.000000000,2419,165285.036000000,0.014145182,-0.026960276,-0.996241510,0.000145444,-0.000272356,-0.009969362,1779141267036.000000000,2419,165285.036000000,0.010029015,0.004438747,0.032327622,1,-0.001061290,0.000264571,0.000605751,1,-0.128695577,0.268795878,9.802121162,1,0,0
1779141267046.000000000,2419,165285.046000000,0.013474326,-0.027571796,-0.995772362,0.000134014,-0.000273140,-0.009956897,1779141267046.000000000,2419,165285.046000000,0.003432684,-0.001576253,0.036928695,1,0.000810860,-0.000004325,0.000065041,1,-0.128705129,0.268836021,9.802119255,1,0,0
1779141267066.000000000,2419,165285.066000000,0.011901825,-0.029054703,-0.996064067,0.000118664,-0.000289723,-0.009956639,1779141267066.000000000,2419,165285.066000000,-0.011922117,-0.016105475,0.034068618,1,-0.000406362,0.000045515,-0.000664193,1,-0.128641143,0.268810898,9.802121162,1,0,0
1779141267076.000000000,2419,165285.076000000,0.011432190,-0.027948881,-0.994901299,0.000113202,-0.000283115,-0.009948929,1779141267076.000000000,2419,165285.076000000,-0.016538749,-0.005275860,0.045471448,1,0.000569308,0.000757325,0.000193404,1,-0.128673702,0.268826902,9.802120209,1,0,0
1779141267096.000000000,2419,165285.096000000,0.011651793,-0.027877135,-0.995846570,0.000114615,-0.000273431,-0.009945567,1779141267096.000000000,2419,165285.096000000,-0.014470036,-0.004537109,0.036199324,1,0.000687447,0.000720403,0.000521415,1,-0.128757134,0.268865883,9.802118301,1,0,0
1779141267106.000000000,2419,165285.106000000,0.013094590,-0.026210815,-0.994559646,0.000133484,-0.000269108,-0.009960652,1779141267106.000000000,2419,165285.106000000,-0.000322400,0.011767831,0.048820786,1,-0.000972466,-0.000914222,0.000379391,1,-0.128707632,0.268777966,9.802121162,1,0,0
1779141267126.000000000,2419,165285.126000000,0.014314374,-0.024567617,-0.994526327,0.000143066,-0.000247540,-0.009948677,1779141267126.000000000,2419,165285.126000000,0.011748592,0.027849080,0.049149904,1,-0.000379720,-0.000113549,-0.000258853,1,-0.128624156,0.268763155,9.802122116,1,0,0
1779141267136.000000000,2419,165285.136000000,0.014230213,-0.026304994,-0.997078478,0.000144469,-0.000261823,-0.009969666,1779141267136.000000000,2419,165285.136000000,0.010905163,0.010845073,0.024120467,1,0.000081643,-0.000628043,-0.000410113,1,-0.128626317,0.268811345,9.802121162,1,0,0
1779141267156.000000000,2419,165285.156000000,0.012892202,-0.027145086,-0.996272147,0.000133276,-0.000273349,-0.009964379,1779141267156.000000000,2419,165285.156000000,-0.002171238,0.002620153,0.032027900,1,-0.000471544,-0.000283445,-0.000306069,1,-0.128591985,0.268807679,9.802122116,1,0,0
1779141267166.000000000,2419,165285.166000000,0.012359744,-0.029136904,-0.995007157,0.000123309,-0.000284346,-0.009942593,1779141267166.000000000,2419,165285.166000000,-0.007374562,-0.016918615,0.044434305,1,0.000006419,0.000319601,-0.000481319,1,-0.128592640,0.268816799,9.802121162,1,0,0
1779141267176.000000000,2419,165285.176000000,0.012234824,-0.029223736,-0.995876491,0.000123542,-0.000295993,-0.009966528,1779141267176.000000000,2419,165285.176000000,-0.008627382,-0.017779440,0.035908479,1,-0.000274611,-0.000189782,-0.000432702,1,-0.128604472,0.268798798,9.802122116,1,0,0
1779141267196.000000000,2419,165285.196000000,0.012417657,-0.027882477,-0.994301736,0.000123063,-0.000283105,-0.009946535,1779141267196.000000000,2419,165285.196000000,-0.006727383,-0.004530483,0.051350877,1,0.000758584,-0.000153281,0.000187726,1,-0.128498331,0.268936396,9.802119255,1,0,0
1779141267206.000000000,2419,165285.206000000,0.012907926,-0.027802829,-0.996235669,0.000131803,-0.000281478,-0.009966820,1779141267206.000000000,2419,165285.206000000,-0.001928137,-0.003645537,0.032382414,1,0.000340598,-0.000201786,0.000635924,1,-0.128504828,0.269018590,9.802117348,1,0,0
1779141267226.000000000,2419,165285.226000000,0.014247207,-0.025387175,-0.995022416,0.000144127,-0.000259657,-0.009960609,1779141267226.000000000,2419,165285.226000000,0.011163222,0.020105399,0.044277735,1,-0.000571501,0.000147490,-0.000199663,1,-0.128558934,0.269050658,9.802115440,1,0,0
1779141267236.000000000,2419,165285.236000000,0.014012690,-0.025658991,-0.995948017,0.000139746,-0.000252425,-0.009954063,1779141267236.000000000,2419,165285.236000000,0.008827995,0.017398609,0.035201348,1,0.000167602,0.000835727,-0.000250706,1,-0.128615841,0.269032508,9.802115440,1,0,0
1779141267256.000000000,2419,165285.256000000,0.013093244,-0.027604455,-0.996216357,0.000132821,-0.000274749,-0.009960489,1779141267256.000000000,2419,165285.256000000,-0.000250548,-0.001633703,0.032568205,1,-0.000820993,0.000414768,-0.000409302,1,-0.128664717,0.269047737,9.802114487,1,0,0
1779141267266.000000000,2419,165285.266000000,0.012482735,-0.027437713,-0.994740665,0.000124912,-0.000274212,-0.009945159,1779141267266.000000000,2419,165285.266000000,-0.006303186,-0.000058942,0.047040243,1,0.000074640,0.000195043,-0.000101873,1,-0.128723189,0.269015431,9.802114487,1,0,0
1779141267286.000000000,2419,165285.286000000,0.011555863,-0.027999708,-0.994873345,0.000116721,-0.000281675,-0.009945151,1779141267286.000000000,2419,165285.286000000,-0.015377970,-0.005512327,0.045737818,1,0.000445278,0.000753407,-0.000024380,1,-0.128725812,0.269084901,9.802112579,1,0,0
1779141267296.000000000,2419,165285.296000000,0.012992260,-0.028066237,-0.996069133,0.000129668,-0.000283339,-0.009965234,1779141267296.000000000,2419,165285.296000000,-0.001326881,-0.006103105,0.034008957,1,0.000285867,-0.000177852,0.000061792,1,-0.128731832,0.269141644,9.802110672,1,0,0
1779141267316.000000000,2419,165285.316000000,0.013817549,-0.026874427,-0.996018469,0.000138150,-0.000273528,-0.009969767,1779141267316.000000000,2419,165285.316000000,0.006777267,0.005577283,0.034506422,1,-0.000649015,-0.000506247,0.000306173,1,-0.128710553,0.269105285,9.802111626,1,0,0
1779141267326.000000000,2419,165285.326000000,0.013667805,-0.026463442,-0.995924890,0.000134138,-0.000262946,-0.009951246,1779141267326.000000000,2419,165285.326000000,0.005344769,0.009631125,0.035423547,1,0.000984419,-0.000634619,0.000371181,1,-0.128670499,0.269179702,9.802110672,1,0,0
1779141267336.000000000,2419,165285.336000000,0.013524844,-0.025265245,-0.995367110,0.000136238,-0.000254717,-0.009959946,1779141267336.000000000,2419,165285.336000000,0.003972287,0.021389589,0.040893454,1,-0.000778900,-0.000858256,0.000017180,1,-0.128634334,0.269132704,9.802112579,1,0,0
1779141267356.000000000,2419,165285.356000000,0.012626482,-0.027342437,-0.996248782,0.000126494,-0.000270071,-0.009958618,1779141267356.000000000,2419,165285.356000000,-0.004928128,0.001006950,0.032246359,1,-0.000042745,0.000440019,0.000343153,1,-0.128765061,0.269143492,9.802110672,1,0,0
1779141267366.000000000,2419,165285.366000000,0.012153541,-0.027803022,-0.995204210,0.000123098,-0.000275855,-0.009955848,1779141267366.000000000,2419,165285.366000000,-0.009559905,-0.003518607,0.042490184,1,-0.000117559,-0.000235242,-0.000396925,1,-0.128738433,0.269132078,9.802110672,1,0,0
1779141267386.000000000,2419,165285.386000000,0.012296280,-0.027614530,-0.994529128,0.000121320,-0.000276437,-0.009945647,1779141267386.000000000,2419,165285.386000000,-0.008092416,-0.001702323,0.049113154,1,-0.000620203,-0.000327074,0.000273451,1,-0.128667295,0.269084513,9.802113533,1,0,0
1779141267396.000000000,2419,165285.396000000,0.012816225,-0.028881121,-0.997283876,0.000127989,-0.000290254,-0.009967064,1779141267396.000000000,2419,165285.396000000,-0.003016467,-0.014172019,0.022098908,1,-0.000195299,0.000301994,-0.000631153,1,-0.128709018,0.269037634,9.802113533,1,0,0
1779141267416.000000000,2419,165285.416000000,0.013323353,-0.027796945,-0.996964633,0.000134406,-0.000282850,-0.009969635,1779141267416.000000000,2419,165285.416000000,0.001918398,-0.003647302,0.025232064,1,-0.000251714,-0.000095376,0.000350508,1,-0.128735781,0.268939883,9.802116394,1,0,0
1779141267426.000000000,2419,165285.426000000,0.013707604,-0.026566686,-0.994683027,0.000134864,-0.000264036,-0.009942646,1779141267426.000000000,2419,165285.426000000,0.005688998,0.008378675,0.047607899,1,0.000318124,0.000298895,0.000336304,1,-0.128745720,0.268918931,9.802116394,1,0,0
1779141267446.000000000,2419,165285.446000000,0.014026674,-0.026126709,-0.995926142,0.000135748,-0.000261482,-0.009953603,1779141267446.000000000,2419,165285.446000000,0.008788769,0.012725112,0.035416272,1,0.000289578,0.000926126,0.000178226,1,-0.128794655,0.268949747,9.802115440,1,0,0
1779141267456.000000000,2419,165285.456000000,0.013726982,-0.025808072,-0.996725380,0.000136386,-0.000257983,-0.009971519,1779141267456.000000000,2419,165285.456000000,0.005803810,0.015832189,0.027578374,1,-0.000605034,-0.000151478,-0.000140120,1,-0.128807306,0.268904001,9.802116394,1,0,0
1779141267466.000000000,2419,165285.466000000,0.012597957,-0.025982155,-0.995391905,0.000126800,-0.000258640,-0.009947813,1779141267466.000000000,2419,165285.466000000,-0.005262471,0.014140285,0.040654764,1,0.000068870,0.000424573,-0.000652127,1,-0.128820047,0.268940061,9.802115440,1,0,0
1779141267486.000000000,2419,165285.486000000,0.011942926,-0.029029185,-0.995818913,0.000120971,-0.000290815,-0.009958153,1779141267486.000000000,2419,165285.486000000,-0.011630603,-0.015719149,0.036467358,1,0.000037276,-0.000446761,-0.000624247,1,-0.128737301,0.268960834,9.802115440,1,0,0
1779141267496.000000000,2419,165285.496000000,0.012221103,-0.028967023,-0.996168256,0.000122014,-0.000286673,-0.009956358,1779141267496.000000000,2419,165285.496000000,-0.008840366,-0.015115378,0.033042554,1,0.000521941,-0.000533069,-0.000076117,1,-0.128671885,0.268970340,9.802116394,1,0,0
1779141267516.000000000,2419,165285.516000000,0.013448566,-0.028641133,-0.997017741,0.000132305,-0.000285769,-0.009964461,1779141267516.000000000,2419,165285.516000000,0.003241113,-0.011772041,0.024707729,1,0.000955236,-0.000150495,-0.000093185,1,-0.128639653,0.269131303,9.802112579,1,0,0
1779141267526.000000000,2419,165285.526000000,0.013855804,-0.027126761,-0.995339394,0.000137378,-0.000273606,-0.009954255,1779141267526.000000000,2419,165285.526000000,0.007309061,0.003121502,0.041166782,1,0.000182434,-0.000481510,0.000099382,1,-0.128554851,0.269149899,9.802112579,1,0,0
1779141267546.000000000,2419,165285.546000000,0.013193039,-0.025568552,-0.995377421,0.000132390,-0.000251498,-0.009947322,1779141267546.000000000,2419,165285.546000000,0.000817549,0.018364534,0.040795710,1,0.000452225,0.000350232,0.000067495,1,-0.128572851,0.269120544,9.802113533,1,0,0
1779141267556.000000000,2419,165285.556000000,0.012644286,-0.026122458,-0.995519340,0.000128062,-0.000259861,-0.009961972,1779141267556.000000000,2419,165285.556000000,-0.004575123,0.012943796,0.039403543,1,-0.000109674,0.000036846,0.000293757,1,-0.128574118,0.269114316,9.802113533,1,0,0
1779141267576.000000000,2419,165285.576000000,0.012369780,-0.026572872,-0.994487703,0.000122732,-0.000266622,-0.009945500,1779141267576.000000000,2419,165285.576000000,-0.007328922,0.008514422,0.049519174,1,-0.000354620,0.000448827,-0.000559661,1,-0.128649518,0.269093990,9.802113533,1,0,0
1779141267586.000000000,2419,165285.586000000,0.012019914,-0.028058814,-0.995392084,0.000119948,-0.000280578,-0.009952807,1779141267586.000000000,2419,165285.586000000,-0.010788858,-0.006064460,0.040650565,1,-0.001006882,0.000147880,-0.000327154,1,-0.128668845,0.269066989,9.802113533,1,0,0
1779141267606.000000000,2419,165285.606000000,0.012522690,-0.029713098,-0.995757341,0.000125624,-0.000298077,-0.009960473,1779141267606.000000000,2419,165285.606000000,-0.005837959,-0.022375334,0.037071306,1,-0.000185209,0.000004171,0.000051033,1,-0.128643349,0.269004554,9.802115440,1,0,0
1779141267616.000000000,2419,165285.616000000,0.013537122,-0.029087057,-0.995724916,0.000135337,-0.000292030,-0.009949394,1779141267616.000000000,2419,165285.616000000,0.004124988,-0.016281195,0.037390117,1,-0.000419886,0.000123484,0.000726147,1,-0.128632039,0.268952549,9.802117348,1,0,0
1779141267626.000000000,2419,165285.626000000,0.013478640,-0.027664104,-0.995426178,0.000135295,-0.000278654,-0.009962142,1779141267626.000000000,2419,165285.626000000,0.003560456,-0.002367495,0.040321112,1,-0.000684901,-0.000039201,0.000612646,1,-0.128618106,0.268903613,9.802118301,1,0,0
1779141267646.000000000,2419,165285.646000000,0.013630023,-0.025060909,-0.994713843,0.000135990,-0.000253303,-0.009951768,1779141267646.000000000,2419,165285.646000000,0.005112957,0.023233093,0.047305502,1,0.000042626,-0.000646561,0.000713217,1,-0.128531143,0.268998295,9.802117348,1,0,0
1779141267656.000000000,2419,165285.656000000,0.012503501,-0.026036337,-0.996366680,0.000127460,-0.000259246,-0.009963170,1779141267656.000000000,2419,165285.656000000,-0.005946399,0.013652933,0.031097256,1,-0.000545733,0.000032778,0.000023191,1,-0.128564864,0.268965185,9.802117348,1,0,0
1779141267676.000000000,2419,165285.676000000,0.012154304,-0.025789741,-0.994144857,0.000126032,-0.000258601,-0.009948931,1779141267676.000000000,2419,165285.676000000,-0.009206430,0.015989361,0.052890003,1,-0.000169715,-0.001001525,-0.000420539,1,-0.128368556,0.268894881,9.802122116,1,0,0
1779141267686.000000000,2419,165285.686000000,0.012263292,-0.027968258,-0.996585608,0.000120413,-0.000276260,-0.009956859,1779141267686.000000000,2419,165285.686000000,-0.008126290,-0.005317888,0.028953450,1,0.000274148,-0.000050319,-0.000564036,1,-0.128387019,0.268965364,9.802120209,1,0,0
1779141267706.000000000,2419,165285.706000000,0.012749045,-0.030883105,-0.996359706,0.000126999,-0.000311334,-0.009963696,1779141267706.000000000,2419,165285.706000000,-0.003432917,-0.033929855,0.031168764,1,0.000019281,0.001177309,-0.000103807,1,-0.128495172,0.268930525,9.802119255,1,0,0
1779141267716.000000000,2419,165285.716000000,0.014396506,-0.031193703,-0.996302426,0.000141249,-0.000308911,-0.009955632,1779141267716.000000000,2419,165285.716000000,0.012578093,-0.036984596,0.031728424,1,0.000732699,0.001700488,0.000570046,1,-0.128655985,0.268944234,9.802117348,1,0,0
1779141267736.000000000,2419,165285.736000000,0.012889513,-0.027755808,-0.993707895,0.000131001,-0.000282393,-0.009941826,1779141267736.000000000,2419,165285.736000000,-0.002091450,-0.003300899,0.057174724,1,0.000307404,-0.000489134,0.001428821,1,-0.128477916,0.268900812,9.802121162,1,0,0
1779141267746.000000000,2419,165285.746000000,0.013521891,-0.024840707,-0.997261822,0.000130473,-0.000248950,-0.009963404,1779141267746.000000000,2419,165285.746000000,0.003988865,0.025353884,0.022318978,1,0.000378476,0.001922623,0.000991165,1,-0.128674731,0.268970251,9.802116394,1,0,0
1779141267756.000000000,2419,165285.756000000,0.012480777,-0.019844478,-0.994219422,0.000125660,-0.000205389,-0.009948102,1779141267756.000000000,2419,165285.756000000,-0.006323376,0.074341089,0.052153859,1,0.000723669,0.000903932,0.000565222,1,-0.128745720,0.268971771,9.802115440,1,0,0
1779141267776.000000000,2419,165285.776000000,0.013532295,-0.019893156,-0.998169065,0.000137731,-0.000196842,-0.009971547,1779141267776.000000000,2419,165285.776000000,0.003952877,0.073994979,0.013416491,1,0.000606104,-0.001099103,-0.001652623,1,-0.128720731,0.269098461,9.802111626,1,0,0
1779141267786.000000000,2419,165285.786000000,0.014232472,-0.024010196,-0.998343885,0.000138923,-0.000230538,-0.009939679,1779141267786.000000000,2419,165285.786000000,0.010787588,0.033601310,0.011702703,1,0.001181043,0.002393330,-0.002391872,1,-0.128862023,0.269096792,9.802110672,1,0,0
1779141267806.000000000,2419,165285.806000000,0.012529491,-0.036898177,-1.001334667,0.000128395,-0.000355508,-0.009987245,1779141267806.000000000,2419,165285.806000000,-0.005758060,-0.093116969,-0.017615383,1,0.002570570,-0.001248893,-0.001323352,1,-0.128592581,0.268806487,9.802122116,1,0,0
1779141267816.000000000,2419,165285.816000000,0.009210951,-0.032251470,-0.988732755,0.000102381,-0.000335973,-0.009901899,1779141267816.000000000,2419,165285.816000000,-0.038161512,-0.047543712,0.105968267,1,0.001219806,0.001374662,-0.000177555,1,-0.128533125,0.268772960,9.802123070,1,0,0
1779141267836.000000000,2419,165285.836000000,0.009012682,-0.032592375,-0.994043827,0.000090707,-0.000337401,-0.009911720,1779141267836.000000000,2419,165285.836000000,-0.040282011,-0.050864369,0.053881384,1,-0.000339355,0.000784588,0.001068742,1,-0.128689811,0.268747509,9.802122116,1,0,0
1779141267846.000000000,2419,165285.846000000,0.010765139,-0.026767699,-0.997167766,0.000107358,-0.000300235,-0.009979066,1779141267846.000000000,2419,165285.846000000,-0.023171345,0.006197194,0.023247430,1,-0.001765167,0.001570971,0.001766345,1,-0.128788814,0.268644303,9.802124023,1,0,0
1779141267866.000000000,2419,165285.866000000,0.015193169,-0.021571498,-0.996330440,0.000148602,-0.000207838,-0.009955752,1779141267866.000000000,2419,165285.866000000,0.020086925,0.057364643,0.031450298,1,0.001297261,0.000172810,0.001039820,1,-0.128911674,0.268949687,9.802113533,1,0,0
1779141267876.000000000,2419,165285.876000000,0.015427738,-0.021822136,-0.998282492,0.000157788,-0.000221315,-0.009999678,1779141267876.000000000,2419,165285.876000000,0.022436941,0.054868396,0.012308298,1,-0.001931832,-0.000503120,0.000256416,1,-0.128841579,0.268810272,9.802118301,1,0,0
1779141267896.000000000,2419,165285.896000000,0.015726564,-0.023237862,-0.995477557,0.000166124,-0.000228111,-0.009966438,1779141267896.000000000,2419,165285.896000000,0.025424503,0.040844020,0.039820943,1,0.001295751,-0.001557355,-0.001331451,1,-0.128752962,0.268769503,9.802120209,1,0,0
1779141267906.000000000,2419,165285.906000000,0.014079769,-0.029971596,-0.998376250,0.000135803,-0.000287727,-0.009966958,1779141267906.000000000,2419,165285.906000000,0.009309487,-0.025032051,0.011390569,1,0.001214889,0.001132197,-0.001346966,1,-0.128802374,0.268926263,9.802115440,1,0,0
1779141267916.000000000,2419,165285.916000000,0.011613529,-0.031121716,-0.993490458,0.000126681,-0.000319215,-0.009955393,1779141267916.000000000,2419,165285.916000000,-0.014908632,-0.036414050,0.059305944,1,-0.002516491,-0.000878091,-0.000362571,1,-0.128771380,0.268707097,9.802122116,1,0,0
1779141267936.000000000,2419,165285.936000000,0.008460319,-0.028785177,-0.993200064,0.000081430,-0.000282233,-0.009933324,1779141267936.000000000,2419,165285.936000000,-0.045750421,-0.013686397,0.062159795,1,0.000478049,0.001428788,-0.000536100,1,-0.128762856,0.268614471,9.802124977,1,0,0
1779141267946.000000000,2419,165285.946000000,0.010704579,-0.030346088,-0.995524049,0.000103441,-0.000302918,-0.009953642,1779141267946.000000000,2419,165285.946000000,-0.023797698,-0.028921036,0.039366692,1,0.000455109,-0.000004442,-0.000064706,1,-0.128773689,0.268686622,9.802123070,1,0,0
1779141267966.000000000,2419,165285.966000000,0.014878013,-0.026777500,-0.995565176,0.000140730,-0.000271005,-0.009951164,1779141267966.000000000,2419,165285.966000000,0.017108783,0.006083981,0.038962137,1,-0.000432602,0.000537439,0.000335772,1,-0.128811181,0.268668234,9.802123070,1,0,0
1779141267976.000000000,2419,165285.976000000,0.015605572,-0.025031606,-0.995243907,0.000161036,-0.000250037,-0.009959073,1779141267976.000000000,2419,165285.976000000,0.024219213,0.023142848,0.042114794,1,-0.000850231,-0.000744848,0.000195473,1,-0.128795773,0.268592596,9.802124977,1,0,0
1779141267996.000000000,2419,165285.996000000,0.015450462,-0.026821792,-0.996444166,0.000156419,-0.000272355,-0.009971600,1779141267996.000000000,2419,165285.996000000,0.022707582,0.006035573,0.030331736,1,0.000603922,0.000381835,0.000534621,1,-0.128812850,0.269148320,9.802109718,1,0,0
1779141268006.000000000,2419,165286.006000000,0.015078616,-0.025863685,-0.996812105,0.000151589,-0.000257483,-0.009958666,1779141268006.000000000,2419,165286.006000000,0.019009223,0.015518895,0.026720291,1,0.000465285,0.000504322,-0.000152182,1,-0.128876835,0.269173503,9.802107811,1,0,0
1779141268026.000000000,2419,165286.026000000,0.011521257,-0.026481897,-0.996096730,0.000110359,-0.000257703,-0.009952165,1779141268026.000000000,2419,165286.026000000,-0.015767269,0.009390043,0.033739842,1,0.001314677,0.000269377,-0.000184845,1,-0.128760785,0.269129723,9.802110672,1,0,0
1779141268036.000000000,2419,165286.036000000,0.011122270,-0.028444324,-0.995352268,0.000115889,-0.000285280,-0.009960546,1779141268036.000000000,2419,165286.036000000,-0.019657208,-0.009753585,0.041037895,1,0.000740518,-0.000653283,-0.000195298,1,-0.128709212,0.269212991,9.802108765,1,0,0
1779141268046.000000000,2419,165286.046000000,0.009971461,-0.028930854,-0.996097028,0.000098298,-0.000289965,-0.009955125,1779141268046.000000000,2419,165286.046000000,-0.030920038,-0.014483337,0.033733103,1,-0.000010520,0.001048151,-0.000220058,1,-0.128739566,0.269231021,9.802107811,1,0,0
1779141268066.000000000,2419,165286.066000000,0.012113920,-0.027622728,-0.994802773,0.000121306,-0.000276101,-0.009941465,1779141268066.000000000,2419,165286.066000000,-0.009923432,-0.001830959,0.046430096,1,-0.000354710,-0.000546045,0.000020127,1,-0.128703371,0.269044429,9.802113533,1,0,0
1779141268076.000000000,2419,165286.076000000,0.013575599,-0.028152771,-0.997307658,0.000134098,-0.000281101,-0.009969513,1779141268076.000000000,2419,165286.076000000,0.004435332,-0.006957808,0.021863464,1,0.000284875,0.000686381,0.000064569,1,-0.128717184,0.269135505,9.802110672,1,0,0
1779141268096.000000000,2419,165286.096000000,0.015040192,-0.026961012,-0.997001052,0.000150783,-0.000267944,-0.009967777,1779141268096.000000000,2419,165286.096000000,0.018762959,0.004618196,0.024873123,1,-0.000819324,-0.001251144,0.000160818,1,-0.128691778,0.268989921,9.802115440,1,0,0
1779141268106.000000000,2419,165286.106000000,0.014388705,-0.025060462,-0.994281828,0.000143123,-0.000251677,-0.009943291,1779141268106.000000000,2419,165286.106000000,0.012480021,0.023180192,0.051543463,1,0.000187496,0.000092666,0.000366926,1,-0.128627554,0.268945366,9.802117348,1,0,0
1779141268126.000000000,2419,165286.126000000,0.012928156,-0.027205614,-0.995792866,0.000132389,-0.000270612,-0.009952750,1779141268126.000000000,2419,165286.126000000,-0.001878324,0.002179791,0.036723346,1,0.000444481,-0.000772596,-0.000117431,1,-0.128636226,0.268989563,9.802116394,1,0,0
1779141268136.000000000,2419,165286.136000000,0.012870152,-0.027247239,-0.996159494,0.000129636,-0.000275689,-0.009969442,1779141268136.000000000,2419,165286.136000000,-0.002426144,0.001767812,0.033128269,1,-0.001024316,-0.000294813,0.000339956,1,-0.128629729,0.268940151,9.802117348,1,0,0
1779141268156.000000000,2419,165286.156000000,0.012099957,-0.028198075,-0.996046066,0.000119734,-0.000282193,-0.009962131,1779141268156.000000000,2419,165286.156000000,-0.009959829,-0.007579113,0.034241445,1,0.000243108,-0.000389461,-0.000036750,1,-0.128607765,0.268957108,9.802117348,1,0,0
1779141268166.000000000,2419,165286.166000000,0.011799661,-0.029148906,-0.995895982,0.000117154,-0.000289608,-0.009957587,1779141268166.000000000,2419,165286.166000000,-0.012929206,-0.016859623,0.035711791,1,0.000346849,0.000680748,0.000382941,1,-0.128665268,0.269004494,9.802115440,1,0,0
1779141268186.000000000,2419,165286.186000000,0.012627001,-0.027313646,-0.995566368,0.000128257,-0.000273414,-0.009956772,1779141268186.000000000,2419,165286.186000000,-0.004838208,0.001065472,0.038945612,1,0.000150150,-0.000533888,0.000186114,1,-0.128649980,0.268925607,9.802117348,1,0,0
1779141268196.000000000,2419,165286.196000000,0.012894440,-0.027723139,-0.996006429,0.000126828,-0.000275728,-0.009956186,1779141268196.000000000,2419,165286.196000000,-0.002151947,-0.002924050,0.034629945,1,-0.000027384,-0.000132993,0.000250592,1,-0.128591433,0.268948227,9.802118301,1,0,0
1779141268206.000000000,2419,165286.206000000,0.013975621,-0.026706971,-0.995536089,0.000137901,-0.000271443,-0.009959383,1779141268206.000000000,2419,165286.206000000,0.008437384,0.007051180,0.039242111,1,-0.000043229,0.000358738,0.000718751,1,-0.128626734,0.268956184,9.802117348,1,0,0
1779141268226.000000000,2419,165286.226000000,0.013363695,-0.025913309,-0.994598627,0.000130734,-0.000258232,-0.009947886,1779141268226.000000000,2419,165286.226000000,0.002474544,0.014839039,0.048436638,1,0.000082368,-0.000052136,0.000656896,1,-0.128576353,0.268964648,9.802117348,1,0,0
1779141268236.000000000,2419,165286.236000000,0.013536078,-0.027642487,-0.997242391,0.000136854,-0.000273843,-0.009968307,1779141268236.000000000,2419,165286.236000000,0.004144082,-0.002061529,0.022508562,1,0.000541512,0.000207789,0.000138231,1,-0.128605872,0.269035637,9.802115440,1,0,0
1779141268256.000000000,2419,165286.256000000,0.012890520,-0.028355192,-0.996530950,0.000127866,-0.000281930,-0.009966440,1779141268256.000000000,2419,165286.256000000,-0.002255696,-0.009008254,0.029483080,1,0.000452539,0.000192149,-0.000171984,1,-0.128674656,0.269075274,9.802113533,1,0,0
1779141268266.000000000,2419,165286.266000000,0.012398387,-0.027077803,-0.994615138,0.000124185,-0.000271928,-0.009946508,1779141268266.000000000,2419,165286.266000000,-0.007059194,0.003491694,0.048271790,1,-0.000606205,-0.000470482,0.000161850,1,-0.128631026,0.269015431,9.802115440,1,0,0
1779141268286.000000000,2419,165286.286000000,0.012646384,-0.026767148,-0.995526910,0.000123131,-0.000265958,-0.009951145,1779141268286.000000000,2419,165286.286000000,-0.004630946,0.006480174,0.039331079,1,0.000074214,0.000963218,0.000052923,1,-0.128679618,0.268978566,9.802115440,1,0,0
1779141268296.000000000,2419,165286.296000000,0.012941922,-0.026682382,-0.995793283,0.000126970,-0.000267085,-0.009960046,1779141268296.000000000,2419,165286.296000000,-0.001770247,0.007315887,0.036718905,1,-0.000249839,0.000391824,0.000153574,1,-0.128699258,0.268972963,9.802115440,1,0,0
1779141268316.000000000,2419,165286.316000000,0.013918599,-0.026533045,-0.995584965,0.000138437,-0.000264142,-0.009949977,1779141268316.000000000,2419,165286.316000000,0.007762612,0.008742262,0.038761832,1,0.000130529,0.000673811,-0.000706419,1,-0.128753856,0.268946350,9.802115440,1,0,0
1779141268326.000000000,2419,165286.326000000,0.013805367,-0.026984306,-0.996098280,0.000139708,-0.000271858,-0.009967423,1779141268326.000000000,2419,165286.326000000,0.006626811,0.004317489,0.033728316,1,-0.000113480,0.000255399,-0.000201918,1,-0.128765747,0.268939525,9.802115440,1,0,0
1779141268336.000000000,2419,165286.336000000,0.013497231,-0.028350463,-0.996965170,0.000136855,-0.000279347,-0.009962127,1779141268336.000000000,2419,165286.336000000,0.003567655,-0.009030196,0.025225010,1,0.000498308,0.000864674,0.000047767,1,-0.128821909,0.269008458,9.802113533,1,0,0
1779141268346.000000000,2419,165286.346000000,0.013162447,-0.027545569,-0.995185256,0.000134142,-0.000278449,-0.009959151,1779141268346.000000000,2419,165286.346000000,0.000291529,-0.001196193,0.042681657,1,-0.000266422,-0.000220990,-0.000114571,1,-0.128781199,0.268925220,9.802116394,1,0,0
1779141268356.000000000,2419,165286.356000000,0.013743600,-0.027902490,-0.995784819,0.000137570,-0.000275105,-0.009953729,1779141268356.000000000,2419,165286.356000000,0.005989936,-0.004673833,0.036800701,1,-0.000096853,-0.000150516,-0.000469851,1,-0.128784448,0.268952936,9.802115440,1,0,0
1779141268366.000000000,2419,165286.366000000,0.012886301,-0.027620493,-0.993490279,0.000129016,-0.000274143,-0.009938573,1779141268366.000000000,2419,165286.366000000,-0.002362717,-0.001928840,0.059304427,1,0.000262235,-0.000305756,-0.000433591,1,-0.128724992,0.268943667,9.802116394,1,0,0
1779141268386.000000000,2419,165286.386000000,0.012994939,-0.028321132,-0.995078981,0.000127443,-0.000284407,-0.009946804,1779141268386.000000000,2419,165286.386000000,-0.001341362,-0.008844187,0.043725014,1,-0.000457485,0.000491862,0.001158721,1,-0.128792554,0.268877476,9.802117348,1,0,0
1779141268396.000000000,2419,165286.396000000,0.012514263,-0.027605731,-0.995300829,0.000127339,-0.000281052,-0.009958177,1779141268396.000000000,2419,165286.396000000,-0.006113183,-0.001841644,0.041549347,1,-0.000678353,0.000510874,0.000341411,1,-0.128857702,0.268858939,9.802116394,1,0,0
1779141268416.000000000,2419,165286.416000000,0.012985836,-0.026692582,-0.995206654,0.000132654,-0.000268282,-0.009955694,1779141268416.000000000,2419,165286.416000000,-0.001590616,0.007181440,0.042469002,1,-0.000151268,-0.000244407,0.000845512,1,-0.128929853,0.268941879,9.802113533,1,0,0
1779141268426.000000000,2419,165286.426000000,0.013750827,-0.027551129,-0.996531725,0.000137021,-0.000273625,-0.009963495,1779141268426.000000000,2419,165286.426000000,0.005969977,-0.001221081,0.029475592,1,0.000097426,-0.000610349,0.000588032,1,-0.128860027,0.268966496,9.802113533,1,0,0
1779141268446.000000000,2419,165286.446000000,0.012784733,-0.026078276,-0.995906889,0.000130251,-0.000262173,-0.009964841,1779141268446.000000000,2419,165286.446000000,-0.003499538,0.013171606,0.035604037,1,-0.000233226,-0.000287343,0.000541796,1,-0.128865525,0.268905103,9.802115440,1,0,0
1779141268456.000000000,2419,165286.456000000,0.012988343,-0.026855404,-0.995674670,0.000124314,-0.000267853,-0.009951871,1779141268456.000000000,2419,165286.456000000,-0.001455572,0.005565818,0.037881371,1,0.001073682,-0.000643924,0.000176607,1,-0.128807470,0.268960953,9.802114487,1,0,0
1779141268476.000000000,2419,165286.476000000,0.013389961,-0.027180545,-0.996634662,0.000133678,-0.000267415,-0.009959217,1779141268476.000000000,2419,165286.476000000,0.002478853,0.002422442,0.028465945,1,0.000273152,-0.000725652,0.000087370,1,-0.128809094,0.268981099,9.802114487,1,0,0
1779141268486.000000000,2419,165286.486000000,0.012027859,-0.026952755,-0.994976699,0.000120933,-0.000269379,-0.009948992,1779141268486.000000000,2419,165286.486000000,-0.010800861,0.004631734,0.044726353,1,0.000012331,-0.000005991,0.000375089,1,-0.128753364,0.268948525,9.802115440,1,0,0
1779141268496.000000000,2419,165286.496000000,0.012726339,-0.028720394,-0.996961951,0.000127832,-0.000287060,-0.009970476,1779141268496.000000000,2419,165286.496000000,-0.004000011,-0.012650116,0.025256012,1,0.000333498,0.000119536,0.000586670,1,-0.128805995,0.269011408,9.802113533,1,0,0
1779141268516.000000000,2419,165286.516000000,0.012451229,-0.026333965,-0.994841039,0.000126793,-0.000268691,-0.009957939,1779141268516.000000000,2419,165286.516000000,-0.006668302,0.010695327,0.046056528,1,-0.000247024,-0.001328412,-0.000267968,1,-0.128731936,0.268935502,9.802116394,1,0,0
1779141268526.000000000,2419,165286.526000000,0.012650752,-0.026659295,-0.996664166,0.000123938,-0.000259397,-0.009954249,1779141268526.000000000,2419,165286.526000000,-0.004710864,0.007594182,0.028176319,1,0.001578565,0.001147082,0.000254654,1,-0.128807932,0.269081920,9.802111626,1,0,0
1779141268546.000000000,2419,165286.546000000,0.014413497,-0.028134670,-0.997811079,0.000142468,-0.000280362,-0.009975143,1779141268546.000000000,2419,165286.546000000,0.012493282,-0.006868393,0.016927078,1,-0.000466892,-0.000141197,0.000119731,1,-0.128850341,0.269023955,9.802112579,1,0,0
1779141268556.000000000,2419,165286.556000000,0.013196449,-0.025575662,-0.994041920,0.000132168,-0.000258118,-0.009943096,1779141268556.000000000,2419,165286.556000000,0.000626778,0.018219927,0.053890865,1,0.001004318,-0.000421774,-0.000190625,1,-0.128773183,0.269062757,9.802112579,1,0,0
1779141268576.000000000,2419,165286.576000000,0.012370148,-0.026152454,-0.995113730,0.000117995,-0.000256104,-0.009941339,1779141268576.000000000,2419,165286.576000000,-0.007382502,0.012633877,0.043379813,1,0.000834265,0.000902404,-0.000829112,1,-0.128721088,0.269127548,9.802111626,1,0,0
1779141268586.000000000,2419,165286.586000000,0.012676128,-0.026329426,-0.995248020,0.000128355,-0.000268521,-0.009965630,1779141268586.000000000,2419,165286.586000000,-0.004394512,0.010897649,0.042063169,1,-0.000690870,0.000109055,-0.001138142,1,-0.128709257,0.269079119,9.802112579,1,0,0
1779141268606.000000000,2419,165286.606000000,0.012582658,-0.027078880,-0.994615853,0.000123933,-0.000274025,-0.009954940,1779141268606.000000000,2419,165286.606000000,-0.005317751,0.003308626,0.048268080,1,-0.001034691,0.000721703,-0.000358514,1,-0.128733784,0.268827409,9.802119255,1,0,0
1779141268616.000000000,2419,165286.616000000,0.013563144,-0.028563226,-0.997907639,0.000132279,-0.000279349,-0.009966632,1779141268616.000000000,2419,165286.616000000,0.004164816,-0.011216584,0.015984671,1,0.000318395,0.000570456,-0.000865529,1,-0.128862709,0.268902451,9.802115440,1,0,0
1779141268636.000000000,2419,165286.636000000,0.012892747,-0.028576538,-0.996452570,0.000129208,-0.000286630,-0.009966062,1779141268636.000000000,2419,165286.636000000,-0.002368212,-0.011440482,0.030256916,1,-0.000568046,-0.000430902,-0.000455676,1,-0.128789812,0.268781751,9.802120209,1,0,0
1779141268646.000000000,2419,165286.646000000,0.013392518,-0.028143782,-0.995351553,0.000131774,-0.000277646,-0.009943821,1779141268646.000000000,2419,165286.646000000,0.002541242,-0.007186768,0.041054029,1,0.001275255,-0.000025899,-0.000311336,1,-0.128793955,0.268849134,9.802118301,1,0,0
1779141268656.000000000,2419,165286.656000000,0.013422558,-0.028403474,-0.995224118,0.000137121,-0.000288815,-0.009960847,1779141268656.000000000,2419,165286.656000000,0.002902474,-0.009744449,0.042305224,1,-0.000485414,-0.000759839,0.000182804,1,-0.128703997,0.268783450,9.802121162,1,0,0
1779141268676.000000000,2419,165286.676000000,0.013871745,-0.027918691,-0.994135380,0.000139134,-0.000284313,-0.009947767,1779141268676.000000000,2419,165286.676000000,0.007336349,-0.005050598,0.052983835,1,-0.000501716,-0.000471427,0.000045184,1,-0.128684267,0.268722624,9.802123070,1,0,0
1779141268686.000000000,2419,165286.686000000,0.013684122,-0.027562633,-0.997214973,0.000136364,-0.000275404,-0.009971648,1779141268686.000000000,2419,165286.686000000,0.005488845,-0.001567163,0.022783447,1,-0.000738406,0.000300852,0.000637110,1,-0.128715396,0.268707186,9.802123070,1,0,0
1779141268696.000000000,2419,165286.696000000,0.012879889,-0.026101375,-0.995196462,0.000127931,-0.000258558,-0.009945849,1779141268696.000000000,2419,165286.696000000,-0.002422859,0.012734052,0.042578992,1,0.000274872,0.000965087,-0.000009303,1,-0.128761560,0.268709719,9.802122116,1,0,0
1779141268706.000000000,2419,165286.706000000,0.012486096,-0.026413159,-0.996162951,0.000125626,-0.000267620,-0.009967986,1779141268706.000000000,2419,165286.706000000,-0.006292908,0.009675173,0.033100590,1,-0.000914151,-0.000756606,0.000700676,1,-0.128715485,0.268671542,9.802124023,1,0,0
1779141268716.000000000,2419,165286.716000000,0.011965359,-0.025824994,-0.995664179,0.000118227,-0.000254253,-0.009942679,1779141268716.000000000,2419,165286.716000000,-0.011385450,0.015417821,0.037992727,1,0.000112572,-0.000110917,-0.000113432,1,-0.128722176,0.268677980,9.802124023,1,0,0
1779141268736.000000000,2419,165286.736000000,0.012718210,-0.027428430,-0.996774018,0.000123895,-0.000265694,-0.009955502,1779141268736.000000000,2419,165286.736000000,-0.003931820,-0.000317898,0.027110385,1,0.000766774,-0.000200365,0.000185748,1,-0.128648460,0.268687129,9.802124023,1,0,0
1779141268746.000000000,2419,165286.746000000,0.013202375,-0.028001985,-0.994501352,0.000130374,-0.000279870,-0.009948144,1779141268746.000000000,2419,165286.746000000,0.000856352,-0.005992089,0.049400099,1,-0.000271037,0.000071409,-0.000056906,1,-0.128617004,0.268605113,9.802126884,1,0,0
1779141268766.000000000,2419,165286.766000000,0.013703944,-0.028768631,-0.995757401,0.000131932,-0.000287736,-0.009947189,1779141268766.000000000,2419,165286.766000000,0.005847543,-0.013514663,0.037082702,1,0.000727122,0.001008891,0.000188342,1,-0.128573567,0.268631995,9.802126884,1,0,0
1779141268776.000000000,2419,165286.776000000,0.013887906,-0.028205315,-0.994661391,0.000141635,-0.000285874,-0.009957311,1779141268776.000000000,2419,165286.776000000,0.007604356,-0.007970230,0.047830123,1,0.000049584,0.000169824,0.001384913,1,-0.128593609,0.268631548,9.802126884,1,0,0
1779141268786.000000000,2419,165286.786000000,0.014309553,-0.028833231,-0.997027576,0.000144487,-0.000282742,-0.009960935,1779141268786.000000000,2419,165286.786000000,0.011734493,-0.014084285,0.024624003,1,0.000245548,-0.000364921,0.000562378,1,-0.128582433,0.268681020,9.802124977,1,0,0
1779141268806.000000000,2419,165286.806000000,0.012829497,-0.025623869,-0.996443987,0.000128253,-0.000257606,-0.009964292,1779141268806.000000000,2419,165286.806000000,-0.002703093,0.017530585,0.030344240,1,0.000362214,-0.001065535,0.000580528,1,-0.128484070,0.268828213,9.802123070,1,0,0
1779141268816.000000000,2419,165286.816000000,0.012136386,-0.024837721,-0.994912028,0.000118492,-0.000247847,-0.009942704,1779141268816.000000000,2419,165286.816000000,-0.009471024,0.025249083,0.045367565,1,0.000497006,0.001149511,0.000293094,1,-0.128523961,0.268839687,9.802122116,1,0,0
1779141268836.000000000,2419,165286.836000000,0.011710260,-0.026681354,-0.995823860,0.000115744,-0.000262582,-0.009950208,1779141268836.000000000,2419,165286.836000000,-0.013687026,0.007186708,0.036424946,1,-0.000183495,0.000667383,-0.000792035,1,-0.128546953,0.268835366,9.802121162,1,0,0
1779141268846.000000000,2419,165286.846000000,0.011914505,-0.025252346,-0.994937778,0.000117115,-0.000253855,-0.009955175,1779141268846.000000000,2419,165286.846000000,-0.011751497,0.021193901,0.045114275,1,-0.000384819,0.000335955,-0.000210645,1,-0.128603548,0.268822759,9.802121162,1,0,0
1779141268866.000000000,2419,165286.866000000,0.013238980,-0.027300922,-0.995440662,0.000129156,-0.000272916,-0.009955943,1779141268866.000000000,2419,165286.866000000,0.001280072,0.001155273,0.040181112,1,-0.000074674,0.000079667,-0.000363345,1,-0.128552780,0.268883407,9.802120209,1,0,0
1779141268876.000000000,2419,165286.876000000,0.014565567,-0.027494684,-0.997585833,0.000146968,-0.000278173,-0.009978597,1779141268876.000000000,2419,165286.876000000,0.014283278,-0.000713745,0.019142922,1,-0.000060299,-0.000691394,-0.000467715,1,-0.128534988,0.268914938,9.802119255,1,0,0
1779141268896.000000000,2419,165286.896000000,0.013999511,-0.027980223,-0.995148838,0.000142119,-0.000277498,-0.009959047,1779141268896.000000000,2419,165286.896000000,0.008746575,-0.005502312,0.043043215,1,0.000515492,-0.000032933,-0.000536368,1,-0.128541157,0.268905818,9.802119255,1,0,0
1779141268906.000000000,2419,165286.906000000,0.014931322,-0.029595098,-0.996416748,0.000148642,-0.000291998,-0.009954938,1779141268906.000000000,2419,165286.906000000,0.017925519,-0.021282140,0.030608486,1,0.000236307,-0.000680355,0.000218204,1,-0.128479332,0.268954098,9.802119255,1,0,0
1779141268926.000000000,2419,165286.926000000,0.012964871,-0.027419686,-0.996666133,0.000130459,-0.000277172,-0.009962452,1779141268926.000000000,2419,165286.926000000,-0.001298963,0.000033633,0.028164269,1,0.000235321,-0.000106402,0.000139438,1,-0.128437474,0.268936306,9.802120209,1,0,0
1779141268936.000000000,2419,165286.936000000,0.012094269,-0.026839158,-0.995035052,0.000121232,-0.000264906,-0.009949626,1779141268936.000000000,2419,165286.936000000,-0.009837504,0.005734130,0.044158962,1,0.000642720,-0.000221891,0.000345282,1,-0.128434554,0.268956542,9.802119255,1,0,0
1779141268946.000000000,2419,165286.946000000,0.011188983,-0.027165962,-0.995781124,0.000112205,-0.000270547,-0.009961213,1779141268946.000000000,2419,165286.946000000,-0.018693820,0.002569199,0.036841732,1,-0.000056994,0.000135516,0.000243962,1,-0.128424287,0.268974632,9.802119255,1,0,0
1779141268966.000000000,2419,165286.966000000,0.012149145,-0.026177699,-0.994260907,0.000121365,-0.000263888,-0.009951884,1779141268966.000000000,2419,165286.966000000,-0.009348314,0.012207469,0.051750645,1,-0.000608140,-0.000254541,0.000087041,1,-0.128482714,0.268904090,9.802120209,1,0,0
1779141268976.000000000,2419,165286.976000000,0.012708333,-0.028144551,-0.996740758,0.000124946,-0.000274534,-0.009958446,1779141268976.000000000,2419,165286.976000000,-0.003940724,-0.007052334,0.027429828,1,0.000093232,0.001047525,-0.000606553,1,-0.128600106,0.268954128,9.802117348,1,0,0
1779141268996.000000000,2419,165286.996000000,0.014533200,-0.029522033,-0.996327043,0.000145676,-0.000297228,-0.009966584,1779141268996.000000000,2419,165286.996000000,0.013929874,-0.020608854,0.031487804,1,-0.000259316,-0.000265932,-0.000034234,1,-0.128570676,0.268876314,9.802120209,1,0,0
1779141269006.000000000,2419,165287.006000000,0.013717582,-0.028443620,-0.995216072,0.000136422,-0.000281921,-0.009945932,1779141269006.000000000,2419,165287.006000000,0.005937514,-0.010059413,0.042383675,1,0.000465732,0.000727424,0.000053654,1,-0.128607810,0.268890530,9.802119255,1,0,0
1779141269026.000000000,2419,165287.026000000,0.014295124,-0.028009163,-0.996245861,0.000143234,-0.000277904,-0.009952159,1779141269026.000000000,2419,165287.026000000,0.011514879,-0.005724696,0.032280996,1,0.000131835,0.000592149,0.000822915,1,-0.128690183,0.268955827,9.802116394,1,0,0
1779141269036.000000000,2419,165287.036000000,0.013275724,-0.026647549,-0.995030761,0.000134255,-0.000271482,-0.009962413,1779141269036.000000000,2419,165287.036000000,0.001572509,0.007577120,0.044199448,1,-0.000856165,-0.001107082,0.000474259,1,-0.128582940,0.268873811,9.802120209,1,0,0
1779141269056.000000000,2419,165287.056000000,0.012999187,-0.024769021,-0.994538546,0.000128399,-0.000249014,-0.009948398,1779141269056.000000000,2419,165287.056000000,-0.001158124,0.025995711,0.049027216,1,0.000507593,0.000308543,0.000123614,1,-0.128646135,0.268912733,9.802118301,1,0,0
1779141269066.000000000,2419,165287.066000000,0.012034619,-0.025794305,-0.996610880,0.000121911,-0.000255918,-0.009964686,1779141269066.000000000,2419,165287.066000000,-0.010594261,0.015972646,0.028703777,1,-0.000735270,-0.000518207,0.000029359,1,-0.128597379,0.268905461,9.802119255,1,0,0
1779141269076.000000000,2419,165287.076000000,0.012184886,-0.025415689,-0.995389104,0.000119324,-0.000253933,-0.009949734,1779141269076.000000000,2419,165287.076000000,-0.009157727,0.019666661,0.040684953,1,-0.000157212,0.000272477,-0.000679284,1,-0.128659740,0.268904239,9.802118301,1,0,0
1779141269096.000000000,2419,165287.096000000,0.012018985,-0.026905194,-0.996557057,0.000119882,-0.000264718,-0.009957682,1779141269096.000000000,2419,165287.096000000,-0.010816849,0.004980986,0.029232930,1,-0.000126276,0.000810267,-0.000660197,1,-0.128708690,0.268826604,9.802119255,1,0,0
1779141269106.000000000,2419,165287.106000000,0.012727406,-0.027647804,-0.995377898,0.000127215,-0.000274715,-0.009957875,1779141269106.000000000,2419,165287.106000000,-0.003904317,-0.002305504,0.040795814,1,0.000400682,0.000161927,-0.001021391,1,-0.128723472,0.268838942,9.802119255,1,0,0
1779141269126.000000000,2419,165287.126000000,0.014389901,-0.029307609,-0.994582057,0.000142314,-0.000293016,-0.009944002,1779141269126.000000000,2419,165287.126000000,0.012344087,-0.018536339,0.048598461,1,0.000065992,0.000906290,-0.000452430,1,-0.128801316,0.268875003,9.802117348,1,0,0
1779141269136.000000000,2419,165287.136000000,0.015293997,-0.030642951,-0.996455669,0.000155702,-0.000306183,-0.009964101,1779141269136.000000000,2419,165287.136000000,0.021189945,-0.031594794,0.030223731,1,-0.000450273,-0.000692625,0.000448646,1,-0.128770933,0.268896073,9.802117348,1,0,0
1779141269156.000000000,2419,165287.156000000,0.014997507,-0.029384060,-0.996578455,0.000150671,-0.000295456,-0.009967661,1779141269156.000000000,2419,165287.156000000,0.018435583,-0.019156661,0.029019158,1,-0.000425347,-0.001505221,0.000874110,1,-0.128592029,0.268989623,9.802116394,1,0,0
1779141269166.000000000,2419,165287.166000000,0.013386024,-0.027020298,-0.994889557,0.000134250,-0.000273065,-0.009945689,1779141269166.000000000,2419,165287.166000000,0.002679647,0.003969854,0.045583561,1,-0.000206833,0.000502243,0.000798678,1,-0.128607407,0.268942356,9.802118301,1,0,0
1779141269186.000000000,2419,165287.186000000,0.010908288,-0.025080374,-0.995934069,0.000112957,-0.000249405,-0.009953503,1779141269186.000000000,2419,165287.186000000,-0.021616349,0.022995885,0.035339866,1,-0.000012549,-0.000116914,0.000952865,1,-0.128585666,0.268950343,9.802118301,1,0,0
1779141269196.000000000,2419,165287.196000000,0.010913027,-0.024329437,-0.995924115,0.000106564,-0.000246221,-0.009960433,1779141269196.000000000,2419,165287.196000000,-0.021628732,0.030401381,0.035436373,1,-0.000327781,-0.000083928,0.000494879,1,-0.128663361,0.268994957,9.802115440,1,0,0
1779141269216.000000000,2419,165287.216000000,0.011595920,-0.025143515,-0.995439410,0.000116485,-0.000247887,-0.009950658,1779141269216.000000000,2419,165287.216000000,-0.014980397,0.022424672,0.040188432,1,0.000519664,-0.000198997,-0.000395827,1,-0.128691733,0.269014448,9.802114487,1,0,0
1779141269226.000000000,2419,165287.226000000,0.013009106,-0.025922347,-0.995389998,0.000126388,-0.000259029,-0.009959292,1779141269226.000000000,2419,165287.226000000,-0.001128037,0.014777181,0.040673222,1,-0.000312034,0.000377791,-0.000999986,1,-0.128716439,0.268978417,9.802115440,1,0,0
1779141269236.000000000,2419,165287.236000000,0.013852641,-0.027358856,-0.997148633,0.000138352,-0.000272824,-0.009968693,1779141269236.000000000,2419,165287.236000000,0.007039153,0.000665427,0.023426028,1,-0.000013463,0.000869585,-0.000996788,1,-0.128836840,0.268963337,9.802114487,1,0,0
1779141269256.000000000,2419,165287.256000000,0.014288370,-0.030330507,-0.997617483,0.000143326,-0.000297714,-0.009970876,1779141269256.000000000,2419,165287.256000000,0.011268298,-0.028403107,0.018825762,1,0.000526402,-0.000338444,-0.000949178,1,-0.128843009,0.269053608,9.802111626,1,0,0
1779141269266.000000000,2419,165287.266000000,0.013242652,-0.030016560,-0.994744897,0.000131313,-0.000303146,-0.009942622,1779141269266.000000000,2419,165287.266000000,0.001029948,-0.025390232,0.046998098,1,0.000051955,0.000147410,0.000020862,1,-0.128840685,0.268973321,9.802113533,1,0,0
1779141269286.000000000,2419,165287.286000000,0.013496630,-0.027645925,-0.994958758,0.000135107,-0.000276128,-0.009943571,1779141269286.000000000,2419,165287.286000000,0.003516315,-0.002138598,0.044900782,1,-0.000218668,0.000746368,0.000436958,1,-0.128863335,0.268968701,9.802113533,1,0,0
1779141269296.000000000,2419,165287.296000000,0.013757747,-0.026887337,-0.995300293,0.000137999,-0.000273454,-0.009960491,1779141269296.000000000,2419,165287.296000000,0.006034510,0.005336303,0.041549847,1,-0.000339428,0.000361060,0.000919505,1,-0.128893390,0.269000828,9.802112579,1,0,0
1779141269316.000000000,2419,165287.316000000,0.013476659,-0.025885938,-0.994848371,0.000135917,-0.000259059,-0.009956353,1779141269316.000000000,2419,165287.316000000,0.003405487,0.015229501,0.045981348,1,-0.000560561,-0.000460972,0.000389101,1,-0.128740683,0.269066513,9.802112579,1,0,0
1779141269326.000000000,2419,165287.326000000,0.013373488,-0.025665933,-0.995039046,0.000132998,-0.000254638,-0.009948220,1779141269326.000000000,2419,165287.326000000,0.002374249,0.017395627,0.044111017,1,0.000429850,0.000342914,-0.000204307,1,-0.128785744,0.269105792,9.802110672,1,0,0
1779141269346.000000000,2419,165287.346000000,0.011980265,-0.026990583,-0.995950341,0.000118119,-0.000268693,-0.009954931,1779141269346.000000000,2419,165287.346000000,-0.011218694,0.004413167,0.035175525,1,-0.000387769,0.000699644,-0.000161191,1,-0.128726929,0.269088209,9.802112579,1,0,0
1779141269356.000000000,2419,165287.356000000,0.012589186,-0.026773557,-0.995724797,0.000128270,-0.000269786,-0.009959586,1779141269356.000000000,2419,165287.356000000,-0.005282565,0.006485268,0.037388347,1,-0.000576561,-0.000496629,-0.000009479,1,-0.128724828,0.269026190,9.802113533,1,0,0
1779141269366.000000000,2419,165287.366000000,0.012289622,-0.026938576,-0.995269060,0.000121442,-0.000267825,-0.009950456,1779141269366.000000000,2419,165287.366000000,-0.008168974,0.004885266,0.041858032,1,0.000373212,-0.000023699,-0.000794322,1,-0.128688931,0.269073814,9.802113533,1,0,0
1779141269386.000000000,2419,165287.386000000,0.013713862,-0.030468171,-0.995899618,0.000136466,-0.000300710,-0.009955073,1779141269386.000000000,2419,165287.386000000,0.005788055,-0.029781263,0.035675529,1,-0.000799270,0.000201102,0.000360116,1,-0.128704950,0.268984646,9.802115440,1,0,0
1779141269396.000000000,2419,165287.396000000,0.013255260,-0.030986574,-0.994825244,0.000136395,-0.000309856,-0.009952950,1779141269396.000000000,2419,165287.396000000,0.001335040,-0.034980718,0.046214018,1,-0.000575727,0.000753603,0.000212263,1,-0.128670320,0.268866509,9.802119255,1,0,0
1779141269416.000000000,2419,165287.416000000,0.014802686,-0.031795699,-0.995630145,0.000142103,-0.000316019,-0.009946062,1779141269416.000000000,2419,165287.416000000,0.016439704,-0.043057356,0.038324520,1,-0.000478101,0.000298382,0.001079473,1,-0.128733426,0.268737495,9.802122116,1,0,0
1779141269426.000000000,2419,165287.426000000,0.013684021,-0.029608821,-0.996354043,0.000141437,-0.000306410,-0.009970829,1779141269426.000000000,2419,165287.426000000,0.005479740,-0.021676688,0.031226510,1,-0.000499572,-0.000522666,0.002320568,1,-0.128696382,0.268672049,9.802124023,1,0,0
1779141269446.000000000,2419,165287.446000000,0.012115245,-0.019916795,-0.993356228,0.000117828,-0.000197484,-0.009924728,1779141269446.000000000,2419,165287.446000000,-0.009941162,0.073400311,0.060625106,1,0.001208225,0.002603571,0.001135967,1,-0.128831401,0.268755525,9.802120209,1,0,0
1779141269456.000000000,2419,165287.456000000,0.011726497,-0.020353541,-0.995906591,0.000124510,-0.000204904,-0.009975081,1779141269456.000000000,2419,165287.456000000,-0.013802919,0.069158822,0.035612546,1,-0.000594633,-0.001454297,0.000988440,1,-0.128754362,0.268740743,9.802121162,1,0,0
1779141269476.000000000,2419,165287.476000000,0.013352081,-0.022867654,-0.993844569,0.000133270,-0.000230944,-0.009950825,1779141269476.000000000,2419,165287.476000000,0.002037052,0.044393204,0.055835065,1,-0.000357481,0.000453160,-0.000842917,1,-0.128916994,0.268636793,9.802122116,1,0,0
1779141269486.000000000,2419,165287.486000000,0.013388804,-0.026089363,-0.995921075,0.000138205,-0.000258058,-0.009953291,1779141269486.000000000,2419,165287.486000000,0.002476512,0.012834533,0.035471667,1,0.000740594,-0.001250890,-0.000646692,1,-0.128784329,0.268706650,9.802122116,1,0,0
1779141269506.000000000,2419,165287.506000000,0.014770477,-0.030969458,-0.997131467,0.000148523,-0.000309545,-0.009967674,1779141269506.000000000,2419,165287.506000000,0.015989525,-0.034933444,0.023599349,1,0.000112165,0.000684252,-0.000313140,1,-0.128880993,0.268776566,9.802119255,1,0,0
1779141269516.000000000,2419,165287.516000000,0.013367394,-0.029115684,-0.994350016,0.000138632,-0.000296961,-0.009952884,1779141269516.000000000,2419,165287.516000000,0.002320117,-0.016821675,0.050878871,1,-0.000731103,-0.001351773,-0.000257848,1,-0.128727287,0.268682748,9.802123070,1,0,0
1779141269526.000000000,2419,165287.526000000,0.013137563,-0.029494867,-0.996144176,0.000129229,-0.000291230,-0.009950899,1779141269526.000000000,2419,165287.526000000,0.000028954,-0.020479780,0.033281788,1,0.000624181,0.001204046,-0.000693788,1,-0.128844693,0.268785268,9.802119255,1,0,0
1779141269546.000000000,2419,165287.546000000,0.013120801,-0.029684693,-0.997292995,0.000132711,-0.000299140,-0.009971856,1779141269546.000000000,2419,165287.546000000,-0.000293040,-0.022233441,0.022010945,1,0.000411683,-0.001611412,0.000454361,1,-0.128913477,0.268887013,9.802115440,1,0,0
1779141269556.000000000,2419,165287.556000000,0.011859646,-0.027849790,-0.994491994,0.000116310,-0.000278865,-0.009945411,1779141269556.000000000,2419,165287.556000000,-0.012636201,-0.004286327,0.049480934,1,-0.000401578,0.000315069,0.000574144,1,-0.128948942,0.268814534,9.802116394,1,0,0
1779141269576.000000000,2419,165287.576000000,0.012829759,-0.027365977,-0.996336997,0.000128123,-0.000272525,-0.009960931,1779141269576.000000000,2419,165287.576000000,-0.003127510,0.000490130,0.031386435,1,-0.000011476,-0.000657676,0.000525318,1,-0.128923520,0.268858552,9.802116394,1,0,0
1779141269586.000000000,2419,165287.586000000,0.013395340,-0.026560146,-0.996177495,0.000129751,-0.000266249,-0.009954145,1779141269586.000000000,2419,165287.586000000,0.002389280,0.008397286,0.032950290,1,-0.000097090,0.001118168,0.000489380,1,-0.129008606,0.268860549,9.802114487,1,0,0
1779141269606.000000000,2419,165287.606000000,0.013568790,-0.025568932,-0.996029794,0.000137154,-0.000252274,-0.009952384,1779141269606.000000000,2419,165287.606000000,0.004140820,0.018054031,0.034401856,1,-0.000218924,-0.000710314,0.000023097,1,-0.128901631,0.268793374,9.802118301,1,0,0
1779141269616.000000000,2419,165287.616000000,0.013251103,-0.025968490,-0.996379852,0.000134234,-0.000263857,-0.009970990,1779141269616.000000000,2419,165287.616000000,0.001032507,0.014111722,0.030969018,1,-0.000104163,-0.000146790,-0.000230061,1,-0.128912076,0.268772334,9.802118301,1,0,0
1779141269636.000000000,2419,165287.636000000,0.010616508,-0.025677675,-0.993948221,0.000106998,-0.000259267,-0.009948889,1779141269636.000000000,2419,165287.636000000,-0.024596276,0.017041927,0.054815631,1,-0.000535781,-0.000477454,-0.001018424,1,-0.128694639,0.268836796,9.802119255,1,0,0
1779141269646.000000000,2419,165287.646000000,0.011946933,-0.026885243,-0.996449351,0.000115817,-0.000266432,-0.009957314,1779141269646.000000000,2419,165287.646000000,-0.011589825,0.005213164,0.030287527,1,0.000535292,0.000343840,-0.001076185,1,-0.128760874,0.268883616,9.802117348,1,0,0
1779141269656.000000000,2419,165287.656000000,0.012862114,-0.026708776,-0.994767308,0.000126300,-0.000268933,-0.009951203,1779141269656.000000000,2419,165287.656000000,-0.002585928,0.006942559,0.046782967,1,0.000776482,-0.000397699,-0.001242085,1,-0.128708839,0.268889904,9.802118301,1,0,0
1779141269676.000000000,2419,165287.676000000,0.013083049,-0.028749267,-0.995479882,0.000125144,-0.000283590,-0.009944628,1779141269676.000000000,2419,165287.676000000,-0.000259356,-0.013043037,0.039796151,1,0.000205431,0.000890363,-0.000712024,1,-0.128588647,0.268897086,9.802119255,1,0,0
1779141269686.000000000,2419,165287.686000000,0.013415068,-0.029369231,-0.995864093,0.000135497,-0.000296011,-0.009964464,1779141269686.000000000,2419,165287.686000000,0.002895199,-0.019168453,0.036028180,1,-0.000635618,0.000687122,-0.000129915,1,-0.128683239,0.268825471,9.802120209,1,0,0
1779141269706.000000000,2419,165287.706000000,0.013095670,-0.028695760,-0.994901776,0.000129124,-0.000288212,-0.009946894,1779141269706.000000000,2419,165287.706000000,-0.000317669,-0.012552357,0.045463745,1,0.000624401,0.001277610,0.000029940,1,-0.128782168,0.268876433,9.802117348,1,0,0
1779141269716.000000000,2419,165287.716000000,0.013389879,-0.029740861,-0.995976925,0.000135996,-0.000296267,-0.009959903,1779141269716.000000000,2419,165287.716000000,0.002516134,-0.022770518,0.034918819,1,0.000135452,0.000009140,-0.000083840,1,-0.128794089,0.268891901,9.802116394,1,0,0
1779141269736.000000000,2419,165287.736000000,0.011947526,-0.026620146,-0.994922698,0.000122490,-0.000270119,-0.009956894,1779141269736.000000000,2419,165287.736000000,-0.011567736,0.007728561,0.045261532,1,-0.000604828,-0.000082790,0.000071732,1,-0.128730312,0.268764168,9.802121162,1,0,0
1779141269746.000000000,2419,165287.746000000,0.013152581,-0.025823141,-0.996446311,0.000125767,-0.000255731,-0.009954214,1779141269746.000000000,2419,165287.746000000,0.000252169,0.015568818,0.030319517,1,0.000861043,-0.000086471,0.000075592,1,-0.128727823,0.268834233,9.802119255,1,0,0
1779141269766.000000000,2419,165287.766000000,0.013914581,-0.024077697,-0.996686518,0.000134912,-0.000239512,-0.009965217,1779141269766.000000000,2419,165287.766000000,0.007815434,0.032795381,0.027961778,1,-0.000095663,-0.000896531,-0.000983020,1,-0.128612876,0.268913537,9.802118301,1,0,0
1779141269776.000000000,2419,165287.776000000,0.013901604,-0.023695881,-0.994639218,0.000137193,-0.000238417,-0.009945962,1779141269776.000000000,2419,165287.776000000,0.007717868,0.036493443,0.048040580,1,0.000118866,0.000149754,-0.001202286,1,-0.128616005,0.268873900,9.802119255,1,0,0
1779141269796.000000000,2419,165287.796000000,0.014606434,-0.028960787,-0.995641112,0.000146187,-0.000283402,-0.009953786,1779141269796.000000000,2419,165287.796000000,0.014706622,-0.015223789,0.038218573,1,-0.000086324,0.000077429,-0.001125265,1,-0.128531605,0.268748105,9.802124023,1,0,0
1779141269806.000000000,2419,165287.806000000,0.015294963,-0.030623365,-0.996049643,0.000154872,-0.000308588,-0.009964321,1779141269806.000000000,2419,165287.806000000,0.021435248,-0.031558964,0.034212925,1,-0.000319035,0.000575795,-0.000257902,1,-0.128574952,0.268741459,9.802124023,1,0,0
1779141269816.000000000,2419,165287.816000000,0.013784726,-0.030565556,-0.996044397,0.000142745,-0.000306978,-0.009959627,1779141269816.000000000,2419,165287.816000000,0.006664718,-0.031015703,0.034265179,1,0.000449390,-0.001350130,0.000415630,1,-0.128474772,0.268744081,9.802124977,1,0,0
1779141269836.000000000,2419,165287.836000000,0.012341184,-0.027992478,-0.996148944,0.000124483,-0.000282158,-0.009962902,1779141269836.000000000,2419,165287.836000000,-0.007505159,-0.005737179,0.033238839,1,0.001183127,-0.000345300,0.000003623,1,-0.128520057,0.268812180,9.802122116,1,0,0
1779141269846.000000000,2419,165287.846000000,0.010966671,-0.025278162,-0.995037854,0.000111078,-0.000256860,-0.009944363,1779141269846.000000000,2419,165287.846000000,-0.020925757,0.020934587,0.044134241,1,0.000162005,-0.000478480,0.000563676,1,-0.128456667,0.268833995,9.802123070,1,0,0
1779141269866.000000000,2419,165287.866000000,0.011966130,-0.023986934,-0.996238112,0.000120324,-0.000237103,-0.009952595,1779141269866.000000000,2419,165287.866000000,-0.011131156,0.033627406,0.032362893,1,0.001522926,0.000111923,-0.000782770,1,-0.128482968,0.268906087,9.802120209,1,0,0
1779141269876.000000000,2419,165287.876000000,0.013301522,-0.026693346,-0.995375156,0.000132711,-0.000265424,-0.009961583,1779141269876.000000000,2419,165287.876000000,0.002006637,0.007138347,0.040824037,1,-0.000110401,-0.000269767,-0.000589734,1,-0.128428817,0.268906981,9.802121162,1,0,0
1779141269896.000000000,2419,165287.896000000,0.014927127,-0.030838806,-0.993550479,0.000149443,-0.000311000,-0.009941712,1779141269896.000000000,2419,165287.896000000,0.017904915,-0.033584919,0.058719456,1,-0.000077427,-0.000496602,-0.000001379,1,-0.128464714,0.268838078,9.802122116,1,0,0
1779141269906.000000000,2419,165287.906000000,0.015430613,-0.033515073,-0.997539103,0.000152933,-0.000334108,-0.009972832,1779141269906.000000000,2419,165287.906000000,0.022880323,-0.059790548,0.019603984,1,0.000597350,-0.000701101,0.000633262,1,-0.128419891,0.268898964,9.802121162,1,0,0
1779141269926.000000000,2419,165287.926000000,0.015204170,-0.032629922,-0.997180164,0.000156219,-0.000330890,-0.009972330,1779141269926.000000000,2419,165287.926000000,0.020578634,-0.051084314,0.023122611,1,-0.000765365,0.000397179,0.002021332,1,-0.128534004,0.268882871,9.802120209,1,0,0
1779141269936.000000000,2419,165287.936000000,0.012478490,-0.029318936,-0.995217204,0.000128747,-0.000293910,-0.009951285,1779141269936.000000000,2419,165287.936000000,-0.006082292,-0.018698266,0.042375721,1,-0.000862433,-0.000479951,0.002725251,1,-0.128437176,0.268796504,9.802124023,1,0,0
1779141269946.000000000,2419,165287.946000000,0.011105880,-0.026230307,-0.994405389,0.000110927,-0.000267399,-0.009948169,1779141269946.000000000,2419,165287.946000000,-0.019588554,0.011527284,0.050338041,1,-0.000646280,0.001513616,0.002231349,1,-0.128545359,0.268739492,9.802124023,1,0,0
1779141269966.000000000,2419,165287.966000000,0.010886191,-0.022561051,-0.995470345,0.000108296,-0.000229456,-0.009954320,1779141269966.000000000,2419,165287.966000000,-0.021743719,0.047522880,0.039894275,1,-0.000230210,-0.000793627,0.001408792,1,-0.128474832,0.268764615,9.802124023,1,0,0
1779141269976.000000000,2419,165287.976000000,0.012487415,-0.021696784,-0.997091651,0.000122683,-0.000220616,-0.009973166,1779141269976.000000000,2419,165287.976000000,-0.006091008,0.055957329,0.023995647,1,-0.001378986,0.001031968,0.001530605,1,-0.128581613,0.268687725,9.802124977,1,0,0
1779141269996.000000000,2419,165287.996000000,0.013046268,-0.020706093,-0.994331896,0.000129196,-0.000207257,-0.009953091,1779141269996.000000000,2419,165287.996000000,-0.000514000,0.065749772,0.051058616,1,0.000011164,0.000912428,-0.000381484,1,-0.128491864,0.268833727,9.802122116,1,0,0
1779141270006.000000000,2419,165288.006000000,0.016520733,-0.025090719,-0.998783767,0.000160761,-0.000242721,-0.009980951,1779141270006.000000000,2419,165288.006000000,0.033371676,0.022899007,0.007393458,1,0.000061687,0.000657820,-0.001182004,1,-0.128663480,0.268958062,9.802116394,1,0,0
1779141270026.000000000,2419,165288.026000000,0.013591937,-0.029036203,-0.997925520,0.000139262,-0.000290359,-0.009986392,1779141270026.000000000,2419,165288.026000000,0.004861392,-0.015802607,0.015813475,1,-0.001378357,-0.001186082,-0.001737191,1,-0.128394470,0.268901587,9.802122116,1,0,0
1779141270036.000000000,2419,165288.036000000,0.013089810,-0.029293202,-0.995470047,0.000128675,-0.000290131,-0.009942401,1779141270036.000000000,2419,165288.036000000,0.000002435,-0.018361431,0.039894972,1,0.000796107,-0.000818316,-0.000280388,1,-0.128339469,0.268931508,9.802122116,1,0,0
1779141270056.000000000,2419,165288.056000000,0.008682314,-0.031675052,-0.996394157,0.000079147,-0.000313834,-0.009947650,1779141270056.000000000,2419,165288.056000000,-0.042931415,-0.041647524,0.030833798,1,0.000407040,0.001821157,-0.000209094,1,-0.128132835,0.268991262,9.802123070,1,0,0
1779141270066.000000000,2419,165288.066000000,0.011264385,-0.027422244,-0.993499041,0.000114555,-0.000285143,-0.009956477,1779141270066.000000000,2419,165288.066000000,-0.017757136,-0.000010117,0.059225544,1,-0.001034241,0.001381630,-0.000082759,1,-0.128266200,0.268877953,9.802124023,1,0,0
1779141270086.000000000,2419,165288.086000000,0.013715271,-0.026752761,-0.995688319,0.000132128,-0.000270322,-0.009959104,1779141270086.000000000,2419,165288.086000000,0.006231426,0.006698084,0.037751585,1,0.000581024,0.000971988,0.000077278,1,-0.128299698,0.269071221,9.802118301,1,0,0
1779141270096.000000000,2419,165288.096000000,0.016719615,-0.026868969,-0.997809172,0.000164148,-0.000270527,-0.009981188,1779141270096.000000000,2419,165288.096000000,0.035573985,0.005607828,0.016950173,1,0.000031273,0.000461711,0.000340603,1,-0.128403544,0.269103527,9.802116394,1,0,0
1779141270106.000000000,2419,165288.106000000,0.014895330,-0.023788586,-0.994799435,0.000152519,-0.000239017,-0.009951126,1779141270106.000000000,2419,165288.106000000,0.017792121,0.035789717,0.046467625,1,0.000309593,-0.001570835,-0.000258092,1,-0.128232390,0.269085646,9.802119255,1,0,0
1779141270126.000000000,2419,165288.126000000,0.014739315,-0.028632043,-0.997397065,0.000145668,-0.000280117,-0.009968458,1779141270126.000000000,2419,165288.126000000,0.016187504,-0.011623036,0.020990713,1,0.000289245,-0.000032586,-0.000305183,1,-0.128355056,0.269170314,9.802114487,1,0,0
1779141270136.000000000,2419,165288.136000000,0.011638404,-0.028896926,-0.995314121,0.000121378,-0.000290594,-0.009957753,1779141270136.000000000,2419,165288.136000000,-0.014137516,-0.014223743,0.041418314,1,-0.000915705,-0.001276378,-0.000527278,1,-0.128231898,0.269129515,9.802117348,1,0,0
1779141270156.000000000,2419,165288.156000000,0.011034428,-0.028451454,-0.995741189,0.000106516,-0.000283027,-0.009949387,1779141270156.000000000,2419,165288.156000000,-0.020197526,-0.009942450,0.037231077,1,0.000076672,0.000979534,0.000520684,1,-0.128438428,0.269073635,9.802116394,1,0,0
1779141270166.000000000,2419,165288.166000000,0.011808549,-0.029138744,-0.996914566,0.000121923,-0.000296484,-0.009964714,1779141270166.000000000,2419,165288.166000000,-0.012518793,-0.016636476,0.025724221,1,0.000742027,-0.002398622,0.000000380,1,-0.128246278,0.269140184,9.802117348,1,0,0
1779141270186.000000000,2419,165288.186000000,0.015419498,-0.024258960,-0.993459821,0.000153337,-0.000254750,-0.009953856,1779141270186.000000000,2419,165288.186000000,0.022839824,0.031215375,0.059603181,1,-0.001658680,0.000975373,0.000521951,1,-0.128403783,0.269062996,9.802117348,1,0,0
1779141270196.000000000,2419,165288.196000000,0.016952042,-0.025043199,-0.996991873,0.000172055,-0.000237913,-0.009956728,1779141270196.000000000,2419,165288.196000000,0.037938330,0.023591520,0.024964159,1,0.001267355,-0.001514979,0.000552080,1,-0.128247455,0.269220471,9.802114487,1,0,0
1779141270216.000000000,2419,165288.216000000,0.016274894,-0.029344246,-0.996304154,0.000167161,-0.000298325,-0.009968363,1779141270216.000000000,2419,165288.216000000,0.031433191,-0.018600091,0.031709991,1,-0.000460587,-0.000942932,-0.000448619,1,-0.128139928,0.269154102,9.802118301,1,0,0
1779141270226.000000000,2419,165288.226000000,0.013065843,-0.028746191,-0.995015681,0.000134766,-0.000289997,-0.009952473,1779141270226.000000000,2419,165288.226000000,0.000089108,-0.012838906,0.044350494,1,-0.001370783,-0.001257408,0.000656531,1,-0.128003255,0.269022435,9.802124023,1,0,0
1779141270236.000000000,2419,165288.236000000,0.011397361,-0.028501259,-0.994185925,0.000113606,-0.000282932,-0.009940281,1779141270236.000000000,2419,165288.236000000,-0.016246898,-0.010465543,0.052488565,1,0.000275698,0.000948240,0.000897640,1,-0.128045648,0.269045323,9.802122116,1,0,0
1779141270256.000000000,2419,165288.256000000,0.009677866,-0.032804400,-0.997319996,0.000102250,-0.000330723,-0.009975117,1779141270256.000000000,2419,165288.256000000,-0.033175148,-0.052718703,0.021754652,1,-0.001742061,-0.001107168,0.001171066,1,-0.128047049,0.268928707,9.802125931,1,0,0
1779141270266.000000000,2419,165288.266000000,0.009509057,-0.028401880,-0.995104253,0.000093962,-0.000293030,-0.009957774,1779141270266.000000000,2419,165288.266000000,-0.034896981,-0.009764302,0.043488998,1,-0.001841559,0.001459392,0.001471491,1,-0.128193244,0.268706143,9.802129745,1,0,0
1779141270286.000000000,2419,165288.286000000,0.012750512,-0.024428556,-0.997255862,0.000132674,-0.000244756,-0.009974967,1779141270286.000000000,2419,165288.286000000,-0.003159991,0.029264584,0.022386830,1,0.000580992,-0.001438538,0.000725715,1,-0.128154308,0.268845320,9.802126884,1,0,0
1779141270296.000000000,2419,165288.296000000,0.015257251,-0.023802238,-0.996804178,0.000144114,-0.000236313,-0.009963151,1779141270296.000000000,2419,165288.296000000,0.021353064,0.035501551,0.026812483,1,0.000576705,0.002031454,0.000288801,1,-0.128332600,0.268939883,9.802121162,1,0,0
1779141270316.000000000,2419,165288.316000000,0.013415942,-0.018996608,-0.997089326,0.000139408,-0.000186730,-0.009968252,1779141270316.000000000,2419,165288.316000000,0.003503553,0.082426846,0.024024656,1,0.000514173,-0.004465352,-0.000234844,1,-0.127922788,0.268735886,9.802132607,1,0,0
1779141270326.000000000,2419,165288.326000000,0.009317939,-0.020492861,-0.990631044,0.000091981,-0.000203626,-0.009910503,1779141270326.000000000,2419,165288.326000000,-0.036383867,0.067801602,0.087360680,1,0.001110961,-0.000052477,-0.001460917,1,-0.127761245,0.268802017,9.802132607,1,0,0
1779141270346.000000000,2419,165288.346000000,0.009083856,-0.027126634,-0.993337274,0.000099142,-0.000267392,-0.009944921,1779141270346.000000000,2419,165288.346000000,-0.038840130,0.002807282,0.060817771,1,-0.001112740,-0.000399064,-0.002116106,1,-0.127911702,0.268793166,9.802130699,1,0,0
1779141270356.000000000,2419,165288.356000000,0.010881825,-0.030320954,-0.995511889,0.000107517,-0.000302513,-0.009956219,1779141270356.000000000,2419,165288.356000000,-0.021318270,-0.028574048,0.039492819,1,-0.000783389,0.001812818,-0.002001957,1,-0.128090799,0.268747687,9.802129745,1,0,0
1779141270376.000000000,2419,165288.376000000,0.012260933,-0.034108113,-0.996360660,0.000123151,-0.000343837,-0.009964372,1779141270376.000000000,2419,165288.376000000,-0.008025345,-0.065521173,0.031160627,1,0.001272756,0.001642255,-0.000789238,1,-0.128315940,0.269004583,9.802120209,1,0,0
1779141270386.000000000,2419,165288.386000000,0.014950333,-0.030250305,-0.996388137,0.000147363,-0.000309175,-0.009960025,1779141270386.000000000,2419,165288.386000000,0.018134788,-0.027689034,0.030888572,1,-0.000457667,0.001809619,-0.000080881,1,-0.128534436,0.268950850,9.802118301,1,0,0
1779141270396.000000000,2419,165288.396000000,0.014930624,-0.026213927,-0.994731367,0.000150165,-0.000269650,-0.009955357,1779141270396.000000000,2419,165288.396000000,0.017866345,0.011875000,0.047135014,1,-0.000151480,0.000362464,0.000848965,1,-0.128555089,0.268936932,9.802118301,1,0,0
1779141270416.000000000,2419,165288.416000000,0.014106531,-0.022492168,-0.995428622,0.000140906,-0.000231790,-0.009965533,1779141270416.000000000,2419,165288.416000000,0.009689653,0.048448514,0.040294748,1,-0.000343774,0.000774219,-0.000501787,1,-0.128672719,0.269010395,9.802115440,1,0,0
1779141270426.000000000,2419,165288.426000000,0.014276482,-0.022854442,-0.997334659,0.000141814,-0.000224952,-0.009966446,1779141270426.000000000,2419,165288.426000000,0.011246858,0.044959705,0.021599388,1,0.000241369,0.000451818,-0.000789014,1,-0.128772393,0.269092441,9.802111626,1,0,0
1779141270446.000000000,2419,165288.446000000,0.012039286,-0.025437891,-0.997293591,0.000124763,-0.000243190,-0.009971541,1779141270446.000000000,2419,165288.446000000,-0.010611848,0.019727625,0.022000136,1,0.000930455,-0.000532014,-0.002434206,1,-0.128662407,0.269216180,9.802109718,1,0,0
1779141270456.000000000,2419,165288.456000000,0.011456996,-0.026623452,-0.994177461,0.000115520,-0.000263714,-0.009946149,1779141270456.000000000,2419,165288.456000000,-0.016318236,0.008143798,0.052558132,1,0.000846501,-0.000140624,-0.002929189,1,-0.128671125,0.269255906,9.802108765,1,0,0
1779141270476.000000000,2419,165288.476000000,0.012684782,-0.031924602,-0.995907843,0.000127668,-0.000314205,-0.009956224,1779141270476.000000000,2419,165288.476000000,-0.004139230,-0.043670282,0.035585597,1,0.001153465,-0.001538479,-0.001876776,1,-0.128488064,0.269438386,9.802105904,1,0,0
1779141270486.000000000,2419,165288.486000000,0.013764028,-0.033941001,-0.994147599,0.000136303,-0.000339656,-0.009948197,1779141270486.000000000,2419,165288.486000000,0.006433596,-0.063351385,0.052844841,1,0.000739103,0.000590363,-0.001360631,1,-0.128564999,0.269518644,9.802103043,1,0,0
1779141270506.000000000,2419,165288.506000000,0.014807245,-0.033891246,-0.996269703,0.000148506,-0.000341186,-0.009956345,1779141270506.000000000,2419,165288.506000000,0.016752578,-0.062865280,0.032035597,1,0.000068294,-0.001560681,0.000658024,1,-0.128407642,0.269496739,9.802104950,1,0,0
1779141270516.000000000,2419,165288.516000000,0.014845782,-0.031651016,-0.994890630,0.000150130,-0.000324609,-0.009956694,1779141270516.000000000,2419,165288.516000000,0.017156940,-0.040912561,0.045560267,1,-0.000297609,0.001084337,0.001062387,1,-0.128463373,0.269469053,9.802104950,1,0,0
1779141270526.000000000,2419,165288.526000000,0.015575227,-0.028741162,-0.996425211,0.000154830,-0.000286060,-0.009952588,1779141270526.000000000,2419,165288.526000000,0.024170011,-0.012337849,0.030508474,1,0.000774674,0.000582568,0.001906872,1,-0.128587335,0.269541621,9.802102089,1,0,0
1779141270546.000000000,2419,165288.546000000,0.013786063,-0.024593249,-0.997678339,0.000133678,-0.000245402,-0.009963847,1779141270546.000000000,2419,165288.546000000,0.006678822,0.028301707,0.018221496,1,0.000089109,0.000000729,0.001547990,1,-0.128514960,0.269482523,9.802103996,1,0,0
1779141270556.000000000,2419,165288.556000000,0.013107046,-0.024279747,-0.993183017,0.000132296,-0.000241435,-0.009939473,1779141270556.000000000,2419,165288.556000000,0.000044059,0.031297196,0.062307619,1,-0.000097304,-0.000153922,0.000866235,1,-0.128486618,0.269397497,9.802106857,1,0,0
1779141270576.000000000,2419,165288.576000000,0.011985675,-0.026315762,-0.995383441,0.000119783,-0.000263543,-0.009956566,1779141270576.000000000,2419,165288.576000000,-0.010888815,0.011235100,0.040732995,1,-0.000812228,0.000103107,0.000929433,1,-0.128430560,0.269279629,9.802110672,1,0,0
1779141270586.000000000,2419,165288.586000000,0.012790996,-0.026973678,-0.995573938,0.000125271,-0.000274608,-0.009953952,1779141270586.000000000,2419,165288.586000000,-0.003097699,0.004733059,0.038864296,1,-0.000765767,0.000870752,0.000859416,1,-0.128560960,0.269230932,9.802110672,1,0,0
1779141270606.000000000,2419,165288.606000000,0.011685078,-0.027789978,-0.995360970,0.000111984,-0.000278513,-0.009952714,1779141270606.000000000,2419,165288.606000000,-0.014001371,-0.003362631,0.040955473,1,0.000160632,0.000535538,0.000654651,1,-0.128611282,0.269169718,9.802111626,1,0,0
1779141270616.000000000,2419,165288.616000000,0.012146801,-0.027070636,-0.996592283,0.000125215,-0.000270863,-0.009968410,1779141270616.000000000,2419,165288.616000000,-0.009502939,0.003676731,0.028879656,1,-0.000818030,-0.000200321,0.000563590,1,-0.128615797,0.269123733,9.802112579,1,0,0
1779141270636.000000000,2419,165288.636000000,0.011812617,-0.026512256,-0.995171010,0.000114723,-0.000272109,-0.009948606,1779141270636.000000000,2419,165288.636000000,-0.012810351,0.009135969,0.042817447,1,-0.000980966,0.000457156,0.000670716,1,-0.128666252,0.269102067,9.802112579,1,0,0
1779141270646.000000000,2419,165288.646000000,0.013220356,-0.026410457,-0.995929539,0.000139414,-0.000272074,-0.009959980,1779141270646.000000000,2419,165288.646000000,0.000963078,0.010040359,0.035381258,1,-0.000919781,-0.000307510,0.000405130,1,-0.128674388,0.269009948,9.802115440,1,0,0
1779141270666.000000000,2419,165288.666000000,0.013304896,-0.023130221,-0.993558884,0.000131096,-0.000233791,-0.009940423,1779141270666.000000000,2419,165288.666000000,0.001829315,0.042319622,0.058626845,1,-0.000305831,0.000769228,-0.000895065,1,-0.128671914,0.269139737,9.802111626,1,0,0
1779141270676.000000000,2419,165288.676000000,0.012525621,-0.025015725,-0.997618198,0.000125772,-0.000249416,-0.009966908,1779141270676.000000000,2419,165288.676000000,-0.005889068,0.023879496,0.018815927,1,0.000876511,-0.000100860,-0.000409751,1,-0.128720656,0.269227147,9.802108765,1,0,0
1779141270686.000000000,2419,165288.686000000,0.011193981,-0.026319211,-0.995665908,0.000111488,-0.000265029,-0.009962652,1779141270686.000000000,2419,165288.686000000,-0.018916916,0.011063127,0.037963036,1,-0.000870508,0.000416636,-0.000928869,1,-0.128706187,0.269138873,9.802111626,1,0,0
1779141270706.000000000,2419,165288.706000000,0.011517594,-0.025179923,-0.991398275,0.000123501,-0.000262765,-0.009961282,1779141270706.000000000,2419,165288.706000000,-0.015862135,0.022206992,0.079813108,1,-0.001138668,-0.001955924,-0.000931574,1,-0.128750920,0.269101769,9.802111626,1,0,0
1779141270716.000000000,2419,165288.716000000,0.013121205,-0.031046469,-0.998824537,0.000130647,-0.000288208,-0.009964575,1779141270716.000000000,2419,165288.716000000,-0.000103274,-0.035175372,0.006982522,1,0.001594534,0.000107234,-0.000882517,1,-0.128782466,0.269335896,9.802104950,1,0,0
1779141270736.000000000,2419,165288.736000000,0.015087677,-0.029664319,-0.996670544,0.000151491,-0.000311010,-0.009958463,1779141270736.000000000,2419,165288.736000000,0.019289974,-0.021706536,0.028109923,1,0.000325504,-0.001480463,-0.000233535,1,-0.128623620,0.269211113,9.802110672,1,0,0
1779141270746.000000000,2419,165288.746000000,0.014085710,-0.028983006,-0.994457245,0.000137430,-0.000285057,-0.009947209,1779141270746.000000000,2419,165288.746000000,0.009588974,-0.014934216,0.049814057,1,0.001262665,0.000037788,-0.000238966,1,-0.128546044,0.269331306,9.802107811,1,0,0
1779141270766.000000000,2419,165288.766000000,0.014510551,-0.033189397,-1.000458479,0.000160362,-0.000326292,-0.010019908,1779141270766.000000000,2419,165288.766000000,0.013774441,-0.056000162,-0.009041266,1,-0.000076525,-0.004641633,0.000601575,1,-0.128380120,0.269474506,9.802105904,1,0,0
1779141270776.000000000,2419,165288.776000000,0.011890328,-0.027354831,-0.991690338,0.000109449,-0.000277138,-0.009917244,1779141270776.000000000,2419,165288.776000000,-0.011829203,0.001056352,0.076949589,1,-0.000773920,0.002925044,0.001042653,1,-0.128523856,0.269291908,9.802109718,1,0,0
1779141270796.000000000,2419,165288.796000000,0.010141635,-0.025706742,-0.993921697,0.000101958,-0.000254852,-0.009929161,1779141270796.000000000,2419,165288.796000000,-0.029116593,0.017442459,0.055058803,1,0.001793289,0.000345033,0.001101085,1,-0.128583089,0.269600987,9.802100182,1,0,0
1779141270806.000000000,2419,165288.806000000,0.012885003,-0.028131487,-0.997973979,0.000121326,-0.000285365,-0.009977942,1779141270806.000000000,2419,165288.806000000,-0.002444972,-0.006294638,0.015315809,1,-0.001698851,0.002486462,0.000910098,1,-0.128880575,0.269528717,9.802098274,1,0,0
1779141270816.000000000,2419,165288.816000000,0.011625931,-0.026074404,-0.997210324,0.000126279,-0.000255817,-0.009972664,1779141270816.000000000,2419,165288.816000000,-0.014726682,0.013725233,0.022809677,1,-0.001170986,-0.003398381,0.000737371,1,-0.128631458,0.269391596,9.802104950,1,0,0
1779141270826.000000000,2419,165288.826000000,0.008917144,-0.023829525,-0.992754877,0.000089606,-0.000246004,-0.009932463,1779141270826.000000000,2419,165288.826000000,-0.041102413,0.035590053,0.066508867,1,-0.001497942,0.000016233,0.000951341,1,-0.128549412,0.269231528,9.802110672,1,0,0
1779141270836.000000000,2419,165288.836000000,0.012425059,-0.027500138,-0.997099340,0.000117585,-0.000269193,-0.009948590,1779141270836.000000000,2419,165288.836000000,-0.006939975,-0.000296736,0.023898033,1,0.002149284,0.002584995,0.001065038,1,-0.128867909,0.269454986,9.802100182,1,0,0
