Time,GPS_ts,fGPS_ts,scaledAccelX,scaledAccelY,scaledAccelZ,deltaVelX,deltaVelY,deltaVelZ,estLinearAccelX,estLinearAccelY,estLinearAccelZ,estLinearAccel:valid,estAngularRateX,estAngularRateY,estAngularRateZ,estAngularRate:valid,estGravityX,estGravityY,estGravityZ,estGravity:valid,flag
1778254547361,   339.712,   339.712, 0.023452, 0.053948,-1.031401, 0.000249, 0.000526,-0.010329, 0.004266, 0.267657,-0.314023,1,-0.060165, 0.012032,-0.291313,1,-0.225854,-0.263473, 9.800508,1,0
1778254547362,   339.737,   339.732, 0.027633, 0.062728,-0.976403, 0.000272, 0.000632,-0.009783, 0.011461, 0.389395, 0.071692,1,-0.061342, 0.011076,-0.278926,1,-0.226726,-0.276694, 9.800123,1,0
1778254547362,   339.757,   339.757, 0.046015, 0.048507,-0.979512, 0.000443, 0.000486,-0.009773, 0.223378, 0.179622, 0.193800,1,-0.069903, 0.015540,-0.265524,1,-0.228105,-0.298440, 9.799454,1,0
1778254547362,   339.782,   339.782, 0.054467, 0.044126,-1.005024, 0.000551, 0.000447,-0.010038, 0.304447, 0.121779,-0.056891,1,-0.068741, 0.018301,-0.260284,1,-0.230008,-0.313287, 9.798945,1,0
1778254547362,   339.807,   339.802, 0.040721, 0.051044,-0.998655, 0.000419, 0.000504,-0.010003, 0.232324, 0.158629,-0.099797,1,-0.064454, 0.019569,-0.255156,1,-0.232042,-0.327198, 9.798443,1,0
1778254547362,   339.832,   339.832, 0.031881, 0.047705,-0.979897, 0.000322, 0.000484,-0.009802, 0.078539, 0.123638, 0.188304,1,-0.056068, 0.014764,-0.251595,1,-0.234288,-0.346128, 9.797739,1,0
1778254547362,   339.857,   339.852, 0.028893, 0.040364,-0.994226, 0.000286, 0.000396,-0.009932, 0.050779, 0.034100, 0.133143,1,-0.054947, 0.012464,-0.249978,1,-0.235141,-0.358335, 9.797279,1,0
1778254547362,   339.882,   339.877, 0.018238, 0.039411,-1.001578, 0.000193, 0.000394,-0.010008,-0.056768, 0.010572,-0.025519,1,-0.047175, 0.012006,-0.251785,1,-0.235650,-0.378020, 9.796528,1,0
1778254547362,   339.907,   339.902, 0.009120, 0.059164,-1.000807, 0.000090, 0.000601,-0.010025,-0.154889, 0.175318,-0.120512,1,-0.041433, 0.015063,-0.249848,1,-0.236477,-0.387819, 9.796124,1,0
1778254547362,   339.927,   339.922, 0.014135, 0.053635,-0.980958, 0.000136, 0.000552,-0.009814,-0.135209, 0.164345, 0.108775,1,-0.034129, 0.012961,-0.246912,1,-0.237219,-0.396221, 9.795771,1,0
1778254547362,   339.947,   339.942, 0.022573, 0.044606,-0.992497, 0.000221, 0.000453,-0.009913,-0.054353, 0.072391, 0.142733,1,-0.026099, 0.014035,-0.247927,1,-0.237870,-0.403098, 9.795474,1,0
1778254547376,   412.562,   412.562, 0.025946,-0.024331,-0.995943, 0.000260,-0.000250,-0.009954,-0.006072, 0.005306, 0.033287,1, 0.002696, 0.000594, 0.000415,1,-0.260537, 0.243998, 9.800152,1,0
1778254547397,   412.587,   412.582, 0.024358,-0.025926,-0.995262, 0.000243,-0.000260,-0.009955,-0.015865,-0.010631, 0.043508,1, 0.003236,-0.000287, 0.000419,1,-0.260516, 0.244614, 9.800137,1,0
1778254547419,   412.607,   412.602, 0.024730,-0.025249,-0.995251, 0.000246,-0.000254,-0.009948,-0.022443,-0.007649, 0.035707,1, 0.003523,-0.000606, 0.000542,1,-0.260392, 0.245331, 9.800122,1,0
1778254547446,   412.632,   412.632, 0.025700,-0.025622,-0.994915, 0.000257,-0.000255,-0.009950,-0.008145,-0.005098, 0.043323,1, 0.002939,-0.001615, 0.000853,1,-0.260121, 0.246258, 9.800106,1,0
1778254547468,   412.657,   412.652, 0.025686,-0.027598,-0.995976, 0.000256,-0.000277,-0.009960,-0.012422,-0.021355, 0.031000,1, 0.001707,-0.000318, 0.000700,1,-0.260050, 0.246677, 9.800097,1,0
1778254547490,   412.677,   412.677, 0.024838,-0.026060,-0.994473, 0.000249,-0.000257,-0.009945,-0.016196,-0.008474, 0.047647,1, 0.000235,-0.000139, 0.000699,1,-0.259742, 0.247116, 9.800095,1,0
1778254547516,   412.702,   412.702, 0.024860,-0.026155,-0.994797, 0.000248,-0.000261,-0.009947,-0.015946,-0.009286, 0.044471,1, 0.000368,-0.000724, 0.000374,1,-0.259720, 0.247219, 9.800093,1,0
1778254547538,   412.727,   412.722, 0.023615,-0.026573,-0.996158, 0.000239,-0.000268,-0.009962,-0.018682,-0.013635, 0.034442,1, 0.000680,-0.000097, 0.000198,1,-0.259690, 0.247334, 9.800091,1,0
1778254547560,   412.747,   412.747, 0.024127,-0.026900,-0.995270, 0.000244,-0.000267,-0.009952,-0.022956,-0.016585, 0.039831,1,-0.001388,-0.000529, 0.000524,1,-0.259542, 0.247175, 9.800098,1,0
1778254547586,   412.772,   412.772, 0.025086,-0.025981,-0.995154, 0.000250,-0.000261,-0.009949,-0.013504,-0.007895, 0.040982,1,-0.002274, 0.000254, 0.000458,1,-0.259517, 0.246826, 9.800108,1,0
1778254547608,   412.797,   412.792, 0.024511,-0.026251,-0.995556, 0.000244,-0.000264,-0.009955,-0.018139,-0.013411, 0.036152,1,-0.002427,-0.000115,-0.000158,1,-0.259488, 0.246302, 9.800121,1,0
1778254547631,   412.817,   412.817, 0.025032,-0.025905,-0.995571, 0.000248,-0.000260,-0.009956,-0.014039,-0.008545, 0.036926,1,-0.003012, 0.000676, 0.000651,1,-0.259542, 0.245400, 9.800143,1,0
1778254547656,   412.842,   412.842, 0.024510,-0.026117,-0.995579, 0.000246,-0.000260,-0.009957,-0.019249,-0.011292, 0.036861,1,-0.003549, 0.000410, 0.000206,1,-0.259619, 0.244722, 9.800158,1,0
1778254547678,   412.867,   412.862, 0.024548,-0.025184,-0.994842, 0.000246,-0.000253,-0.009946,-0.019853,-0.006583, 0.042403,1,-0.003983, 0.000206,-0.000187,1,-0.259677, 0.243969, 9.800175,1,0
1778254547701,   412.887,   412.887, 0.025142,-0.025295,-0.996031, 0.000253,-0.000252,-0.009958,-0.012815,-0.004801, 0.032476,1,-0.002937, 0.000161, 0.000211,1,-0.259380, 0.243171, 9.800202,1,0
1778254547726,   412.912,   412.912, 0.026123,-0.024999,-0.995281, 0.000262,-0.000251,-0.009955,-0.003212,-0.002443, 0.039837,1,-0.002962,-0.000043, 0.000152,1,-0.259392, 0.242624, 9.800216,1,0
1778254547748,   412.937,   412.932, 0.025581,-0.024705,-0.994970, 0.000257,-0.000250,-0.009947,-0.009261,-0.002770, 0.040433,1,-0.001990, 0.001388, 0.000088,1,-0.259493, 0.242152, 9.800225,1,0
1778254547771,   412.957,   412.957, 0.025087,-0.024953,-0.995242, 0.000252,-0.000251,-0.009952,-0.013632,-0.003039, 0.040240,1,-0.001686, 0.000274,-0.000147,1,-0.259657, 0.241613, 9.800234,1,0
1778254547796,   412.982,   412.982, 0.024379,-0.025331,-0.995410, 0.000244,-0.000253,-0.009954,-0.020617,-0.007106, 0.038607,1,-0.002233,-0.000660,-0.000115,1,-0.259669, 0.241234, 9.800243,1,0
1778254547818,   413.007,   413.002, 0.025024,-0.024588,-0.996586, 0.000248,-0.000246,-0.009966,-0.015592, 0.001126, 0.032230,1,-0.001588, 0.000290,-0.000242,1,-0.259690, 0.240890, 9.800251,1,0
1778254547841,   413.032,   413.027, 0.025671,-0.025002,-0.994738, 0.000255,-0.000248,-0.009948,-0.008001,-0.004935, 0.045212,1,-0.002618, 0.000063, 0.000377,1,-0.259748, 0.240167, 9.800267,1,0
1778254547867,   413.052,   413.052, 0.026071,-0.024705,-0.994389, 0.000259,-0.000249,-0.009943,-0.004046,-0.002413, 0.048650,1,-0.001612,-0.000051, 0.000693,1,-0.259716, 0.239809, 9.800277,1,0
1778254547888,   413.077,   413.072, 0.025162,-0.025140,-0.996271, 0.000253,-0.000251,-0.009963,-0.010616,-0.009273, 0.032017,1,-0.001835,-0.000143, 0.000452,1,-0.259734, 0.239544, 9.800282,1,0
1778254547911,   413.102,   413.097, 0.024676,-0.024486,-0.995115, 0.000246,-0.000245,-0.009949,-0.017592,-0.000872, 0.041549,1,-0.001127, 0.000408, 0.000511,1,-0.259592, 0.239219, 9.800295,1,0
1778254547937,   413.122,   413.122, 0.023864,-0.024664,-0.995754, 0.000237,-0.000244,-0.009955,-0.025613,-0.002767, 0.035281,1,-0.000169,-0.000411, 0.000543,1,-0.259624, 0.239102, 9.800297,1,0
1778254547958,   413.147,   413.142, 0.024778,-0.024369,-0.994938, 0.000246,-0.000244,-0.009950,-0.019763,-0.002697, 0.037133,1,-0.000467,-0.000286, 0.000002,1,-0.259619, 0.239031, 9.800299,1,0
1778254547981,   413.172,   413.167, 0.025709,-0.026040,-0.995515, 0.000254,-0.000258,-0.009954,-0.007499,-0.016422, 0.037632,1,-0.000869, 0.000003,-0.000205,1,-0.259621, 0.238912, 9.800302,1,0
1778254548007,   413.192,   413.192, 0.025760,-0.024908,-0.995357, 0.000257,-0.000253,-0.009953,-0.007063,-0.005540, 0.039183,1,-0.001238, 0.000618, 0.000474,1,-0.259703, 0.238682, 9.800304,1,0
1778254548028,   413.217,   413.212, 0.026473,-0.024468,-0.995735, 0.000262,-0.000245,-0.009955, 0.001142,-0.004693, 0.037408,1,-0.000981,-0.000045, 0.000827,1,-0.259714, 0.238494, 9.800309,1,0
1778254548051,   413.242,   413.237, 0.025689,-0.024058,-0.994810, 0.000256,-0.000240,-0.009949,-0.007685, 0.002344, 0.044560,1, 0.000006,-0.000361, 0.000754,1,-0.259597, 0.238274, 9.800317,1,0
1778254548077,   413.262,   413.262, 0.024541,-0.024921,-0.994572, 0.000247,-0.000250,-0.009947,-0.018993,-0.006210, 0.046902,1,-0.000505, 0.000031, 0.000825,1,-0.259662, 0.238170, 9.800318,1,0
1778254548098,   413.287,   413.282, 0.024126,-0.024462,-0.996320, 0.000245,-0.000244,-0.009963,-0.024192,-0.001599, 0.037518,1,-0.000601,-0.000041,-0.000261,1,-0.259451, 0.238209, 9.800323,1,0
1778254548121,   413.312,   413.307, 0.024234,-0.025086,-0.995420, 0.000244,-0.000250,-0.009952,-0.021814,-0.007971, 0.038590,1,-0.001404, 0.000162, 0.000381,1,-0.259473, 0.237999, 9.800327,1,0
1778254548147,   413.332,   413.332, 0.025743,-0.024512,-0.995088, 0.000258,-0.000245,-0.009951,-0.007004,-0.002386, 0.041845,1, 0.000246,-0.000017, 0.000593,1,-0.259458, 0.238001, 9.800327,1,0
1778254548168,   413.357,   413.352, 0.026308,-0.024734,-0.995286, 0.000265,-0.000245,-0.009952,-0.006208,-0.003875, 0.038567,1,-0.000122, 0.000702, 0.000592,1,-0.259486, 0.237983, 9.800327,1,0
1778254548195,   413.382,   413.382, 0.025820,-0.025530,-0.995917, 0.000261,-0.000257,-0.009957,-0.006304,-0.012414, 0.033713,1,-0.000200, 0.000299,-0.000287,1,-0.259519, 0.237948, 9.800327,1,0
1778254548217,   413.402,   413.402, 0.025241,-0.025339,-0.995626, 0.000253,-0.000254,-0.009956,-0.012044,-0.010620, 0.036571,1,-0.000904,-0.000076, 0.000131,1,-0.259575, 0.237839, 9.800328,1,0
1778254548239,   413.427,   413.422, 0.023363,-0.024631,-0.995419, 0.000233,-0.000248,-0.009954,-0.023989,-0.001751, 0.034765,1,-0.000790, 0.000747, 0.000365,1,-0.259728, 0.237632, 9.800329,1,0
1778254548266,   413.452,   413.452, 0.023712,-0.024556,-0.995467, 0.000237,-0.000244,-0.009950,-0.027204,-0.003317, 0.038135,1,-0.000506, 0.000290, 0.000118,1,-0.259749, 0.237475, 9.800333,1,0
1778254548287,   413.477,   413.472, 0.025519,-0.024852,-0.995785, 0.000256,-0.000249,-0.009957,-0.016906,-0.006118, 0.033353,1, 0.000147, 0.000059, 0.000181,1,-0.259761, 0.237420, 9.800334,1,0
1778254548309,   413.497,   413.492, 0.026612,-0.025784,-0.994956, 0.000269,-0.000257,-0.009949,-0.004518,-0.010398, 0.038620,1, 0.000144,-0.000767, 0.000481,1,-0.259443, 0.237534, 9.800340,1,0
1778254548336,   413.522,   413.522, 0.026060,-0.024528,-0.995796, 0.000259,-0.000246,-0.009955,-0.003862,-0.003008, 0.034914,1, 0.000118, 0.000217, 0.000148,1,-0.259430, 0.237537, 9.800340,1,0
1778254548357,   413.547,   413.542, 0.025214,-0.024856,-0.995783, 0.000254,-0.000247,-0.009961,-0.001467,-0.000750, 0.028964,1,-0.000117, 0.000077, 0.000376,1,-0.259463, 0.237431, 9.800342,1,0
1778254548379,   413.567,   413.562, 0.024801,-0.025361,-0.995196, 0.000247,-0.000254,-0.009950,-0.014599,-0.007913, 0.041681,1, 0.000162,-0.000245, 0.000336,1,-0.259438, 0.237463, 9.800342,1,0
1778254548406,   413.592,   413.592, 0.025024,-0.024395,-0.995599, 0.000247,-0.000244,-0.009955,-0.014009,-0.001807, 0.036847,1,-0.000012,-0.000600, 0.000197,1,-0.259392, 0.237426, 9.800344,1,0
1778254548427,   413.617,   413.612, 0.025252,-0.024244,-0.994963, 0.000250,-0.000243,-0.009949,-0.015814, 0.006059, 0.041440,1,-0.000620, 0.000247, 0.000277,1,-0.259371, 0.237348, 9.800345,1,0
1778254548449,   413.637,   413.632, 0.025337,-0.024486,-0.995418, 0.000253,-0.000248,-0.009952,-0.012719,-0.007074, 0.041319,1, 0.001099, 0.000113,-0.000099,1,-0.259393, 0.237447, 9.800343,1,0
1778254548476,   413.662,   413.662, 0.024989,-0.024635,-0.995755, 0.000249,-0.000244,-0.009959,-0.014348,-0.003913, 0.035319,1, 0.000652, 0.000183,-0.000027,1,-0.259408, 0.237694, 9.800337,1,0
1778254548497,   413.687,   413.682, 0.023703,-0.025000,-0.994969, 0.000239,-0.000248,-0.009951,-0.020299,-0.007142, 0.044537,1, 0.000422, 0.000694, 0.000349,1,-0.259347, 0.237986, 9.800331,1,0
1778254548519,   413.707,   413.702, 0.024532,-0.024486,-0.994614, 0.000247,-0.000242,-0.009948,-0.022164,-0.001605, 0.041875,1, 0.000594,-0.000520,-0.000541,1,-0.259320, 0.238167, 9.800327,1,0
1778254548546,   413.732,   413.732, 0.024649,-0.024765,-0.995329, 0.000244,-0.000248,-0.009951,-0.017602,-0.004532, 0.039478,1, 0.000761,-0.000137, 0.000429,1,-0.259318, 0.238352, 9.800323,1,0
1778254548567,   413.757,   413.752, 0.025987,-0.025428,-0.995586, 0.000260,-0.000254,-0.009958,-0.008213,-0.005226, 0.031064,1, 0.000933,-0.000238, 0.000330,1,-0.259256, 0.238543, 9.800320,1,0
1778254548589,   413.777,   413.772, 0.026272,-0.024328,-0.995132, 0.000264,-0.000242,-0.009950,-0.006805, 0.004387, 0.043599,1, 0.001089,-0.000695, 0.000412,1,-0.259144, 0.238761, 9.800318,1,0
1778254548616,   413.802,   413.802, 0.025850,-0.024949,-0.995816, 0.000258,-0.000248,-0.009958,-0.005719,-0.005553, 0.034683,1, 0.000992, 0.000037, 0.000371,1,-0.259220, 0.239140, 9.800306,1,0
1778254548637,   413.827,   413.822, 0.025150,-0.024422,-0.995425, 0.000254,-0.000246,-0.009954,-0.010909,-0.009153, 0.038567,1, 0.001078, 0.000048, 0.000445,1,-0.259183, 0.239295, 9.800303,1,0
1778254548659,   413.847,   413.842, 0.024552,-0.024970,-0.995813, 0.000248,-0.000250,-0.009957,-0.021100,-0.007257, 0.038227,1, 0.000876,-0.000331, 0.000122,1,-0.259127, 0.239451, 9.800301,1,0
1778254548686,   413.872,   413.872, 0.024542,-0.025100,-0.994651, 0.000247,-0.000250,-0.009946,-0.018501,-0.006522, 0.046103,1, 0.001076, 0.000011, 0.000746,1,-0.259176, 0.239660, 9.800295,1,0
1778254548708,   413.897,   413.892, 0.024608,-0.025389,-0.996244, 0.000245,-0.000254,-0.009964,-0.018501,-0.011003, 0.035864,1, 0.000848, 0.000340, 0.000112,1,-0.259024, 0.239941, 9.800292,1,0
1778254548730,   413.917,   413.917, 0.025268,-0.025154,-0.996139, 0.000253,-0.000251,-0.009965,-0.011197,-0.006566, 0.031503,1, 0.000552, 0.000736, 0.000297,1,-0.259018, 0.240131, 9.800287,1,0
1778254548756,   413.942,   413.942, 0.024649,-0.025103,-0.995264, 0.000248,-0.000251,-0.009953,-0.017250,-0.005974, 0.040076,1, 0.001166, 0.000123, 0.000906,1,-0.258978, 0.240240, 9.800285,1,0
1778254548778,   413.967,   413.962, 0.025596,-0.024689,-0.993978, 0.000256,-0.000248,-0.009942,-0.009648, 0.000367, 0.051490,1, 0.000611, 0.000345, 0.000233,1,-0.258972, 0.240418, 9.800282,1,0
1778254548800,   413.987,   413.987, 0.025851,-0.025431,-0.995881, 0.000257,-0.000254,-0.009956,-0.005350,-0.008791, 0.034026,1, 0.000850,-0.000050, 0.000390,1,-0.258856, 0.240624, 9.800280,1,0
1778254548826,   414.012,   414.012, 0.025189,-0.025919,-0.996458, 0.000253,-0.000257,-0.009964,-0.011738,-0.013332, 0.028365,1, 0.000849,-0.000072, 0.000217,1,-0.258758, 0.240871, 9.800276,1,0
1778254548848,   414.037,   414.032, 0.024910,-0.024624,-0.995243, 0.000248,-0.000246,-0.009953,-0.013894,-0.000379, 0.035805,1, 0.001807, 0.000065, 0.000237,1,-0.258840, 0.241158, 9.800267,1,0
1778254548871,   414.057,   414.057, 0.025039,-0.024709,-0.994704, 0.000249,-0.000248,-0.009948,-0.013353,-0.000940, 0.045541,1, 0.001141, 0.000657,-0.000234,1,-0.258921, 0.241413, 9.800259,1,0
1778254548896,   414.082,   414.082, 0.024120,-0.025210,-0.995088, 0.000241,-0.000252,-0.009947,-0.022101,-0.005491, 0.041778,1, 0.001697,-0.000549, 0.000500,1,-0.258590, 0.241801, 9.800258,1,0
1778254548918,   414.107,   414.102, 0.024641,-0.025765,-0.996427, 0.000245,-0.000257,-0.009966,-0.020282,-0.009532, 0.023906,1, 0.001675, 0.000139, 0.000287,1,-0.258641, 0.242063, 9.800250,1,0
1778254548941,   414.127,   414.127, 0.025401,-0.025681,-0.995328, 0.000254,-0.000257,-0.009953,-0.009529,-0.009362, 0.039408,1, 0.001479,-0.000570, 0.000440,1,-0.258606, 0.242526, 9.800240,1,0
1778254548966,   414.152,   414.152, 0.025648,-0.024668,-0.995129, 0.000256,-0.000249,-0.009951,-0.007063, 0.000746, 0.041351,1, 0.001370,-0.000046,-0.000210,1,-0.258581, 0.242699, 9.800236,1,0
1778254548988,   414.177,   414.172, 0.025662,-0.025600,-0.996520, 0.000256,-0.000258,-0.009964,-0.011701,-0.003003, 0.031335,1, 0.000674, 0.000295, 0.000821,1,-0.258656, 0.242866, 9.800229,1,0
1778254549011,   414.197,   414.197, 0.024857,-0.024984,-0.994161, 0.000249,-0.000252,-0.009942,-0.014995,-0.001859, 0.050833,1, 0.001489, 0.000535, 0.000331,1,-0.258772, 0.243198, 9.800219,1,0
1778254549036,   414.222,   414.222, 0.024940,-0.024958,-0.994606, 0.000249,-0.000250,-0.009946,-0.014202,-0.001281, 0.046462,1, 0.002188, 0.000615, 0.000655,1,-0.258798, 0.243541, 9.800209,1,0
1778254549058,   414.247,   414.242, 0.024058,-0.025630,-0.995550, 0.000241,-0.000255,-0.009954,-0.017644,-0.003711, 0.030815,1, 0.001656,-0.000028,-0.000140,1,-0.258814, 0.243955, 9.800199,1,0
1778254549081,   414.272,   414.267, 0.024001,-0.025236,-0.995195, 0.000241,-0.000253,-0.009952,-0.023430,-0.002948, 0.040654,1, 0.002685, 0.000097,-0.000461,1,-0.258798, 0.244614, 9.800182,1,0
1778254549107,   414.292,   414.292, 0.024443,-0.025117,-0.995760, 0.000246,-0.000252,-0.009958,-0.018864,-0.001304, 0.035105,1, 0.002364,-0.000392, 0.000396,1,-0.258549, 0.245088, 9.800177,1,0
1778254549128,   414.317,   414.312, 0.026429,-0.026217,-0.994960, 0.000261,-0.000260,-0.009952,-0.000947,-0.004854, 0.036101,1, 0.002187,-0.000294, 0.000441,1,-0.258484, 0.245560, 9.800167,1,0
1778254549151,   414.342,   414.337, 0.027254,-0.026568,-0.996388, 0.000270,-0.000263,-0.009962, 0.008892,-0.014468, 0.028924,1, 0.001728,-0.000572,-0.000227,1,-0.258361, 0.246126, 9.800156,1,0
1778254549177,   414.362,   414.362, 0.027468,-0.025715,-0.994893, 0.000273,-0.000258,-0.009952, 0.011067,-0.005914, 0.043584,1, 0.000100,-0.000126, 0.000142,1,-0.258302, 0.246270, 9.800154,1,0
1778254549198,   414.387,   414.382, 0.026259,-0.025026,-0.995024, 0.000261,-0.000251,-0.009954, 0.002580,-0.000597, 0.039663,1, 0.000593,-0.000508, 0.000129,1,-0.258280, 0.246422, 9.800151,1,0
1778254549221,   414.412,   414.407, 0.025906,-0.025131,-0.994801, 0.000257,-0.000253,-0.009946,-0.004242, 0.000269, 0.044482,1, 0.001034,-0.000736, 0.000016,1,-0.258267, 0.246756, 9.800142,1,0
1778254549247,   414.432,   414.432, 0.026816,-0.023379,-0.997640, 0.000265,-0.000228,-0.009975, 0.004842, 0.017776, 0.016636,1, 0.002183,-0.000643,-0.000176,1,-0.258117, 0.247118, 9.800138,1,0
1778254549268,   414.457,   414.452, 0.026624,-0.029263,-0.991163, 0.000266,-0.000290,-0.009922, 0.003789,-0.028240, 0.026416,1, 0.001668, 0.000315, 0.000528,1,-0.258063, 0.247657, 9.800125,1,0
1778254549291,   414.482,   414.477, 0.030379,-0.027416,-0.995771, 0.000301,-0.000282,-0.009950, 0.040305,-0.021302, 0.034963,1,-0.002419,-0.001375, 0.000327,1,-0.257566, 0.247494, 9.800142,1,0
1778254549317,   414.502,   414.502, 0.038099,-0.025481,-1.002521, 0.000376,-0.000248,-0.010025, 0.116221,-0.003098,-0.031210,1,-0.005691,-0.001121, 0.002646,1,-0.257365, 0.246610, 9.800170,1,0
1778254549338,   414.527,   414.522, 0.045181,-0.033998,-0.990907, 0.000448,-0.000342,-0.009909, 0.168839,-0.081497, 0.018140,1,-0.010328,-0.001808, 0.001933,1,-0.257113, 0.244926, 9.800219,1,0
1778254549361,   414.552,   414.547, 0.050421,-0.023793,-0.992802, 0.000496,-0.000265,-0.009921, 0.245106, 0.068527, 0.029601,1,-0.018069, 0.000110, 0.004036,1,-0.256838, 0.240608, 9.800333,1,0
1778254549387,   414.572,   414.572, 0.042157,-0.015774,-1.014944, 0.000437,-0.000167,-0.010161, 0.155978, 0.083441,-0.152821,1,-0.010431, 0.005479, 0.004167,1,-0.257607, 0.237810, 9.800381,1,0
1778254549408,   414.597,   414.592, 0.009835,-0.006108,-0.969310, 0.000110,-0.000052,-0.009692,-0.048676, 0.181082, 0.178765,1, 0.013355, 0.004098, 0.003420,1,-0.258516, 0.239022, 9.800327,1,0
1778254549435,   414.622,   414.622,-0.007959,-0.026684,-0.994890,-0.000071,-0.000248,-0.009923,-0.337352,-0.015395, 0.043589,1, 0.035586, 0.003213, 0.002062,1,-0.259401, 0.247393, 9.800097,1,0
1778254549457,   414.642,   414.642,-0.022206,-0.036089,-1.011259,-0.000212,-0.000352,-0.010106,-0.477568,-0.099344,-0.117164,1, 0.047214, 0.002978,-0.003360,1,-0.259901, 0.256037, 9.799861,1,0
1778254549479,   414.667,   414.662,-0.050600,-0.050894,-0.994281,-0.000494,-0.000476,-0.009908,-0.692067,-0.213045, 0.004360,1, 0.053844, 0.008461,-0.011674,1,-0.261063, 0.266393, 9.799554,1,0
1778254549505,   414.692,   414.692, 0.015196, 0.023501,-1.000473, 0.000067, 0.000137,-0.009997,-0.111740, 0.509240,-0.012076,1, 0.023517,-0.019159,-0.003893,1,-0.260163, 0.279502, 9.799213,1,0
1778254549527,   414.717,   414.712, 0.048703,-0.038047,-0.971515, 0.000492,-0.000318,-0.009791, 0.152572, 0.323069, 0.034153,1, 0.007788,-0.006648, 0.027910,1,-0.256858, 0.282338, 9.799219,1,0
1778254549549,   414.737,   414.732, 0.058343,-0.047155,-0.999528, 0.000588,-0.000546,-0.009999, 0.297491,-0.214540, 0.259051,1, 0.020355, 0.002729, 0.016206,1,-0.257075, 0.284784, 9.799143,1,0
1778254549576,   414.762,   414.762, 0.070042,-0.050381,-1.013902, 0.000681,-0.000447,-0.010073, 0.430706,-0.195727,-0.144223,1, 0.075133,-0.006381,-0.002279,1,-0.255971, 0.300685, 9.798697,1,0
1778254549597,   414.787,   414.782, 0.047524,-0.013099,-0.975525, 0.000498,-0.000158,-0.009809, 0.310488, 0.056727, 0.138816,1, 0.093191,-0.002866,-0.013461,1,-0.254549, 0.317836, 9.798192,1,0
1778254549619,   414.807,   414.802, 0.025530,-0.026041,-0.990063, 0.000272,-0.000223,-0.009846, 0.110850, 0.152523, 0.209963,1, 0.090244, 0.003100,-0.003608,1,-0.255200, 0.336390, 9.797556,1,0
1778254549646,   414.832,   414.832, 0.019759,-0.030431,-1.012733, 0.000206,-0.000324,-0.010188,-0.060108, 0.060391,-0.134725,1, 0.082885,-0.007396,-0.004270,1,-0.253656, 0.361397, 9.796705,1,0
1778254549667,   414.857,   414.852, 0.012013,-0.045359,-0.960647, 0.000167,-0.000402,-0.009591, 0.018679, 0.045734, 0.069422,1, 0.072332,-0.008740, 0.003864,1,-0.251918, 0.376334, 9.796187,1,0
1778254549689,   414.877,   414.872, 0.011238,-0.044736,-0.960613, 0.000182,-0.000649,-0.009851,-0.279523,-0.048639, 0.419721,1, 0.071492, 0.002679, 0.003499,1,-0.251173, 0.389779, 9.795681,1,0
1778254549716,   414.902,   414.902,-0.028068,-0.093935,-1.031900,-0.000201,-0.000855,-0.010210,-0.527070,-0.511486,-0.324630,1, 0.084619, 0.008638,-0.019270,1,-0.252113, 0.412327, 9.794734,1,0
1778254549737,   414.927,   414.922, 0.017817,-0.030867,-0.997069, 0.000174,-0.000304,-0.009954,-0.176186,-0.068965,-0.032163,1, 0.062857,-0.008749,-0.022091,1,-0.252269, 0.426340, 9.794129,1,0
1778254549759,   414.947,   414.942, 0.024791,-0.069857,-0.969918, 0.000219,-0.000597,-0.009617,-0.101323,-0.032260, 0.134711,1, 0.021121,-0.003993,-0.005483,1,-0.250060, 0.432966, 9.793896,1,0
1778254549786,   414.972,   414.972, 0.016423,-0.058418,-1.012416, 0.000189,-0.000650,-0.010098,-0.090660,-0.139156,-0.134593,1,-0.003812, 0.006761,-0.012237,1,-0.251938, 0.433599, 9.793819,1,0
1778254549807,   414.997,   414.992, 0.026775,-0.011357,-0.987938, 0.000258,-0.000085,-0.009874,-0.058345, 0.334747,-0.132602,1,-0.017864, 0.007086, 0.002230,1,-0.253539, 0.431316, 9.793880,1,0
1778254549829,   415.017,   415.012, 0.034605,-0.043976,-0.977585, 0.000346,-0.000432,-0.009760, 0.039706, 0.169976, 0.242513,1,-0.042389,-0.005191, 0.015121,1,-0.252804, 0.424459, 9.794198,1,0
1778254549856,   415.042,   415.042, 0.047362,-0.061178,-0.999963, 0.000471,-0.000630,-0.009994, 0.211476,-0.192986,-0.011349,1,-0.082632, 0.008980, 0.026714,1,-0.253233, 0.404407, 9.795035,1,0
1778254549877,   415.067,   415.062, 0.044388,-0.055841,-0.996788, 0.000422,-0.000507,-0.009906, 0.182980,-0.054146,-0.082309,1,-0.097308, 0.009526, 0.030093,1,-0.254725, 0.385994, 9.795739,1,0
1778254549899,   415.087,   415.082, 0.048490,-0.062902,-0.989713, 0.000486,-0.000639,-0.009890, 0.216851,-0.218290, 0.106926,1,-0.095589, 0.002054, 0.018591,1,-0.254535, 0.367134, 9.796469,1,0
1778254549926,   415.112,   415.112, 0.056193,-0.044341,-1.000819, 0.000547,-0.000451,-0.009983, 0.296131,-0.092070,-0.017346,1,-0.095053, 0.004870, 0.011982,1,-0.255078, 0.339813, 9.797441,1,0
1778254549948,   415.137,   415.132, 0.050222,-0.041148,-0.992475, 0.000506,-0.000416,-0.009933, 0.256152,-0.027349, 0.084641,1,-0.102341, 0.004722, 0.011133,1,-0.255842, 0.320512, 9.798071,1,0
1778254549970,   415.157,   415.157, 0.048192,-0.039915,-0.997643, 0.000486,-0.000413,-0.009963, 0.215241,-0.099747, 0.015397,1,-0.110071, 0.006409, 0.004477,1,-0.257555, 0.288253, 9.799028,1,0
1778254549996,   415.182,   415.182, 0.034157,-0.030273,-0.994813, 0.000352,-0.000295,-0.009955, 0.076389,-0.025867, 0.043709,1,-0.101024, 0.006805,-0.001294,1,-0.258788, 0.267861, 9.799575,1,0
1778254550018,   415.207,   415.202, 0.030780,-0.044260,-0.995313, 0.000309,-0.000474,-0.009948, 0.034082,-0.219707, 0.100037,1,-0.087689, 0.003086,-0.005927,1,-0.259779, 0.250146, 9.800016,1,0
1778254550040,   415.227,   415.227, 0.034555,-0.014441,-1.002614, 0.000344,-0.000158,-0.010026, 0.078355, 0.086744,-0.031753,1,-0.081703, 0.004046,-0.003303,1,-0.260642, 0.225806, 9.800585,1,0
1778254550066,   415.252,   415.252, 0.032926,-0.016023,-0.992364, 0.000336,-0.000151,-0.009931, 0.061517, 0.054948, 0.069100,1,-0.083816, 0.004977,-0.006300,1,-0.261533, 0.209458, 9.800924,1,0
1778254550088,   415.277,   415.272, 0.024828,-0.029218,-0.994784, 0.000250,-0.000310,-0.009939,-0.003437,-0.122763, 0.084827,1,-0.086977, 0.006850,-0.004018,1,-0.262796, 0.192477, 9.801238,1,0
1778254550111,   415.297,   415.297, 0.022249,-0.016132,-1.000980, 0.000221,-0.000170,-0.010006,-0.046626, 0.011196,-0.014651,1,-0.090857, 0.006164,-0.004095,1,-0.265011, 0.166555, 9.801654,1,0
1778254550136,   415.322,   415.322, 0.024086,-0.020391,-0.988149, 0.000238,-0.000204,-0.009916,-0.029554,-0.048370, 0.111439,1,-0.090245, 0.002950,-0.008245,1,-0.265853, 0.148774, 9.801917,1,0
1778254550158,   415.347,   415.342,-0.007637, 0.046344,-1.022487,-0.000070, 0.000384,-0.010161,-0.192949, 0.068665, 0.376448,1,-0.108945, 0.004938,-0.002929,1,-0.266079, 0.129110, 9.802190,1,0
1778254550181,   415.367,   415.367, 0.006259, 0.014303,-1.041225, 0.000070, 0.000172,-0.010482,-0.209773, 0.242913,-0.408570,1,-0.092434, 0.008195, 0.018631,1,-0.271401, 0.099780, 9.802386,1,0
1778254550206,   415.392,   415.392,-0.000127,-0.052178,-0.968486,-0.000022,-0.000513,-0.009716,-0.271341,-0.424967, 0.304941,1,-0.068456,-0.008979,-0.006358,1,-0.269821, 0.084584, 9.802572,1,0
1778254550228,   415.417,   415.412, 0.054269, 0.021301,-1.001004, 0.000536, 0.000197,-0.009950, 0.162329, 0.041609, 0.323346,1,-0.075012,-0.007327,-0.000086,1,-0.268711, 0.070845, 9.802711,1,0
1778254550251,   415.437,   415.437, 0.057916, 0.000753,-1.014785, 0.000574, 0.000032,-0.010175, 0.299908, 0.057751,-0.148789,1,-0.077156, 0.004140, 0.007586,1,-0.268183, 0.047968, 9.802865,1,0
1778254550276,   415.462,   415.462, 0.056383,-0.024296,-0.978688, 0.000568,-0.000254,-0.009800, 0.284168,-0.202367, 0.205249,1,-0.070972, 0.000630,-0.001730,1,-0.268784, 0.033680, 9.802908,1,0
1778254550298,   415.487,   415.482, 0.059028,-0.001505,-1.003546, 0.000586,-0.000018,-0.010018, 0.277584,-0.089814, 0.072690,1,-0.072640, 0.002373, 0.008299,1,-0.268942, 0.019177, 9.802943,1,0
1778254550321,   415.512,   415.507, 0.054974, 0.006386,-1.010788, 0.000553, 0.000063,-0.010116, 0.269324, 0.063166,-0.109505,1,-0.068223, 0.004999,-0.003064,1,-0.269940,-0.001587, 9.802934,1,0
1778254550347,   415.532,   415.532, 0.047298,-0.007609,-0.991763, 0.000476,-0.000069,-0.009932, 0.192762,-0.087332, 0.077020,1,-0.068570, 0.006963,-0.000199,1,-0.271295,-0.014851, 9.802885,1,0
1778254550368,   415.557,   415.552, 0.030261, 0.007436,-0.990112, 0.000313, 0.000053,-0.009902, 0.085455,-0.064220, 0.169645,1,-0.073820, 0.006789, 0.004924,1,-0.272580,-0.028949, 9.802818,1,0
1778254550391,   415.582,   415.577, 0.016408, 0.005718,-1.006189, 0.000178, 0.000073,-0.010057,-0.114485, 0.004397,-0.064698,1,-0.096321, 0.012255, 0.006954,1,-0.275779,-0.054675, 9.802619,1,0
1778254550417,   415.602,   415.602, 0.007225,-0.008233,-0.999036, 0.000077,-0.000097,-0.009999,-0.206845,-0.152335, 0.005260,1,-0.103940, 0.010851, 0.009169,1,-0.278039,-0.074836, 9.802423,1,0
1778254550438,   415.627,   415.622, 0.015258, 0.018643,-0.990487, 0.000144, 0.000170,-0.009886,-0.182528,-0.031797, 0.099103,1,-0.107325, 0.004869, 0.008532,1,-0.279400,-0.095731, 9.802201,1,0
1778254550461,   415.652,   415.647, 0.022935, 0.014237,-1.000576, 0.000229, 0.000154,-0.010010,-0.055213, 0.014845,-0.010449,1,-0.113229, 0.004521, 0.009319,1,-0.280268,-0.128296, 9.801805,1,0
1778254550487,   415.672,   415.672, 0.026486,-0.001949,-0.995676, 0.000262,-0.000026,-0.009960,-0.021619,-0.165990, 0.037263,1,-0.109247, 0.006759, 0.007273,1,-0.281569,-0.150278, 9.801455,1,0
1778254550508,   415.697,   415.692, 0.027658, 0.035790,-0.996957, 0.000277, 0.000341,-0.009963,-0.006988, 0.056055, 0.088316,1,-0.098224, 0.005348, 0.002790,1,-0.283293,-0.169846, 9.801085,1,0
1778254550531,   415.722,   415.717, 0.028267, 0.028215,-1.000706, 0.000284, 0.000292,-0.010009,-0.007864, 0.083482,-0.012976,1,-0.079838, 0.006968, 0.001621,1,-0.285286,-0.195698, 9.800546,1,0
1778254550557,   415.742,   415.742, 0.027840, 0.018595,-0.994455, 0.000279, 0.000180,-0.009957,-0.013049,-0.025035, 0.048014,1,-0.065153, 0.004487,-0.002167,1,-0.286204,-0.209428, 9.800236,1,0
1778254550578,   415.767,   415.762, 0.057679, 0.122373,-0.919798, 0.000653, 0.000873,-0.009581, 0.048920,-0.168413, 1.011225,1,-0.030238, 0.005811,-0.005302,1,-0.286514,-0.216870, 9.800064,1,0
1778254550601,   415.792,   415.787, 0.070800, 0.043560,-1.015806, 0.000779, 0.000504,-0.010043, 0.404889, 0.201296,-0.161878,1,-0.024832, 0.016985,-0.011526,1,-0.289939,-0.226671, 9.799742,1,0
1778254550627,   415.812,   415.812,-0.011471,-0.026797,-1.037748,-0.000070,-0.000282,-0.010517,-0.405329,-0.491351,-0.377219,1, 0.013515, 0.015801, 0.002156,1,-0.293332,-0.228141, 9.799606,1,0
1778254550648,   415.837,   415.832,-0.009609, 0.099540,-0.943242,-0.000106, 0.000983,-0.009367,-0.393319, 0.359114, 0.505002,1, 0.039982, 0.010318,-0.004482,1,-0.295672,-0.223071, 9.799653,1,0
1778254550675,   415.862,   415.862,-0.007539, 0.058930,-1.026841,-0.000070, 0.000676,-0.010205,-0.372003, 0.369088,-0.269977,1, 0.065597, 0.008805,-0.012932,1,-0.298333,-0.206788, 9.799930,1,0
1778254550697,   415.882,   415.882,-0.031955, 0.016969,-1.026551,-0.000253, 0.000102,-0.010410,-0.612464,-0.026490,-0.266836,1, 0.098142, 0.010969,-0.011685,1,-0.299311,-0.189890, 9.800241,1,0
1778254550719,   415.907,   415.902, 0.020916, 0.063573,-1.011275, 0.000200, 0.000653,-0.010144,-0.255050, 0.397405,-0.298119,1, 0.124090,-0.007711,-0.008214,1,-0.299114,-0.166752, 9.800669,1,0
1778254550746,   415.932,   415.932, 0.051010, 0.026666,-0.938545, 0.000491, 0.000302,-0.009405, 0.203483, 0.132443, 0.597321,1, 0.157485,-0.009039,-0.008473,1,-0.296467,-0.124156, 9.801381,1,0
1778254550767,   415.957,   415.952, 0.055297, 0.016188,-0.995894, 0.000562, 0.000160,-0.009916, 0.256765, 0.019699, 0.373092,1, 0.167368,-0.001039,-0.009408,1,-0.295489,-0.091889, 9.801766,1,0
1778254550789,   415.977,   415.972, 0.030930, 0.024276,-1.015571, 0.000324, 0.000259,-0.010171, 0.153389, 0.149434,-0.188123,1, 0.175400, 0.008394,-0.002778,1,-0.296739,-0.057806, 9.801989,1,0
1778254550816,   416.002,   416.002, 0.009664, 0.010530,-1.000024, 0.000104, 0.000121,-0.009996,-0.204067, 0.092461,-0.004794,1, 0.178158, 0.005313, 0.005365,1,-0.299009,-0.005238, 9.802089,1,0
1778254550837,   416.027,   416.022, 0.009302,-0.007241,-1.024802, 0.000083,-0.000050,-0.010268,-0.246279, 0.007197,-0.266755,1, 0.168459, 0.000090, 0.007293,1,-0.299276, 0.028296, 9.802041,1,0
1778254550859,   416.047,   416.042, 0.019814,-0.021229,-0.972252, 0.000198,-0.000196,-0.009782,-0.183848,-0.081737,-0.037217,1, 0.157708,-0.003881, 0.008254,1,-0.298786, 0.060042, 9.801913,1,0
1778254550886,   416.072,   416.072, 0.030713,-0.027229,-0.965468, 0.000299,-0.000262,-0.009616, 0.002853,-0.167756, 0.333602,1, 0.138831, 0.000067, 0.010137,1,-0.298342, 0.103606, 9.801563,1,0
1778254550907,   416.097,   416.092, 0.040842,-0.020241,-1.020378, 0.000398,-0.000208,-0.010213, 0.047648,-0.121069,-0.132560,1, 0.123746, 0.005629, 0.008243,1,-0.298676, 0.128416, 9.801259,1,0
1778254550929,   416.117,   416.112, 0.058128,-0.023701,-1.000436, 0.000564,-0.000221,-0.010024, 0.171999,-0.043373,-0.145789,1, 0.107229, 0.002906, 0.007948,1,-0.299530, 0.150694, 9.800916,1,0
1778254550956,   416.142,   416.142, 0.080293,-0.046534,-0.984259, 0.000791,-0.000443,-0.009839, 0.487988,-0.281451, 0.148232,1, 0.078875,-0.001404, 0.011880,1,-0.299366, 0.177365, 9.800475,1,0
1778254550977,   416.167,   416.162, 0.101541,-0.039427,-0.995602, 0.001012,-0.000393,-0.009956, 0.661645,-0.235996, 0.025676,1, 0.053321,-0.000430, 0.012365,1,-0.299100, 0.189501, 9.800256,1,0
1778254550999,   416.187,   416.182, 0.104537,-0.041452,-0.985823, 0.001041,-0.000413,-0.009856, 0.711266,-0.190308, 0.099475,1, 0.020419, 0.004475, 0.017165,1,-0.299666, 0.195791, 9.800115,1,0
1778254551026,   416.212,   416.212, 0.108496,-0.034875,-0.998773, 0.001080,-0.000351,-0.009979, 0.763866,-0.147910, 0.005516,1,-0.024361, 0.001584, 0.024877,1,-0.300152, 0.193356, 9.800148,1,0
1778254551047,   416.237,   416.232, 0.121654,-0.036180,-0.986096, 0.001211,-0.000356,-0.009862, 0.849580,-0.129263, 0.076356,1,-0.046403, 0.001270, 0.028023,1,-0.300348, 0.185528, 9.800294,1,0
1778254551069,   416.257,   416.252, 0.127572,-0.029553,-0.992034, 0.001271,-0.000305,-0.009914, 0.927471,-0.157516, 0.122852,1,-0.060558, 0.000874, 0.025860,1,-0.300558, 0.174560, 9.800488,1,0
1778254551096,   416.282,   416.282, 0.129298,-0.023530,-1.004226, 0.001295,-0.000233,-0.010051, 0.966936,-0.072486,-0.047341,1,-0.064396, 0.001239, 0.025248,1,-0.301080, 0.156315, 9.800780,1,0
1778254551117,   416.307,   416.302, 0.125230,-0.018621,-0.993638, 0.001262,-0.000194,-0.009944, 0.943574,-0.072313, 0.005831,1,-0.060887,-0.000024, 0.025364,1,-0.301102, 0.144170, 9.800966,1,0
1778254551139,   416.327,   416.322, 0.121588,-0.015205,-0.991399, 0.001221,-0.000151,-0.009909, 0.919009,-0.007040, 0.091455,1,-0.057691,-0.002423, 0.024528,1,-0.300750, 0.132823, 9.801137,1,0
1778254551166,   416.352,   416.352, 0.108824,-0.026017,-1.008405, 0.001090,-0.000265,-0.010070, 0.767663,-0.136905,-0.087710,1,-0.055808,-0.006540, 0.024252,1,-0.299323, 0.116519, 9.801389,1,0
1778254551188,   416.377,   416.372, 0.105512,-0.010460,-0.985611, 0.001056,-0.000107,-0.009889, 0.732514,-0.015984,-0.028848,1,-0.058015,-0.006506, 0.025525,1,-0.297829, 0.105440, 9.801559,1,0
1778254551210,   416.397,   416.397, 0.106287,-0.005702,-0.977372, 0.001064,-0.000070,-0.009766, 0.745279, 0.033023, 0.217000,1,-0.065892,-0.000857, 0.026065,1,-0.297011, 0.086908, 9.801766,1,0
1778254551236,   416.422,   416.422, 0.112897, 0.006158,-1.002800, 0.001117, 0.000077,-0.010015, 0.809853, 0.136204,-0.032259,1,-0.068959, 0.002773, 0.030720,1,-0.297369, 0.073695, 9.801864,1,0
1778254551258,   416.447,   416.442, 0.108385,-0.020028,-0.986079, 0.001103,-0.000208,-0.009874, 0.806918,-0.124862, 0.074198,1,-0.065650, 0.003275, 0.033801,1,-0.298009, 0.060752, 9.801932,1,0
1778254551280,   416.467,   416.467, 0.101024,-0.001700,-0.979645, 0.001012,-0.000022,-0.009798, 0.692132, 0.027691, 0.194971,1,-0.063014, 0.000486, 0.034146,1,-0.298585, 0.042427, 9.802011,1,0
1778254551306,   416.492,   416.492, 0.089544, 0.000699,-0.997274, 0.000903, 0.000003,-0.009965, 0.579599, 0.039109, 0.022130,1,-0.069159,-0.000593, 0.036615,1,-0.298511, 0.030134, 9.802059,1,0
1778254551328,   416.517,   416.512, 0.082785,-0.005904,-0.998491, 0.000836,-0.000062,-0.009974, 0.509227,-0.013140, 0.088745,1,-0.071992,-0.000159, 0.034911,1,-0.298494, 0.016471, 9.802093,1,0
1778254551351,   416.537,   416.537, 0.069983,-0.003911,-1.016150, 0.000722,-0.000037,-0.010170, 0.390130,-0.041103,-0.162854,1,-0.073612,-0.017728, 0.035531,1,-0.295614,-0.005015, 9.802192,1,0
1778254551376,   416.562,   416.562, 0.082894,-0.013461,-0.997624, 0.000834,-0.000128,-0.010015, 0.519869,-0.148204, 0.018907,1,-0.066966,-0.012361, 0.031830,1,-0.292660,-0.018253, 9.802265,1,0
1778254551398,   416.587,   416.582, 0.108863, 0.013525,-0.968403, 0.001083, 0.000132,-0.009664, 0.657706, 0.016233, 0.388187,1,-0.065209,-0.002588, 0.027113,1,-0.291130,-0.030597, 9.802279,1,0
1778254551421,   416.607,   416.607, 0.111016,-0.001413,-0.987230, 0.001127,-0.000005,-0.009883, 0.795071,-0.062347, 0.120718,1,-0.069168, 0.014154, 0.034090,1,-0.294069,-0.050615, 9.802110,1,0
1778254551446,   416.632,   416.632, 0.110285,-0.011903,-0.986888, 0.001101,-0.000130,-0.009887, 0.785208,-0.178342, 0.123911,1,-0.063617, 0.008723, 0.029593,1,-0.296598,-0.063573, 9.801957,1,0
1778254551468,   416.657,   416.652, 0.123552,-0.004331,-1.011000, 0.001220,-0.000040,-0.010129, 0.814074,-0.074345, 0.059325,1,-0.060046,-0.005679, 0.023687,1,-0.296187,-0.075411, 9.801887,1,0
1778254551491,   416.677,   416.677, 0.140094,-0.005926,-1.004345, 0.001397,-0.000081,-0.010061, 1.081193,-0.145832,-0.047374,1,-0.042065,-0.016665, 0.011943,1,-0.292150,-0.088915, 9.801894,1,0
1778254551516,   416.702,   416.702, 0.156898, 0.009055,-0.969461, 0.001558, 0.000100,-0.009718, 1.247785,-0.006015, 0.294716,1,-0.031407,-0.000824, 0.007466,1,-0.290834,-0.095790, 9.801868,1,0
1778254551538,   416.727,   416.722, 0.172667, 0.004033,-1.013374, 0.001720, 0.000062,-0.010116, 1.440249,-0.045775,-0.042100,1,-0.026922, 0.020123, 0.004995,1,-0.293669,-0.101337, 9.801728,1,0
1778254551561,   416.752,   416.747, 0.166381,-0.004985,-0.973001, 0.001671,-0.000048,-0.009815, 1.331326,-0.154509, 0.259596,1,-0.007257, 0.019433, 0.003441,1,-0.300922,-0.105848, 9.801460,1,0
1778254551587,   416.772,   416.772, 0.166366, 0.000234,-0.958263, 0.001621,-0.000017,-0.009518, 1.330113,-0.103309, 0.404098,1, 0.004029,-0.005863,-0.005955,1,-0.301199,-0.105484, 9.801455,1,0
1778254551608,   416.797,   416.792, 0.179242, 0.011621,-1.006398, 0.001803, 0.000072,-0.010097, 1.528854,-0.029345,-0.148513,1, 0.017456,-0.024374,-0.011722,1,-0.297474,-0.102329, 9.801603,1,0
1778254551631,   416.822,   416.817, 0.194888, 0.017038,-0.983566, 0.001901, 0.000160,-0.009812, 1.617120, 0.071187, 0.156282,1, 0.027139, 0.000586,-0.009682,1,-0.294095,-0.095062, 9.801778,1,0
1778254551657,   416.842,   416.842, 0.192093,-0.008012,-1.015662, 0.001922,-0.000066,-0.010129, 1.587794,-0.168679,-0.158474,1, 0.029470, 0.018216,-0.007365,1,-0.296563,-0.089198, 9.801759,1,0
1778254551678,   416.867,   416.862, 0.151290, 0.001707,-1.013460, 0.001514,-0.000004,-0.010086, 1.214155,-0.067939, 0.112119,1, 0.027548, 0.014763,-0.007688,1,-0.300261,-0.083221, 9.801699,1,0
1778254551701,   416.892,   416.887, 0.115732, 0.011754,-1.043683, 0.001185, 0.000059,-0.010473, 0.837802, 0.040418,-0.433173,1, 0.028830,-0.017233,-0.001155,1,-0.296602,-0.073939, 9.801885,1,0
1778254551727,   416.912,   416.912, 0.144665,-0.013977,-0.986672, 0.001438,-0.000053,-0.009922, 1.122675,-0.205862, 0.125996,1, 0.036655,-0.001278,-0.003366,1,-0.295960,-0.067655, 9.801950,1,0
1778254551748,   416.937,   416.932, 0.073324, 0.008195,-0.921547, 0.000754, 0.000055,-0.009225, 0.623555,-0.179933, 0.716237,1, 0.019840,-0.002969,-0.009513,1,-0.295409,-0.062654, 9.801999,1,0
1778254551771,   416.962,   416.957, 0.052666, 0.024016,-0.989094, 0.000563, 0.000194,-0.009918, 0.229026, 0.180830, 0.102586,1, 0.033710,-0.031166,-0.007764,1,-0.286477,-0.053644, 9.802318,1,0
1778254551797,   416.982,   416.982, 0.107992,-0.013452,-1.113106, 0.001070,-0.000069,-0.011059, 0.772682,-0.180288,-1.113490,1, 0.033567, 0.010389, 0.004373,1,-0.286684,-0.047322, 9.802344,1,0
1778254551818,   417.007,   417.002, 0.079790, 0.047380,-0.905892, 0.000853, 0.000370,-0.009253, 0.649856,-0.084403,-0.034764,1, 0.035530, 0.037947, 0.001788,1,-0.292578,-0.040534, 9.802200,1,0
1778254551841,   417.032,   417.027, 0.078969, 0.016444,-0.880665, 0.000731, 0.000154,-0.008750, 0.479081, 0.134447, 1.165791,1, 0.061333, 0.005424,-0.005120,1,-0.295506,-0.024908, 9.802165,1,0
1778254551867,   417.052,   417.052, 0.177624, 0.005412,-0.996591, 0.001754, 0.000055,-0.009872, 1.441807, 0.040681, 0.028828,1, 0.089004, 0.037357, 0.000847,1,-0.301254,-0.009611, 9.802017,1,0
1778254551888,   417.077,   417.072, 0.169642, 0.019939,-1.011091, 0.001749, 0.000233,-0.010137, 1.460445, 0.094579,-0.360237,1, 0.108387, 0.056683,-0.013940,1,-0.311053, 0.010295, 9.801710,1,0
1778254551915,   417.102,   417.102, 0.129828, 0.003521,-0.980899, 0.001304, 0.000046,-0.009767, 0.952481, 0.081391, 0.181961,1, 0.165781, 0.018637,-0.009953,1,-0.321284, 0.052021, 9.801248,1,0
1778254551937,   417.122,   417.122, 0.143330,-0.000670,-1.090070, 0.001375, 0.000052,-0.010852, 1.079624, 0.078898,-0.889081,1, 0.225975, 0.030164,-0.016132,1,-0.326912, 0.092503, 9.800763,1,0
1778254551959,   417.147,   417.142, 0.074193, 0.016460,-0.936705, 0.000814, 0.000177,-0.009224, 0.643869, 0.149336, 0.730803,1, 0.271773, 0.049499,-0.032509,1,-0.335083, 0.144464, 9.799859,1,0
1778254551986,   417.172,   417.172,-0.031500,-0.004406,-1.054870,-0.000351,-0.000038,-0.010381,-0.645458, 0.178307,-0.546381,1, 0.307773, 0.012707,-0.031599,1,-0.336966, 0.231079, 9.798135,1,0
1778254552007,   417.197,   417.192,-0.044965,-0.051380,-0.987984,-0.000536,-0.000514,-0.009766,-0.789053,-0.101645,-0.497307,1, 0.311733, 0.018622,-0.028477,1,-0.340447, 0.291786, 9.796394,1,0
1778254552029,   417.217,   417.212,-0.107056, 0.001005,-0.905079,-0.001062,-0.000051,-0.009028,-1.104284, 0.207301, 0.801248,1, 0.309040,-0.028716,-0.015915,1,-0.340886, 0.352829, 9.794371,1,0
1778254552056,   417.242,   417.242,-0.067052,-0.073366,-1.077092,-0.000680,-0.000625,-0.010679,-0.996543,-0.293966,-0.771122,1, 0.259145, 0.007618,-0.006248,1,-0.339238, 0.433576, 9.791185,1,0
1778254552077,   417.267,   417.262,-0.089689,-0.032857,-0.976440,-0.000825,-0.000305,-0.009898,-1.166032, 0.032607,-0.467888,1, 0.201515, 0.020508, 0.014706,1,-0.342060, 0.475903, 9.789122,1,0
1778254552099,   417.287,   417.282,-0.078771,-0.069337,-0.964823,-0.000892,-0.000604,-0.009547,-1.455112, 0.107902, 0.802405,1, 0.128438,-0.023755, 0.033021,1,-0.338320, 0.505166, 9.787785,1,0
1778254552126,   417.312,   417.312,-0.048072,-0.061680,-1.056486,-0.000452,-0.000708,-0.010520,-0.806998,-0.075508,-0.573994,1, 0.057412, 0.001746, 0.039118,1,-0.335559, 0.531193, 9.786502,1,0
1778254552147,   417.337,   417.332,-0.000599,-0.003022,-0.922506, 0.000025,-0.000006,-0.009388,-0.343919, 0.615107,-0.076459,1, 0.015883, 0.006861, 0.066817,1,-0.337687, 0.536735, 9.786126,1,0
1778254552169,   417.357,   417.352, 0.030787,-0.063402,-0.938099, 0.000282,-0.000623,-0.009305,-0.216979, 0.195668, 1.016624,1,-0.007131, 0.003049, 0.079437,1,-0.336341, 0.536041, 9.786211,1,0
1778254552196,   417.382,   417.382, 0.026582,-0.022915,-1.077595, 0.000263,-0.000238,-0.010602,-0.075399, 0.308764,-0.781243,1,-0.032100, 0.006704, 0.091476,1,-0.336133, 0.532583, 9.786407,1,0
1778254552217,   417.407,   417.402, 0.026940,-0.016839,-0.920347, 0.000239,-0.000172,-0.009241,-0.075504, 0.560763,-0.227552,1,-0.032704, 0.000034, 0.119222,1,-0.336713, 0.526704, 9.786705,1,0
1778254552239,   417.427,   417.422, 0.033151,-0.051405,-0.956006, 0.000389,-0.000506,-0.009385,-0.064279, 0.014662, 1.271634,1,-0.013799, 0.000975, 0.111628,1,-0.335911, 0.523251, 9.786918,1,0
1778254552266,   417.452,   417.452, 0.021869,-0.033002,-1.090367, 0.000186,-0.000295,-0.010908,-0.117799, 0.199365,-0.905788,1, 0.010483, 0.009566, 0.105515,1,-0.332380, 0.523440, 9.787028,1,0
1778254552287,   417.477,   417.472, 0.034898,-0.033123,-0.933624, 0.000290,-0.000236,-0.009436,-0.120975, 0.552345,-0.296454,1, 0.024215,-0.005624, 0.115475,1,-0.330831, 0.528871, 9.786789,1,0
1778254552309,   417.497,   417.492, 0.017377,-0.078802,-0.911233, 0.000252,-0.000804,-0.009074, 0.044640,-0.133324, 1.070470,1, 0.051179,-0.004591, 0.104977,1,-0.329739, 0.538190, 9.786318,1,0
1778254552336,   417.522,   417.522, 0.012756,-0.101645,-1.069889, 0.000162,-0.000975,-0.010603,-0.200625,-0.444540,-0.706360,1, 0.043752, 0.005048, 0.101250,1,-0.325699, 0.553727, 9.785586,1,0
1778254552358,   417.547,   417.542, 0.012027,-0.055774,-0.931173, 0.000013,-0.000472,-0.009346,-0.405485, 0.066388,-0.477477,1, 0.003856, 0.008397, 0.109243,1,-0.324323, 0.557653, 9.785409,1,0
1778254552379,   417.567,   417.562,-0.016788,-0.083081,-0.897642,-0.000132,-0.000858,-0.008880,-0.297781,-0.149108, 1.487750,1,-0.013131,-0.005757, 0.098943,1,-0.324742, 0.557451, 9.785406,1,0
1778254552406,   417.592,   417.592, 0.009526,-0.112948,-1.124797, 0.000097,-0.001210,-0.011210,-0.228177,-0.562842,-1.244267,1,-0.067852, 0.000830, 0.081376,1,-0.321483, 0.542771, 9.786339,1,0
1778254552428,   417.617,   417.612, 0.054012,-0.053073,-0.913817, 0.000532,-0.000428,-0.009337, 0.020727, 0.177509,-0.557486,1,-0.121458, 0.027138, 0.103915,1,-0.322395, 0.522840, 9.787395,1,0
1778254552450,   417.637,   417.637, 0.032823,-0.129222,-0.875029, 0.000285,-0.001265,-0.008538,-0.004610,-0.784152, 1.208200,1,-0.187183, 0.005361, 0.106293,1,-0.326495, 0.477362, 9.789581,1,0
1778254552476,   417.662,   417.662, 0.041912,-0.131337,-1.100048, 0.000399,-0.001404,-0.010973, 0.082157,-0.844494,-0.996692,1,-0.217287, 0.016797, 0.079914,1,-0.329274, 0.436799, 9.791383,1,0
1778254552498,   417.687,   417.682, 0.016500,-0.028101,-1.028182, 0.000274,-0.000181,-0.010426,-0.305770, 0.169720,-0.964536,1,-0.251543, 0.034293, 0.082760,1,-0.332013, 0.390148, 9.793260,1,0
1778254552520,   417.707,   417.707,-0.052134,-0.110196,-0.835069,-0.000497,-0.001016,-0.008254,-0.852593,-0.758201, 1.606168,1,-0.256497, 0.012194, 0.069291,1,-0.341642, 0.314533, 9.795649,1,0
1778254552546,   417.732,   417.732,-0.034232,-0.092273,-1.117049,-0.000378,-0.001051,-0.011150,-0.681398,-0.632320,-1.157750,1,-0.241876, 0.022605, 0.026184,1,-0.346382, 0.265052, 9.796946,1,0
1778254552568,   417.757,   417.752, 0.015129,-0.058636,-0.967330, 0.000122,-0.000593,-0.009830,-0.381547,-0.201991,-0.918894,1,-0.218414, 0.039989, 0.009722,1,-0.351085, 0.220944, 9.797873,1,0
1778254552591,   417.777,   417.777,-0.015737,-0.068870,-0.852714,-0.000171,-0.000656,-0.008375,-0.512014,-0.503347, 1.436348,1,-0.163049, 0.001495,-0.024485,1,-0.357744, 0.166922, 9.798701,1,0
1778254552616,   417.802,   417.802,-0.028403,-0.036689,-1.035528,-0.000253,-0.000377,-0.010380,-0.638399,-0.217322,-0.356057,1,-0.132712, 0.008990,-0.058981,1,-0.360167, 0.138267, 9.799058,1,0
1778254552638,   417.827,   417.822,-0.030651,-0.082279,-1.056486,-0.000305,-0.000684,-0.010568,-0.862600,-0.068058,-0.481678,1,-0.123154, 0.015785,-0.058974,1,-0.361179, 0.114792, 9.799324,1,0
1778254552661,   417.847,   417.847,-0.019270,-0.044607,-0.923239,-0.000145,-0.000588,-0.009406,-0.557268,-0.348685, 0.745450,1,-0.086607, 0.007131,-0.094582,1,-0.368547, 0.085952, 9.799345,1,0
1778254552686,   417.872,   417.872,-0.030461, 0.029673,-0.989948,-0.000282, 0.000292,-0.009767,-0.668838, 0.363350, 0.091322,1,-0.079739, 0.006906,-0.108433,1,-0.370357, 0.069745, 9.799406,1,0
1778254552708,   417.897,   417.892,-0.050829,-0.021392,-1.049371,-0.000532,-0.000200,-0.010570,-1.038254,-0.009503,-0.633977,1,-0.065179,-0.003690,-0.098502,1,-0.369788, 0.054834, 9.799522,1,0
1778254552731,   417.917,   417.917,-0.027191,-0.051519,-0.965439,-0.000278,-0.000468,-0.009642,-0.640003,-0.462122, 0.331725,1,-0.018415, 0.003820,-0.112965,1,-0.373485, 0.042398, 9.799443,1,0
1778254552756,   417.942,   417.942,-0.026419, 0.009643,-0.976223,-0.000292, 0.000033,-0.009703,-0.631507, 0.137007, 0.226005,1, 0.013063,-0.002931,-0.132989,1,-0.372355, 0.042692, 9.799485,1,0
1778254552778,   417.967,   417.962,-0.032838, 0.031766,-1.070437,-0.000312, 0.000347,-0.010662,-0.521610, 0.477375,-0.392966,1, 0.051711,-0.025054,-0.129974,1,-0.370006, 0.049901, 9.799541,1,0
1778254552801,   417.992,   417.987,-0.012871, 0.028695,-1.060827,-0.000181, 0.000281,-0.010704,-0.487879, 0.356282,-0.603470,1, 0.139986,-0.023607,-0.141403,1,-0.360957, 0.079085, 9.799685,1,0
1778254552827,   418.012,   418.012, 0.063850, 0.010953,-0.898718, 0.000619, 0.000163,-0.009056, 0.270183, 0.214958, 0.986182,1, 0.201994,-0.034343,-0.148424,1,-0.354947, 0.113678, 9.799565,1,0
1778254552848,   418.037,   418.032, 0.162094,-0.022954,-0.953271, 0.001603,-0.000254,-0.009402, 1.035490,-0.202750, 0.898301,1, 0.227953,-0.003446,-0.159213,1,-0.353302, 0.155576, 9.799048,1,0
1778254552871,   418.062,   418.057, 0.103952,-0.002188,-1.062801, 0.001091,-0.000016,-0.010563, 0.667526, 0.191326,-0.624495,1, 0.208064,-0.003719,-0.117355,1,-0.351856, 0.219135, 9.797886,1,0
1778254552897,   418.082,   418.082, 0.051901, 0.002513,-1.043088, 0.000462, 0.000010,-0.010486, 0.157072, 0.274998,-0.432064,1, 0.175931,-0.003661,-0.101276,1,-0.351839, 0.255644, 9.797002,1,0
1778254552918,   418.107,   418.102, 0.127623,-0.053634,-0.889445, 0.001298,-0.000596,-0.008843, 0.654031,-0.173910, 0.887969,1, 0.120757, 0.008243,-0.089306,1,-0.351526, 0.282931, 9.796263,1,0
1778254552941,   418.132,   418.127, 0.028900, 0.000684,-1.004916, 0.000421,-0.000003,-0.009841,-0.076908, 0.299722,-0.059217,1,-0.023151, 0.009923,-0.048860,1,-0.360671, 0.292237, 9.795657,1,0
1778254552967,   418.152,   418.152,-0.057530,-0.026873,-1.162703,-0.000607,-0.000227,-0.011630,-0.924192, 0.015922,-1.606174,1,-0.096308, 0.003178,-0.017258,1,-0.360127, 0.276436, 9.796136,1,0
1778254552988,   418.177,   418.172, 0.023643,-0.017199,-0.968504, 0.000133,-0.000271,-0.009588,-0.590626,-0.041545,-0.061040,1,-0.128971,-0.020897,-0.011889,1,-0.359053, 0.253050, 9.796807,1,0
1778254553011,   418.202,   418.197, 0.079769, 0.012213,-0.993266, 0.000786, 0.000154,-0.009908, 0.423206, 0.327381, 0.057258,1,-0.197572, 0.004798, 0.030599,1,-0.359193, 0.201483, 9.797998,1,0
1778254553037,   418.222,   418.222, 0.096824,-0.002097,-0.919229, 0.000869, 0.000006,-0.009228, 0.594459, 0.147085, 0.784225,1,-0.207827,-0.016198, 0.039111,1,-0.354529, 0.161213, 9.798913,1,0
1778254553058,   418.247,   418.242, 0.138657,-0.003953,-1.143049, 0.001428,-0.000091,-0.011243, 1.222355,-0.213292, 0.212798,1,-0.181230,-0.016077, 0.017329,1,-0.352794, 0.125216, 9.799502,1,0
1778254553081,   418.272,   418.267, 0.176150,-0.016266,-1.153831, 0.001583,-0.000206,-0.011646, 1.380210,-0.079970,-1.515046,1,-0.157360, 0.000828, 0.025703,1,-0.347248, 0.074661, 9.800216,1,0
1778254553107,   418.292,   418.292, 0.189947, 0.010178,-0.881655, 0.001977, 0.000058,-0.008993, 1.519532, 0.152822, 1.154413,1,-0.126928,-0.045031, 0.021758,1,-0.341809, 0.049072, 9.800569,1,0
1778254553128,   418.317,   418.312, 0.267155,-0.045065,-0.875621, 0.002608,-0.000441,-0.008658, 1.789126,-0.207126, 1.815079,1,-0.109174,-0.044373,-0.005807,1,-0.332798, 0.026809, 9.800964,1,0
1778254553155,   418.342,   418.342, 0.270108,-0.039498,-1.078424, 0.002722,-0.000432,-0.010758, 2.319419,-0.385888,-0.774608,1,-0.070514, 0.010541,-0.018656,1,-0.329761,-0.000761, 9.801105,1,0
1778254553177,   418.362,   418.362, 0.192880, 0.034176,-0.975895, 0.001965, 0.000207,-0.009961, 1.557674, 0.326816, 0.230701,1,-0.030473, 0.031719,-0.030790,1,-0.334824,-0.009319, 9.800928,1,0
1778254553199,   418.387,   418.382, 0.139042,-0.021150,-0.996619, 0.001477,-0.000197,-0.009986, 1.215364, 0.040409, 0.460358,1, 0.017393,-0.012674,-0.033861,1,-0.336112,-0.008040, 9.800885,1,0
1778254553226,   418.412,   418.412, 0.205771,-0.055222,-1.102592, 0.002111,-0.000633,-0.011191, 1.685977,-0.533632,-1.011708,1, 0.101110,-0.010419,-0.066488,1,-0.331625, 0.010997, 9.801035,1,0
1778254553247,   418.437,   418.432, 0.208175, 0.028541,-0.861487, 0.002153, 0.000232,-0.008519, 1.689689, 0.126264, 1.466536,1, 0.126627, 0.007927,-0.079821,1,-0.332229, 0.034019, 9.800961,1,0
1778254553269,   418.457,   418.452, 0.196604,-0.027194,-1.135977, 0.001898,-0.000144,-0.011133, 1.416486, 0.357882, 0.205588,1, 0.108532,-0.006047,-0.063220,1,-0.330992, 0.054928, 9.800909,1,0
1778254553296,   418.482,   418.482, 0.192630,-0.087393,-0.980112, 0.001859,-0.000789,-0.009885, 1.557670,-0.770314, 0.189049,1, 0.139201,-0.002515,-0.093214,1,-0.331338, 0.091051, 9.800628,1,0
1778254553317,   418.507,   418.502, 0.200522,-0.007862,-1.034160, 0.001897, 0.000128,-0.009902, 1.493679, 0.508812, 1.588898,1, 0.092879,-0.030740,-0.068378,1,-0.326488, 0.113000, 9.800562,1,0
1778254553339,   418.527,   418.522, 0.178969,-0.110374,-1.074194, 0.001797,-0.001138,-0.010859, 1.624706,-0.655860,-1.126955,1, 0.081721,-0.004600,-0.058311,1,-0.323857, 0.127683, 9.800469,1,0
1778254553366,   418.552,   418.552, 0.125384, 0.000159,-0.907110, 0.001351,-0.000078,-0.009074, 0.898032, 0.144145, 0.904296,1, 0.031614, 0.024553,-0.050025,1,-0.332357, 0.143519, 9.799966,1,0
1778254553387,   418.577,   418.572, 0.141595,-0.052896,-0.973749, 0.001485,-0.000634,-0.010157, 1.005738,-0.346707,-0.394244,1, 0.004451, 0.027466,-0.018831,1,-0.337587, 0.144447, 9.799773,1,0
1778254553409,   418.597,   418.592, 0.185804, 0.001039,-0.812175, 0.001864, 0.000100,-0.007923, 1.597961,-0.165360, 0.764998,1,-0.014489, 0.031139,-0.045333,1,-0.344854, 0.142290, 9.799552,1,0
1778254553436,   418.622,   418.622, 0.209531,-0.049221,-1.064057, 0.002114,-0.000256,-0.010545, 1.699135,-0.345696,-0.635595,1,-0.026188, 0.053918,-0.031377,1,-0.357353, 0.136142, 9.799191,1,0
1778254553457,   418.647,   418.642, 0.103910,-0.027360,-0.889571, 0.000974,-0.000304,-0.008491, 1.314813,-0.443505, 0.339645,1, 0.009271, 0.055627,-0.046170,1,-0.370579, 0.135162, 9.798714,1,0
1778254553479,   418.667,   418.662, 0.092236,-0.006752,-1.103143, 0.001038, 0.000097,-0.010922, 0.902266, 0.296543,-1.283499,1, 0.041228, 0.024642,-0.062209,1,-0.380051, 0.142182, 9.798251,1,0
1778254553506,   418.692,   418.692, 0.087083,-0.032328,-0.906623, 0.000958,-0.000238,-0.009292, 0.465899,-0.149939, 0.906603,1, 0.138630, 0.020300,-0.089830,1,-0.388771, 0.171302, 9.797443,1,0
1778254553527,   418.717,   418.712, 0.246008,-0.094086,-0.993741, 0.002234,-0.000845,-0.009886, 1.491599,-0.639216,-0.010306,1, 0.171436, 0.028413,-0.091515,1,-0.391888, 0.200388, 9.796767,1,0
1778254553549,   418.737,   418.732, 0.188592,-0.060844,-1.050526, 0.001698,-0.000709,-0.010064, 1.081469,-0.511301, 1.817407,1, 0.234196,-0.005021,-0.108964,1,-0.395183, 0.240776, 9.795726,1,0
1778254553576,   418.762,   418.762, 0.200482,-0.088220,-1.189233, 0.002084,-0.001127,-0.012596, 1.574274,-0.562580,-1.868248,1, 0.262820,-0.008958,-0.140672,1,-0.391635, 0.310581, 9.793903,1,0
1778254553598,   418.787,   418.782, 0.212729,-0.084566,-0.959067, 0.001966,-0.000586,-0.009105, 1.476074, 0.123594, 0.888933,1, 0.264487,-0.039082,-0.154065,1,-0.389993, 0.363052, 9.792165,1,0
1778254553619,   418.807,   418.802, 0.166476,-0.115395,-1.014004, 0.001459,-0.001352,-0.009688, 1.552377,-0.508421, 0.153765,1, 0.258808,-0.014742,-0.138925,1,-0.389792, 0.410207, 9.790310,1,0
1778254553646,   418.832,   418.832, 0.180273,-0.092531,-1.172435, 0.001619,-0.000845,-0.011485, 1.379909,-0.444894,-1.709607,1, 0.175383, 0.002673,-0.129726,1,-0.388244, 0.467826, 9.787787,1,0
1778254553668,   418.857,   418.852, 0.099360,-0.073712,-0.988073, 0.000635,-0.000610,-0.009305, 0.572073, 0.331151, 0.943594,1, 0.114724,-0.030768,-0.121048,1,-0.387483, 0.494674, 9.786498,1,0
1778254553690,   418.877,   418.877, 0.111929,-0.060882,-0.979685, 0.000802,-0.000778,-0.009387, 0.706095,-0.087664, 0.178157,1,-0.000243, 0.001690,-0.092084,1,-0.391760, 0.509286, 9.785578,1,0
1778254553716,   418.902,   418.902, 0.074723,-0.054712,-1.133801, 0.000764,-0.000579,-0.011369, 0.339859,-0.030295,-1.333101,1,-0.033178, 0.014181,-0.056422,1,-0.393456, 0.505144, 9.785725,1,0
1778254553738,   418.927,   418.922, 0.072766,-0.029893,-1.077599, 0.000395,-0.000412,-0.010241,-0.294856, 0.508979, 0.983389,1,-0.045000,-0.017387,-0.038181,1,-0.394145, 0.495975, 9.786166,1,0
1778254553761,   418.947,   418.947, 0.097612,-0.008114,-0.914293, 0.000971, 0.000005,-0.009288, 0.558784, 0.396826, 0.820814,1,-0.059704, 0.009603,-0.037538,1,-0.398817, 0.474492, 9.787042,1,0
1778254553786,   418.972,   418.972, 0.114285,-0.046709,-1.048527, 0.001380,-0.000548,-0.010800, 0.715303, 0.003999,-0.495174,1,-0.063668, 0.033973,-0.014364,1,-0.406525, 0.460051, 9.787415,1,0
1778254553808,   418.997,   418.992, 0.097171,-0.020417,-1.062782, 0.000904,-0.000351,-0.010449, 0.091779, 0.167714, 1.611534,1,-0.025194, 0.007049, 0.001326,1,-0.409938, 0.450619, 9.787710,1,0
1778254553831,   419.017,   419.017, 0.054424,-0.005697,-0.978883, 0.000730, 0.000004,-0.010420, 0.119106, 0.387157, 0.188296,1, 0.033881, 0.010452,-0.014573,1,-0.414962, 0.444066, 9.787798,1,0
1778254553856,   419.042,   419.042, 0.023748,-0.038272,-0.948362, 0.000418,-0.000389,-0.009706,-0.184540, 0.074094, 0.487197,1, 0.062311, 0.005888,-0.021717,1,-0.417645, 0.451322, 9.787353,1,0
1778254553878,   419.067,   419.062, 0.054984,-0.050976,-0.850247, 0.000895,-0.000408,-0.009057, 0.293284,-0.082917, 0.688106,1, 0.093499, 0.010284,-0.032009,1,-0.418364, 0.467516, 9.786561,1,0
1778254553901,   419.087,   419.087, 0.083154,-0.069143,-0.970197, 0.000903,-0.000636,-0.009695, 0.403164,-0.174434, 0.270645,1, 0.169386,-0.022561,-0.052327,1,-0.411681, 0.508831, 9.784783,1,0
1778254553926,   419.112,   419.112, 0.165271,-0.082849,-1.054864, 0.001347,-0.000800,-0.009894, 1.212532,-0.275612,-0.561257,1, 0.156870,-0.013898,-0.050717,1,-0.407878, 0.541679, 9.783179,1,0
1778254553948,   419.137,   419.132, 0.090406,-0.049249,-0.928783, 0.001028,-0.000465,-0.009124, 1.239329, 0.048345,-0.478600,1, 0.189553, 0.004468,-0.061388,1,-0.408614, 0.577561, 9.781096,1,0
1778254553971,   419.157,   419.157, 0.117334,-0.057241,-1.101445, 0.000933,-0.000736,-0.010737, 0.751782, 0.060771,-1.022718,1, 0.139598,-0.042877,-0.049203,1,-0.397633, 0.626393, 9.778543,1,0
1778254553996,   419.182,   419.182, 0.142162,-0.047699,-0.941934, 0.001480,-0.000258,-0.009570, 1.004031, 0.181729, 0.540121,1, 0.125137,-0.049480,-0.030626,1,-0.388621, 0.653353, 9.777142,1,0
1778254554018,   419.202,   419.202, 0.126821,-0.022859,-0.957012, 0.001453,-0.000320,-0.009811, 0.861707, 0.440988, 0.391524,1, 0.038242,-0.052625, 0.012029,1,-0.380322, 0.666363, 9.776589,1,0
1778254554041,   419.232,   419.227, 0.156965,-0.028100,-1.030128, 0.001582,-0.000143,-0.010334, 1.171199, 0.379046,-0.324259,1,-0.073415,-0.014165, 0.080897,1,-0.367492, 0.652422, 9.778020,1,0
1778254554067,   419.252,   419.252, 0.192662,-0.008416,-0.996734, 0.001599,-0.000136,-0.009472, 1.491243, 1.323317, 0.466442,1,-0.129411,-0.029861, 0.101904,1,-0.364086, 0.638999, 9.779034,1,0
1778254554088,   419.277,   419.272, 0.109325, 0.002025,-0.997986, 0.000833, 0.000066,-0.009356, 0.843023, 1.584796, 0.126512,1,-0.222027,-0.025579, 0.184498,1,-0.355481, 0.581613, 9.782931,1,0
1778254554111,   419.302,   419.297, 0.015794, 0.137551,-0.950155, 0.000452, 0.001202,-0.010539,-0.194183, 1.870513, 0.468706,1,-0.213483,-0.014910, 0.216620,1,-0.348244, 0.515190, 9.786914,1,0
1778254554137,   419.322,   419.322,-0.010833,-0.006595,-0.997477,-0.000155, 0.000152,-0.009051,-0.454630, 0.417178, 0.006698,1,-0.210253, 0.009838, 0.231666,1,-0.348344, 0.475557, 9.788917,1,0
1778254554158,   419.347,   419.342,-0.092366,-0.082474,-1.174570,-0.001189,-0.000565,-0.010498,-0.525811, 1.127027,-0.613545,1,-0.243757,-0.016900, 0.272197,1,-0.343352, 0.435747, 9.790946,1,0
1778254554181,   419.372,   419.367,-0.119906, 0.092418,-0.997266,-0.001013, 0.000156,-0.011265,-1.513023, 1.301332, 0.013047,1,-0.178499,-0.026891, 0.246445,1,-0.335999, 0.389718, 9.793141,1,0
1778254554207,   419.392,   419.392,-0.193258,-0.065840,-0.857611,-0.001643,-0.000260,-0.008627,-2.229414,-0.272049, 1.383539,1,-0.051300, 0.020708, 0.210765,1,-0.334595, 0.372242, 9.793869,1,0
1778254554228,   419.417,   419.412,-0.304991,-0.114157,-0.912168,-0.002483,-0.000973,-0.009930,-2.195501,-0.699234, 0.948388,1,-0.087692, 0.001486, 0.203191,1,-0.335951, 0.355381, 9.794449,1,0
1778254554251,   419.442,   419.437,-0.303122,-0.076494,-1.000240,-0.003021,-0.000389,-0.010060,-3.303644,-0.405047,-0.014024,1, 0.000851, 0.006688, 0.147523,1,-0.331078, 0.345282, 9.794976,1,0
1778254554277,   419.462,   419.462,-0.234897,-0.112994,-1.018597,-0.002971,-0.001250,-0.008829,-2.631330,-0.768062,-0.193751,1,-0.078452, 0.004938, 0.114474,1,-0.327812, 0.337704, 9.795350,1,0
1778254554298,   419.487,   419.482,-0.196407,-0.131323,-0.947745,-0.002228,-0.000881,-0.008647,-1.545486, 0.402006,-1.369501,1,-0.099122,-0.044131, 0.113748,1,-0.321645, 0.326867, 9.795922,1,0
1778254554321,   419.512,   419.507,-0.098122,-0.126624,-1.373286,-0.001445,-0.001548,-0.013322,-1.271187,-0.947736,-3.669972,1,-0.246445,-0.025578, 0.116031,1,-0.308027, 0.286453, 9.797625,1,0
1778254554347,   419.532,   419.532,-0.097810,-0.078847,-0.906524,-0.001007,-0.001090,-0.009323,-1.259887,-0.531836, 0.909099,1,-0.335482,-0.040687, 0.198935,1,-0.299278, 0.231112, 9.799357,1,0
1778254554368,   419.557,   419.552,-0.277816, 0.122608,-1.257023,-0.002915, 0.000993,-0.012022,-2.274367, 1.254869,-0.879341,1,-0.451747,-0.076662, 0.194177,1,-0.288300, 0.151884, 9.801234,1,0
1778254554395,   419.582,   419.582,-0.200990, 0.095811,-1.146509,-0.002062, 0.000480,-0.012285,-2.229064, 0.948337,-1.440187,1,-0.573353,-0.155562, 0.190632,1,-0.253164,-0.008984, 9.803377,1,0
1778254554417,   419.602,   419.602, 0.135774, 0.025178,-0.519410, 0.001103, 0.000493,-0.005196, 1.104265, 0.169540, 4.710028,1,-0.390267,-0.149678, 0.113976,1,-0.222583,-0.089467, 9.803716,1,0
1778254554439,   419.627,   419.622, 0.248681, 0.070739,-0.897317, 0.002421, 0.000762,-0.008633, 1.711205, 0.011844, 3.484457,1,-0.313772,-0.041476, 0.102284,1,-0.205218,-0.157146, 9.803243,1,0
1778254554466,   419.652,   419.652, 0.344417,-0.007008,-1.261243, 0.003530, 0.000001,-0.012489, 3.146934,-0.265922,-2.566619,1,-0.038315, 0.092123, 0.089082,1,-0.233577,-0.198332, 9.801862,1,0
1778254554487,   419.677,   419.672, 0.052956,-0.207363,-0.936409, 0.000813,-0.001751,-0.009823, 0.737787,-0.351973,-1.811377,1, 0.114393, 0.013421, 0.006732,1,-0.237194,-0.184353, 9.802048,1,0
1778254554509,   419.697,   419.692,-0.006472,-0.104622,-0.826532,-0.000057,-0.000898,-0.008042, 0.175468,-1.968987, 2.572645,1, 0.199583,-0.013971,-0.103520,1,-0.236956,-0.145501, 9.802707,1,0
1778254554536,   419.722,   419.722, 0.087253,-0.255620,-1.154735, 0.000797,-0.002249,-0.011497, 0.623338,-2.614571,-1.520783,1, 0.143952, 0.010887,-0.148399,1,-0.232609,-0.103410, 9.803346,1,0
1778254554557,   419.747,   419.742, 0.123488,-0.070815,-1.057373, 0.001296,-0.000570,-0.010588, 1.032356,-0.687728,-0.777978,1, 0.095948,-0.042090,-0.196044,1,-0.226738,-0.081555, 9.803689,1,0
1778254554579,   419.767,   419.762, 0.110217,-0.232420,-0.763327, 0.001160,-0.002368,-0.007710, 1.157478,-2.081892, 0.847153,1, 0.044842, 0.013981,-0.207986,1,-0.225826,-0.069872, 9.803801,1,0
1778254554606,   419.792,   419.792, 0.068633,-0.125130,-0.920123, 0.000699,-0.001360,-0.008989, 0.441076,-1.314378, 0.780189,1,-0.134017, 0.068517,-0.241768,1,-0.234059,-0.091634, 9.803428,1,0
1778254554627,   419.817,   419.812, 0.024902, 0.008403,-1.088086, 0.000338, 0.000007,-0.011063, 0.286661,-1.340627,-1.344589,1,-0.111216, 0.105907,-0.265916,1,-0.253240,-0.115396, 9.802701,1,0
1778254554649,   419.837,   419.832,-0.118585,-0.001227,-1.037288,-0.001183, 0.000092,-0.010363,-0.957056, 0.272175,-0.796464,1,-0.039121, 0.050951,-0.268761,1,-0.266617,-0.132016, 9.802136,1,0
1778254554676,   419.862,   419.862,-0.096509, 0.050122,-0.952332,-0.000970, 0.000581,-0.009605,-1.208433, 0.374894, 0.463271,1, 0.121609,-0.043591,-0.325534,1,-0.260523,-0.113107, 9.802536,1,0
1778254554697,   419.887,   419.882, 0.019407,-0.062768,-1.019234, 0.000076,-0.000718,-0.009906,-0.269435,-1.252701,-0.247058,1, 0.148147,-0.020197,-0.325867,1,-0.256273,-0.087596, 9.802910,1,0
1778254554719,   419.907,   419.902, 0.031484,-0.030133,-1.042498, 0.000243,-0.000170,-0.010652,-0.047753,-0.173822,-0.147568,1, 0.154259,-0.021900,-0.325939,1,-0.250348,-0.059015, 9.803276,1,0
1778254554746,   419.932,   419.932, 0.030064,-0.068181,-0.979689, 0.000407,-0.000732,-0.009935, 0.160126, 0.016326, 0.567109,1, 0.182361,-0.010875,-0.335396,1,-0.245605,-0.008912, 9.803570,1,0
1778254554767,   419.957,   419.952,-0.000674,-0.051620,-0.974004, 0.000160,-0.000624,-0.009964, 0.144173,-0.127710, 0.255591,1, 0.180052, 0.022032,-0.303560,1,-0.248282, 0.025155, 9.803474,1,0
1778254554789,   419.977,   419.972,-0.046758, 0.015324,-1.090427,-0.000501, 0.000210,-0.010607,-0.451343,-0.002811,-0.208954,1, 0.134489,-0.010487,-0.289418,1,-0.248365, 0.052587, 9.803364,1,0
1778254554816,   420.002,   420.002,-0.014484, 0.023863,-0.961203,-0.000058, 0.000179,-0.009837,-0.388028, 0.318184, 0.377019,1, 0.129654,-0.045369,-0.251621,1,-0.244640, 0.088020, 9.803203,1,0
1778254554838,   420.027,   420.022, 0.075122, 0.041378,-1.016689, 0.000661, 0.000533,-0.010042,-0.355150, 0.842353, 0.165344,1, 0.112239,-0.041022,-0.213690,1,-0.234998, 0.109996, 9.803217,1,0
1778254554859,   420.047,   420.042, 0.053979, 0.039566,-0.992888, 0.000630, 0.000425,-0.009826, 0.422740, 0.225599, 0.196528,1, 0.103115,-0.041583,-0.178686,1,-0.228521, 0.129728, 9.803129,1,0
1778254554886,   420.072,   420.072, 0.115134, 0.038052,-1.105067, 0.001176, 0.000319,-0.011310, 0.903413, 0.524873,-1.034131,1, 0.078962, 0.007178,-0.127233,1,-0.225947, 0.154079, 9.802835,1,0
1778254554908,   420.097,   420.092, 0.053897, 0.067380,-0.830378, 0.000473, 0.000653,-0.008187, 0.618996, 0.397444, 1.562496,1, 0.074094,-0.016969,-0.103645,1,-0.223316, 0.168301, 9.802662,1,0
1778254554930,   420.117,   420.117, 0.063313,-0.010924,-1.051498, 0.000572,-0.000131,-0.010311, 0.399536, 0.066020,-0.509048,1,-0.012732, 0.010805,-0.046914,1,-0.221720, 0.172721, 9.802622,1,0
1778254554956,   420.142,   420.142, 0.077668, 0.041294,-1.173963, 0.000637, 0.000342,-0.011716, 0.533879, 0.571731,-1.710060,1,-0.053471, 0.045941,-0.017790,1,-0.229230, 0.165090, 9.802581,1,0
1778254554978,   420.167,   420.162,-0.001278, 0.030218,-0.853831, 0.000083, 0.000464,-0.008179, 0.233196, 1.163503, 1.423357,1,-0.054374, 0.010732, 0.038488,1,-0.233625, 0.154095, 9.802655,1,0
1778254555001,   420.187,   420.187, 0.063810, 0.081613,-1.028973, 0.000659, 0.000766,-0.010355, 0.389858, 0.935244,-0.287893,1,-0.102110, 0.006815, 0.079354,1,-0.236081, 0.131764, 9.802922,1,0
1778254555026,   420.212,   420.212, 0.027021, 0.046742,-1.058192, 0.000354, 0.000502,-0.010464, 0.027389, 0.569494,-0.574177,1,-0.143210, 0.020776, 0.129001,1,-0.238201, 0.106740, 9.803176,1,0
1778254555048,   420.237,   420.232, 0.023626, 0.135182,-0.867524, 0.000287, 0.001472,-0.008826, 0.258273, 1.489433, 0.068129,1,-0.145661, 0.027727, 0.173276,1,-0.243776, 0.078771, 9.803303,1,0
1778254555071,   420.257,   420.257, 0.020399, 0.155883,-0.993485, 0.000219, 0.001490,-0.009966,-0.047629, 1.568223, 0.060676,1,-0.159296, 0.003893, 0.223511,1,-0.247769, 0.034741, 9.803458,1,0
1778254555096,   420.282,   420.282, 0.038302, 0.123863,-0.965416, 0.000390, 0.001459,-0.009676, 0.126758, 1.226209, 0.335989,1,-0.127277, 0.015076, 0.263238,1,-0.249337, 0.007753, 9.803476,1,0
1778254555118,   420.307,   420.302, 0.054370, 0.129660,-0.988058, 0.000656, 0.001324,-0.010109, 0.579954, 1.305951,-1.216118,1,-0.130989, 0.025864, 0.277346,1,-0.254697,-0.017647, 9.803326,1,0
1778254555141,   420.327,   420.322,-0.011292, 0.068488,-0.949056,-0.000104, 0.000587,-0.009369,-0.163601, 0.732168, 0.972158,1,-0.074859, 0.002731, 0.300447,1,-0.257429,-0.033462, 9.803213,1,0
1778254555166,   420.352,   420.352,-0.006166, 0.103067,-0.939100,-0.000078, 0.001046,-0.009525,-0.317335, 0.968976, 0.593769,1,-0.002022, 0.011136, 0.287245,1,-0.257257,-0.041589, 9.803187,1,0
1778254555188,   420.377,   420.372,-0.032556, 0.054769,-1.049737,-0.000294, 0.000603,-0.010780,-0.349070, 0.719479,-0.949000,1, 0.037222,-0.015100, 0.274452,1,-0.256937,-0.034715, 9.803222,1,0
1778254555211,   420.397,   420.397,-0.045043,-0.026296,-0.984507,-0.000484,-0.000206,-0.009660,-0.695680,-0.268029, 0.148637,1, 0.103408,-0.016911, 0.247394,1,-0.253439,-0.006727, 9.803372,1,0
1778254555237,   420.422,   420.422,-0.040800,-0.008157,-0.952052,-0.000366,-0.000077,-0.009669,-0.647194,-0.065539, 0.467080,1, 0.136481,-0.037301, 0.222191,1,-0.245906, 0.018886, 9.803548,1,0
1778254555258,   420.447,   420.442, 0.047891,-0.053462,-1.101185, 0.000370,-0.000479,-0.010796,-0.059828,-0.433784,-0.212743,1, 0.140539,-0.043188, 0.197464,1,-0.239083, 0.048255, 9.803617,1,0
1778254555281,   420.472,   420.467, 0.042538,-0.029696,-0.958241, 0.000451,-0.000360,-0.009708, 0.184706,-0.204723, 0.406374,1, 0.143457,-0.000319, 0.162350,1,-0.232398, 0.091096, 9.803473,1,0
1778254555307,   420.492,   420.492, 0.458476,-0.044643,-0.600215, 0.003300,-0.000610,-0.007195, 4.263834,-0.319907, 3.917089,1, 0.200110,-0.029115, 0.128918,1,-0.231320, 0.124230, 9.803134,1,0
1778254555328,   420.517,   420.512,-0.271445, 0.020869,-1.475790,-0.002196,-0.000332,-0.016046, 1.478238, 1.494357, 3.874308,1, 0.004408, 0.145343, 0.102548,1,-0.252761, 0.157316, 9.802130,1,0
1778254555351,   420.542,   420.537,-0.040850,-0.143656,-1.514549,-0.000787,-0.000750,-0.014634,-0.669983,-1.212981,-5.051664,1, 0.256290, 0.076367, 0.065546,1,-0.271725, 0.203853, 9.800765,1,0
1778254555377,   420.562,   420.562, 0.001445,-0.115263,-0.590988, 0.000278,-0.001431,-0.006854,-0.264676,-0.893649, 4.004207,1, 0.201135, 0.021146, 0.081939,1,-0.279446, 0.243039, 9.799654,1,0
1778254555398,   420.587,   420.582,-0.004286,-0.009924,-1.000633,-0.000051, 0.000199,-0.009601,-0.299045,-0.787154, 1.123914,1, 0.184048, 0.056145, 0.081380,1,-0.285571, 0.284205, 9.798370,1,0
1778254555421,   420.612,   420.607,-0.013522, 0.016367,-1.480096,-0.000287,-0.000057,-0.015526,-0.430475, 0.496593,-4.718421,1, 0.194622, 0.039939,-0.005656,1,-0.299123, 0.342155, 9.796113,1,0
1778254555447,   420.632,   420.632,-0.094900,-0.093991,-0.710622,-0.000615,-0.001033,-0.007920,-1.238224,-0.536122, 2.825414,1, 0.274555, 0.011234, 0.027635,1,-0.307893, 0.394204, 9.793885,1,0
1778254555468,   420.657,   420.652,-0.047057,-0.002202,-0.933461,-0.000325,-0.000152,-0.009709,-1.029633,-0.950347, 0.049812,1, 0.315501,-0.002033,-0.036542,1,-0.305680, 0.450812, 9.791512,1,0
1778254555491,   420.682,   420.677,-0.084230,-0.030525,-1.116266,-0.000878,-0.000123,-0.011678,-1.132882, 0.225982,-1.159075,1, 0.308402,-0.011468,-0.057900,1,-0.306643, 0.534899, 9.787249,1,0
1778254555517,   420.702,   420.702,-0.117075,-0.150804,-0.943976,-0.001079,-0.001374,-0.009576,-1.458700,-0.894546, 0.527048,1, 0.299090,-0.002592,-0.045097,1,-0.310594, 0.593602, 9.783739,1,0
1778254555538,   420.727,   420.722, 0.012111,-0.036654,-0.902296, 0.000200,-0.000395,-0.009678,-0.992970,-0.127378,-0.436677,1, 0.266952,-0.020257,-0.036288,1,-0.302964, 0.647732, 9.780544,1,0
1778254555561,   420.752,   420.747, 0.087623,-0.107807,-0.937193, 0.000912,-0.000971,-0.009130, 0.564721,-0.355505, 0.586350,1, 0.149110,-0.039563,-0.037018,1,-0.293421, 0.706327, 9.776778,1,0
1778254555587,   420.772,   420.772, 0.194787,-0.063274,-0.944989, 0.002124,-0.000674,-0.010129, 1.615036, 0.102293, 0.508343,1, 0.076091, 0.010914,-0.005436,1,-0.295524, 0.725160, 9.775336,1,0
1778254555609,   420.797,   420.792, 0.223064,-0.050848,-1.074127, 0.002272,-0.000479,-0.010752, 0.985464,-0.640327, 0.294882,1, 0.028707, 0.005593, 0.015827,1,-0.294385, 0.734035, 9.774708,1,0
1778254555635,   420.822,   420.822, 0.167113,-0.062148,-0.958763, 0.001863,-0.000498,-0.009820, 1.342343, 0.125409, 0.372331,1,-0.004035,-0.019213, 0.040218,1,-0.295788, 0.734789, 9.774609,1,0
1778254555657,   420.842,   420.842, 0.242143, 0.010971,-0.896278, 0.002572, 0.000106,-0.009640, 2.077545, 0.840018, 0.985259,1,-0.020805, 0.005385, 0.046463,1,-0.297130, 0.731825, 9.774791,1,0
1778254555679,   420.867,   420.862, 0.239369,-0.017220,-1.104716, 0.002448,-0.000428,-0.011628, 1.324954,-0.508156, 0.870164,1,-0.036166,-0.006261, 0.061778,1,-0.292873, 0.724495, 9.775465,1,0
1778254555706,   420.892,   420.892, 0.169335,-0.088716,-0.859231, 0.001894,-0.000607,-0.008886, 1.369533,-0.156932, 1.350180,1,-0.010675,-0.014571, 0.091373,1,-0.290421, 0.712839, 9.776395,1,0
1778254555727,   420.917,   420.912, 0.223936,-0.077420,-0.938137, 0.002310,-0.000305,-0.009199, 2.560660, 0.881174, 0.036723,1,-0.073881, 0.000952, 0.097504,1,-0.290207, 0.702862, 9.777123,1,0
1778254555749,   420.937,   420.932, 0.353324,-0.015177,-1.059418, 0.003526,-0.000142,-0.010744, 2.740401,-0.060661,-0.979100,1,-0.073664, 0.063239, 0.094207,1,-0.295914, 0.691490, 9.777763,1,0
1778254555776,   420.962,   420.962, 0.237067,-0.056968,-0.975700, 0.002524,-0.001142,-0.009944, 2.015581, 0.110209, 0.210572,1,-0.129837, 0.060931, 0.147274,1,-0.310834, 0.664973, 9.779140,1,0
1778254555797,   420.987,   420.982, 0.122068,-0.022200,-1.036520, 0.001547,-0.000807,-0.010972, 0.743880, 0.082996, 1.129529,1,-0.104740, 0.068000, 0.158325,1,-0.321034, 0.641474, 9.780380,1,0
1778254555819,   421.007,   421.002, 0.028462,-0.121516,-0.995893, 0.000246,-0.000425,-0.008745, 1.034564, 0.472062,-1.733199,1,-0.186770, 0.042379, 0.153233,1,-0.330430, 0.609281, 9.782125,1,0
1778254555846,   421.032,   421.032, 0.043504, 0.038632,-0.905758, 0.000796, 0.000043,-0.010216, 0.089564, 0.949329, 0.901783,1,-0.157167, 0.001176, 0.142285,1,-0.336843, 0.565735, 9.784522,1,0
1778254555867,   421.057,   421.052,-0.002428, 0.003006,-0.894424, 0.000476, 0.000180,-0.009759, 0.137592,-0.452567,-0.575598,1,-0.106952, 0.053414, 0.120641,1,-0.344173, 0.543180, 9.785544,1,0
1778254555889,   421.077,   421.072,-0.079892,-0.112563,-1.212599,-0.001036,-0.001360,-0.011608,-0.719448, 0.192267,-0.129116,1,-0.111422, 0.019939, 0.115197,1,-0.349438, 0.521580, 9.786533,1,0
1778254555916,   421.102,   421.102,-0.264325,-0.076490,-0.852860,-0.002272,-0.000494,-0.009006,-2.944255,-0.239379, 1.423313,1, 0.014824, 0.015323, 0.086879,1,-0.352452, 0.511291, 9.786968,1,0
1778254555937,   421.127,   421.122,-0.308872,-0.089263,-0.903449,-0.003190,-0.000177,-0.008001,-2.337332,-0.453988,-0.209285,1, 0.009962,-0.019477, 0.017994,1,-0.349972, 0.515921, 9.786814,1,0
1778254555959,   421.147,   421.142,-0.193319,-0.065197,-1.200770,-0.002063,-0.001037,-0.011981,-3.677007, 0.291111, 0.753998,1, 0.085961,-0.077030,-0.005800,1,-0.335826, 0.528491, 9.786639,1,0
1778254555986,   421.172,   421.172,-0.267941,-0.073432,-0.834236,-0.002178,-0.000803,-0.009492,-2.953003,-0.162610, 1.604321,1, 0.165048,-0.061675,-0.021050,1,-0.323515, 0.562633, 9.785151,1,0
1778254556007,   421.197,   421.192,-0.291188,-0.006484,-0.912578,-0.002442,-0.000395,-0.010000,-3.140633, 0.009957, 1.034280,1, 0.191482,-0.050052,-0.025595,1,-0.315826, 0.594019, 9.783546,1,0
1778254556029,   421.217,   421.212,-0.291547,-0.012958,-1.100616,-0.002754, 0.000208,-0.011318,-2.918907,-0.458153,-1.896016,1, 0.122985,-0.041943,-0.037072,1,-0.304310, 0.621213, 9.782223,1,0
1778254556056,   421.242,   421.242,-0.201208,-0.098999,-0.770017,-0.002253,-0.000659,-0.007297,-2.263751,-0.304080, 2.228352,1, 0.192974,-0.066970,-0.048821,1,-0.288591, 0.672731, 9.779291,1,0
1778254556078,   421.267,   421.262,-0.108265,-0.047556,-1.011846,-0.000869,-0.000207,-0.010568,-0.685893, 0.501917,-2.090827,1, 0.156848,-0.057720,-0.057254,1,-0.276107, 0.707206, 9.777219,1,0
1778254556099,   421.287,   421.282,-0.002758,-0.119336,-0.989125,-0.000033,-0.001296,-0.009818,-0.337815,-0.065392,-0.033110,1, 0.210145,-0.037421,-0.027805,1,-0.266708, 0.747135, 9.774509,1,0
1778254556126,   421.312,   421.312, 0.085856,-0.004912,-0.954112, 0.000739,-0.000002,-0.009535, 0.585870, 0.747347, 0.414327,1, 0.165616,-0.031150, 0.008372,1,-0.255103, 0.800676, 9.770579,1,0
1778254556148,   421.337,   421.332, 0.203174, 0.025249,-1.076748, 0.001812, 0.000077,-0.010934, 0.997944, 0.007878, 0.101802,1, 0.127359,-0.035473, 0.013473,1,-0.246851, 0.829791, 9.768362,1,0
1778254556170,   421.357,   421.357, 0.225084,-0.057799,-0.856079, 0.002429,-0.000490,-0.008886, 1.962437, 0.286934, 1.371079,1, 0.073952,-0.004554, 0.069850,1,-0.244553, 0.856099, 9.766150,1,0
1778254556196,   421.382,   421.382, 0.212814, 0.044804,-1.103394, 0.002264, 0.000295,-0.011234, 1.842821, 1.301170,-1.054943,1, 0.036581, 0.023001, 0.108155,1,-0.244587, 0.863019, 9.765539,1,0
1778254556218,   421.407,   421.402, 0.122385,-0.054161,-1.038764, 0.001358,-0.000501,-0.010115, 1.504748, 0.027393, 0.309011,1, 0.050163, 0.016435, 0.146336,1,-0.246535, 0.872035, 9.764689,1,0
1778254556241,   421.427,   421.427, 0.119785,-0.026693,-0.883795, 0.001160,-0.000086,-0.009009, 0.926587, 0.623929, 1.096346,1, 0.082586, 0.022808, 0.173150,1,-0.248328, 0.888399, 9.763169,1,0
1778254556266,   421.452,   421.452, 0.078811,-0.000347,-1.045571, 0.000416,-0.000173,-0.010159, 0.526814, 0.897692,-0.491491,1, 0.077251, 0.022232, 0.168709,1,-0.246267, 0.903628, 9.761824,1,0
1778254556288,   421.477,   421.472, 0.021746,-0.075301,-1.054786, 0.000121,-0.000924,-0.010071, 0.604940, 0.240580, 0.136637,1, 0.067576,-0.013957, 0.178671,1,-0.243715, 0.921892, 9.760180,1,0
1778254556311,   421.497,   421.497, 0.121599,-0.194486,-0.954754, 0.000841,-0.001643,-0.008857, 0.950267,-0.956282, 0.394489,1, 0.104349, 0.010553, 0.156996,1,-0.242069, 0.954339, 9.757101,1,0
1778254556336,   421.522,   421.522, 0.088780,-0.014236,-1.142947, 0.000663,-0.000360,-0.011154, 0.630133, 0.833345,-1.453185,1, 0.100548, 0.041111, 0.142535,1,-0.241332, 0.976184, 9.754958,1,0
1778254556358,   421.547,   421.542,-0.008726,-0.120936,-1.041142,-0.000519,-0.001433,-0.009681,-0.316747,-0.056555, 0.483483,1, 0.112510,-0.007178, 0.139425,1,-0.240102, 0.999748, 9.752602,1,0
1778254556381,   421.567,   421.567, 0.026214,-0.142938,-1.008053,-0.000067,-0.001341,-0.009685, 0.016424,-0.367916,-0.136586,1, 0.109760, 0.006997, 0.117133,1,-0.240484, 1.037328, 9.748667,1,0
1778254556406,   421.592,   421.592, 0.049879,-0.019416,-1.099805, 0.000602,-0.000472,-0.011571, 0.249459, 0.869314,-1.039130,1, 0.119695, 0.001150, 0.094258,1,-0.239403, 1.063502, 9.745872,1,0
1778254556428,   421.617,   421.612, 0.084841,-0.081765,-1.044473, 0.000341,-0.001239,-0.010236,-0.862026,-0.485527, 1.797362,1, 0.181396,-0.037860, 0.101767,1,-0.231894, 1.094157, 9.742661,1,0
1778254556451,   421.637,   421.637,-0.005891,-0.091302,-0.935008, 0.000169,-0.000953,-0.009513,-0.282058, 0.240130, 0.568803,1, 0.176346,-0.036098, 0.088836,1,-0.222848, 1.141029, 9.737494,1,0
1778254556477,   421.662,   421.662, 0.019658, 0.006314,-1.141066, 0.000355, 0.000116,-0.011564,-0.027375, 1.231944,-1.455929,1, 0.181295, 0.004140, 0.101763,1,-0.219908, 1.175709, 9.733434,1,0
1778254556498,   421.687,   421.682, 0.053149,-0.001267,-0.972848, 0.000269,-0.000543,-0.009745, 0.109208,-0.200800, 0.665334,1, 0.198415, 0.005039, 0.097756,1,-0.216555, 1.212517, 9.728992,1,0
1778254556521,   421.712,   421.707, 0.050171,-0.068584,-0.956301, 0.000250,-0.000505,-0.009162, 0.276962, 0.585596, 0.345113,1, 0.168086, 0.019104, 0.127382,1,-0.215133, 1.263468, 9.722538,1,0
1778254556547,   421.732,   421.732, 0.082286, 0.037509,-1.115586, 0.000679, 0.000371,-0.010965, 0.591629, 1.654159,-1.220628,1, 0.111854, 0.042263, 0.172200,1,-0.215922, 1.289895, 9.719050,1,0
1778254556568,   421.757,   421.752, 0.003957, 0.051295,-1.079075,-0.000342, 0.000308,-0.009754, 0.631002, 1.090472, 0.280978,1, 0.103328, 0.009892, 0.196163,1,-0.216973, 1.314980, 9.715665,1,0
1778254556591,   421.782,   421.777, 0.078600,-0.098703,-1.071042, 0.000545,-0.001215,-0.010503, 0.554631, 0.362071,-0.789695,1, 0.016714, 0.030323, 0.301414,1,-0.215838, 1.330739, 9.713544,1,0
1778254556617,   421.802,   421.802, 0.125943, 0.203339,-0.995757, 0.001374, 0.001754,-0.010758, 1.019917, 3.330336,-0.052240,1, 0.005162, 0.051831, 0.343728,1,-0.215303, 1.336660, 9.712743,1,0
1778254556638,   421.827,   421.822, 0.082147, 0.098139,-1.168010, 0.000591, 0.000624,-0.011138, 0.286269, 2.398734, 1.486822,1, 0.063245, 0.048759, 0.378801,1,-0.218513, 1.350888, 9.710702,1,0
1778254556661,   421.852,   421.847,-0.014852, 0.040279,-0.949861, 0.000069, 0.000010,-0.010178,-0.368228, 1.761270, 0.393503,1, 0.089348, 0.057924, 0.461159,1,-0.222370, 1.369352, 9.708028,1,0
1778254556687,   421.872,   421.872,-0.069142, 0.055697,-0.973815,-0.000403, 0.001043,-0.010043,-0.901300, 1.932327, 0.155764,1, 0.160804, 0.073235, 0.492052,1,-0.223338, 1.391444, 9.704865,1,0
1778254556708,   421.897,   421.892,-0.085690, 0.084790,-1.037941,-0.000656, 0.001072,-0.010872,-1.605094, 1.468255,-0.443527,1, 0.103315, 0.059390, 0.507352,1,-0.219714, 1.415505, 9.701467,1,0
1778254556731,   421.922,   421.917,-0.099849, 0.030030,-0.843170,-0.000795, 0.000531,-0.008365,-1.189615, 1.746731, 1.427566,1, 0.136966, 0.032390, 0.533321,1,-0.208970, 1.456824, 9.695585,1,0
1778254556757,   421.942,   421.942, 0.014644,-0.046272,-1.092586,-0.000012,-0.000040,-0.010735,-0.060336, 1.020739,-1.021587,1, 0.102998, 0.061915, 0.584071,1,-0.203115, 1.478067, 9.692494,1,0
1778254556778,   421.967,   421.962, 0.012767, 0.050018,-1.087226, 0.000240, 0.001097,-0.010787,-0.268432, 2.299078,-1.119983,1, 0.030847, 0.081550, 0.636986,1,-0.197516, 1.494233, 9.690131,1,0
1778254556801,   421.992,   421.987,-0.070597, 0.093639,-1.047101,-0.000871, 0.001189,-0.009662,-0.889424, 2.427557,-0.580748,1,-0.017129, 0.125520, 0.724100,1,-0.197494, 1.509203, 9.687811,1,0
1778254556827,   422.012,   422.012,-0.086168, 0.044280,-1.144060,-0.001010,-0.000150,-0.011781,-1.041921, 1.939010,-1.530883,1,-0.090778, 0.118462, 0.828360,1,-0.196591, 1.502490, 9.688873,1,0
1778254556849,   422.037,   422.032,-0.029058, 0.074328,-1.024941,-0.000472, 0.001143,-0.009909,-0.373879, 3.190710,-1.740002,1,-0.113022, 0.157893, 0.863324,1,-0.200107, 1.488497, 9.690961,1,0
1778254556875,   422.062,   422.062, 0.043326, 0.247990,-1.088656, 0.000135, 0.001704,-0.011079, 0.224911, 3.893752,-0.981041,1,-0.219115, 0.120417, 0.965306,1,-0.199191, 1.455655, 9.695967,1,0
1778254556897,   422.082,   422.082, 0.007733, 0.171339,-0.886604, 0.000582, 0.001598,-0.009487,-0.121904, 3.116757, 1.004237,1,-0.128440, 0.136769, 1.028966,1,-0.197249, 1.433169, 9.699356,1,0
1778254556919,   422.107,   422.102, 0.053098, 0.180118,-1.025952, 0.000773, 0.001543,-0.010445,-0.085023, 2.452900, 0.339081,1,-0.080673, 0.185586, 1.076405,1,-0.201825, 1.410030, 9.702653,1,0
1778254556946,   422.132,   422.132,-0.090352, 0.025597,-0.946866,-0.000289, 0.000629,-0.010456,-1.096566, 1.628454, 0.421568,1,-0.068874, 0.194561, 1.120354,1,-0.211619, 1.376058, 9.707320,1,0
1778254556967,   422.157,   422.152,-0.117952,-0.037910,-0.884963,-0.000818,-0.000493,-0.009652,-0.506639, 1.101063, 0.002191,1,-0.087838, 0.212663, 1.093185,1,-0.220725, 1.362066, 9.709090,1,0
1778254556989,   422.177,   422.172,-0.062022,-0.055454,-1.062518,-0.000900,-0.000337,-0.010748,-1.314054, 0.882219, 0.006481,1,-0.091820, 0.169816, 1.040148,1,-0.225267, 1.351566, 9.710454,1,0
1778254557016,   422.202,   422.202,-0.177413,-0.087532,-0.920048,-0.001160,-0.001093,-0.009290,-1.969071, 0.484156, 0.689023,1,-0.042177, 0.141047, 0.960917,1,-0.229498, 1.341947, 9.711689,1,0
1778254557037,   422.227,   422.222,-0.190919,-0.056186,-0.869052,-0.001219,-0.000909,-0.009163,-1.610889,-0.670247, 0.200676,1,-0.039459, 0.121153, 0.934372,1,-0.228765, 1.337227, 9.712357,1,0
1778254557059,   422.247,   422.242,-0.163612,-0.143273,-0.891269,-0.001713,-0.000871,-0.008925,-0.341677, 0.813390,-1.829517,1,-0.089922, 0.104576, 0.882059,1,-0.224450, 1.329351, 9.713538,1,0
1778254557086,   422.272,   422.272,-0.067429,-0.061315,-1.028474,-0.001416,-0.000913,-0.009384,-0.883309, 0.722140,-0.371486,1,-0.117363, 0.124149, 0.806431,1,-0.222495, 1.320376, 9.714808,1,0
1778254557107,   422.297,   422.292,-0.196938,-0.112474,-0.975891,-0.002162,-0.000926,-0.009470,-0.872352, 0.354991,-0.548685,1,-0.155260, 0.108110, 0.798722,1,-0.222434, 1.305144, 9.716867,1,0
1778254557129,   422.317,   422.312,-0.099157,-0.093910,-0.963667,-0.001308,-0.001396,-0.009299,-1.281745, 1.255940,-0.875620,1,-0.108844, 0.099239, 0.797878,1,-0.222314, 1.289626, 9.718942,1,0
1778254557156,   422.342,   422.342,-0.071112, 0.075922,-1.055356,-0.001074, 0.000402,-0.010174,-0.917675, 2.003114,-0.626455,1,-0.168508, 0.109249, 0.768698,1,-0.220601, 1.253893, 9.723656,1,0
1778254557177,   422.367,   422.362,-0.120532, 0.013869,-1.013457,-0.001406,-0.000448,-0.009992,-1.223131, 1.325963, 0.428537,1,-0.141257, 0.075967, 0.772387,1,-0.217493, 1.228622, 9.726951,1,0
1778254557199,   422.387,   422.382,-0.009481,-0.000380,-0.960956,-0.000136,-0.000418,-0.009633,-0.720676, 1.434598,-0.877353,1,-0.124031, 0.090811, 0.774063,1,-0.215636, 1.204824, 9.729968,1,0
1778254557226,   422.412,   422.412,-0.012916, 0.100282,-1.056383,-0.000347, 0.000718,-0.010563,-0.338377, 2.152571,-0.625168,1,-0.144080, 0.097069, 0.759426,1,-0.211896, 1.165185, 9.734877,1,0
1778254557247,   422.437,   422.432,-0.017135, 0.017456,-1.031965,-0.000132, 0.000149,-0.009757, 0.024277, 1.159416, 0.575949,1,-0.111274, 0.089239, 0.767996,1,-0.213069, 1.143844, 9.737382,1,0
1778254557269,   422.457,   422.452, 0.050818,-0.060946,-1.005520, 0.000340,-0.000563,-0.010055, 0.285690, 1.911342,-0.746887,1,-0.083279, 0.123197, 0.786222,1,-0.216771, 1.124723, 9.739528,1,0
1778254557296,   422.482,   422.482, 0.002839, 0.005639,-1.041707,-0.000165,-0.000497,-0.010436,-0.194892, 1.157123,-0.473646,1,-0.141634, 0.100687, 0.771448,1,-0.223156, 1.097951, 9.742437,1,0
1778254557318,   422.507,   422.502,-0.090545,-0.087060,-0.904591,-0.000793,-0.000516,-0.008480, 0.117906, 0.152027,-0.364161,1,-0.110243, 0.107456, 0.755329,1,-0.230112, 1.083025, 9.743946,1,0
1778254557339,   422.527,   422.522,-0.020840,-0.109811,-0.947739,-0.000419,-0.001149,-0.009435,-0.213517, 1.441714,-0.235595,1,-0.081164, 0.108410, 0.736579,1,-0.234381, 1.067505, 9.745557,1,0
1778254557366,   422.552,   422.552,-0.031841, 0.001317,-1.123505,-0.000894,-0.000532,-0.010645,-0.550713, 1.065978,-1.270789,1,-0.134431, 0.085125, 0.691202,1,-0.238785, 1.049413, 9.747415,1,0
1778254557388,   422.577,   422.572,-0.067203,-0.121018,-0.853839,-0.000562,-0.001139,-0.008325,-0.258380,-0.108976,-0.409730,1,-0.059152, 0.092555, 0.662084,1,-0.243096, 1.045210, 9.747760,1,0
1778254557410,   422.597,   422.597,-0.064081,-0.056558,-0.943125,-0.000536,-0.000505,-0.009859,-0.875211, 0.497203, 0.498055,1, 0.042628, 0.084381, 0.605534,1,-0.247385, 1.053643, 9.746744,1,0
1778254557436,   422.622,   422.622,-0.097679,-0.095530,-0.885120,-0.000861,-0.000838,-0.008470,-1.206187, 0.126702, 1.065584,1, 0.055343, 0.049590, 0.571643,1,-0.247890, 1.065701, 9.745420,1,0
1778254557458,   422.647,   422.642,-0.052910,-0.126541,-0.977723,-0.000343,-0.001364,-0.010316,-1.242833, 0.178886,-0.228171,1, 0.047124, 0.072735, 0.575821,1,-0.247725, 1.073996, 9.744514,1,0
1778254557481,   422.667,   422.667,-0.052824, 0.005923,-1.109635,-0.000659,-0.000032,-0.011112,-0.763184, 1.138445,-1.137923,1,-0.007949, 0.047828, 0.572109,1,-0.244670, 1.080558, 9.743866,1,0
1778254557506,   422.692,   422.692,-0.006567,-0.062139,-0.922694, 0.000178,-0.000843,-0.009964,-0.308731, 0.472568, 0.695184,1,-0.013223, 0.041969, 0.561194,1,-0.243694, 1.081975, 9.743732,1,0
1778254557528,   422.717,   422.712, 0.047648,-0.016817,-0.996992, 0.000420,-0.000241,-0.010251,-0.019165, 2.015829,-0.890646,1,-0.047858, 0.063014, 0.570226,1,-0.242656, 1.075307, 9.744496,1,0
1778254557551,   422.737,   422.737,-0.005182, 0.025545,-0.975129,-0.000110,-0.000075,-0.009195,-0.294261, 1.314829, 0.182933,1,-0.102926, 0.054140, 0.586858,1,-0.243132, 1.061581, 9.745990,1,0
1778254557576,   422.762,   422.762, 0.081786,-0.028329,-1.064275, 0.000570,-0.000231,-0.010640, 0.559392, 0.769282,-0.689404,1,-0.114733, 0.078997, 0.628916,1,-0.243004, 1.044022, 9.747890,1,0
1778254557598,   422.787,   422.782, 0.107265, 0.073161,-1.066546, 0.001134, 0.000817,-0.010904, 0.155469, 1.250753, 0.774787,1,-0.102013, 0.052414, 0.601700,1,-0.239635, 1.029416, 9.749526,1,0
1778254557621,   422.807,   422.807, 0.178726,-0.020319,-0.767407, 0.002057,-0.000356,-0.008027, 1.515222, 0.806692, 2.226339,1,-0.082038, 0.031280, 0.628600,1,-0.236439, 1.003879, 9.752267,1,0
1778254557646,   422.832,   422.832, 0.190773, 0.076674,-0.636971, 0.001987, 0.000922,-0.007165, 1.647047, 1.741501, 3.507469,1,-0.082919,-0.046841, 0.657111,1,-0.220272, 0.987479, 9.754319,1,0
1778254557668,   422.857,   422.852, 0.155126, 0.009587,-1.017299, 0.001364,-0.000029,-0.009795, 1.372583,-0.508256, 1.821270,1,-0.093803,-0.124582, 0.644560,1,-0.189057, 0.969681, 9.756760,1,0
1778254557691,   422.877,   422.877, 0.120697,-0.063755,-1.015871, 0.001303,-0.000272,-0.010465, 1.049000, 0.317561,-0.201997,1,-0.105642,-0.161125, 0.650849,1,-0.127661, 0.939747, 9.760685,1,0
1778254557717,   422.902,   422.902, 0.088642, 0.078862,-1.037560, 0.000893, 0.000567,-0.010354, 0.704119, 0.598710, 0.280715,1,-0.101273,-0.178071, 0.638310,1,-0.104865, 0.930714, 9.761822,1,0
1778254557738,   422.927,   422.922, 0.126897, 0.023024,-0.915953, 0.001192, 0.000143,-0.008839, 1.110024, 0.903500, 0.467250,1,-0.100738,-0.172713, 0.668021,1,-0.038466, 0.899549, 9.765230,1,0
1778254557761,   422.952,   422.947, 0.055371,-0.021516,-0.972060, 0.000699,-0.000102,-0.010184, 0.570043, 0.656858, 0.235476,1,-0.124347,-0.189126, 0.670205,1, 0.034768, 0.863941, 9.768458,1,0
1778254557787,   422.972,   422.972, 0.051132, 0.106869,-1.177227, 0.000479, 0.000929,-0.011832, 0.572667, 1.888772,-1.774372,1,-0.161713,-0.143437, 0.687620,1, 0.077536, 0.835563, 9.770681,1,0
1778254557808,   422.997,   422.992,-0.101714, 0.031477,-0.931771,-0.001031, 0.000083,-0.009753,-0.382953,-0.092140, 0.628897,1,-0.153936,-0.158548, 0.698289,1, 0.118008, 0.805801, 9.772776,1,0
1778254557831,   423.022,   423.017,-0.223231,-0.048090,-0.969256,-0.002122,-0.000180,-0.009933,-2.011376, 0.288666, 0.270363,1,-0.134475,-0.166622, 0.673964,1, 0.184594, 0.755703, 9.775746,1,0
1778254557857,   423.042,   423.042,-0.234862, 0.070036,-1.073240,-0.002428, 0.000543,-0.010746,-2.084289, 1.413981,-0.747695,1,-0.147460,-0.141239, 0.650865,1, 0.224822, 0.722123, 9.777442,1,0
1778254557878,   423.067,   423.062,-0.298863,-0.005603,-0.783078,-0.003010,-0.000086,-0.008105,-2.011425, 0.454717, 0.297813,1,-0.088997,-0.183368, 0.625335,1, 0.266909, 0.697451, 9.778175,1,0
1778254557901,   423.092,   423.087,-0.321084,-0.065846,-1.071340,-0.003459,-0.000499,-0.010099,-2.816860, 0.038597,-0.729149,1, 0.005408,-0.185124, 0.564081,1, 0.338887, 0.683894, 9.776903,1,0
1778254557927,   423.112,   423.112,-0.243151, 0.061727,-1.085309,-0.002543, 0.000165,-0.011353,-2.010814, 1.296225,-0.868108,1, 0.083116,-0.150459, 0.521127,1, 0.379507, 0.692858, 9.774779,1,0
1778254557948,   423.137,   423.132,-0.216539,-0.119099,-0.987725,-0.001772,-0.001180,-0.010258,-1.875805,-0.450181, 1.650280,1, 0.167244,-0.178239, 0.521150,1, 0.420643, 0.717611, 9.771309,1,0
1778254557971,   423.162,   423.157,-0.199049, 0.023069,-1.105441,-0.001984, 0.000356,-0.011393,-1.476801, 0.986359,-1.075090,1, 0.206192,-0.154174, 0.450310,1, 0.481083, 0.765860, 9.764855,1,0
1778254557997,   423.182,   423.182,-0.100810,-0.129944,-0.944260,-0.001180,-0.001171,-0.009197,-0.476996,-0.474374, 0.500535,1, 0.216152,-0.164199, 0.415822,1, 0.517768, 0.805981, 9.759748,1,0
1778254558018,   423.207,   423.202,-0.008272,-0.063222,-0.955457,-0.000462,-0.000428,-0.008989, 0.367293, 0.917181,-1.572250,1, 0.196792,-0.128920, 0.398230,1, 0.550269, 0.843043, 9.754838,1,0
1778254558041,   423.232,   423.227, 0.068623,-0.106275,-0.881829, 0.000734,-0.001293,-0.009068, 1.268704,-0.150745, 1.100069,1, 0.215962,-0.146610, 0.378452,1, 0.601369, 0.897441, 9.746965,1,0
1778254558067,   423.252,   423.252, 0.081118,-0.009587,-0.961034, 0.000811, 0.000013,-0.009269, 1.428314, 0.829642, 0.317997,1, 0.178581,-0.167652, 0.402933,1, 0.639204, 0.928385, 9.741658,1,0
1778254558089,   423.277,   423.272, 0.157068, 0.028336,-1.114667, 0.001600, 0.000219,-0.011344, 1.117519,-0.237029,-0.773583,1, 0.166065,-0.161993, 0.377060,1, 0.680261, 0.952121, 9.736586,1,0
1778254558115,   423.302,   423.302, 0.202425,-0.083128,-0.803340, 0.002118,-0.000402,-0.007764, 2.718462, 0.158731, 1.852491,1, 0.093468,-0.194814, 0.411132,1, 0.740663, 0.975870, 9.729824,1,0
1778254558137,   423.322,   423.322, 0.222862,-0.022655,-1.097777, 0.002091,-0.000340,-0.010691, 2.963221, 0.762207,-1.039438,1, 0.036759,-0.177772, 0.397162,1, 0.784441, 0.984534, 9.725519,1,0
1778254558159,   423.347,   423.342, 0.278831,-0.026784,-0.910614, 0.002621,-0.000465,-0.009553, 3.093652,-0.153329,-0.184847,1, 0.045286,-0.143274, 0.438211,1, 0.823202, 0.986302, 9.722136,1,0
1778254558186,   423.372,   423.372, 0.351888, 0.017699,-0.692912, 0.003506, 0.000554,-0.006789, 4.310705, 1.163275, 2.923467,1, 0.053432,-0.073440, 0.454521,1, 0.863565, 0.990118, 9.718246,1,0
1778254558207,   423.397,   423.392, 0.298512,-0.027494,-0.860391, 0.003039, 0.000117,-0.008416, 4.928348, 1.969818, 0.733514,1,-0.026040,-0.021245, 0.476466,1, 0.880919, 0.981551, 9.717558,1,0
1778254558229,   423.417,   423.412, 0.194173, 0.101111,-1.135743, 0.001777, 0.000177,-0.011558, 2.969685,-0.026605, 2.649415,1, 0.027104,-0.005608, 0.494325,1, 0.892542, 0.973132, 9.717343,1,0
1778254558256,   423.442,   423.442,-0.233234, 0.066779,-1.900778,-0.001725, 0.000609,-0.018666,-1.410092, 1.599853,-8.918740,1,-0.020058, 0.265245, 0.529780,1, 0.870535, 0.942874, 9.722322,1,0
1778254558277,   423.467,   423.462, 0.035023, 0.000445,-0.575282, 0.000315,-0.000167,-0.004754, 2.519329, 0.656994, 0.138896,1, 0.049135, 0.337173, 0.569634,1, 0.808368, 0.927373, 9.729178,1,0
1778254558299,   423.487,   423.482, 0.066447, 0.046083,-1.187383, 0.000592,-0.000031,-0.011585, 0.915571, 2.031557, 2.990134,1, 0.005958, 0.312153, 0.571752,1, 0.757754, 0.916016, 9.734326,1,0
1778254558326,   423.512,   423.512, 0.075568, 0.120392,-1.205489, 0.001204, 0.001581,-0.012233, 1.411081, 2.074562,-2.079004,1,-0.008733, 0.460936, 0.555665,1, 0.657295, 0.892462, 9.743812,1,0
1778254558347,   423.537,   423.532, 0.005586,-0.146151,-0.908689, 0.000019,-0.001055,-0.008335, 1.685649, 2.023250, 1.258112,1,-0.019210, 0.428026, 0.605578,1, 0.585435, 0.888599, 9.748746,1,0
1778254558369,   423.557,   423.552,-0.209518, 0.104569,-1.072482,-0.001975, 0.000673,-0.011471,-1.256331, 1.064144, 0.966771,1, 0.028415, 0.318343, 0.596908,1, 0.527862, 0.885355, 9.752328,1,0
1778254558396,   423.582,   423.582,-0.165171, 0.081663,-1.197235,-0.002305, 0.000986,-0.010473,-1.165903, 1.681749,-1.984419,1, 0.004883, 0.335654, 0.563264,1, 0.445029, 0.880246, 9.756921,1,0
1778254558417,   423.607,   423.602,-0.145896, 0.223681,-0.938258,-0.001457, 0.001278,-0.010692,-1.318147, 1.692171, 3.152083,1, 0.058496, 0.269871, 0.568276,1, 0.400151, 0.880630, 9.758829,1,0
1778254558439,   423.627,   423.622,-0.086926,-0.059674,-1.207775,-0.001709, 0.000158,-0.009732,-0.436475, 0.489817,-2.207450,1, 0.003891, 0.211755, 0.608659,1, 0.359799, 0.878705, 9.760574,1,0
1778254558466,   423.652,   423.652,-0.132935, 0.082415,-0.694893,-0.000455, 0.000223,-0.009745,-0.999877, 1.686962, 2.947897,1, 0.048829, 0.247180, 0.629126,1, 0.297849, 0.879650, 9.762576,1,0
1778254558487,   423.677,   423.672,-0.143527, 0.001067,-0.836533,-0.001123, 0.000300,-0.009223, 0.537476, 1.812222,-1.821992,1, 0.021604, 0.330054, 0.609469,1, 0.246936, 0.883152, 9.763680,1,0
1778254558509,   423.697,   423.692, 0.000585, 0.050060,-1.105127,-0.000105, 0.000681,-0.011668,-1.300930, 2.654952, 0.587997,1,-0.051053, 0.297180, 0.627498,1, 0.202518, 0.878725, 9.765101,1,0
1778254558536,   423.722,   423.722,-0.092655, 0.096681,-0.806009,-0.000806, 0.000890,-0.007649,-0.769694, 1.830743, 1.861612,1, 0.016450, 0.310879, 0.623980,1, 0.131031, 0.882861, 9.765949,1,0
1778254558558,   423.747,   423.742,-0.035058, 0.201580,-1.223159,-0.000535, 0.002054,-0.012633,-0.618109, 0.525268,-2.546549,1,-0.012806, 0.305518, 0.619113,1, 0.087159, 0.882034, 9.766515,1,0
1778254558579,   423.767,   423.762, 0.114688,-0.016245,-0.992298, 0.000595,-0.000218,-0.008689, 0.572229, 1.612290,-0.683039,1,-0.032760, 0.296045, 0.656969,1, 0.035053, 0.877358, 9.767262,1,0
1778254558606,   423.792,   423.792, 0.061035, 0.103404,-0.758595, 0.001456, 0.001052,-0.009504, 0.564974, 1.880186, 2.328985,1,-0.025376, 0.299351, 0.696174,1,-0.040962, 0.865423, 9.768303,1,0
1778254558628,   423.817,   423.812, 0.167200, 0.029029,-0.859268, 0.001734, 0.000997,-0.008145, 2.453159, 2.449394,-2.227574,1,-0.147205, 0.387352, 0.722616,1,-0.102364, 0.845329, 9.769612,1,0
1778254558650,   423.837,   423.837, 0.318143, 0.120821,-1.031748, 0.003011, 0.001598,-0.010133, 2.926660, 1.992367,-0.346564,1,-0.203404, 0.436555, 0.764558,1,-0.204871, 0.801654, 9.771682,1,0
1778254558676,   423.862,   423.862, 0.100988, 0.232658,-1.244220, 0.000371, 0.001602,-0.012234, 0.726001, 3.054724,-2.429090,1,-0.233900, 0.392220, 0.783228,1,-0.274622, 0.766506, 9.772791,1,0
1778254558698,   423.887,   423.882,-0.492620,-0.072498,-1.335087,-0.005100,-0.001530,-0.013888,-5.173675, 0.504149,-2.142387,1,-0.241040, 0.134417, 0.821721,1,-0.301502, 0.725335, 9.775141,1,0
1778254558721,   423.907,   423.907,-0.504933,-0.049746,-1.089818,-0.005081,-0.000079,-0.009725,-5.265692, 0.202934,-0.910214,1,-0.100568, 0.062914, 0.631973,1,-0.314555, 0.688278, 9.777409,1,0
1778254558746,   423.932,   423.932,-0.304330, 0.024722,-0.837170,-0.002989,-0.000616,-0.009715,-3.290967, 0.916048, 1.568855,1,-0.125045,-0.039986, 0.560370,1,-0.304065, 0.670264, 9.778992,1,0
1778254558768,   423.957,   423.952,-0.118247,-0.112858,-0.910016,-0.001095,-0.001005,-0.009374,-1.452846, 0.520407,-0.847759,1, 0.006315, 0.024520, 0.521468,1,-0.296871, 0.665149, 9.779562,1,0
1778254558791,   423.977,   423.977,-0.059888,-0.055671,-1.099655,-0.001067,-0.000611,-0.010640,-0.875564, 0.123334,-1.004396,1, 0.033246, 0.033539, 0.487271,1,-0.288266, 0.670763, 9.779436,1,0
1778254558816,   424.002,   424.002,-0.111421,-0.060610,-0.999459,-0.000604,-0.001439,-0.010222,-1.377680, 0.091890,-0.022885,1, 0.051458,-0.012706, 0.412507,1,-0.283720, 0.688244, 9.778354,1,0
1778254558838,   424.027,   424.022,-0.084911,-0.121826,-0.959501,-0.000751,-0.002106,-0.009774,-2.316264, 0.131920, 1.653083,1, 0.159263,-0.010200, 0.369004,1,-0.277331, 0.714032, 9.776688,1,0
1778254558861,   424.047,   424.047,-0.051164,-0.032708,-1.031848,-0.000190,-0.000322,-0.010930,-0.766397, 0.419811,-0.343908,1, 0.093254,-0.019733, 0.310331,1,-0.263302, 0.743732, 9.774861,1,0
1778254558886,   424.072,   424.072, 0.042511,-0.145356,-1.052829, 0.000387,-0.001013,-0.010231, 0.159414,-0.667158,-0.550827,1, 0.089257,-0.009841, 0.279528,1,-0.256500, 0.761301, 9.773690,1,0
1778254558908,   424.097,   424.092, 0.310116,-0.166380,-0.783286, 0.003442,-0.001726,-0.008513, 2.184855,-0.874548, 0.694441,1, 0.050410, 0.051088, 0.292080,1,-0.258033, 0.769549, 9.773004,1,0
1778254558931,   424.117,   424.117, 0.344241,-0.025796,-0.857086, 0.003745,-0.000100,-0.009155, 3.112915, 0.523932, 1.367147,1, 0.037872, 0.073376, 0.262544,1,-0.264572, 0.778305, 9.772135,1,0
1778254558957,   424.142,   424.142, 0.321017,-0.162516,-1.096365, 0.002949,-0.001392,-0.009998, 2.875794,-0.813672,-0.979884,1, 0.000683, 0.086080, 0.239810,1,-0.274391, 0.780291, 9.771707,1,0
1778254558978,   424.167,   424.162, 0.238285,-0.119994,-0.984360, 0.002187,-0.001433,-0.009599, 3.118910,-0.752410,-0.120370,1,-0.036067, 0.071430, 0.230166,1,-0.287858, 0.777189, 9.771565,1,0
1778254559001,   424.192,   424.187, 0.363890,-0.192254,-1.019250, 0.003309,-0.001767,-0.009612, 3.267359,-1.115540,-0.223682,1,-0.079789, 0.041268, 0.194320,1,-0.301990, 0.767531, 9.771903,1,0
1778254559027,   424.212,   424.212, 0.325283,-0.076855,-0.998298, 0.003812,-0.000612,-0.010222, 2.880280, 0.003017,-0.017455,1,-0.075991, 0.056319, 0.167062,1,-0.311004, 0.754511, 9.772634,1,0
1778254559048,   424.237,   424.232, 0.267986,-0.115952,-1.024800, 0.002838,-0.001146,-0.010303, 2.777507,-0.052631,-0.548412,1,-0.159181, 0.026547, 0.150235,1,-0.313017, 0.730360, 9.774405,1,0
1778254559071,   424.262,   424.257, 0.238508,-0.227884,-0.951957, 0.002357,-0.001845,-0.008856, 0.723170, 0.462557, 0.574809,1,-0.158811, 0.030499, 0.130212,1,-0.318044, 0.684737, 9.777544,1,0
1778254559097,   424.282,   424.282, 0.003571,-0.136052,-1.135440,-0.000082,-0.001893,-0.010600,-0.282974,-0.680812,-1.355178,1,-0.251788, 0.004655, 0.111297,1,-0.317915, 0.645727, 9.780202,1,0
1778254559118,   424.307,   424.302, 0.074178,-0.047825,-0.926911, 0.000813,-0.000938,-0.010112, 0.064556,-0.927410, 0.376160,1,-0.171815, 0.057224, 0.096661,1,-0.322063, 0.609452, 9.782393,1,0
1778254559141,   424.332,   424.327, 0.063787,-0.118040,-1.087686, 0.000540,-0.001617,-0.010572, 0.299519,-0.605116,-0.880911,1,-0.258213, 0.026768, 0.078568,1,-0.326717, 0.544502, 9.786070,1,0
1778254559167,   424.352,   424.352, 0.077203,-0.121763,-0.979847, 0.000692,-0.000424,-0.008302, 0.422634,-0.677309, 0.178290,1,-0.142962, 0.082375, 0.050529,1,-0.336948, 0.512379, 9.787457,1,0
1778254559188,   424.377,   424.372, 0.099278,-0.050253,-1.060994, 0.001179,-0.000969,-0.011068, 0.494073, 0.494585, 1.783162,1,-0.132071, 0.014353, 0.043354,1,-0.341138, 0.479836, 9.788961,1,0
1778254559211,   424.402,   424.397, 0.141773,-0.084501,-1.021366, 0.001174,-0.000288,-0.008796, 1.039781,-0.374812,-0.226307,1,-0.076008, 0.035828, 0.003313,1,-0.351647, 0.451499, 9.789938,1,0
1778254559237,   424.422,   424.422, 0.120833,-0.019816,-0.872720, 0.001321,-0.000136,-0.009092, 0.829202, 0.248883, 1.231708,1, 0.007962, 0.037077,-0.006286,1,-0.356932, 0.443452, 9.790114,1,0
1778254559259,   424.447,   424.442, 0.144165, 0.005882,-0.926195, 0.001480,-0.000358,-0.009801, 0.920256, 0.620446, 1.379717,1, 0.004978,-0.015220,-0.003171,1,-0.357308, 0.438846, 9.790308,1,0
1778254559281,   424.472,   424.467, 0.254438,-0.052314,-1.047254, 0.002334,-0.000240,-0.009519, 2.130797,-0.065899,-0.480383,1, 0.051591, 0.054633,-0.032988,1,-0.366136, 0.448700, 9.789536,1,0
1778254559307,   424.492,   424.492, 0.162963,-0.046887,-0.934931, 0.001618,-0.000452,-0.009554, 1.226289,-0.000290, 0.620277,1, 0.113754, 0.044962,-0.029344,1,-0.373272, 0.463034, 9.788598,1,0
1778254559329,   424.517,   424.512, 0.002916,-0.030586,-1.047617, 0.000229,-0.000543,-0.011018,-0.324467,-0.268385, 0.332060,1, 0.082489,-0.020305,-0.028725,1,-0.372887, 0.478106, 9.787889,1,0
1778254559356,   424.542,   424.542,-0.005472,-0.075882,-1.073770,-0.000230,-0.001026,-0.011179,-0.417629,-0.239608,-0.743195,1, 0.103347,-0.040087,-0.057056,1,-0.362806, 0.507693, 9.786777,1,0
1778254559377,   424.562,   424.562, 0.012843,-0.153863,-1.042818,-0.000277,-0.001021,-0.009130,-0.230556,-0.977668,-0.440795,1, 0.127805,-0.040319,-0.094494,1,-0.355411, 0.535089, 9.785589,1,0
1778254559399,   424.587,   424.582,-0.006232,-0.118667,-0.991121, 0.000026,-0.001229,-0.010696,-0.508934,-0.620397, 0.918135,1, 0.155892,-0.024930,-0.114279,1,-0.347623, 0.562030, 9.784358,1,0
1778254559426,   424.612,   424.612,-0.017079,-0.094005,-1.034404,-0.000111,-0.001242,-0.010671,-0.506995,-0.333156,-0.360963,1, 0.065953,-0.030806,-0.105726,1,-0.338749, 0.590656, 9.782983,1,0
1778254559447,   424.637,   424.632,-0.009216,-0.151236,-1.136994,-0.000553,-0.001126,-0.011012,-0.605028,-0.641668,-0.880076,1, 0.050942,-0.008902,-0.116303,1,-0.338214, 0.607011, 9.782001,1,0
1778254559469,   424.657,   424.652, 0.007523,-0.052293,-1.030006,-0.000132,-0.000427,-0.009747,-0.171373,-0.591286,-0.399236,1, 0.065133,-0.000257,-0.125994,1,-0.337115, 0.614183, 9.781590,1,0
1778254559496,   424.682,   424.682, 0.021883,-0.023268,-0.801645, 0.000519,-0.000342,-0.009126,-0.125924, 0.384067, 1.920139,1,-0.015630,-0.013658,-0.113694,1,-0.340155, 0.611672, 9.781643,1,0
1778254559517,   424.707,   424.702, 0.076836,-0.113127,-1.126137, 0.000716,-0.000468,-0.010218, 0.464424,-0.136521,-1.366670,1,-0.087740, 0.014706,-0.080041,1,-0.343789, 0.599820, 9.782249,1,0
1778254559539,   424.727,   424.722, 0.145995,-0.035249,-0.844856, 0.001256, 0.000008,-0.008328, 1.312125, 0.192555,-0.336031,1,-0.059303, 0.033491,-0.080967,1,-0.349573, 0.585627, 9.782905,1,0
1778254559566,   424.752,   424.752, 0.076747, 0.052043,-1.033536, 0.000952, 0.000278,-0.010855, 0.403732, 1.074259,-0.351317,1,-0.076018,-0.016140,-0.044253,1,-0.348471, 0.561475, 9.784360,1,0
1778254559587,   424.777,   424.772, 0.143704, 0.011800,-0.881479, 0.001576, 0.000233,-0.009735, 0.591155, 1.182455,-0.755511,1,-0.088642,-0.019531,-0.026692,1,-0.342908, 0.543567, 9.785567,1,0
1778254559609,   424.797,   424.792, 0.223012, 0.022779,-0.941766, 0.002224, 0.000656,-0.008767, 1.499232, 0.323587, 0.280533,1,-0.036625, 0.009445,-0.038630,1,-0.345157, 0.541764, 9.785588,1,0
1778254559636,   424.822,   424.822, 0.185217, 0.000491,-1.138040, 0.001617,-0.000163,-0.011081, 1.476130, 0.554500,-1.375041,1, 0.058454,-0.003583,-0.009758,1,-0.340139, 0.551493, 9.785221,1,0
1778254559657,   424.847,   424.842, 0.160569, 0.120290,-0.939300, 0.001760, 0.001096,-0.010232, 0.447862,-0.262585,-0.743679,1, 0.094472,-0.003685,-0.011568,1,-0.339022, 0.569722, 9.784215,1,0
1778254559679,   424.867,   424.862, 0.146014, 0.065108,-0.906543, 0.001618, 0.000254,-0.009788, 0.477823, 0.980179, 1.820696,1, 0.112942,-0.015714, 0.022963,1,-0.336602, 0.595791, 9.782746,1,0
1778254559706,   424.892,   424.892, 0.133764,-0.004720,-0.946229, 0.001548,-0.000401,-0.009604, 0.981503, 0.591977, 0.500940,1, 0.156822,-0.039368, 0.026856,1,-0.328990, 0.643173, 9.780004,1,0
1778254559728,   424.917,   424.912, 0.109322, 0.050376,-1.206388, 0.000707, 0.000514,-0.011295, 0.367069, 0.180556, 0.741612,1, 0.159288,-0.073986, 0.052862,1,-0.316721, 0.678542, 9.778019,1,0
1778254559749,   424.937,   424.932, 0.088608,-0.001657,-1.164495, 0.000579,-0.000390,-0.011684, 0.482892, 0.724863,-2.158998,1, 0.153486,-0.003840, 0.103333,1,-0.309802, 0.708498, 9.776115,1,0
1778254559776,   424.962,   424.962, 0.076269,-0.024555,-0.970907, 0.000657,-0.000307,-0.009466, 0.438451, 0.504614, 0.252034,1, 0.121041, 0.021218, 0.147354,1,-0.309798, 0.749327, 9.773071,1,0
1778254559798,   424.987,   424.982, 0.148406, 0.121886,-0.937179, 0.001385, 0.000413,-0.009910, 0.819106, 0.216959, 1.366898,1, 0.092500, 0.025368, 0.165886,1,-0.311632, 0.770077, 9.771399,1,0
1778254559819,   425.007,   425.002, 0.070074, 0.034432,-1.105038, 0.000838, 0.000055,-0.010702,-0.041689, 1.115132, 0.322563,1, 0.028522, 0.006778, 0.219937,1,-0.311149, 0.782249, 9.770448,1,0
1778254559846,   425.032,   425.032, 0.080892,-0.015214,-1.157347, 0.000763,-0.000542,-0.011298, 0.480437, 0.633677,-1.579359,1,-0.047144, 0.041852, 0.242956,1,-0.313540, 0.781655, 9.770419,1,0
1778254559868,   425.057,   425.052, 0.002119, 0.125798,-0.836673, 0.000312, 0.000578,-0.009732,-0.872007, 0.242212,-0.196254,1,-0.117860,-0.015071, 0.315499,1,-0.306075, 0.768011, 9.771738,1,0
1778254559890,   425.077,   425.077, 0.017111, 0.124756,-0.911087, 0.000319, 0.000730,-0.009406,-0.122869, 1.961796, 0.839778,1,-0.141500,-0.036934, 0.308041,1,-0.288821, 0.734228, 9.774859,1,0
1778254559916,   425.102,   425.102,-0.008292,-0.001093,-1.085917, 0.000009, 0.000033,-0.010610,-0.364691, 0.695913,-0.872164,1,-0.192794,-0.033162, 0.339148,1,-0.281584, 0.700940, 9.777514,1,0
1778254559938,   425.127,   425.122,-0.023372, 0.099036,-1.091409,-0.000395, 0.000712,-0.010638,-0.925349,-0.237700,-0.815295,1,-0.213172,-0.005523, 0.412841,1,-0.274096, 0.663520, 9.780337,1,0
1778254559961,   425.147,   425.147,-0.125273, 0.062142,-1.034047,-0.001568, 0.000554,-0.009293,-1.491863, 1.216408,-0.356236,1,-0.236684,-0.013270, 0.416456,1,-0.262131, 0.599980, 9.784768,1,0
1778254559986,   425.172,   425.172,-0.221559,-0.037376,-1.103298,-0.002395,-0.000158,-0.010363,-2.429578, 0.192648,-1.032334,1,-0.224284, 0.023819, 0.397872,1,-0.256864, 0.552519, 9.787703,1,0
1778254560008,   425.197,   425.192,-0.237107, 0.150482,-0.905445,-0.002403, 0.001006,-0.009608,-2.610906, 0.623938, 1.805962,1,-0.252986, 0.003047, 0.426151,1,-0.252904, 0.503931, 9.790428,1,0
1778254560031,   425.217,   425.217,-0.238035, 0.001999,-1.121901,-0.002168,-0.000620,-0.011366,-2.581723, 0.459908,-1.208461,1,-0.277840,-0.002365, 0.418692,1,-0.246735, 0.431978, 9.794024,1,0
1778254560056,   425.242,   425.242,-0.098354,-0.091214,-1.023463,-0.001357,-0.000380,-0.008576,-1.210750,-0.495540,-0.241310,1,-0.239845, 0.031013, 0.406329,1,-0.246674, 0.391801, 9.795714,1,0
1778254560078,   425.267,   425.262,-0.023323,-0.059895,-0.973160,-0.000301,-0.000569,-0.009311,-0.350171,-0.069404, 1.322853,1,-0.187922, 0.022529, 0.385127,1,-0.244454, 0.351836, 9.797287,1,0
1778254560101,   425.287,   425.287,-0.018346,-0.042489,-0.865564,-0.000198,-0.000841,-0.009257,-0.432570,-0.112184, 1.310380,1,-0.188013, 0.028995, 0.326044,1,-0.253242, 0.298887, 9.798822,1,0
1778254560126,   425.312,   425.312,-0.014428,-0.177047,-1.051872,-0.000079,-0.001327,-0.009498,-0.394794,-1.460674,-0.515842,1,-0.153967,-0.006710, 0.270600,1,-0.252852, 0.270981, 9.799644,1,0
1778254560148,   425.337,   425.332,-0.058085,-0.074218,-0.777961,-0.000346,-0.000973,-0.008925,-0.255007,-1.353421,-1.211028,1,-0.033814, 0.002604, 0.180659,1,-0.248708, 0.253070, 9.800229,1,0
1778254560171,   425.357,   425.357,-0.030677,-0.139331,-0.959332, 0.000216,-0.001921,-0.010418,-0.542199,-1.126063, 0.392902,1,-0.038283,-0.034090, 0.075715,1,-0.240241, 0.239175, 9.800789,1,0
1778254560197,   425.382,   425.382, 0.089137,-0.314634,-1.090031, 0.000072,-0.002333,-0.009906, 0.637372,-2.841713,-0.888793,1, 0.061120,-0.008802,-0.018177,1,-0.236498, 0.245687, 9.800719,1,0
1778254560218,   425.407,   425.402,-0.014633,-0.227641,-0.794503, 0.000249,-0.002922,-0.009502,-0.334538,-1.925420, 1.331201,1, 0.081570, 0.001820,-0.100998,1,-0.233660, 0.256002, 9.800523,1,0
1778254560241,   425.432,   425.427,-0.049026,-0.355228,-1.225387,-0.000812,-0.003475,-0.011857,-0.714424,-3.205530,-2.217024,1, 0.082919,-0.011022,-0.220666,1,-0.233499, 0.280493, 9.799856,1,0
1778254560267,   425.452,   425.452,-0.124420,-0.196007,-1.003664,-0.001224,-0.001510,-0.008874,-1.461449,-1.620879,-0.043537,1, 0.139209, 0.068796,-0.290249,1,-0.243728, 0.305416, 9.798862,1,0
1778254560288,   425.477,   425.472,-0.142669,-0.196405,-1.055150,-0.001254,-0.002634,-0.011100,-2.058426,-0.623144, 2.632611,1, 0.108681,-0.031888,-0.359147,1,-0.246309, 0.324626, 9.798181,1,0
1778254560311,   425.502,   425.497,-0.074682,-0.257913,-1.066809,-0.001475,-0.001467,-0.008245,-0.984844,-2.168038,-0.665087,1, 0.165075, 0.040659,-0.449276,1,-0.254246, 0.366008, 9.796519,1,0
1778254560337,   425.522,   425.522,-0.182410,-0.073348,-0.692758,-0.000805,-0.001935,-0.009539,-2.046319,-0.336894, 3.002173,1, 0.111390,-0.021632,-0.461967,1,-0.257378, 0.385494, 9.795690,1,0
1778254560358,   425.547,   425.542,-0.076478,-0.230392,-0.942498,-0.001184,-0.001341,-0.007633, 0.109607,-3.170970,-2.543353,1, 0.063695, 0.002929,-0.485643,1,-0.264464, 0.404686, 9.794726,1,0
1778254560381,   425.572,   425.567,-0.104434,-0.113454,-0.918787,-0.000284,-0.002209,-0.011559,-1.288494,-0.687251, 0.783631,1, 0.072956,-0.052225,-0.505039,1,-0.263398, 0.427201, 9.793799,1,0
1778254560407,   425.592,   425.592, 0.010823,-0.234811,-1.339738,-0.000530,-0.001216,-0.011023,-0.159797,-1.866100,-3.345031,1, 0.066807,-0.006748,-0.492684,1,-0.266412, 0.438279, 9.793228,1,0
1778254560428,   425.617,   425.612, 0.022406,-0.043515,-1.022275, 0.000490,-0.001005,-0.011820,-1.601275, 0.138119, 2.786735,1, 0.060980,-0.052416,-0.484450,1,-0.259571, 0.446421, 9.793044,1,0
1778254560451,   425.642,   425.637, 0.060024,-0.087168,-1.143726, 0.000222,-0.000171,-0.009457, 0.332847,-0.391970,-1.423746,1, 0.095112, 0.005373,-0.482773,1,-0.256664, 0.465426, 9.792236,1,0
1778254560477,   425.662,   425.662,-0.006124, 0.006153,-0.821568, 0.000371,-0.000847,-0.009938,-0.310821, 0.532581, 1.735228,1, 0.045121,-0.063960,-0.458961,1,-0.249466, 0.473281, 9.792046,1,0
1778254560498,   425.687,   425.682,-0.006111,-0.055776,-0.758977, 0.000152,-0.000067,-0.007075, 0.994350,-1.636032,-1.645848,1, 0.090254,-0.005310,-0.420450,1,-0.251105, 0.485787, 9.791391,1,0
1778254560521,   425.712,   425.707, 0.082911,-0.026046,-0.890890, 0.001174,-0.001008,-0.010096, 0.563068, 0.234385, 1.054567,1,-0.017352,-0.043804,-0.346748,1,-0.249185, 0.488994, 9.791281,1,0
1778254560547,   425.732,   425.732, 0.079474,-0.048194,-1.199802, 0.000227, 0.000485,-0.010711, 0.528750, 0.013973,-1.974680,1, 0.055916, 0.013090,-0.302311,1,-0.251502, 0.488094, 9.791266,1,0
1778254560569,   425.757,   425.752, 0.188345,-0.072498,-1.160692, 0.001307,-0.000498,-0.010795, 0.021928, 0.973551,-0.680063,1,-0.124968, 0.005939,-0.243214,1,-0.256788, 0.472396, 9.791899,1,0
1778254560596,   425.782,   425.782,-0.042944, 0.110276,-0.785416, 0.000284, 0.000909,-0.008576,-0.691786, 1.539264, 2.089918,1,-0.036737, 0.043100,-0.180921,1,-0.272260, 0.456523, 9.792233,1,0
1778254560617,   425.802,   425.802, 0.085761,-0.044271,-1.107370, 0.000140,-0.000739,-0.010672, 0.563265, 0.008805,-1.066885,1,-0.148734,-0.006276,-0.145813,1,-0.277778, 0.438187, 9.792916,1,0
1778254560639,   425.827,   425.822,-0.106505, 0.079433,-0.830869,-0.000022, 0.000252,-0.009167,-1.192207, 0.902637, 1.436635,1, 0.012711, 0.061894,-0.153967,1,-0.287006, 0.432185, 9.792917,1,0
1778254560666,   425.852,   425.852,-0.030190,-0.114503,-1.115646,-0.001040,-0.000721,-0.009855,-0.585576,-0.703496,-1.147346,1,-0.058679, 0.009572,-0.137743,1,-0.289994, 0.417442, 9.793468,1,0
1778254560687,   425.877,   425.872,-0.095418,-0.036316,-0.892607,-0.000801,-0.000872,-0.010165,-1.299810,-0.467469, 0.452106,1, 0.018281,-0.003486,-0.140793,1,-0.287294, 0.412997, 9.793736,1,0
1778254560709,   425.897,   425.892,-0.041833,-0.142131,-1.118800,-0.000460,-0.000921,-0.010475,-0.853623,-0.650333,-1.653968,1,-0.048646,-0.005271,-0.137131,1,-0.285967, 0.407459, 9.794007,1,0
1778254560736,   425.922,   425.922,-0.101063, 0.050034,-0.907866,-0.000810,-0.000197,-0.010609,-1.272165, 0.892287, 0.891261,1,-0.053159,-0.062016,-0.142989,1,-0.279323, 0.399839, 9.794514,1,0
1778254560757,   425.947,   425.942,-0.157227,-0.002028,-0.878383,-0.001136,-0.000130,-0.009957,-0.864121,-1.585842, 0.477608,1, 0.023958,-0.002770,-0.173722,1,-0.277837, 0.402641, 9.794441,1,0
1778254560779,   425.967,   425.962, 0.013648,-0.198839,-1.194361,-0.000955,-0.001487,-0.010034,-0.934520,-0.324491,-0.361184,1,-0.117017,-0.070408,-0.170986,1,-0.271590, 0.386653, 9.795260,1,0
1778254560806,   425.992,   425.992,-0.095774,-0.007186,-0.769529, 0.000383,-0.001148,-0.009857,-1.209759, 0.298876, 2.249451,1,-0.091307,-0.041413,-0.182570,1,-0.269456, 0.366341, 9.796100,1,0
1778254560827,   426.017,   426.012,-0.087743,-0.023886,-0.903831,-0.000166,-0.000497,-0.009946, 0.095656,-1.056180,-1.692026,1,-0.053307, 0.024040,-0.189093,1,-0.270303, 0.352038, 9.796601,1,0
1778254560849,   426.037,   426.032, 0.083425,-0.214627,-1.262301, 0.000047,-0.001641,-0.011291,-0.719601,-0.460036, 0.831918,1,-0.101920,-0.025977,-0.177179,1,-0.267041, 0.328643, 9.797503,1,0
1778254560876,   426.062,   426.062,-0.094361,-0.027299,-0.670969,-0.000347,-0.000539,-0.007761,-1.195552, 0.041441, 3.218087,1,-0.031385,-0.012396,-0.220348,1,-0.270022, 0.307983, 9.798093,1,0
1778254560897,   426.087,   426.082,-0.088829,-0.089177,-0.954149,-0.000784,-0.000735,-0.008879,-0.928911,-0.827678,-0.233096,1,-0.053768,-0.019839,-0.237522,1,-0.271238, 0.295792, 9.798434,1,0
1778254560919,   426.107,   426.102,-0.047174,-0.144007,-1.036652,-0.000383,-0.001499,-0.010405,-0.369904,-0.424360,-1.902565,1,-0.040639, 0.001765,-0.254299,1,-0.273994, 0.286869, 9.798623,1,0
1778254560946,   426.132,   426.132,-0.011121, 0.006407,-0.996086,-0.000152,-0.000313,-0.011205,-0.385839, 0.337937, 0.030611,1,-0.068001,-0.014255,-0.247579,1,-0.276550, 0.272770, 9.798954,1,0
1778254560968,   426.157,   426.152,-0.015092,-0.015917,-0.929407,-0.000169,-0.000299,-0.010038,-0.495497,-0.512541, 1.413580,1,-0.004355, 0.037947,-0.266417,1,-0.282988, 0.269470, 9.798862,1,0
1778254560989,   426.177,   426.172, 0.035965,-0.102048,-0.947416,-0.000062,-0.000595,-0.008554,-0.150647,-0.523937,-0.242750,1,-0.068288, 0.010582,-0.247915,1,-0.287602, 0.257258, 9.799055,1,0
1778254561016,   426.202,   426.202, 0.012279,-0.158035,-1.119545, 0.000313,-0.001808,-0.011267,-0.172185,-1.306903,-1.179713,1,-0.077509, 0.017292,-0.244620,1,-0.293328, 0.240241, 9.799317,1,0
1778254561038,   426.227,   426.222,-0.043268,-0.136385,-1.167642,-0.000423,-0.001301,-0.011953,-1.509918, 0.671229, 0.667916,1,-0.074608,-0.044619,-0.247713,1,-0.291331, 0.225702, 9.799723,1,0
1778254561059,   426.247,   426.242,-0.141655, 0.036028,-0.903351,-0.000619,-0.000325,-0.010076,-1.214785,-0.755569, 0.740492,1,-0.010017, 0.010435,-0.267149,1,-0.292541, 0.216758, 9.799889,1,0
1778254561086,   426.272,   426.272,-0.033569,-0.137238,-0.942808,-0.000838,-0.000994,-0.008713,-0.614380,-1.137941, 0.554513,1, 0.035934,-0.002263,-0.308316,1,-0.285314, 0.208747, 9.800276,1,0
1778254561108,   426.297,   426.292, 0.008012,-0.210788,-0.903170,-0.000202,-0.002083,-0.008901, 0.234666,-1.554306,-0.776136,1, 0.007756,-0.025566,-0.323165,1,-0.279416, 0.207185, 9.800479,1,0
1778254561131,   426.317,   426.317, 0.038381,-0.153255,-1.136306,-0.000050,-0.001477,-0.011020, 0.096937,-1.284984,-1.343107,1, 0.042954, 0.002910,-0.370670,1,-0.279796, 0.218943, 9.800213,1,0
1778254561156,   426.342,   426.342,-0.062811,-0.064413,-0.888518,-0.000176,-0.001006,-0.009613,-0.898620,-0.400513, 1.086461,1, 0.078595,-0.028161,-0.402102,1,-0.282075, 0.233252, 9.799817,1,0
1778254561178,   426.367,   426.362,-0.095010,-0.077133,-1.017211,-0.000730,-0.001197,-0.010440,-1.421013,-1.432784, 0.038420,1, 0.124275, 0.031566,-0.438861,1,-0.287314, 0.252265, 9.799193,1,0
1778254561201,   426.387,   426.387,-0.054361,-0.121513,-1.035470,-0.000530,-0.001039,-0.010936,-0.821737,-0.915164,-0.355993,1, 0.148962, 0.001017,-0.441727,1,-0.289053, 0.280715, 9.798368,1,0
1778254561226,   426.412,   426.412, 0.028932,-0.053718,-0.913592, 0.000028,-0.000227,-0.008153,-0.005542,-0.223450, 0.838408,1, 0.184702,-0.016872,-0.463931,1,-0.289189, 0.308675, 9.797523,1,0
1778254561248,   426.437,   426.432, 0.086783,-0.013076,-0.980723, 0.000649, 0.000177,-0.008978, 1.258481,-0.277489,-0.776833,1, 0.209517,-0.012860,-0.473543,1,-0.290743, 0.345261, 9.796257,1,0
1778254561271,   426.457,   426.457, 0.217638,-0.089475,-1.146027, 0.002120,-0.000676,-0.011505, 1.841662,-0.461330,-1.445250,1, 0.340467, 0.017836,-0.437629,1,-0.293771, 0.426327, 9.792974,1,0
1778254561296,   426.482,   426.482, 0.139017, 0.018992,-0.990109, 0.001511,-0.000081,-0.009826, 1.072009, 0.667724, 0.080833,1, 0.341466,-0.020583,-0.410938,1,-0.291212, 0.491775, 9.789982,1,0
1778254561318,   426.507,   426.502, 0.179976, 0.063512,-1.011410, 0.001893, 0.000266,-0.010080, 1.806258, 1.011607, 1.537611,1, 0.394387,-0.016479,-0.371895,1,-0.294038, 0.562172, 9.786107,1,0
1778254561341,   426.527,   426.527, 0.149482, 0.046385,-0.829432, 0.001524, 0.000752,-0.008678, 1.174901, 1.102861, 1.646933,1, 0.346366,-0.053678,-0.267725,1,-0.289897, 0.658511, 9.780220,1,0
1778254561366,   426.552,   426.552, 0.371501, 0.100819,-1.215835, 0.003557, 0.001068,-0.011938, 3.356361, 1.691056,-2.146016,1, 0.230684,-0.019168,-0.188747,1,-0.286645, 0.709368, 9.776759,1,0
1778254561388,   426.577,   426.572, 0.430966, 0.182211,-1.112867, 0.004333, 0.001439,-0.010975, 2.386405, 1.190980, 1.448782,1, 0.221091,-0.007805,-0.117117,1,-0.283388, 0.753756, 9.773532,1,0
1778254561411,   426.597,   426.597, 0.209860, 0.076662,-0.919401, 0.002585, 0.000583,-0.009674, 1.771180, 1.543076, 0.754223,1, 0.130775, 0.033937, 0.044014,1,-0.287789, 0.795386, 9.770103,1,0
1778254561437,   426.622,   426.622, 0.251075,-0.063530,-0.978821, 0.001971, 0.000282,-0.008547, 2.167507, 0.185048, 0.169898,1, 0.108169, 0.067763, 0.127794,1,-0.296479, 0.811546, 9.768515,1,0
1778254561458,   426.647,   426.642, 0.211810,-0.018648,-1.083724, 0.001541,-0.000363,-0.010113, 1.361541, 2.563687, 2.077952,1,-0.003043,-0.005362, 0.213536,1,-0.297442, 0.812708, 9.768389,1,0
1778254561481,   426.672,   426.667, 0.098686, 0.026060,-1.033298, 0.001193, 0.000821,-0.010415, 0.667807, 1.062497,-0.364400,1,-0.002674, 0.044233, 0.258827,1,-0.300684, 0.807096, 9.768755,1,0
1778254561507,   426.692,   426.692, 0.176302, 0.141890,-0.886438, 0.002224, 0.001272,-0.009855, 1.425286, 2.188493, 1.076501,1,-0.077178, 0.026359, 0.298503,1,-0.303710, 0.794914, 9.769660,1,0
1778254561528,   426.717,   426.712, 0.173977, 0.046339,-1.053664, 0.001646, 0.001487,-0.009489, 2.302978, 1.510203,-2.377181,1,-0.168914, 0.046516, 0.328514,1,-0.310269, 0.776522, 9.770933,1,0
