Time,GPS_ts,fGPS_ts,scaledAccelX,scaledAccelY,scaledAccelZ,deltaVelX,deltaVelY,deltaVelZ,estLinearAccelX,estLinearAccelY,estLinearAccelZ,estLinearAccel:valid,estAngularRateX,estAngularRateY,estAngularRateZ,estAngularRate:valid,estGravityX,estGravityY,estGravityZ,estGravity:valid,flag
1778254665820,   491.252,   491.252,-0.014914, 0.016638,-0.949321,-0.000145, 0.000161,-0.009487,-0.377818, 0.021723, 0.493233,1,-0.036756,-0.012945,-0.191321,1,-0.231069,-0.142725, 9.802889,1,0
1778254665820,   491.277,   491.272, 0.008714, 0.040230,-1.005519, 0.000082, 0.000416,-0.010051,-0.188651, 0.229929, 0.053434,1, 0.029361, 0.002119,-0.200331,1,-0.229634,-0.141857, 9.802935,1,0
1778254665820,   491.297,   491.297,-0.006840, 0.020736,-0.991934,-0.000038, 0.000224,-0.009956,-0.297443, 0.083323, 0.075662,1, 0.128642, 0.003540,-0.221266,1,-0.230389,-0.116172, 9.803255,1,0
1778254665820,   491.322,   491.322,-0.029046, 0.014044,-0.956653,-0.000281, 0.000149,-0.009563,-0.515698, 0.046801, 0.421950,1, 0.168486, 0.005610,-0.231570,1,-0.230959,-0.085839, 9.803555,1,0
1778254665821,   491.347,   491.342,-0.047123, 0.012639,-1.029352,-0.000477, 0.000168,-0.010201,-0.639403, 0.118908, 0.050836,1, 0.163519, 0.003534,-0.223031,1,-0.231464,-0.054130, 9.803768,1,0
1778254665821,   491.372,   491.372,-0.057476, 0.009823,-1.025153,-0.000594, 0.000114,-0.010314,-0.795784, 0.081948,-0.249423,1, 0.148711,-0.001820,-0.209148,1,-0.232068,-0.009898, 9.803899,1,0
1778254665821,   491.397,   491.392,-0.058329, 0.010728,-0.984009,-0.000580, 0.000124,-0.009835,-0.804016, 0.189293, 0.124511,1, 0.107169,-0.007503,-0.196443,1,-0.230954, 0.013206, 9.803921,1,0
1778254665821,   491.422,   491.417,-0.053293, 0.000349,-1.008772,-0.000539,-0.000000,-0.010071,-0.749070, 0.035811,-0.088693,1, 0.050757,-0.015948,-0.168132,1,-0.225728, 0.034004, 9.803993,1,0
1778254665821,   491.447,   491.442,-0.030951, 0.011328,-1.012611,-0.000312, 0.000109,-0.010150,-0.595545, 0.068325,-0.318613,1, 0.035662,-0.007889,-0.155071,1,-0.223742, 0.040930, 9.804012,1,0
1778254665821,   491.467,   491.462,-0.026252, 0.015841,-0.962727,-0.000271, 0.000160,-0.009661,-0.477359, 0.173140, 0.125193,1, 0.030523,-0.003610,-0.151255,1,-0.222952, 0.046256, 9.804007,1,0
1778254665821,   491.487,   491.482,-0.038513, 0.012076,-0.963456,-0.000378, 0.000132,-0.009591,-0.541451, 0.210163, 0.458211,1, 0.025665,-0.001307,-0.145257,1,-0.222615, 0.050994, 9.803990,1,0
1778254665832,   531.022,   531.017, 0.029970,-0.009274,-0.995250, 0.000298,-0.000095,-0.009951, 0.057742,-0.005452, 0.043366,1, 0.005606,-0.000482, 0.001049,1,-0.236258, 0.085700, 9.803429,1,0
1778254665858,   531.042,   531.042, 0.030209,-0.010016,-0.996578, 0.000301,-0.000096,-0.009964, 0.060033,-0.011542, 0.030328,1, 0.006118,-0.000807, 0.000540,1,-0.236190, 0.086871, 9.803420,1,0
1778254665880,   531.067,   531.062, 0.029239,-0.010535,-0.994482, 0.000294,-0.000104,-0.009944, 0.054956,-0.015739, 0.043835,1, 0.006455,-0.000390,-0.000083,1,-0.236175, 0.088055, 9.803411,1,0
1778254665902,   531.092,   531.087, 0.028076,-0.010228,-0.995217, 0.000281,-0.000101,-0.009951, 0.039210,-0.010746, 0.043654,1, 0.005873, 0.000197, 0.000657,1,-0.236128, 0.089743, 9.803396,1,0
1778254665928,   531.112,   531.112, 0.026918,-0.009694,-0.996305, 0.000270,-0.000097,-0.009966, 0.027913,-0.004348, 0.032971,1, 0.005821,-0.000248, 0.000011,1,-0.236058, 0.090898, 9.803387,1,0
1778254665950,   531.137,   531.132, 0.025849,-0.012323,-0.995404, 0.000259,-0.000121,-0.009955, 0.025930,-0.016919, 0.034035,1, 0.004493,-0.000433, 0.000118,1,-0.235951, 0.091771, 9.803382,1,0
1778254665973,   531.162,   531.157, 0.026478,-0.010433,-0.995293, 0.000265,-0.000107,-0.009954, 0.023789,-0.009612, 0.042888,1, 0.003933,-0.000723, 0.000594,1,-0.235847, 0.092821, 9.803374,1,0
1778254665998,   531.182,   531.182, 0.027013,-0.009300,-0.996478, 0.000268,-0.000093,-0.009965, 0.029144, 0.002128, 0.031255,1, 0.002270, 0.000012, 0.000364,1,-0.235765, 0.093396, 9.803370,1,0
1778254666020,   531.207,   531.202, 0.026219,-0.011160,-0.995777, 0.000262,-0.000111,-0.009959, 0.022489,-0.012926, 0.033320,1, 0.003688,-0.000501, 0.000585,1,-0.235709, 0.094175, 9.803365,1,0
1778254666043,   531.232,   531.227, 0.025670,-0.010463,-0.996099, 0.000254,-0.000105,-0.009957, 0.014838,-0.006920, 0.034931,1, 0.004517, 0.000494, 0.000190,1,-0.236930, 0.095831, 9.803319,1,0
1778254666068,   531.252,   531.252, 0.025669,-0.010778,-0.995662, 0.000256,-0.000107,-0.009958, 0.014860,-0.009165, 0.039206,1, 0.004298,-0.000242, 0.000082,1,-0.236864, 0.096669, 9.803312,1,0
1778254666090,   531.277,   531.272, 0.026093,-0.010953,-0.995260, 0.000261,-0.000110,-0.009953, 0.020774,-0.015290, 0.039743,1, 0.002771, 0.000237, 0.000580,1,-0.236845, 0.097250, 9.803308,1,0
1778254666117,   531.302,   531.302, 0.026936,-0.010491,-0.995947, 0.000268,-0.000105,-0.009960, 0.027340,-0.004623, 0.036394,1, 0.003498,-0.000083, 0.000911,1,-0.236812, 0.098368, 9.803297,1,0
1778254666138,   531.322,   531.322, 0.026880,-0.010805,-0.995760, 0.000272,-0.000108,-0.009958, 0.026854,-0.006972, 0.038222,1, 0.004022, 0.000422, 0.000519,1,-0.236763, 0.099114, 9.803290,1,0
1778254666160,   531.347,   531.342, 0.026891,-0.011559,-0.995547, 0.000268,-0.000115,-0.009958, 0.025399,-0.012775, 0.039804,1, 0.003379,-0.000488, 0.000412,1,-0.236730, 0.099743, 9.803285,1,0
1778254666187,   531.372,   531.372, 0.026362,-0.010613,-0.995925, 0.000264,-0.000105,-0.009960, 0.021694,-0.003362, 0.036586,1, 0.004101, 0.000156, 0.000451,1,-0.236836, 0.100843, 9.803271,1,0
1778254666208,   531.397,   531.392, 0.027033,-0.011445,-0.995361, 0.000271,-0.000114,-0.009954, 0.027696,-0.006924, 0.038670,1, 0.004117,-0.000599, 0.000019,1,-0.236801, 0.101673, 9.803264,1,0
1778254666230,   531.417,   531.412, 0.026268,-0.010941,-0.995210, 0.000259,-0.000108,-0.009952, 0.021282,-0.005161, 0.042714,1, 0.004594,-0.000180, 0.000107,1,-0.236753, 0.102525, 9.803256,1,0
1778254666257,   531.442,   531.442, 0.026639,-0.011581,-0.995508, 0.000265,-0.000114,-0.009954, 0.023700,-0.009683, 0.040628,1, 0.004207,-0.000522, 0.000088,1,-0.237523, 0.104024, 9.803221,1,0
1778254666279,   531.467,   531.462, 0.026402,-0.013010,-0.995646, 0.000265,-0.000129,-0.009955, 0.020386,-0.019088, 0.033967,1, 0.003301,-0.000198, 0.000401,1,-0.237442, 0.104763, 9.803215,1,0
1778254666300,   531.487,   531.482, 0.026531,-0.011687,-0.995594, 0.000267,-0.000117,-0.009953, 0.020230,-0.016403, 0.042908,1, 0.002731,-0.000445, 0.000176,1,-0.237438, 0.105399, 9.803208,1,0
1778254666327,   531.512,   531.512, 0.026925,-0.011954,-0.995810, 0.000270,-0.000117,-0.009958, 0.026615,-0.011093, 0.037638,1, 0.002639,-0.000200,-0.000154,1,-0.237425, 0.106219, 9.803200,1,0
1778254666349,   531.537,   531.532, 0.026746,-0.012441,-0.995864, 0.000268,-0.000124,-0.009960, 0.026720,-0.016772, 0.037921,1, 0.002775,-0.000792, 0.000412,1,-0.237354, 0.106755, 9.803196,1,0
1778254666370,   531.557,   531.552, 0.026497,-0.012296,-0.995304, 0.000266,-0.000122,-0.009953, 0.020679,-0.012061, 0.038866,1, 0.002870,-0.000138, 0.000797,1,-0.237303, 0.107318, 9.803191,1,0
1778254666397,   531.582,   531.582, 0.026023,-0.011881,-0.994990, 0.000261,-0.000122,-0.009948, 0.017849,-0.008384, 0.045663,1, 0.002412, 0.000426, 0.000075,1,-0.237360, 0.108205, 9.803180,1,0
1778254666419,   531.607,   531.602, 0.024654,-0.012201,-0.996226, 0.000250,-0.000120,-0.009960, 0.011431,-0.009361, 0.038116,1, 0.003360, 0.000833, 0.000431,1,-0.237423, 0.108763, 9.803172,1,0
1778254666440,   531.627,   531.622, 0.024183,-0.011993,-0.995700, 0.000242,-0.000118,-0.009957,-0.000349,-0.006719, 0.034355,1, 0.002310, 0.000333, 0.000131,1,-0.238220, 0.109608, 9.803144,1,0
1778254666467,   531.652,   531.652, 0.023989,-0.012837,-0.995692, 0.000238,-0.000129,-0.009954,-0.003045,-0.015635, 0.038728,1, 0.001585,-0.000429,-0.000052,1,-0.238279, 0.110307, 9.803134,1,0
1778254666489,   531.677,   531.672, 0.025505,-0.012295,-0.995520, 0.000255,-0.000124,-0.009956, 0.009293,-0.010332, 0.043157,1, 0.001677,-0.000321, 0.000281,1,-0.238269, 0.110678, 9.803130,1,0
1778254666510,   531.692,   531.692, 0.026352,-0.012780,-0.995697, 0.000263,-0.000127,-0.009955, 0.020162,-0.014639, 0.038677,1, 0.000194,-0.000056, 0.000695,1,-0.238258, 0.110693, 9.803130,1,0
1778254666537,   531.722,   531.722, 0.027413,-0.013469,-0.996109, 0.000273,-0.000135,-0.009959, 0.030612,-0.021435, 0.034641,1,-0.000493,-0.000585, 0.000621,1,-0.238199, 0.110638, 9.803132,1,0
1778254666559,   531.747,   531.742, 0.028104,-0.012661,-0.994763, 0.000283,-0.000128,-0.009948, 0.038175,-0.014146, 0.039886,1,-0.001403,-0.000091, 0.001219,1,-0.238215, 0.110406, 9.803135,1,0
1778254666580,   531.767,   531.762, 0.027845,-0.011682,-0.995444, 0.000281,-0.000120,-0.009956, 0.036883,-0.010789, 0.040362,1,-0.001516, 0.000084, 0.000250,1,-0.238164, 0.110132, 9.803139,1,0
1778254666607,   531.792,   531.792, 0.027599,-0.011119,-0.995798, 0.000279,-0.000111,-0.009958, 0.032329, 0.000637, 0.037696,1,-0.001625, 0.000250, 0.000375,1,-0.238336, 0.109623, 9.803141,1,0
1778254666629,   531.817,   531.812, 0.026473,-0.012660,-0.995771, 0.000264,-0.000122,-0.009958, 0.020015,-0.006575, 0.037810,1,-0.001547,-0.000585, 0.000680,1,-0.238372, 0.109368, 9.803143,1,0
1778254666652,   531.837,   531.837, 0.027413,-0.012264,-0.996023, 0.000275,-0.000122,-0.009960, 0.029860,-0.010677, 0.035473,1, 0.000302,-0.000292,-0.000057,1,-0.238959, 0.109605, 9.803125,1,0
1778254666678,   531.862,   531.862, 0.027242,-0.011534,-0.995497, 0.000273,-0.000118,-0.009958, 0.028143,-0.003420, 0.040634,1, 0.000254,-0.000089, 0.000157,1,-0.239009, 0.109695, 9.803123,1,0
1778254666699,   531.887,   531.882, 0.026657,-0.011534,-0.995835, 0.000267,-0.000116,-0.009956, 0.021874,-0.010359, 0.042619,1, 0.000510, 0.000027,-0.000544,1,-0.239043, 0.109689, 9.803123,1,0
1778254666722,   531.907,   531.907, 0.026269,-0.012020,-0.995616, 0.000262,-0.000119,-0.009957, 0.018469,-0.007892, 0.039457,1, 0.000033, 0.000188, 0.000463,1,-0.239148, 0.109981, 9.803117,1,0
1778254666748,   531.932,   531.932, 0.025512,-0.012506,-0.995733, 0.000255,-0.000126,-0.009958, 0.010960,-0.012601, 0.038310,1, 0.000110, 0.000444, 0.000119,1,-0.239237, 0.110042, 9.803114,1,0
1778254666769,   531.957,   531.952, 0.025299,-0.011820,-0.995670, 0.000251,-0.000122,-0.009953, 0.008374,-0.001338, 0.044083,1, 0.000394, 0.000428, 0.000290,1,-0.239337, 0.110159, 9.803110,1,0
1778254666792,   531.977,   531.977, 0.025864,-0.012538,-0.996228, 0.000257,-0.000123,-0.009962, 0.014205,-0.012656, 0.033449,1,-0.000117,-0.000063, 0.000401,1,-0.239432, 0.110293, 9.803106,1,0
1778254666818,   532.002,   532.002, 0.026585,-0.012331,-0.995849, 0.000264,-0.000124,-0.009960, 0.021296,-0.010497, 0.037162,1, 0.000235,-0.000159, 0.000240,1,-0.239410, 0.110439, 9.803105,1,0
1778254666839,   532.027,   532.022, 0.027168,-0.012424,-0.995290, 0.000269,-0.000124,-0.009952, 0.026330,-0.005256, 0.039815,1,-0.000708, 0.000719, 0.001058,1,-0.240088, 0.110667, 9.803086,1,0
1778254666862,   532.047,   532.047, 0.027291,-0.012342,-0.995839, 0.000274,-0.000123,-0.009958, 0.027456,-0.010408, 0.037239,1, 0.000640, 0.000841, 0.000220,1,-0.240205, 0.110648, 9.803083,1,0
1778254666888,   532.072,   532.072, 0.027345,-0.012195,-0.995194, 0.000273,-0.000126,-0.009954, 0.027918,-0.008812, 0.043559,1, 0.000659, 0.000697, 0.000478,1,-0.240265, 0.110805, 9.803080,1,0
1778254666909,   532.097,   532.092, 0.028255,-0.011284,-0.995845, 0.000281,-0.000116,-0.009961, 0.026514,-0.004353, 0.037521,1, 0.001184,-0.000064, 0.000241,1,-0.240322, 0.111088, 9.803076,1,0
1778254666932,   532.117,   532.117, 0.028432,-0.012148,-0.996345, 0.000286,-0.000121,-0.009965, 0.038505,-0.007569, 0.032263,1, 0.001786, 0.000595,-0.000173,1,-0.240333, 0.111617, 9.803069,1,0
1778254666958,   532.142,   532.142, 0.027775,-0.013895,-0.994666, 0.000278,-0.000139,-0.009946, 0.031980,-0.024422, 0.048719,1, 0.002094, 0.000934, 0.000597,1,-0.240428, 0.111906, 9.803063,1,0
1778254666979,   532.167,   532.162, 0.027168,-0.011984,-0.995652, 0.000275,-0.000118,-0.009955, 0.025734,-0.002774, 0.043002,1, 0.000192, 0.000304,-0.000104,1,-0.240551, 0.112042, 9.803059,1,0
1778254667002,   532.192,   532.187, 0.025946,-0.012764,-0.996231, 0.000262,-0.000127,-0.009968, 0.013883,-0.012803, 0.033364,1, 0.001876, 0.000018,-0.000024,1,-0.240559, 0.112423, 9.803055,1,0
1778254667028,   532.212,   532.212, 0.025483,-0.012438,-0.994868, 0.000257,-0.000123,-0.009944, 0.009277,-0.009348, 0.046725,1, 0.000865,-0.000023, 0.000080,1,-0.240627, 0.112655, 9.803050,1,0
1778254667050,   532.237,   532.232, 0.024524,-0.014717,-0.994427, 0.000245,-0.000147,-0.009943,-0.001643,-0.002152, 0.053208,1,-0.000749, 0.000510, 0.001156,1,-0.241597, 0.112937, 9.803023,1,0
1778254667072,   532.262,   532.257, 0.024976,-0.010485,-0.997780, 0.000246,-0.000107,-0.009976, 0.003349, 0.010227, 0.018138,1, 0.000914,-0.000399, 0.000268,1,-0.241572, 0.113079, 9.803022,1,0
1778254667098,   532.282,   532.282, 0.026280,-0.013126,-0.996087, 0.000262,-0.000126,-0.009965, 0.016191,-0.015462, 0.034748,1, 0.001297,-0.000391, 0.000724,1,-0.241515, 0.113306, 9.803020,1,0
1778254667120,   532.307,   532.302, 0.026236,-0.012536,-0.994424, 0.000263,-0.000132,-0.009939, 0.015944,-0.033962, 0.056921,1, 0.000738, 0.000080,-0.000210,1,-0.241520, 0.113545, 9.803018,1,0
1778254667142,   532.332,   532.327, 0.026133,-0.010796,-0.997669, 0.000262,-0.000108,-0.009973, 0.014788, 0.007947, 0.019225,1, 0.000714,-0.001439, 0.000578,1,-0.241445, 0.113846, 9.803017,1,0
1778254667168,   532.352,   532.352, 0.026804,-0.013500,-0.996268, 0.000268,-0.000135,-0.009969, 0.021427,-0.018436, 0.032966,1, 0.000784, 0.000076,-0.000261,1,-0.241437, 0.113977, 9.803015,1,0
1778254667190,   532.377,   532.372, 0.027328,-0.013004,-0.994661, 0.000274,-0.000130,-0.009948, 0.030467,-0.020729, 0.051899,1, 0.000398, 0.000340, 0.000108,1,-0.241502, 0.114017, 9.803013,1,0
1778254667213,   532.402,   532.397, 0.028330,-0.013193,-0.996126, 0.000282,-0.000132,-0.009963, 0.036298,-0.015563, 0.034352,1,-0.001262, 0.000278, 0.000323,1,-0.241528, 0.113772, 9.803015,1,0
1778254667238,   532.422,   532.422, 0.027438,-0.012725,-0.995768, 0.000277,-0.000126,-0.009959, 0.027013,-0.010920, 0.037854,1,-0.001270, 0.000883,-0.000042,1,-0.242159, 0.113872, 9.802999,1,0
1778254667260,   532.447,   532.442, 0.027221,-0.012972,-0.995121, 0.000273,-0.000131,-0.009952, 0.034686,-0.015439, 0.044050,1,-0.000970, 0.000079, 0.000333,1,-0.242220, 0.113678, 9.802999,1,0
1778254667283,   532.472,   532.467, 0.027093,-0.011351,-0.996516, 0.000269,-0.000117,-0.009966, 0.023412, 0.002218, 0.030519,1,-0.001309, 0.000083, 0.000397,1,-0.242283, 0.113490, 9.802999,1,0
1778254667308,   532.492,   532.492, 0.025666,-0.012265,-0.995217, 0.000258,-0.000121,-0.009955, 0.009401,-0.006960, 0.043255,1,-0.001507, 0.000733, 0.000661,1,-0.242318, 0.113270, 9.803001,1,0
1778254667330,   532.517,   532.512, 0.024873,-0.012258,-0.996131, 0.000250,-0.000121,-0.009961, 0.005575,-0.009113, 0.044872,1,-0.002262, 0.000208, 0.000473,1,-0.242367, 0.112932, 9.803004,1,0
1778254667357,   532.542,   532.542, 0.025949,-0.011124,-0.995740, 0.000258,-0.000113,-0.009960, 0.012037, 0.003683, 0.038131,1,-0.000014, 0.001296,-0.000229,1,-0.242475, 0.112771, 9.803003,1,0
1778254667378,   532.562,   532.562, 0.025552,-0.011676,-0.995302, 0.000254,-0.000117,-0.009954, 0.008102,-0.001741, 0.042425,1, 0.000635,-0.000359, 0.000998,1,-0.242466, 0.112780, 9.803003,1,0
1778254667400,   532.587,   532.582, 0.026635,-0.012034,-0.995408, 0.000265,-0.000119,-0.009954, 0.011711, 0.001547, 0.040265,1, 0.001066, 0.000337,-0.000099,1,-0.242483, 0.112998, 9.803000,1,0
1778254667427,   532.612,   532.612, 0.026624,-0.012605,-0.995191, 0.000267,-0.000127,-0.009954, 0.018521,-0.010279, 0.043509,1, 0.001557, 0.000035, 0.000649,1,-0.242572, 0.113381, 9.802994,1,0
1778254667449,   532.637,   532.632, 0.026908,-0.011488,-0.995531, 0.000269,-0.000115,-0.009957, 0.024155,-0.003409, 0.039074,1, 0.001887, 0.000306, 0.000229,1,-0.243126, 0.113976, 9.802973,1,0
1778254667470,   532.657,   532.652, 0.027461,-0.011051,-0.995576, 0.000276,-0.000110,-0.009955, 0.031101, 0.008710, 0.038681,1, 0.003551,-0.000169, 0.000327,1,-0.243072, 0.114545, 9.802968,1,0
1778254667497,   532.677,   532.682, 0.027255,-0.012344,-0.995237, 0.000275,-0.000125,-0.009954, 0.024124,-0.005492, 0.043010,1, 0.004496,-0.000130, 0.000195,1,-0.243149, 0.115698, 9.802953,1,0
1778254667519,   532.707,   532.702, 0.026749,-0.012272,-0.995741, 0.000268,-0.000118,-0.009957, 0.022168,-0.000691, 0.042436,1, 0.004025,-0.000611, 0.000548,1,-0.243053, 0.116621, 9.802944,1,0
1778254667540,   532.727,   532.722, 0.026999,-0.012762,-0.995706, 0.000270,-0.000127,-0.009958, 0.023938,-0.008189, 0.037560,1, 0.004482,-0.000461, 0.000583,1,-0.243023, 0.117432, 9.802935,1,0
1778254667567,   532.752,   532.752, 0.027102,-0.012706,-0.995120, 0.000270,-0.000128,-0.009950, 0.022803,-0.005967, 0.044126,1, 0.005364,-0.000487, 0.000933,1,-0.242963, 0.118802, 9.802920,1,0
1778254667589,   532.777,   532.772, 0.026621,-0.012904,-0.995851, 0.000267,-0.000127,-0.009958, 0.016719, 0.000500, 0.036860,1, 0.004801, 0.000178, 0.000612,1,-0.242927, 0.119743, 9.802910,1,0
1778254667610,   532.797,   532.792, 0.026642,-0.014165,-0.995903, 0.000265,-0.000140,-0.009960, 0.018913,-0.012662, 0.038333,1, 0.005013, 0.000754, 0.000221,1,-0.242978, 0.120712, 9.802896,1,0
1778254667637,   532.822,   532.822, 0.025755,-0.012167,-0.996175, 0.000259,-0.000122,-0.009960, 0.009148, 0.002845, 0.033732,1, 0.004741,-0.000234, 0.000215,1,-0.243514, 0.122336, 9.802863,1,0
1778254667659,   532.847,   532.842, 0.026242,-0.014525,-0.995684, 0.000263,-0.000145,-0.009957, 0.005195,-0.011094, 0.041065,1, 0.005003,-0.000575, 0.000300,1,-0.243443, 0.123290, 9.802853,1,0
1778254667680,   532.867,   532.862, 0.026966,-0.013859,-0.995540, 0.000269,-0.000139,-0.009955, 0.014512,-0.012935, 0.042774,1, 0.005419,-0.000872,-0.000084,1,-0.243319, 0.124359, 9.802842,1,0
1778254667707,   532.892,   532.892, 0.026798,-0.012806,-0.995198, 0.000268,-0.000128,-0.009952, 0.019491, 0.000183, 0.043267,1, 0.003764, 0.000185, 0.000647,1,-0.243310, 0.125885, 9.802823,1,0
1778254667729,   532.917,   532.912, 0.026995,-0.015112,-0.994826, 0.000270,-0.000152,-0.009949, 0.016651,-0.015012, 0.044146,1, 0.004137, 0.000105, 0.000767,1,-0.243300, 0.126642, 9.802814,1,0
1778254667750,   532.937,   532.932, 0.026714,-0.013843,-0.995664, 0.000268,-0.000139,-0.009958, 0.022094,-0.017823, 0.036102,1, 0.003812, 0.000243,-0.000500,1,-0.243312, 0.127410, 9.802803,1,0
1778254667777,   532.962,   532.962, 0.026329,-0.014110,-0.995485, 0.000263,-0.000139,-0.009956, 0.014885,-0.010059, 0.040413,1, 0.002671,-0.000380, 0.001180,1,-0.243306, 0.128399, 9.802791,1,0
1778254667799,   532.987,   532.982, 0.026319,-0.014541,-0.995732, 0.000264,-0.000146,-0.009956, 0.010194,-0.021680, 0.042824,1, 0.003658,-0.000873,-0.000503,1,-0.243192, 0.129056, 9.802785,1,0
1778254667820,   533.007,   533.002, 0.026747,-0.014361,-0.995423, 0.000267,-0.000143,-0.009953, 0.018311,-0.007503, 0.033107,1, 0.002620,-0.000174,-0.000321,1,-0.243251, 0.129584, 9.802776,1,0
1778254667847,   533.032,   533.032, 0.026396,-0.013729,-0.994924, 0.000265,-0.000138,-0.009950, 0.015090,-0.004239, 0.045881,1, 0.001277, 0.000406, 0.001366,1,-0.243782, 0.130439, 9.802752,1,0
1778254667869,   533.057,   533.052, 0.025320,-0.013969,-0.996298, 0.000256,-0.000140,-0.009963, 0.007381,-0.006390, 0.040348,1, 0.001561, 0.000056, 0.000160,1,-0.243865, 0.130731, 9.802746,1,0
1778254667892,   533.077,   533.077, 0.025291,-0.014416,-0.995732, 0.000253,-0.000142,-0.009958, 0.004192,-0.010426, 0.037951,1, 0.000772,-0.000035,-0.000024,1,-0.243823, 0.130971, 9.802744,1,0
1778254667918,   533.102,   533.102, 0.025914,-0.014084,-0.995853, 0.000257,-0.000142,-0.009955, 0.010296,-0.007140, 0.036759,1, 0.000484,-0.000433, 0.000182,1,-0.243824, 0.130991, 9.802743,1,1
1778254667939,   533.127,   533.122, 0.026473,-0.014002,-0.995884, 0.000264,-0.000136,-0.009958, 0.009248,-0.004652, 0.035198,1,-0.000003, 0.001444,-0.000153,1,-0.243984, 0.131074, 9.802738,1,1
1778254667962,   533.147,   533.147, 0.025671,-0.014666,-0.995336, 0.000258,-0.000147,-0.009954, 0.007688,-0.012700, 0.041822,1,-0.000120, 0.000563, 0.000680,1,-0.244072, 0.131125, 9.802735,1,1
1778254667988,   533.172,   533.172, 0.026758,-0.014872,-0.995228, 0.000267,-0.000149,-0.009954, 0.018249,-0.014760, 0.042883,1,-0.000009,-0.000027,-0.000150,1,-0.244159, 0.131082, 9.802733,1,1
1778254668009,   533.197,   533.192, 0.027789,-0.014354,-0.995730, 0.000280,-0.000144,-0.009958, 0.027907,-0.007933, 0.038055,1,-0.001444,-0.000049, 0.000574,1,-0.244217, 0.130878, 9.802735,1,1
1778254668032,   533.217,   533.217, 0.027764,-0.015638,-0.995390, 0.000278,-0.000155,-0.009954, 0.027561,-0.022977, 0.041290,1,-0.003184, 0.000102, 0.000550,1,-0.244778, 0.130320, 9.802729,1,1
1778254668058,   533.242,   533.242, 0.027943,-0.014007,-0.996124, 0.000278,-0.000141,-0.009957, 0.029218,-0.007511, 0.034096,1,-0.002472,-0.000240,-0.000095,1,-0.244801, 0.129773, 9.802735,1,1
1778254668079,   533.267,   533.262, 0.026986,-0.014008,-0.995694, 0.000269,-0.000139,-0.009955, 0.024027,-0.003611, 0.034903,1,-0.003806,-0.000623, 0.000403,1,-0.244741, 0.129048, 9.802746,1,1
1778254668102,   533.287,   533.287, 0.026827,-0.014183,-0.995741, 0.000267,-0.000143,-0.009958, 0.018313,-0.011046, 0.037872,1,-0.003976, 0.000586, 0.000176,1,-0.244787, 0.127916, 9.802760,1,1
1778254668128,   533.312,   533.312, 0.025860,-0.013539,-0.995267, 0.000260,-0.000136,-0.009953, 0.008851,-0.005480, 0.042536,1,-0.003643, 0.000714,-0.000199,1,-0.244773, 0.127174, 9.802770,1,1
1778254668149,   533.337,   533.332, 0.025704,-0.012799,-0.995294, 0.000257,-0.000130,-0.009954, 0.008528,-0.007966, 0.047051,1,-0.003323,-0.000107, 0.000156,1,-0.244764, 0.126852, 9.802774,1,1
1778254668172,   533.357,   533.357, 0.024700,-0.013315,-0.996031, 0.000247,-0.000133,-0.009960,-0.002749,-0.004762, 0.035052,1,-0.001569, 0.000609,-0.000184,1,-0.244995, 0.125764, 9.802782,1,1
1778254668198,   533.382,   533.382, 0.025315,-0.013812,-0.996051, 0.000249,-0.000139,-0.009959, 0.003286,-0.010007, 0.034862,1,-0.002432,-0.000252,-0.000595,1,-0.244959, 0.125369, 9.802789,1,1
1778254668219,   533.407,   533.402, 0.025820,-0.012356,-0.995711, 0.000259,-0.000121,-0.009954, 0.004988, 0.002474, 0.036746,1,-0.001609, 0.000741,-0.000280,1,-0.245072, 0.124997, 9.802791,1,1
1778254668242,   533.432,   533.427, 0.025138,-0.013776,-0.995568, 0.000251,-0.000137,-0.009956, 0.001056,-0.010279, 0.039593,1,-0.001579, 0.000762,-0.000452,1,-0.245496, 0.124773, 9.802783,1,1
1778254668268,   533.452,   533.452, 0.026109,-0.013977,-0.995192, 0.000261,-0.000141,-0.009953, 0.010524,-0.012489, 0.043288,1,-0.001637, 0.000517,-0.000924,1,-0.245530, 0.124522, 9.802785,1,1
1778254668290,   533.477,   533.472, 0.026511,-0.012247,-0.995585, 0.000264,-0.000124,-0.009956, 0.010430, 0.001541, 0.034296,1,-0.001478, 0.000478,-0.000458,1,-0.245638, 0.124188, 9.802787,1,1
1778254668312,   533.502,   533.497, 0.027422,-0.013070,-0.995288, 0.000274,-0.000128,-0.009953, 0.023324,-0.004368, 0.042346,1,-0.001722,-0.000232, 0.000272,1,-0.245590, 0.123755, 9.802794,1,1
1778254668338,   533.522,   533.522, 0.027766,-0.012970,-0.995584, 0.000276,-0.000129,-0.009955, 0.026660,-0.003631, 0.039447,1,-0.001792, 0.000471,-0.000039,1,-0.245644, 0.123507, 9.802795,1,1
1778254668360,   533.547,   533.542, 0.028429,-0.014157,-0.995557, 0.000283,-0.000141,-0.009957, 0.032851,-0.012128, 0.034536,1,-0.001277, 0.000505,-0.000007,1,-0.245612, 0.123281, 9.802798,1,1
1778254668382,   533.572,   533.567, 0.027869,-0.013405,-0.995347, 0.000278,-0.000136,-0.009956, 0.027600,-0.008464, 0.041785,1,-0.001294, 0.000929,-0.000480,1,-0.245734, 0.122956, 9.802799,1,1
1778254668408,   533.592,   533.592, 0.027044,-0.013082,-0.995621, 0.000269,-0.000130,-0.009960, 0.019340,-0.005572, 0.039095,1,-0.001992, 0.001324,-0.000496,1,-0.245909, 0.122658, 9.802799,1,1
1778254668430,   533.617,   533.612, 0.026553,-0.012906,-0.996193, 0.000264,-0.000130,-0.009960, 0.010783,-0.001139, 0.036766,1,-0.001610,-0.000096, 0.000129,1,-0.245965, 0.122229, 9.802803,1,1
1778254668453,   533.642,   533.637, 0.026331,-0.012660,-0.995734, 0.000266,-0.000129,-0.009957, 0.011513,-0.002195, 0.037974,1,-0.001489, 0.000281, 0.000473,1,-0.246717, 0.121911, 9.802788,1,1
1778254668478,   533.662,   533.662, 0.026463,-0.012764,-0.995902, 0.000265,-0.000127,-0.009960, 0.012744,-0.003528, 0.036328,1,-0.002720, 0.000492, 0.000589,1,-0.246784, 0.121559, 9.802791,1,1
1778254668500,   533.687,   533.682, 0.027165,-0.012624,-0.995870, 0.000268,-0.000126,-0.009959, 0.015158,-0.001517, 0.036759,1,-0.001559, 0.000668, 0.000268,1,-0.246871, 0.121204, 9.802793,1,1
1778254668523,   533.712,   533.707, 0.026945,-0.012591,-0.995583, 0.000268,-0.000128,-0.009958, 0.017456,-0.002536, 0.039464,1, 0.000044,-0.000271, 0.000759,1,-0.246775, 0.120946, 9.802798,1,1
1778254668548,   533.732,   533.732, 0.025969,-0.011865,-0.995420, 0.000260,-0.000121,-0.009952, 0.007890, 0.004578, 0.041061,1,-0.000765,-0.000209, 0.001113,1,-0.246771, 0.120911, 9.802799,1,1
1778254668570,   533.757,   533.752, 0.024348,-0.011891,-0.996244, 0.000246,-0.000118,-0.009961, 0.004991, 0.000990, 0.037712,1,-0.001888, 0.000383, 0.000644,1,-0.246820, 0.120692, 9.802800,1,1
1778254668597,   533.782,   533.782, 0.024585,-0.012083,-0.996355, 0.000245,-0.000118,-0.009959,-0.005878, 0.002412, 0.031892,1, 0.000859,-0.000023, 0.001398,1,-0.246975, 0.120931, 9.802794,1,1
1778254668618,   533.802,   533.802, 0.025154,-0.012429,-0.995835, 0.000252,-0.000123,-0.009961,-0.000303,-0.000700, 0.036980,1, 0.001161,-0.000347, 0.001068,1,-0.246973, 0.121225, 9.802790,1,1
1778254668640,   533.827,   533.822, 0.028137,-0.012393,-0.995730, 0.000280,-0.000126,-0.009955, 0.014020,-0.006597, 0.038780,1, 0.003636,-0.000279, 0.000991,1,-0.247219, 0.121839, 9.802776,1,1
1778254668667,   533.852,   533.852, 0.028984,-0.012108,-0.995501, 0.000290,-0.000120,-0.009958, 0.037140, 0.004140, 0.040239,1, 0.004499,-0.000287, 0.000627,1,-0.247082, 0.123020, 9.802765,1,1
1778254668689,   533.877,   533.872, 0.028406,-0.013137,-0.995263, 0.000285,-0.000131,-0.009954, 0.037708,-0.011283, 0.038776,1, 0.006132,-0.000224, 0.000509,1,-0.247029, 0.124121, 9.802752,1,1
1778254668710,   533.897,   533.892, 0.027182,-0.012882,-0.995818, 0.000271,-0.000128,-0.009957, 0.028999, 0.002036, 0.042858,1, 0.007071, 0.000723,-0.000013,1,-0.247154, 0.125435, 9.802732,1,1
1778254668737,   533.922,   533.922, 0.026959,-0.013398,-0.996578, 0.000269,-0.000131,-0.009964, 0.017303,-0.003969, 0.029617,1, 0.008486,-0.000256, 0.000144,1,-0.247065, 0.127682, 9.802706,1,1
1778254668759,   533.947,   533.942, 0.026105,-0.013610,-0.994804, 0.000261,-0.000135,-0.009948, 0.007189,-0.002820, 0.041202,1, 0.009574, 0.000146,-0.000046,1,-0.246895, 0.129404, 9.802688,1,1
1778254668780,   533.967,   533.962, 0.025817,-0.013637,-0.995354, 0.000258,-0.000135,-0.009952, 0.006703,-0.003704, 0.038848,1, 0.009473, 0.000005, 0.000735,1,-0.246935, 0.131209, 9.802663,1,1
1778254668807,   533.992,   533.992, 0.026085,-0.013808,-0.996269, 0.000261,-0.000136,-0.009963, 0.008913,-0.001648, 0.032572,1, 0.009669,-0.000508, 0.000795,1,-0.246877, 0.134061, 9.802626,1,1
1778254668829,   534.017,   534.012, 0.025193,-0.014991,-0.995795, 0.000254,-0.000146,-0.009956, 0.003090,-0.004001, 0.035360,1, 0.009921,-0.000941, 0.000829,1,-0.246817, 0.135957, 9.802601,1,1
1778254668850,   534.037,   534.032, 0.025276,-0.014664,-0.995591, 0.000251,-0.000146,-0.009955, 0.000304,-0.005187, 0.044230,1, 0.009407,-0.000344, 0.000811,1,-0.247247, 0.137875, 9.802563,1,1
1778254668877,   534.062,   534.062, 0.026439,-0.014544,-0.996008, 0.000263,-0.000144,-0.009961, 0.012105,-0.002508, 0.035032,1, 0.008236, 0.000375, 0.001051,1,-0.247186, 0.140375, 9.802529,1,1
1778254668899,   534.087,   534.082, 0.026400,-0.016448,-0.995303, 0.000265,-0.000165,-0.009955, 0.012795,-0.013346, 0.043211,1, 0.007234, 0.000281, 0.001088,1,-0.247127, 0.141837, 9.802509,1,1
1778254668920,   534.107,   534.102, 0.026380,-0.016361,-0.995541, 0.000265,-0.000163,-0.009955, 0.006904,-0.022064, 0.042680,1, 0.006149,-0.000307, 0.001210,1,-0.247093, 0.143092, 9.802492,1,1
1778254668947,   534.132,   534.132, 0.026409,-0.015836,-0.995924, 0.000264,-0.000158,-0.009957, 0.014934,-0.008281, 0.041988,1, 0.005666, 0.000182, 0.000828,1,-0.247009, 0.144923, 9.802467,1,1
1778254668969,   534.157,   534.152, 0.027366,-0.016521,-0.995344, 0.000273,-0.000166,-0.009954, 0.022561,-0.010790, 0.043038,1, 0.004796,-0.001008, 0.000674,1,-0.246877, 0.145929, 9.802456,1,1
1778254668990,   534.177,   534.172, 0.026837,-0.016758,-0.995469, 0.000269,-0.000168,-0.009954, 0.022145,-0.019823, 0.043009,1, 0.004814,-0.000822, 0.000515,1,-0.246797, 0.146902, 9.802444,1,1
1778254669017,   534.202,   534.202, 0.025627,-0.015964,-0.995761, 0.000256,-0.000162,-0.009954, 0.004449,-0.008743, 0.037353,1, 0.003078, 0.001463, 0.001135,1,-0.246909, 0.147909, 9.802425,1,1
1778254669039,   534.227,   534.222, 0.024949,-0.016283,-0.995294, 0.000250,-0.000164,-0.009953, 0.002675,-0.008965, 0.042453,1, 0.003075, 0.000454, 0.000266,1,-0.247337, 0.148889, 9.802400,1,1
1778254669061,   534.247,   534.242, 0.025235,-0.016676,-0.994954, 0.000255,-0.000165,-0.009950,-0.002551,-0.009528, 0.042772,1, 0.003516,-0.000877, 0.000792,1,-0.247209, 0.149588, 9.802392,1,1
1778254669087,   534.272,   534.272, 0.024777,-0.016355,-0.996106, 0.000249,-0.000164,-0.009960,-0.004388,-0.010191, 0.033911,1, 0.002173, 0.000804, 0.001461,1,-0.247392, 0.150266, 9.802378,1,1
1778254669109,   534.297,   534.292, 0.026555,-0.016445,-0.995879, 0.000266,-0.000161,-0.009962, 0.003620,-0.007668, 0.041604,1, 0.001279,-0.000705, 0.000433,1,-0.247328, 0.150563, 9.802375,1,1
1778254669132,   534.317,   534.317, 0.027024,-0.017717,-0.995350, 0.000271,-0.000177,-0.009957, 0.017777,-0.022924, 0.041319,1, 0.000800, 0.000687, 0.001015,1,-0.247258, 0.150842, 9.802372,1,1
1778254669158,   534.342,   534.342, 0.027826,-0.017541,-0.996168, 0.000277,-0.000175,-0.009958, 0.025685,-0.021108, 0.033305,1, 0.000054,-0.000007, 0.000190,1,-0.247195, 0.150910, 9.802372,1,1
1778254669179,   534.367,   534.362, 0.028281,-0.016774,-0.995402, 0.000284,-0.000167,-0.009956, 0.025416,-0.010197, 0.041755,1,-0.000641, 0.000567, 0.000067,1,-0.247221, 0.150807, 9.802373,1,1
1778254669202,   534.387,   534.387, 0.027827,-0.016848,-0.995747, 0.000277,-0.000170,-0.009956, 0.025700,-0.014800, 0.037434,1,-0.001532, 0.000692,-0.000262,1,-0.247214, 0.150370, 9.802381,1,1
1778254669228,   534.412,   534.412, 0.027693,-0.016533,-0.995458, 0.000279,-0.000164,-0.009956, 0.024299,-0.012173, 0.040278,1,-0.002965, 0.000455, 0.000503,1,-0.247295, 0.149864, 9.802386,1,1
1778254669249,   534.437,   534.432, 0.027686,-0.015729,-0.995089, 0.000277,-0.000159,-0.009951, 0.021467,-0.009943, 0.045841,1,-0.003278, 0.000162,-0.000307,1,-0.247697, 0.149578, 9.802381,1,1
1778254669272,   534.457,   534.457, 0.026876,-0.016515,-0.995791, 0.000270,-0.000164,-0.009956, 0.015842,-0.013494, 0.037019,1,-0.005312,-0.001145, 0.000047,1,-0.247686, 0.148301, 9.802400,1,1
1778254669298,   534.482,   534.482, 0.027717,-0.017126,-0.995375, 0.000275,-0.000173,-0.009955, 0.024111,-0.020337, 0.041112,1,-0.004304, 0.000528, 0.000611,1,-0.247720, 0.147478, 9.802411,1,1
1778254669319,   534.507,   534.502, 0.028267,-0.014439,-0.995284, 0.000283,-0.000145,-0.009954, 0.023139,-0.002008, 0.042491,1,-0.004163, 0.000042, 0.000227,1,-0.247794, 0.146665, 9.802422,1,1
1778254669342,   534.527,   534.527, 0.027238,-0.015662,-0.995483, 0.000276,-0.000157,-0.009953, 0.019241,-0.008102, 0.040086,1,-0.004461,-0.000546,-0.000046,1,-0.247857, 0.145346, 9.802440,1,1
1778254669368,   534.552,   534.552, 0.026373,-0.015585,-0.996247, 0.000265,-0.000156,-0.009962, 0.010693,-0.008145, 0.032600,1,-0.004829, 0.000093, 0.000364,1,-0.247944, 0.144545, 9.802449,1,1
1778254669389,   534.577,   534.572, 0.025181,-0.014070,-0.996214, 0.000252,-0.000139,-0.009961, 0.001029, 0.003614, 0.030275,1,-0.003262,-0.000010, 0.000098,1,-0.247937, 0.143811, 9.802461,1,1
1778254669412,   534.597,   534.597, 0.025488,-0.014285,-0.995096, 0.000256,-0.000142,-0.009952, 0.002023, 0.003160, 0.043912,1,-0.000699, 0.000329, 0.000156,1,-0.247939, 0.143229, 9.802469,1,1
1778254669438,   534.622,   534.622, 0.024936,-0.014205,-0.996054, 0.000250,-0.000141,-0.009960,-0.003864, 0.003826, 0.034505,1,-0.001119, 0.000804, 0.000870,1,-0.248493, 0.143119, 9.802457,1,1
1778254669459,   534.647,   534.642, 0.025397,-0.013769,-0.995603, 0.000255,-0.000134,-0.009956,-0.002675, 0.010661, 0.039608,1, 0.000645, 0.000188, 0.000321,1,-0.248568, 0.143109, 9.802455,1,1
1778254669482,   534.672,   534.667, 0.026167,-0.013706,-0.995656, 0.000264,-0.000135,-0.009959, 0.008077, 0.008918, 0.038398,1, 0.001788,-0.000255, 0.000679,1,-0.248525, 0.143380, 9.802452,1,1
1778254669508,   534.692,   534.692, 0.025855,-0.013829,-0.995392, 0.000258,-0.000139,-0.009954, 0.005175, 0.008041, 0.040987,1, 0.001906,-0.000183, 0.001027,1,-0.248366, 0.143713, 9.802451,1,1
1778254669530,   534.717,   534.712, 0.025611,-0.015337,-0.995191, 0.000254,-0.000153,-0.009953, 0.003172, 0.001211, 0.033960,1, 0.001905, 0.000581, 0.001640,1,-0.248376, 0.144064, 9.802445,1,1
1778254669552,   534.742,   534.737, 0.026477,-0.015402,-0.995596, 0.000264,-0.000153,-0.009953, 0.011327,-0.006361, 0.038979,1, 0.003019,-0.000793, 0.001998,1,-0.248297, 0.144781, 9.802437,1,1
1778254669578,   534.762,   534.762, 0.026946,-0.014644,-0.995559, 0.000268,-0.000146,-0.009955, 0.016049, 0.001600, 0.039332,1, 0.003360,-0.001115, 0.001688,1,-0.248163, 0.145316, 9.802432,1,1
1778254669600,   534.787,   534.782, 0.025060,-0.015409,-0.994261, 0.000256,-0.000151,-0.009948, 0.013629,-0.005723, 0.044060,1, 0.001956,-0.000053, 0.002042,1,-0.248188, 0.145750, 9.802425,1,1
1778254669622,   534.812,   534.807, 0.024336,-0.017340,-0.994863, 0.000244,-0.000182,-0.009954,-0.009713,-0.023964, 0.046146,1, 0.001100, 0.000423, 0.001476,1,-0.248383, 0.146119, 9.802415,1,1
1778254669648,   534.832,   534.832, 0.024851,-0.014978,-0.996537, 0.000248,-0.000151,-0.009964,-0.004847,-0.000393, 0.029718,1, 0.002696,-0.000669, 0.001182,1,-0.248530, 0.146581, 9.802404,1,1
1778254669670,   534.857,   534.852, 0.024946,-0.015838,-0.995007, 0.000251,-0.000158,-0.009950, 0.001222, 0.000849, 0.039066,1, 0.000356,-0.000011, 0.001074,1,-0.248591, 0.146736, 9.802401,1,1
1778254669693,   534.882,   534.877, 0.024242,-0.016689,-0.994694, 0.000242,-0.000169,-0.009947,-0.011038,-0.016936, 0.047785,1,-0.001452, 0.000745, 0.002226,1,-0.248791, 0.146680, 9.802396,1,1
1778254669718,   534.902,   534.902, 0.024776,-0.014976,-0.996039, 0.000248,-0.000154,-0.009959,-0.005885,-0.000320, 0.034588,1,-0.000775,-0.000433, 0.001947,1,-0.248840, 0.146523, 9.802398,1,1
1778254669740,   534.927,   534.922, 0.026487,-0.015626,-0.995200, 0.000262,-0.000156,-0.009951, 0.002209,-0.000343, 0.026920,1,-0.001267, 0.000484, 0.001999,1,-0.248931, 0.146367, 9.802398,1,1
1778254669763,   534.952,   534.947, 0.026410,-0.016238,-0.994939, 0.000264,-0.000160,-0.009952, 0.009869,-0.013155, 0.045379,1,-0.000995, 0.000603, 0.002304,1,-0.249139, 0.146052, 9.802397,1,1
1778254669788,   534.972,   534.972, 0.027252,-0.016361,-0.995032, 0.000271,-0.000165,-0.009950, 0.018108,-0.014654, 0.044469,1,-0.001339,-0.000368, 0.001085,1,-0.249134, 0.145757, 9.802402,1,1
1778254669810,   534.997,   534.992, 0.028104,-0.015860,-0.995904, 0.000282,-0.000155,-0.009959, 0.024345,-0.011872, 0.030970,1,-0.000360, 0.000391, 0.001584,1,-0.249150, 0.145708, 9.802402,1,1
1778254669837,   535.022,   535.022, 0.028678,-0.015652,-0.994969, 0.000286,-0.000159,-0.009949, 0.031888,-0.007356, 0.045081,1, 0.001292, 0.000042, 0.000406,1,-0.249365, 0.146209, 9.802389,1,1
1778254669858,   535.042,   535.042, 0.028750,-0.014785,-0.995692, 0.000287,-0.000145,-0.009957, 0.032616, 0.001606, 0.037983,1, 0.002444,-0.000154,-0.000194,1,-0.249317, 0.146669, 9.802383,1,1
1778254669880,   535.067,   535.062, 0.026915,-0.016216,-0.995738, 0.000270,-0.000162,-0.009958, 0.016654,-0.004575, 0.037302,1, 0.003065, 0.000443, 0.000492,1,-0.249362, 0.147185, 9.802374,1,1
1778254669907,   535.092,   535.092, 0.027027,-0.016203,-0.995714, 0.000270,-0.000163,-0.009957, 0.015640,-0.010978, 0.037741,1, 0.002800,-0.001228, 0.000053,1,-0.249369, 0.148011, 9.802361,1,1
1778254669929,   535.117,   535.112, 0.028540,-0.014521,-0.994971, 0.000285,-0.000145,-0.009948, 0.023252,-0.000339, 0.040924,1, 0.002041,-0.000670, 0.000101,1,-0.249273, 0.148583, 9.802356,1,1
1778254669950,   535.137,   535.132, 0.029128,-0.016659,-0.995577, 0.000289,-0.000164,-0.009955, 0.029111,-0.002695, 0.043284,1, 0.002696,-0.000659, 0.000785,1,-0.249286, 0.149070, 9.802347,1,1
1778254669977,   535.162,   535.162, 0.028423,-0.016103,-0.995597, 0.000282,-0.000165,-0.009956, 0.029565,-0.008178, 0.038871,1, 0.002367,-0.000861, 0.000208,1,-0.249140, 0.149816, 9.802340,1,1
1778254669999,   535.187,   535.182, 0.026734,-0.015469,-0.995049, 0.000270,-0.000154,-0.009950, 0.020121, 0.001624, 0.041212,1, 0.002192,-0.000042, 0.000043,1,-0.249114, 0.150360, 9.802332,1,1
1778254670020,   535.207,   535.202, 0.026020,-0.015923,-0.995133, 0.000261,-0.000160,-0.009953, 0.007591,-0.003236, 0.040632,1, 0.003660, 0.000329, 0.000151,1,-0.249075, 0.150990, 9.802323,1,1
1778254670047,   535.232,   535.232, 0.025244,-0.015632,-0.995982, 0.000253,-0.000158,-0.009956,-0.002164,-0.001120, 0.035043,1, 0.004313, 0.000060, 0.000235,1,-0.249735, 0.152309, 9.802286,1,1
1778254670069,   535.257,   535.252, 0.024547,-0.015642,-0.995904, 0.000246,-0.000157,-0.009958,-0.010164,-0.002551, 0.043989,1, 0.002855, 0.000168, 0.001276,1,-0.249768, 0.152913, 9.802277,1,1
1778254670090,   535.277,   535.272, 0.026352,-0.016136,-0.996006, 0.000261,-0.000162,-0.009958, 0.004454,-0.006644, 0.032685,1, 0.002310,-0.000769, 0.000380,1,-0.249686, 0.153515, 9.802269,1,1
1778254670117,   535.302,   535.302, 0.026647,-0.016088,-0.994917, 0.000265,-0.000163,-0.009948, 0.011716,-0.003708, 0.045459,1, 0.001685,-0.001094, 0.000939,1,-0.249571, 0.154116, 9.802262,1,1
1778254670139,   535.327,   535.322, 0.026762,-0.016927,-0.995116, 0.000270,-0.000169,-0.009952, 0.009763,-0.004218, 0.037717,1, 0.001595,-0.000105, 0.001336,1,-0.249531, 0.154427, 9.802258,1,1
1778254670160,   535.347,   535.342, 0.026508,-0.015787,-0.995834, 0.000264,-0.000159,-0.009957, 0.011426,-0.009293, 0.032306,1, 0.002139,-0.000176, 0.000626,1,-0.249559, 0.154796, 9.802252,1,1
1778254670187,   535.372,   535.372, 0.026402,-0.015597,-0.995174, 0.000265,-0.000156,-0.009951, 0.009456, 0.002548, 0.042921,1, 0.002539,-0.000197, 0.000514,1,-0.249456, 0.155584, 9.802242,1,1
1778254670209,   535.397,   535.392, 0.026708,-0.016160,-0.995666, 0.000269,-0.000163,-0.009954, 0.017227, 0.001488, 0.037363,1, 0.003255,-0.000448,-0.000047,1,-0.249362, 0.156220, 9.802235,1,1
1778254670230,   535.417,   535.412, 0.025689,-0.015583,-0.996047, 0.000259,-0.000157,-0.009960, 0.012284,-0.002111, 0.037954,1, 0.002978,-0.000247, 0.000974,1,-0.249280, 0.156875, 9.802226,1,1
1778254670257,   535.442,   535.442, 0.025288,-0.016039,-0.995949, 0.000250,-0.000159,-0.009958,-0.001581, 0.000542, 0.035276,1, 0.003592, 0.000531, 0.001006,1,-0.249591, 0.157944, 9.802201,1,1
1778254670279,   535.467,   535.462, 0.026039,-0.016191,-0.995800, 0.000259,-0.000166,-0.009959,-0.001108,-0.001304, 0.045078,1, 0.004569, 0.000064, 0.000538,1,-0.249637, 0.158758, 9.802187,1,1
1778254670301,   535.487,   535.482, 0.026424,-0.016753,-0.995234, 0.000265,-0.000167,-0.009955, 0.006868,-0.005397, 0.033152,1, 0.005134,-0.000029, 0.000254,1,-0.249526, 0.159804, 9.802173,1,1
1778254670328,   535.512,   535.512, 0.027167,-0.017280,-0.995721, 0.000270,-0.000172,-0.009956, 0.017080,-0.008280, 0.037466,1, 0.005296,-0.000015, 0.000324,1,-0.249338, 0.161347, 9.802152,1,1
1778254670349,   535.537,   535.532, 0.028110,-0.017770,-0.995414, 0.000283,-0.000179,-0.009953, 0.021428,-0.012186, 0.040560,1, 0.005198, 0.000074, 0.000835,1,-0.249254, 0.162381, 9.802137,1,1
1778254670372,   535.557,   535.557, 0.028483,-0.017746,-0.995257, 0.000283,-0.000175,-0.009952, 0.030208,-0.010455, 0.041983,1, 0.004036,-0.000975, 0.000161,1,-0.249086, 0.163696, 9.802119,1,1
1778254670398,   535.582,   535.582, 0.028405,-0.018129,-0.995876, 0.000283,-0.000180,-0.009957, 0.029506,-0.013522, 0.035904,1, 0.003597, 0.000185, 0.000650,1,-0.249056, 0.164373, 9.802109,1,1
1778254670419,   535.607,   535.602, 0.027778,-0.018391,-0.995470, 0.000279,-0.000184,-0.009953, 0.030036,-0.016450, 0.044084,1, 0.003494, 0.000391, 0.000836,1,-0.249104, 0.165038, 9.802096,1,1
1778254670442,   535.627,   535.627, 0.028468,-0.018367,-0.995645, 0.000284,-0.000184,-0.009955, 0.029672,-0.014608, 0.038132,1,-0.000160, 0.000280, 0.000793,1,-0.249516, 0.165511, 9.802078,1,1
1778254670468,   535.652,   535.652, 0.029622,-0.017886,-0.995765, 0.000294,-0.000180,-0.009957, 0.040978,-0.010072, 0.036965,1,-0.001787,-0.000401, 0.000825,1,-0.249502, 0.165278, 9.802082,1,1
1778254670489,   535.677,   535.672, 0.029130,-0.018388,-0.995349, 0.000292,-0.000184,-0.009950, 0.042662,-0.014126, 0.043952,1,-0.001563, 0.000076, 0.000681,1,-0.249474, 0.164959, 9.802089,1,1
1778254670512,   535.697,   535.697, 0.028899,-0.018006,-0.995914, 0.000289,-0.000182,-0.009959, 0.033986,-0.012355, 0.035518,1,-0.004258, 0.000484, 0.001019,1,-0.249433, 0.164090, 9.802104,1,1
1778254670538,   535.722,   535.722, 0.027831,-0.018323,-0.995422, 0.000280,-0.000184,-0.009957, 0.023426,-0.016168, 0.040353,1,-0.003584, 0.000123, 0.000834,1,-0.249506, 0.163412, 9.802114,1,1
1778254670559,   535.747,   535.742, 0.027030,-0.017452,-0.995043, 0.000269,-0.000175,-0.009950, 0.016280,-0.017208, 0.043125,1,-0.002816, 0.000551, 0.000157,1,-0.249569, 0.162770, 9.802122,1,1
1778254670582,   535.767,   535.767, 0.025429,-0.016802,-0.995870, 0.000258,-0.000168,-0.009959,-0.000410,-0.002781, 0.035980,1,-0.002084, 0.001172,-0.000400,1,-0.249823, 0.161924, 9.802130,1,1
1778254670608,   535.792,   535.792, 0.024472,-0.017344,-0.995735, 0.000245,-0.000173,-0.009957,-0.009976,-0.008656, 0.037310,1,-0.003291, 0.000446, 0.000064,1,-0.249977, 0.161330, 9.802135,1,1
1778254670629,   535.817,   535.812, 0.020847,-0.019764,-0.996071, 0.000210,-0.000196,-0.009959,-0.034154,-0.019804, 0.037445,1,-0.002790, 0.000692,-0.000084,1,-0.250181, 0.160704, 9.802141,1,1
1778254670652,   535.837,   535.837, 0.017420,-0.019524,-0.995521, 0.000176,-0.000198,-0.009955,-0.080156,-0.030834, 0.039397,1,-0.000335, 0.001456,-0.003187,1,-0.251037, 0.160615, 9.802120,1,1
1778254670678,   535.862,   535.862, 0.016111,-0.017239,-0.995958, 0.000161,-0.000174,-0.009962,-0.093216,-0.008622, 0.035108,1,-0.001414, 0.000755,-0.003466,1,-0.251236, 0.160385, 9.802119,1,1
1778254670699,   535.887,   535.882, 0.018141,-0.016310,-0.995952, 0.000178,-0.000164,-0.009960,-0.085666,-0.005974, 0.033927,1,-0.004746, 0.000354,-0.002926,1,-0.251385, 0.159644, 9.802128,1,1
1778254670722,   535.912,   535.907, 0.020958,-0.015531,-0.995598, 0.000206,-0.000156,-0.009958,-0.045987, 0.004951, 0.038681,1,-0.013321, 0.000213,-0.000022,1,-0.251518, 0.156845, 9.802169,1,1
1778254670748,   535.932,   535.932, 0.025461,-0.015990,-0.994636, 0.000252,-0.000160,-0.009949,-0.001890,-0.002500, 0.048164,1,-0.017370, 0.001010, 0.001397,1,-0.251605, 0.153768, 9.802216,1,1
1778254670770,   535.957,   535.952, 0.031109,-0.014778,-0.995584, 0.000309,-0.000149,-0.009955, 0.032123,-0.004367, 0.040818,1,-0.020545, 0.001005, 0.002483,1,-0.251750, 0.149947, 9.802271,1,1
1778254670792,   535.982,   535.977, 0.035294,-0.013986,-0.995383, 0.000351,-0.000141,-0.009952, 0.094229, 0.006748, 0.040986,1,-0.024683, 0.000959, 0.004730,1,-0.251911, 0.143137, 9.802369,1,1
1778254670818,   536.002,   536.002, 0.039241,-0.013829,-0.994495, 0.000390,-0.000142,-0.009944, 0.132855, 0.003350, 0.049766,1,-0.025054, 0.000322, 0.005170,1,-0.251980, 0.138186, 9.802438,1,1
1778254670840,   536.027,   536.022, 0.040155,-0.011615,-0.994825, 0.000403,-0.000117,-0.009948, 0.145757, 0.015396, 0.045095,1,-0.024730,-0.000512, 0.006197,1,-0.251698, 0.133565, 9.802509,1,1
1778254670862,   536.052,   536.047, 0.039496,-0.015029,-0.995121, 0.000397,-0.000148,-0.009953, 0.135526,-0.020259, 0.043789,1,-0.024551, 0.000405, 0.007796,1,-0.251803, 0.126364, 9.802602,1,1
1778254670888,   536.072,   536.072, 0.040926,-0.016273,-0.995107, 0.000409,-0.000166,-0.009954, 0.149498,-0.037164, 0.043989,1,-0.023423, 0.001008, 0.005669,1,-0.251879, 0.121696, 9.802659,1,1
1778254670910,   536.097,   536.092, 0.041226,-0.014465,-0.994023, 0.000415,-0.000144,-0.009938, 0.157519,-0.028198, 0.050686,1,-0.021564, 0.000580, 0.004682,1,-0.252049, 0.117448, 9.802707,1,1
1778254670933,   536.122,   536.117, 0.040117,-0.013513,-0.994793, 0.000401,-0.000136,-0.009945, 0.141164,-0.020137, 0.047170,1,-0.018821, 0.000607, 0.003565,1,-0.252263, 0.111793, 9.802768,1,1
1778254670958,   536.142,   536.142, 0.038423,-0.013339,-0.997119, 0.000386,-0.000134,-0.009970, 0.124371,-0.022028, 0.024395,1,-0.018125, 0.001013, 0.002386,1,-0.252465, 0.108222, 9.802802,1,1
1778254670980,   536.167,   536.162, 0.035832,-0.012957,-0.994393, 0.000359,-0.000133,-0.009944, 0.109614,-0.030713, 0.046484,1,-0.020162, 0.001352, 0.002767,1,-0.252637, 0.104446, 9.802839,1,1
1778254671003,   536.192,   536.187, 0.034186,-0.012023,-0.992853, 0.000344,-0.000122,-0.009927, 0.082167,-0.019496, 0.066324,1,-0.025132, 0.001748, 0.004351,1,-0.253138, 0.097632, 9.802896,1,1
1778254671028,   536.212,   536.212, 0.030928,-0.011289,-0.997378, 0.000310,-0.000115,-0.009970, 0.049841,-0.017407, 0.021995,1,-0.027077, 0.002420, 0.004485,1,-0.253529, 0.092459, 9.802937,1,1
1778254671050,   536.237,   536.232, 0.025681,-0.012214,-0.996257, 0.000259,-0.000117,-0.009961, 0.022542,-0.014311, 0.024372,1,-0.029418, 0.004013, 0.004649,1,-0.254761, 0.087294, 9.802952,1,1
1778254671077,   536.262,   536.262, 0.025439,-0.017568,-0.995501, 0.000252,-0.000178,-0.009953,-0.005874,-0.093297, 0.040478,1,-0.034371, 0.000474, 0.002252,1,-0.255362, 0.077916, 9.803015,1,1
1778254671098,   536.282,   536.282, 0.031307,-0.017159,-0.997433, 0.000310,-0.000178,-0.009977, 0.051666,-0.096456, 0.021588,1,-0.038970,-0.000124, 0.001913,1,-0.255347, 0.070602, 9.803071,1,1
1778254671120,   536.307,   536.302, 0.040288,-0.008961,-0.992018, 0.000401,-0.000091,-0.009918, 0.117592,-0.044772, 0.060770,1,-0.045911,-0.000046, 0.002154,1,-0.255384, 0.061927, 9.803128,1,1
1778254671147,   536.332,   536.332, 0.043509,-0.006561,-0.995222, 0.000432,-0.000069,-0.009952, 0.170989,-0.015570, 0.043401,1,-0.052221, 0.001535, 0.002541,1,-0.255736, 0.047149, 9.803202,1,1
1778254671169,   536.357,   536.352, 0.043937,-0.009614,-0.996891, 0.000439,-0.000099,-0.009972, 0.179819,-0.051597, 0.019472,1,-0.052437, 0.001984, 0.001603,1,-0.256111, 0.036811, 9.803236,1,1
1778254671190,   536.377,   536.372, 0.042080,-0.003551,-0.995533, 0.000422,-0.000043,-0.009956, 0.164910,-0.041907, 0.041803,1,-0.049769, 0.002707,-0.000008,1,-0.256585, 0.026755, 9.803256,1,1
1778254671217,   536.402,   536.402, 0.040172, 0.003997,-0.995480, 0.000404, 0.000033,-0.009951, 0.136601, 0.053631, 0.040941,1,-0.045119, 0.002423,-0.000563,1,-0.257426, 0.013023, 9.803262,1,1
1778254671239,   536.427,   536.422, 0.036628, 0.004518,-0.993640, 0.000369, 0.000046,-0.009941, 0.115996, 0.060383, 0.050059,1,-0.039906, 0.002718, 0.000020,1,-0.258602, 0.005657, 9.803238,1,1
1778254671260,   536.447,   536.442, 0.032308, 0.005897,-0.992868, 0.000324, 0.000053,-0.009929, 0.078171, 0.038232, 0.065851,1,-0.035893, 0.003206, 0.000459,1,-0.259177,-0.001529, 9.803225,1,1
1778254671287,   536.472,   536.472, 0.029262, 0.003533,-0.996289, 0.000295, 0.000038,-0.009962, 0.026926, 0.024647, 0.032937,1,-0.029634, 0.003304, 0.001416,1,-0.260144,-0.010920, 9.803193,1,1
1778254671309,   536.497,   536.492, 0.022042,-0.000831,-0.998181, 0.000225,-0.000011,-0.009985,-0.024062,-0.035200, 0.009199,1,-0.025452, 0.002104,-0.000091,1,-0.260551,-0.016214, 9.803175,1,1
1778254671330,   536.517,   536.512, 0.017926, 0.003917,-0.995619, 0.000179, 0.000037,-0.009956,-0.065732,-0.002624, 0.022811,1,-0.021118, 0.002466,-0.001676,1,-0.261030,-0.020665, 9.803154,1,1
1778254671357,   536.542,   536.542, 0.016028, 0.005112,-0.994590, 0.000159, 0.000051,-0.009946,-0.104199, 0.024814, 0.049541,1,-0.015562, 0.001261,-0.002431,1,-0.261422,-0.025809, 9.803131,1,1
1778254671379,   536.567,   536.562, 0.018775,-0.002602,-0.998808, 0.000186,-0.000025,-0.009987,-0.087050,-0.026809, 0.030571,1,-0.015387,-0.000404,-0.003947,1,-0.261295,-0.028756, 9.803126,1,1
1778254671400,   536.587,   536.582, 0.019764,-0.002772,-0.997585, 0.000199,-0.000032,-0.009980,-0.064737,-0.072571, 0.004902,1,-0.017255,-0.001272,-0.004250,1,-0.261081,-0.032030, 9.803122,1,1
1778254671427,   536.612,   536.612, 0.018849, 0.000290,-0.993187, 0.000191, 0.000000,-0.009931,-0.076320,-0.034960, 0.063259,1,-0.026127, 0.001506,-0.004148,1,-0.261216,-0.038624, 9.803094,1,1
1778254671449,   536.637,   536.632, 0.015639, 0.000456,-0.996406, 0.000158, 0.000001,-0.009964,-0.100823,-0.042109, 0.049492,1,-0.033733, 0.002221,-0.003250,1,-0.261160,-0.044854, 9.803069,1,1
1778254671470,   536.657,   536.652, 0.014745, 0.002612,-0.997703, 0.000147, 0.000021,-0.009975,-0.115276,-0.043960, 0.015714,1,-0.041550, 0.002572,-0.001896,1,-0.261800,-0.052618, 9.803014,1,1
1778254671497,   536.682,   536.682, 0.048276, 0.014173,-0.941581, 0.000473, 0.000008,-0.009636, 0.210942, 0.075002, 0.569167,1,-0.044742, 0.000189,-0.002901,1,-0.262486,-0.065385, 9.802918,1,1
1778254671519,   536.707,   536.702, 0.063014, 0.019743,-0.973019, 0.000713, 0.000372,-0.009708, 0.489553, 0.692399, 0.351600,1,-0.043915, 0.012389,-0.004464,1,-0.264400,-0.075126, 9.802797,1,1
1778254671541,   536.727,   536.722,-0.028759,-0.044309,-1.016429,-0.000307,-0.000500,-0.010130,-0.245016,-0.528925,-0.032345,1,-0.035413, 0.016388, 0.003222,1,-0.267355,-0.083391, 9.802650,1,1
1778254671568,   536.752,   536.752,-0.021227, 0.070258,-0.976603,-0.000202, 0.000667,-0.009780,-0.479535, 0.599104, 0.225281,1,-0.019732, 0.014457, 0.007212,1,-0.271824,-0.090502, 9.802464,1,1
1778254671589,   536.777,   536.772,-0.062935,-0.006731,-1.059168,-0.000608,-0.000024,-0.010494,-0.757617, 0.287568,-0.230962,1,-0.016410, 0.018753,-0.001176,1,-0.275162,-0.093556, 9.802342,1,1
1778254671612,   536.797,   536.797,-0.014151, 0.001583,-1.094009,-0.000155,-0.000033,-0.011046,-0.415998,-0.079286,-0.926295,1, 0.004894,-0.008157, 0.004169,1,-0.276969,-0.094655, 9.802281,1,1
1778254671638,   536.822,   536.822, 0.021463, 0.026020,-0.942730, 0.000179, 0.000275,-0.009493,-0.064188, 0.163072, 0.557347,1, 0.019865,-0.009701,-0.001880,1,-0.274322,-0.091617, 9.802384,1,1
1778254671659,   536.847,   536.842, 0.053283,-0.002847,-0.947037, 0.000539,-0.000023,-0.009401, 0.230577, 0.026795, 0.993808,1, 0.012201,-0.008596, 0.002116,1,-0.272367,-0.088132, 9.802471,1,1
1778254671682,   536.867,   536.867, 0.042304,-0.007156,-1.032137, 0.000437,-0.000090,-0.010287, 0.140838,-0.156910,-0.319370,1, 0.000958, 0.014382, 0.004129,1,-0.274474,-0.086703, 9.802424,1,1
1778254671708,   536.892,   536.892, 0.005908, 0.024962,-1.025547, 0.000074, 0.000244,-0.010282,-0.218353, 0.157389,-0.254814,1,-0.005759, 0.008280, 0.006988,1,-0.276553,-0.087575, 9.802359,1,1
1778254671729,   536.912,   536.912, 0.016750, 0.009661,-1.012637, 0.000150, 0.000112,-0.010128,-0.112727, 0.006081,-0.128236,1,-0.006931,-0.002413, 0.005853,1,-0.276913,-0.088875, 9.802337,1,1
1778254671752,   536.937,   536.937, 0.047308, 0.000787,-0.980779, 0.000462,-0.000000,-0.009819, 0.188474,-0.082497, 0.184210,1,-0.005484,-0.003114, 0.004517,1,-0.275359,-0.090378, 9.802367,1,1
1778254671778,   536.962,   536.962, 0.052993, 0.013993,-0.979739, 0.000534, 0.000133,-0.009788, 0.244665, 0.045292, 0.194401,1,-0.011077,-0.002231, 0.007374,1,-0.274951,-0.092275, 9.802361,1,1
1778254671799,   536.987,   536.982, 0.044158, 0.007319,-0.994766, 0.000448, 0.000075,-0.009951, 0.193878,-0.007731, 0.039005,1,-0.011927, 0.002394, 0.007262,1,-0.275250,-0.094905, 9.802327,1,1
1778254671822,   537.007,   537.007, 0.034832, 0.013678,-0.994263, 0.000355, 0.000130,-0.009937, 0.065661, 0.036567, 0.051888,1,-0.009814, 0.001886, 0.009720,1,-0.275983,-0.097862, 9.802278,1,1
1778254671848,   537.032,   537.032, 0.033113, 0.012745,-1.004386, 0.000329, 0.000134,-0.010037, 0.047672, 0.025769,-0.047433,1,-0.006977, 0.000721, 0.009296,1,-0.277093,-0.099427, 9.802230,1,1
1778254671869,   537.057,   537.052, 0.043308, 0.010989,-0.993387, 0.000429, 0.000106,-0.009945, 0.103961, 0.002552,-0.010784,1,-0.004370,-0.000005, 0.010685,1,-0.277142,-0.100416, 9.802218,1,1
1778254671892,   537.077,   537.077, 0.054095, 0.019367,-0.984309, 0.000533, 0.000187,-0.009847, 0.253338, 0.089211, 0.149443,1, 0.001011, 0.000033, 0.010816,1,-0.277162,-0.100674, 9.802216,1,1
1778254671918,   537.102,   537.102, 0.059802, 0.016566,-0.986764, 0.000592, 0.000172,-0.009865, 0.308991, 0.062149, 0.125358,1, 0.002308, 0.001906, 0.012985,1,-0.277530,-0.100221, 9.802210,1,1
1778254671940,   537.127,   537.122, 0.062188, 0.011224,-0.997357, 0.000624, 0.000114,-0.009965, 0.344172, 0.015847, 0.064012,1, 0.007892, 0.005217, 0.014167,1,-0.278399,-0.099000, 9.802197,1,1
1778254671962,   537.152,   537.147, 0.054942, 0.008846,-1.005629, 0.000554, 0.000092,-0.010055, 0.259014,-0.008946,-0.059658,1, 0.016268, 0.004562, 0.013339,1,-0.279934,-0.095180, 9.802192,1,1
1778254671988,   537.172,   537.172, 0.049982, 0.007996,-1.001037, 0.000501, 0.000084,-0.010022, 0.209632,-0.013156,-0.014612,1, 0.024304, 0.002739, 0.011231,1,-0.280613,-0.090806, 9.802214,1,1
1778254672010,   537.197,   537.192, 0.053736, 0.008873,-0.984298, 0.000540, 0.000096,-0.009837, 0.235219, 0.022526, 0.126728,1, 0.028746, 0.000686, 0.010815,1,-0.280850,-0.085527, 9.802255,1,1
1778254672032,   537.222,   537.217, 0.053466, 0.003165,-0.996842, 0.000534, 0.000038,-0.009963, 0.242982,-0.047250, 0.026619,1, 0.029399, 0.000958, 0.010748,1,-0.281423,-0.077468, 9.802305,1,1
1778254672058,   537.242,   537.242, 0.050046, 0.002930,-0.997039, 0.000507, 0.000028,-0.009973, 0.208944,-0.044094, 0.024720,1, 0.027197, 0.002845, 0.010703,1,-0.281927,-0.071968, 9.802333,1,1
1778254672080,   537.267,   537.262, 0.034036, 0.001734,-0.999860, 0.000347, 0.000018,-0.009998, 0.089278,-0.046536, 0.015601,1, 0.025070, 0.002887, 0.011266,1,-0.282680,-0.066774, 9.802347,1,1
1778254672102,   537.292,   537.287, 0.030054,-0.001259,-1.000320, 0.000305,-0.000007,-0.010005,-0.014188,-0.084852, 0.041835,1, 0.024388, 0.002985, 0.006185,1,-0.283539,-0.059578, 9.802369,1,1
1778254672128,   537.312,   537.312, 0.023116,-0.000283,-0.982968, 0.000232,-0.000004,-0.009832,-0.057306,-0.058798, 0.162750,1, 0.019384, 0.002957, 0.005952,1,-0.284090,-0.055416, 9.802378,1,1
1778254672150,   537.337,   537.332, 0.017375,-0.003821,-0.998512, 0.000178,-0.000038,-0.009982,-0.085994,-0.090195, 0.065374,1, 0.012862, 0.004414, 0.005277,1,-0.284853,-0.052502, 9.802371,1,1
1778254672173,   537.362,   537.357, 0.011507,-0.000850,-1.000220, 0.000115,-0.000011,-0.009999,-0.173502,-0.058811,-0.006473,1, 0.004330, 0.006796, 0.004498,1,-0.286565,-0.050336, 9.802333,1,1
1778254672198,   537.382,   537.382, 0.005813, 0.002129,-0.999511, 0.000060, 0.000020,-0.009996,-0.230403,-0.029355, 0.000457,1,-0.001811, 0.004263, 0.005062,1,-0.287546,-0.050288, 9.802304,1,1
1778254672220,   537.407,   537.402,-0.002888,-0.003276,-0.985592,-0.000026,-0.000033,-0.009862,-0.276774,-0.071792, 0.081255,1,-0.007246, 0.004835, 0.002635,1,-0.288483,-0.051383, 9.802271,1,1
1778254672243,   537.432,   537.422,-0.001930,-0.002112,-0.995605,-0.000023,-0.000019,-0.009937,-0.331403,-0.082310, 0.137490,1,-0.013468, 0.006425, 0.002024,1,-0.288775,-0.052724, 9.802256,1,1
1778254672268,   537.452,   537.452,-0.000158, 0.001235,-1.010488,-0.000000, 0.000008,-0.010105,-0.292038,-0.046010,-0.107331,1,-0.025305, 0.006419, 0.003599,1,-0.290693,-0.058907, 9.802164,1,1
1778254672290,   537.477,   537.472,-0.001255, 0.006192,-0.996042,-0.000014, 0.000060,-0.009965,-0.306358, 0.002191,-0.022772,1,-0.029617, 0.005598, 0.001927,1,-0.291886,-0.064362, 9.802094,1,1
1778254672317,   537.502,   537.502, 0.002852, 0.003254,-0.999462, 0.000025, 0.000036,-0.009989,-0.264988,-0.040806, 0.000628,1,-0.033989, 0.003394, 0.000401,1,-0.293065,-0.073778, 9.801992,1,1
1778254672338,   537.522,   537.522, 0.005728, 0.003253,-0.997493, 0.000058, 0.000026,-0.009979,-0.237372,-0.047690, 0.019862,1,-0.036968, 0.003370, 0.001865,1,-0.293654,-0.080738, 9.801920,1,1
1778254672360,   537.547,   537.542, 0.007864, 0.009537,-0.992846, 0.000077, 0.000096,-0.009930,-0.225989, 0.007039, 0.062292,1,-0.039519, 0.003662, 0.001686,1,-0.294437,-0.088273, 9.801831,1,1
1778254672387,   537.572,   537.572, 0.013402, 0.008750,-1.002815, 0.000131, 0.000083,-0.010021,-0.163877,-0.013211,-0.032558,1,-0.041282, 0.002483, 0.000417,1,-0.295381,-0.100311, 9.801687,1,1
1778254672409,   537.597,   537.592, 0.020269, 0.011189,-0.996560, 0.000203, 0.000110,-0.009976,-0.119536, 0.004853,-0.040034,1,-0.039383, 0.001703,-0.000167,1,-0.295804,-0.108221, 9.801590,1,1
1778254672430,   537.617,   537.612, 0.022049, 0.009198,-0.991592, 0.000222, 0.000091,-0.009913,-0.085979,-0.013304, 0.078089,1,-0.037231, 0.002086,-0.000694,1,-0.296228,-0.115680, 9.801493,1,1
1778254672457,   537.642,   537.642, 0.019854, 0.006629,-0.999516, 0.000200, 0.000066,-0.009991,-0.101898,-0.059742,-0.000531,1,-0.038147, 0.003236,-0.002334,1,-0.296701,-0.125942, 9.801352,1,1
1778254672479,   537.667,   537.662, 0.010479, 0.012713,-0.999550, 0.000106, 0.000123,-0.009998,-0.169143,-0.029107,-0.007684,1,-0.039544, 0.003377,-0.002737,1,-0.297399,-0.133598, 9.801229,1,1
1778254672500,   537.687,   537.682, 0.008005, 0.011313,-0.996736, 0.000083, 0.000115,-0.009967,-0.206702,-0.008992, 0.015618,1,-0.039287, 0.002230,-0.005239,1,-0.297879,-0.141367, 9.801105,1,1
1778254672527,   537.712,   537.712, 0.007001, 0.012098,-0.992805, 0.000072, 0.000119,-0.009927,-0.229481,-0.032489, 0.064857,1,-0.037067, 0.000819,-0.007129,1,-0.298163,-0.152297, 9.800933,1,1
1778254672549,   537.737,   537.732, 0.005992, 0.015104,-0.990562, 0.000057, 0.000147,-0.009917,-0.240666,-0.020351, 0.046031,1,-0.035186, 0.001645,-0.008235,1,-0.298430,-0.159311, 9.800814,1,1
1778254672570,   537.757,   537.752, 0.005729, 0.016620,-0.990032, 0.000054, 0.000162,-0.009882,-0.254315,-0.015276, 0.141144,1,-0.034668, 0.003515,-0.009524,1,-0.298824,-0.166198, 9.800687,1,1
1778254672597,   537.782,   537.782, 0.005270, 0.021572,-1.005990, 0.000052, 0.000214,-0.010061,-0.247778, 0.036628,-0.064878,1,-0.031731, 0.001655,-0.011479,1,-0.299503,-0.175922, 9.800497,1,1
1778254672619,   537.807,   537.802, 0.009479, 0.020459,-0.982274, 0.000087, 0.000202,-0.009830,-0.225446, 0.014269, 0.062108,1,-0.028881, 0.001976,-0.012017,1,-0.299895,-0.181822, 9.800377,1,1
1778254672640,   537.827,   537.822, 0.017841, 0.022847,-0.981076, 0.000173, 0.000227,-0.009793,-0.174684, 0.025100, 0.232523,1,-0.027492, 0.002517,-0.010435,1,-0.299894,-0.186905, 9.800282,1,1
1778254672667,   537.852,   537.852, 0.024948, 0.026988,-1.008174, 0.000244, 0.000265,-0.010073,-0.055988, 0.069992,-0.086702,1,-0.030361, 0.003013,-0.007409,1,-0.300730,-0.195624, 9.800085,1,1
1778254672689,   537.877,   537.872, 0.032419, 0.024045,-0.991436, 0.000319, 0.000242,-0.009924,-0.014521, 0.040394,-0.028565,1,-0.030054, 0.004002,-0.006223,1,-0.301429,-0.201620, 9.799943,1,1
1778254672710,   537.897,   537.892, 0.040479, 0.025262,-0.990438, 0.000398, 0.000249,-0.009900, 0.057341, 0.034886, 0.110174,1,-0.029793, 0.002959,-0.004581,1,-0.302051,-0.207490, 9.799801,1,1
1778254672737,   537.922,   537.922, 0.042035, 0.025374,-0.996667, 0.000421, 0.000250,-0.009962, 0.109577, 0.033688, 0.025654,1,-0.028040, 0.003317,-0.002681,1,-0.302749,-0.216020, 9.799595,1,1
1778254672759,   537.947,   537.942, 0.039184, 0.026581,-1.001605, 0.000391, 0.000264,-0.010020, 0.093360, 0.039323,-0.022099,1,-0.025195, 0.001873,-0.002809,1,-0.303207,-0.221184, 9.799466,1,1
1778254672781,   537.967,   537.962, 0.038996, 0.023298,-0.999172, 0.000386, 0.000232,-0.009992, 0.074487, 0.012399,-0.010659,1,-0.021522, 0.001613,-0.001892,1,-0.303531,-0.225668, 9.799354,1,1
1778254672808,   537.992,   537.992, 0.041093, 0.023376,-0.991148, 0.000412, 0.000234,-0.009917, 0.099125,-0.001064, 0.079389,1,-0.015409, 0.001555,-0.003709,1,-0.303906,-0.230789, 9.799223,1,1
1778254672829,   538.017,   538.012, 0.041432, 0.026815,-0.999225, 0.000414, 0.000266,-0.009983, 0.104553, 0.020370, 0.068321,1,-0.011967, 0.001696,-0.003181,1,-0.304210,-0.233325, 9.799153,1,1
1778254672852,   538.037,   538.037, 0.041609, 0.024290,-1.005645, 0.000414, 0.000243,-0.010060, 0.102831, 0.002041,-0.062954,1,-0.004979, 0.001400,-0.003540,1,-0.305253,-0.236320, 9.799048,1,1
1778254672878,   538.062,   538.062, 0.041465, 0.024689,-0.997115, 0.000417, 0.000246,-0.009981, 0.101463, 0.005236, 0.020682,1,-0.002208,-0.000765,-0.004345,1,-0.305145,-0.236953, 9.799037,1,1
1778254672899,   538.087,   538.082, 0.043017, 0.025062,-0.988043, 0.000431, 0.000255,-0.009881, 0.118835, 0.013252, 0.096636,1, 0.000351,-0.001296,-0.004783,1,-0.304914,-0.237093, 9.799041,1,1
1778254672922,   538.107,   538.107, 0.040634, 0.024792,-0.993845, 0.000406, 0.000248,-0.009932, 0.093913, 0.006387, 0.052765,1, 0.001796,-0.000852,-0.003879,1,-0.304546,-0.236687, 9.799062,1,1
1778254672948,   538.132,   538.132, 0.037695, 0.024675,-1.002200, 0.000375, 0.000247,-0.010017, 0.065285, 0.005755,-0.029150,1, 0.002907,-0.001766,-0.004700,1,-0.304314,-0.236135, 9.799083,1,1
1778254672969,   538.157,   538.152, 0.040868, 0.026593,-0.995081, 0.000408, 0.000268,-0.009955, 0.075888, 0.027461, 0.009034,1, 0.005745,-0.002630,-0.004364,1,-0.303898,-0.235173, 9.799119,1,1
1778254672992,   538.177,   538.177, 0.043572, 0.025413,-0.993336, 0.000433, 0.000254,-0.009930, 0.124120, 0.015967, 0.057886,1, 0.008382,-0.002101,-0.002966,1,-0.303104,-0.232995, 9.799195,1,1
1778254673018,   538.202,   538.202, 0.045301, 0.024347,-0.993241, 0.000453, 0.000245,-0.009934, 0.141567, 0.007325, 0.058878,1, 0.010196,-0.001719,-0.002365,1,-0.302628,-0.231127, 9.799254,1,1
1778254673039,   538.227,   538.222, 0.041103, 0.025990,-0.990460, 0.000415, 0.000259,-0.009897, 0.120200, 0.021193, 0.111633,1, 0.009168,-0.000606,-0.001559,1,-0.303070,-0.229757, 9.799273,1,1
1778254673062,   538.247,   538.247, 0.036709, 0.024636,-1.000373, 0.000369, 0.000250,-0.010001, 0.057082, 0.014061,-0.010980,1, 0.008669,-0.000913, 0.000925,1,-0.302878,-0.227262, 9.799336,1,1
1778254673088,   538.272,   538.272, 0.036541, 0.022278,-0.999539, 0.000364, 0.000224,-0.010003, 0.055668,-0.007434,-0.002755,1, 0.008503,-0.001533, 0.000999,1,-0.302633,-0.225644, 9.799381,1,1
1778254673109,   538.297,   538.292, 0.042890, 0.024199,-0.986326, 0.000425, 0.000241,-0.009864, 0.082961, 0.001628, 0.101187,1, 0.007372,-0.000961, 0.002263,1,-0.302378,-0.224132, 9.799424,1,1
1778254673132,   538.317,   538.317, 0.047758, 0.023156,-0.987760, 0.000475, 0.000235,-0.009877, 0.166362, 0.004841, 0.112867,1, 0.006255,-0.000684, 0.003125,1,-0.301965,-0.222044, 9.799484,1,1
1778254673158,   538.342,   538.342, 0.051134, 0.022911,-0.998004, 0.000511, 0.000229,-0.009972, 0.199360, 0.003727, 0.012432,1, 0.006500, 0.000987, 0.002561,1,-0.302125,-0.220747, 9.799509,1,1
1778254673180,   538.367,   538.362, 0.045791, 0.022663,-0.999605, 0.000461, 0.000227,-0.010003, 0.162736, 0.014225,-0.037701,1, 0.008943, 0.000430, 0.003249,1,-0.302280,-0.219132, 9.799541,1,1
1778254673202,   538.392,   538.387, 0.042054, 0.021160,-0.986622, 0.000424, 0.000214,-0.009871, 0.109998,-0.008635, 0.124144,1, 0.013226,-0.000717, 0.003151,1,-0.302393,-0.215727, 9.799612,1,1
1778254673228,   538.412,   538.412, 0.041156, 0.021439,-0.989783, 0.000413, 0.000216,-0.009889, 0.101255,-0.003273, 0.093204,1, 0.012967,-0.000188, 0.003799,1,-0.302346,-0.213112, 9.799671,1,1
1778254673250,   538.437,   538.432, 0.035632, 0.020665,-0.998391, 0.000361, 0.000207,-0.009983, 0.074687,-0.012170, 0.016406,1, 0.013020, 0.000650, 0.003575,1,-0.302987,-0.210785, 9.799702,1,1
1778254673272,   538.462,   538.457, 0.028634, 0.021152,-0.995493, 0.000291, 0.000213,-0.009956,-0.022293, 0.000017, 0.037315,1, 0.012747, 0.000434, 0.003008,1,-0.303115,-0.207008, 9.799778,1,1
1778254673298,   538.482,   538.482, 0.028622, 0.017840,-0.996824, 0.000286, 0.000179,-0.009965,-0.022432,-0.029643, 0.024324,1, 0.015338,-0.000133, 0.001330,1,-0.303116,-0.204112, 9.799839,1,1
1778254673320,   538.507,   538.502, 0.030375, 0.018854,-0.990976, 0.000304, 0.000188,-0.009914,-0.004527,-0.017238, 0.049371,1, 0.017063, 0.000237, 0.000275,1,-0.303126,-0.200929, 9.799905,1,1
1778254673343,   538.532,   538.527, 0.026940, 0.017998,-0.992482, 0.000276, 0.000181,-0.009917,-0.039269,-0.019876, 0.067065,1, 0.017879, 0.001569, 0.000452,1,-0.303512,-0.195814, 9.799996,1,1
1778254673368,   538.547,   538.552, 0.021281, 0.017429,-1.003311, 0.000218, 0.000178,-0.010032,-0.095066,-0.022106,-0.039079,1, 0.015949, 0.001736,-0.000528,1,-0.303819,-0.192525, 9.800052,1,1
1778254673390,   538.577,   538.572, 0.019760, 0.016427,-0.994068, 0.000195, 0.000168,-0.009945,-0.118787,-0.026142, 0.016408,1, 0.015586, 0.000948,-0.000917,1,-0.304064,-0.189392, 9.800105,1,1
1778254673413,   538.602,   538.597, 0.020819, 0.016360,-0.994514, 0.000209, 0.000165,-0.009939,-0.099955,-0.025745, 0.047315,1, 0.010120, 0.000001,-0.000420,1,-0.304115,-0.185869, 9.800171,1,1
1778254673438,   538.622,   538.622, 0.020874, 0.018166,-0.999710, 0.000209, 0.000182,-0.010000,-0.098766,-0.006037,-0.003587,1, 0.007819, 0.000441, 0.000138,1,-0.303366,-0.183879, 9.800232,1,1
1778254673460,   538.647,   538.642, 0.021387, 0.017150,-0.996189, 0.000213, 0.000170,-0.009958,-0.093118,-0.015569, 0.035663,1, 0.006529, 0.000512, 0.000677,1,-0.303532,-0.182601, 9.800250,1,1
1778254673483,   538.672,   538.667, 0.022706, 0.018344,-0.998839, 0.000225, 0.000184,-0.009989,-0.080774,-0.001379, 0.005017,1, 0.005325,-0.000056,-0.000900,1,-0.303437,-0.181110, 9.800282,1,1
1778254673508,   538.692,   538.692, 0.025628, 0.016853,-0.996603, 0.000254, 0.000171,-0.009969,-0.052064,-0.015074, 0.026955,1, 0.003535,-0.000310,-0.000938,1,-0.303380,-0.180237, 9.800299,1,1
1778254673530,   538.717,   538.712, 0.030745, 0.016332,-0.995462, 0.000304, 0.000161,-0.009954,-0.019442,-0.024669, 0.043190,1, 0.002968,-0.000670,-0.000069,1,-0.303222,-0.179576, 9.800316,1,1
1778254673557,   538.742,   538.742, 0.034687, 0.020073,-0.997860, 0.000344, 0.000200,-0.009979, 0.037099, 0.018112, 0.014668,1, 0.002864,-0.001049, 0.000417,1,-0.303034,-0.178645, 9.800339,1,1
1778254673578,   538.762,   538.762, 0.037374, 0.018873,-0.995416, 0.000372, 0.000192,-0.009955, 0.063668, 0.006951, 0.038655,1, 0.002858,-0.000016, 0.000462,1,-0.302850,-0.178038, 9.800356,1,1
1778254673600,   538.787,   538.782, 0.038953, 0.015303,-0.987864, 0.000388, 0.000151,-0.009876, 0.071596,-0.029861, 0.099258,1, 0.002709, 0.000269,-0.000078,1,-0.302926,-0.177541, 9.800363,1,1
1778254673627,   538.807,   538.812, 0.040633, 0.017682,-0.994069, 0.000408, 0.000176,-0.009937, 0.095267,-0.003642, 0.051875,1, 0.000372, 0.001181, 0.001164,1,-0.303241,-0.177030, 9.800362,1,1
1778254673649,   538.837,   538.832, 0.037955, 0.016704,-1.001985, 0.000381, 0.000167,-0.010023, 0.077940,-0.012357,-0.019362,1,-0.001290, 0.001451, 0.000946,1,-0.303248,-0.176938, 9.800364,1,1
1778254673670,   538.857,   538.852, 0.037267, 0.016286,-0.992914, 0.000370, 0.000164,-0.009936, 0.056622,-0.013368, 0.009098,1,-0.002074, 0.000366, 0.000940,1,-0.303370,-0.177286, 9.800353,1,1
1778254673697,   538.882,   538.882, 0.038298, 0.018514,-0.985255, 0.000381, 0.000184,-0.009851, 0.072069, 0.003815, 0.138284,1,-0.001277, 0.000804, 0.001160,1,-0.303537,-0.177780, 9.800339,1,1
1778254673719,   538.907,   538.902, 0.035582, 0.017467,-1.003373, 0.000358, 0.000176,-0.010032, 0.066891, 0.001905, 0.009620,1,-0.001461, 0.001160, 0.001803,1,-0.303762,-0.178060, 9.800327,1,1
1778254673740,   538.927,   538.922, 0.031884, 0.018627,-0.996252, 0.000321, 0.000186,-0.009975, 0.021110,-0.005158,-0.027915,1, 0.001496, 0.001259, 0.001613,1,-0.303999,-0.178054, 9.800320,1,1
1778254673767,   538.952,   538.952, 0.031236, 0.019270,-0.988930, 0.000310, 0.000193,-0.009886, 0.002138, 0.011715, 0.102237,1, 0.005012,-0.000007, 0.000444,1,-0.304187,-0.177102, 9.800331,1,1
1778254673789,   538.977,   538.972, 0.032233, 0.017638,-0.999829, 0.000323, 0.000177,-0.009997, 0.019015, 0.003898, 0.013329,1, 0.006311, 0.001075, 0.000189,1,-0.304331,-0.175994, 9.800346,1,1
1778254673810,   538.997,   538.992, 0.030933, 0.016502,-0.994682, 0.000311, 0.000168,-0.009953, 0.005720,-0.009502, 0.018041,1, 0.007892, 0.000519, 0.000608,1,-0.304394,-0.174704, 9.800367,1,1
1778254673837,   539.022,   539.022, 0.030904, 0.016764,-0.992156, 0.000307, 0.000168,-0.009920,-0.002300,-0.008033, 0.070654,1, 0.009117,-0.000160, 0.000396,1,-0.305518,-0.172134, 9.800378,1,1
1778254673859,   539.047,   539.042, 0.032420, 0.015710,-0.996581, 0.000326, 0.000161,-0.009961, 0.005015,-0.008734, 0.061981,1, 0.009066, 0.000594,-0.000459,1,-0.305593,-0.171285, 9.800391,1,1
1778254673880,   539.067,   539.062, 0.031267, 0.014665,-0.995942, 0.000312, 0.000146,-0.009965, 0.011849,-0.019974, 0.017637,1, 0.005828, 0.001008, 0.000335,1,-0.305893,-0.169275, 9.800416,1,1
1778254673907,   539.092,   539.092, 0.029054, 0.016787,-0.996581, 0.000294, 0.000169,-0.009962,-0.021408,-0.003220, 0.027303,1, 0.004873, 0.001008, 0.000243,1,-0.306364,-0.167697, 9.800428,1,1
1778254673929,   539.117,   539.112, 0.027788, 0.015169,-0.996372, 0.000275, 0.000151,-0.009969,-0.034254,-0.001793, 0.009892,1, 0.004078, 0.000850,-0.000031,1,-0.306452,-0.167267, 9.800433,1,1
1778254673950,   539.137,   539.132, 0.029811, 0.016516,-0.995218, 0.000299, 0.000162,-0.009950,-0.028984,-0.019002, 0.042087,1, 0.002469, 0.000798,-0.000140,1,-0.306646,-0.166451, 9.800441,1,1
1778254673977,   539.162,   539.162, 0.029378, 0.017765,-0.995325, 0.000296, 0.000177,-0.009954,-0.018586, 0.008266, 0.039640,1, 0.001781,-0.000266, 0.000945,1,-0.306681,-0.165896, 9.800449,1,1
1778254673999,   539.187,   539.182, 0.027123, 0.017011,-0.999482, 0.000269, 0.000169,-0.009990,-0.038352, 0.004786, 0.020675,1, 0.001603, 0.000608, 0.000585,1,-0.306801,-0.165694, 9.800449,1,1
1778254674021,   539.207,   539.202, 0.026500, 0.016955,-0.995440, 0.000264, 0.000172,-0.009957,-0.042534,-0.002115, 0.009558,1, 0.001044, 0.000071, 0.000709,1,-0.306735,-0.165424, 9.800456,1,1
1778254674048,   539.232,   539.232, 0.027989, 0.017499,-0.987240, 0.000279, 0.000176,-0.009874,-0.031785, 0.007012, 0.118968,1, 0.002864,-0.000452, 0.001140,1,-0.306247,-0.164502, 9.800487,1,1
1778254674069,   539.257,   539.252, 0.030373, 0.017347,-1.000802, 0.000303, 0.000172,-0.010006,-0.007846, 0.014164, 0.035950,1, 0.002387, 0.000211, 0.001107,1,-0.306337,-0.163953, 9.800493,1,1
1778254674092,   539.277,   539.277, 0.031807, 0.017135,-1.000862, 0.000317, 0.000170,-0.010013, 0.005429, 0.005200,-0.014594,1, 0.005146,-0.000109, 0.001002,1,-0.306484,-0.162671, 9.800509,1,1
1778254674118,   539.302,   539.302, 0.033949, 0.016537,-0.993204, 0.000335, 0.000168,-0.009938, 0.026475, 0.000468, 0.060521,1, 0.006704,-0.000452, 0.002377,1,-0.306435,-0.161488, 9.800530,1,1
1778254674139,   539.327,   539.322, 0.034782, 0.019242,-0.989880, 0.000344, 0.000191,-0.009898, 0.031012, 0.015921, 0.087565,1, 0.008535,-0.000570, 0.001195,1,-0.306336,-0.159864, 9.800561,1,1
1778254674162,   539.347,   539.347, 0.034710, 0.017991,-0.997383, 0.000351, 0.000180,-0.009968, 0.033922, 0.019302, 0.019617,1, 0.010823, 0.000283, 0.000982,1,-0.306473,-0.156790, 9.800606,1,1
1778254674188,   539.372,   539.372, 0.034162, 0.015873,-1.000901, 0.000342, 0.000160,-0.010010, 0.028538, 0.000873,-0.014851,1, 0.012539, 0.000110, 0.001449,1,-0.306477,-0.154400, 9.800644,1,1
1778254674209,   539.397,   539.392, 0.033079, 0.015795,-0.995294, 0.000331, 0.000162,-0.009953, 0.018314, 0.003614, 0.024723,1, 0.013255,-0.000311, 0.001722,1,-0.306437,-0.151851, 9.800685,1,1
1778254674232,   539.417,   539.417, 0.034054, 0.014051,-0.990747, 0.000338, 0.000142,-0.009904, 0.027345,-0.010407, 0.084825,1, 0.015461, 0.000589, 0.001203,1,-0.306678,-0.147749, 9.800740,1,1
1778254674258,   539.442,   539.442, 0.033911, 0.013627,-0.994548, 0.000341, 0.000139,-0.009944, 0.025886,-0.011498, 0.047592,1, 0.015439,-0.000200, 0.000779,1,-0.306661,-0.144653, 9.800787,1,1
1778254674279,   539.467,   539.462, 0.028864, 0.011627,-1.000510, 0.000289, 0.000119,-0.010004, 0.015797,-0.018094, 0.017008,1, 0.015815, 0.000347, 0.000680,1,-0.306646,-0.143073, 9.800810,1,1
1778254674302,   539.487,   539.487, 0.028069, 0.010955,-0.996253, 0.000278, 0.000111,-0.009970,-0.031118,-0.030630, 0.030984,1, 0.012428,-0.001718, 0.000410,1,-0.306324,-0.137675, 9.800898,1,1
1778254674328,   539.512,   539.512, 0.028218, 0.011466,-0.992738, 0.000283, 0.000116,-0.009931,-0.023867,-0.022146, 0.086708,1, 0.009310,-0.000084, 0.000757,1,-0.306146,-0.135635, 9.800932,1,1
1778254674349,   539.537,   539.532, 0.029660, 0.011425,-0.997978, 0.000296, 0.000114,-0.009979,-0.017918,-0.026417, 0.039245,1, 0.004816,-0.000619, 0.001214,1,-0.306061,-0.134399, 9.800951,1,1
1778254674372,   539.557,   539.557, 0.027265, 0.011967,-0.998398, 0.000273, 0.000120,-0.009985,-0.038561,-0.016362, 0.010020,1, 0.000188,-0.000410, 0.000890,1,-0.305926,-0.133707, 9.800965,1,1
1778254674398,   539.582,   539.582, 0.025550, 0.011061,-0.995548, 0.000257, 0.000113,-0.009954,-0.055306,-0.025347, 0.037971,1,-0.000968,-0.000130, 0.000917,1,-0.305865,-0.133846, 9.800965,1,1
1778254674420,   539.607,   539.602, 0.030077, 0.012749,-0.996349, 0.000298, 0.000125,-0.009965,-0.026646,-0.019175, 0.040292,1,-0.001164,-0.000436, 0.000125,1,-0.305852,-0.134074, 9.800962,1,1
1778254674442,   539.632,   539.627, 0.032040, 0.012923,-0.994189, 0.000321, 0.000129,-0.009942, 0.008674,-0.007488, 0.051305,1,-0.001729, 0.001132, 0.000576,1,-0.305560,-0.134272, 9.800969,1,1
1778254674468,   539.652,   539.652, 0.031771, 0.013258,-0.997148, 0.000319, 0.000130,-0.009966, 0.005940,-0.004513, 0.022285,1,-0.001991, 0.000329,-0.000333,1,-0.305636,-0.134588, 9.800962,1,1
1778254674490,   539.677,   539.672, 0.033333, 0.011982,-0.995951, 0.000329, 0.000120,-0.009969, 0.004863,-0.009003, 0.007476,1,-0.003642,-0.000318, 0.000120,1,-0.305759,-0.135185, 9.800950,1,1
1778254674512,   539.702,   539.697, 0.038142, 0.011958,-0.986747, 0.000376, 0.000118,-0.009869, 0.068217,-0.018920, 0.124246,1,-0.004956, 0.001195, 0.000640,1,-0.305868,-0.136346, 9.800931,1,1
1778254674538,   539.722,   539.722, 0.041657, 0.013703,-0.996924, 0.000415, 0.000135,-0.009962, 0.102516,-0.003048, 0.024426,1,-0.007231, 0.000400, 0.000743,1,-0.306014,-0.137648, 9.800908,1,1
1778254674560,   539.747,   539.742, 0.046242, 0.011530,-0.998558, 0.000462, 0.000114,-0.009992, 0.131557,-0.014384,-0.027237,1,-0.008009, 0.001698, 0.001087,1,-0.306256,-0.139172, 9.800879,1,1
1778254674583,   539.772,   539.767, 0.049468, 0.012879,-0.990371, 0.000492, 0.000126,-0.009910, 0.178567,-0.015047, 0.088619,1,-0.008476, 0.000605, 0.000445,1,-0.306566,-0.141608, 9.800834,1,1
1778254674608,   539.792,   539.792, 0.055994, 0.014695,-0.987237, 0.000556, 0.000145,-0.009870, 0.242524, 0.001239, 0.119324,1,-0.007695, 0.000843,-0.000256,1,-0.306617,-0.143110, 9.800811,1,0
1778254674630,   539.817,   539.812, 0.058920, 0.014985,-1.002231, 0.000592, 0.000147,-0.010024, 0.274301,-0.003535, 0.025903,1,-0.006535, 0.001191, 0.000791,1,-0.306797,-0.144568, 9.800784,1,0
1778254674653,   539.842,   539.837, 0.054326, 0.017792,-0.998090, 0.000547, 0.000174,-0.009991, 0.224885, 0.028815, 0.012811,1,-0.003297, 0.000955, 0.002019,1,-0.307907,-0.145770, 9.800731,1,0
1778254674678,   539.862,   539.862, 0.049032, 0.017494,-0.991406, 0.000495, 0.000175,-0.009914, 0.172870, 0.025635, 0.078351,1, 0.000849, 0.000216, 0.002112,1,-0.307979,-0.145891, 9.800727,1,0
1778254674700,   539.887,   539.882, 0.040073, 0.014976,-0.997735, 0.000406, 0.000154,-0.009977, 0.120912, 0.013666, 0.037475,1, 0.002600, 0.000605, 0.002568,1,-0.308089,-0.145584, 9.800728,1,0
1778254674723,   539.912,   539.907, 0.031086, 0.016747,-0.992089, 0.000318, 0.000167,-0.009927,-0.003408, 0.019770, 0.071672,1, 0.004238, 0.000875, 0.004149,1,-0.308291,-0.144322, 9.800740,1,0
1778254674748,   539.932,   539.932, 0.021853, 0.018291,-0.994715, 0.000226, 0.000183,-0.009939,-0.094134, 0.035944, 0.045926,1, 0.004794, 0.000256, 0.005024,1,-0.308450,-0.143279, 9.800751,1,0
1778254674770,   539.957,   539.952, 0.007388, 0.014829,-1.000926, 0.000077, 0.000150,-0.010015,-0.194401, 0.016173,-0.032484,1, 0.003341, 0.000505, 0.005292,1,-0.308499,-0.142507, 9.800760,1,0
1778254674797,   539.982,   539.982, 0.006097, 0.014798,-0.993238, 0.000058, 0.000146,-0.009935,-0.248782, 0.003292, 0.060427,1, 0.001826,-0.000458, 0.005269,1,-0.308566,-0.141768, 9.800769,1,0
1778254674819,   540.002,   540.002, 0.004541, 0.014259,-0.989292, 0.000046, 0.000146,-0.009900,-0.263955,-0.001616, 0.099136,1, 0.002109,-0.000822, 0.005791,1,-0.308460,-0.141378, 9.800778,1,0
1778254674840,   540.027,   540.022, 0.000873, 0.015712,-0.994310, 0.000012, 0.000158,-0.009940,-0.293446, 0.018067, 0.083062,1, 0.001080, 0.000968, 0.005438,1,-0.308302,-0.141541, 9.800780,1,0
1778254674867,   540.052,   540.052,-0.003822, 0.013548,-1.000992,-0.000035, 0.000139,-0.010010,-0.346139,-0.008372,-0.015603,1, 0.001401, 0.001993, 0.005704,1,-0.308719,-0.141179, 9.800773,1,0
1778254674889,   540.077,   540.072,-0.002579, 0.014670,-1.002602,-0.000033, 0.000145,-0.010026,-0.365634,-0.005468,-0.027869,1, 0.004072, 0.000345, 0.003527,1,-0.308887,-0.140532, 9.800776,1,0
1778254674910,   540.097,   540.092, 0.006553, 0.015370,-0.991888, 0.000060, 0.000153,-0.009927,-0.291331, 0.007625, 0.004399,1, 0.006726,-0.000234, 0.002548,1,-0.308822,-0.139344, 9.800796,1,0
1778254674937,   540.122,   540.122, 0.014444, 0.014761,-0.985776, 0.000139, 0.000149,-0.009851,-0.167099, 0.008005, 0.133675,1, 0.012043,-0.000138, 0.001519,1,-0.308741,-0.136375, 9.800840,1,0
1778254674959,   540.147,   540.142, 0.020989, 0.015388,-1.010314, 0.000207, 0.000157,-0.010103,-0.125081, 0.018762,-0.058102,1, 0.014596,-0.000586, 0.000426,1,-0.308758,-0.133713, 9.800877,1,0
1778254674980,   540.167,   540.162, 0.028014, 0.013568,-0.999670, 0.000274, 0.000139,-0.010008,-0.075893, 0.011341,-0.072690,1, 0.018373,-0.000733,-0.000480,1,-0.308678,-0.130250, 9.800925,1,0
1778254675007,   540.192,   540.192, 0.038808, 0.011414,-0.988737, 0.000382, 0.000119,-0.009888, 0.072377,-0.012466, 0.104817,1, 0.023708,-0.001482,-0.001343,1,-0.308149,-0.123657, 9.801027,1,0
1778254675029,   540.217,   540.212, 0.050453, 0.008184,-0.995589, 0.000503, 0.000083,-0.009949, 0.166201,-0.031713, 0.067820,1, 0.024061,-0.000709,-0.002199,1,-0.307912,-0.118963, 9.801093,1,0
1778254675050,   540.237,   540.232, 0.052747, 0.010856,-1.001555, 0.000527, 0.000108,-0.010020, 0.200905,-0.019138,-0.002069,1, 0.022178,-0.000662,-0.001896,1,-0.307410,-0.114504, 9.801162,1,0
1778254675077,   540.262,   540.262, 0.054942, 0.009735,-0.999062, 0.000549, 0.000100,-0.009993, 0.231666,-0.013662, 0.003779,1, 0.019379,-0.001373,-0.000507,1,-0.307088,-0.108523, 9.801240,1,0
1778254675099,   540.287,   540.282, 0.060896, 0.004634,-0.989585, 0.000606, 0.000049,-0.009904, 0.274383,-0.047584, 0.051282,1, 0.016812,-0.002059,-0.000619,1,-0.306691,-0.104981, 9.801291,1,0
1778254675120,   540.307,   540.302, 0.057340, 0.006320,-0.981750, 0.000580, 0.000060,-0.009817, 0.290936,-0.053174, 0.141992,1, 0.013512,-0.000290,-0.000537,1,-0.306488,-0.102122, 9.801328,1,0
1778254675147,   540.332,   540.332, 0.053765, 0.011011,-0.998156, 0.000539, 0.000108,-0.009964, 0.220808, 0.008273, 0.012789,1, 0.006299,-0.001318, 0.000088,1,-0.306410,-0.099515, 9.801356,1,0
1778254675169,   540.357,   540.352, 0.053805, 0.010293,-1.000979, 0.000536, 0.000102,-0.010023, 0.210153,-0.002233,-0.088031,1, 0.005069,-0.001281, 0.001679,1,-0.306225,-0.098488, 9.801373,1,0
1778254675191,   540.377,   540.372, 0.053382, 0.011909,-0.985558, 0.000534, 0.000119,-0.009862, 0.225340, 0.011287, 0.071983,1, 0.006690,-0.000208, 0.001701,1,-0.306123,-0.097352, 9.801388,1,0
1778254675217,   540.402,   540.402, 0.049940, 0.010316,-0.993626, 0.000505, 0.000105,-0.009924, 0.183721, 0.005795, 0.057268,1, 0.008283,-0.001056, 0.002391,1,-0.305992,-0.095107, 9.801414,1,0
1778254675239,   540.427,   540.422, 0.038898, 0.009044,-1.002548, 0.000391, 0.000093,-0.010027, 0.101978,-0.002972,-0.037619,1, 0.009215, 0.000543, 0.003072,1,-0.306327,-0.093232, 9.801421,1,0
1778254675261,   540.447,   540.442, 0.031817, 0.009484,-0.998424, 0.000322, 0.000096,-0.009989, 0.041123, 0.005355,-0.012138,1, 0.009952,-0.000502, 0.003427,1,-0.306322,-0.091251, 9.801440,1,0
1778254675288,   540.472,   540.472, 0.033750, 0.006450,-0.996831, 0.000333, 0.000063,-0.009970, 0.024859,-0.025163, 0.025900,1, 0.011703,-0.002114, 0.002762,1,-0.306047,-0.088052, 9.801477,1,0
1778254675309,   540.497,   540.492, 0.037404, 0.006122,-0.988198, 0.000379, 0.000060,-0.009879, 0.068521,-0.028206, 0.105254,1, 0.009678,-0.000984, 0.003402,1,-0.305670,-0.085970, 9.801508,1,0
1778254675332,   540.517,   540.517, 0.029866, 0.006990,-1.000894, 0.000303, 0.000070,-0.009998,-0.012627,-0.015804,-0.013886,1, 0.004453,-0.000753, 0.003447,1,-0.305489,-0.084206, 9.801529,1,0
1778254675358,   540.542,   540.542, 0.029678, 0.005029,-1.009427, 0.000294, 0.000054,-0.010096,-0.014277,-0.034792,-0.097561,1,-0.000976,-0.001899, 0.003146,1,-0.305257,-0.084135, 9.801537,1,0
1778254675379,   540.567,   540.562, 0.041958,-0.000025,-0.975818, 0.000417, 0.000001,-0.009768, 0.068238,-0.088792, 0.111278,1,-0.005843,-0.001251, 0.002509,1,-0.304952,-0.085016, 9.801538,1,0
1778254675402,   540.587,   540.587, 0.043543, 0.006540,-0.985019, 0.000439, 0.000059,-0.009833, 0.121987,-0.023653, 0.141771,1,-0.015650, 0.001410, 0.001797,1,-0.305071,-0.088277, 9.801506,1,0
1778254675428,   540.612,   540.612, 0.039121, 0.004490,-0.991080, 0.000388, 0.000049,-0.009907, 0.078140,-0.047434, 0.082293,1,-0.021438, 0.003245, 0.002776,1,-0.305604,-0.092134, 9.801454,1,0
1778254675449,   540.637,   540.632, 0.051919, 0.008522,-1.008233, 0.000509, 0.000076,-0.010078, 0.144439,-0.056657,-0.042949,1,-0.024899, 0.001371, 0.003331,1,-0.307364,-0.096228, 9.801360,1,0
1778254675472,   540.657,   540.657, 0.068729, 0.017678,-1.004261, 0.000671, 0.000175,-0.010052, 0.366704, 0.070997,-0.047133,1,-0.021702,-0.001889, 0.001378,1,-0.307240,-0.103037, 9.801294,1,0
1778254675498,   540.682,   540.682, 0.086967, 0.013585,-0.992573, 0.000857, 0.000139,-0.009935, 0.546009, 0.026962, 0.067458,1,-0.017514,-0.002311, 0.000807,1,-0.306771,-0.106811, 9.801269,1,0
1778254675519,   540.707,   540.702, 0.110506, 0.009475,-0.990806, 0.001101, 0.000087,-0.009902, 0.724153,-0.032258, 0.112306,1,-0.016303,-0.001154, 0.004976,1,-0.306511,-0.109985, 9.801242,1,0
1778254675542,   540.727,   540.722, 0.119985, 0.016720,-0.998208, 0.001194, 0.000164,-0.009983, 0.825413, 0.008005, 0.037344,1,-0.015341,-0.000179, 0.006517,1,-0.306487,-0.112973, 9.801208,1,0
1778254675568,   540.752,   540.752, 0.124397, 0.015519,-0.992786, 0.001244, 0.000156,-0.009933, 0.913248, 0.034526, 0.065238,1,-0.022422, 0.001185, 0.011064,1,-0.306710,-0.118355, 9.801138,1,0
1778254675589,   540.777,   540.772, 0.143276, 0.013759,-0.986312, 0.001424, 0.000123,-0.009877, 1.005885,-0.016535, 0.115432,1,-0.033711, 0.001899, 0.019755,1,-0.307163,-0.124190, 9.801051,1,0
1778254675612,   540.797,   540.797, 0.154161, 0.024452,-0.987173, 0.001534, 0.000245,-0.009846, 1.204075, 0.103589, 0.120018,1,-0.059254, 0.003640, 0.029790,1,-0.307852,-0.138025, 9.800845,1,0
1778254675638,   540.822,   540.822, 0.151073, 0.013308,-0.992205, 0.001515, 0.000166,-0.009924, 1.172620,-0.018803, 0.070438,1,-0.069110, 0.006351, 0.036123,1,-0.309136,-0.151561, 9.800605,1,0
1778254675660,   540.847,   540.842, 0.139921, 0.006441,-0.990984, 0.001430, 0.000060,-0.009940, 1.019982,-0.076173, 0.100434,1,-0.082867, 0.001953, 0.040350,1,-0.309949,-0.166699, 9.800333,1,0
1778254675682,   540.872,   540.867, 0.153827, 0.021673,-0.994568, 0.001532, 0.000210,-0.009933, 1.199411, 0.025453, 0.046613,1,-0.077917,-0.008634, 0.040034,1,-0.308875,-0.189477, 9.799953,1,0
1778254675708,   540.892,   540.892, 0.155582, 0.018245,-0.999503, 0.001560, 0.000196,-0.009997, 1.217513,-0.022430,-0.002038,1,-0.069198,-0.001025, 0.038173,1,-0.308215,-0.203477, 9.799693,1,0
1778254675730,   540.917,   540.912, 0.147472, 0.026122,-0.997892, 0.001484, 0.000258,-0.009966, 1.221284, 0.022784, 0.068441,1,-0.066515,-0.003031, 0.039051,1,-0.308078,-0.216340, 9.799422,1,0
1778254675752,   540.942,   540.937, 0.148950, 0.024711,-1.006168, 0.001488, 0.000247,-0.010061, 1.154231, 0.011269,-0.068005,1,-0.048850,-0.007922, 0.038433,1,-0.306254,-0.232548, 9.799108,1,0
1778254675778,   540.962,   540.962, 0.149215, 0.033420,-0.986266, 0.001508, 0.000337,-0.009892, 1.157702, 0.088483, 0.126998,1,-0.035574,-0.003328, 0.036533,1,-0.305525,-0.240326, 9.798943,1,0
1778254675800,   540.987,   540.982, 0.162656, 0.031238,-0.947735, 0.001618, 0.000310,-0.009495, 1.197183,-0.000110, 0.453516,1,-0.025955, 0.000390, 0.035279,1,-0.305597,-0.245742, 9.798806,1,0
1778254675823,   541.012,   541.007, 0.178545, 0.037786,-0.989603, 0.001782, 0.000390,-0.009796, 1.445060, 0.117406, 0.093922,1,-0.034376, 0.000104, 0.049597,1,-0.305912,-0.254175, 9.798581,1,0
1778254675848,   541.032,   541.032, 0.183646, 0.035372,-1.017563, 0.001848, 0.000348,-0.010204, 1.494763, 0.086519,-0.180476,1,-0.028090,-0.002435, 0.053430,1,-0.306156,-0.261193, 9.798389,1,0
1778254675870,   541.057,   541.052, 0.195659, 0.060553,-1.010169, 0.001961, 0.000611,-0.010029, 1.581156, 0.333288,-0.082181,1,-0.010625,-0.006015, 0.051999,1,-0.305412,-0.264300, 9.798329,1,0
1778254675893,   541.082,   541.077, 0.219318, 0.037831,-1.019997, 0.002183, 0.000351,-0.010315, 1.848629, 0.109095,-0.204260,1, 0.018353,-0.016426, 0.057799,1,-0.301687,-0.261276, 9.798526,1,0
1778254675918,   541.102,   541.102, 0.253346, 0.042477,-0.930766, 0.002514, 0.000444,-0.009340, 2.183980, 0.160742, 0.671006,1, 0.034400,-0.004789, 0.062695,1,-0.300395,-0.254681, 9.798738,1,0
1778254675940,   541.127,   541.122, 0.256838, 0.042628,-0.973898, 0.002561, 0.000421,-0.009671, 2.230386, 0.194064, 0.792684,1, 0.046747,-0.002407, 0.072470,1,-0.299959,-0.245298, 9.798991,1,0
1778254675963,   541.152,   541.147, 0.236464, 0.045999,-1.064838, 0.002376, 0.000500,-0.010553, 2.018894, 0.222252,-0.643105,1, 0.069183,-0.003363, 0.073793,1,-0.299970,-0.226616, 9.799441,1,0
1778254675988,   541.172,   541.172, 0.230095, 0.009488,-1.095178, 0.002279, 0.000163,-0.010998, 1.958238,-0.120553,-0.940242,1, 0.078335,-0.012721, 0.074692,1,-0.297879,-0.211083, 9.799851,1,0
1778254676010,   541.197,   541.192, 0.240591, 0.008095,-0.845204, 0.002374, 0.000110,-0.008358, 2.093299,-0.252925, 0.892210,1, 0.096251, 0.008710, 0.071971,1,-0.298611,-0.191312, 9.800236,1,0
1778254676037,   541.222,   541.222, 0.223348, 0.062718,-0.959658, 0.002197, 0.000576,-0.009425, 1.893384, 0.446941, 0.389680,1, 0.063091,-0.015603, 0.085400,1,-0.296479,-0.166103, 9.800760,1,0
1778254676059,   541.242,   541.242, 0.225501, 0.017904,-1.066863, 0.002242, 0.000305,-0.010764, 1.917821, 0.019305,-0.661340,1, 0.047924,-0.019885, 0.090487,1,-0.293013,-0.154695, 9.801051,1,0
1778254676080,   541.267,   541.262, 0.233641, 0.016574,-0.942225, 0.002415, 0.000099,-0.009393, 2.094490,-0.389629, 0.249121,1, 0.051093, 0.011572, 0.089205,1,-0.293750,-0.144613, 9.801183,1,0
1778254676107,   541.292,   541.292, 0.217421, 0.043809,-1.089299, 0.002138, 0.000577,-0.010807, 1.837539, 0.293204,-0.881099,1, 0.019170, 0.007053, 0.123949,1,-0.294905,-0.135699, 9.801275,1,0
1778254676129,   541.317,   541.312, 0.224342, 0.005230,-0.892011, 0.002214, 0.000037,-0.009089, 1.824847,-0.152752,-0.493109,1, 0.016038, 0.018154, 0.107104,1,-0.297059,-0.131943, 9.801262,1,0
1778254676150,   541.337,   541.332, 0.192203, 0.051672,-0.841654, 0.002010, 0.000485,-0.008342, 1.858081, 0.136440, 1.899227,1,-0.004165, 0.016627, 0.116390,1,-0.301718,-0.129211, 9.801156,1,0
1778254676177,   541.362,   541.362, 0.183447,-0.003150,-1.151873, 0.001820,-0.000037,-0.011401, 1.496601,-0.169215,-1.495002,1,-0.053622, 0.025038, 0.137448,1,-0.303245,-0.139868, 9.800962,1,0
1778254676199,   541.387,   541.382, 0.165018, 0.053172,-0.856108, 0.001744, 0.000433,-0.008583, 1.833483, 0.006607, 0.598123,1,-0.028499, 0.046860, 0.123888,1,-0.314361,-0.144410, 9.800547,1,0
1778254676220,   541.407,   541.402, 0.138265,-0.013619,-1.033008, 0.001287,-0.000038,-0.010139, 1.113378, 0.343267, 0.395448,1,-0.038864, 0.003176, 0.137745,1,-0.317472,-0.150297, 9.800358,1,0
1778254676247,   541.432,   541.432, 0.158588,-0.005938,-0.933395, 0.001637,-0.000147,-0.009472, 1.227234,-0.211937, 0.646482,1,-0.001781, 0.035757, 0.105392,1,-0.329151,-0.153652, 9.799920,1,0
1778254676269,   541.457,   541.452, 0.055490,-0.030726,-1.005970, 0.000511,-0.000288,-0.009868, 0.305237, 0.141379, 0.495991,1,-0.006245, 0.009131, 0.109803,1,-0.332364,-0.153878, 9.799809,1,0
1778254676290,   541.477,   541.472, 0.105049,-0.052776,-1.008377, 0.001042,-0.000599,-0.010195, 0.556513,-0.913921,-0.356605,1, 0.014284, 0.062940, 0.091242,1,-0.341974,-0.153643, 9.799481,1,0
1778254676317,   541.502,   541.502, 0.052423, 0.027141,-1.061236, 0.000606, 0.000247,-0.010402, 0.160904, 0.116963,-0.608017,1, 0.005602, 0.018569, 0.065264,1,-0.353799,-0.148950, 9.799134,1,0
1778254676339,   541.527,   541.522,-0.023858,-0.083862,-0.918098,-0.000144,-0.000743,-0.009403,-0.475664,-0.724978,-0.480974,1,-0.000458, 0.038228, 0.051282,1,-0.358543,-0.149296, 9.798956,1,0
1778254676360,   541.547,   541.542,-0.093575, 0.019064,-0.984546,-0.000873, 0.000109,-0.009644,-1.067161,-0.537293, 1.493559,1,-0.004253, 0.012982, 0.024246,1,-0.362904,-0.147540, 9.798822,1,0
1778254676387,   541.572,   541.572,-0.078150,-0.018860,-1.236289,-0.000857,-0.000060,-0.012425,-1.127433,-0.340813,-2.325089,1,-0.031252, 0.025966, 0.029212,1,-0.361866,-0.156804, 9.798717,1,0
1778254676409,   541.597,   541.592,-0.107098, 0.038628,-0.912752,-0.000968, 0.000408,-0.009104,-1.406387,-0.126571, 0.583489,1,-0.017020,-0.003265,-0.002346,1,-0.364422,-0.159169, 9.798584,1,0
1778254676431,   541.617,   541.612,-0.025449,-0.024661,-1.086920,-0.000289,-0.000034,-0.010781,-1.220532, 0.243022,-0.028649,1,-0.037754,-0.013928, 0.022636,1,-0.357800,-0.163991, 9.798748,1,0
1778254676457,   541.642,   541.642,-0.006301,-0.001106,-0.922892,-0.000111,-0.000185,-0.009397,-0.421800,-0.179622, 0.748111,1,-0.009840,-0.017106,-0.004126,1,-0.359473,-0.169090, 9.798600,1,0
1778254676479,   541.667,   541.662, 0.012174, 0.027303,-1.117653, 0.000043, 0.000354,-0.010907,-0.616330, 0.502710,-0.214370,1,-0.016467,-0.006570, 0.006829,1,-0.353644,-0.170703, 9.798784,1,0
1778254676501,   541.687,   541.682,-0.006710,-0.025180,-1.012590,-0.000074,-0.000249,-0.010377,-0.530507,-0.577459,-0.655300,1, 0.021152, 0.014004,-0.002164,1,-0.355670,-0.170288, 9.798718,1,0
1778254676528,   541.712,   541.712,-0.047416, 0.036300,-0.970676,-0.000564, 0.000291,-0.009499,-0.813968, 0.196805, 0.280065,1, 0.052392,-0.032747,-0.022679,1,-0.347945,-0.157564, 9.799209,1,0
1778254676549,   541.737,   541.732, 0.015023,-0.022623,-1.060574, 0.000170,-0.000279,-0.010914,-0.460750,-0.329863,-0.595077,1, 0.094499, 0.000898,-0.039668,1,-0.344588,-0.141917, 9.799566,1,0
1778254676572,   541.757,   541.757,-0.011940, 0.007875,-0.941400,-0.000205, 0.000030,-0.009268,-0.454488,-0.033762, 0.568237,1, 0.129054,-0.026020,-0.059844,1,-0.336566,-0.107025, 9.800288,1,0
1778254676598,   541.782,   541.782, 0.027810,-0.027710,-0.956051, 0.000263,-0.000075,-0.009361,-0.061367,-0.356970, 0.424924,1, 0.142141, 0.005839,-0.066187,1,-0.334252,-0.080867, 9.800618,1,0
1778254676619,   541.807,   541.802, 0.024662,-0.016351,-0.948545, 0.000198,-0.000263,-0.009433, 0.091051,-0.834336, 0.466834,1, 0.152262,-0.014930,-0.105421,1,-0.333294,-0.053600, 9.800838,1,0
1778254676642,   541.827,   541.827,-0.042219,-0.011614,-0.985360,-0.000276,-0.000046,-0.009881,-0.747468,-0.132181, 0.137876,1, 0.131169, 0.001428,-0.094708,1,-0.333475,-0.014288, 9.800968,1,0
1778254676668,   541.852,   541.852,-0.038203,-0.116193,-1.155664,-0.000276,-0.001147,-0.011796,-0.710865,-1.135431,-1.532312,1, 0.117585,-0.003213,-0.117875,1,-0.336121, 0.007572, 9.800885,1,0
1778254676689,   541.877,   541.872,-0.055312, 0.073151,-0.887547,-0.000450, 0.000721,-0.008950,-0.809955, 0.362820, 1.081604,1, 0.124552, 0.002013,-0.121221,1,-0.336880, 0.032965, 9.800807,1,0
1778254676712,   541.897,   541.897,-0.035960,-0.064468,-1.157888,-0.000358,-0.000495,-0.011481,-0.688228,-0.570440,-1.554294,1, 0.109836,-0.008652,-0.124538,1,-0.335335, 0.065070, 9.800699,1,0
1778254676738,   541.922,   541.922,-0.014385,-0.040519,-0.943259,-0.000242,-0.000487,-0.009614,-0.477198,-0.306684, 0.550254,1, 0.171519, 0.016056,-0.151290,1,-0.336678, 0.095859, 9.800400,1,0
1778254676759,   541.947,   541.942, 0.048238,-0.003949,-1.087677, 0.000323, 0.000076,-0.010574,-0.283315, 0.572521, 0.925909,1, 0.163648,-0.012677,-0.119668,1,-0.334354, 0.126883, 9.800127,1,0
1778254676782,   541.967,   541.967, 0.053269,-0.099998,-1.062234, 0.000454,-0.001164,-0.010782, 0.186462,-0.810348,-0.617548,1, 0.193378, 0.014892,-0.158429,1,-0.336481, 0.176164, 9.799293,1,0
1778254676808,   541.992,   541.992, 0.107007,-0.000170,-0.816573, 0.001207, 0.000032,-0.008265, 0.712578, 0.205891, 1.790821,1, 0.185097,-0.020239,-0.136452,1,-0.336264, 0.213186, 9.798564,1,0
1778254676830,   542.017,   542.012, 0.148102,-0.107299,-1.100714, 0.001455,-0.000937,-0.010974, 1.599607,-0.127329,-0.874360,1, 0.142136,-0.006237,-0.123385,1,-0.336491, 0.243103, 9.797860,1,0
1778254676852,   542.037,   542.037, 0.234330,-0.024940,-0.912773, 0.002326,-0.000339,-0.009333, 1.957374, 0.043777, 0.845244,1, 0.167389,-0.000253,-0.147689,1,-0.340746, 0.293418, 9.796335,1,0
1778254676878,   542.062,   542.062, 0.209280,-0.004098,-0.856278, 0.002093,-0.000013,-0.008351, 2.368833, 0.106408,-0.019014,1, 0.151229,-0.003224,-0.115938,1,-0.340537, 0.324876, 9.795350,1,0
1778254676900,   542.087,   542.082, 0.338193,-0.085751,-0.943460, 0.003402,-0.000956,-0.009701, 2.492433,-0.841437,-0.563681,1, 0.160158, 0.032360,-0.131635,1,-0.343104, 0.352431, 9.794308,1,0
1778254676922,   542.112,   542.107, 0.298077,-0.011187,-0.980748, 0.002962,-0.000075,-0.009352, 2.577233, 0.278817, 0.174989,1, 0.114628,-0.015134,-0.113262,1,-0.345568, 0.391976, 9.792718,1,0
1778254676948,   542.132,   542.132, 0.307438,-0.059980,-1.124255, 0.003051,-0.000799,-0.011686, 2.668582,-0.180052,-1.233150,1, 0.124211, 0.022819,-0.122742,1,-0.347228, 0.411889, 9.791842,1,0
1778254676970,   542.157,   542.152, 0.253951,-0.066106,-0.968947, 0.002697,-0.000477,-0.009631, 2.255159,-0.119380, 1.156873,1, 0.114402,-0.010711,-0.107290,1,-0.349250, 0.432362, 9.790887,1,0
1778254676992,   542.182,   542.177, 0.275991,-0.016967,-0.991927, 0.002954,-0.000114,-0.010511, 2.356894, 0.285563, 0.062507,1, 0.055252, 0.016841,-0.080448,1,-0.350295, 0.453583, 9.789889,1,0
1778254677018,   542.202,   542.202, 0.218284,-0.046212,-0.925378, 0.002314,-0.000325,-0.009385, 1.791760, 0.009426, 0.714655,1, 0.038016,-0.029763,-0.063528,1,-0.348046, 0.463722, 9.789495,1,0
1778254677040,   542.227,   542.222, 0.195744,-0.019823,-0.937983, 0.001958,-0.000147,-0.009201, 1.882395, 0.586218, 0.094728,1, 0.001431, 0.022466,-0.040735,1,-0.352058, 0.468219, 9.789137,1,0
1778254677063,   542.252,   542.247, 0.198446,-0.006054,-1.042558, 0.001877,-0.000267,-0.010265, 1.589886, 0.398656,-0.434537,1,-0.064283, 0.021385,-0.002251,1,-0.356873, 0.456018, 9.789539,1,0
1778254677088,   542.272,   542.272, 0.058409,-0.012278,-0.976557, 0.000761,-0.000127,-0.009976, 0.216638, 0.319871, 0.213527,1,-0.112161,-0.031870, 0.044681,1,-0.355100, 0.436837, 9.790478,1,0
1778254677110,   542.297,   542.292, 0.068364, 0.024546,-0.990356, 0.000533, 0.000161,-0.009810,-0.006952, 0.946734,-0.280407,1,-0.108153, 0.025270, 0.057306,1,-0.357674, 0.413530, 9.791396,1,0
1778254677133,   542.322,   542.317, 0.031150, 0.003066,-1.060628, 0.000100,-0.000332,-0.010498,-0.056627, 0.404896,-0.608418,1,-0.163779, 0.010500, 0.064096,1,-0.362355, 0.369796, 9.792974,1,0
1778254677158,   542.342,   542.342,-0.131090, 0.028556,-0.951911,-0.000952, 0.000347,-0.009940,-1.647084, 0.623597, 0.458899,1,-0.155594,-0.026412, 0.101775,1,-0.360596, 0.338821, 9.794159,1,0
1778254677180,   542.367,   542.362,-0.106483, 0.064267,-1.134251,-0.001369, 0.000510,-0.011312,-1.994748, 0.492110,-1.100463,1,-0.122732, 0.020492, 0.082913,1,-0.362141, 0.308899, 9.795092,1,0
1778254677203,   542.392,   542.387,-0.180325, 0.005362,-0.840266,-0.001805, 0.000394,-0.008498,-1.766080,-0.083881,-0.227348,1,-0.119004,-0.001299, 0.076019,1,-0.364844, 0.270867, 9.796117,1,0
1778254677228,   542.412,   542.412,-0.149695, 0.060803,-1.077645,-0.001315, 0.000469,-0.011280,-1.835747, 0.851946,-0.771670,1,-0.084404, 0.001207, 0.068600,1,-0.367722, 0.253120, 9.796484,1,0
1778254677250,   542.437,   542.432,-0.292989,-0.065502,-1.029210,-0.002899,-0.000622,-0.009905,-2.576784,-0.184278,-0.187489,1,-0.052121, 0.009512, 0.077566,1,-0.370557, 0.240777, 9.796688,1,0
1778254677277,   542.462,   542.462,-0.240954, 0.008052,-0.959104,-0.002535, 0.000101,-0.009383,-2.736347, 0.310212, 0.391211,1,-0.038532, 0.012775, 0.056624,1,-0.373755, 0.230116, 9.796823,1,0
1778254677299,   542.482,   542.482,-0.253167,-0.053555,-0.911733,-0.002397,-0.000321,-0.008787,-2.853863,-0.293700, 0.855845,1, 0.006367,-0.013784, 0.042910,1,-0.370677, 0.231741, 9.796902,1,0
1778254677320,   542.507,   542.502,-0.075104,-0.009526,-0.987795,-0.000994,-0.000051,-0.010069,-1.924329, 0.076650,-1.002661,1, 0.023918, 0.000427, 0.012996,1,-0.367444, 0.237084, 9.796895,1,0
1778254677347,   542.532,   542.532,-0.069268,-0.046756,-0.911080,-0.000800,-0.000692,-0.008799,-1.045783,-0.204842, 0.861867,1, 0.067789,-0.024338, 0.013502,1,-0.365726, 0.255811, 9.796489,1,0
1778254677369,   542.557,   542.552, 0.059475,-0.034063,-1.061862, 0.000413,-0.000234,-0.010905,-0.478383,-0.194068,-1.852489,1, 0.068305, 0.012243, 0.014432,1,-0.362303, 0.267200, 9.796311,1,0
1778254677390,   542.577,   542.572, 0.042153,-0.040410,-0.856546, 0.000171,-0.000551,-0.008075,-0.187671,-0.309076, 2.328892,1, 0.068358,-0.012799, 0.029236,1,-0.363748, 0.280671, 9.795881,1,0
1778254677417,   542.602,   542.602,-0.000412,-0.029228,-1.126915, 0.000028,-0.000384,-0.011211,-0.361175, 0.003996,-1.255432,1, 0.032933, 0.008268, 0.000806,1,-0.357391, 0.291653, 9.795794,1,0
1778254677439,   542.627,   542.622, 0.062378,-0.061148,-0.807978, 0.000584,-0.000627,-0.007909, 0.418848,-0.441030, 1.124699,1, 0.021601, 0.014122, 0.009235,1,-0.361934, 0.295582, 9.795510,1,0
1778254677460,   542.647,   542.642, 0.022332,-0.069797,-1.074669, 0.000178,-0.000806,-0.010456, 0.125118,-0.184026, 0.971920,1,-0.022195,-0.048216, 0.014538,1,-0.357783, 0.292090, 9.795768,1,0
1778254677487,   542.672,   542.672, 0.205753,-0.105677,-1.000458, 0.002121,-0.001105,-0.010495, 1.658087,-0.751069,-0.015247,1,-0.021291, 0.027215,-0.022423,1,-0.360525, 0.284582, 9.795888,1,0
1778254677509,   542.697,   542.692, 0.226674,-0.077807,-0.980710, 0.002146,-0.000856,-0.009430, 1.993082,-0.510341, 1.844551,1,-0.062909,-0.030831,-0.017964,1,-0.359356, 0.274528, 9.796218,1,0
1778254677530,   542.717,   542.712, 0.303130,-0.119536,-1.025546, 0.003116,-0.001383,-0.010727, 2.916414,-0.851531,-1.914402,1,-0.079477, 0.031583,-0.045797,1,-0.362744, 0.260182, 9.796484,1,0
1778254677557,   542.742,   542.742, 0.234820,-0.094549,-0.815734, 0.002448,-0.000702,-0.007965, 1.932431,-0.684808, 1.797032,1,-0.068000,-0.006451,-0.059790,1,-0.370213, 0.240214, 9.796715,1,0
1778254677579,   542.767,   542.762, 0.294950,-0.092835,-1.003274, 0.002713,-0.000956,-0.009988, 2.284381,-0.851161,-0.973022,1,-0.062463, 0.038838,-0.085561,1,-0.376335, 0.226674, 9.796804,1,0
1778254677600,   542.787,   542.782, 0.279192,-0.062919,-1.039270, 0.002641,-0.000739,-0.009678, 1.996205,-0.178857, 1.811082,1,-0.032321,-0.011058,-0.114997,1,-0.379460, 0.219492, 9.796847,1,0
1778254677627,   542.812,   542.812, 0.314372,-0.109682,-1.015771, 0.002939,-0.001175,-0.010166, 2.697734,-0.861662,-0.164568,1, 0.019144, 0.024859,-0.140461,1,-0.386076, 0.214372, 9.796702,1,0
1778254677649,   542.837,   542.832, 0.288630,-0.107222,-1.022393, 0.002977,-0.000914,-0.010241, 2.601326,-0.319973,-0.912139,1, 0.034635, 0.024177,-0.150566,1,-0.389426, 0.218011, 9.796490,1,0
1778254677671,   542.857,   542.852, 0.235114,-0.032891,-0.830873, 0.002356,-0.000437,-0.007975, 2.565505,-0.409188, 0.638236,1, 0.093289,-0.004014,-0.171863,1,-0.394523, 0.229458, 9.796024,1,0
1778254677698,   542.882,   542.882, 0.264758,-0.058441,-1.102466, 0.002455,-0.000767,-0.010662, 2.199460,-0.316984,-1.016237,1, 0.113597, 0.015036,-0.202148,1,-0.397566, 0.259411, 9.795154,1,0
1778254677719,   542.907,   542.902, 0.133158,-0.090978,-1.055226, 0.001308,-0.000583,-0.010219, 1.364261, 0.081650,-0.614337,1, 0.192762, 0.004756,-0.206317,1,-0.399269, 0.294690, 9.794086,1,0
1778254677741,   542.927,   542.922, 0.058335,-0.062191,-1.082468, 0.000376,-0.000918,-0.010108, 0.040828,-0.096208, 1.009627,1, 0.281468,-0.026888,-0.186571,1,-0.399029, 0.339768, 9.792636,1,0
1778254677768,   542.952,   542.952,-0.021592, 0.043367,-0.950842, 0.000282, 0.000059,-0.010514,-0.610258, 0.837632, 0.465292,1, 0.296608,-0.038344,-0.209771,1,-0.397597, 0.421327, 9.789524,1,0
1778254677789,   542.977,   542.972,-0.138468,-0.034128,-1.091591,-0.001333,-0.000622,-0.011119,-2.419871, 0.230531, 0.706955,1, 0.313005,-0.028206,-0.198367,1,-0.394705, 0.479678, 9.786956,1,0
1778254677812,   542.997,   542.997,-0.282155,-0.034433,-0.920910,-0.002348,-0.000304,-0.009696,-3.154198, 0.212571, 0.752490,1, 0.269973,-0.062750,-0.157184,1,-0.385525, 0.558454, 9.783143,1,0
1778254677838,   543.022,   543.022,-0.350111,-0.002368,-1.000927,-0.003241, 0.000055,-0.010249,-3.066362, 0.217064,-1.066059,1, 0.210309,-0.064356,-0.155115,1,-0.380867, 0.579568, 9.782097,1,0
1778254677859,   543.047,   543.042,-0.400243,-0.068576,-1.123081,-0.004322,-0.000616,-0.011093,-5.214041,-0.021260,-0.523610,1, 0.089456,-0.081505,-0.094960,1,-0.360374, 0.623193, 9.780191,1,0
1778254677882,   543.067,   543.067,-0.197148, 0.014616,-0.900719,-0.002026, 0.000093,-0.009369,-2.282313, 0.770362, 0.947327,1,-0.044524,-0.043931,-0.046186,1,-0.347678, 0.625595, 9.780498,1,0
1778254677908,   543.092,   543.092,-0.172852,-0.081294,-0.964179,-0.001679,-0.000715,-0.009376,-2.031997,-0.188563, 0.326578,1,-0.124939,-0.072446, 0.001969,1,-0.334636, 0.604776, 9.782262,1,0
1778254677929,   543.117,   543.112,-0.099622, 0.020381,-0.961872,-0.000879, 0.000274,-0.009945,-0.962658, 0.682267,-2.121044,1,-0.182477,-0.017340, 0.020204,1,-0.328642, 0.572493, 9.784408,1,0
1778254677952,   543.137,   543.137,-0.125069,-0.071735,-0.929213,-0.001193,-0.000684,-0.009134,-1.546503,-0.188167, 0.675396,1,-0.241312,-0.047389, 0.062382,1,-0.318421, 0.507861, 9.788313,1,0
1778254677978,   543.162,   543.162,-0.009074, 0.027808,-1.165007,-0.000111, 0.000285,-0.012017,-0.404414, 0.741473,-1.634456,1,-0.258503,-0.008116, 0.056679,1,-0.315087, 0.460768, 9.790751,1,0
1778254677999,   543.187,   543.182,-0.012450,-0.092459,-0.879744,-0.000287,-0.001020,-0.008469,-0.490841, 0.062247, 1.859294,1,-0.246947,-0.059648, 0.094818,1,-0.308927, 0.413986, 9.793036,1,0
1778254678022,   543.207,   543.207, 0.070749, 0.012747,-1.165603, 0.000690,-0.000069,-0.011631, 0.394916, 0.484134,-1.635154,1,-0.193156, 0.003460, 0.040543,1,-0.298957, 0.353149, 9.795729,1,0
1778254678048,   543.232,   543.232, 0.069108,-0.055759,-0.841492, 0.000790,-0.000322,-0.008637, 0.379813,-0.222230, 1.544528,1,-0.159669,-0.026049, 0.063751,1,-0.297031, 0.319662, 9.796937,1,0
1778254678069,   543.257,   543.252, 0.148136,-0.032955,-1.168743, 0.001201,-0.000477,-0.011578, 0.715535,-0.629562,-0.155047,1,-0.129713,-0.013039, 0.014164,1,-0.293535, 0.294447, 9.797832,1,0
1778254678092,   543.277,   543.277, 0.065514,-0.053095,-0.833207, 0.000867,-0.000465,-0.008482, 0.344999,-0.245839, 1.627310,1,-0.026025,-0.009159,-0.000934,1,-0.297190, 0.274029, 9.798315,1,0
1778254678118,   543.302,   543.302, 0.018799,-0.079989,-0.976749, 0.000408,-0.000796,-0.009522,-0.110188,-0.508767, 0.219713,1, 0.031234,-0.015606,-0.032349,1,-0.294086, 0.276604, 9.798336,1,0
1778254678140,   543.327,   543.322, 0.000445,-0.033219,-0.815523, 0.000146,-0.000547,-0.008559, 0.470511,-0.093163,-0.597501,1, 0.080033,-0.004388,-0.068950,1,-0.296470, 0.287396, 9.797954,1,0
1778254678162,   543.352,   543.347, 0.018049,-0.070191,-1.037933, 0.000140,-0.000671,-0.009692,-0.114258,-0.374223,-0.381355,1, 0.100724,-0.018231,-0.081549,1,-0.290767, 0.317180, 9.797206,1,0
1778254678188,   543.372,   543.372, 0.116815,-0.124998,-1.019442, 0.001206,-0.001070,-0.010459, 0.853694,-0.891453,-0.200709,1, 0.133730, 0.007605,-0.111139,1,-0.292229, 0.338427, 9.796451,1,0
1778254678210,   543.397,   543.392, 0.148650,-0.093092,-1.110337, 0.001218,-0.000964,-0.010578, 1.012645,-0.198452, 1.762838,1, 0.105463,-0.029072,-0.105860,1,-0.290093, 0.361666, 9.795684,1,0
1778254678232,   543.422,   543.417, 0.160328,-0.107874,-0.952023, 0.001496,-0.001172,-0.009597, 1.279184,-0.673347, 0.458566,1, 0.101487, 0.020962,-0.129733,1,-0.293927, 0.387614, 9.794578,1,0
1778254678258,   543.442,   543.442, 0.141392,-0.074051,-0.957461, 0.001615,-0.000730,-0.008989, 1.091916,-0.327666, 0.404631,1, 0.064196, 0.004633,-0.127489,1,-0.294977, 0.400406, 9.794031,1,0
1778254678280,   543.467,   543.462, 0.298675,-0.008494,-0.859775, 0.003030,-0.000236,-0.008748, 1.983570,-0.525062, 0.269308,1, 0.062726, 0.032845,-0.142718,1,-0.298886, 0.409256, 9.793547,1,0
1778254678303,   543.492,   543.487, 0.260732,-0.142010,-1.086806, 0.002484,-0.001298,-0.010889, 2.257689,-0.974745,-0.864760,1, 0.038607,-0.029943,-0.124632,1,-0.298451, 0.418983, 9.793149,1,0
1778254678328,   543.512,   543.512, 0.241370,-0.036728,-0.927031, 0.002566,-0.000634,-0.009771, 2.069212, 0.067141, 0.701739,1, 0.056480,-0.029452,-0.123172,1,-0.297066, 0.428962, 9.792759,1,0
1778254678350,   543.537,   543.532, 0.233668,-0.041079,-1.040610, 0.002305,-0.000517,-0.010648, 2.035203, 0.785737,-0.541050,1, 0.063847,-0.038253,-0.129629,1,-0.290442, 0.438446, 9.792538,1,0
1778254678373,   543.562,   543.557, 0.195705,-0.071110,-1.009076, 0.001925,-0.000829,-0.009484, 1.629961,-0.238709,-0.104009,1, 0.075030,-0.043590,-0.143530,1,-0.288099, 0.460851, 9.791578,1,0
1778254678398,   543.582,   543.582, 0.215449,-0.011775,-0.961476, 0.002254,-0.000078,-0.010242, 1.827297, 0.358050, 0.362191,1, 0.090397,-0.014341,-0.104547,1,-0.285243, 0.476249, 9.790925,1,0
1778254678420,   543.607,   543.602, 0.156039,-0.000424,-1.131737, 0.001677,-0.000312,-0.011380, 0.907218,-0.210941, 0.437221,1, 0.080251,-0.056224,-0.090481,1,-0.277443, 0.490753, 9.790433,1,0
1778254678443,   543.632,   543.627,-0.003369,-0.045823,-0.934743, 0.000298,-0.000312,-0.009611,-0.305960, 0.059428, 0.622942,1, 0.088474,-0.037678,-0.074252,1,-0.271864, 0.511489, 9.789528,1,0
1778254678468,   543.652,   543.652,-0.010745, 0.035078,-0.890372, 0.000086, 0.000482,-0.009398,-0.378645, 0.866069, 1.057366,1, 0.065775, 0.006837,-0.057549,1,-0.273581, 0.524075, 9.788815,1,0
1778254678490,   543.677,   543.672,-0.119466, 0.067004,-1.048734,-0.000829, 0.000626,-0.011181,-1.419778,-0.097778, 0.103767,1, 0.045108,-0.022559,-0.042332,1,-0.267994, 0.534075, 9.788428,1,0
1778254678517,   543.702,   543.702,-0.238875,-0.033075,-0.958419,-0.002222,-0.000036,-0.009557,-2.606076, 0.223283, 0.388919,1, 0.068436,-0.026490, 0.003694,1,-0.262682, 0.549772, 9.787704,1,0
1778254678539,   543.722,   543.722,-0.238875,-0.033075,-0.958419,-0.002222,-0.000036,-0.009557,-2.175027, 0.885424,-0.187467,1, 0.067748, 0.014257, 0.020554,1,-0.263452, 0.560990, 9.787045,1,0
1778254678560,   543.747,   543.742,-0.154795, 0.052304,-1.110886,-0.001621, 0.000359,-0.011285,-2.502352, 0.050398, 0.275551,1, 0.055927,-0.003447, 0.025939,1,-0.259804, 0.571379, 9.786542,1,0
1778254678587,   543.772,   543.772,-0.179920,-0.033916,-0.895994,-0.001671, 0.000093,-0.008839,-2.028292, 0.254236, 0.998818,1, 0.053116, 0.002308, 0.068757,1,-0.263825, 0.588548, 9.785418,1,0
1778254678609,   543.797,   543.792,-0.089209, 0.073436,-1.067364,-0.000875, 0.000614,-0.011056,-1.749155, 0.592312,-0.438109,1, 0.048383, 0.022239, 0.068422,1,-0.265649, 0.600508, 9.784641,1,0
1778254678630,   543.812,   543.812,-0.134329, 0.012311,-0.915186,-0.001358, 0.000278,-0.009198,-1.584590, 0.730157, 0.809134,1, 0.038867, 0.004089, 0.103958,1,-0.267193, 0.610730, 9.783966,1,0
1778254678657,   543.842,   543.842, 0.000881, 0.070338,-1.148164,-0.000091, 0.000609,-0.011589,-0.258070, 1.318895,-1.476828,1, 0.067999, 0.010575, 0.097966,1,-0.266843, 0.631313, 9.782669,1,0
1778254678679,   543.867,   543.862,-0.030244,-0.106378,-0.931132,-0.000275,-0.001043,-0.009224,-0.331344,-0.242950, 0.811306,1, 0.081609,-0.005595, 0.130638,1,-0.265020, 0.644529, 9.781857,1,0
1778254678700,   543.887,   543.882, 0.002294, 0.046261,-1.066527, 0.000165, 0.000594,-0.011014,-0.174515, 1.002629,-1.232084,1, 0.052200,-0.012084, 0.120216,1,-0.260559, 0.657448, 9.781117,1,0
1778254678727,   543.912,   543.912,-0.002430,-0.123690,-0.838894, 0.000035,-0.001166,-0.008351,-0.281318,-0.538147, 1.553272,1, 0.074946,-0.016539, 0.140318,1,-0.256673, 0.677286, 9.779866,1,0
1778254678749,   543.937,   543.932, 0.109031,-0.003822,-0.975732, 0.000838, 0.000160,-0.010013, 0.586992, 1.084994,-1.795113,1, 0.012720, 0.001912, 0.143956,1,-0.252138, 0.685624, 9.779404,1,0
1778254678770,   543.957,   543.952, 0.157591,-0.106609,-0.974855, 0.001492,-0.001390,-0.009528, 0.739600,-0.473379, 1.724732,1, 0.026076,-0.002810, 0.178993,1,-0.252027, 0.692631, 9.778913,1,0
1778254678797,   543.982,   543.982, 0.185201, 0.048853,-1.036620, 0.001999, 0.000676,-0.010693, 1.563504, 1.173058,-0.386967,1,-0.003440, 0.045553, 0.183670,1,-0.253706, 0.694017, 9.778770,1,0
1778254678819,   544.007,   544.002, 0.146526,-0.060277,-1.053378, 0.001672,-0.000815,-0.010371, 1.610858,-0.609721, 0.647141,1,-0.041268, 0.007744, 0.199137,1,-0.255574, 0.685519, 9.779322,1,0
1778254678840,   544.027,   544.022, 0.223363,-0.047864,-0.902233, 0.002169,-0.000175,-0.009112, 2.153763, 1.050053,-1.058754,1,-0.082513, 0.046899, 0.205025,1,-0.259090, 0.668221, 9.780426,1,0
1778254678867,   544.052,   544.052, 0.191197,-0.018670,-1.019988, 0.001835,-0.000369,-0.010060, 1.616668, 0.453382,-0.220105,1,-0.166890, 0.005933, 0.205473,1,-0.258106, 0.631445, 9.782895,1,0
1778254678889,   544.077,   544.072, 0.221965,-0.088425,-0.890943, 0.002390,-0.000908,-0.009150, 2.036420,-0.290198, 0.408453,1,-0.170259, 0.037339, 0.233773,1,-0.262616, 0.602621, 9.784594,1,0
1778254678911,   544.097,   544.092, 0.218658, 0.045616,-0.965776, 0.002471, 0.000583,-0.010204, 2.098492, 0.873016, 0.287841,1,-0.154853, 0.026693, 0.219411,1,-0.261539, 0.574916, 9.786289,1,0
1778254678938,   544.122,   544.122, 0.085079,-0.057675,-1.048183, 0.001103,-0.000552,-0.010066, 0.571951,-0.026167,-0.490879,1,-0.122071, 0.014123, 0.209811,1,-0.262467, 0.535804, 9.788484,1,0
1778254678959,   544.147,   544.142, 0.142632,-0.072479,-0.795187, 0.001734,-0.000724,-0.008513, 1.585532, 0.002727, 0.346131,1,-0.100915, 0.052851, 0.222192,1,-0.269643, 0.515991, 9.789353,1,0
1778254678981,   544.167,   544.162, 0.070015,-0.005001,-0.917135, 0.000948, 0.000235,-0.009327, 1.617038, 0.835966, 0.167971,1,-0.069076, 0.049040, 0.193655,1,-0.273558, 0.504222, 9.789858,1,0
1778254679008,   544.192,   544.192,-0.005542,-0.074511,-1.127090,-0.000381,-0.000937,-0.010170,-0.332837,-0.232226,-1.262963,1,-0.028770, 0.047266, 0.182069,1,-0.279671, 0.497739, 9.790016,1,0
1778254679029,   544.217,   544.212,-0.150651,-0.094907,-0.941567,-0.001540,-0.001052,-0.009005,-0.509564, 0.229263, 0.083223,1,-0.011630, 0.023679, 0.196442,1,-0.285895, 0.497330, 9.789858,1,0
1778254679052,   544.237,   544.237, 0.021096,-0.005118,-1.034922,-0.000222,-0.000065,-0.009911,-0.083521, 0.452548,-0.359667,1,-0.020180, 0.015491, 0.175180,1,-0.290609, 0.502270, 9.789467,1,0
1778254679078,   544.262,   544.262, 0.050162, 0.005424,-1.079620, 0.000458,-0.000421,-0.010998, 0.201508, 0.559201,-0.798174,1, 0.007238, 0.024740, 0.159289,1,-0.290924, 0.506383, 9.789246,1,0
1778254679099,   544.287,   544.282,-0.013023,-0.092441,-1.046991,-0.000129,-0.001166,-0.009898,-0.336837,-0.032983, 1.193006,1, 0.042768, 0.019537, 0.166795,1,-0.295761, 0.512857, 9.788763,1,0
1778254679122,   544.307,   544.307,-0.110173,-0.003739,-0.908439,-0.000916,-0.000093,-0.009734,-1.380703, 0.483979, 0.879468,1, 0.030888,-0.005379, 0.162533,1,-0.299838, 0.521762, 9.788169,1,0
1778254679148,   544.332,   544.332,-0.180347,-0.068596,-1.046933,-0.001690,-0.000680,-0.010429,-2.068056,-0.142461,-0.479182,1, 0.048016, 0.007689, 0.124661,1,-0.299489, 0.531852, 9.787637,1,0
1778254679169,   544.357,   544.352,-0.213052,-0.106587,-0.919146,-0.001947,-0.001094,-0.009607,-2.519000,-0.430202, 1.228791,1, 0.054708,-0.013098, 0.116431,1,-0.295703, 0.541676, 9.787212,1,0
1778254679192,   544.377,   544.377,-0.190504,-0.040053,-1.000118,-0.001737,-0.000254,-0.010593,-2.155263, 0.165625,-0.021278,1, 0.087457,-0.026465, 0.076667,1,-0.286099, 0.561201, 9.786398,1,0
1778254679218,   544.402,   544.402,-0.110888,-0.131887,-0.909473,-0.001146,-0.001191,-0.009008,-1.369780,-0.719844, 0.866907,1, 0.071990,-0.028351, 0.059539,1,-0.281347, 0.575817, 9.785686,1,0
1778254679239,   544.427,   544.422, 0.086180,-0.111970,-0.948866, 0.000817,-0.000929,-0.009474,-0.142211,-0.098612,-0.337857,1, 0.059044,-0.003481, 0.054183,1,-0.276814, 0.589902, 9.784977,1,0
1778254679262,   544.447,   544.447, 0.157658,-0.007855,-1.078152, 0.001425,-0.000237,-0.010887, 1.271775, 0.535120,-0.789378,1, 0.088066,-0.006981, 0.024770,1,-0.274052, 0.614917, 9.783515,1,0
1778254679288,   544.472,   544.472, 0.216930,-0.072159,-0.905494, 0.002186,-0.000503,-0.009330, 1.849666,-0.080285, 0.902754,1, 0.067095, 0.003316, 0.050274,1,-0.277695, 0.629485, 9.782485,1,0
1778254679310,   544.497,   544.492, 0.345681,-0.014837,-1.105263, 0.003497,-0.000195,-0.010898, 2.194447,-0.043697, 0.178791,1, 0.047912,-0.021659, 0.036275,1,-0.273413, 0.639690, 9.781944,1,0
1778254679332,   544.517,   544.517, 0.316574,-0.068920,-1.056159, 0.003344,-0.000752,-0.010591, 2.831144,-0.030880,-0.575784,1, 0.017495, 0.000770, 0.057574,1,-0.273290, 0.645588, 9.781560,1,0
1778254679358,   544.542,   544.542, 0.453082,-0.006953,-0.898489, 0.004460,-0.000007,-0.009742, 4.162173, 0.579366, 0.970045,1, 0.016923, 0.062027, 0.085560,1,-0.282795, 0.648152, 9.781120,1,0
1778254679380,   544.567,   544.562, 0.468343, 0.027722,-0.962101, 0.004947, 0.000354,-0.009996, 4.446990, 0.231926, 0.603942,1,-0.001764, 0.029485, 0.082618,1,-0.286747, 0.649174, 9.780937,1,0
1778254679402,   544.592,   544.587, 0.395208,-0.050748,-1.088739, 0.003916,-0.000523,-0.010153, 3.582386, 0.145649,-0.895748,1,-0.027489, 0.055887, 0.125211,1,-0.294761, 0.642580, 9.781135,1,0
1778254679428,   544.612,   544.612, 0.363878,-0.046600,-0.943481, 0.003386,-0.000460,-0.009517, 3.265296, 0.178918, 0.528927,1,-0.050996, 0.042954, 0.146898,1,-0.304164, 0.634464, 9.781376,1,0
1778254679450,   544.637,   544.632, 0.144940,-0.035891,-0.913068, 0.001556,-0.000338,-0.009465, 1.870514, 1.033777, 0.861627,1,-0.029414, 0.049669, 0.165428,1,-0.313347, 0.630681, 9.781331,1,0
1778254679472,   544.662,   544.657, 0.010688,-0.027918,-1.069158, 0.000066, 0.000315,-0.010149,-0.220293, 0.344557,-0.703127,1,-0.053839, 0.062595, 0.207383,1,-0.326647, 0.616880, 9.781776,1,0
1778254679498,   544.682,   544.682,-0.117816, 0.088610,-0.938170,-0.001023, 0.000481,-0.010063,-1.484048, 1.477915, 0.581904,1,-0.056762, 0.014350, 0.202742,1,-0.328723, 0.607397, 9.782300,1,0
1778254679520,   544.707,   544.702,-0.121944, 0.003883,-1.063122,-0.001437, 0.000582,-0.009976,-1.615940,-0.216186,-2.245143,1,-0.089907, 0.032836, 0.205354,1,-0.329835, 0.595991, 9.782964,1,0
1778254679543,   544.732,   544.727,-0.258594, 0.001073,-0.890451,-0.002196,-0.000672,-0.009726,-2.865487, 0.592338, 1.051480,1,-0.094982,-0.006035, 0.197457,1,-0.328990, 0.579062, 9.784009,1,0
1778254679568,   544.752,   544.752,-0.321784,-0.101198,-0.973235,-0.003339,-0.000265,-0.008794,-3.484700,-0.424389, 0.240476,1,-0.072222, 0.029448, 0.206351,1,-0.329616, 0.565994, 9.784753,1,0
1778254679590,   544.777,   544.772,-0.401013,-0.061985,-0.983310,-0.004325,-0.000447,-0.009004,-3.408108, 0.757543,-0.505257,1,-0.123586,-0.011144, 0.197612,1,-0.328379, 0.545466, 9.785960,1,0
1778254679613,   544.802,   544.797,-0.379607, 0.015670,-1.175793,-0.003898,-0.000397,-0.011871,-4.046845, 0.675933,-1.743221,1,-0.117790,-0.009197, 0.169354,1,-0.323603, 0.518770, 9.787571,1,0
1778254679638,   544.822,   544.822,-0.392605,-0.027709,-0.943695,-0.003576,-0.000162,-0.010119,-4.172649, 0.234115, 0.533797,1,-0.069069,-0.018106, 0.173906,1,-0.321659, 0.503833, 9.788415,1,0
1778254679660,   544.847,   544.842,-0.209938, 0.039510,-1.058939,-0.002023, 0.000207,-0.011163,-3.323197, 0.034224,-0.501160,1,-0.045641,-0.008522, 0.140126,1,-0.315762, 0.490775, 9.789270,1,0
1778254679683,   544.872,   544.867,-0.148568,-0.056403,-1.001857,-0.001263,-0.000490,-0.010415,-1.769954,-0.074490,-0.034899,1, 0.001280,-0.009695, 0.113547,1,-0.312522, 0.478790, 9.789968,1,0
1778254679708,   544.892,   544.892,-0.049819,-0.014721,-0.843032,-0.000263, 0.000048,-0.009102,-0.803848, 0.335941, 1.522489,1, 0.029790, 0.006010, 0.117533,1,-0.315301, 0.481352, 9.789753,1,0
1778254679730,   544.917,   544.912, 0.058659, 0.035092,-1.190743, 0.000422, 0.000200,-0.011964,-0.800868,-0.442363, 0.048138,1, 0.054163,-0.017215, 0.082124,1,-0.310174, 0.490148, 9.789480,1,0
1778254679757,   544.942,   544.942, 0.078573,-0.029576,-0.869071, 0.000896,-0.000329,-0.009097, 0.458277, 0.224196, 1.265504,1, 0.118401,-0.033364, 0.084185,1,-0.311080, 0.518005, 9.788017,1,0
1778254679779,   544.962,   544.962, 0.118549, 0.007835,-1.126671, 0.001083,-0.000144,-0.011132, 0.855569, 0.620766,-1.262127,1, 0.169332, 0.000046, 0.039066,1,-0.306929, 0.549245, 9.786446,1,0
1778254679800,   544.987,   544.982, 0.103291,-0.098731,-0.894961, 0.000918,-0.001063,-0.008739, 1.033021, 0.287381, 1.081489,1, 0.204233,-0.030894, 0.075166,1,-0.305179, 0.586136, 9.784360,1,0
1778254679827,   545.012,   545.012, 0.211393, 0.013144,-1.110753, 0.002196, 0.000061,-0.011203, 1.770587, 0.773653,-1.112013,1, 0.217651,-0.001240, 0.069802,1,-0.302289, 0.651602, 9.780308,1,0
1778254679849,   545.037,   545.032, 0.186238,-0.016490,-1.032301, 0.001679,-0.000342,-0.010160, 1.435882, 0.030449, 1.095952,1, 0.246304,-0.016463, 0.088329,1,-0.297816, 0.695932, 9.777390,1,0
1778254679870,   545.057,   545.052, 0.099585,-0.062939,-0.888599, 0.000992,-0.000451,-0.008761, 1.587494, 1.005901,-0.296919,1, 0.217792,-0.008420, 0.097055,1,-0.296341, 0.739238, 9.774257,1,0
1778254679897,   545.082,   545.082, 0.109611, 0.022305,-1.120057, 0.001019,-0.000055,-0.010916, 0.782336, 1.013092,-1.213962,1, 0.179308,-0.000615, 0.120399,1,-0.292259, 0.800045, 9.769590,1,0
1778254679919,   545.107,   545.102, 0.032908,-0.094495,-0.944749, 0.000414,-0.000951,-0.009371, 0.380320, 0.087226, 0.382821,1, 0.160096, 0.003921, 0.159247,1,-0.289503, 0.833091, 9.766910,1,0
1778254679940,   545.127,   545.122,-0.000459, 0.007978,-0.926988, 0.000100, 0.000220,-0.009784, 0.524044, 1.512857,-0.795970,1, 0.120452,-0.006215, 0.174002,1,-0.284608, 0.860303, 9.764694,1,0
1778254679967,   545.152,   545.152,-0.027231,-0.053723,-1.033640,-0.000206,-0.000704,-0.009675,-0.545307, 0.362640,-0.374284,1, 0.072691,-0.013723, 0.194115,1,-0.277286, 0.891912, 9.762069,1,0
1778254679989,   545.177,   545.172,-0.019365,-0.111617,-0.870449,-0.000108,-0.001273,-0.009101,-0.370664, 0.017998, 0.054136,1, 0.057539, 0.027728, 0.222676,1,-0.274632, 0.904265, 9.761007,1,0
