Time,GPS_ts,fGPS_ts,scaledAccelX,scaledAccelY,scaledAccelZ,deltaVelX,deltaVelY,deltaVelZ,estLinearAccelX,estLinearAccelY,estLinearAccelZ,estLinearAccel:valid,estAngularRateX,estAngularRateY,estAngularRateZ,estAngularRate:valid,estGravityX,estGravityY,estGravityZ,estGravity:valid,flag
1778254373557,   202.561,   202.561, 0.019291,-0.074094,-0.990521, 0.000194,-0.000743,-0.009905,-0.042922,-0.045060, 0.066490,1,-0.018275, 0.001137,-0.000967,1,-0.232135, 0.680982, 9.780223,1,0
1778254373557,   202.586,   202.581, 0.017994,-0.074818,-0.995220, 0.000179,-0.000746,-0.009949,-0.059305,-0.044958, 0.036022,1,-0.023448, 0.001495,-0.000555,1,-0.232429, 0.676775, 9.780508,1,0
1778254373557,   202.611,   202.611, 0.018937,-0.071432,-0.994627, 0.000188,-0.000719,-0.009948,-0.046166,-0.026483, 0.026753,1,-0.028499, 0.001571,-0.001877,1,-0.231690, 0.674172, 9.780705,1,0
1778254373557,   202.636,   202.631, 0.022217,-0.064226,-0.991530, 0.000222,-0.000642,-0.009913,-0.017607, 0.040872, 0.049465,1,-0.032954, 0.002027, 0.000043,1,-0.232053, 0.668012, 9.781119,1,0
1778254373557,   202.661,   202.656, 0.023704,-0.068250,-0.992783, 0.000236,-0.000684,-0.009925, 0.000070,-0.009903, 0.045822,1,-0.032344, 0.000740,-0.000038,1,-0.232412, 0.658391, 9.781763,1,0
1778254373557,   202.686,   202.681, 0.025990,-0.067176,-0.994323, 0.000259,-0.000674,-0.009947, 0.016772,-0.011126, 0.032407,1,-0.031803, 0.001552,-0.000376,1,-0.232685, 0.652110, 9.782177,1,0
1778254373557,   202.706,   202.706, 0.026781,-0.066613,-0.994231, 0.000266,-0.000665,-0.009939, 0.029527,-0.009598, 0.032653,1,-0.031476, 0.001523,-0.000429,1,-0.233154, 0.642668, 9.782791,1,0
1778254373557,   202.731,   202.731, 0.027294,-0.064359,-0.993543, 0.000273,-0.000645,-0.009935, 0.034217, 0.006526, 0.039780,1,-0.029715, 0.001293,-0.001095,1,-0.233488, 0.636746, 9.783171,1,0
1778254373557,   202.756,   202.751, 0.027086,-0.065151,-0.992194, 0.000272,-0.000655,-0.009924, 0.036156,-0.003282, 0.050848,1,-0.027963, 0.001340,-0.001314,1,-0.233806, 0.631126, 9.783527,1,0
1778254373557,   202.781,   202.781, 0.026227,-0.064426,-0.993400, 0.000263,-0.000648,-0.009931, 0.022983,-0.007485, 0.042024,1,-0.025346, 0.001022,-0.003129,1,-0.234250, 0.623525, 9.784003,1,0
1778254373557,   202.796,   202.791, 0.025582,-0.062746,-0.995147, 0.000256,-0.000630,-0.009950, 0.020408,-0.000605, 0.040379,1,-0.026884, 0.000611,-0.002181,1,-0.234314, 0.620904, 9.784169,1,0
1778254373568,   238.761,   238.756, 0.025251,-0.048538,-0.994035, 0.000253,-0.000487,-0.009942, 0.007322, 0.028586, 0.042556,1,-0.005227, 0.000363,-0.000061,1,-0.240314, 0.504422, 9.790720,1,0
1778254373594,   238.781,   238.781, 0.025445,-0.049528,-0.995882, 0.000255,-0.000492,-0.009959, 0.009279, 0.017975, 0.024494,1,-0.003707,-0.000017, 0.000184,1,-0.240250, 0.503568, 9.790765,1,0
1778254373615,   238.806,   238.801, 0.025125,-0.051555,-0.994859, 0.000252,-0.000516,-0.009950, 0.001323,-0.001905, 0.037546,1,-0.001418,-0.000030, 0.000195,1,-0.240256, 0.503093, 9.790790,1,0
1778254373638,   238.831,   238.831, 0.024644,-0.049415,-0.993578, 0.000247,-0.000494,-0.009936, 0.001352, 0.018075, 0.047133,1, 0.000081, 0.001367, 0.000554,1,-0.240367, 0.502675, 9.790809,1,0
1778254373664,   238.851,   238.851, 0.024259,-0.049533,-0.994066, 0.000243,-0.000494,-0.009939,-0.002469, 0.016990, 0.042346,1, 0.000318, 0.000370,-0.000575,1,-0.240382, 0.502753, 9.790804,1,0
1778254373685,   238.876,   238.871, 0.023510,-0.050606,-0.995058, 0.000237,-0.000505,-0.009949,-0.003942, 0.009484, 0.031409,1, 0.001891,-0.000136, 0.000365,1,-0.240331, 0.503069, 9.790789,1,0
1778254373712,   238.901,   238.901, 0.023819,-0.050754,-0.994175, 0.000237,-0.000507,-0.009942,-0.006741, 0.005874, 0.041235,1, 0.002335, 0.001132, 0.000450,1,-0.240359, 0.503675, 9.790757,1,0
1778254373734,   238.926,   238.921, 0.024058,-0.050508,-0.994675, 0.000240,-0.000504,-0.009944,-0.006400, 0.009109, 0.035260,1, 0.002708,-0.000186, 0.000570,1,-0.240336, 0.504246, 9.790729,1,0
1778254373755,   238.946,   238.941, 0.023857,-0.049415,-0.995206, 0.000237,-0.000494,-0.009952,-0.008760, 0.017269, 0.040023,1, 0.004380, 0.000467, 0.000798,1,-0.240288, 0.504972, 9.790692,1,0
1778254373782,   238.971,   238.971, 0.024058,-0.051044,-0.994635, 0.000244,-0.000509,-0.009948,-0.004314, 0.005724, 0.036585,1, 0.005447, 0.000447, 0.000731,1,-0.240253, 0.506463, 9.790616,1,0
1778254373804,   238.996,   238.991, 0.023684,-0.051852,-0.993638, 0.000239,-0.000520,-0.009936,-0.005733,-0.001024, 0.046430,1, 0.006993, 0.000001, 0.000913,1,-0.240198, 0.507679, 9.790554,1,0
1778254373825,   239.016,   239.011, 0.024534,-0.051460,-0.994218, 0.000243,-0.000514,-0.009940,-0.005566, 0.001611, 0.042595,1, 0.006006, 0.000210, 0.000485,1,-0.240113, 0.508740, 9.790502,1,0
1778254373852,   239.041,   239.041, 0.023857,-0.051605,-0.994974, 0.000238,-0.000516,-0.009949,-0.006113, 0.004403, 0.033046,1, 0.006517,-0.000014, 0.000102,1,-0.240067, 0.510676, 9.790401,1,0
1778254373874,   239.066,   239.061, 0.024255,-0.052521,-0.994477, 0.000241,-0.000522,-0.009949,-0.008042,-0.000790, 0.030339,1, 0.006904, 0.000399, 0.000366,1,-0.240106, 0.512059, 9.790328,1,0
1778254373895,   239.086,   239.081, 0.023309,-0.053351,-0.994262, 0.000232,-0.000533,-0.009939,-0.011068,-0.006084, 0.040691,1, 0.006670,-0.000579, 0.001079,1,-0.240058, 0.513354, 9.790261,1,0
1778254373922,   239.111,   239.111, 0.023994,-0.053462,-0.994595, 0.000239,-0.000533,-0.009943,-0.004769,-0.009405, 0.036537,1, 0.005788, 0.000654, 0.000087,1,-0.240087, 0.515062, 9.790172,1,0
1778254373944,   239.136,   239.131, 0.024105,-0.052491,-0.994129, 0.000242,-0.000525,-0.009942,-0.003965, 0.000720, 0.036397,1, 0.004981, 0.000230, 0.000072,1,-0.240047, 0.516109, 9.790117,1,0
1778254373966,   239.156,   239.151, 0.024011,-0.052758,-0.994504, 0.000240,-0.000528,-0.009945,-0.002924, 0.000047, 0.040905,1, 0.004781,-0.000081, 0.000653,1,-0.240014, 0.517137, 9.790064,1,0
1778254373993,   239.181,   239.181, 0.024761,-0.054152,-0.994868, 0.000247,-0.000541,-0.009949, 0.002813,-0.012769, 0.033677,1, 0.003948,-0.000203, 0.000593,1,-0.240001, 0.518408, 9.789997,1,0
1778254374014,   239.206,   239.201, 0.024710,-0.053500,-0.993881, 0.000247,-0.000537,-0.009934, 0.001156,-0.012026, 0.045240,1, 0.003223,-0.000384, 0.000119,1,-0.239939, 0.519031, 9.789966,1,0
1778254374036,   239.226,   239.221, 0.023938,-0.052676,-0.994024, 0.000242,-0.000530,-0.009942, 0.000178,-0.001118, 0.041725,1, 0.003534,-0.000632, 0.000062,1,-0.239869, 0.519730, 9.789930,1,0
1778254374063,   239.251,   239.251, 0.024283,-0.052684,-0.994726, 0.000243,-0.000526,-0.009944,-0.001703, 0.003685, 0.034964,1, 0.002520, 0.000112, 0.000391,1,-0.239846, 0.520421, 9.789894,1,0
1778254374084,   239.276,   239.271, 0.024696,-0.053283,-0.994748, 0.000246,-0.000531,-0.009948, 0.001503, 0.007536, 0.029512,1, 0.002849,-0.000305, 0.000247,1,-0.239755, 0.520906, 9.789870,1,0
1778254374106,   239.296,   239.291, 0.025137,-0.053983,-0.993635, 0.000250,-0.000540,-0.009938, 0.004618,-0.003030, 0.040403,1, 0.002268,-0.000378, 0.000195,1,-0.239720, 0.521411, 9.789845,1,0
1778254374133,   239.321,   239.321, 0.024975,-0.053637,-0.993613, 0.000252,-0.000539,-0.009936, 0.005179,-0.004161, 0.045803,1, 0.000753, 0.000103,-0.000100,1,-0.239749, 0.521857, 9.789820,1,0
1778254374154,   239.346,   239.341, 0.025093,-0.052746,-0.995146, 0.000252,-0.000525,-0.009950, 0.005411, 0.004385, 0.035937,1, 0.001169,-0.000418, 0.000381,1,-0.239745, 0.522065, 9.789808,1,0
1778254374176,   239.366,   239.366, 0.024716,-0.052229,-0.993736, 0.000249,-0.000523,-0.009937, 0.002629, 0.010269, 0.044566,1, 0.002360,-0.000316, 0.000663,1,-0.239737, 0.522534, 9.789783,1,0
1778254374203,   239.391,   239.391, 0.024736,-0.053262,-0.994055, 0.000248,-0.000532,-0.009941, 0.002901, 0.000510, 0.041418,1, 0.002105,-0.000176, 0.000223,1,-0.239674, 0.522902, 9.789765,1,0
1778254374224,   239.416,   239.411, 0.024536,-0.054520,-0.994024, 0.000244,-0.000548,-0.009943,-0.001259,-0.010917, 0.038334,1, 0.002615,-0.000211, 0.000853,1,-0.239762, 0.523435, 9.789735,1,0
1778254374247,   239.436,   239.436, 0.023939,-0.052596,-0.994489, 0.000242,-0.000528,-0.009947,-0.004971, 0.008036, 0.037109,1, 0.000373,-0.000236, 0.000619,1,-0.239720, 0.523841, 9.789715,1,0
1778254374273,   239.461,   239.461, 0.024650,-0.051941,-0.994328, 0.000247,-0.000518,-0.009943, 0.001982, 0.014528, 0.038682,1, 0.000514, 0.000216, 0.000403,1,-0.239761, 0.523914, 9.789709,1,0
1778254374294,   239.486,   239.481, 0.023878,-0.053699,-0.993673, 0.000238,-0.000538,-0.009938,-0.001474, 0.003225, 0.040948,1, 0.002115,-0.000373,-0.000595,1,-0.239683, 0.524292, 9.789691,1,0
1778254374317,   239.506,   239.506, 0.024273,-0.054330,-0.994130, 0.000242,-0.000546,-0.009943,-0.001625,-0.007993, 0.040575,1, 0.001880, 0.000356, 0.000247,1,-0.239675, 0.524860, 9.789661,1,0
1778254374343,   239.531,   239.531, 0.024298,-0.053994,-0.993684, 0.000244,-0.000543,-0.009939,-0.001379,-0.004466, 0.044944,1, 0.001177, 0.000191,-0.000299,1,-0.239665, 0.525068, 9.789650,1,0
1778254374365,   239.556,   239.551, 0.024465,-0.053578,-0.993874, 0.000246,-0.000535,-0.009939,-0.000812, 0.008189, 0.044690,1, 0.000567,-0.000347, 0.000280,1,-0.239601, 0.525243, 9.789642,1,0
1778254374387,   239.576,   239.576, 0.024325,-0.053661,-0.994566, 0.000245,-0.000537,-0.009946,-0.000898,-0.000769, 0.036270,1, 0.001017,-0.000367, 0.000587,1,-0.239436, 0.525494, 9.789633,1,0
1778254374413,   239.601,   239.601, 0.025124,-0.053927,-0.994600, 0.000250,-0.000539,-0.009945, 0.006918,-0.003227, 0.035930,1, 0.000030, 0.000075, 0.000370,1,-0.239466, 0.525617, 9.789625,1,0
1778254374435,   239.626,   239.621, 0.025372,-0.054215,-0.994505, 0.000252,-0.000542,-0.009946, 0.008547,-0.008154, 0.037278,1, 0.000665, 0.000353,-0.000331,1,-0.239558, 0.525837, 9.789612,1,0
1778254374457,   239.646,   239.646, 0.025215,-0.053895,-0.993476, 0.000250,-0.000539,-0.009938, 0.007721,-0.002655, 0.046934,1,-0.001054,-0.000535, 0.000532,1,-0.239535, 0.525845, 9.789612,1,0
1778254374483,   239.671,   239.671, 0.024643,-0.053526,-0.993857, 0.000246,-0.000536,-0.009935, 0.002106, 0.000737, 0.043214,1,-0.000965, 0.000181, 0.000565,1,-0.239566, 0.525615, 9.789623,1,0
1778254374505,   239.696,   239.691, 0.024383,-0.053861,-0.996259, 0.000244,-0.000538,-0.009960, 0.000236, 0.001195, 0.023201,1,-0.001345,-0.000145, 0.000063,1,-0.239527, 0.525464, 9.789632,1,0
1778254374528,   239.721,   239.716, 0.024440,-0.054380,-0.993981, 0.000246,-0.000542,-0.009940, 0.000132,-0.008218, 0.042032,1,-0.001685,-0.000008,-0.000425,1,-0.239543, 0.525017, 9.789656,1,0
1778254374553,   239.741,   239.741, 0.024217,-0.054463,-0.994119, 0.000241,-0.000545,-0.009939,-0.002116,-0.009406, 0.040690,1,-0.002320, 0.000578,-0.000483,1,-0.239623, 0.524621, 9.789675,1,0
1778254374575,   239.766,   239.761, 0.023240,-0.052764,-0.994008, 0.000232,-0.000527,-0.009940,-0.009850,-0.001250, 0.040003,1,-0.002512, 0.000007, 0.000255,1,-0.239703, 0.524110, 9.789701,1,0
1778254374598,   239.791,   239.786, 0.022796,-0.050916,-0.994238, 0.000229,-0.000511,-0.009943,-0.016207, 0.024354, 0.039573,1,-0.000438, 0.000058, 0.000431,1,-0.239761, 0.523659, 9.789723,1,0
1778254374623,   239.811,   239.811, 0.021125,-0.052199,-0.994946, 0.000213,-0.000520,-0.009950,-0.032646, 0.011710, 0.032634,1,-0.000269, 0.000145,-0.000592,1,-0.239809, 0.523611, 9.789724,1,0
1778254374645,   239.836,   239.831, 0.021064,-0.052899,-0.993087, 0.000209,-0.000530,-0.009933,-0.036234,-0.002425, 0.049599,1, 0.000285, 0.000560,-0.000124,1,-0.239918, 0.523724, 9.789716,1,0
1778254374668,   239.861,   239.856, 0.021532,-0.053669,-0.992818, 0.000215,-0.000536,-0.009929,-0.028754,-0.002426, 0.053486,1,-0.000034,-0.000432, 0.000163,1,-0.239893, 0.523889, 9.789707,1,0
1778254374693,   239.881,   239.881, 0.023399,-0.051712,-0.995575, 0.000232,-0.000516,-0.009953,-0.010479, 0.016866, 0.026448,1, 0.000430,-0.000028,-0.000048,1,-0.239945, 0.524000, 9.789701,1,0
1778254374715,   239.906,   239.901, 0.025524,-0.052540,-0.994544, 0.000252,-0.000528,-0.009947, 0.001785, 0.010731, 0.020344,1, 0.001170,-0.000322, 0.000752,1,-0.239921, 0.524104, 9.789696,1,0
1778254374738,   239.931,   239.926, 0.027217,-0.053259,-0.993244, 0.000271,-0.000530,-0.009931, 0.027115, 0.002080, 0.049287,1, 0.001798,-0.000248, 0.000877,1,-0.239785, 0.524425, 9.789681,1,0
1778254374764,   239.951,   239.951, 0.028104,-0.053726,-0.993893, 0.000281,-0.000536,-0.009937, 0.035904,-0.002114, 0.042902,1, 0.001965, 0.000017, 0.000466,1,-0.239706, 0.524818, 9.789662,1,0
1778254374785,   239.976,   239.971, 0.028665,-0.054959,-0.993703, 0.000285,-0.000548,-0.009936, 0.038403,-0.007019, 0.044079,1, 0.002091,-0.000289, 0.000625,1,-0.239657, 0.525219, 9.789642,1,0
1778254374808,   240.001,   239.996, 0.028311,-0.054832,-0.994679, 0.000285,-0.000551,-0.009945, 0.038063,-0.012078, 0.035153,1, 0.001238,-0.000663, 0.000379,1,-0.239555, 0.525681, 9.789619,1,0
1778254374834,   240.021,   240.021, 0.028227,-0.053722,-0.995399, 0.000282,-0.000537,-0.009954, 0.037265,-0.001109, 0.028085,1,-0.000552,-0.000602, 0.000342,1,-0.239528, 0.525711, 9.789618,1,0
1778254374855,   240.046,   240.041, 0.027408,-0.053854,-0.994007, 0.000274,-0.000538,-0.009939, 0.037382, 0.001415, 0.037794,1, 0.000767,-0.000442, 0.000181,1,-0.239431, 0.525797, 9.789617,1,0
1778254374878,   240.071,   240.071, 0.026859,-0.055310,-0.994076, 0.000270,-0.000552,-0.009941, 0.024057,-0.016525, 0.041054,1, 0.001102,-0.000902, 0.000230,1,-0.239312, 0.525911, 9.789614,1,0
1778254374904,   240.091,   240.091, 0.025015,-0.054927,-0.992993, 0.000250,-0.000549,-0.009929, 0.006016,-0.012819, 0.051684,1,-0.000533,-0.000014, 0.000141,1,-0.239292, 0.525816, 9.789619,1,0
1778254374925,   240.116,   240.111, 0.021832,-0.053297,-0.994327, 0.000219,-0.000533,-0.009943,-0.020155,-0.002964, 0.038958,1,-0.002043, 0.000501,-0.000417,1,-0.239373, 0.525510, 9.789634,1,0
1778254374952,   240.141,   240.141, 0.020386,-0.053625,-0.994681, 0.000200,-0.000535,-0.009946,-0.039596,-0.001048, 0.035181,1,-0.002370, 0.000551,-0.000653,1,-0.239537, 0.524764, 9.789670,1,0
1778254374974,   240.166,   240.161, 0.020620,-0.054089,-0.994012, 0.000204,-0.000539,-0.009941,-0.042335,-0.004881, 0.042016,1,-0.004900, 0.000596, 0.000020,1,-0.239559, 0.523887, 9.789716,1,0
1778254374995,   240.186,   240.181, 0.020064,-0.052815,-0.995467, 0.000203,-0.000529,-0.009952,-0.038925,-0.001595, 0.039193,1,-0.006076, 0.000061, 0.000334,1,-0.239497, 0.522846, 9.789773,1,0
1778254375022,   240.211,   240.211, 0.021556,-0.052699,-0.994703, 0.000215,-0.000524,-0.009949,-0.028091, 0.004185, 0.035165,1,-0.008057, 0.000078, 0.000650,1,-0.239467, 0.520759, 9.789886,1,0
1778254375044,   240.236,   240.231, 0.023102,-0.054661,-0.994256, 0.000231,-0.000547,-0.009943,-0.017093,-0.012447, 0.045974,1,-0.010154, 0.000135, 0.000926,1,-0.239451, 0.518983, 9.789980,1,0
1778254375065,   240.256,   240.251, 0.024131,-0.053318,-0.994612, 0.000239,-0.000534,-0.009947,-0.002715,-0.013104, 0.028422,1,-0.009919, 0.000532, 0.001025,1,-0.239502, 0.517012, 9.790083,1,0
1778254375092,   240.281,   240.281, 0.024678,-0.051926,-0.994040, 0.000246,-0.000520,-0.009941, 0.002329, 0.005008, 0.042018,1,-0.011061, 0.000078, 0.000269,1,-0.239682, 0.513888, 9.790243,1,0
1778254375114,   240.306,   240.301, 0.025291,-0.051856,-0.993697, 0.000253,-0.000523,-0.009935, 0.012814, 0.002480, 0.045309,1,-0.010540, 0.001275, 0.001282,1,-0.239848, 0.511830, 9.790346,1,0
1778254375135,   240.326,   240.321, 0.024918,-0.051543,-0.994396, 0.000251,-0.000515,-0.009944, 0.005541, 0.000490, 0.045188,1,-0.009624, 0.000517, 0.000056,1,-0.239986, 0.509905, 9.790443,1,0
1778254375162,   240.351,   240.351, 0.024476,-0.050331,-0.995142, 0.000245,-0.000506,-0.009953,-0.000200, 0.014174, 0.031538,1,-0.007380, 0.000558,-0.000317,1,-0.240241, 0.507520, 9.790562,1,0
1778254375184,   240.376,   240.371, 0.023839,-0.051175,-0.994021, 0.000239,-0.000513,-0.009944,-0.003472,-0.001173, 0.034431,1,-0.004528, 0.000734,-0.001779,1,-0.240425, 0.506531, 9.790608,1,0
1778254375206,   240.396,   240.391, 0.024442,-0.049533,-0.992919, 0.000244,-0.000497,-0.009928,-0.005192, 0.016996, 0.047723,1,-0.003298, 0.000543,-0.001003,1,-0.240476, 0.505812, 9.790644,1,0
1778254375233,   240.421,   240.421, 0.023866,-0.049009,-0.994684, 0.000241,-0.000489,-0.009945,-0.006430, 0.024404, 0.036169,1,-0.002514, 0.000101,-0.000989,1,-0.240475, 0.504938, 9.790689,1,0
1778254375254,   240.446,   240.441, 0.024701,-0.049399,-0.995291, 0.000246,-0.000494,-0.009955,-0.002783, 0.023759, 0.024962,1,-0.001828,-0.000602,-0.000777,1,-0.240469, 0.504478, 9.790713,1,0
1778254375276,   240.466,   240.461, 0.024743,-0.050130,-0.993036, 0.000246,-0.000500,-0.009931, 0.000955, 0.023139, 0.043698,1,-0.000424,-0.000455,-0.000185,1,-0.240487, 0.504333, 9.790720,1,0
1778254375303,   240.491,   240.491, 0.025184,-0.049119,-0.993547, 0.000255,-0.000493,-0.009932, 0.006491, 0.022881, 0.047343,1, 0.000944,-0.000216, 0.001023,1,-0.240470, 0.504607, 9.790707,1,0
1778254375324,   240.516,   240.511, 0.025996,-0.050223,-0.995616, 0.000258,-0.000502,-0.009956, 0.009685, 0.015490, 0.025029,1, 0.002259,-0.000793, 0.000613,1,-0.240447, 0.505019, 9.790686,1,0
1778254375346,   240.536,   240.531, 0.026185,-0.050580,-0.994529, 0.000261,-0.000507,-0.009941, 0.020847, 0.008140, 0.034455,1, 0.003989,-0.000029, 0.000632,1,-0.240363, 0.505722, 9.790651,1,0
1778254375373,   240.561,   240.561, 0.026530,-0.050457,-0.994832, 0.000268,-0.000502,-0.009946, 0.019856, 0.012027, 0.034629,1, 0.005002, 0.000079, 0.001451,1,-0.240315, 0.506999, 9.790586,1,0
1778254375394,   240.586,   240.581, 0.024247,-0.051315,-0.993877, 0.000245,-0.000513,-0.009937, 0.002283, 0.012251, 0.038446,1, 0.005512, 0.000690, 0.000749,1,-0.240409, 0.507974, 9.790534,1,0
1778254375416,   240.606,   240.606, 0.023683,-0.050036,-0.994593, 0.000238,-0.000503,-0.009944,-0.008278, 0.018745, 0.036827,1, 0.006499,-0.000084, 0.001469,1,-0.240549, 0.509573, 9.790447,1,0
1778254375443,   240.631,   240.631, 0.023168,-0.051091,-0.995242, 0.000232,-0.000509,-0.009951,-0.013274, 0.009885, 0.030384,1, 0.007725,-0.000319, 0.000999,1,-0.240465, 0.511159, 9.790366,1,0
1778254375464,   240.656,   240.651, 0.022847,-0.051055,-0.995135, 0.000228,-0.000511,-0.009951,-0.012861, 0.008361, 0.030925,1, 0.009540,-0.000325, 0.001593,1,-0.240520, 0.512999, 9.790269,1,0
1778254375487,   240.676,   240.676, 0.022630,-0.051385,-0.994019, 0.000227,-0.000513,-0.009940,-0.018553, 0.011557, 0.042142,1, 0.009478,-0.000884, 0.001796,1,-0.240448, 0.515773, 9.790125,1,0
1778254375513,   240.701,   240.701, 0.024147,-0.052306,-0.993544, 0.000241,-0.000522,-0.009938,-0.003534, 0.004472, 0.046700,1, 0.009471, 0.000031, 0.002259,1,-0.240335, 0.517712, 9.790026,1,0
1778254375534,   240.726,   240.721, 0.025267,-0.052401,-0.993542, 0.000255,-0.000524,-0.009931,-0.000726, 0.000248, 0.048467,1, 0.010024,-0.000939, 0.002499,1,-0.240186, 0.519640, 9.789927,1,0
1778254375557,   240.746,   240.746, 0.026297,-0.053687,-0.995166, 0.000262,-0.000534,-0.009951, 0.017952,-0.004303, 0.030552,1, 0.008923,-0.000914, 0.002317,1,-0.239899, 0.522468, 9.789783,1,0
1778254375583,   240.771,   240.771, 0.027172,-0.055443,-0.995184, 0.000270,-0.000556,-0.009952, 0.026771,-0.019823, 0.030290,1, 0.007849,-0.001152, 0.001947,1,-0.239652, 0.524138, 9.789701,1,0
1778254375605,   240.796,   240.791, 0.027922,-0.056427,-0.993680, 0.000277,-0.000562,-0.009943, 0.031706,-0.026955, 0.036858,1, 0.005457, 0.000677, 0.003242,1,-0.239639, 0.525397, 9.789633,1,0
1778254375627,   240.816,   240.816, 0.027987,-0.056761,-0.993793, 0.000280,-0.000567,-0.009937, 0.034887,-0.030948, 0.043837,1,-0.002151,-0.000081, 0.003448,1,-0.239564, 0.525624, 9.789622,1,0
1778254375653,   240.841,   240.841, 0.027994,-0.056006,-0.998737, 0.000280,-0.000560,-0.009988, 0.034989,-0.024437,-0.004593,1,-0.005962, 0.000273, 0.004181,1,-0.239544, 0.524609, 9.789678,1,0
1778254375675,   240.866,   240.861, 0.026287,-0.052270,-0.992614, 0.000266,-0.000522,-0.009931, 0.028353, 0.008478, 0.009402,1,-0.008126, 0.001783, 0.004646,1,-0.239751, 0.523123, 9.789752,1,0
1778254375697,   240.886,   240.886, 0.022263,-0.056890,-0.989503, 0.000226,-0.000566,-0.009894,-0.021876,-0.036897, 0.086144,1,-0.008159, 0.001756, 0.004327,1,-0.240247, 0.520751, 9.789866,1,0
1778254375723,   240.911,   240.911, 0.019294,-0.057301,-0.994524, 0.000195,-0.000580,-0.009939,-0.051256,-0.042298, 0.036972,1,-0.004547, 0.002006, 0.001510,1,-0.240529, 0.519497, 9.789927,1,0
1778254375745,   240.936,   240.931, 0.016313,-0.052636,-0.996845, 0.000165,-0.000532,-0.009973,-0.069638,-0.015053,-0.007083,1,-0.002457, 0.001338,-0.000291,1,-0.240848, 0.518857, 9.789952,1,0
1778254375768,   240.961,   240.956, 0.014993,-0.048801,-0.988165, 0.000151,-0.000484,-0.009882,-0.094218, 0.040343, 0.099347,1, 0.000986, 0.000831,-0.000921,1,-0.241273, 0.518947, 9.789937,1,0
1778254375793,   240.981,   240.981, 0.012639,-0.054843,-0.994475, 0.000130,-0.000542,-0.009938,-0.117431,-0.018721, 0.037454,1, 0.000991, 0.000348,-0.001176,1,-0.241391, 0.519138, 9.789924,1,0
1778254375815,   241.006,   241.001, 0.016610,-0.052782,-0.996251, 0.000164,-0.000532,-0.009969,-0.091239,-0.012393,-0.001023,1, 0.002701, 0.001574,-0.002885,1,-0.241652, 0.519539, 9.789896,1,0
1778254375838,   241.031,   241.026, 0.018921,-0.053160,-0.989577, 0.000188,-0.000528,-0.009895,-0.055296,-0.000174, 0.085392,1, 0.006732,-0.000811,-0.004044,1,-0.240832, 0.521350, 9.789820,1,0
1778254375863,   241.051,   241.051, 0.022295,-0.049121,-0.994943, 0.000220,-0.000494,-0.009948,-0.022108, 0.041181, 0.032686,1, 0.011802,-0.000897,-0.005378,1,-0.240729, 0.523255, 9.789721,1,0
1778254375885,   241.076,   241.071, 0.024924,-0.053242,-0.994767, 0.000247,-0.000527,-0.009951,-0.006309, 0.042135, 0.022711,1, 0.012658,-0.001292,-0.004227,1,-0.240646, 0.524462, 9.789659,1,0
1778254375908,   241.101,   241.096, 0.026407,-0.056844,-0.993175, 0.000263,-0.000567,-0.009933, 0.018452,-0.027726, 0.049660,1, 0.014644,-0.000134,-0.005169,1,-0.240513, 0.530172, 9.789354,1,0
1778254375933,   241.121,   241.121, 0.027412,-0.055188,-0.996774, 0.000274,-0.000552,-0.009964, 0.028435,-0.008917, 0.014229,1, 0.012333,-0.000730,-0.004740,1,-0.240367, 0.532670, 9.789222,1,0
1778254375955,   241.146,   241.141, 0.028532,-0.052424,-0.995787, 0.000288,-0.000527,-0.009961, 0.037957, 0.015187, 0.012225,1, 0.008545,-0.001002,-0.002915,1,-0.240193, 0.534569, 9.789123,1,0
1778254375978,   241.171,   241.166, 0.029434,-0.047588,-0.992784, 0.000291,-0.000481,-0.009929, 0.048408, 0.070072, 0.053113,1, 0.008378,-0.000290,-0.001093,1,-0.240238, 0.537010, 9.788988,1,0
1778254376004,   241.191,   241.191, 0.029394,-0.045651,-0.992791, 0.000293,-0.000454,-0.009926, 0.048072, 0.090642, 0.052964,1, 0.008400,-0.000182, 0.001667,1,-0.240174, 0.538594, 9.788903,1,0
1778254376025,   241.216,   241.211, 0.027093,-0.056821,-0.994944, 0.000272,-0.000572,-0.009951, 0.034219, 0.004347, 0.026555,1, 0.010676,-0.000925, 0.002756,1,-0.240214, 0.540011, 9.788824,1,0
1778254376048,   241.241,   241.236, 0.025238,-0.057548,-0.993005, 0.000256,-0.000573,-0.009934, 0.007302,-0.020857, 0.050581,1, 0.014442,-0.000157, 0.001831,1,-0.240190, 0.543945, 9.788607,1,0
1778254376074,   241.261,   241.261, 0.020315,-0.060737,-0.995790, 0.000210,-0.000609,-0.009945,-0.041032,-0.049430, 0.023114,1, 0.013252, 0.000884, 0.000540,1,-0.240285, 0.546605, 9.788456,1,0
1778254376095,   241.286,   241.281, 0.041282,-0.022939,-0.995054, 0.000412,-0.000177,-0.009910, 0.152379, 0.352970, 0.022186,1, 0.005968,-0.003777, 0.008342,1,-0.239930, 0.548842, 9.788340,1,0
1778254376118,   241.311,   241.311, 0.035570,-0.061944,-0.989675, 0.000363,-0.000611,-0.009921, 0.109420,-0.059277, 0.082992,1,-0.008618, 0.003837, 0.022174,1,-0.239486, 0.547939, 9.788401,1,0
1778254376144,   241.331,   241.331, 0.032418,-0.059381,-0.994627, 0.000333,-0.000619,-0.009951, 0.078242,-0.035630, 0.034511,1,-0.010360, 0.000849, 0.020295,1,-0.239663, 0.546392, 9.788483,1,0
1778254376165,   241.356,   241.351, 0.032234,-0.059069,-0.992236, 0.000329,-0.000584,-0.009940, 0.081755, 0.032029, 0.045540,1,-0.012849, 0.002694, 0.026488,1,-0.239811, 0.544369, 9.788592,1,0
1778254376192,   241.381,   241.381, 0.032093,-0.070611,-0.993202, 0.000322,-0.000718,-0.009945, 0.075307,-0.151207, 0.048791,1,-0.008621, 0.000114, 0.015811,1,-0.239397, 0.540992, 9.788790,1,0
1778254376214,   241.406,   241.401, 0.028381,-0.051771,-0.991716, 0.000295,-0.000512,-0.009930, 0.081273,-0.015129, 0.057776,1,-0.004920, 0.002379, 0.016725,1,-0.239528, 0.539762, 9.788855,1,0
1778254376235,   241.426,   241.421, 0.024529,-0.053757,-0.994882, 0.000248,-0.000548,-0.009952, 0.010490, 0.020286, 0.046552,1, 0.003041, 0.001329, 0.013107,1,-0.240377, 0.539378, 9.788855,1,0
1778254376262,   241.451,   241.451, 0.022623,-0.056639,-0.994109, 0.000231,-0.000566,-0.009948,-0.018424,-0.013539, 0.039834,1, 0.014668,-0.000589, 0.007805,1,-0.240251, 0.542367, 9.788692,1,0
1778254376284,   241.476,   241.471, 0.019259,-0.054971,-0.992946, 0.000197,-0.000550,-0.009931,-0.034231,-0.004480, 0.048748,1, 0.019383,-0.000592, 0.008577,1,-0.240058, 0.545840, 9.788505,1,0
1778254376305,   241.496,   241.491, 0.018203,-0.055360,-0.993602, 0.000182,-0.000550,-0.009930,-0.058947, 0.012030, 0.056147,1, 0.025271,-0.001005, 0.002995,1,-0.239847, 0.550515, 9.788247,1,0
1778254376332,   241.521,   241.521, 0.015901,-0.066031,-1.004338, 0.000151,-0.000621,-0.009958,-0.083470,-0.088960,-0.061389,1, 0.031555,-0.002919, 0.002839,1,-0.239307, 0.559567, 9.787747,1,0
1778254376354,   241.546,   241.541, 0.015752,-0.057790,-0.991983, 0.000171,-0.000591,-0.009958,-0.054094, 0.004564, 0.012017,1, 0.043311,-0.002037,-0.002149,1,-0.238886, 0.567214, 9.787317,1,0
1778254376376,   241.566,   241.561, 0.015685,-0.059490,-0.990965, 0.000148,-0.000596,-0.009886,-0.070479, 0.034326, 0.083327,1, 0.050321,-0.002357,-0.005902,1,-0.238472, 0.576507, 9.786785,1,0
1778254376402,   241.591,   241.591, 0.014238,-0.066154,-0.988479, 0.000143,-0.000640,-0.009863,-0.114737,-0.075574, 0.149309,1, 0.058575,-0.004020,-0.008958,1,-0.237731, 0.592559, 9.785844,1,0
1778254376424,   241.616,   241.611, 0.009268,-0.085141,-1.020051, 0.000075,-0.000884,-0.010205,-0.192985,-0.332683,-0.136134,1, 0.057735,-0.001108,-0.019266,1,-0.236237, 0.604311, 9.785161,1,0
1778254376446,   241.636,   241.631, 0.019278,-0.024731,-0.981491, 0.000190,-0.000258,-0.009842,-0.078081, 0.122803,-0.065436,1, 0.060401,-0.003455,-0.022336,1,-0.236199, 0.616429, 9.784407,1,0
1778254376473,   241.661,   241.661, 0.021593,-0.047354,-0.974626, 0.000214,-0.000445,-0.009730,-0.023381, 0.163419, 0.225894,1, 0.030825,-0.003104, 0.000614,1,-0.235038, 0.628761, 9.783649,1,0
1778254376494,   241.686,   241.681, 0.022282,-0.065481,-1.011136, 0.000222,-0.000661,-0.010108,-0.017031,-0.070604,-0.071360,1, 0.020142,-0.002010, 0.001177,1,-0.234539, 0.633249, 9.783372,1,0
1778254376516,   241.706,   241.701, 0.025374,-0.058926,-0.994962, 0.000254,-0.000593,-0.009972,-0.005213, 0.034572,-0.096057,1, 0.010594, 0.001400, 0.011515,1,-0.234566, 0.635960, 9.783195,1,0
1778254376543,   241.731,   241.731, 0.028387,-0.066313,-0.980348, 0.000276,-0.000656,-0.009798, 0.044415,-0.012001, 0.169130,1, 0.007551,-0.003454, 0.007569,1,-0.233844, 0.638550, 9.783044,1,0
1778254376564,   241.756,   241.751, 0.036290,-0.070814,-1.003828, 0.000363,-0.000708,-0.010036, 0.118974,-0.070611, 0.003408,1, 0.005979,-0.001495, 0.009712,1,-0.233427, 0.639796, 9.782972,1,0
1778254376586,   241.776,   241.771, 0.033823,-0.060818,-0.994218, 0.000341,-0.000610,-0.009951, 0.120132, 0.000848,-0.040249,1, 0.007768, 0.000817, 0.010089,1,-0.233304, 0.641132, 9.782888,1,0
1778254376613,   241.801,   241.801, 0.029701,-0.063722,-0.985916, 0.000301,-0.000627,-0.009856, 0.057919, 0.019168, 0.114163,1, 0.012701, 0.000064, 0.006046,1,-0.233340, 0.644464, 9.782668,1,0
1778254376634,   241.826,   241.821, 0.025714,-0.070251,-0.998416, 0.000256,-0.000707,-0.009984, 0.025324,-0.062843, 0.018712,1, 0.017156,-0.000827, 0.006396,1,-0.233275, 0.647163, 9.782492,1,0
1778254376656,   241.846,   241.846, 0.023834,-0.064713,-0.993921, 0.000237,-0.000643,-0.009941, 0.000718, 0.017845, 0.035115,1, 0.020768,-0.000719, 0.002713,1,-0.232987, 0.653114, 9.782104,1,0
1778254376683,   241.871,   241.871, 0.021282,-0.071488,-0.989978, 0.000214,-0.000704,-0.009894,-0.024119,-0.044858, 0.073529,1, 0.017520,-0.000531, 0.004723,1,-0.232796, 0.656748, 9.781864,1,0
1778254376704,   241.896,   241.891, 0.018548,-0.067612,-0.996448, 0.000188,-0.000681,-0.009968,-0.048782,-0.039147, 0.016135,1, 0.014678,-0.000301, 0.004509,1,-0.232662, 0.659740, 9.781667,1,1
1778254376727,   241.916,   241.916, 0.017892,-0.064247,-0.991948, 0.000181,-0.000640,-0.009923,-0.057095, 0.033273, 0.053734,1, 0.013265, 0.000239, 0.003332,1,-0.232556, 0.663733, 9.781399,1,1
1778254376753,   241.941,   241.941, 0.018537,-0.067338,-0.991310, 0.000184,-0.000671,-0.009909,-0.050612, 0.005441, 0.059834,1, 0.013598,-0.000394, 0.004515,1,-0.232377, 0.666233, 9.781233,1,1
1778254376774,   241.966,   241.961, 0.020485,-0.065523,-0.995329, 0.000202,-0.000651,-0.009956,-0.041933, 0.025587, 0.020818,1, 0.014715,-0.000208, 0.004006,1,-0.232216, 0.669114, 9.781040,1,1
1778254376797,   241.986,   241.986, 0.019399,-0.069261,-0.991821, 0.000196,-0.000689,-0.009919,-0.041796,-0.005797, 0.054310,1, 0.016275,-0.000739, 0.004506,1,-0.231998, 0.673934, 9.780714,1,1
1778254376823,   242.011,   242.011, 0.018668,-0.071824,-0.992310, 0.000186,-0.000718,-0.009920,-0.048306,-0.027424, 0.049285,1, 0.018064,-0.001229, 0.003633,1,-0.231222, 0.677536, 9.780484,1,1
1778254376845,   242.036,   242.031, 0.022174,-0.067650,-0.996514, 0.000223,-0.000676,-0.009969,-0.022763, 0.006416, 0.006907,1, 0.019325,-0.001853, 0.002092,1,-0.230930, 0.681180, 9.780238,1,1
1778254376867,   242.056,   242.056, 0.023210,-0.068602,-0.991844, 0.000234,-0.000682,-0.009919,-0.002923, 0.013518, 0.053222,1, 0.019639,-0.001579, 0.003190,1,-0.230483, 0.686886, 9.779849,1,1
1778254376893,   242.081,   242.081, 0.023733,-0.071256,-0.991385, 0.000237,-0.000710,-0.009913, 0.002510,-0.008654, 0.057457,1, 0.020115,-0.001170, 0.002930,1,-0.230192, 0.690752, 9.779584,1,1
1778254376915,   242.106,   242.101, 0.024228,-0.072516,-0.995250, 0.000243,-0.000725,-0.009954, 0.009262,-0.011202, 0.019093,1, 0.022043,-0.001392, 0.002364,1,-0.229936, 0.694988, 9.779289,1,1
1778254376937,   242.126,   242.126, 0.024133,-0.072667,-0.992294, 0.000240,-0.000726,-0.009922, 0.007058,-0.011744, 0.047798,1, 0.022406,-0.001683, 0.001116,1,-0.229547, 0.701573, 9.778829,1,1
1778254376963,   242.151,   242.151, 0.024530,-0.072685,-0.991979, 0.000244,-0.000725,-0.009914, 0.011285,-0.007615, 0.050588,1, 0.021341,-0.001509, 0.000809,1,-0.229224, 0.705848, 9.778528,1,1
1778254376985,   242.176,   242.171, 0.024675,-0.073902,-0.994713, 0.000248,-0.000737,-0.009949, 0.011343,-0.011637, 0.019131,1, 0.020452,-0.000800, 0.000955,1,-0.229094, 0.709955, 9.778234,1,1
1778254377008,   242.201,   242.196, 0.025710,-0.075681,-0.991994, 0.000258,-0.000755,-0.009920, 0.023419,-0.027120, 0.049734,1, 0.018025,-0.001241, 0.000755,1,-0.228671, 0.715614, 9.777832,1,1
1778254377033,   242.221,   242.221, 0.025887,-0.077379,-0.991613, 0.000258,-0.000773,-0.009915, 0.025333,-0.040364, 0.053224,1, 0.014764,-0.001132, 0.000641,1,-0.228500, 0.718930, 9.777593,1,1
1778254377055,   242.246,   242.241, 0.026733,-0.076153,-0.993564, 0.000268,-0.000761,-0.009937, 0.032529,-0.029327, 0.033995,1, 0.011262,-0.000629, 0.001088,1,-0.228305, 0.721389, 9.777416,1,1
1778254377078,   242.271,   242.266, 0.027367,-0.075905,-0.992364, 0.000275,-0.000758,-0.009925, 0.040366,-0.020836, 0.045493,1, 0.006413,-0.000855, 0.000536,1,-0.227983, 0.723738, 9.777249,1,1
1778254377103,   242.291,   242.291, 0.028034,-0.077253,-0.992333, 0.000280,-0.000772,-0.009924, 0.047005,-0.033049, 0.045728,1, 0.003455, 0.000024, 0.000414,1,-0.227917, 0.724651, 9.777184,1,1
1778254377125,   242.316,   242.311, 0.028167,-0.076617,-0.993495, 0.000283,-0.000770,-0.009933, 0.047826,-0.039072, 0.038184,1, 0.001380,-0.001029, 0.000443,1,-0.227830, 0.725029, 9.777158,1,1
1778254377148,   242.341,   242.336, 0.027749,-0.076094,-0.992129, 0.000279,-0.000762,-0.009921, 0.044219,-0.021483, 0.047718,1,-0.002771,-0.000025, 0.000420,1,-0.227904, 0.724656, 9.777184,1,1
1778254377173,   242.361,   242.361, 0.026167,-0.076603,-0.992787, 0.000264,-0.000764,-0.009927, 0.028690,-0.027133, 0.041314,1,-0.004486,-0.000097,-0.000034,1,-0.227921, 0.723944, 9.777236,1,1
1778254377195,   242.386,   242.381, 0.025527,-0.076074,-0.993657, 0.000257,-0.000764,-0.009936, 0.026476,-0.034620, 0.028917,1,-0.006821, 0.000304,-0.000296,1,-0.227941, 0.722718, 9.777326,1,1
1778254377218,   242.411,   242.406, 0.025473,-0.075050,-0.993952, 0.000254,-0.000749,-0.009939, 0.021152,-0.015456, 0.030129,1,-0.011897, 0.000741, 0.000593,1,-0.228827, 0.720292, 9.777484,1,1
1778254377244,   242.431,   242.431, 0.026129,-0.070257,-0.992795, 0.000263,-0.000702,-0.009934, 0.027329, 0.029233, 0.041644,1,-0.013753, 0.000379, 0.000789,1,-0.228916, 0.717789, 9.777666,1,1
1778254377265,   242.456,   242.451, 0.025186,-0.073495,-0.995763, 0.000253,-0.000735,-0.009958, 0.026584, 0.013053, 0.017298,1,-0.014395, 0.000668, 0.002179,1,-0.228996, 0.715042, 9.777865,1,1
1778254377288,   242.481,   242.476, 0.024078,-0.070419,-0.999081, 0.000243,-0.000707,-0.009990, 0.006601, 0.020473,-0.019494,1,-0.017314, 0.003920, 0.004309,1,-0.229634, 0.710512, 9.778181,1,1
1778254377314,   242.501,   242.501, 0.019624,-0.071039,-0.994545, 0.000199,-0.000710,-0.009951,-0.037879, 0.010234, 0.025272,1,-0.024711, 0.004962, 0.006348,1,-0.230460, 0.706129, 9.778480,1,1
1778254377335,   242.526,   242.521, 0.015571,-0.073870,-0.982412, 0.000164,-0.000760,-0.009844,-0.081507,-0.000096, 0.158791,1,-0.033724, 0.003704, 0.008873,1,-0.231178, 0.700120, 9.778894,1,1
1778254377358,   242.551,   242.551, 0.017306,-0.080303,-0.994072, 0.000169,-0.000791,-0.009990,-0.062117,-0.097788, 0.031099,1,-0.041722, 0.000784, 0.009066,1,-0.231831, 0.688423, 9.779709,1,1
1778254377384,   242.571,   242.571, 0.033348,-0.091981,-0.996672, 0.000329,-0.000927,-0.009944, 0.095739,-0.220179, 0.006167,1,-0.039573,-0.005143, 0.000061,1,-0.231135, 0.680610, 9.780272,1,1
1778254377405,   242.596,   242.591, 0.034441,-0.066651,-0.985025, 0.000357,-0.000665,-0.009868, 0.123770, 0.012615, 0.102166,1,-0.042726, 0.006738, 0.000543,1,-0.231627, 0.672519, 9.780821,1,1
1778254377432,   242.621,   242.621, 0.014114,-0.077236,-0.994893, 0.000143,-0.000766,-0.009937,-0.095424,-0.097241, 0.025041,1,-0.050933, 0.008264,-0.000262,1,-0.234091, 0.658605, 9.781709,1,1
1778254377454,   242.646,   242.641, 0.007288,-0.079840,-0.993570, 0.000079,-0.000811,-0.009949,-0.141856,-0.170617, 0.037331,1,-0.043368, 0.003576,-0.007573,1,-0.235293, 0.649649, 9.782279,1,1
1778254377475,   242.666,   242.661, 0.009710,-0.071738,-0.993199, 0.000099,-0.000745,-0.009933,-0.141637,-0.123280,-0.011916,1,-0.037510, 0.001154,-0.014023,1,-0.235653, 0.641927, 9.782780,1,1
1778254377502,   242.691,   242.691, 0.023470,-0.036804,-0.979016, 0.000248,-0.000383,-0.009835,-0.005751, 0.273454, 0.182397,1,-0.026256,-0.003440,-0.016236,1,-0.235836, 0.633550, 9.783321,1,1
1778254377524,   242.716,   242.711, 0.009361,-0.094563,-1.005164, 0.000087,-0.000907,-0.010008,-0.087973,-0.071678,-0.045122,1,-0.022482, 0.004310,-0.014863,1,-0.236541, 0.629001, 9.783598,1,1
1778254377545,   242.736,   242.731, 0.002505,-0.074169,-0.992756, 0.000014,-0.000777,-0.009937,-0.210798,-0.267440,-0.024090,1, 0.003660, 0.001992,-0.030364,1,-0.237603, 0.628332, 9.783615,1,1
1778254377572,   242.761,   242.761, 0.014675,-0.059215,-0.992115, 0.000132,-0.000577,-0.009882,-0.093572, 0.051933, 0.054021,1, 0.024032,-0.005269,-0.036431,1,-0.237391, 0.633351, 9.783297,1,1
1778254377594,   242.786,   242.781, 0.010520,-0.074672,-0.980116, 0.000111,-0.000771,-0.009821,-0.113147,-0.154669, 0.085358,1, 0.037718,-0.004043,-0.046126,1,-0.236783, 0.639571, 9.782907,1,1
1778254377616,   242.806,   242.801,-0.004999, 0.004808,-1.005497,-0.000049, 0.000004,-0.010013,-0.203092, 0.251154, 0.133571,1, 0.032197, 0.001424,-0.044604,1,-0.237208, 0.646682, 9.782429,1,1
1778254377643,   242.831,   242.831, 0.000640,-0.003595,-1.024742, 0.000004, 0.000015,-0.010250,-0.232204, 0.611966,-0.266927,1,-0.028685,-0.002567, 0.010184,1,-0.238376, 0.646331, 9.782424,1,1
1778254377664,   242.856,   242.851, 0.039603,-0.072098,-0.969760, 0.000375,-0.000748,-0.009726,-0.052613,-0.000035, 0.105249,1,-0.053420,-0.009093, 0.021188,1,-0.236232, 0.637242, 9.783072,1,1
1778254377686,   242.876,   242.871, 0.061549,-0.051336,-0.988378, 0.000613,-0.000521,-0.009858, 0.308393, 0.022379, 0.268635,1,-0.080416,-0.004207, 0.034899,1,-0.234739, 0.623572, 9.783989,1,1
1778254377713,   242.901,   242.901, 0.058467,-0.069761,-1.008582, 0.000595,-0.000666,-0.010089, 0.337731,-0.088666,-0.105097,1,-0.120627, 0.011702, 0.048368,1,-0.235903, 0.591732, 9.785938,1,1
1778254377734,   242.926,   242.921, 0.052193,-0.069067,-0.963440, 0.000506,-0.000717,-0.009620, 0.222363,-0.248764, 0.169977,1,-0.124864, 0.009600, 0.042430,1,-0.237548, 0.567726, 9.787320,1,1
1778254377756,   242.946,   242.941, 0.071523,-0.058001,-0.999585, 0.000704,-0.000566,-0.009977, 0.364904, 0.009733, 0.261189,1,-0.127469,-0.002385, 0.046022,1,-0.237321, 0.543184, 9.788719,1,1
1778254377783,   242.971,   242.971, 0.083691,-0.100830,-1.020597, 0.000831,-0.000993,-0.010223, 0.584081,-0.477025,-0.218209,1,-0.109555, 0.004102, 0.022801,1,-0.236742, 0.508386, 9.790602,1,1
1778254377804,   242.996,   242.991, 0.065145,-0.068993,-0.971616, 0.000659,-0.000714,-0.009725, 0.469703,-0.414039, 0.194426,1,-0.092973, 0.009246, 0.007083,1,-0.238024, 0.489573, 9.791530,1,1
1778254377826,   243.016,   243.011, 0.053885,-0.045513,-0.997256, 0.000544,-0.000467,-0.009955, 0.343881,-0.005800, 0.162428,1,-0.092175, 0.009127, 0.005956,1,-0.240088, 0.471565, 9.792363,1,1
1778254377853,   243.041,   243.041, 0.041330,-0.052180,-1.003051, 0.000415,-0.000532,-0.010026, 0.163138,-0.064023,-0.043137,1,-0.087851, 0.006578,-0.005388,1,-0.242385, 0.444948, 9.793551,1,1
1778254377874,   243.066,   243.061, 0.032523,-0.026501,-0.981623, 0.000324,-0.000290,-0.009816, 0.093158, 0.082744, 0.134284,1,-0.080473, 0.005415, 0.000095,1,-0.243694, 0.428680, 9.794245,1,1
1778254377896,   243.086,   243.086, 0.026763,-0.035849,-1.002441, 0.000272,-0.000345,-0.010000, 0.018039, 0.059119,-0.035593,1,-0.057740, 0.003871,-0.007419,1,-0.244547, 0.408874, 9.795071,1,1
1778254377923,   243.111,   243.111, 0.016363,-0.057948,-1.011288, 0.000172,-0.000575,-0.010143,-0.085213,-0.168330,-0.121935,1,-0.051342, 0.007319,-0.011811,1,-0.245920, 0.398339, 9.795470,1,1
1778254377944,   243.136,   243.131, 0.009384,-0.028213,-0.978035, 0.000088,-0.000287,-0.009764,-0.160811,-0.006432, 0.198094,1,-0.059206, 0.003538,-0.006205,1,-0.246970, 0.387426, 9.795881,1,1
1778254377967,   243.156,   243.156, 0.015460,-0.035867,-1.008095, 0.000154,-0.000360,-0.010072,-0.095998, 0.015612,-0.089400,1,-0.085777, 0.003138,-0.000886,1,-0.247704, 0.364675, 9.796736,1,1
1778254377993,   243.181,   243.181, 0.013657,-0.034171,-0.997491, 0.000136,-0.000356,-0.009995,-0.114733, 0.014852, 0.015199,1,-0.090502, 0.007354, 0.001858,1,-0.248894, 0.347138, 9.797343,1,1
1778254378014,   243.206,   243.201, 0.023099,-0.029157,-0.989147, 0.000221,-0.000301,-0.009889,-0.065538, 0.047682, 0.122024,1,-0.097449, 0.002833, 0.007262,1,-0.249759, 0.328360, 9.797968,1,1
1778254378037,   243.226,   243.226, 0.039553,-0.033704,-1.002625, 0.000380,-0.000336,-0.010019, 0.138090,-0.029560,-0.033549,1,-0.109031,-0.000898, 0.007501,1,-0.249753, 0.297567, 9.798952,1,1
1778254378063,   243.251,   243.251, 0.052188,-0.037524,-0.998473, 0.000518,-0.000381,-0.009998, 0.261933,-0.089622, 0.007842,1,-0.120697, 0.002297, 0.012188,1,-0.249919, 0.274612, 9.799618,1,1
1778254378085,   243.276,   243.271, 0.061647,-0.027749,-0.985028, 0.000617,-0.000286,-0.009847, 0.333403,-0.051238, 0.122438,1,-0.124786, 0.004005, 0.012524,1,-0.250544, 0.250405, 9.800250,1,1
1778254378107,   243.296,   243.296, 0.068809,-0.026413,-0.996166, 0.000681,-0.000262,-0.009950, 0.423358,-0.041276, 0.031955,1,-0.125906, 0.003748, 0.008971,1,-0.251540, 0.213822, 9.801091,1,1
1778254378133,   243.321,   243.321, 0.076887,-0.032818,-1.008447, 0.000757,-0.000321,-0.010055, 0.501947,-0.128779,-0.087976,1,-0.125635, 0.003629, 0.008739,1,-0.252168, 0.189147, 9.801582,1,1
1778254378155,   243.346,   243.341, 0.075433,-0.019151,-0.986530, 0.000761,-0.000212,-0.009886, 0.514535,-0.072658, 0.060634,1,-0.119011, 0.003375, 0.004353,1,-0.252763, 0.165305, 9.801998,1,1
1778254378177,   243.366,   243.366, 0.069522,-0.014806,-0.987525, 0.000698,-0.000158,-0.009859, 0.427082,-0.009873, 0.118100,1,-0.109129, 0.009980, 0.000093,1,-0.255002, 0.131917, 9.802446,1,1
1778254378203,   243.391,   243.391, 0.061920,-0.002787,-0.997729, 0.000624,-0.000044,-0.009971, 0.350721, 0.087442, 0.018247,1,-0.099780, 0.008842,-0.000379,1,-0.256787, 0.111656, 9.802651,1,1
1778254378225,   243.416,   243.411, 0.054012, 0.004623,-1.001388, 0.000543, 0.000044,-0.010017, 0.302295, 0.148099,-0.051184,1,-0.093305, 0.007706, 0.002096,1,-0.258506, 0.093489, 9.802796,1,1
1778254378248,   243.441,   243.436, 0.053166, 0.003490,-0.992711, 0.000529, 0.000036,-0.009924, 0.261238, 0.103904, 0.067780,1,-0.088075, 0.004229, 0.007214,1,-0.260273, 0.066938, 9.802967,1,1
1778254378273,   243.461,   243.461, 0.054931, 0.003153,-0.993647, 0.000547, 0.000033,-0.009930, 0.278061, 0.083556, 0.058694,1,-0.087360, 0.002499, 0.011680,1,-0.260703, 0.049924, 9.803057,1,1
1778254378295,   243.486,   243.481, 0.060548,-0.005710,-0.994762, 0.000608,-0.000051,-0.009953, 0.311949, 0.012717, 0.017149,1,-0.085496, 0.003175, 0.012545,1,-0.261278, 0.033007, 9.803113,1,1
1778254378318,   243.511,   243.506, 0.051095,-0.013130,-0.992491, 0.000518,-0.000132,-0.009928, 0.238494,-0.117759, 0.070119,1,-0.079914, 0.008139, 0.009468,1,-0.262828, 0.008517, 9.803123,1,1
1778254378343,   243.531,   243.531, 0.037265,-0.014207,-0.992930, 0.000388,-0.000148,-0.009925, 0.100616,-0.143701, 0.065752,1,-0.076687, 0.013597, 0.003345,1,-0.265252,-0.006773, 9.803060,1,1
1778254378365,   243.556,   243.551, 0.018515, 0.002963,-1.000841, 0.000202, 0.000013,-0.010011,-0.020129,-0.056505, 0.013085,1,-0.074474, 0.013749,-0.000280,1,-0.267901,-0.021462, 9.802966,1,1
1778254378388,   243.581,   243.576, 0.012055, 0.020505,-0.993052, 0.000135, 0.000114,-0.010043,-0.153063, 0.160862, 0.064300,1,-0.071743, 0.011052, 0.000035,1,-0.271625,-0.042457, 9.802795,1,1
1778254378413,   243.601,   243.601, 0.002385, 0.010100,-0.992264, 0.000004, 0.000122,-0.009817,-0.250136, 0.045080, 0.071900,1,-0.069263, 0.012900, 0.002522,1,-0.273930,-0.056122, 9.802663,1,1
1778254378435,   243.626,   243.621, 0.015743, 0.006306,-1.003578, 0.000137, 0.000007,-0.009964,-0.179449, 0.112309, 0.160316,1,-0.097549, 0.006742, 0.010395,1,-0.276364,-0.073840, 9.802477,1,1
1778254378458,   243.651,   243.646, 0.013789,-0.002178,-0.992865, 0.000150, 0.000000,-0.009958,-0.142503,-0.124535, 0.065488,1,-0.116725, 0.011194, 0.018318,1,-0.278082,-0.106801, 9.802125,1,1
1778254378484,   243.671,   243.671, 0.021217, 0.013153,-0.991973, 0.000244, 0.000066,-0.009989,-0.071564, 0.001155, 0.073894,1,-0.126004, 0.009284, 0.015660,1,-0.279924,-0.131751, 9.801768,1,1
1778254378505,   243.696,   243.691, 0.012416, 0.017550,-0.983233, 0.000152, 0.000199,-0.009879,-0.120291, 0.032906, 0.072146,1,-0.131302, 0.015517, 0.017132,1,-0.282500,-0.157460, 9.801315,1,1
1778254378528,   243.721,   243.716, 0.011140, 0.016479,-0.992369, 0.000128, 0.000133,-0.009969,-0.176771,-0.032320, 0.068738,1,-0.143876, 0.011892, 0.019809,1,-0.286403,-0.198393, 9.800459,1,1
1778254378554,   243.741,   243.741, 0.010265, 0.037872,-0.990692, 0.000116, 0.000342,-0.009939,-0.187675, 0.150013, 0.084535,1,-0.145330, 0.010427, 0.022040,1,-0.288677,-0.225901, 9.799797,1,1
1778254378575,   243.766,   243.761, 0.006382, 0.053784,-0.996459, 0.000091, 0.000455,-0.010066,-0.212072, 0.277019, 0.089643,1,-0.133351, 0.002881, 0.022868,1,-0.289907,-0.253558, 9.799084,1,1
1778254378598,   243.791,   243.791, 0.016941, 0.051366,-0.993535, 0.000152, 0.000517,-0.009941,-0.126620, 0.216254, 0.054816,1,-0.124935, 0.007186, 0.024049,1,-0.293002,-0.291348, 9.797941,1,1
1778254378624,   243.811,   243.811, 0.006916, 0.065289,-0.965149, 0.000221, 0.000591,-0.009953,-0.225238, 0.330287, 0.332486,1,-0.098800,-0.004618, 0.025634,1,-0.292873,-0.313173, 9.797272,1,1
1778254378645,   243.836,   243.831, 0.028170, 0.024292,-1.005553, 0.000253, 0.000335,-0.009930,-0.005487, 0.136360,-0.047751,1,-0.097698,-0.005322, 0.027584,1,-0.292671,-0.331815, 9.796664,1,1
1778254378672,   243.861,   243.861, 0.014240, 0.029195,-0.965605, 0.000190, 0.000284,-0.009730,-0.155814,-0.066488, 0.326496,1,-0.072122, 0.010872, 0.020393,1,-0.295824,-0.355022, 9.795755,1,1
1778254378694,   243.886,   243.881, 0.011750, 0.039578,-1.014592, 0.000091, 0.000431,-0.010069,-0.171771, 0.181612,-0.075043,1,-0.075614, 0.003613, 0.023499,1,-0.297104,-0.369161, 9.795195,1,1
1778254378715,   243.901,   243.901, 0.008895, 0.033466,-1.008064, 0.000089, 0.000387,-0.010054,-0.210666,-0.051227,-0.090950,1,-0.056505, 0.005116, 0.019787,1,-0.298075,-0.381156, 9.794705,1,1
1778254378742,   243.931,   243.931, 0.006199, 0.044189,-0.991515, 0.000057, 0.000417,-0.009907,-0.237862, 0.041606, 0.070828,1,-0.030778,-0.000506, 0.009705,1,-0.298651,-0.392689, 9.794232,1,1
1778254378764,   243.956,   243.951, 0.010289, 0.046397,-0.996901, 0.000119, 0.000456,-0.010006,-0.211817, 0.032735, 0.038673,1,-0.018035,-0.001259, 0.007852,1,-0.298481,-0.396832, 9.794070,1,1
1778254378786,   243.976,   243.971, 0.014013, 0.053893,-0.999977, 0.000137, 0.000520,-0.010007,-0.178158, 0.073944,-0.023213,1,-0.011807,-0.003254, 0.005321,1,-0.297931,-0.399674, 9.793972,1,1
1778254378812,   244.001,   244.001, 0.014572, 0.063810,-0.989795, 0.000150, 0.000646,-0.009899,-0.154421, 0.226351, 0.087425,1, 0.010940,-0.003424, 0.009694,1,-0.297228,-0.399059, 9.794018,1,1
1778254378834,   244.026,   244.021, 0.013886, 0.043378,-0.998335, 0.000136, 0.000441,-0.009975,-0.163487, 0.129010, 0.060958,1, 0.023305,-0.002982, 0.008610,1,-0.296348,-0.396241, 9.794159,1,1
1778254378856,   244.046,   244.041, 0.009598, 0.040641,-0.996835, 0.000099, 0.000412,-0.009975,-0.176677, 0.003767,-0.014445,1, 0.036092,-0.002882, 0.004819,1,-0.295814,-0.389940, 9.794428,1,1
1778254378883,   244.071,   244.071, 0.006036, 0.045092,-0.990883, 0.000063, 0.000450,-0.009918,-0.235964, 0.064413, 0.077677,1, 0.052139,-0.003956, 0.003317,1,-0.295035,-0.376160, 9.794991,1,1
1778254378904,   244.096,   244.091, 0.005829, 0.045766,-0.998451, 0.000057, 0.000462,-0.009985,-0.248867, 0.093230, 0.027760,1, 0.061763,-0.005500, 0.001029,1,-0.294042,-0.364572, 9.795459,1,1
1778254378926,   244.116,   244.111, 0.004575, 0.041264,-0.998538, 0.000046, 0.000418,-0.009985,-0.238626, 0.078451,-0.002732,1, 0.064786,-0.006410, 0.002038,1,-0.292820,-0.351981, 9.795956,1,1
1778254378953,   244.141,   244.141, 0.003446, 0.037777,-0.991330, 0.000035, 0.000378,-0.009914,-0.257861, 0.036012, 0.074982,1, 0.069502,-0.005093, 0.004760,1,-0.291506,-0.332285, 9.796683,1,1
1778254378974,   244.166,   244.161, 0.000516, 0.040109,-0.999600, 0.000003, 0.000409,-0.009991,-0.287155, 0.087091, 0.026319,1, 0.071955,-0.005088, 0.004517,1,-0.290524,-0.318352, 9.797174,1,1
1778254378996,   244.186,   244.181,-0.000182, 0.029269,-0.996171,-0.000001, 0.000306,-0.009966,-0.279585, 0.040425, 0.001540,1, 0.073840,-0.004422, 0.006322,1,-0.289654,-0.303931, 9.797658,1,1
1778254379023,   244.211,   244.211,-0.001120, 0.022360,-0.992417,-0.000014, 0.000220,-0.009924,-0.299364,-0.065970, 0.065972,1, 0.075279,-0.004238, 0.003426,1,-0.288209,-0.283080, 9.798326,1,1
1778254379044,   244.231,   244.231,-0.001114, 0.028892,-0.996651,-0.000010, 0.000291,-0.009958,-0.298299, 0.012928, 0.024904,1, 0.076619,-0.004642, 0.001884,1,-0.287228,-0.268019, 9.798778,1,1
1778254379066,   244.256,   244.251,-0.002256, 0.026211,-0.997085,-0.000021, 0.000268,-0.009969,-0.301839, 0.022116, 0.016531,1, 0.082461,-0.004348,-0.000256,1,-0.286404,-0.252387, 9.799217,1,1
1778254379093,   244.281,   244.281, 0.002146, 0.020165,-0.997598, 0.000016, 0.000214,-0.009976,-0.264186,-0.032080, 0.016711,1, 0.086052,-0.004584,-0.002784,1,-0.285090,-0.227148, 9.799873,1,1
1778254379114,   244.306,   244.301, 0.011452, 0.023067,-0.996505, 0.000112, 0.000227,-0.009967,-0.206489,-0.033010, 0.023314,1, 0.084128,-0.005547,-0.002116,1,-0.284048,-0.210549, 9.800274,1,1
1778254379136,   244.326,   244.326, 0.018299, 0.028126,-0.995879, 0.000177, 0.000289,-0.009957,-0.103220, 0.087139, 0.034525,1, 0.082017,-0.005695,-0.000248,1,-0.282497,-0.186120, 9.800813,1,1
1778254379163,   244.351,   244.351, 0.022092, 0.017025,-0.996496, 0.000219, 0.000183,-0.009965,-0.065064,-0.006006, 0.028784,1, 0.079579,-0.004232, 0.000644,1,-0.281580,-0.170482, 9.801124,1,1
1778254379184,   244.376,   244.371, 0.021955, 0.011107,-0.993633, 0.000225, 0.000113,-0.009934,-0.058045,-0.046200, 0.053875,1, 0.078634,-0.003809, 0.001352,1,-0.280889,-0.154998, 9.801401,1,1
1778254379207,   244.396,   244.396, 0.020435, 0.006015,-0.996678, 0.000207, 0.000069,-0.009962,-0.079710,-0.075659, 0.027650,1, 0.076477,-0.002056,-0.000849,1,-0.280049,-0.132258, 9.801758,1,1
1778254379233,   244.421,   244.421, 0.018373, 0.007465,-0.998207, 0.000184, 0.000078,-0.009981,-0.099226,-0.046451, 0.012868,1, 0.074836,-0.002315,-0.002498,1,-0.279325,-0.117326, 9.801969,1,1
1778254379255,   244.446,   244.441, 0.018923, 0.010709,-0.994691, 0.000185, 0.000112,-0.009944,-0.106151, 0.011848, 0.049642,1, 0.071957,-0.002667,-0.002062,1,-0.278834,-0.102983, 9.802144,1,1
1778254379277,   244.466,   244.466, 0.020935, 0.005128,-0.998072, 0.000208, 0.000061,-0.009978,-0.072474,-0.034009, 0.014609,1, 0.069628,-0.003810,-0.003216,1,-0.277654,-0.082133, 9.802375,1,1
1778254379303,   244.491,   244.491, 0.024164,-0.000152,-0.996131, 0.000242,-0.000002,-0.009964,-0.040116,-0.072604, 0.033768,1, 0.066023,-0.003202,-0.002701,1,-0.276979,-0.069052, 9.802494,1,1
1778254379325,   244.516,   244.511, 0.026394, 0.000190,-0.994172, 0.000261, 0.000005,-0.009941,-0.025061,-0.054860, 0.061251,1, 0.060634,-0.003136,-0.003074,1,-0.276357,-0.056839, 9.802590,1,1
1778254379347,   244.536,   244.536, 0.027772,-0.001277,-0.996050, 0.000280,-0.000016,-0.009963,-0.003402,-0.054082, 0.034766,1, 0.056990,-0.002908,-0.006071,1,-0.275656,-0.039786, 9.802694,1,1
1778254379373,   244.561,   244.561, 0.030079,-0.000202,-0.997659, 0.000297,-0.000002,-0.009977, 0.019698,-0.032696, 0.019040,1, 0.053588,-0.003131,-0.005296,1,-0.275178,-0.029052, 9.802746,1,1
1778254379395,   244.586,   244.581, 0.031396,-0.002740,-0.995010, 0.000316,-0.000022,-0.009953, 0.032252,-0.030341, 0.043389,1, 0.046900,-0.001848,-0.004330,1,-0.274743,-0.019449, 9.802781,1,1
1778254379417,   244.606,   244.606, 0.032045,-0.004410,-0.994227, 0.000321,-0.000041,-0.009944, 0.040599,-0.051235, 0.052791,1, 0.037782,-0.001687,-0.003696,1,-0.273447,-0.006652, 9.802835,1,1
1778254379443,   244.631,   244.631, 0.033261,-0.005477,-0.996086, 0.000331,-0.000052,-0.009959, 0.052892,-0.054921, 0.034577,1, 0.030946,-0.001477,-0.003937,1,-0.273237,-0.000252, 9.802843,1,1
1778254379465,   244.656,   244.651, 0.035637,-0.009917,-0.996040, 0.000358,-0.000095,-0.009959, 0.072561,-0.081775, 0.031590,1, 0.024938,-0.000432,-0.004637,1,-0.273089, 0.004938, 9.802846,1,1
1778254379488,   244.681,   244.676, 0.038930,-0.008088,-0.993362, 0.000388,-0.000083,-0.009932, 0.108969,-0.068782, 0.061294,1, 0.018899,-0.002156,-0.005510,1,-0.272732, 0.011122, 9.802851,1,1
1778254379513,   244.701,   244.701, 0.042043,-0.005127,-0.996634, 0.000420,-0.000049,-0.009963, 0.139879,-0.036453, 0.029210,1, 0.014494,-0.002386,-0.005846,1,-0.272350, 0.014269, 9.802857,1,1
1778254379535,   244.726,   244.721, 0.044546,-0.007176,-0.993593, 0.000444,-0.000072,-0.009942, 0.158761,-0.040596, 0.030681,1, 0.011560,-0.000439,-0.007391,1,-0.272163, 0.016762, 9.802858,1,1
1778254379558,   244.751,   244.746, 0.044510,-0.008469,-0.992822, 0.000445,-0.000086,-0.009926, 0.164496,-0.064255, 0.066600,1, 0.004324,-0.001099,-0.007121,1,-0.271960, 0.018928, 9.802860,1,1
1778254379583,   244.771,   244.771, 0.045105,-0.006274,-0.995781, 0.000450,-0.000066,-0.009956, 0.170292,-0.042431, 0.037584,1, 0.000001, 0.001371,-0.007661,1,-0.272084, 0.019092, 9.802856,1,1
1778254379605,   244.796,   244.791, 0.043884,-0.003388,-0.995112, 0.000437,-0.000032,-0.009955, 0.158087,-0.006341, 0.030343,1,-0.002693, 0.000067,-0.006151,1,-0.272150, 0.018680, 9.802855,1,1
1778254379628,   244.821,   244.816, 0.042861,-0.006601,-0.993543, 0.000430,-0.000066,-0.009931, 0.147613,-0.046716, 0.059516,1,-0.008518, 0.000346,-0.006038,1,-0.272728, 0.017759, 9.802841,1,1
1778254379653,   244.841,   244.841, 0.042017,-0.002700,-0.996909, 0.000419,-0.000028,-0.009968, 0.139200,-0.010669, 0.026505,1,-0.013220, 0.000825,-0.005312,1,-0.272871, 0.015390, 9.802841,1,1
1778254379675,   244.866,   244.861, 0.038851,-0.004865,-0.995837, 0.000387,-0.000050,-0.009963, 0.112700,-0.023241, 0.018450,1,-0.022366, 0.001569,-0.002794,1,-0.273155, 0.011603, 9.802838,1,1
1778254379698,   244.891,   244.886, 0.038000,-0.002636,-0.990865, 0.000378,-0.000031,-0.009911, 0.099428,-0.021610, 0.085777,1,-0.031380, 0.000480,-0.001309,1,-0.273243, 0.003256, 9.802842,1,1
1778254379724,   244.911,   244.911, 0.036996,-0.001081,-0.995329, 0.000371,-0.000010,-0.009951, 0.089406,-0.012809, 0.041990,1,-0.034624, 0.001053,-0.001067,1,-0.273432,-0.003289, 9.802836,1,1
1778254379745,   244.936,   244.931, 0.033699, 0.001283,-0.995760, 0.000339, 0.000006,-0.009959, 0.069065,-0.011941, 0.025455,1,-0.034134, 0.002460,-0.001770,1,-0.273868,-0.010058, 9.802820,1,1
1778254379768,   244.961,   244.956, 0.032502, 0.006004,-0.994979, 0.000327, 0.000053,-0.009948, 0.044630, 0.039813, 0.045385,1,-0.034139, 0.000774,-0.000385,1,-0.274126,-0.020135, 9.802797,1,1
1778254379794,   244.981,   244.981, 0.032393, 0.008424,-0.996662, 0.000325, 0.000086,-0.009968, 0.043321, 0.056871, 0.028862,1,-0.034106, 0.000742, 0.000789,1,-0.274365,-0.026802, 9.802774,1,1
1778254379815,   245.006,   245.001, 0.030883,-0.000683,-0.995164, 0.000310,-0.000007,-0.009953, 0.033674,-0.001934, 0.039160,1,-0.033368, 0.001140, 0.001002,1,-0.274709,-0.033365, 9.802745,1,1
1778254379838,   245.031,   245.031, 0.029244, 0.007217,-0.995164, 0.000292, 0.000062,-0.009948, 0.011139, 0.029622, 0.043461,1,-0.026721, 0.001697,-0.000256,1,-0.275699,-0.041982, 9.802684,1,1
1778254379864,   245.051,   245.051, 0.027212, 0.012210,-0.996130, 0.000275, 0.000127,-0.009962,-0.009055, 0.073605, 0.033959,1,-0.024755, 0.001774, 0.001080,1,-0.275971,-0.046903, 9.802654,1,1
1778254379885,   245.076,   245.071, 0.027118, 0.005396,-0.994743, 0.000269, 0.000048,-0.009946,-0.020207,-0.008510, 0.051915,1,-0.020363, 0.000400,-0.000348,1,-0.276180,-0.051157, 9.802627,1,1
1778254379912,   245.101,   245.101, 0.029486, 0.011636,-0.997485, 0.000292, 0.000113,-0.009972, 0.013319, 0.059211, 0.020626,1,-0.009421,-0.001439,-0.001537,1,-0.275795,-0.055198, 9.802616,1,1
1778254379934,   245.126,   245.121, 0.027532, 0.007503,-0.993268, 0.000276, 0.000078,-0.009934, 0.008720, 0.045150, 0.036553,1,-0.004115, 0.000019,-0.002379,1,-0.275744,-0.056360, 9.802610,1,1
1778254379955,   245.146,   245.141, 0.026369, 0.004259,-0.994465, 0.000266, 0.000040,-0.009939,-0.012895,-0.014218, 0.062285,1,-0.001535, 0.000511,-0.002271,1,-0.275827,-0.056830, 9.802606,1,1
1778254379982,   245.171,   245.171, 0.027458, 0.008197,-0.997285, 0.000274, 0.000077,-0.009975,-0.006342, 0.023640, 0.022589,1, 0.001921,-0.001655,-0.003175,1,-0.275560,-0.056685, 9.802614,1,1
1778254380004,   245.196,   245.191, 0.030500, 0.011450,-0.995978, 0.000305, 0.000114,-0.009957, 0.013058, 0.044691, 0.049010,1, 0.005537,-0.003053,-0.004001,1,-0.275068,-0.055923, 9.802632,1,1
1778254380025,   245.216,   245.211, 0.030293, 0.011840,-0.998088, 0.000302, 0.000122,-0.009983, 0.029184, 0.076415, 0.019474,1, 0.013336,-0.001698,-0.003482,1,-0.274643,-0.054199, 9.802653,1,1
1778254380052,   245.241,   245.241, 0.027476, 0.006029,-0.995412, 0.000276, 0.000060,-0.009956,-0.004865, 0.009823, 0.041029,1, 0.021010,-0.001048,-0.004771,1,-0.274278,-0.048650, 9.802693,1,1
1778254380074,   245.266,   245.261, 0.025827, 0.008987,-0.996572, 0.000258, 0.000093,-0.009966,-0.018948, 0.036782, 0.043587,1, 0.022335,-0.001984,-0.002541,1,-0.273943,-0.044349, 9.802723,1,1
1778254380096,   245.286,   245.281, 0.024634, 0.005469,-0.996763, 0.000248, 0.000055,-0.009966,-0.018658, 0.029720, 0.030034,1, 0.018486,-0.001203,-0.000652,1,-0.273639,-0.040500, 9.802748,1,1
1778254380123,   245.311,   245.311, 0.021476, 0.008211,-0.995771, 0.000215, 0.000080,-0.009958,-0.062747, 0.044662, 0.037598,1, 0.016735,-0.000044, 0.000073,1,-0.273351,-0.035337, 9.802776,1,1
1778254380144,   245.336,   245.331, 0.015233,-0.000573,-0.992822, 0.000155,-0.000001,-0.009932,-0.105103, 0.007783, 0.036909,1, 0.012958, 0.000886, 0.002761,1,-0.273563,-0.032551, 9.802779,1,1
1778254380166,   245.356,   245.351, 0.016703, 0.002497,-0.995978, 0.000163, 0.000016,-0.009954,-0.125382,-0.050116, 0.066404,1, 0.009611,-0.000008, 0.002022,1,-0.273630,-0.030503, 9.802784,1,1
1778254380193,   245.381,   245.381, 0.016887, 0.006992,-1.000918, 0.000168, 0.000073,-0.010013,-0.107718, 0.040531,-0.012854,1, 0.008298,-0.000687, 0.003911,1,-0.273301,-0.027774, 9.802802,1,1
1778254380214,   245.406,   245.401, 0.016577, 0.006543,-0.993228, 0.000166, 0.000063,-0.009930,-0.106164, 0.019847, 0.039711,1, 0.011326,-0.000028, 0.001670,1,-0.273290,-0.025832, 9.802807,1,1
1778254380236,   245.426,   245.421, 0.017355, 0.004424,-0.994955, 0.000175, 0.000049,-0.009946,-0.112177, 0.046526, 0.060897,1, 0.013597,-0.001574, 0.003095,1,-0.272010,-0.023754, 9.802848,1,1
1778254380263,   245.451,   245.451, 0.022179, 0.002893,-0.997703, 0.000218, 0.000026,-0.009983,-0.054069, 0.008640, 0.018744,1, 0.017617,-0.002059, 0.001921,1,-0.271506,-0.019183, 9.802872,1,1
1778254380284,   245.476,   245.471, 0.025827, 0.005405,-0.994771, 0.000260, 0.000062,-0.009946,-0.021937, 0.058213, 0.042638,1, 0.023681,-0.000066, 0.001660,1,-0.271348,-0.014888, 9.802884,1,1
1778254380306,   245.496,   245.491, 0.025141,-0.002471,-0.995586, 0.000251,-0.000022,-0.009951,-0.026247,-0.009363, 0.051325,1, 0.026805,-0.000911, 0.001790,1,-0.271168,-0.009829, 9.802896,1,1
1778254380333,   245.521,   245.521, 0.024806, 0.003818,-0.997311, 0.000250, 0.000036,-0.009971,-0.027811, 0.035456, 0.022627,1, 0.030707,-0.001156,-0.000069,1,-0.271036,-0.001032, 9.802904,1,1
1778254380354,   245.546,   245.541, 0.028113,-0.001538,-0.997078, 0.000281,-0.000011,-0.009968,-0.000733, 0.019858, 0.027180,1, 0.030834,-0.001531, 0.001756,1,-0.270710, 0.004994, 9.802912,1,1
1778254380376,   245.566,   245.566, 0.029652,-0.002329,-0.993866, 0.000295,-0.000023,-0.009938, 0.020479,-0.009838, 0.056422,1, 0.030247,-0.001374, 0.001365,1,-0.270261, 0.013944, 9.802916,1,1
1778254380403,   245.591,   245.591, 0.030125,-0.002660,-0.995813, 0.000300,-0.000025,-0.009955, 0.025323,-0.007183, 0.037322,1, 0.029472,-0.000949, 0.001484,1,-0.270076, 0.019822, 9.802910,1,1
1778254380424,   245.616,   245.611, 0.028408,-0.004345,-0.996045, 0.000284,-0.000042,-0.009963, 0.008242,-0.022947, 0.023381,1, 0.029197,-0.001504, 0.000619,1,-0.269268, 0.025397, 9.802919,1,1
1778254380447,   245.636,   245.636, 0.029168,-0.001785,-0.994600, 0.000289,-0.000017,-0.009944, 0.017285, 0.015506, 0.049213,1, 0.029049,-0.003345, 0.000798,1,-0.268651, 0.033915, 9.802911,1,1
1778254380473,   245.661,   245.661, 0.030929,-0.002150,-0.996628, 0.000308,-0.000019,-0.009966, 0.034964, 0.017527, 0.029318,1, 0.027219,-0.001574, 0.001499,1,-0.268302, 0.039459, 9.802899,1,1
1778254380495,   245.686,   245.681, 0.030514,-0.009149,-0.995469, 0.000306,-0.000092,-0.009957, 0.036138,-0.036920, 0.031385,1, 0.026535,-0.001530, 0.000986,1,-0.267941, 0.044722, 9.802887,1,1
1778254380517,   245.706,   245.706, 0.028258,-0.005430,-0.993222, 0.000286,-0.000056,-0.009932, 0.009444,-0.001834, 0.062677,1, 0.025036,-0.000484, 0.001178,1,-0.267660, 0.052198, 9.802857,1,1
1778254380543,   245.731,   245.731, 0.026537,-0.005406,-0.996359, 0.000270,-0.000050,-0.009961,-0.007241, 0.003217, 0.031898,1, 0.023662,-0.001098, 0.000733,1,-0.267449, 0.056971, 9.802836,1,1
1778254380565,   245.756,   245.751, 0.024970,-0.010861,-0.995583, 0.000251,-0.000107,-0.009958,-0.017379,-0.038658, 0.026516,1, 0.021409,-0.001481, 0.000455,1,-0.267298, 0.061377, 9.802814,1,1
1778254380587,   245.776,   245.776, 0.025166,-0.008697,-0.994153, 0.000252,-0.000089,-0.009944,-0.020205,-0.018680, 0.053481,1, 0.018156,-0.001292, 0.000638,1,-0.266957, 0.067176, 9.802786,1,1
1778254380613,   245.801,   245.801, 0.025995,-0.007168,-0.996638, 0.000256,-0.000070,-0.009965,-0.011907,-0.000353, 0.029088,1, 0.015841,-0.000529,-0.000016,1,-0.266810, 0.070439, 9.802767,1,1
1778254380635,   245.826,   245.821, 0.025428,-0.012076,-0.995118, 0.000254,-0.000121,-0.009953,-0.013419,-0.048414, 0.034169,1, 0.012185,-0.000534, 0.000794,1,-0.266791, 0.073397, 9.802746,1,1
1778254380658,   245.846,   245.846, 0.026369,-0.008156,-0.993831, 0.000262,-0.000084,-0.009938,-0.008036,-0.003738, 0.056579,1, 0.010014,-0.000967, 0.000082,1,-0.266598, 0.076560, 9.802727,1,1
1778254380683,   245.871,   245.871, 0.027843,-0.006659,-0.996897, 0.000278,-0.000065,-0.009966, 0.006539, 0.012653, 0.026493,1, 0.007992,-0.000995, 0.000350,1,-0.266476, 0.078205, 9.802717,1,1
1778254380705,   245.896,   245.891, 0.028057,-0.012821,-0.995000, 0.000281,-0.000128,-0.009952, 0.005841,-0.031106, 0.020116,1, 0.005364,-0.000126, 0.000850,1,-0.266468, 0.079454, 9.802707,1,1
1778254380728,   245.921,   245.916, 0.027548,-0.009663,-0.993973, 0.000277,-0.000098,-0.009934, 0.003706,-0.013997, 0.055148,1, 0.004802, 0.000303, 0.000233,1,-0.266461, 0.080919, 9.802695,1,1
1778254380753,   245.941,   245.941, 0.027952,-0.007438,-0.996916, 0.000281,-0.000075,-0.009970, 0.007656, 0.008530, 0.026285,1, 0.004235,-0.000414,-0.000387,1,-0.266443, 0.081605, 9.802691,1,1
1778254380775,   245.966,   245.961, 0.029476,-0.010825,-0.995489, 0.000294,-0.000108,-0.009956, 0.025094,-0.016948, 0.021556,1, 0.001786,-0.000633,-0.000383,1,-0.266385, 0.082055, 9.802688,1,1
1778254380798,   245.991,   245.986, 0.029491,-0.009664,-0.994073, 0.000295,-0.000099,-0.009938, 0.022828,-0.012338, 0.054155,1, 0.000348, 0.000452,-0.000137,1,-0.266394, 0.082439, 9.802685,1,1
1778254380823,   246.011,   246.011, 0.028945,-0.007983,-0.996930, 0.000291,-0.000080,-0.009969, 0.017287, 0.004490, 0.026136,1, 0.000491,-0.000102,-0.000964,1,-0.266594, 0.082860, 9.802675,1,1
1778254380845,   246.036,   246.031, 0.028915,-0.007940,-0.995776, 0.000286,-0.000080,-0.009959, 0.019537, 0.007095, 0.029507,1,-0.000152, 0.000310,-0.000546,1,-0.266713, 0.082833, 9.802672,1,1
1778254380868,   246.061,   246.056, 0.028816,-0.008829,-0.994150, 0.000288,-0.000087,-0.009942, 0.015942,-0.004061, 0.053390,1,-0.001327,-0.000006, 0.000063,1,-0.266643, 0.082478, 9.802677,1,1
1778254380893,   246.081,   246.081, 0.028809,-0.007605,-0.996167, 0.000292,-0.000081,-0.009962, 0.015897, 0.007634, 0.033614,1,-0.001649,-0.000748,-0.000715,1,-0.266599, 0.082161, 9.802681,1,1
1778254380915,   246.106,   246.101, 0.028294,-0.009203,-0.995229, 0.000283,-0.000091,-0.009951, 0.010938, 0.001748, 0.033066,1,-0.001065, 0.000617, 0.000013,1,-0.266635, 0.081955, 9.802682,1,1
1778254380938,   246.131,   246.121, 0.027224,-0.008608,-0.996059, 0.000274,-0.000086,-0.009961, 0.004252,-0.007017, 0.042418,1,-0.001002, 0.000691,-0.000926,1,-0.266733, 0.081728, 9.802681,1,1
1778254380964,   246.151,   246.151, 0.026693,-0.007954,-0.996683, 0.000268,-0.000079,-0.009966,-0.004956, 0.003517, 0.028566,1,-0.000580,-0.000725, 0.000612,1,-0.266699, 0.081502, 9.802684,1,1
1778254380985,   246.176,   246.171, 0.027267,-0.007906,-0.995007, 0.000270,-0.000078,-0.009951,-0.000742, 0.007173, 0.041241,1,-0.002470,-0.000283,-0.000435,1,-0.266701, 0.081124, 9.802687,1,1
1778254381008,   246.201,   246.196, 0.028130,-0.010323,-0.996307, 0.000279,-0.000102,-0.009965, 0.009245,-0.020848, 0.032265,1,-0.002426,-0.000998, 0.000215,1,-0.266590, 0.080306, 9.802697,1,1
1778254381034,   246.221,   246.221, 0.028914,-0.008191,-0.995656, 0.000285,-0.000083,-0.009960, 0.016680,-0.000569, 0.038647,1,-0.004231, 0.000034, 0.000086,1,-0.266873, 0.079621, 9.802694,1,1
1778254381055,   246.246,   246.241, 0.028851,-0.008621,-0.995529, 0.000288,-0.000083,-0.009954, 0.014056, 0.008914, 0.049370,1,-0.004752,-0.000473, 0.000654,1,-0.266794, 0.078819, 9.802703,1,1
1778254381078,   246.271,   246.271, 0.027883,-0.009580,-0.996439, 0.000281,-0.000097,-0.009966, 0.006635,-0.016241, 0.030981,1,-0.004827, 0.000334,-0.000374,1,-0.266812, 0.077560, 9.802712,1,1
1778254381104,   246.291,   246.291, 0.026440,-0.008937,-0.995328, 0.000264,-0.000091,-0.009954,-0.007660,-0.010727, 0.041878,1,-0.003735, 0.001249,-0.000537,1,-0.266985, 0.076802, 9.802714,1,1
1778254381125,   246.316,   246.311, 0.026801,-0.006038,-0.996928, 0.000269,-0.000059,-0.009967,-0.006071, 0.019188, 0.037090,1,-0.003337, 0.001045,-0.001134,1,-0.267133, 0.076250, 9.802714,1,1
1778254381152,   246.341,   246.341, 0.027815,-0.008592,-0.996421, 0.000277,-0.000085,-0.009965, 0.005589,-0.008878, 0.031171,1,-0.003469, 0.000141,-0.000034,1,-0.267192, 0.075273, 9.802720,1,1
1778254381174,   246.366,   246.361, 0.028071,-0.007108,-0.995124, 0.000283,-0.000075,-0.009950, 0.010609,-0.012086, 0.054846,1,-0.004639, 0.000726,-0.000594,1,-0.267230, 0.074428, 9.802726,1,1
1778254381195,   246.386,   246.381, 0.028561,-0.005043,-0.996837, 0.000285,-0.000051,-0.009968, 0.012047, 0.016095, 0.035602,1,-0.006572, 0.001235, 0.000144,1,-0.267389, 0.073295, 9.802730,1,1
1778254381222,   246.411,   246.411, 0.028676,-0.006399,-0.997048, 0.000286,-0.000066,-0.009971, 0.013624, 0.008455, 0.025039,1,-0.010047, 0.000426, 0.001512,1,-0.267642, 0.070896, 9.802741,1,1
1778254381244,   246.436,   246.431, 0.027640,-0.008039,-0.994271, 0.000279,-0.000078,-0.009945, 0.009893,-0.001924, 0.052565,1,-0.013046, 0.001120, 0.003057,1,-0.267834, 0.068606, 9.802752,1,1
1778254381266,   246.456,   246.451, 0.026396,-0.008447,-0.996655, 0.000264,-0.000088,-0.009965,-0.003389,-0.022661, 0.043676,1,-0.015428, 0.000598, 0.003796,1,-0.267969, 0.065681, 9.802768,1,1
1778254381292,   246.481,   246.481, 0.026043,-0.004516,-0.996538, 0.000261,-0.000047,-0.009963,-0.012838, 0.017131, 0.030089,1,-0.016794, 0.001577, 0.003400,1,-0.268281, 0.060896, 9.802791,1,1
1778254381314,   246.506,   246.501, 0.025772,-0.009925,-0.994879, 0.000259,-0.000101,-0.009951,-0.022117,-0.020970, 0.043539,1,-0.015557, 0.001267, 0.002478,1,-0.268547, 0.057738, 9.802802,1,1
1778254381336,   246.526,   246.521, 0.028283,-0.008997,-0.995675, 0.000280,-0.000091,-0.009954,-0.009419,-0.033207, 0.045439,1,-0.015865, 0.000657, 0.001467,1,-0.268740, 0.054770, 9.802814,1,1
1778254381363,   246.551,   246.551, 0.031656,-0.007832,-0.996313, 0.000314,-0.000073,-0.009947, 0.041526,-0.025956, 0.032339,1,-0.014276, 0.000936,-0.000209,1,-0.268939, 0.050399, 9.802832,1,1
1778254381384,   246.576,   246.571, 0.031322, 0.002405,-0.995750, 0.000316, 0.000014,-0.009964, 0.039492, 0.039734, 0.040323,1,-0.010974, 0.000347,-0.001178,1,-0.268839, 0.048030, 9.802847,1,1
1778254381406,   246.596,   246.591, 0.029120, 0.000040,-0.996365, 0.000293, 0.000009,-0.009955, 0.038833, 0.063075, 0.032649,1,-0.007969, 0.001031, 0.000007,1,-0.268986, 0.046357, 9.802851,1,1
1778254381433,   246.621,   246.621, 0.030332,-0.000235,-0.994646, 0.000305,-0.000012,-0.009963, 0.028153, 0.043118, 0.048702,1,-0.001874,-0.001394,-0.000273,1,-0.269261, 0.045368, 9.802848,1,1
1778254381454,   246.646,   246.641, 0.030325,-0.010843,-0.995218, 0.000309,-0.000101,-0.009952, 0.041356,-0.017694, 0.019783,1,-0.002904,-0.001653, 0.001876,1,-0.269039, 0.044917, 9.802855,1,1
1778254381476,   246.666,   246.661, 0.028959,-0.000030,-0.989960, 0.000308,-0.000047,-0.009933, 0.019684,-0.066417, 0.051649,1,-0.009505, 0.001102, 0.001510,1,-0.269175, 0.043391, 9.802859,1,1
1778254381503,   246.691,   246.691, 0.029036, 0.004110,-0.993744, 0.000297, 0.000045,-0.009936, 0.015523, 0.080728, 0.057570,1,-0.016474,-0.000340, 0.007374,1,-0.269208, 0.039917, 9.802873,1,1
1778254381524,   246.716,   246.711, 0.030629,-0.006719,-0.996420, 0.000317,-0.000096,-0.009984, 0.021666,-0.117523, 0.016814,1,-0.023543, 0.000786, 0.005818,1,-0.269382, 0.035542, 9.802885,1,1
1778254381546,   246.736,   246.731, 0.032966, 0.007642,-0.990996, 0.000326, 0.000090,-0.009901, 0.045876, 0.078484, 0.066553,1,-0.027660,-0.000571, 0.009594,1,-0.269463, 0.030399, 9.802900,1,1
1778254381573,   246.761,   246.761, 0.032498,-0.007152,-0.995564, 0.000330,-0.000065,-0.009952, 0.049188,-0.047941, 0.039775,1,-0.031020, 0.001568, 0.010520,1,-0.269552, 0.021237, 9.802921,1,1
1778254381594,   246.786,   246.781, 0.031122,-0.003120,-0.996953, 0.000310,-0.000038,-0.009972, 0.052275,-0.039545, 0.004217,1,-0.026269, 0.001035, 0.007269,1,-0.269673, 0.015850, 9.802929,1,1
1778254381616,   246.806,   246.806, 0.030059,-0.004814,-0.992891, 0.000300,-0.000046,-0.009933, 0.024278,-0.037738, 0.065975,1,-0.022418, 0.000941, 0.006848,1,-0.270693, 0.008788, 9.802909,1,1
1778254381643,   246.831,   246.831, 0.029691,-0.002581,-0.996798, 0.000297,-0.000029,-0.009970, 0.020481,-0.019707, 0.027663,1,-0.018043, 0.000390, 0.002124,1,-0.270700, 0.005046, 9.802912,1,1
1778254381664,   246.856,   246.851, 0.029414,-0.005219,-0.978341, 0.000295, 0.000004,-0.009749, 0.011748,-0.004209, 0.079691,1,-0.016907,-0.000099, 0.002583,1,-0.270830, 0.001721, 9.802910,1,1
1778254381687,   246.876,   246.876, 0.042066,-0.016870,-0.971094, 0.000400,-0.000218,-0.009770, 0.142409,-0.171500, 0.279751,1,-0.055188,-0.006338, 0.005279,1,-0.269918,-0.007782, 9.802932,1,1
1778254381713,   246.901,   246.901, 0.052379,-0.056061,-1.068228, 0.000507,-0.000552,-0.010644, 0.243659,-0.571856,-0.672834,1,-0.073476, 0.004507, 0.004500,1,-0.270146,-0.024371, 9.802898,1,1
1778254381735,   246.926,   246.921, 0.024410, 0.052687,-0.932537, 0.000268, 0.000611,-0.009344, 0.112207, 0.571440, 0.395787,1,-0.060147, 0.007651, 0.012408,1,-0.272105,-0.037293, 9.802803,1,1
1778254381757,   246.946,   246.946, 0.019797,-0.021321,-1.008517, 0.000190,-0.000219,-0.010005,-0.078899,-0.256968,-0.087445,1,-0.023552, 0.004097,-0.012145,1,-0.273167,-0.048623, 9.802724,1,1
1778254381783,   246.971,   246.971, 0.020919, 0.021303,-1.029448, 0.000223, 0.000161,-0.010345,-0.068052, 0.159600,-0.292716,1, 0.008263,-0.001535,-0.004712,1,-0.273154,-0.049056, 9.802722,1,1
1778254381805,   246.996,   246.991, 0.013203, 0.005302,-0.970733, 0.000128, 0.000081,-0.009673,-0.168296, 0.137491, 0.276560,1, 0.021490, 0.000546,-0.007076,1,-0.273174,-0.046113, 9.802736,1,1
1778254381827,   247.016,   247.016, 0.020881, 0.004745,-1.005556, 0.000209, 0.000062,-0.010044,-0.067715, 0.005787,-0.058357,1, 0.015617,-0.003893,-0.013009,1,-0.272370,-0.040271, 9.802784,1,1
1778254381853,   247.041,   247.041, 0.020129,-0.007596,-1.006732, 0.000205,-0.000077,-0.010085,-0.074912,-0.112161,-0.069871,1, 0.014463, 0.001483,-0.003657,1,-0.272351,-0.037220, 9.802796,1,1
1778254381875,   247.066,   247.061, 0.018104, 0.018984,-0.984794, 0.000177, 0.000192,-0.009843,-0.111220, 0.109818, 0.165556,1, 0.025635,-0.001411,-0.018577,1,-0.272265,-0.032741, 9.802815,1,1
1778254381898,   247.086,   247.086, 0.027836, 0.001448,-1.006062, 0.000273, 0.000026,-0.010051, 0.001659,-0.012755,-0.063237,1, 0.018932,-0.003606,-0.006903,1,-0.271206,-0.026372, 9.802864,1,1
1778254381923,   247.111,   247.111, 0.031607, 0.007608,-0.997759, 0.000317, 0.000066,-0.009988, 0.039076, 0.051319, 0.018210,1, 0.017957,-0.001022,-0.006268,1,-0.270849,-0.022738, 9.802882,1,1
1778254381945,   247.136,   247.131, 0.034664, 0.004799,-0.991151, 0.000343, 0.000061,-0.009900, 0.058154, 0.103556, 0.134041,1, 0.015018,-0.002251,-0.006631,1,-0.270455,-0.019424, 9.802900,1,1
1778254381968,   247.161,   247.156, 0.037454,-0.002011,-1.002065, 0.000376,-0.000029,-0.010021, 0.097493,-0.035333,-0.023975,1, 0.016172,-0.001767,-0.001126,1,-0.269754,-0.015111, 9.802928,1,1
1778254381993,   247.181,   247.181, 0.036159, 0.008552,-0.995206, 0.000363, 0.000080,-0.009959, 0.085072, 0.071493, 0.043304,1, 0.016879,-0.001591,-0.003099,1,-0.269478,-0.011848, 9.802939,1,1
1778254382015,   247.206,   247.201, 0.028921,-0.001846,-0.994571, 0.000292,-0.000018,-0.009942, 0.043463, 0.006040, 0.077735,1, 0.016573,-0.000392,-0.001901,1,-0.269369,-0.008686, 9.802946,1,1
1778254382038,   247.231,   247.226, 0.026587, 0.004350,-0.998529, 0.000270, 0.000035,-0.009987,-0.008588, 0.038018, 0.010729,1, 0.017986,-0.000743,-0.000671,1,-0.269296,-0.004078, 9.802951,1,1
1778254382063,   247.251,   247.251, 0.023019, 0.004594,-0.995176, 0.000234, 0.000052,-0.009955,-0.043287, 0.043614, 0.043618,1, 0.013625,-0.000740, 0.000228,1,-0.269006,-0.001014, 9.802959,1,1
1778254382085,   247.276,   247.271, 0.021761,-0.003519,-0.996197, 0.000219,-0.000040,-0.009964,-0.052668,-0.034681, 0.051746,1, 0.011280,-0.000653, 0.001147,1,-0.268919, 0.001375, 9.802962,1,1
1778254382108,   247.301,   247.296, 0.019169, 0.000366,-0.997495, 0.000194, 0.000002,-0.009976,-0.080864, 0.007723, 0.020878,1, 0.010117,-0.000381, 0.001043,1,-0.268835, 0.004447, 9.802963,1,1
1778254382134,   247.321,   247.321, 0.018074, 0.003137,-0.995735, 0.000185, 0.000030,-0.009960,-0.091536, 0.036763, 0.038140,1, 0.009371,-0.000346, 0.000554,1,-0.268769, 0.006295, 9.802964,1,1
1778254382155,   247.346,   247.341, 0.020087,-0.002538,-0.994944, 0.000198,-0.000024,-0.009949,-0.086993,-0.003055, 0.046489,1, 0.007689,-0.001315, 0.002455,1,-0.268588, 0.007921, 9.802968,1,1
1778254382178,   247.371,   247.366, 0.020511, 0.000454,-0.996398, 0.000203,-0.000002,-0.009964,-0.067235, 0.014131, 0.031641,1, 0.005477, 0.000357, 0.002035,1,-0.268392, 0.009848, 9.802972,1,1
1778254382204,   247.391,   247.391, 0.018434,-0.001567,-0.995731, 0.000189,-0.000014,-0.009961,-0.073271, 0.011320, 0.027634,1, 0.005827,-0.000046, 0.002610,1,-0.268393, 0.010387, 9.802971,1,1
1778254382225,   247.416,   247.411, 0.019280,-0.000206,-0.995692, 0.000191,-0.000003,-0.009955,-0.089156, 0.005400, 0.038591,1, 0.006976,-0.000187, 0.001893,1,-0.267437, 0.012301, 9.802995,1,1
1778254382248,   247.441,   247.436, 0.022284,-0.001363,-0.995923, 0.000223,-0.000011,-0.009960,-0.048926, 0.000707, 0.036325,1, 0.007050,-0.000401, 0.002672,1,-0.267444, 0.014297, 9.802992,1,1
1778254382274,   247.461,   247.461, 0.024868,-0.002477,-0.995667, 0.000250,-0.000026,-0.009960,-0.023503,-0.008957, 0.038832,1, 0.006025, 0.000389, 0.001519,1,-0.267389, 0.015521, 9.802992,1,1
1778254382295,   247.486,   247.481, 0.024717,-0.001838,-0.995788, 0.000248,-0.000015,-0.009955,-0.021407, 0.002777, 0.050167,1, 0.006855, 0.000460, 0.001193,1,-0.267429, 0.016898, 9.802988,1,1
1778254382318,   247.511,   247.511, 0.025108,-0.000934,-0.996797, 0.000249,-0.000008,-0.009967,-0.021391, 0.010149, 0.027739,1, 0.010688, 0.000728, 0.000795,1,-0.267636, 0.019639, 9.802978,1,1
1778254382344,   247.531,   247.531, 0.025294,-0.001925,-0.995741, 0.000250,-0.000016,-0.009958,-0.019543, 0.002628, 0.038087,1, 0.011408, 0.000244,-0.000008,1,-0.267597, 0.021863, 9.802974,1,1
1778254382365,   247.556,   247.551, 0.027323,-0.004183,-0.995318, 0.000274,-0.000041,-0.009953,-0.003009,-0.015384, 0.048365,1, 0.011624,-0.000731,-0.000348,1,-0.267478, 0.024195, 9.802972,1,1
1778254382392,   247.581,   247.581, 0.027944,-0.002710,-0.996479, 0.000280,-0.000027,-0.009966, 0.006675, 0.000687, 0.030848,1, 0.011795,-0.000464,-0.000002,1,-0.267350, 0.027632, 9.802966,1,1
1778254382414,   247.606,   247.601, 0.026960,-0.002415,-0.994668, 0.000271,-0.000023,-0.009950, 0.005628, 0.006593, 0.026115,1, 0.011779, 0.001012,-0.000404,1,-0.267418, 0.029931, 9.802958,1,1
1778254382435,   247.626,   247.621, 0.027289,-0.004150,-0.994465, 0.000271,-0.000039,-0.009945, 0.000765,-0.001761, 0.056643,1, 0.011563, 0.000202, 0.000278,1,-0.266828, 0.032185, 9.802966,1,1
1778254382462,   247.651,   247.651, 0.028050,-0.004248,-0.996983, 0.000280,-0.000043,-0.009967, 0.008269,-0.006965, 0.025893,1, 0.008279,-0.000608,-0.000077,1,-0.266790, 0.034954, 9.802958,1,1
1778254382484,   247.676,   247.671, 0.028587,-0.002737,-0.995682, 0.000286,-0.000029,-0.009957, 0.016321, 0.009794, 0.036713,1, 0.008169, 0.000609, 0.000584,1,-0.266871, 0.036549, 9.802950,1,1
1778254382506,   247.696,   247.691, 0.027971,-0.003710,-0.995617, 0.000281,-0.000036,-0.009957, 0.010338, 0.001996, 0.044322,1, 0.007912,-0.000042, 0.000470,1,-0.266828, 0.038146, 9.802945,1,1
1778254382532,   247.721,   247.721, 0.028050,-0.003582,-0.995638, 0.000282,-0.000036,-0.009956, 0.008208, 0.005069, 0.039065,1, 0.008454,-0.000913, 0.000589,1,-0.266838, 0.040462, 9.802936,1,1
1778254382554,   247.746,   247.741, 0.028156,-0.005432,-0.995381, 0.000279,-0.000052,-0.009955, 0.006555,-0.002222, 0.039207,1, 0.006682,-0.000376, 0.000686,1,-0.266832, 0.041910, 9.802930,1,1
1778254382576,   247.766,   247.761, 0.028571,-0.005072,-0.995922, 0.000288,-0.000053,-0.009959, 0.011255,-0.010529, 0.039134,1, 0.005301,-0.000588, 0.000859,1,-0.266677, 0.043104, 9.802929,1,1
1778254382603,   247.791,   247.791, 0.028124,-0.007173,-0.995517, 0.000281,-0.000071,-0.009955, 0.009023,-0.026109, 0.040235,1, 0.003715, 0.000711, 0.001749,1,-0.266797, 0.044356, 9.802919,1,1
1778254382624,   247.816,   247.811, 0.025698,-0.003235,-0.996393, 0.000257,-0.000035,-0.009960,-0.011313,-0.010985, 0.046024,1, 0.001449, 0.000663, 0.001103,1,-0.267112, 0.044873, 9.802909,1,1
1778254382646,   247.836,   247.831, 0.026700,-0.006172,-0.996584, 0.000268,-0.000057,-0.009966,-0.012722, 0.010408, 0.025472,1, 0.001425, 0.000226, 0.001217,1,-0.267197, 0.045159, 9.802905,1,1
1778254382673,   247.861,   247.861, 0.027362,-0.006735,-0.996018, 0.000274,-0.000068,-0.009963, 0.001186,-0.020819, 0.035303,1, 0.000100, 0.000333, 0.000294,1,-0.267151, 0.045237, 9.802906,1,1
1778254382694,   247.886,   247.881, 0.027770,-0.003990,-0.995143, 0.000280,-0.000037,-0.009949, 0.004527,-0.002317, 0.054997,1,-0.001951, 0.000588, 0.000913,1,-0.267227, 0.044930, 9.802905,1,1
1778254382716,   247.906,   247.901, 0.028814,-0.007705,-0.996222, 0.000288,-0.000082,-0.009959, 0.006379,-0.013319, 0.038464,1,-0.004125, 0.000762, 0.001023,1,-0.267327, 0.044375, 9.802905,1,1
1778254382743,   247.931,   247.931, 0.030204,-0.005703,-0.997603, 0.000302,-0.000060,-0.009974, 0.028844,-0.012497, 0.019767,1,-0.002659, 0.000320,-0.000463,1,-0.267368, 0.043349, 9.802909,1,1
1778254382764,   247.956,   247.951, 0.031883,-0.004316,-0.993861, 0.000319,-0.000045,-0.009944, 0.047620,-0.001866, 0.038108,1,-0.003388, 0.000285,-0.000785,1,-0.267425, 0.042761, 9.802910,1,1
1778254382786,   247.976,   247.971, 0.031305,-0.003889,-0.994627, 0.000315,-0.000039,-0.009945, 0.043165, 0.002333, 0.049067,1,-0.002916, 0.000495,-0.000750,1,-0.267412, 0.042166, 9.802913,1,1
1778254382813,   248.001,   248.001, 0.031460,-0.003731,-0.996877, 0.000315,-0.000039,-0.009967, 0.040892, 0.005104, 0.026881,1,-0.000401, 0.000988,-0.001087,1,-0.267652, 0.041683, 9.802908,1,1
1778254382834,   248.026,   248.021, 0.031430,-0.002780,-0.994924, 0.000316,-0.000027,-0.009949, 0.041123, 0.009494, 0.025302,1, 0.001324,-0.000610,-0.001462,1,-0.268085, 0.041931, 9.802896,1,1
1778254382856,   248.046,   248.046, 0.032645,-0.003574,-0.993847, 0.000326,-0.000035,-0.009940, 0.052144, 0.007549, 0.056583,1, 0.003244,-0.000705,-0.001416,1,-0.267976, 0.042695, 9.802895,1,1
1778254382883,   248.071,   248.071, 0.034024,-0.003588,-0.996640, 0.000340,-0.000035,-0.009962, 0.065833, 0.008444, 0.029195,1, 0.006848,-0.000357,-0.002545,1,-0.267813, 0.043842, 9.802895,1,1
1778254382904,   248.096,   248.091, 0.031932,-0.003262,-0.994915, 0.000321,-0.000030,-0.009953, 0.061196, 0.016128, 0.025041,1, 0.008397,-0.000264,-0.002366,1,-0.267683, 0.045430, 9.802891,1,1
1778254382927,   248.116,   248.116, 0.028457,-0.005175,-0.994015, 0.000286,-0.000050,-0.009939, 0.011520,-0.003506, 0.054924,1, 0.006574,-0.000558,-0.001229,1,-0.267532, 0.047448, 9.802885,1,1
1778254382953,   248.141,   248.141, 0.027532,-0.003351,-0.996503, 0.000271,-0.000035,-0.009962, 0.002530, 0.015700, 0.030523,1, 0.006508,-0.000897,-0.001157,1,-0.267434, 0.048762, 9.802881,1,1
1778254382975,   248.166,   248.161, 0.026815,-0.003871,-0.995075, 0.000267,-0.000039,-0.009956,-0.002421, 0.016494, 0.028375,1, 0.004969,-0.000535, 0.000265,1,-0.267308, 0.049867, 9.802879,1,1
1778254382997,   248.186,   248.186, 0.027354,-0.005175,-0.994298, 0.000274,-0.000051,-0.009942, 0.001192, 0.000147, 0.052143,1, 0.003421,-0.001023, 0.000703,1,-0.267029, 0.051006, 9.802881,1,1
1778254383023,   248.211,   248.211, 0.027990,-0.005284,-0.997918, 0.000279,-0.000052,-0.009977, 0.007077,-0.000465, 0.016632,1, 0.002501,-0.001057, 0.000942,1,-0.267492, 0.051401, 9.802866,1,1
1778254383045,   248.236,   248.231, 0.028442,-0.004778,-0.993735, 0.000285,-0.000051,-0.009939, 0.009106,-0.005555, 0.036415,1, 0.001629,-0.001004, 0.001616,1,-0.267303, 0.051732, 9.802870,1,1
1778254383067,   248.256,   248.256, 0.028264,-0.003866,-0.994930, 0.000284,-0.000038,-0.009948, 0.010073, 0.013950, 0.045945,1,-0.000324,-0.001635, 0.001523,1,-0.267047, 0.051854, 9.802876,1,1
1778254383093,   248.281,   248.281, 0.027324,-0.004925,-0.996870, 0.000275,-0.000049,-0.009968, 0.000964, 0.003681, 0.026925,1, 0.000737, 0.000219, 0.002229,1,-0.267002, 0.052001, 9.802876,1,1
1778254383115,   248.306,   248.301, 0.025459,-0.004285,-0.994224, 0.000254,-0.000042,-0.009941,-0.007921, 0.003748, 0.044378,1, 0.001594, 0.000123, 0.000907,1,-0.266977, 0.052213, 9.802876,1,1
1778254383138,   248.326,   248.326, 0.025392,-0.005145,-0.996140, 0.000252,-0.000050,-0.009958,-0.017955, 0.002400, 0.034081,1, 0.003602, 0.000309, 0.001467,1,-0.266974, 0.052968, 9.802873,1,1
1778254383163,   248.351,   248.351, 0.025861,-0.006624,-0.998561, 0.000258,-0.000066,-0.009986,-0.013284,-0.011389, 0.010329,1, 0.003708,-0.000646, 0.001177,1,-0.266872, 0.053685, 9.802871,1,1
1778254383185,   248.376,   248.371, 0.025356,-0.004841,-0.991496, 0.000254,-0.000049,-0.009918,-0.013203,-0.000828, 0.054139,1, 0.002318,-0.000724, 0.001047,1,-0.266790, 0.054260, 9.802870,1,1
1778254383208,   248.401,   248.396, 0.025490,-0.002749,-0.997597, 0.000253,-0.000027,-0.009972,-0.016820, 0.028060, 0.019784,1, 0.003258, 0.000724, 0.001777,1,-0.266814, 0.055119, 9.802865,1,1
1778254383233,   248.421,   248.421, 0.024995,-0.004854,-0.998109, 0.000254,-0.000049,-0.009988,-0.021589, 0.008099, 0.014762,1, 0.004090,-0.000641, 0.001491,1,-0.266681, 0.055832, 9.802864,1,1
1778254383255,   248.446,   248.441, 0.028876,-0.004545,-0.995438, 0.000276,-0.000049,-0.009931, 0.000926, 0.008402, 0.045150,1, 0.006183,-0.001413, 0.000717,1,-0.266571, 0.056909, 9.802861,1,1
1778254383278,   248.471,   248.466, 0.029141,-0.001077,-0.997442, 0.000288,-0.000010,-0.009969, 0.019536, 0.048075, 0.021291,1, 0.006839,-0.000193, 0.001927,1,-0.266238, 0.058854, 9.802858,1,1
1778254383303,   248.491,   248.491, 0.027623,-0.004076,-0.995401, 0.000279,-0.000042,-0.009958, 0.004527, 0.019692, 0.041303,1, 0.004628,-0.000020, 0.003509,1,-0.266363, 0.059812, 9.802850,1,1
1778254383325,   248.516,   248.511, 0.026593,-0.004301,-0.995932, 0.000264,-0.000038,-0.009960,-0.009970, 0.010122, 0.042448,1, 0.003218,-0.000288, 0.004422,1,-0.266304, 0.060528, 9.802847,1,1
1778254383348,   248.541,   248.536, 0.026432,-0.002854,-0.994965, 0.000266,-0.000032,-0.009953,-0.007183, 0.033314, 0.045568,1, 0.002732,-0.000346, 0.005788,1,-0.266377, 0.061397, 9.802839,1,1
1778254383374,   248.561,   248.561, 0.028735,-0.003305,-0.996139, 0.000282,-0.000030,-0.009952, 0.015569, 0.029370, 0.034050,1, 0.001411,-0.001496, 0.007420,1,-0.266176, 0.061835, 9.802842,1,1
1778254383395,   248.586,   248.581, 0.031200,-0.007999,-0.996342, 0.000314,-0.000080,-0.009970, 0.043117,-0.011072, 0.019739,1, 0.003712,-0.001288, 0.007151,1,-0.265990, 0.062463, 9.802843,1,1
1778254383418,   248.611,   248.606, 0.034299,-0.005756,-0.993749, 0.000337,-0.000054,-0.009920, 0.070494, 0.007286, 0.057494,1, 0.006474,-0.001595, 0.005648,1,-0.265841, 0.063883, 9.802838,1,1
1778254383444,   248.631,   248.631, 0.040861,-0.003603,-0.992916, 0.000406,-0.000015,-0.009951, 0.135223, 0.029152, 0.065661,1,-0.000422,-0.001280, 0.008701,1,-0.265448, 0.064483, 9.802845,1,1
1778254383465,   248.656,   248.651, 0.033698,-0.017789,-0.992695, 0.000333,-0.000181,-0.009923, 0.090503,-0.097083, 0.026814,1, 0.003748,-0.000325, 0.007363,1,-0.264978, 0.064777, 9.802855,1,1
1778254383488,   248.681,   248.676, 0.026110,-0.003623,-0.995205, 0.000278,-0.000049,-0.009950,-0.009455, 0.032278, 0.043197,1, 0.017594,-0.000153,-0.001796,1,-0.265504, 0.068354, 9.802817,1,1
1778254383514,   248.701,   248.701, 0.024120,-0.005604,-0.999921, 0.000242,-0.000055,-0.010029,-0.028744, 0.016594,-0.003073,1, 0.020203,-0.000562,-0.001931,1,-0.265262, 0.072180, 9.802796,1,1
1778254383535,   248.726,   248.721, 0.024416,-0.005683,-0.994521, 0.000243,-0.000031,-0.009945,-0.013529, 0.005364, 0.048710,1, 0.016659,-0.002848,-0.001122,1,-0.264740, 0.075800, 9.802783,1,1
1778254383558,   248.751,   248.751, 0.026321,-0.015769,-0.991006, 0.000269,-0.000169,-0.009911,-0.006287,-0.075663, 0.084318,1, 0.011907,-0.001144, 0.000105,1,-0.264375, 0.079349, 9.802765,1,1
1778254383584,   248.771,   248.771, 0.025052,-0.001760,-1.001028, 0.000244,-0.000022,-0.010004,-0.018430, 0.064287,-0.013974,1, 0.013496,-0.000103,-0.001158,1,-0.264104, 0.081971, 9.802751,1,1
1778254383605,   248.796,   248.791, 0.029893,-0.013498,-0.993671, 0.000299,-0.000137,-0.009935, 0.026920,-0.018573, 0.044315,1, 0.017851,-0.003290,-0.000838,1,-0.263711, 0.085260, 9.802732,1,1
1778254383632,   248.821,   248.821, 0.030425,-0.009999,-0.994539, 0.000304,-0.000097,-0.009946, 0.034774,-0.006676, 0.049579,1, 0.024101, 0.000009,-0.004603,1,-0.263602, 0.092131, 9.802673,1,1
1778254383654,   248.846,   248.841, 0.021388,-0.013700,-0.997542, 0.000219,-0.000138,-0.009971,-0.013731,-0.028505, 0.041097,1, 0.021543,-0.000653,-0.003289,1,-0.263474, 0.096509, 9.802635,1,1
1778254383675,   248.866,   248.861, 0.013193,-0.008768,-0.993175, 0.000141,-0.000093,-0.009940,-0.086316,-0.014937, 0.033620,1, 0.017643, 0.001237,-0.004219,1,-0.263594, 0.100337, 9.802593,1,1
1778254383702,   248.891,   248.891, 0.002095,-0.013936,-0.998421, 0.000019,-0.000127,-0.009980,-0.243778,-0.034575, 0.011389,1,-0.002215, 0.004288, 0.002792,1,-0.264460, 0.102029, 9.802552,1,1
1778254383724,   248.911,   248.911, 0.008433,-0.020168,-0.997076, 0.000077,-0.000212,-0.009973,-0.181759,-0.097024, 0.024586,1,-0.009451,-0.002457, 0.001245,1,-0.264380, 0.100467, 9.802570,1,1
1778254383746,   248.936,   248.931, 0.029912,-0.008027,-0.994237, 0.000292,-0.000065,-0.009938,-0.040684, 0.052961, 0.046195,1,-0.019245,-0.002082, 0.002887,1,-0.263828, 0.097328, 9.802617,1,1
1778254383773,   248.961,   248.961, 0.037336,-0.027359,-0.993826, 0.000369,-0.000276,-0.009938, 0.102422,-0.178731, 0.056585,1,-0.035614, 0.000317, 0.004917,1,-0.263732, 0.088466, 9.802704,1,1
1778254383794,   248.986,   248.981, 0.042469,-0.008139,-0.997697, 0.000423,-0.000087,-0.009977, 0.137347,-0.067897, 0.017688,1,-0.041895, 0.001694, 0.003229,1,-0.263969, 0.080596, 9.802765,1,1
1778254383816,   249.006,   249.001, 0.043411,-0.011209,-0.995400, 0.000436,-0.000108,-0.009954, 0.161767,-0.007381, 0.036262,1,-0.046014, 0.000120, 0.004136,1,-0.264229, 0.071734, 9.802827,1,1
1778254383843,   249.031,   249.031, 0.040564,-0.010553,-0.995380, 0.000408,-0.000113,-0.009953, 0.133632,-0.042994, 0.041559,1,-0.045782, 0.003186, 0.000312,1,-0.264259, 0.059066, 9.802911,1,1
1778254383864,   249.056,   249.051, 0.035160,-0.002734,-0.993440, 0.000354,-0.000034,-0.009932, 0.096606, 0.006484, 0.056449,1,-0.045524, 0.000964, 0.002694,1,-0.264556, 0.050077, 9.802953,1,1
1778254383886,   249.076,   249.071, 0.035301,-0.001181,-0.997416, 0.000355,-0.000014,-0.009977, 0.080731, 0.022527, 0.038433,1,-0.040113, 0.000731,-0.000130,1,-0.264747, 0.041908, 9.802986,1,1
1778254383913,   249.101,   249.101, 0.036505,-0.000691,-0.997828, 0.000361,-0.000009,-0.009984, 0.093023, 0.026167, 0.017659,1,-0.030090,-0.000182,-0.002723,1,-0.264963, 0.031998, 9.803018,1,1
1778254383934,   249.126,   249.121, 0.037849, 0.000058,-0.988936, 0.000380, 0.000009,-0.009892, 0.101947, 0.018478, 0.110670,1,-0.026638,-0.001776,-0.001078,1,-0.264784, 0.026432, 9.803039,1,1
1778254383956,   249.146,   249.141, 0.039646, 0.004264,-0.997383, 0.000391, 0.000035,-0.009969, 0.115381, 0.036806, 0.049243,1,-0.024156,-0.000383,-0.001590,1,-0.264649, 0.021316, 9.803055,1,1
1778254383983,   249.171,   249.171, 0.042528, 0.003671,-0.989658, 0.000423, 0.000045,-0.009902, 0.152732, 0.051193, 0.097842,1,-0.024410,-0.003911, 0.001829,1,-0.264207, 0.014433, 9.803080,1,1
1778254384004,   249.196,   249.191, 0.041501,-0.015057,-0.997842, 0.000415,-0.000158,-0.009974, 0.144955,-0.125504, 0.104527,1,-0.022425,-0.002155,-0.000334,1,-0.263602, 0.009774, 9.803102,1,1
1778254384026,   249.216,   249.211, 0.038876, 0.002979,-1.012265, 0.000391, 0.000012,-0.010116, 0.130924,-0.069149,-0.074745,1,-0.014184, 0.001001,-0.007070,1,-0.264260, 0.006306, 9.803087,1,1
1778254384053,   249.241,   249.241, 0.042219, 0.021916,-0.995180, 0.000416, 0.000207,-0.009979, 0.150018, 0.219062, 0.043714,1,-0.004645,-0.003906,-0.004444,1,-0.263886, 0.003992, 9.803098,1,1
1778254384074,   249.266,   249.261, 0.058559, 0.000220,-0.998531, 0.000581, 0.000013,-0.009955, 0.272114, 0.133581, 0.164758,1,-0.009947,-0.007682, 0.002842,1,-0.262445, 0.002482, 9.803137,1,1
1778254384096,   249.286,   249.286, 0.063505, 0.005114,-1.011959, 0.000634, 0.000031,-0.010130, 0.360956, 0.050242,-0.120777,1,-0.006163, 0.000443, 0.005054,1,-0.261827,-0.000096, 9.803154,1,1
1778254384123,   249.311,   249.311, 0.056082, 0.023752,-0.992059, 0.000568, 0.000240,-0.009937, 0.288153, 0.231668, 0.074382,1,-0.007398, 0.000344, 0.012313,1,-0.261834,-0.001478, 9.803154,1,1
1778254384144,   249.336,   249.331, 0.044397, 0.000506,-0.985626, 0.000451, 0.000015,-0.009838, 0.219959, 0.104823, 0.219413,1,-0.012101, 0.000679, 0.018384,1,-0.261920,-0.003376, 9.803151,1,1
1778254384167,   249.356,   249.356, 0.031843,-0.000846,-1.013129, 0.000326,-0.000015,-0.010124, 0.049479,-0.015758,-0.132272,1,-0.015780, 0.006796, 0.022068,1,-0.263006,-0.007936, 9.803120,1,1
1778254384193,   249.381,   249.381, 0.015055, 0.008245,-1.001375, 0.000165, 0.000080,-0.010037,-0.116523, 0.071048,-0.017049,1,-0.009241, 0.005976, 0.021279,1,-0.264353,-0.010075, 9.803082,1,1
1778254384215,   249.406,   249.401,-0.000554,-0.002444,-0.979950,-0.000003,-0.000017,-0.009790,-0.250248, 0.012226, 0.176152,1,-0.002938, 0.001084, 0.017586,1,-0.264785,-0.010712, 9.803069,1,1
1778254384237,   249.426,   249.426,-0.002554,-0.012191,-1.001133,-0.000018,-0.000117,-0.009997,-0.290179,-0.130847,-0.014699,1,-0.000974, 0.000121, 0.014325,1,-0.265136,-0.011318, 9.803059,1,1
1778254384263,   249.451,   249.451,-0.009514,-0.017202,-1.010979,-0.000091,-0.000177,-0.010123,-0.358782,-0.179432,-0.111269,1, 0.007228, 0.003519, 0.006499,1,-0.265595,-0.010511, 9.803047,1,1
1778254384285,   249.476,   249.471,-0.016073, 0.002090,-0.985847,-0.000160, 0.000018,-0.009864,-0.416164,-0.041796, 0.065425,1, 0.019363, 0.001529,-0.003116,1,-0.266142,-0.007406, 9.803035,1,1
1778254384307,   249.496,   249.496,-0.011667,-0.008130,-0.989799,-0.000119,-0.000067,-0.009888,-0.380003,-0.082033, 0.096435,1, 0.015515,-0.004009,-0.005462,1,-0.265460,-0.001827, 9.803057,1,1
1778254384333,   249.521,   249.521,-0.048317,-0.056995,-0.920558,-0.000424,-0.000433,-0.009417,-0.739212,-0.560717, 0.775468,1,-0.006512, 0.012169, 0.011508,1,-0.265762,-0.001981, 9.803048,1,1
1778254384355,   249.546,   249.541,-0.012869, 0.006098,-1.027835,-0.000111,-0.000006,-0.010225,-0.563900, 0.091576, 0.277279,1,-0.053239, 0.010193, 0.005370,1,-0.268729,-0.007255, 9.802964,1,1
1778254384378,   249.566,   249.566,-0.004360, 0.009629,-1.039748,-0.000048, 0.000183,-0.010272,-0.314840, 0.075838,-0.393588,1,-0.044138, 0.011451,-0.007568,1,-0.272439,-0.019970, 9.802845,1,1
1778254384403,   249.591,   249.591,-0.009879,-0.025978,-1.026718,-0.000115,-0.000265,-0.010307,-0.368575,-0.283870,-0.265819,1,-0.053282,-0.010367,-0.008525,1,-0.271371,-0.030781, 9.802846,1,1
1778254384425,   249.616,   249.611, 0.065735, 0.022771,-0.965474, 0.000621, 0.000219,-0.009601, 0.087151,-0.099849, 0.183597,1,-0.049286,-0.008000,-0.008530,1,-0.269110,-0.040311, 9.802874,1,1
1778254384448,   249.641,   249.636, 0.068983, 0.035294,-1.000429, 0.000709, 0.000362,-0.010033, 0.408412, 0.293595,-0.008010,1,-0.046369,-0.004894, 0.000257,1,-0.267923,-0.053967, 9.802841,1,1
1778254384473,   249.661,   249.661, 0.063344,-0.008597,-1.012496, 0.000632,-0.000079,-0.010150, 0.353253,-0.145246,-0.126400,1,-0.037717, 0.001818, 0.000446,1,-0.267999,-0.062114, 9.802791,1,1
1778254384495,   249.686,   249.681, 0.051564, 0.009840,-0.968427, 0.000513, 0.000085,-0.009644, 0.268898,-0.096919, 0.357015,1,-0.029548, 0.001185,-0.006458,1,-0.268308,-0.068358, 9.802740,1,1
1778254384518,   249.711,   249.706, 0.046387, 0.018602,-1.018777, 0.000469, 0.000184,-0.010175, 0.185943, 0.106392,-0.188120,1,-0.029185, 0.002450,-0.000987,1,-0.269034,-0.076940, 9.802657,1,1
1778254384543,   249.731,   249.731, 0.037634, 0.005666,-1.003750, 0.000384, 0.000069,-0.010063, 0.099569,-0.025619,-0.040812,1,-0.025538, 0.001923,-0.005316,1,-0.269555,-0.081986, 9.802602,1,1
1778254384565,   249.756,   249.751, 0.033212, 0.001639,-0.984466, 0.000332, 0.000005,-0.009821, 0.045877,-0.118623, 0.241976,1,-0.032776, 0.000938,-0.002889,1,-0.269833,-0.087865, 9.802544,1,1
1778254384588,   249.781,   249.776, 0.037830, 0.012795,-1.013828, 0.000376, 0.000121,-0.010127, 0.100923, 0.026496,-0.139827,1,-0.049136, 0.001003, 0.000506,1,-0.270094,-0.100511, 9.802415,1,1
1778254384614,   249.801,   249.801, 0.037962, 0.016019,-0.997774, 0.000383, 0.000163,-0.010002, 0.101861, 0.048254, 0.017493,1,-0.051386, 0.002270, 0.001775,1,-0.270495,-0.110442, 9.802297,1,1
1778254384635,   249.826,   249.821, 0.035619, 0.011335,-0.984996, 0.000359, 0.000106,-0.009837, 0.087183,-0.017960, 0.193320,1,-0.053628, 0.001848, 0.004687,1,-0.271170,-0.121459, 9.802148,1,1
1778254384658,   249.851,   249.846, 0.032274, 0.017348,-1.005665, 0.000328, 0.000168,-0.010044, 0.044247, 0.033983,-0.060277,1,-0.055771, 0.004839, 0.004804,1,-0.272403,-0.137882, 9.801896,1,0
1778254384684,   249.871,   249.871, 0.028647, 0.020103,-1.002826, 0.000291, 0.000202,-0.010039, 0.007829, 0.050609,-0.032609,1,-0.050769, 0.003423, 0.004405,1,-0.273208,-0.148119, 9.801724,1,0
1778254384705,   249.896,   249.891, 0.026157, 0.020772,-0.984792, 0.000260, 0.000204,-0.009854,-0.021072, 0.023020, 0.077516,1,-0.041129, 0.001978, 0.002814,1,-0.273718,-0.156637, 9.801578,1,0
1778254384728,   249.921,   249.916, 0.023622, 0.025274,-0.997620, 0.000238, 0.000256,-0.009966,-0.042400, 0.082229, 0.018114,1,-0.032420, 0.001305, 0.002947,1,-0.274092,-0.166634, 9.801402,1,0
1778254384754,   249.941,   249.941, 0.026124, 0.014850,-1.003795, 0.000262, 0.000145,-0.010040,-0.018302,-0.025464,-0.042550,1,-0.022964, 0.001442, 0.000808,1,-0.274532,-0.171811, 9.801301,1,0
1778254384775,   249.966,   249.961, 0.090702, 0.020798,-1.011869, 0.000699, 0.000396,-0.009562, 0.362007, 0.332363, 0.542002,1,-0.012393,-0.002189,-0.004822,1,-0.274321,-0.173871, 9.801270,1,0
1778254384798,   249.991,   249.991, 0.025077, 0.018976,-1.036053, 0.000327, 0.000262,-0.010402,-0.029840, 0.009656,-0.359024,1, 0.002390, 0.004381, 0.007396,1,-0.275901,-0.176350, 9.801182,1,0
1778254384824,   250.011,   250.011, 0.004913, 0.008983,-0.993730, 0.000037,-0.000010,-0.010058,-0.229155,-0.089075, 0.055968,1,-0.003375,-0.001310, 0.003555,1,-0.277468,-0.177419, 9.801118,1,0
1778254384845,   250.036,   250.031, 0.014176, 0.035974,-0.972657, 0.000146, 0.000409,-0.009700,-0.171137, 0.074394, 0.328671,1, 0.000412, 0.001080,-0.004962,1,-0.277475,-0.177005, 9.801126,1,0
1778254384872,   250.061,   250.061, 0.033620, 0.013858,-1.023013, 0.000333, 0.000109,-0.010269, 0.051788,-0.042948,-0.231248,1,-0.010205, 0.002178, 0.009819,1,-0.277984,-0.179156, 9.801072,1,0
1778254384894,   250.086,   250.081, 0.036041, 0.024977,-0.979292, 0.000367, 0.000251,-0.009817, 0.091360,-0.043874,-0.018985,1,-0.002089, 0.001258, 0.001949,1,-0.278365,-0.180052, 9.801044,1,0
1778254384915,   250.106,   250.101, 0.040132, 0.028849,-0.975089, 0.000401, 0.000281,-0.009769, 0.098353, 0.134027, 0.279695,1,-0.002246, 0.000130, 0.001516,1,-0.278436,-0.180530, 9.801034,1,0
1778254384942,   250.131,   250.131, 0.035088, 0.012417,-0.989214, 0.000348, 0.000126,-0.009863, 0.064674,-0.059598, 0.100117,1,-0.001190, 0.006747, 0.005039,1,-0.279632,-0.181397, 9.800983,1,0
1778254384964,   250.156,   250.151, 0.016919, 0.026864,-1.004222, 0.000179, 0.000267,-0.010032,-0.060335, 0.047794, 0.047187,1, 0.003014, 0.008732, 0.002334,1,-0.281394,-0.180990, 9.800941,1,0
1778254384986,   250.176,   250.171, 0.014803, 0.016734,-1.022463, 0.000149, 0.000179,-0.010212,-0.145655, 0.040114,-0.160623,1, 0.003024, 0.009067, 0.004274,1,-0.283266,-0.180369, 9.800899,1,0
1778254385013,   250.201,   250.201, 0.016944, 0.013623,-1.011375, 0.000174, 0.000128,-0.010144,-0.118424,-0.045375,-0.117316,1, 0.006845, 0.000530, 0.001027,1,-0.284603,-0.178760, 9.800889,1,0
1778254385034,   250.226,   250.221, 0.024273, 0.016036,-0.970378, 0.000239, 0.000165,-0.009702,-0.077598,-0.011703, 0.210371,1, 0.006519, 0.000248, 0.001605,1,-0.283721,-0.177479, 9.800938,1,0
1778254385056,   250.246,   250.241, 0.029573, 0.016423,-0.986361, 0.000295, 0.000161,-0.009850,-0.009024,-0.024616, 0.241027,1, 0.001409, 0.001804, 0.003381,1,-0.283826,-0.176799, 9.800947,1,0
1778254385083,   250.271,   250.271, 0.027914, 0.019452,-1.004672, 0.000280, 0.000199,-0.010041,-0.011399, 0.013429,-0.051568,1,-0.004119, 0.006862, 0.005032,1,-0.285355,-0.177453, 9.800891,1,0
1778254385104,   250.296,   250.291, 0.019481, 0.013013,-1.001262, 0.000197, 0.000126,-0.010014,-0.071258,-0.032418,-0.026039,1,-0.004676, 0.006254, 0.004465,1,-0.286670,-0.178411, 9.800836,1,0
1778254385126,   250.316,   250.311, 0.018226, 0.014196,-1.002458, 0.000182, 0.000140,-0.010019,-0.104950,-0.055089,-0.024977,1,-0.005706, 0.003847, 0.002051,1,-0.287593,-0.179497, 9.800789,1,0
1778254385153,   250.341,   250.341, 0.018645, 0.013943,-0.995596, 0.000184, 0.000142,-0.009965,-0.105581,-0.044883, 0.037263,1,-0.011948, 0.002107, 0.000667,1,-0.288489,-0.181984, 9.800716,1,0
1778254385174,   250.366,   250.361, 0.022678, 0.015620,-0.993484, 0.000228, 0.000155,-0.009925,-0.076363,-0.043781, 0.096422,1,-0.015751, 0.004058, 0.001779,1,-0.289138,-0.184730, 9.800646,1,0
1778254385196,   250.386,   250.381, 0.023167, 0.017732,-1.002834, 0.000230, 0.000177,-0.010026,-0.068818,-0.024629, 0.001041,1,-0.019536, 0.005451, 0.001036,1,-0.290098,-0.188450, 9.800547,1,0
1778254385223,   250.411,   250.411, 0.024100, 0.014363,-0.997881, 0.000242, 0.000148,-0.009989,-0.054155,-0.052911, 0.014557,1,-0.022577, 0.001981,-0.000754,1,-0.290386,-0.194372, 9.800423,1,0
1778254385244,   250.436,   250.431, 0.032188, 0.014200,-0.996200, 0.000318, 0.000132,-0.009955,-0.010103,-0.093232, 0.055349,1,-0.023210, 0.000778,-0.004112,1,-0.290547,-0.198932, 9.800326,1,0
1778254385266,   250.456,   250.451, 0.038594, 0.027557,-1.000781, 0.000383, 0.000266,-0.010009, 0.065332, 0.016376,-0.008189,1,-0.022755, 0.000679,-0.004836,1,-0.290526,-0.203490, 9.800233,1,0
1778254385293,   250.481,   250.481, 0.041496, 0.025774,-0.986592, 0.000409, 0.000271,-0.009871, 0.115794, 0.042309, 0.124906,1,-0.029612, 0.002946,-0.001327,1,-0.291239,-0.211377, 9.800045,1,0
1778254385314,   250.506,   250.501, 0.046261, 0.020501,-0.995816, 0.000462, 0.000198,-0.009949, 0.159399,-0.023486, 0.106512,1,-0.030834, 0.005098,-0.000384,1,-0.292096,-0.217214, 9.799892,1,0
1778254385336,   250.526,   250.526, 0.046054, 0.028650,-1.001028, 0.000461, 0.000276,-0.010012, 0.158444, 0.055705,-0.017050,1,-0.028390, 0.003348, 0.001078,1,-0.293295,-0.226144, 9.799654,1,0
1778254385363,   250.551,   250.551, 0.047222, 0.032619,-0.992658, 0.000471, 0.000328,-0.009932, 0.169376, 0.089408, 0.064895,1,-0.024505, 0.002653, 0.002820,1,-0.293802,-0.231235, 9.799520,1,0
1778254385385,   250.576,   250.571, 0.053614, 0.029218,-0.990936, 0.000530, 0.000296,-0.009896, 0.197055, 0.060565, 0.117682,1,-0.017364, 0.001045, 0.002455,1,-0.294053,-0.235035, 9.799422,1,0
1778254385407,   250.596,   250.596, 0.062976, 0.031238,-1.006670, 0.000627, 0.000310,-0.010068, 0.323502, 0.068849,-0.072698,1,-0.004419,-0.001163, 0.003436,1,-0.294046,-0.237626, 9.799360,1,0
1778254385433,   250.621,   250.621, 0.069563, 0.034227,-0.994840, 0.000693, 0.000340,-0.009962, 0.388000, 0.097924, 0.043309,1, 0.005256,-0.001799, 0.004436,1,-0.294134,-0.237563, 9.799358,1,0
1778254385455,   250.646,   250.641, 0.082445, 0.031351,-0.987169, 0.000818, 0.000319,-0.009863, 0.471042, 0.105629, 0.149669,1, 0.012749,-0.004615, 0.005469,1,-0.293412,-0.235471, 9.799431,1,0
1778254385477,   250.666,   250.666, 0.086754, 0.027802,-0.998318, 0.000865, 0.000279,-0.009974, 0.558089, 0.042500, 0.009421,1, 0.025604,-0.002380, 0.007841,1,-0.292608,-0.229338, 9.799601,1,0
1778254385503,   250.691,   250.691, 0.082866, 0.028864,-0.999836, 0.000833, 0.000292,-0.010006, 0.520121, 0.058934,-0.005319,1, 0.033130, 0.000300, 0.007847,1,-0.292533,-0.223085, 9.799747,1,0
1778254385525,   250.716,   250.711, 0.072372, 0.022980,-0.989053, 0.000726, 0.000234,-0.009892, 0.439188, 0.025290, 0.088381,1, 0.039646,-0.001181, 0.007580,1,-0.292441,-0.215563, 9.799918,1,0
1778254385548,   250.736,   250.736, 0.066408, 0.020791,-0.994297, 0.000666, 0.000212,-0.009941, 0.358950,-0.000937, 0.049434,1, 0.038778,-0.000750, 0.010261,1,-0.292271,-0.203609, 9.800179,1,0
1778254385573,   250.761,   250.761, 0.063366, 0.016888,-0.990825, 0.000631, 0.000170,-0.009916, 0.329128,-0.032256, 0.083622,1, 0.033036,-0.000337, 0.011764,1,-0.292281,-0.196832, 9.800317,1,0
1778254385595,   250.786,   250.781, 0.064933, 0.016247,-0.979033, 0.000637, 0.000161,-0.009780, 0.326136,-0.038605, 0.151920,1, 0.024135,-0.003114, 0.013879,1,-0.291966,-0.191462, 9.800433,1,0
1778254385618,   250.806,   250.806, 0.073690, 0.021728,-1.000496, 0.000732, 0.000226,-0.009980, 0.430815, 0.024865,-0.011011,1, 0.005718,-0.000208, 0.019568,1,-0.291869,-0.188184, 9.800499,1,0
1778254385643,   250.831,   250.831, 0.072704, 0.012770,-1.012492, 0.000732, 0.000135,-0.010134, 0.420842,-0.063134,-0.128669,1,-0.005487, 0.002189, 0.024100,1,-0.292226,-0.188512, 9.800482,1,0
1778254385665,   250.856,   250.851, 0.063440, 0.007654,-0.987272, 0.000629, 0.000071,-0.009876, 0.342890,-0.150375, 0.033217,1,-0.013122, 0.000538, 0.023189,1,-0.292539,-0.190568, 9.800433,1,0
1778254385688,   250.881,   250.876, 0.068134, 0.012063,-0.991782, 0.000675, 0.000120,-0.009906, 0.376024,-0.078552, 0.074256,1,-0.033669,-0.003072, 0.024903,1,-0.292060,-0.197876, 9.800303,1,0
1778254385713,   250.901,   250.901, 0.070279, 0.017507,-1.001276, 0.000706, 0.000155,-0.010011, 0.397453,-0.033160,-0.018991,1,-0.047499,-0.001528, 0.027519,1,-0.291714,-0.206296, 9.800139,1,0
1778254385735,   250.926,   250.921, 0.059938, 0.020137,-0.991668, 0.000614, 0.000217,-0.009930, 0.329014, 0.053861,-0.002383,1,-0.062545, 0.003499, 0.033571,1,-0.292097,-0.217410, 9.799888,1,0
1778254385758,   250.951,   250.946, 0.057378,-0.000397,-0.987741, 0.000566,-0.000005,-0.009857, 0.268651,-0.241810, 0.112923,1,-0.089605, 0.008204, 0.034618,1,-0.294321,-0.240682, 9.799277,1,0
1778254385783,   250.971,   250.971, 0.057347, 0.013948,-1.005790, 0.000575, 0.000123,-0.010042, 0.266265,-0.119645,-0.064609,1,-0.097488, 0.010330, 0.032965,1,-0.296461,-0.259438, 9.798734,1,0
1778254385805,   250.996,   250.991, 0.057599, 0.019476,-0.999746, 0.000571, 0.000187,-0.010005, 0.272050,-0.095856,-0.087748,1,-0.104417, 0.010331, 0.032256,1,-0.298600,-0.279452, 9.798119,1,0
1778254385828,   251.021,   251.016, 0.071083, 0.024766,-0.986752, 0.000687, 0.000259,-0.009887, 0.394036,-0.064308, 0.120415,1,-0.112288, 0.016451, 0.030819,1,-0.303596,-0.310641, 9.797026,1,0
1778254385854,   251.041,   251.041, 0.088449, 0.008824,-0.988886, 0.000869, 0.000098,-0.009857, 0.561985,-0.241571, 0.098741,1,-0.102182, 0.004498, 0.023529,1,-0.305571,-0.331272, 9.796288,1,0
1778254385875,   251.066,   251.061, 0.119906, 0.052490,-1.001241, 0.001187, 0.000512,-0.010028, 0.730368, 0.047488, 0.011421,1,-0.091525, 0.004501, 0.016009,1,-0.306358,-0.349484, 9.795631,1,0
1778254385898,   251.091,   251.086, 0.136393, 0.040825,-0.972928, 0.001356, 0.000413,-0.009785, 1.029553, 0.027872, 0.253562,1,-0.079615, 0.001415, 0.021168,1,-0.308077,-0.374943, 9.794636,1,0
1778254385924,   251.111,   251.111, 0.146921, 0.046877,-0.981152, 0.001455, 0.000459,-0.009786, 1.132373, 0.073032, 0.172355,1,-0.069259, 0.002093, 0.014327,1,-0.308514,-0.388817, 9.794081,1,0
1778254385945,   251.136,   251.131, 0.177691, 0.038636,-1.008255, 0.001754, 0.000367,-0.010070, 1.344035,-0.044743,-0.034070,1,-0.050372,-0.005139, 0.012536,1,-0.308122,-0.399506, 9.793663,1,0
1778254385968,   251.161,   251.156, 0.190608, 0.057396,-0.996620, 0.001903, 0.000583,-0.009981, 1.563928, 0.155832, 0.019936,1,-0.014855,-0.014615, 0.011306,1,-0.304858,-0.407482, 9.793437,1,0
1778254385994,   251.181,   251.181, 0.195613, 0.052894,-0.963494, 0.001948, 0.000527,-0.009640, 1.615351, 0.110381, 0.344814,1,-0.002178,-0.008382, 0.010390,1,-0.302709,-0.408386, 9.793466,1,0
1778254386015,   251.206,   251.201, 0.202693, 0.055536,-0.991003, 0.002024, 0.000564,-0.009910, 1.665230, 0.165108, 0.162801,1, 0.002434, 0.002369, 0.016003,1,-0.302671,-0.407829, 9.793490,1,0
1778254386038,   251.231,   251.231, 0.205182, 0.028146,-1.014545, 0.002043, 0.000315,-0.010114, 1.706761,-0.130525,-0.155831,1, 0.008148, 0.011305, 0.027327,1,-0.305774,-0.406266, 9.793459,1,0
1778254386064,   251.251,   251.251, 0.202731, 0.022651,-1.018567, 0.002044, 0.000204,-0.010209, 1.680934,-0.182057,-0.195227,1, 0.015490, 0.004688, 0.020846,1,-0.307353,-0.403689, 9.793516,1,0
1778254386085,   251.276,   251.271, 0.226073, 0.041849,-0.986785, 0.002238, 0.000396,-0.009865, 1.731662, 0.044824, 0.217101,1, 0.017555,-0.011315, 0.019822,1,-0.306598,-0.400676, 9.793663,1,0
1778254386112,   251.301,   251.301, 0.255545, 0.025223,-0.963803, 0.002524, 0.000254,-0.009677, 2.206239,-0.148855, 0.342371,1, 0.020630,-0.024633, 0.021302,1,-0.299058,-0.395547, 9.794105,1,0
1778254386134,   251.326,   251.321, 0.298428, 0.045185,-0.982158, 0.002984, 0.000485,-0.009756, 2.554789, 0.027296, 0.450248,1, 0.022614,-0.011376, 0.021594,1,-0.296385,-0.391361, 9.794354,1,0
1778254386155,   251.346,   251.341, 0.277690, 0.015419,-0.998125, 0.002816, 0.000165,-0.010007, 2.621574,-0.137662,-0.099177,1, 0.017400, 0.000774, 0.027937,1,-0.296393,-0.388040, 9.794486,1,0
1778254386182,   251.371,   251.371, 0.242851, 0.015298,-1.002647, 0.002492, 0.000064,-0.010077, 2.086418,-0.230292,-0.037786,1, 0.040026,-0.020476, 0.013363,1,-0.294518,-0.379057, 9.794894,1,0
1778254386204,   251.396,   251.391, 0.237419, 0.042993,-1.049695, 0.002364, 0.000466,-0.010587, 1.777439, 0.019333,-0.160908,1, 0.063925,-0.008987, 0.007216,1,-0.290743,-0.367565, 9.795445,1,0
1778254386226,   251.416,   251.411, 0.234080,-0.009352,-1.011505, 0.002343,-0.000118,-0.010179, 2.059756,-0.041366,-0.494135,1, 0.083350, 0.017827, 0.002667,1,-0.293193,-0.353079, 9.795905,1,0
1778254386253,   251.441,   251.441, 0.184589, 0.015042,-0.887251, 0.001906, 0.000076,-0.008923, 1.513931,-0.175675, 1.095878,1, 0.129201,-0.004831,-0.032401,1,-0.296084,-0.319188, 9.796981,1,0
1778254386274,   251.466,   251.461, 0.184473, 0.012900,-1.003636, 0.001809, 0.000194,-0.009922, 1.414924,-0.064851, 0.540584,1, 0.158800, 0.003340,-0.033491,1,-0.295250,-0.289392, 9.797932,1,0
1778254386296,   251.486,   251.481, 0.159212,-0.034609,-1.068963, 0.001587,-0.000248,-0.010713, 1.265880,-0.085935,-0.473666,1, 0.172375, 0.011054,-0.039427,1,-0.296824,-0.256286, 9.798806,1,0
1778254386323,   251.511,   251.511, 0.120560,-0.019199,-0.912761, 0.001270,-0.000247,-0.009293, 0.879851,-0.396250, 0.848652,1, 0.192889, 0.022811,-0.060541,1,-0.303109,-0.202012, 9.799883,1,0
1778254386344,   251.536,   251.531, 0.099680, 0.036880,-0.966151, 0.001047, 0.000347,-0.009699, 0.940337, 0.339068, 1.131952,1, 0.193323, 0.041595,-0.046874,1,-0.310618,-0.163562, 9.800364,1,0
1778254386366,   251.556,   251.551, 0.135384,-0.055546,-1.046514, 0.001297,-0.000530,-0.010449, 0.716838,-0.526166,-0.129904,1, 0.198151, 0.057169,-0.070841,1,-0.319182,-0.125228, 9.800654,1,0
1778254386393,   251.581,   251.581, 0.046542,-0.004975,-0.964331, 0.000506, 0.000037,-0.009487, 0.127065,-0.117585, 0.344019,1, 0.216503, 0.022853,-0.093775,1,-0.330053,-0.062141, 9.800898,1,0
1778254386414,   251.606,   251.601, 0.001218,-0.071900,-1.068395,-0.000124,-0.000726,-0.010605,-0.075601,-0.206718,-0.626265,1, 0.227323, 0.012585,-0.077677,1,-0.333902,-0.018702, 9.800946,1,0
1778254386436,   251.626,   251.621,-0.054585, 0.043505,-0.989974,-0.000399, 0.000372,-0.010087,-0.135515,-0.439308,-0.884055,1, 0.240461, 0.013248,-0.112404,1,-0.339026, 0.028423, 9.800747,1,0
1778254386463,   251.651,   251.651,-0.043625, 0.035238,-1.054222,-0.000382, 0.000366,-0.010540,-0.765034, 0.434687,-0.537946,1, 0.211646,-0.004691,-0.065789,1,-0.337088, 0.095652, 9.800388,1,0
1778254386484,   251.676,   251.671,-0.092813,-0.021938,-0.989596,-0.000741,-0.000383,-0.010487,-1.075537,-0.777106,-0.930927,1, 0.220124, 0.008096,-0.083058,1,-0.337537, 0.138417, 9.799862,1,0
1778254386506,   251.696,   251.691,-0.044301, 0.064508,-1.001707,-0.000550, 0.000741,-0.009774,-1.400010, 0.704715, 0.661656,1, 0.214787,-0.028221,-0.080241,1,-0.331309, 0.180565, 9.799389,1,0
1778254386533,   251.721,   251.721,-0.056830,-0.028931,-1.034143,-0.000678,-0.000170,-0.010082,-0.881359,-0.050707,-0.342955,1, 0.197952,-0.007193,-0.049610,1,-0.323857, 0.239131, 9.798384,1,0
1778254386554,   251.746,   251.741, 0.009530, 0.019654,-0.882516, 0.000022, 0.000242,-0.008950,-0.583769,-0.001987, 0.010554,1, 0.179054,-0.020464,-0.054171,1,-0.319905, 0.274482, 9.797586,1,0
1778254386576,   251.766,   251.766, 0.032225,-0.034458,-0.934727, 0.000296,-0.000334,-0.009200, 0.001432,-0.019616, 0.629888,1, 0.147336,-0.022616,-0.029401,1,-0.313912, 0.322862, 9.796306,1,0
1778254386603,   251.791,   251.791, 0.092749,-0.028624,-1.152486, 0.001103,-0.000394,-0.011756, 0.594371, 0.061464,-1.506416,1, 0.099605,-0.001844,-0.014129,1,-0.315140, 0.345264, 9.795503,1,0
1778254386625,   251.816,   251.811, 0.098686, 0.008127,-0.859360, 0.001105, 0.000079,-0.008594, 0.507799, 0.440691, 1.424244,1, 0.083074, 0.015065, 0.029062,1,-0.317761, 0.361298, 9.794839,1,0
1778254386647,   251.836,   251.836, 0.151760,-0.061898,-1.136107, 0.001319,-0.000530,-0.011023, 1.173959,-0.236300,-1.346801,1, 0.029995, 0.008149, 0.025815,1,-0.314523, 0.371675, 9.794556,1,0
1778254386673,   251.861,   251.861, 0.161214, 0.030121,-1.006240, 0.001620, 0.000153,-0.010371, 1.266818, 0.667682,-0.073305,1, 0.004167, 0.014725, 0.059670,1,-0.314543, 0.372490, 9.794524,1,0
1778254386695,   251.886,   251.881, 0.185425,-0.056333,-0.957195, 0.001951,-0.000664,-0.009305, 1.803696,-0.167598, 1.621532,1,-0.009711,-0.020386, 0.085864,1,-0.313552, 0.371624, 9.794588,1,0
1778254386717,   251.906,   251.906, 0.238231,-0.004380,-1.093114, 0.002271, 0.000024,-0.011095, 2.021326, 0.323914,-0.925068,1,-0.011555, 0.024542, 0.068923,1,-0.315612, 0.366578, 9.794713,1,0
1778254386743,   251.931,   251.931, 0.243261,-0.042705,-0.867429, 0.002612,-0.000459,-0.008912, 2.064672,-0.054748, 1.288064,1,-0.034542, 0.012614, 0.095532,1,-0.321181, 0.363068, 9.794662,1,0
1778254386765,   251.956,   251.951, 0.221353,-0.044935,-1.027896, 0.002159,-0.000350,-0.010254, 2.044393,-0.360206,-0.988022,1,-0.015142,-0.004019, 0.058764,1,-0.322212, 0.361470, 9.794687,1,0
1778254386788,   251.976,   251.976, 0.229719,-0.037525,-0.803872, 0.002415,-0.000400,-0.008456, 1.927239, 0.000240, 1.911034,1, 0.032736,-0.002517, 0.056974,1,-0.325391, 0.369311, 9.794290,1,0
1778254386813,   252.001,   252.001, 0.185078,-0.081689,-1.122948, 0.001990,-0.000916,-0.011444, 1.489322,-0.425609,-1.218311,1, 0.031363,-0.001552, 0.025944,1,-0.325596, 0.376489, 9.794010,1,0
1778254386835,   252.026,   252.021, 0.171108,-0.087943,-0.827384, 0.001814,-0.000842,-0.008149, 2.051762,-0.356117,-0.266721,1, 0.043553, 0.040921, 0.027945,1,-0.335303, 0.386479, 9.793293,1,0
1778254386858,   252.046,   252.046, 0.196896,-0.131346,-1.009899, 0.001926,-0.001217,-0.009800, 1.592394,-0.892299,-0.110909,1, 0.025804, 0.033473, 0.016766,1,-0.339522, 0.396583, 9.792744,1,0
1778254386883,   252.071,   252.071, 0.143364,-0.064497,-0.908400, 0.001560,-0.000708,-0.008942, 1.060686,-0.237335, 0.884242,1,-0.046499, 0.037843, 0.020057,1,-0.346392, 0.393740, 9.792618,1,0
1778254386905,   252.096,   252.091, 0.135643,-0.026281,-1.014106, 0.001528,-0.000525,-0.010871, 0.931707,-0.824307,-0.566626,1,-0.091265, 0.064629, 0.016554,1,-0.353395, 0.379942, 9.792912,1,0
1778254386928,   252.121,   252.116, 0.042360,-0.066143,-0.964065, 0.000691,-0.000590,-0.010147, 0.050745,-0.298401, 0.339356,1,-0.119256, 0.014053, 0.017605,1,-0.365086, 0.346540, 9.793723,1,0
1778254386953,   252.141,   252.141,-0.020947,-0.032445,-0.920703, 0.000056,-0.000397,-0.010022,-0.578285, 0.003447, 0.765265,1,-0.135121, 0.027149, 0.014796,1,-0.373694, 0.317429, 9.794385,1,0
1778254386975,   252.166,   252.161, 0.005486,-0.062041,-1.127436,-0.000227,-0.000767,-0.011122,-1.361601,-0.285337, 1.169732,1,-0.143433,-0.006109, 0.009445,1,-0.373887, 0.285743, 9.795353,1,0
1778254386998,   252.191,   252.186,-0.029538,-0.055380,-0.929268,-0.000319,-0.000453,-0.009059,-0.667832,-0.294377, 0.683195,1,-0.107707, 0.000264,-0.030688,1,-0.378195, 0.245316, 9.796284,1,0
1778254387023,   252.211,   252.211,-0.079280,-0.030605,-1.131073,-0.000916,-0.000485,-0.011045,-1.155798,-0.072058,-1.295342,1,-0.098553, 0.007256,-0.045509,1,-0.378612, 0.224975, 9.796756,1,0
1778254387045,   252.236,   252.231,-0.274355,-0.053242,-0.937882,-0.002727,-0.000394,-0.009090,-2.255744,-0.192633,-1.312384,1,-0.052017,-0.015138,-0.065398,1,-0.379308, 0.211739, 9.797024,1,0
1778254387068,   252.261,   252.256,-0.289304,-0.025353,-1.011278,-0.002871, 0.000033,-0.010035,-3.212626,-0.043864,-0.119936,1,-0.012103,-0.004347,-0.079091,1,-0.375442, 0.204291, 9.797331,1,0
1778254387094,   252.281,   252.281,-0.275508,-0.029466,-0.856577,-0.002634,-0.000246,-0.008834,-3.073251,-0.082948, 1.397299,1, 0.017623,-0.037140,-0.102183,1,-0.370352, 0.206447, 9.797480,1,0
1778254387115,   252.306,   252.301,-0.246646, 0.007445,-1.113114,-0.002677,-0.000030,-0.010904,-2.969946, 0.391924, 0.327007,1, 0.015452,-0.050754,-0.086318,1,-0.362934, 0.210143, 9.797679,1,0
1778254387138,   252.331,   252.326,-0.177276,-0.076152,-1.001853,-0.001796,-0.000731,-0.009970,-2.094507,-0.532179,-0.026986,1, 0.035919,-0.017027,-0.091008,1,-0.355553, 0.215636, 9.797830,1,0
1778254387164,   252.351,   252.351,-0.119323, 0.009949,-0.848830,-0.001009, 0.000170,-0.008758,-1.520085, 0.317561, 1.473752,1, 0.022248,-0.056510,-0.085539,1,-0.348224, 0.220595, 9.797982,1,0
1778254387185,   252.376,   252.371,-0.055326,-0.071336,-1.088164,-0.000610,-0.000572,-0.010772,-0.719476, 0.336983,-1.570202,1,-0.034105,-0.048036,-0.073704,1,-0.341464, 0.218144, 9.798275,1,0
1778254387208,   252.401,   252.396, 0.025646,-0.026771,-0.835252, 0.000368,-0.000417,-0.008839,-0.087139,-0.048997, 1.607449,1,-0.029739,-0.037592,-0.070376,1,-0.337511, 0.212532, 9.798535,1,0
1778254387234,   252.421,   252.421, 0.054093,-0.029063,-1.058385, 0.000389,-0.000178,-0.010117, 0.197703,-0.078770,-0.580384,1,-0.055114,-0.028680,-0.053984,1,-0.331908, 0.204476, 9.798899,1,0
1778254387255,   252.446,   252.441, 0.119564,-0.057236,-1.089064, 0.001091,-0.000708,-0.011091, 0.107465,-0.406316,-1.218897,1,-0.033513, 0.006300,-0.064054,1,-0.327421, 0.194713, 9.799249,1,0
1778254387278,   252.471,   252.471, 0.064054,-0.020927,-0.820878, 0.000577,-0.000165,-0.007917, 0.301652,-0.017533, 1.749354,1,-0.024017,-0.006474,-0.077659,1,-0.326352, 0.186866, 9.799437,1,0
1778254387304,   252.491,   252.491, 0.038586,-0.060910,-1.057200, 0.000456,-0.000692,-0.010377, 0.058381,-0.416648,-0.567832,1,-0.032321,-0.025905,-0.089977,1,-0.319266, 0.179577, 9.799807,1,0
1778254387325,   252.516,   252.511, 0.158909,-0.077974,-0.837705, 0.001593,-0.000841,-0.008672, 1.408959,-0.862447,-0.872413,1,-0.007327, 0.012590,-0.109679,1,-0.322977, 0.176020, 9.799749,1,0
1778254387352,   252.541,   252.541, 0.164030,-0.031410,-0.927484, 0.001754,-0.000239,-0.009250, 1.724378,-0.143325, 1.356847,1,-0.016026, 0.000245,-0.112226,1,-0.325846, 0.174250, 9.799686,1,0
1778254387374,   252.566,   252.561, 0.264038,-0.095419,-0.930874, 0.002676,-0.001042,-0.009769, 2.390777,-1.075894,-2.427419,1,-0.012926, 0.048644,-0.138478,1,-0.330478, 0.167344, 9.799651,1,0
1778254387395,   252.586,   252.581, 0.299078,-0.005509,-0.862436, 0.003164,-0.000065,-0.008871, 2.569201,-0.148782, 1.955482,1, 0.011076, 0.023862,-0.156187,1,-0.338095, 0.169310, 9.799357,1,0
1778254387422,   252.611,   252.611, 0.415792,-0.166558,-1.257718, 0.004034,-0.001410,-0.012672, 3.736743,-1.465150,-2.534720,1, 0.015067, 0.046422,-0.165395,1,-0.342328, 0.168550, 9.799224,1,0
1778254387444,   252.636,   252.631, 0.445037,-0.023887,-0.771578, 0.004459, 0.000026,-0.007385, 4.594957,-0.316230, 1.628560,1, 0.041266, 0.021228,-0.210957,1,-0.351953, 0.176922, 9.798736,1,0
1778254387466,   252.656,   252.651, 0.423994,-0.191916,-1.048612, 0.004470,-0.001977,-0.010815, 4.154875,-0.528686,-0.317185,1, 0.049821, 0.043828,-0.169849,1,-0.356795, 0.185259, 9.798406,1,0
1778254387493,   252.681,   252.681, 0.266525,-0.055927,-0.879450, 0.002797,-0.000443,-0.008693, 2.248062,-0.345840, 1.173275,1, 0.082245, 0.012877,-0.221744,1,-0.366201, 0.204927, 9.797668,1,0
1778254387514,   252.706,   252.701, 0.214077,-0.094574,-0.887678, 0.002514,-0.001075,-0.009701, 2.034704,-1.182114,-0.811431,1, 0.063294, 0.043447,-0.205302,1,-0.373714, 0.216393, 9.797137,1,0
1778254387536,   252.726,   252.721, 0.228431,-0.097858,-0.966949, 0.002338,-0.000642,-0.010043, 1.699935,-0.355148, 0.497462,1, 0.036603, 0.029461,-0.243090,1,-0.377285, 0.226719, 9.796767,1,0
1778254387563,   252.751,   252.751, 0.108502,-0.112081,-0.857264, 0.001099,-0.001024,-0.008233, 0.681903,-0.858731, 1.389362,1, 0.049936, 0.003292,-0.242283,1,-0.382427, 0.241668, 9.796210,1,0
1778254387584,   252.776,   252.771, 0.036588,-0.119252,-0.856629, 0.000656,-0.000917,-0.009112, 0.912650,-1.352693,-1.470008,1, 0.020377, 0.014173,-0.244084,1,-0.386051, 0.247811, 9.795915,1,0
1778254387606,   252.796,   252.791, 0.106480,-0.153549,-1.081010, 0.000690,-0.001244,-0.010257, 0.396764,-0.142650,-0.631365,1, 0.023213,-0.016349,-0.257002,1,-0.383600, 0.255212, 9.795820,1,0
1778254387633,   252.821,   252.821, 0.065953,-0.084097,-1.014576, 0.000438,-0.001193,-0.009529, 0.260431,-0.555494,-0.154251,1, 0.027732, 0.021813,-0.300241,1,-0.387287, 0.269712, 9.795287,1,0
1778254387654,   252.846,   252.841,-0.033357,-0.163853,-0.852583,-0.000591,-0.001698,-0.007931,-0.336251,-1.141080, 0.364597,1, 0.069204,-0.014141,-0.311332,1,-0.390281, 0.279090, 9.794906,1,0
1778254387676,   252.866,   252.861,-0.027324,-0.125377,-1.161403,-0.000492,-0.001373,-0.011458,-1.493511,-0.148134, 1.336530,1, 0.107132,-0.028019,-0.321857,1,-0.389241, 0.293037, 9.794539,1,0
1778254387703,   252.891,   252.891,-0.048009,-0.057418,-1.026660,-0.000373,-0.000927,-0.010581,-0.860531,-0.250418,-0.274179,1, 0.089248,-0.030788,-0.370267,1,-0.389129, 0.314988, 9.793862,1,0
1778254387724,   252.916,   252.911, 0.014969,-0.150144,-1.072434,-0.000173,-0.001872,-0.010434,-1.350342,-1.334332, 0.879980,1, 0.134297,-0.029790,-0.377722,1,-0.386218, 0.332461, 9.793401,1,0
