Time,GPS_ts,fGPS_ts,scaledAccelX,scaledAccelY,scaledAccelZ,deltaVelX,deltaVelY,deltaVelZ,estLinearAccelX,estLinearAccelY,estLinearAccelZ,estLinearAccel:valid,estAngularRateX,estAngularRateY,estAngularRateZ,estAngularRate:valid,estGravityX,estGravityY,estGravityZ,estGravity:valid,flag
1777934559477,  3697.478,  3697.473,-0.015001,-0.000737,-0.996618,-0.000149,-0.000008,-0.009965, 0.020462, 0.017683, 0.041364,1, 0.000320, 0.000204,-0.000435,1, 0.158621, 0.017991, 9.805350,1,0
1777934559488,  3697.723,  3697.723,-0.015651,-0.002025,-0.996550,-0.000156,-0.000021,-0.009968, 0.005658,-0.001686, 0.032521,1, 0.000170, 0.000014,-0.000138,1, 0.159139, 0.018181, 9.805342,1,0
1777934559499,  3706.428,  3706.423,-0.018032,-0.002771,-0.997194,-0.000185,-0.000029,-0.009973,-0.027815, 0.005938, 0.046377,1,-0.000026, 0.000625,-0.000147,1, 0.162043, 0.018668, 9.805293,1,0
1777934559509,  3706.428,  3706.423,-0.018032,-0.002771,-0.997194,-0.000185,-0.000029,-0.009973,-0.027815, 0.005938, 0.046377,1,-0.000026, 0.000625,-0.000147,1, 0.162043, 0.018668, 9.805293,1,0
1777934559522,  3706.453,  3706.448,-0.017675,-0.002893,-0.994330,-0.000179,-0.000034,-0.009949,-0.011248,-0.009832, 0.054249,1,-0.000817, 0.000750,-0.001047,1, 0.162058, 0.018517, 9.805293,1,0
1777934559532,  3706.453,  3706.448,-0.017675,-0.002893,-0.994330,-0.000179,-0.000034,-0.009949,-0.011248,-0.009832, 0.054249,1,-0.000817, 0.000750,-0.001047,1, 0.162058, 0.018517, 9.805293,1,0
1777934559548,  3706.478,  3706.473,-0.015178,-0.001662,-0.994645,-0.000153,-0.000017,-0.009944, 0.011971,-0.012953, 0.026860,1, 0.000736, 0.000503,-0.000944,1, 0.161967, 0.018643, 9.805295,1,0
1777934559559,  3706.478,  3706.473,-0.015178,-0.001662,-0.994645,-0.000153,-0.000017,-0.009944, 0.011971,-0.012953, 0.026860,1, 0.000736, 0.000503,-0.000944,1, 0.161967, 0.018643, 9.805295,1,0
1777934559572,  3706.498,  3706.498,-0.014753,-0.000021,-0.998395,-0.000147,-0.000001,-0.009974, 0.017195, 0.018496, 0.014386,1,-0.000236, 0.000066,-0.000482,1, 0.161870, 0.018697, 9.805296,1,0
1777934559582,  3706.498,  3706.498,-0.014753,-0.000021,-0.998395,-0.000147,-0.000001,-0.009974, 0.017195, 0.018496, 0.014386,1,-0.000236, 0.000066,-0.000482,1, 0.161870, 0.018697, 9.805296,1,0
1777934559598,  3706.523,  3706.523,-0.016557, 0.000544,-0.994557,-0.000158, 0.000002,-0.009963,-0.000392, 0.023962, 0.052025,1,-0.000731,-0.000860,-0.000245,1, 0.162004, 0.018604, 9.805294,1,0
1777934559608,  3706.523,  3706.523,-0.016557, 0.000544,-0.994557,-0.000158, 0.000002,-0.009963,-0.000392, 0.023962, 0.052025,1,-0.000731,-0.000860,-0.000245,1, 0.162004, 0.018604, 9.805294,1,0
1777934559620,  3706.548,  3706.543,-0.016989,-0.001446,-0.995711,-0.000169,-0.000016,-0.009964,-0.003854, 0.006772, 0.043575,1,-0.000074, 0.000149, 0.000387,1, 0.161981, 0.018495, 9.805295,1,0
1777934559630,  3706.548,  3706.543,-0.016989,-0.001446,-0.995711,-0.000169,-0.000016,-0.009964,-0.003854, 0.006772, 0.043575,1,-0.000074, 0.000149, 0.000387,1, 0.161981, 0.018495, 9.805295,1,0
1777934559648,  3706.573,  3706.573,-0.017743,-0.002578,-0.995680,-0.000175,-0.000026,-0.009955,-0.011928,-0.006857, 0.041012,1,-0.000159,-0.000241,-0.000175,1, 0.162077, 0.018422, 9.805293,1,0
1777934559658,  3706.573,  3706.573,-0.017743,-0.002578,-0.995680,-0.000175,-0.000026,-0.009955,-0.011928,-0.006857, 0.041012,1,-0.000159,-0.000241,-0.000175,1, 0.162077, 0.018422, 9.805293,1,0
1777934559670,  3706.598,  3706.593,-0.017730,-0.001578,-0.994962,-0.000176,-0.000016,-0.009950, 0.000306,-0.005897, 0.040480,1, 0.000875,-0.000214, 0.000026,1, 0.162086, 0.018443, 9.805293,1,0
1777934559681,  3706.598,  3706.593,-0.017730,-0.001578,-0.994962,-0.000176,-0.000016,-0.009950, 0.000306,-0.005897, 0.040480,1, 0.000875,-0.000214, 0.000026,1, 0.162086, 0.018443, 9.805293,1,0
1777934559697,  3706.623,  3706.623,-0.016301,-0.001121,-0.996170,-0.000164,-0.000009,-0.009961, 0.002204, 0.007499, 0.036202,1, 0.000332, 0.000023,-0.000072,1, 0.162066, 0.018507, 9.805293,1,0
1777934559708,  3706.623,  3706.623,-0.016301,-0.001121,-0.996170,-0.000164,-0.000009,-0.009961, 0.002204, 0.007499, 0.036202,1, 0.000332, 0.000023,-0.000072,1, 0.162066, 0.018507, 9.805293,1,0
1777934559719,  3706.648,  3706.643,-0.016972,-0.001726,-0.995925,-0.000167,-0.000018,-0.009955,-0.005161, 0.008305, 0.039867,1,-0.000048,-0.000091, 0.000030,1, 0.162087, 0.018540, 9.805293,1,0
1777934559729,  3706.648,  3706.643,-0.016972,-0.001726,-0.995925,-0.000167,-0.000018,-0.009955,-0.005161, 0.008305, 0.039867,1,-0.000048,-0.000091, 0.000030,1, 0.162087, 0.018540, 9.805293,1,0
1777934559747,  3706.673,  3706.673,-0.017310,-0.003310,-0.995735,-0.000172,-0.000033,-0.009961,-0.007671,-0.013922, 0.040466,1,-0.000572, 0.000461,-0.000238,1, 0.162063, 0.018519, 9.805293,1,0
1777934559757,  3706.673,  3706.673,-0.017310,-0.003310,-0.995735,-0.000172,-0.000033,-0.009961,-0.007671,-0.013922, 0.040466,1,-0.000572, 0.000461,-0.000238,1, 0.162063, 0.018519, 9.805293,1,0
1777934559769,  3706.698,  3706.693,-0.016333,-0.000692,-0.994895,-0.000164,-0.000005,-0.009951,-0.004290,-0.009156, 0.046563,1,-0.000702, 0.000761,-0.000162,1, 0.161988, 0.018505, 9.805295,1,0
1777934559779,  3706.698,  3706.693,-0.016333,-0.000692,-0.994895,-0.000164,-0.000005,-0.009951,-0.004290,-0.009156, 0.046563,1,-0.000702, 0.000761,-0.000162,1, 0.161988, 0.018505, 9.805295,1,0
1777934559792,  3706.723,  3706.718,-0.015859,-0.002002,-0.996486,-0.000164,-0.000013,-0.009962, 0.006349,-0.001085, 0.033106,1, 0.000053,-0.000272,-0.000947,1, 0.161879, 0.018555, 9.805296,1,0
1777934559802,  3706.723,  3706.718,-0.015859,-0.002002,-0.996486,-0.000164,-0.000013,-0.009962, 0.006349,-0.001085, 0.033106,1, 0.000053,-0.000272,-0.000947,1, 0.161879, 0.018555, 9.805296,1,0
1777934559818,  3706.748,  3706.743,-0.015745,-0.002108,-0.995933,-0.000158,-0.000015,-0.009964, 0.008389, 0.007601, 0.057738,1, 0.000693,-0.000349,-0.000853,1, 0.162074, 0.018461, 9.805293,1,0
1777934559829,  3706.748,  3706.743,-0.015745,-0.002108,-0.995933,-0.000158,-0.000015,-0.009964, 0.008389, 0.007601, 0.057738,1, 0.000693,-0.000349,-0.000853,1, 0.162074, 0.018461, 9.805293,1,0
1777934559842,  3706.768,  3706.768,-0.016434,-0.002163,-0.994989,-0.000164,-0.000018,-0.009953, 0.000943,-0.002799, 0.047779,1, 0.000034, 0.000181,-0.000533,1, 0.162103, 0.018416, 9.805293,1,0
1777934559852,  3706.768,  3706.768,-0.016434,-0.002163,-0.994989,-0.000164,-0.000018,-0.009953, 0.000943,-0.002799, 0.047779,1, 0.000034, 0.000181,-0.000533,1, 0.162103, 0.018416, 9.805293,1,0
1777934559868,  3706.793,  3706.793,-0.017127,-0.001623,-0.995292,-0.000175,-0.000016,-0.009946,-0.005872, 0.002427, 0.044810,1,-0.000349, 0.001029,-0.000765,1, 0.162052, 0.018336, 9.805294,1,0
1777934559878,  3706.793,  3706.793,-0.017127,-0.001623,-0.995292,-0.000175,-0.000016,-0.009946,-0.005872, 0.002427, 0.044810,1,-0.000349, 0.001029,-0.000765,1, 0.162052, 0.018336, 9.805294,1,0
1777934559890,  3706.818,  3706.813,-0.018299,-0.001459,-0.995884,-0.000185,-0.000015,-0.009958,-0.010110, 0.006925, 0.032040,1, 0.000128,-0.000207,-0.000247,1, 0.162038, 0.018392, 9.805294,1,0
1777934559900,  3706.818,  3706.813,-0.018299,-0.001459,-0.995884,-0.000185,-0.000015,-0.009958,-0.010110, 0.006925, 0.032040,1, 0.000128,-0.000207,-0.000247,1, 0.162038, 0.018392, 9.805294,1,0
1777934559918,  3706.843,  3706.843,-0.016580,-0.001866,-0.996470,-0.000167,-0.000017,-0.009964,-0.000618, 0.000141, 0.033259,1, 0.000372, 0.000473,-0.000522,1, 0.161960, 0.018447, 9.805295,1,0
1777934559928,  3706.843,  3706.843,-0.016580,-0.001866,-0.996470,-0.000167,-0.000017,-0.009964,-0.000618, 0.000141, 0.033259,1, 0.000372, 0.000473,-0.000522,1, 0.161960, 0.018447, 9.805295,1,0
1777934559940,  3706.868,  3706.863,-0.015530,-0.003147,-0.995598,-0.000156,-0.000031,-0.009957, 0.004108,-0.003018, 0.042682,1, 0.000267, 0.000330,-0.000060,1, 0.161951, 0.018490, 9.805295,1,0
1777934559950,  3706.868,  3706.863,-0.015530,-0.003147,-0.995598,-0.000156,-0.000031,-0.009957, 0.004108,-0.003018, 0.042682,1, 0.000267, 0.000330,-0.000060,1, 0.161951, 0.018490, 9.805295,1,0
1777934559967,  3706.893,  3706.893,-0.015783,-0.002390,-0.995057,-0.000157,-0.000025,-0.009949, 0.007086,-0.004938, 0.047125,1,-0.000154, 0.000185,-0.000683,1, 0.161862, 0.018497, 9.805297,1,0
1777934559977,  3706.893,  3706.893,-0.015783,-0.002390,-0.995057,-0.000157,-0.000025,-0.009949, 0.007086,-0.004938, 0.047125,1,-0.000154, 0.000185,-0.000683,1, 0.161862, 0.018497, 9.805297,1,0
1777934559989,  3706.918,  3706.913,-0.017190,-0.001775,-0.995479,-0.000173,-0.000019,-0.009955,-0.000400, 0.002148, 0.040271,1, 0.000084,-0.000427,-0.000754,1, 0.161928, 0.018533, 9.805296,1,0
1777934559999,  3706.918,  3706.913,-0.017190,-0.001775,-0.995479,-0.000173,-0.000019,-0.009955,-0.000400, 0.002148, 0.040271,1, 0.000084,-0.000427,-0.000754,1, 0.161928, 0.018533, 9.805296,1,0
1777934560017,  3706.943,  3706.943,-0.017861,-0.000845,-0.996616,-0.000181,-0.000007,-0.009961,-0.013037, 0.010187, 0.031826,1, 0.000290,-0.000565,-0.000657,1, 0.162144, 0.018478, 9.805292,1,0
1777934560027,  3706.943,  3706.943,-0.017861,-0.000845,-0.996616,-0.000181,-0.000007,-0.009961,-0.013037, 0.010187, 0.031826,1, 0.000290,-0.000565,-0.000657,1, 0.162144, 0.018478, 9.805292,1,0
1777934560039,  3706.968,  3706.963,-0.017361,-0.001610,-0.995400,-0.000175,-0.000016,-0.009955,-0.014653, 0.008427, 0.037304,1, 0.000129,-0.000792,-0.000336,1, 0.162219, 0.018505, 9.805291,1,0
1777934560049,  3706.968,  3706.963,-0.017361,-0.001610,-0.995400,-0.000175,-0.000016,-0.009955,-0.014653, 0.008427, 0.037304,1, 0.000129,-0.000792,-0.000336,1, 0.162219, 0.018505, 9.805291,1,0
1777934560062,  3706.993,  3706.988,-0.016524,-0.003202,-0.995823,-0.000166,-0.000029,-0.009960, 0.000143,-0.012905, 0.039604,1, 0.000155,-0.000451,-0.000362,1, 0.162201, 0.018504, 9.805291,1,0
1777934560072,  3706.993,  3706.988,-0.016524,-0.003202,-0.995823,-0.000166,-0.000029,-0.009960, 0.000143,-0.012905, 0.039604,1, 0.000155,-0.000451,-0.000362,1, 0.162201, 0.018504, 9.805291,1,0
1777934560088,  3707.018,  3707.013,-0.018079,-0.003053,-0.994451,-0.000162,-0.000036,-0.009965, 0.003058, 0.010069, 0.040464,1, 0.001012, 0.000855,-0.000305,1, 0.162155, 0.018564, 9.805292,1,0
1777934560099,  3707.018,  3707.013,-0.018079,-0.003053,-0.994451,-0.000162,-0.000036,-0.009965, 0.003058, 0.010069, 0.040464,1, 0.001012, 0.000855,-0.000305,1, 0.162155, 0.018564, 9.805292,1,0
1777934560112,  3707.038,  3707.038,-0.017536,-0.002975,-0.994233,-0.000174,-0.000030,-0.009936,-0.009691,-0.010612, 0.055196,1, 0.000366,-0.000071,-0.000997,1, 0.162278, 0.018570, 9.805289,1,0
1777934560122,  3707.038,  3707.038,-0.017536,-0.002975,-0.994233,-0.000174,-0.000030,-0.009936,-0.009691,-0.010612, 0.055196,1, 0.000366,-0.000071,-0.000997,1, 0.162278, 0.018570, 9.805289,1,0
1777934560138,  3707.068,  3707.063,-0.016043, 0.001145,-0.996037,-0.000170,-0.000009,-0.009939,-0.001103, 0.011610, 0.015381,1,-0.000333, 0.000800,-0.001078,1, 0.162190, 0.018524, 9.805291,1,0
1777934560148,  3707.068,  3707.063,-0.016043, 0.001145,-0.996037,-0.000170,-0.000009,-0.009939,-0.001103, 0.011610, 0.015381,1,-0.000333, 0.000800,-0.001078,1, 0.162190, 0.018524, 9.805291,1,0
1777934560160,  3707.088,  3707.083,-0.017559,-0.002280,-0.995567,-0.000172,-0.000013,-0.009965,-0.018125, 0.004509, 0.056348,1, 0.000554,-0.001674,-0.000833,1, 0.162394, 0.018582, 9.805287,1,0
1777934560170,  3707.088,  3707.083,-0.017559,-0.002280,-0.995567,-0.000172,-0.000013,-0.009965,-0.018125, 0.004509, 0.056348,1, 0.000554,-0.001674,-0.000833,1, 0.162394, 0.018582, 9.805287,1,0
1777934560188,  3707.113,  3707.113,-0.015951,-0.001938,-0.997313,-0.000168,-0.000018,-0.009960, 0.005811,-0.000473, 0.024993,1,-0.000012,-0.000511,-0.000912,1, 0.162256, 0.018528, 9.805290,1,0
1777934560198,  3707.113,  3707.113,-0.015951,-0.001938,-0.997313,-0.000168,-0.000018,-0.009960, 0.005811,-0.000473, 0.024993,1,-0.000012,-0.000511,-0.000912,1, 0.162256, 0.018528, 9.805290,1,0
1777934560210,  3707.138,  3707.133,-0.016898,-0.000718,-0.996339,-0.000170,-0.000009,-0.009956, 0.006969, 0.013263, 0.038140,1, 0.000439, 0.000459,-0.001235,1, 0.162179, 0.018582, 9.805291,1,0
1777934560220,  3707.138,  3707.133,-0.016898,-0.000718,-0.996339,-0.000170,-0.000009,-0.009956, 0.006969, 0.013263, 0.038140,1, 0.000439, 0.000459,-0.001235,1, 0.162179, 0.018582, 9.805291,1,0
1777934560237,  3707.163,  3707.163,-0.016508,-0.000641,-0.996359,-0.000166,-0.000005,-0.009963, 0.000269, 0.012180, 0.034348,1, 0.000553, 0.000370,-0.000207,1, 0.162147, 0.018479, 9.805292,1,0
1777934560247,  3707.163,  3707.163,-0.016508,-0.000641,-0.996359,-0.000166,-0.000005,-0.009963, 0.000269, 0.012180, 0.034348,1, 0.000553, 0.000370,-0.000207,1, 0.162147, 0.018479, 9.805292,1,0
1777934560259,  3707.188,  3707.183,-0.016534,-0.001082,-0.995590,-0.000165,-0.000010,-0.009960,-0.003395, 0.020494, 0.046361,1, 0.000030, 0.000241, 0.000381,1, 0.162173, 0.018506, 9.805291,1,0
1777934560269,  3707.188,  3707.183,-0.016534,-0.001082,-0.995590,-0.000165,-0.000010,-0.009960,-0.003395, 0.020494, 0.046361,1, 0.000030, 0.000241, 0.000381,1, 0.162173, 0.018506, 9.805291,1,0
1777934560287,  3707.213,  3707.213,-0.017622,-0.005307,-0.995561,-0.000174,-0.000043,-0.009959,-0.010771,-0.033548, 0.042173,1, 0.000606, 0.000200,-0.000045,1, 0.162032, 0.018519, 9.805294,1,0
1777934560297,  3707.213,  3707.213,-0.017622,-0.005307,-0.995561,-0.000174,-0.000043,-0.009959,-0.010771,-0.033548, 0.042173,1, 0.000606, 0.000200,-0.000045,1, 0.162032, 0.018519, 9.805294,1,0
1777934560309,  3707.238,  3707.233,-0.017528,-0.004024,-0.997140,-0.000181,-0.000047,-0.009967,-0.005636, 0.006674, 0.045118,1, 0.000247,-0.001066, 0.000050,1, 0.162197, 0.018405, 9.805291,1,0
1777934560319,  3707.238,  3707.233,-0.017528,-0.004024,-0.997140,-0.000181,-0.000047,-0.009967,-0.005636, 0.006674, 0.045118,1, 0.000247,-0.001066, 0.000050,1, 0.162197, 0.018405, 9.805291,1,0
1777934560332,  3707.263,  3707.258,-0.017336,-0.002522,-0.992614,-0.000175,-0.000019,-0.009937,-0.007841,-0.006364, 0.071076,1, 0.000418, 0.000586,-0.000644,1, 0.162151, 0.018386, 9.805292,1,0
1777934560342,  3707.263,  3707.258,-0.017336,-0.002522,-0.992614,-0.000175,-0.000019,-0.009937,-0.007841,-0.006364, 0.071076,1, 0.000418, 0.000586,-0.000644,1, 0.162151, 0.018386, 9.805292,1,0
1777934560359,  3707.288,  3707.283,-0.016566,-0.000228,-0.993991,-0.000166, 0.000001,-0.009946, 0.008251,-0.003096, 0.010907,1, 0.000245, 0.000343,-0.000026,1, 0.162121, 0.018426, 9.805292,1,0
1777934560369,  3707.288,  3707.283,-0.016566,-0.000228,-0.993991,-0.000166, 0.000001,-0.009946, 0.008251,-0.003096, 0.010907,1, 0.000245, 0.000343,-0.000026,1, 0.162121, 0.018426, 9.805292,1,0
1777934560382,  3707.308,  3707.308,-0.016573,-0.000430,-0.995830,-0.000165,-0.000004,-0.009948,-0.000393, 0.014153, 0.039535,1, 0.000023, 0.000245,-0.000177,1, 0.162120, 0.018374, 9.805293,1,0
1777934560392,  3707.308,  3707.308,-0.016573,-0.000430,-0.995830,-0.000165,-0.000004,-0.009948,-0.000393, 0.014153, 0.039535,1, 0.000023, 0.000245,-0.000177,1, 0.162120, 0.018374, 9.805293,1,0
1777934560408,  3707.338,  3707.333,-0.017230,-0.002820,-0.996609,-0.000178,-0.000027,-0.009954,-0.006997,-0.001141, 0.033846,1,-0.000039,-0.001381,-0.000221,1, 0.162132, 0.018323, 9.805292,1,0
1777934560418,  3707.338,  3707.333,-0.017230,-0.002820,-0.996609,-0.000178,-0.000027,-0.009954,-0.006997,-0.001141, 0.033846,1,-0.000039,-0.001381,-0.000221,1, 0.162132, 0.018323, 9.805292,1,0
1777934560430,  3707.358,  3707.353,-0.016014,-0.002180,-0.996336,-0.000162,-0.000020,-0.009962,-0.007337, 0.002843, 0.055435,1, 0.000426, 0.000058,-0.000226,1, 0.162229, 0.018205, 9.805291,1,0
1777934560440,  3707.358,  3707.353,-0.016014,-0.002180,-0.996336,-0.000162,-0.000020,-0.009962,-0.007337, 0.002843, 0.055435,1, 0.000426, 0.000058,-0.000226,1, 0.162229, 0.018205, 9.805291,1,0
1777934560458,  3707.383,  3707.383,-0.016309,-0.001641,-0.994873,-0.000162,-0.000015,-0.009949, 0.002318, 0.002185, 0.048918,1, 0.000307,-0.000343,-0.000286,1, 0.162270, 0.018284, 9.805290,1,0
1777934560468,  3707.383,  3707.383,-0.016309,-0.001641,-0.994873,-0.000162,-0.000015,-0.009949, 0.002318, 0.002185, 0.048918,1, 0.000307,-0.000343,-0.000286,1, 0.162270, 0.018284, 9.805290,1,0
1777934560480,  3707.408,  3707.403,-0.016557,-0.002203,-0.995423,-0.000162,-0.000023,-0.009957, 0.003733, 0.000680, 0.039224,1, 0.000374, 0.000186,-0.000497,1, 0.162248, 0.018291, 9.805290,1,0
1777934560490,  3707.408,  3707.403,-0.016557,-0.002203,-0.995423,-0.000162,-0.000023,-0.009957, 0.003733, 0.000680, 0.039224,1, 0.000374, 0.000186,-0.000497,1, 0.162248, 0.018291, 9.805290,1,0
1777934560507,  3707.433,  3707.433,-0.016726,-0.001700,-0.995214,-0.000167,-0.000017,-0.009951,-0.001751, 0.001637, 0.045579,1, 0.000845, 0.000449,-0.000776,1, 0.162261, 0.018340, 9.805290,1,0
1777934560517,  3707.433,  3707.433,-0.016726,-0.001700,-0.995214,-0.000167,-0.000017,-0.009951,-0.001751, 0.001637, 0.045579,1, 0.000845, 0.000449,-0.000776,1, 0.162261, 0.018340, 9.805290,1,0
1777934560529,  3707.458,  3707.453,-0.017192,-0.001910,-0.996196,-0.000174,-0.000019,-0.009961,-0.012462, 0.004056, 0.040038,1, 0.000619, 0.000501,-0.000278,1, 0.162290, 0.018367, 9.805290,1,0
1777934560539,  3707.458,  3707.453,-0.017192,-0.001910,-0.996196,-0.000174,-0.000019,-0.009961,-0.012462, 0.004056, 0.040038,1, 0.000619, 0.000501,-0.000278,1, 0.162290, 0.018367, 9.805290,1,0
1777934560557,  3707.483,  3707.483,-0.017177,-0.002107,-0.996174,-0.000171,-0.000019,-0.009961,-0.006173,-0.002274, 0.036161,1, 0.000527,-0.000151,-0.000426,1, 0.162282, 0.018401, 9.805290,1,0
1777934560567,  3707.483,  3707.483,-0.017177,-0.002107,-0.996174,-0.000171,-0.000019,-0.009961,-0.006173,-0.002274, 0.036161,1, 0.000527,-0.000151,-0.000426,1, 0.162282, 0.018401, 9.805290,1,0
1777934560579,  3707.508,  3707.503,-0.016484,-0.001053,-0.996426,-0.000168,-0.000008,-0.009962,-0.000351, 0.003464, 0.041254,1, 0.000237,-0.000090,-0.000208,1, 0.162291, 0.018335, 9.805290,1,0
1777934560589,  3707.508,  3707.503,-0.016484,-0.001053,-0.996426,-0.000168,-0.000008,-0.009962,-0.000351, 0.003464, 0.041254,1, 0.000237,-0.000090,-0.000208,1, 0.162291, 0.018335, 9.805290,1,0
1777934560602,  3707.533,  3707.528,-0.016133,-0.000437,-0.995298,-0.000161,-0.000006,-0.009956, 0.004118, 0.014142, 0.044748,1, 0.000573,-0.001000,-0.000581,1, 0.162357, 0.018441, 9.805288,1,0
1777934560613,  3707.533,  3707.528,-0.016133,-0.000437,-0.995298,-0.000161,-0.000006,-0.009956, 0.004118, 0.014142, 0.044748,1, 0.000573,-0.001000,-0.000581,1, 0.162357, 0.018441, 9.805288,1,0
1777934560629,  3707.558,  3707.553,-0.016667,-0.001162,-0.995646,-0.000165,-0.000012,-0.009960, 0.004257, 0.009778, 0.035147,1, 0.000598, 0.000015, 0.000432,1, 0.162485, 0.018457, 9.805286,1,0
1777934560639,  3707.558,  3707.553,-0.016667,-0.001162,-0.995646,-0.000165,-0.000012,-0.009960, 0.004257, 0.009778, 0.035147,1, 0.000598, 0.000015, 0.000432,1, 0.162485, 0.018457, 9.805286,1,0
1777934560652,  3707.578,  3707.578,-0.017213,-0.002797,-0.996356,-0.000171,-0.000027,-0.009963,-0.006289,-0.008926, 0.034370,1, 0.000060,-0.000377,-0.000135,1, 0.162523, 0.018502, 9.805285,1,0
1777934560662,  3707.578,  3707.578,-0.017213,-0.002797,-0.996356,-0.000171,-0.000027,-0.009963,-0.006289,-0.008926, 0.034370,1, 0.000060,-0.000377,-0.000135,1, 0.162523, 0.018502, 9.805285,1,0
1777934560678,  3707.608,  3707.603,-0.017553,-0.002098,-0.995629,-0.000176,-0.000020,-0.009958,-0.013249,-0.005480, 0.043561,1, 0.000314, 0.000786,-0.000774,1, 0.162445, 0.018557, 9.805287,1,0
1777934560688,  3707.608,  3707.603,-0.017553,-0.002098,-0.995629,-0.000176,-0.000020,-0.009958,-0.013249,-0.005480, 0.043561,1, 0.000314, 0.000786,-0.000774,1, 0.162445, 0.018557, 9.805287,1,0
1777934560702,  3707.628,  3707.628,-0.016517,-0.002336,-0.995483,-0.000164,-0.000023,-0.009955, 0.000448,-0.004409, 0.042937,1, 0.000027, 0.000547,-0.000680,1, 0.162412, 0.018499, 9.805287,1,0
1777934560712,  3707.628,  3707.628,-0.016517,-0.002336,-0.995483,-0.000164,-0.000023,-0.009955, 0.000448,-0.004409, 0.042937,1, 0.000027, 0.000547,-0.000680,1, 0.162412, 0.018499, 9.805287,1,0
1777934560728,  3707.653,  3707.653,-0.016414,-0.001021,-0.996150,-0.000164,-0.000010,-0.009958, 0.001471, 0.008528, 0.036393,1, 0.000395, 0.000041,-0.000302,1, 0.162437, 0.018552, 9.805287,1,0
1777934560738,  3707.653,  3707.653,-0.016414,-0.001021,-0.996150,-0.000164,-0.000010,-0.009958, 0.001471, 0.008528, 0.036393,1, 0.000395, 0.000041,-0.000302,1, 0.162437, 0.018552, 9.805287,1,0
1777934560750,  3707.678,  3707.673,-0.016313,-0.000244,-0.995490,-0.000164,-0.000003,-0.009953, 0.003364, 0.016193, 0.038009,1,-0.000055,-0.000383,-0.000500,1, 0.162469, 0.018557, 9.805286,1,0
1777934560760,  3707.678,  3707.673,-0.016313,-0.000244,-0.995490,-0.000164,-0.000003,-0.009953, 0.003364, 0.016193, 0.038009,1,-0.000055,-0.000383,-0.000500,1, 0.162469, 0.018557, 9.805286,1,0
1777934560777,  3707.703,  3707.703,-0.016810,-0.001305,-0.995941,-0.000166,-0.000013,-0.009960,-0.002396, 0.005695, 0.038444,1,-0.000646,-0.000565, 0.000172,1, 0.162468, 0.018473, 9.805286,1,0
1777934560788,  3707.703,  3707.703,-0.016810,-0.001305,-0.995941,-0.000166,-0.000013,-0.009960,-0.002396, 0.005695, 0.038444,1,-0.000646,-0.000565, 0.000172,1, 0.162468, 0.018473, 9.805286,1,0
1777934560799,  3707.728,  3707.723,-0.017223,-0.001549,-0.995636,-0.000172,-0.000012,-0.009955,-0.005957, 0.006526, 0.045130,1, 0.000126,-0.001025,-0.000370,1, 0.162613, 0.018346, 9.805285,1,0
1777934560809,  3707.728,  3707.723,-0.017223,-0.001549,-0.995636,-0.000172,-0.000012,-0.009955,-0.005957, 0.006526, 0.045130,1, 0.000126,-0.001025,-0.000370,1, 0.162613, 0.018346, 9.805285,1,0
1777934560827,  3707.753,  3707.753,-0.017277,-0.001769,-0.995449,-0.000171,-0.000019,-0.009955,-0.006721, 0.000947, 0.043261,1, 0.000703,-0.000384, 0.000050,1, 0.162722, 0.018315, 9.805283,1,0
1777934560837,  3707.753,  3707.753,-0.017277,-0.001769,-0.995449,-0.000171,-0.000019,-0.009955,-0.006721, 0.000947, 0.043261,1, 0.000703,-0.000384, 0.000050,1, 0.162722, 0.018315, 9.805283,1,0
1777934560849,  3707.778,  3707.773,-0.016734,-0.000437,-0.995261,-0.000167,-0.000011,-0.009958,-0.000455,-0.003609, 0.039983,1,-0.000563,-0.000176, 0.000046,1, 0.162692, 0.018295, 9.805284,1,0
1777934560859,  3707.778,  3707.773,-0.016734,-0.000437,-0.995261,-0.000167,-0.000011,-0.009958,-0.000455,-0.003609, 0.039983,1,-0.000563,-0.000176, 0.000046,1, 0.162692, 0.018295, 9.805284,1,0
1777934560872,  3707.803,  3707.798,-0.017063,-0.003658,-0.994672,-0.000166,-0.000042,-0.009936,-0.004681,-0.017457, 0.050887,1,-0.000003, 0.000443,-0.000461,1, 0.162640, 0.018417, 9.805284,1,0
1777934560883,  3707.803,  3707.798,-0.017063,-0.003658,-0.994672,-0.000166,-0.000042,-0.009936,-0.004681,-0.017457, 0.050887,1,-0.000003, 0.000443,-0.000461,1, 0.162640, 0.018417, 9.805284,1,0
1777934560899,  3707.828,  3707.823,-0.016612,-0.001145,-0.997470,-0.000162,-0.000018,-0.009970,-0.009280,-0.007036, 0.039617,1, 0.000981,-0.000258,-0.000726,1, 0.162681, 0.018513, 9.805284,1,0
1777934560909,  3707.828,  3707.823,-0.016612,-0.001145,-0.997470,-0.000162,-0.000018,-0.009970,-0.009280,-0.007036, 0.039617,1, 0.000981,-0.000258,-0.000726,1, 0.162681, 0.018513, 9.805284,1,0
1777934560922,  3707.853,  3707.848,-0.017906, 0.000474,-0.992889,-0.000166,-0.000007,-0.009949,-0.012948, 0.022987, 0.068373,1,-0.000680, 0.000186,-0.000589,1, 0.162649, 0.018317, 9.805284,1,0
1777934560932,  3707.853,  3707.848,-0.017906, 0.000474,-0.992889,-0.000166,-0.000007,-0.009949,-0.012948, 0.022987, 0.068373,1,-0.000680, 0.000186,-0.000589,1, 0.162649, 0.018317, 9.805284,1,0
1777934560948,  3707.878,  3707.873,-0.016844,-0.002227,-0.995269,-0.000165,-0.000022,-0.009962,-0.004064, 0.008267, 0.039404,1, 0.000306, 0.000070,-0.000136,1, 0.162671, 0.018402, 9.805284,1,0
1777934560958,  3707.878,  3707.873,-0.016844,-0.002227,-0.995269,-0.000165,-0.000022,-0.009962,-0.004064, 0.008267, 0.039404,1, 0.000306, 0.000070,-0.000136,1, 0.162671, 0.018402, 9.805284,1,0
1777934560972,  3707.898,  3707.898,-0.017395,-0.002041,-0.994984,-0.000177,-0.000021,-0.009950,-0.007937,-0.001492, 0.047824,1, 0.000275, 0.000800,-0.000477,1, 0.162627, 0.018534, 9.805284,1,0
1777934560982,  3707.898,  3707.898,-0.017395,-0.002041,-0.994984,-0.000177,-0.000021,-0.009950,-0.007937,-0.001492, 0.047824,1, 0.000275, 0.000800,-0.000477,1, 0.162627, 0.018534, 9.805284,1,0
1777934560998,  3707.923,  3707.923,-0.017029,-0.001807,-0.996655,-0.000172,-0.000015,-0.009958,-0.004262, 0.000841, 0.031437,1, 0.000126, 0.000212,-0.000332,1, 0.162729, 0.018568, 9.805283,1,0
1777934561008,  3707.923,  3707.923,-0.017029,-0.001807,-0.996655,-0.000172,-0.000015,-0.009958,-0.004262, 0.000841, 0.031437,1, 0.000126, 0.000212,-0.000332,1, 0.162729, 0.018568, 9.805283,1,0
1777934561020,  3707.948,  3707.943,-0.017131,-0.001871,-0.996036,-0.000172,-0.000019,-0.009956,-0.009176, 0.000714, 0.041658,1,-0.000275,-0.000727, 0.000521,1, 0.162863, 0.018608, 9.805280,1,0
1777934561030,  3707.948,  3707.943,-0.017131,-0.001871,-0.996036,-0.000172,-0.000019,-0.009956,-0.009176, 0.000714, 0.041658,1,-0.000275,-0.000727, 0.000521,1, 0.162863, 0.018608, 9.805280,1,0
1777934561047,  3707.973,  3707.973,-0.016699,-0.002744,-0.995655,-0.000166,-0.000027,-0.009959,-0.000918,-0.008373, 0.041242,1, 0.000413, 0.000036,-0.000644,1, 0.162838, 0.018554, 9.805281,1,0
1777934561058,  3707.973,  3707.973,-0.016699,-0.002744,-0.995655,-0.000166,-0.000027,-0.009959,-0.000918,-0.008373, 0.041242,1, 0.000413, 0.000036,-0.000644,1, 0.162838, 0.018554, 9.805281,1,0
1777934561069,  3707.998,  3707.993,-0.015750,-0.003005,-0.995169,-0.000156,-0.000030,-0.009956, 0.004222,-0.010868, 0.046234,1,-0.000224, 0.000226,-0.000507,1, 0.162889, 0.018502, 9.805280,1,0
1777934561080,  3707.998,  3707.993,-0.015750,-0.003005,-0.995169,-0.000156,-0.000030,-0.009956, 0.004222,-0.010868, 0.046234,1,-0.000224, 0.000226,-0.000507,1, 0.162889, 0.018502, 9.805280,1,0
1777934561097,  3708.023,  3708.023,-0.016195,-0.002891,-0.995240,-0.000164,-0.000029,-0.009953, 0.004045,-0.009722, 0.045310,1, 0.000021,-0.000486,-0.000213,1, 0.162882, 0.018629, 9.805280,1,0
1777934561107,  3708.023,  3708.023,-0.016195,-0.002891,-0.995240,-0.000164,-0.000029,-0.009953, 0.004045,-0.009722, 0.045310,1, 0.000021,-0.000486,-0.000213,1, 0.162882, 0.018629, 9.805280,1,0
1777934561119,  3708.048,  3708.043,-0.017806,-0.000839,-0.995950,-0.000177,-0.000009,-0.009959,-0.003829, 0.005457, 0.036517,1, 0.000007, 0.000204,-0.000357,1, 0.162925, 0.018586, 9.805279,1,0
1777934561129,  3708.048,  3708.043,-0.017806,-0.000839,-0.995950,-0.000177,-0.000009,-0.009959,-0.003829, 0.005457, 0.036517,1, 0.000007, 0.000204,-0.000357,1, 0.162925, 0.018586, 9.805279,1,0
1777934561147,  3708.073,  3708.073,-0.017489,-0.000870,-0.996568,-0.000176,-0.000006,-0.009963,-0.008608, 0.010135, 0.032283,1, 0.000131, 0.001069,-0.000861,1, 0.162872, 0.018670, 9.805280,1,0
1777934561157,  3708.073,  3708.073,-0.017489,-0.000870,-0.996568,-0.000176,-0.000006,-0.009963,-0.008608, 0.010135, 0.032283,1, 0.000131, 0.001069,-0.000861,1, 0.162872, 0.018670, 9.805280,1,0
1777934561169,  3708.098,  3708.093,-0.016061,-0.000907,-0.995509,-0.000163,-0.000008,-0.009957,-0.001126, 0.017040, 0.036878,1,-0.000269, 0.000252,-0.000174,1, 0.162903, 0.018668, 9.805279,1,0
1777934561179,  3708.098,  3708.093,-0.016061,-0.000907,-0.995509,-0.000163,-0.000008,-0.009957,-0.001126, 0.017040, 0.036878,1,-0.000269, 0.000252,-0.000174,1, 0.162903, 0.018668, 9.805279,1,0
1777934561192,  3708.123,  3708.118,-0.015575,-0.001839,-0.995979,-0.000159,-0.000020,-0.009961, 0.010204, 0.000890, 0.038062,1, 0.000416,-0.000484,-0.000146,1, 0.162961, 0.018935, 9.805278,1,0
1777934561202,  3708.123,  3708.118,-0.015575,-0.001839,-0.995979,-0.000159,-0.000020,-0.009961, 0.010204, 0.000890, 0.038062,1, 0.000416,-0.000484,-0.000146,1, 0.162961, 0.018935, 9.805278,1,0
1777934561218,  3708.148,  3708.143,-0.016466,-0.002446,-0.995273,-0.000163,-0.000024,-0.009950, 0.003350,-0.004603, 0.041611,1, 0.000210, 0.000000,-0.000083,1, 0.163040, 0.018859, 9.805277,1,0
1777934561228,  3708.148,  3708.143,-0.016466,-0.002446,-0.995273,-0.000163,-0.000024,-0.009950, 0.003350,-0.004603, 0.041611,1, 0.000210, 0.000000,-0.000083,1, 0.163040, 0.018859, 9.805277,1,0
1777934561242,  3708.168,  3708.168,-0.017397,-0.002358,-0.995535,-0.000173,-0.000024,-0.009955,-0.007637,-0.004314, 0.042409,1, 0.000414,-0.000639,-0.000056,1, 0.162986, 0.018826, 9.805278,1,0
1777934561252,  3708.168,  3708.168,-0.017397,-0.002358,-0.995535,-0.000173,-0.000024,-0.009955,-0.007637,-0.004314, 0.042409,1, 0.000414,-0.000639,-0.000056,1, 0.162986, 0.018826, 9.805278,1,0
1777934561268,  3708.193,  3708.193,-0.018084,-0.002258,-0.995792,-0.000182,-0.000023,-0.009960,-0.014306,-0.003274, 0.039888,1, 0.000969, 0.000052,-0.000176,1, 0.163033, 0.018903, 9.805277,1,0
1777934561278,  3708.193,  3708.193,-0.018084,-0.002258,-0.995792,-0.000182,-0.000023,-0.009960,-0.014306,-0.003274, 0.039888,1, 0.000969, 0.000052,-0.000176,1, 0.163033, 0.018903, 9.805277,1,0
1777934561290,  3708.218,  3708.213,-0.016909,-0.001505,-0.995594,-0.000171,-0.000014,-0.009957,-0.006302, 0.002632, 0.039936,1,-0.000062,-0.000054,-0.000765,1, 0.163098, 0.018897, 9.805275,1,0
1777934561300,  3708.218,  3708.213,-0.016909,-0.001505,-0.995594,-0.000171,-0.000014,-0.009957,-0.006302, 0.002632, 0.039936,1,-0.000062,-0.000054,-0.000765,1, 0.163098, 0.018897, 9.805275,1,0
1777934561317,  3708.243,  3708.243,-0.015573,-0.000700,-0.995889,-0.000155,-0.000010,-0.009956, 0.010358, 0.012041, 0.038942,1, 0.000332,-0.000021,-0.000910,1, 0.163074, 0.018921, 9.805276,1,0
1777934561328,  3708.243,  3708.243,-0.015573,-0.000700,-0.995889,-0.000155,-0.000010,-0.009956, 0.010358, 0.012041, 0.038942,1, 0.000332,-0.000021,-0.000910,1, 0.163074, 0.018921, 9.805276,1,0
1777934561339,  3708.268,  3708.263,-0.015635,-0.000308,-0.995682,-0.000156,-0.000003,-0.009956, 0.017331, 0.013214, 0.042488,1, 0.000921, 0.000292,-0.000205,1, 0.162967, 0.018963, 9.805278,1,0
1777934561350,  3708.268,  3708.263,-0.015635,-0.000308,-0.995682,-0.000156,-0.000003,-0.009956, 0.017331, 0.013214, 0.042488,1, 0.000921, 0.000292,-0.000205,1, 0.162967, 0.018963, 9.805278,1,0
1777934561367,  3708.293,  3708.293,-0.016331,-0.001765,-0.995850,-0.000164,-0.000016,-0.009960, 0.002920, 0.001731, 0.039320,1,-0.000334,-0.000153, 0.000713,1, 0.163074, 0.019025, 9.805276,1,0
1777934561377,  3708.293,  3708.293,-0.016331,-0.001765,-0.995850,-0.000164,-0.000016,-0.009960, 0.002920, 0.001731, 0.039320,1,-0.000334,-0.000153, 0.000713,1, 0.163074, 0.019025, 9.805276,1,0
1777934561389,  3708.318,  3708.313,-0.018429,-0.001656,-0.996574,-0.000183,-0.000017,-0.009965,-0.015688, 0.001956, 0.042819,1, 0.000195, 0.000338, 0.000065,1, 0.163064, 0.018986, 9.805276,1,0
1777934561399,  3708.318,  3708.313,-0.018429,-0.001656,-0.996574,-0.000183,-0.000017,-0.009965,-0.015688, 0.001956, 0.042819,1, 0.000195, 0.000338, 0.000065,1, 0.163064, 0.018986, 9.805276,1,0
1777934561417,  3708.343,  3708.343,-0.017450,-0.002041,-0.995613,-0.000174,-0.000021,-0.009956,-0.007808,-0.001083, 0.041647,1, 0.000052,-0.000739,-0.000048,1, 0.163351, 0.018921, 9.805271,1,0
1777934561427,  3708.343,  3708.343,-0.017450,-0.002041,-0.995613,-0.000174,-0.000021,-0.009956,-0.007808,-0.001083, 0.041647,1, 0.000052,-0.000739,-0.000048,1, 0.163351, 0.018921, 9.805271,1,0
1777934561439,  3708.368,  3708.363,-0.015947,-0.002638,-0.995406,-0.000158,-0.000026,-0.009953, 0.004938,-0.007903, 0.043388,1, 0.000513, 0.000052,-0.000456,1, 0.163366, 0.018969, 9.805271,1,0
1777934561449,  3708.368,  3708.363,-0.015947,-0.002638,-0.995406,-0.000158,-0.000026,-0.009953, 0.004938,-0.007903, 0.043388,1, 0.000513, 0.000052,-0.000456,1, 0.163366, 0.018969, 9.805271,1,0
1777934561462,  3708.393,  3708.388,-0.015948,-0.002714,-0.995207,-0.000160,-0.000027,-0.009949, 0.007093,-0.007641, 0.045623,1, 0.000231,-0.000099,-0.001085,1, 0.163492, 0.018987, 9.805268,1,0
1777934561472,  3708.393,  3708.388,-0.015948,-0.002714,-0.995207,-0.000160,-0.000027,-0.009949, 0.007093,-0.007641, 0.045623,1, 0.000231,-0.000099,-0.001085,1, 0.163492, 0.018987, 9.805268,1,0
1777934561488,  3708.418,  3708.413,-0.016755,-0.001585,-0.995709,-0.000168,-0.000016,-0.009957,-0.000886, 0.001697, 0.042800,1,-0.000546,-0.000157,-0.000836,1, 0.163511, 0.019040, 9.805268,1,0
1777934561498,  3708.418,  3708.413,-0.016755,-0.001585,-0.995709,-0.000168,-0.000016,-0.009957,-0.000886, 0.001697, 0.042800,1,-0.000546,-0.000157,-0.000836,1, 0.163511, 0.019040, 9.805268,1,0
1777934561512,  3708.438,  3708.438,-0.017563,-0.001239,-0.995865,-0.000177,-0.000012,-0.009959,-0.008769, 0.006779, 0.039169,1,-0.000349,-0.000016,-0.000720,1, 0.163465, 0.018915, 9.805269,1,0
1777934561522,  3708.438,  3708.438,-0.017563,-0.001239,-0.995865,-0.000177,-0.000012,-0.009959,-0.008769, 0.006779, 0.039169,1,-0.000349,-0.000016,-0.000720,1, 0.163465, 0.018915, 9.805269,1,0
1777934561538,  3708.463,  3708.463,-0.017117,-0.000485,-0.995665,-0.000172,-0.000005,-0.009957,-0.004430, 0.014121, 0.041134,1,-0.001098, 0.000056, 0.000129,1, 0.163429, 0.018843, 9.805270,1,0
1777934561548,  3708.463,  3708.463,-0.017117,-0.000485,-0.995665,-0.000172,-0.000005,-0.009957,-0.004430, 0.014121, 0.041134,1,-0.001098, 0.000056, 0.000129,1, 0.163429, 0.018843, 9.805270,1,0
1777934561560,  3708.488,  3708.483,-0.015592,-0.001484,-0.995829,-0.000159,-0.000008,-0.009958, 0.000327, 0.002300, 0.041699,1,-0.000032, 0.000887, 0.000228,1, 0.163441, 0.018797, 9.805270,1,0
1777934561570,  3708.488,  3708.483,-0.015592,-0.001484,-0.995829,-0.000159,-0.000008,-0.009958, 0.000327, 0.002300, 0.041699,1,-0.000032, 0.000887, 0.000228,1, 0.163441, 0.018797, 9.805270,1,0
1777934561588,  3708.513,  3708.513,-0.016168,-0.001817,-0.994730,-0.000165,-0.000016,-0.009950, 0.004948, 0.001025, 0.050301,1, 0.000326, 0.000069,-0.000470,1, 0.163497, 0.018857, 9.805269,1,0
1777934561598,  3708.513,  3708.513,-0.016168,-0.001817,-0.994730,-0.000165,-0.000016,-0.009950, 0.004948, 0.001025, 0.050301,1, 0.000326, 0.000069,-0.000470,1, 0.163497, 0.018857, 9.805269,1,0
1777934561610,  3708.538,  3708.533,-0.016257,-0.001275,-0.996545,-0.000164,-0.000013,-0.009961, 0.011999,-0.000715, 0.028182,1, 0.000354, 0.000473, 0.000438,1, 0.163456, 0.018906, 9.805269,1,0
1777934561620,  3708.538,  3708.533,-0.016257,-0.001275,-0.996545,-0.000164,-0.000013,-0.009961, 0.011999,-0.000715, 0.028182,1, 0.000354, 0.000473, 0.000438,1, 0.163456, 0.018906, 9.805269,1,0
1777934561637,  3708.563,  3708.563,-0.017320,-0.001018,-0.995221,-0.000173,-0.000013,-0.009955,-0.006296, 0.008827, 0.045485,1, 0.000270,-0.000569,-0.000681,1, 0.163568, 0.018815, 9.805267,1,0
1777934561647,  3708.563,  3708.563,-0.017320,-0.001018,-0.995221,-0.000173,-0.000013,-0.009955,-0.006296, 0.008827, 0.045485,1, 0.000270,-0.000569,-0.000681,1, 0.163568, 0.018815, 9.805267,1,0
1777934561659,  3708.588,  3708.583,-0.017387,-0.002624,-0.995320,-0.000177,-0.000025,-0.009951,-0.006057,-0.007369, 0.038118,1,-0.000318,-0.000201, 0.000029,1, 0.163567, 0.018797, 9.805267,1,0
1777934561669,  3708.588,  3708.583,-0.017387,-0.002624,-0.995320,-0.000177,-0.000025,-0.009951,-0.006057,-0.007369, 0.038118,1,-0.000318,-0.000201, 0.000029,1, 0.163567, 0.018797, 9.805267,1,0
1777934561687,  3708.613,  3708.613,-0.016310,-0.002671,-0.995439,-0.000166,-0.000028,-0.009960, 0.003687,-0.007197, 0.043346,1, 0.000216,-0.000284, 0.000012,1, 0.163643, 0.019000, 9.805266,1,0
1777934561697,  3708.613,  3708.613,-0.016310,-0.002671,-0.995439,-0.000166,-0.000028,-0.009960, 0.003687,-0.007197, 0.043346,1, 0.000216,-0.000284, 0.000012,1, 0.163643, 0.019000, 9.805266,1,0
1777934561710,  3708.638,  3708.633,-0.016379,-0.000829,-0.995774,-0.000162,-0.000005,-0.009956, 0.000657, 0.004168, 0.038501,1, 0.000315,-0.000118,-0.000708,1, 0.163663, 0.018995, 9.805265,1,0
1777934561720,  3708.638,  3708.633,-0.016379,-0.000829,-0.995774,-0.000162,-0.000005,-0.009956, 0.000657, 0.004168, 0.038501,1, 0.000315,-0.000118,-0.000708,1, 0.163663, 0.018995, 9.805265,1,0
1777934561732,  3708.663,  3708.658,-0.016885,-0.001503,-0.995696,-0.000169,-0.000013,-0.009959,-0.002046, 0.004208, 0.040829,1,-0.000609, 0.000289,-0.000032,1, 0.163533, 0.018926, 9.805268,1,0
1777934561742,  3708.663,  3708.658,-0.016885,-0.001503,-0.995696,-0.000169,-0.000013,-0.009959,-0.002046, 0.004208, 0.040829,1,-0.000609, 0.000289,-0.000032,1, 0.163533, 0.018926, 9.805268,1,1
1777934561758,  3708.688,  3708.683,-0.016764,-0.002114,-0.995515,-0.000168,-0.000023,-0.009954,-0.002234,-0.000344, 0.039312,1,-0.000002,-0.000544,-0.000250,1, 0.163589, 0.018914, 9.805267,1,1
1777934561768,  3708.688,  3708.683,-0.016764,-0.002114,-0.995515,-0.000168,-0.000023,-0.009954,-0.002234,-0.000344, 0.039312,1,-0.000002,-0.000544,-0.000250,1, 0.163589, 0.018914, 9.805267,1,1
1777934561782,  3708.708,  3708.708,-0.016566,-0.001826,-0.995872,-0.000165,-0.000020,-0.009958, 0.001120, 0.001005, 0.039101,1,-0.000156,-0.000479,-0.000356,1, 0.163593, 0.018908, 9.805267,1,1
1777934561792,  3708.708,  3708.708,-0.016566,-0.001826,-0.995872,-0.000165,-0.000020,-0.009958, 0.001120, 0.001005, 0.039101,1,-0.000156,-0.000479,-0.000356,1, 0.163593, 0.018908, 9.805267,1,1
1777934561808,  3708.733,  3708.733,-0.016638,-0.001383,-0.995961,-0.000167,-0.000015,-0.009961, 0.000422, 0.005347, 0.038222,1, 0.000396, 0.000443,-0.000231,1, 0.163568, 0.018919, 9.805267,1,1
1777934561818,  3708.733,  3708.733,-0.016638,-0.001383,-0.995961,-0.000167,-0.000015,-0.009961, 0.000422, 0.005347, 0.038222,1, 0.000396, 0.000443,-0.000231,1, 0.163568, 0.018919, 9.805267,1,1
1777934561830,  3708.758,  3708.753,-0.016881,-0.000736,-0.996218,-0.000172,-0.000005,-0.009958,-0.004286, 0.012461, 0.044495,1,-0.000083, 0.000149,-0.000191,1, 0.163715, 0.018778, 9.805265,1,1
1777934561840,  3708.758,  3708.753,-0.016881,-0.000736,-0.996218,-0.000172,-0.000005,-0.009958,-0.004286, 0.012461, 0.044495,1,-0.000083, 0.000149,-0.000191,1, 0.163715, 0.018778, 9.805265,1,1
1777934561858,  3708.783,  3708.783,-0.017370,-0.001564,-0.995873,-0.000174,-0.000016,-0.009960,-0.006704, 0.003549, 0.039088,1,-0.000088, 0.000073,-0.000147,1, 0.163634, 0.018889, 9.805266,1,1
1777934561868,  3708.783,  3708.783,-0.017370,-0.001564,-0.995873,-0.000174,-0.000016,-0.009960,-0.006704, 0.003549, 0.039088,1,-0.000088, 0.000073,-0.000147,1, 0.163634, 0.018889, 9.805266,1,1
1777934561880,  3708.808,  3708.803,-0.016715,-0.002616,-0.995677,-0.000165,-0.000025,-0.009958,-0.003775,-0.006245, 0.034900,1,-0.000301,-0.000095,-0.000679,1, 0.163613, 0.018939, 9.805266,1,1
1777934561890,  3708.808,  3708.803,-0.016715,-0.002616,-0.995677,-0.000165,-0.000025,-0.009958,-0.003775,-0.006245, 0.034900,1,-0.000301,-0.000095,-0.000679,1, 0.163613, 0.018939, 9.805266,1,1
1777934561907,  3708.833,  3708.833,-0.016375,-0.002410,-0.995835,-0.000162,-0.000025,-0.009959, 0.003031,-0.004655, 0.039458,1, 0.000285, 0.000126,-0.000553,1, 0.163615, 0.018986, 9.805266,1,1
1777934561917,  3708.833,  3708.833,-0.016375,-0.002410,-0.995835,-0.000162,-0.000025,-0.009959, 0.003031,-0.004655, 0.039458,1, 0.000285, 0.000126,-0.000553,1, 0.163615, 0.018986, 9.805266,1,1
1777934561929,  3708.858,  3708.853,-0.015458,-0.002123,-0.996869,-0.000160,-0.000016,-0.009959, 0.012750, 0.002729, 0.037967,1,-0.000130,-0.000468,-0.000795,1, 0.163683, 0.018983, 9.805265,1,1
1777934561939,  3708.858,  3708.853,-0.015458,-0.002123,-0.996869,-0.000160,-0.000016,-0.009959, 0.012750, 0.002729, 0.037967,1,-0.000130,-0.000468,-0.000795,1, 0.163683, 0.018983, 9.805265,1,1
1777934561957,  3708.883,  3708.883,-0.017021,-0.000684,-0.995258,-0.000168,-0.000004,-0.009959,-0.003288, 0.012175, 0.045117,1, 0.000880,-0.000274,-0.000415,1, 0.163638, 0.018908, 9.805266,1,1
1777934561967,  3708.883,  3708.883,-0.017021,-0.000684,-0.995258,-0.000168,-0.000004,-0.009959,-0.003288, 0.012175, 0.045117,1, 0.000880,-0.000274,-0.000415,1, 0.163638, 0.018908, 9.805266,1,1
1777934561979,  3708.908,  3708.903,-0.017556,-0.001095,-0.996208,-0.000174,-0.000013,-0.009963,-0.010432, 0.005455, 0.037573,1,-0.000587, 0.000143,-0.000073,1, 0.163524, 0.018852, 9.805268,1,1
1777934561989,  3708.908,  3708.903,-0.017556,-0.001095,-0.996208,-0.000174,-0.000013,-0.009963,-0.010432, 0.005455, 0.037573,1,-0.000587, 0.000143,-0.000073,1, 0.163524, 0.018852, 9.805268,1,1
1777934562002,  3708.933,  3708.928,-0.017253,-0.001486,-0.995392,-0.000171,-0.000016,-0.009955,-0.005605, 0.004341, 0.043805,1, 0.000233, 0.000187,-0.000421,1, 0.163582, 0.018924, 9.805267,1,1
1777934562012,  3708.933,  3708.928,-0.017253,-0.001486,-0.995392,-0.000171,-0.000016,-0.009955,-0.005605, 0.004341, 0.043805,1, 0.000233, 0.000187,-0.000421,1, 0.163582, 0.018924, 9.805267,1,1
1777934562028,  3708.958,  3708.953,-0.016340,-0.001631,-0.995505,-0.000161,-0.000016,-0.009958, 0.002705, 0.003127, 0.035564,1,-0.000339, 0.000781,-0.000054,1, 0.163604, 0.018687, 9.805267,1,1
1777934562038,  3708.958,  3708.953,-0.016340,-0.001631,-0.995505,-0.000161,-0.000016,-0.009958, 0.002705, 0.003127, 0.035564,1,-0.000339, 0.000781,-0.000054,1, 0.163604, 0.018687, 9.805267,1,1
1777934562052,  3708.978,  3708.978,-0.016805,-0.002224,-0.992457,-0.000170,-0.000021,-0.009940,-0.001149,-0.003125, 0.072585,1,-0.000369,-0.000508,-0.000083,1, 0.163669, 0.018677, 9.805266,1,1
1777934562062,  3708.978,  3708.978,-0.016805,-0.002224,-0.992457,-0.000170,-0.000021,-0.009940,-0.001149,-0.003125, 0.072585,1,-0.000369,-0.000508,-0.000083,1, 0.163669, 0.018677, 9.805266,1,1
1777934562078,  3709.003,  3709.003,-0.018034,-0.002731,-0.996300,-0.000176,-0.000037,-0.009969,-0.013267,-0.008066, 0.034905,1,-0.000979, 0.000615,-0.000685,1, 0.163570, 0.018687, 9.805268,1,1
1777934562088,  3709.003,  3709.003,-0.018034,-0.002731,-0.996300,-0.000176,-0.000037,-0.009969,-0.013267,-0.008066, 0.034905,1,-0.000979, 0.000615,-0.000685,1, 0.163570, 0.018687, 9.805268,1,1
1777934562100,  3709.028,  3709.023,-0.017135,-0.001627,-0.994488,-0.000161,-0.000016,-0.009967,-0.020817, 0.000856, 0.057578,1, 0.000273, 0.000768,-0.000758,1, 0.163554, 0.018612, 9.805268,1,1
1777934562110,  3709.028,  3709.023,-0.017135,-0.001627,-0.994488,-0.000161,-0.000016,-0.009967,-0.020817, 0.000856, 0.057578,1, 0.000273, 0.000768,-0.000758,1, 0.163554, 0.018612, 9.805268,1,1
1777934562128,  3709.053,  3709.053,-0.017173,-0.000298,-0.995173,-0.000175,-0.000005,-0.009938,-0.004782, 0.015634, 0.045957,1, 0.000259, 0.000194,-0.000505,1, 0.163617, 0.018567, 9.805267,1,1
1777934562138,  3709.053,  3709.053,-0.017173,-0.000298,-0.995173,-0.000175,-0.000005,-0.009938,-0.004782, 0.015634, 0.045957,1, 0.000259, 0.000194,-0.000505,1, 0.163617, 0.018567, 9.805267,1,1
1777934562150,  3709.078,  3709.073,-0.016310,-0.000654,-0.997112,-0.000167,-0.000005,-0.009956, 0.004763, 0.021394, 0.023833,1,-0.000374, 0.000047,-0.000382,1, 0.163503, 0.018531, 9.805269,1,1
1777934562160,  3709.078,  3709.073,-0.016310,-0.000654,-0.997112,-0.000167,-0.000005,-0.009956, 0.004763, 0.021394, 0.023833,1,-0.000374, 0.000047,-0.000382,1, 0.163503, 0.018531, 9.805269,1,1
1777934562177,  3709.103,  3709.103,-0.016753,-0.002159,-0.995693,-0.000165,-0.000022,-0.009961,-0.000851,-0.002589, 0.040860,1, 0.000182, 0.000173,-0.000157,1, 0.163436, 0.018592, 9.805270,1,1
1777934562187,  3709.103,  3709.103,-0.016753,-0.002159,-0.995693,-0.000165,-0.000022,-0.009961,-0.000851,-0.002589, 0.040860,1, 0.000182, 0.000173,-0.000157,1, 0.163436, 0.018592, 9.805270,1,1
1777934562199,  3709.128,  3709.123,-0.017098,-0.000370,-0.995708,-0.000170,-0.000002,-0.009960,-0.002633, 0.008234, 0.039935,1, 0.000031, 0.001037,-0.000803,1, 0.163402, 0.018647, 9.805271,1,1
1777934562209,  3709.128,  3709.123,-0.017098,-0.000370,-0.995708,-0.000170,-0.000002,-0.009960,-0.002633, 0.008234, 0.039935,1, 0.000031, 0.001037,-0.000803,1, 0.163402, 0.018647, 9.805271,1,1
1777934562227,  3709.153,  3709.153,-0.017524,-0.002167,-0.994919,-0.000175,-0.000021,-0.009952,-0.008407,-0.002627, 0.048451,1, 0.000993,-0.000512, 0.000712,1, 0.163457, 0.018652, 9.805270,1,1
1777934562237,  3709.153,  3709.153,-0.017524,-0.002167,-0.994919,-0.000175,-0.000021,-0.009952,-0.008407,-0.002627, 0.048451,1, 0.000993,-0.000512, 0.000712,1, 0.163457, 0.018652, 9.805270,1,1
1777934562249,  3709.178,  3709.173,-0.016709,-0.001814,-0.995831,-0.000170,-0.000017,-0.009958,-0.000648,-0.006064, 0.027663,1, 0.000183, 0.000645, 0.000446,1, 0.163337, 0.018632, 9.805272,1,1
1777934562259,  3709.178,  3709.173,-0.016709,-0.001814,-0.995831,-0.000170,-0.000017,-0.009958,-0.000648,-0.006064, 0.027663,1, 0.000183, 0.000645, 0.000446,1, 0.163337, 0.018632, 9.805272,1,1
1777934562272,  3709.203,  3709.198,-0.016141,-0.000959,-0.995722,-0.000160,-0.000011,-0.009954, 0.004945, 0.009363, 0.040579,1, 0.000170,-0.000036,-0.000004,1, 0.163237, 0.018772, 9.805273,1,1
1777934562282,  3709.203,  3709.198,-0.016141,-0.000959,-0.995722,-0.000160,-0.000011,-0.009954, 0.004945, 0.009363, 0.040579,1, 0.000170,-0.000036,-0.000004,1, 0.163237, 0.018772, 9.805273,1,1
1777934562298,  3709.228,  3709.223,-0.017171,-0.000992,-0.994978,-0.000170,-0.000007,-0.009951, 0.002871, 0.010103, 0.044503,1,-0.000145,-0.000530, 0.000720,1, 0.163297, 0.018879, 9.805272,1,1
1777934562309,  3709.228,  3709.223,-0.017171,-0.000992,-0.994978,-0.000170,-0.000007,-0.009951, 0.002871, 0.010103, 0.044503,1,-0.000145,-0.000530, 0.000720,1, 0.163297, 0.018879, 9.805272,1,1
1777934562322,  3709.248,  3709.248,-0.017045,-0.003307,-0.996571,-0.000173,-0.000033,-0.009966,-0.003948,-0.013490, 0.032254,1, 0.000192, 0.000378, 0.000901,1, 0.163194, 0.018943, 9.805274,1,1
1777934562332,  3709.248,  3709.248,-0.017045,-0.003307,-0.996571,-0.000173,-0.000033,-0.009966,-0.003948,-0.013490, 0.032254,1, 0.000192, 0.000378, 0.000901,1, 0.163194, 0.018943, 9.805274,1,1
1777934562348,  3709.273,  3709.273,-0.017218,-0.003659,-0.994326,-0.000174,-0.000035,-0.009942,-0.005747,-0.016936, 0.054269,1, 0.000463, 0.000016, 0.000267,1, 0.163104, 0.018960, 9.805275,1,1
1777934562358,  3709.273,  3709.273,-0.017218,-0.003659,-0.994326,-0.000174,-0.000035,-0.009942,-0.005747,-0.016936, 0.054269,1, 0.000463, 0.000016, 0.000267,1, 0.163104, 0.018960, 9.805275,1,1
1777934562370,  3709.298,  3709.293,-0.015375,-0.000140,-0.994457,-0.000157,-0.000007,-0.009927, 0.007326,-0.022399, 0.020023,1,-0.000261, 0.000679,-0.000697,1, 0.163034, 0.018894, 9.805277,1,1
1777934562380,  3709.298,  3709.293,-0.015375,-0.000140,-0.994457,-0.000157,-0.000007,-0.009927, 0.007326,-0.022399, 0.020023,1,-0.000261, 0.000679,-0.000697,1, 0.163034, 0.018894, 9.805277,1,1
1777934562398,  3709.323,  3709.323,-0.015058,-0.002577,-0.999709,-0.000152,-0.000017,-0.009998, 0.015201,-0.006216, 0.001481,1,-0.000514, 0.000567, 0.000071,1, 0.162855, 0.019041, 9.805279,1,1
1777934562408,  3709.323,  3709.323,-0.015058,-0.002577,-0.999709,-0.000152,-0.000017,-0.009998, 0.015201,-0.006216, 0.001481,1,-0.000514, 0.000567, 0.000071,1, 0.162855, 0.019041, 9.805279,1,1
1777934562420,  3709.348,  3709.343,-0.018287,-0.000403,-0.995589,-0.000181, 0.000003,-0.009954,-0.015535, 0.021590, 0.068843,1, 0.001397, 0.001037,-0.000324,1, 0.162964, 0.018958, 9.805278,1,1
1777934562430,  3709.348,  3709.343,-0.018287,-0.000403,-0.995589,-0.000181, 0.000003,-0.009954,-0.015535, 0.021590, 0.068843,1, 0.001397, 0.001037,-0.000324,1, 0.162964, 0.018958, 9.805278,1,1
1777934562447,  3709.373,  3709.373,-0.019483,-0.004845,-0.993818,-0.000194,-0.000055,-0.009943,-0.028025,-0.028656, 0.059251,1,-0.001759,-0.000076, 0.000072,1, 0.163044, 0.018798, 9.805277,1,1
1777934562457,  3709.373,  3709.373,-0.019483,-0.004845,-0.993818,-0.000194,-0.000055,-0.009943,-0.028025,-0.028656, 0.059251,1,-0.001759,-0.000076, 0.000072,1, 0.163044, 0.018798, 9.805277,1,1
1777934562469,  3709.398,  3709.393,-0.015090,-0.002260,-0.998913,-0.000151,-0.000033,-0.010000,-0.012114,-0.031567, 0.029182,1, 0.001484, 0.001336,-0.001115,1, 0.162843, 0.019080, 9.805280,1,1
1777934562479,  3709.398,  3709.393,-0.015090,-0.002260,-0.998913,-0.000151,-0.000033,-0.010000,-0.012114,-0.031567, 0.029182,1, 0.001484, 0.001336,-0.001115,1, 0.162843, 0.019080, 9.805280,1,1
1777934562497,  3709.423,  3709.423,-0.014599, 0.000713,-0.992297,-0.000149, 0.000008,-0.009916, 0.019609, 0.025906, 0.074175,1,-0.000001, 0.001265,-0.000450,1, 0.162732, 0.018917, 9.805282,1,1
1777934562507,  3709.423,  3709.423,-0.014599, 0.000713,-0.992297,-0.000149, 0.000008,-0.009916, 0.019609, 0.025906, 0.074175,1,-0.000001, 0.001265,-0.000450,1, 0.162732, 0.018917, 9.805282,1,1
1777934562519,  3709.448,  3709.443,-0.015721, 0.001073,-0.992957,-0.000158, 0.000012,-0.009932, 0.026644, 0.011269, 0.008793,1,-0.001522,-0.000986,-0.000542,1, 0.162854, 0.018894, 9.805280,1,1
1777934562529,  3709.448,  3709.443,-0.015721, 0.001073,-0.992957,-0.000158, 0.000012,-0.009932, 0.026644, 0.011269, 0.008793,1,-0.001522,-0.000986,-0.000542,1, 0.162854, 0.018894, 9.805280,1,1
1777934562542,  3709.473,  3709.468,-0.016115, 0.000134,-0.997806,-0.000164,-0.000001,-0.009968, 0.004884, 0.020239, 0.020146,1, 0.000777, 0.000602, 0.000389,1, 0.162901, 0.018947, 9.805279,1,1
1777934562552,  3709.473,  3709.468,-0.016115, 0.000134,-0.997806,-0.000164,-0.000001,-0.009968, 0.004884, 0.020239, 0.020146,1, 0.000777, 0.000602, 0.000389,1, 0.162901, 0.018947, 9.805279,1,1
1777934562569,  3709.498,  3709.493,-0.016886,-0.002353,-0.995651,-0.000166,-0.000025,-0.009958,-0.015115,-0.007374, 0.056072,1, 0.000919,-0.000075, 0.000637,1, 0.162861, 0.019031, 9.805279,1,1
1777934562579,  3709.498,  3709.493,-0.016886,-0.002353,-0.995651,-0.000166,-0.000025,-0.009958,-0.015115,-0.007374, 0.056072,1, 0.000919,-0.000075, 0.000637,1, 0.162861, 0.019031, 9.805279,1,1
1777934562592,  3709.518,  3709.518,-0.017365,-0.002263,-0.996697,-0.000171,-0.000025,-0.009970,-0.007468,-0.003213, 0.031020,1,-0.000545,-0.000298, 0.000812,1, 0.162837, 0.018967, 9.805280,1,1
1777934562602,  3709.518,  3709.518,-0.017365,-0.002263,-0.996697,-0.000171,-0.000025,-0.009970,-0.007468,-0.003213, 0.031020,1,-0.000545,-0.000298, 0.000812,1, 0.162837, 0.018967, 9.805280,1,1
1777934562618,  3709.548,  3709.543,-0.017580,-0.003820,-0.996646,-0.000180,-0.000039,-0.009971,-0.009916,-0.011811, 0.041985,1, 0.000114,-0.000252,-0.000114,1, 0.163076, 0.018820, 9.805276,1,1
1777934562628,  3709.548,  3709.543,-0.017580,-0.003820,-0.996646,-0.000180,-0.000039,-0.009971,-0.009916,-0.011811, 0.041985,1, 0.000114,-0.000252,-0.000114,1, 0.163076, 0.018820, 9.805276,1,1
1777934562640,  3709.568,  3709.563,-0.017816,-0.002876,-0.994549,-0.000179,-0.000028,-0.009947,-0.006827,-0.013421, 0.043822,1,-0.000732,-0.001140,-0.000459,1, 0.162993, 0.018724, 9.805278,1,1
1777934562650,  3709.568,  3709.563,-0.017816,-0.002876,-0.994549,-0.000179,-0.000028,-0.009947,-0.006827,-0.013421, 0.043822,1,-0.000732,-0.001140,-0.000459,1, 0.162993, 0.018724, 9.805278,1,1
1777934562668,  3709.593,  3709.593,-0.016392,-0.004122,-0.996240,-0.000165,-0.000040,-0.009958, 0.002209,-0.021687, 0.035504,1,-0.000351, 0.000372,-0.000863,1, 0.162950, 0.018727, 9.805278,1,1
1777934562678,  3709.593,  3709.593,-0.016392,-0.004122,-0.996240,-0.000165,-0.000040,-0.009958, 0.002209,-0.021687, 0.035504,1,-0.000351, 0.000372,-0.000863,1, 0.162950, 0.018727, 9.805278,1,1
1777934562690,  3709.618,  3709.613,-0.016611,-0.001533,-0.995947,-0.000164,-0.000019,-0.009951, 0.004844,-0.009461, 0.038556,1, 0.000435, 0.000483,-0.001342,1, 0.162969, 0.018668, 9.805278,1,1
1777934562700,  3709.618,  3709.613,-0.016611,-0.001533,-0.995947,-0.000164,-0.000019,-0.009951, 0.004844,-0.009461, 0.038556,1, 0.000435, 0.000483,-0.001342,1, 0.162969, 0.018668, 9.805278,1,1
1777934562717,  3709.643,  3709.643,-0.016135, 0.002611,-0.995475,-0.000159, 0.000019,-0.009955, 0.004807, 0.044299, 0.043002,1, 0.000391,-0.000916,-0.001495,1, 0.163070, 0.018704, 9.805276,1,1
1777934562728,  3709.643,  3709.643,-0.016135, 0.002611,-0.995475,-0.000159, 0.000019,-0.009955, 0.004807, 0.044299, 0.043002,1, 0.000391,-0.000916,-0.001495,1, 0.163070, 0.018704, 9.805276,1,1
1777934562739,  3709.668,  3709.663,-0.015815, 0.001616,-0.996823,-0.000154, 0.000014,-0.009971, 0.009689, 0.043801, 0.033552,1,-0.000170, 0.001775,-0.000479,1, 0.162965, 0.018721, 9.805278,1,1
1777934562750,  3709.668,  3709.663,-0.015815, 0.001616,-0.996823,-0.000154, 0.000014,-0.009971, 0.009689, 0.043801, 0.033552,1,-0.000170, 0.001775,-0.000479,1, 0.162965, 0.018721, 9.805278,1,1
1777934562767,  3709.693,  3709.693,-0.016086,-0.000612,-0.995241,-0.000160, 0.000001,-0.009952, 0.005184, 0.012583, 0.045302,1, 0.000101, 0.000655, 0.001447,1, 0.162911, 0.018588, 9.805279,1,1
1777934562777,  3709.693,  3709.693,-0.016086,-0.000612,-0.995241,-0.000160, 0.000001,-0.009952, 0.005184, 0.012583, 0.045302,1, 0.000101, 0.000655, 0.001447,1, 0.162911, 0.018588, 9.805279,1,1
1777934562789,  3709.718,  3709.713,-0.018067,-0.005679,-0.993798,-0.000182,-0.000057,-0.009940,-0.011098,-0.025533, 0.043684,1, 0.000004, 0.000568, 0.000288,1, 0.162967, 0.018623, 9.805278,1,1
1777934562799,  3709.718,  3709.713,-0.018067,-0.005679,-0.993798,-0.000182,-0.000057,-0.009940,-0.011098,-0.025533, 0.043684,1, 0.000004, 0.000568, 0.000288,1, 0.162967, 0.018623, 9.805278,1,1
1777934562812,  3709.743,  3709.738,-0.018256,-0.006862,-0.995832,-0.000186,-0.000070,-0.009959,-0.016030,-0.048725, 0.039502,1,-0.000829, 0.001295,-0.000738,1, 0.162969, 0.018541, 9.805278,1,1
1777934562823,  3709.743,  3709.738,-0.018256,-0.006862,-0.995832,-0.000186,-0.000070,-0.009959,-0.016030,-0.048725, 0.039502,1,-0.000829, 0.001295,-0.000738,1, 0.162969, 0.018541, 9.805278,1,1
1777934562839,  3709.768,  3709.763,-0.016456,-0.004213,-0.995297,-0.000166,-0.000044,-0.009948,-0.006736,-0.038765, 0.054493,1,-0.000404,-0.000192,-0.001914,1, 0.163043, 0.018468, 9.805277,1,1
1777934562849,  3709.768,  3709.763,-0.016456,-0.004213,-0.995297,-0.000166,-0.000044,-0.009948,-0.006736,-0.038765, 0.054493,1,-0.000404,-0.000192,-0.001914,1, 0.163043, 0.018468, 9.805277,1,1
1777934562862,  3709.788,  3709.788,-0.015861, 0.000375,-0.996213,-0.000159,-0.000001,-0.009962, 0.007601, 0.022111, 0.035760,1,-0.000670,-0.000081,-0.002630,1, 0.163149, 0.018416, 9.805276,1,1
1777934562872,  3709.788,  3709.788,-0.015861, 0.000375,-0.996213,-0.000159,-0.000001,-0.009962, 0.007601, 0.022111, 0.035760,1,-0.000670,-0.000081,-0.002630,1, 0.163149, 0.018416, 9.805276,1,1
1777934562888,  3709.818,  3709.813,-0.017262, 0.001942,-0.998405,-0.000175, 0.000016,-0.009976,-0.005295, 0.036698, 0.029776,1,-0.000416,-0.000616,-0.001344,1, 0.163210, 0.018404, 9.805275,1,1
1777934562898,  3709.818,  3709.813,-0.017262, 0.001942,-0.998405,-0.000175, 0.000016,-0.009976,-0.005295, 0.036698, 0.029776,1,-0.000416,-0.000616,-0.001344,1, 0.163210, 0.018404, 9.805275,1,1
1777934562910,  3709.838,  3709.833,-0.017667, 0.000317,-0.995680,-0.000176,-0.000007,-0.009959,-0.003874, 0.036302, 0.036279,1,-0.001060,-0.001430,-0.000666,1, 0.163256, 0.018302, 9.805274,1,1
1777934562920,  3709.838,  3709.833,-0.017667, 0.000317,-0.995680,-0.000176,-0.000007,-0.009959,-0.003874, 0.036302, 0.036279,1,-0.001060,-0.001430,-0.000666,1, 0.163256, 0.018302, 9.805274,1,1
1777934562938,  3709.863,  3709.863,-0.016286,-0.000386,-0.994818,-0.000155,-0.000006,-0.009958, 0.003572, 0.014424, 0.049443,1, 0.000500,-0.000730,-0.001578,1, 0.163305, 0.018225, 9.805273,1,1
1777934562948,  3709.863,  3709.863,-0.016286,-0.000386,-0.994818,-0.000155,-0.000006,-0.009958, 0.003572, 0.014424, 0.049443,1, 0.000500,-0.000730,-0.001578,1, 0.163305, 0.018225, 9.805273,1,1
1777934562960,  3709.888,  3709.883,-0.018183,-0.005571,-0.993924,-0.000173,-0.000047,-0.009961,-0.003618, 0.003774, 0.035941,1, 0.000644, 0.000891,-0.001087,1, 0.163228, 0.018352, 9.805274,1,1
1777934562970,  3709.888,  3709.883,-0.018183,-0.005571,-0.993924,-0.000173,-0.000047,-0.009961,-0.003618, 0.003774, 0.035941,1, 0.000644, 0.000891,-0.001087,1, 0.163228, 0.018352, 9.805274,1,1
1777934562988,  3709.913,  3709.913,-0.015150,-0.003430,-0.996020,-0.000161,-0.000037,-0.009947, 0.014793,-0.015449, 0.037654,1,-0.001290, 0.001263,-0.001906,1, 0.163321, 0.018147, 9.805273,1,1
1777934562998,  3709.913,  3709.913,-0.015150,-0.003430,-0.996020,-0.000161,-0.000037,-0.009947, 0.014793,-0.015449, 0.037654,1,-0.001290, 0.001263,-0.001906,1, 0.163321, 0.018147, 9.805273,1,1
1777934563009,  3709.938,  3709.933,-0.016550,-0.001786,-0.993550,-0.000163,-0.000025,-0.009934, 0.022378,-0.007373, 0.018500,1, 0.000217,-0.000550,-0.003058,1, 0.163413, 0.018002, 9.805272,1,1
1777934563020,  3709.938,  3709.933,-0.016550,-0.001786,-0.993550,-0.000163,-0.000025,-0.009934, 0.022378,-0.007373, 0.018500,1, 0.000217,-0.000550,-0.003058,1, 0.163413, 0.018002, 9.805272,1,1
1777934563037,  3709.963,  3709.963,-0.015924,-0.001140,-0.997868,-0.000165,-0.000025,-0.009973, 0.007596, 0.007076, 0.019519,1,-0.001758,-0.000340,-0.001818,1, 0.163764, 0.018200, 9.805265,1,1
1777934563047,  3709.963,  3709.963,-0.015924,-0.001140,-0.997868,-0.000165,-0.000025,-0.009973, 0.007596, 0.007076, 0.019519,1,-0.001758,-0.000340,-0.001818,1, 0.163764, 0.018200, 9.805265,1,1
1777934563059,  3709.988,  3709.983,-0.012720,-0.006188,-0.994431,-0.000132,-0.000068,-0.009932, 0.002942,-0.044534, 0.055652,1,-0.004729,-0.002800,-0.002480,1, 0.164298, 0.017521, 9.805258,1,1
1777934563069,  3709.988,  3709.983,-0.012720,-0.006188,-0.994431,-0.000132,-0.000068,-0.009932, 0.002942,-0.044534, 0.055652,1,-0.004729,-0.002800,-0.002480,1, 0.164298, 0.017521, 9.805258,1,1
1777934563083,  3710.013,  3710.008,-0.008253, 0.011580,-0.992970,-0.000094, 0.000103,-0.009916, 0.083946, 0.130663, 0.067541,1, 0.000561,-0.000047,-0.002579,1, 0.164881, 0.017118, 9.805249,1,1
1777934563093,  3710.013,  3710.008,-0.008253, 0.011580,-0.992970,-0.000094, 0.000103,-0.009916, 0.083946, 0.130663, 0.067541,1, 0.000561,-0.000047,-0.002579,1, 0.164881, 0.017118, 9.805249,1,1
1777934563109,  3710.038,  3710.033,-0.011277, 0.005147,-0.985829,-0.000061,-0.000001,-0.009976, 0.070594, 0.006276, 0.028035,1, 0.005175,-0.000682, 0.007230,1, 0.164774, 0.017432, 9.805250,1,1
1777934563119,  3710.038,  3710.033,-0.011277, 0.005147,-0.985829,-0.000061,-0.000001,-0.009976, 0.070594, 0.006276, 0.028035,1, 0.005175,-0.000682, 0.007230,1, 0.164774, 0.017432, 9.805250,1,1
1777934563132,  3710.058,  3710.058, 0.008126, 0.051524,-1.010943,-0.000071, 0.000338,-0.009878, 0.244950, 0.524211,-0.108723,1, 0.003239, 0.010285, 0.020205,1, 0.164939, 0.019027, 9.805244,1,1
1777934563142,  3710.058,  3710.058, 0.008126, 0.051524,-1.010943,-0.000071, 0.000338,-0.009878, 0.244950, 0.524211,-0.108723,1, 0.003239, 0.010285, 0.020205,1, 0.164939, 0.019027, 9.805244,1,1
1777934563158,  3710.088,  3710.083,-0.002583,-0.001827,-1.014993,-0.000181, 0.000002,-0.009621,-0.040590,-0.221328,-0.234209,1,-0.006678,-0.003922, 0.017892,1, 0.165307, 0.019877, 9.805237,1,1
1777934563168,  3710.088,  3710.083,-0.002583,-0.001827,-1.014993,-0.000181, 0.000002,-0.009621,-0.040590,-0.221328,-0.234209,1,-0.006678,-0.003922, 0.017892,1, 0.165307, 0.019877, 9.805237,1,1
1777934563182,  3710.108,  3710.108,-0.015372,-0.038231,-1.043441,-0.000157,-0.000306,-0.010487, 0.014236,-0.354896,-0.427419,1, 0.000008,-0.010104, 0.011359,1, 0.165303, 0.020015, 9.805236,1,1
1777934563192,  3710.108,  3710.108,-0.015372,-0.038231,-1.043441,-0.000157,-0.000306,-0.010487, 0.014236,-0.354896,-0.427419,1, 0.000008,-0.010104, 0.011359,1, 0.165303, 0.020015, 9.805236,1,1
1777934563208,  3710.133,  3710.133,-0.044806,-0.035209,-0.943032,-0.000394,-0.000338,-0.009719,-0.273132,-0.325799, 0.557234,1, 0.005830, 0.007495, 0.000851,1, 0.166036, 0.019667, 9.805224,1,1
1777934563218,  3710.133,  3710.133,-0.044806,-0.035209,-0.943032,-0.000394,-0.000338,-0.009719,-0.273132,-0.325799, 0.557234,1, 0.005830, 0.007495, 0.000851,1, 0.166036, 0.019667, 9.805224,1,1
1777934563230,  3710.158,  3710.153,-0.042619,-0.008807,-0.974263,-0.000392,-0.000064,-0.009933,-0.031976,-0.253093,-0.177274,1,-0.001573,-0.005492,-0.008463,1, 0.165532, 0.020005, 9.805232,1,1
1777934563240,  3710.158,  3710.153,-0.042619,-0.008807,-0.974263,-0.000392,-0.000064,-0.009933,-0.031976,-0.253093,-0.177274,1,-0.001573,-0.005492,-0.008463,1, 0.165532, 0.020005, 9.805232,1,1
1777934563258,  3710.183,  3710.183,-0.020666, 0.013642,-0.993471,-0.000255, 0.000155,-0.009783,-0.036834, 0.153024, 0.062603,1, 0.005072, 0.002801,-0.008307,1, 0.165744, 0.019409, 9.805230,1,1
1777934563268,  3710.183,  3710.183,-0.020666, 0.013642,-0.993471,-0.000255, 0.000155,-0.009783,-0.036834, 0.153024, 0.062603,1, 0.005072, 0.002801,-0.008307,1, 0.165744, 0.019409, 9.805230,1,1
1777934563280,  3710.208,  3710.203,-0.004479,-0.001832,-0.990072,-0.000079,-0.000001,-0.009837, 0.127045,-0.009089,-0.117661,1,-0.007154,-0.005313,-0.007732,1, 0.165233, 0.018959, 9.805240,1,1
1777934563290,  3710.208,  3710.203,-0.004479,-0.001832,-0.990072,-0.000079,-0.000001,-0.009837, 0.127045,-0.009089,-0.117661,1,-0.007154,-0.005313,-0.007732,1, 0.165233, 0.018959, 9.805240,1,1
1777934563307,  3710.233,  3710.233,-0.000977, 0.006013,-1.003518, 0.000005, 0.000074,-0.010004, 0.156247, 0.076963,-0.035920,1, 0.002573,-0.006939,-0.006920,1, 0.166044, 0.018079, 9.805227,1,1
1777934563317,  3710.233,  3710.233,-0.000977, 0.006013,-1.003518, 0.000005, 0.000074,-0.010004, 0.156247, 0.076963,-0.035920,1, 0.002573,-0.006939,-0.006920,1, 0.166044, 0.018079, 9.805227,1,1
1777934563329,  3710.258,  3710.253,-0.015242, 0.001725,-1.002607,-0.000154, 0.000016,-0.010003, 0.132965, 0.050795, 0.064086,1, 0.001814,-0.001511,-0.003111,1, 0.165846, 0.018029, 9.805231,1,1
1777934563339,  3710.258,  3710.253,-0.015242, 0.001725,-1.002607,-0.000154, 0.000016,-0.010003, 0.132965, 0.050795, 0.064086,1, 0.001814,-0.001511,-0.003111,1, 0.165846, 0.018029, 9.805231,1,1
1777934563353,  3710.283,  3710.278,-0.018301, 0.016290,-0.995306,-0.000166, 0.000164,-0.009977,-0.013185, 0.177619, 0.044602,1, 0.000489,-0.002952, 0.002096,1, 0.166380, 0.017886, 9.805223,1,1
1777934563363,  3710.283,  3710.278,-0.018301, 0.016290,-0.995306,-0.000166, 0.000164,-0.009977,-0.013185, 0.177619, 0.044602,1, 0.000489,-0.002952, 0.002096,1, 0.166380, 0.017886, 9.805223,1,1
1777934563379,  3710.308,  3710.303,-0.022897,-0.002504,-0.990368,-0.000189, 0.000030,-0.009904,-0.051017, 0.114818, 0.031297,1,-0.001514, 0.003940, 0.003484,1, 0.166387, 0.017688, 9.805223,1,1
1777934563389,  3710.308,  3710.303,-0.022897,-0.002504,-0.990368,-0.000189, 0.000030,-0.009904,-0.051017, 0.114818, 0.031297,1,-0.001514, 0.003940, 0.003484,1, 0.166387, 0.017688, 9.805223,1,1
1777934563402,  3710.333,  3710.328,-0.017509,-0.006874,-1.000380,-0.000184,-0.000072,-0.009983,-0.005589,-0.049163,-0.005147,1,-0.001219,-0.001880, 0.003660,1, 0.166173, 0.018209, 9.805225,1,1
1777934563412,  3710.333,  3710.328,-0.017509,-0.006874,-1.000380,-0.000184,-0.000072,-0.009983,-0.005589,-0.049163,-0.005147,1,-0.001219,-0.001880, 0.003660,1, 0.166173, 0.018209, 9.805225,1,1
1777934563428,  3710.358,  3710.353,-0.012085,-0.001104,-0.994714,-0.000124, 0.000019,-0.009943,-0.012095,-0.070774, 0.072941,1, 0.001075, 0.003966, 0.002858,1, 0.166323, 0.017954, 9.805223,1,1
1777934563438,  3710.358,  3710.353,-0.012085,-0.001104,-0.994714,-0.000124, 0.000019,-0.009943,-0.012095,-0.070774, 0.072941,1, 0.001075, 0.003966, 0.002858,1, 0.166323, 0.017954, 9.805223,1,1
1777934563452,  3710.378,  3710.378,-0.018869,-0.011713,-0.990795,-0.000210,-0.000126,-0.009909,-0.018830,-0.096493, 0.088848,1, 0.000026, 0.007520, 0.000648,1, 0.165979, 0.018372, 9.805228,1,1
1777934563462,  3710.378,  3710.378,-0.018869,-0.011713,-0.990795,-0.000210,-0.000126,-0.009909,-0.018830,-0.096493, 0.088848,1, 0.000026, 0.007520, 0.000648,1, 0.165979, 0.018372, 9.805228,1,1
1777934563478,  3710.403,  3710.403,-0.020505,-0.009972,-0.998992,-0.000229,-0.000086,-0.009955,-0.034584,-0.079443, 0.008457,1,-0.001332, 0.000351,-0.001883,1, 0.166489, 0.018306, 9.805220,1,1
1777934563488,  3710.403,  3710.403,-0.020505,-0.009972,-0.998992,-0.000229,-0.000086,-0.009955,-0.034584,-0.079443, 0.008457,1,-0.001332, 0.000351,-0.001883,1, 0.166489, 0.018306, 9.805220,1,1
1777934563500,  3710.428,  3710.423,-0.019823,-0.002080,-0.998367,-0.000193,-0.000041,-0.009978,-0.053310,-0.027676, 0.066100,1, 0.002390, 0.001545,-0.002592,1, 0.166509, 0.018337, 9.805219,1,1
1777934563510,  3710.428,  3710.423,-0.019823,-0.002080,-0.998367,-0.000193,-0.000041,-0.009978,-0.053310,-0.027676, 0.066100,1, 0.002390, 0.001545,-0.002592,1, 0.166509, 0.018337, 9.805219,1,1
1777934563528,  3710.453,  3710.453,-0.019785, 0.002605,-0.995499,-0.000178, 0.000017,-0.009964,-0.027689, 0.043827, 0.042708,1,-0.000646,-0.003325,-0.001566,1, 0.166439, 0.018258, 9.805221,1,1
1777934563538,  3710.453,  3710.453,-0.019785, 0.002605,-0.995499,-0.000178, 0.000017,-0.009964,-0.027689, 0.043827, 0.042708,1,-0.000646,-0.003325,-0.001566,1, 0.166439, 0.018258, 9.805221,1,1
1777934563550,  3710.478,  3710.473,-0.017915, 0.001492,-0.993025,-0.000184, 0.000018,-0.009938, 0.003430, 0.055667, 0.033396,1,-0.001571,-0.004249,-0.000173,1, 0.166227, 0.017980, 9.805224,1,1
1777934563560,  3710.478,  3710.473,-0.017915, 0.001492,-0.993025,-0.000184, 0.000018,-0.009938, 0.003430, 0.055667, 0.033396,1,-0.001571,-0.004249,-0.000173,1, 0.166227, 0.017980, 9.805224,1,1
1777934563577,  3710.503,  3710.503,-0.012582,-0.004355,-0.998878,-0.000131,-0.000039,-0.009975, 0.042590,-0.024499, 0.009583,1, 0.002020, 0.000178,-0.001116,1, 0.165974, 0.018274, 9.805228,1,1
1777934563587,  3710.503,  3710.503,-0.012582,-0.004355,-0.998878,-0.000131,-0.000039,-0.009975, 0.042590,-0.024499, 0.009583,1, 0.002020, 0.000178,-0.001116,1, 0.165974, 0.018274, 9.805228,1,1
1777934563599,  3710.528,  3710.523,-0.013738,-0.001168,-0.993788,-0.000132,-0.000015,-0.009929, 0.045350, 0.008054, 0.046160,1,-0.000454, 0.001232,-0.001023,1, 0.166072, 0.018133, 9.805227,1,1
1777934563609,  3710.528,  3710.523,-0.013738,-0.001168,-0.993788,-0.000132,-0.000015,-0.009929, 0.045350, 0.008054, 0.046160,1,-0.000454, 0.001232,-0.001023,1, 0.166072, 0.018133, 9.805227,1,1
1777934563627,  3710.553,  3710.553,-0.015814,-0.002944,-0.996675,-0.000152,-0.000032,-0.009969, 0.011142,-0.010250, 0.031178,1,-0.001271,-0.000621, 0.000886,1, 0.166249, 0.018588, 9.805223,1,1
1777934563637,  3710.553,  3710.553,-0.015814,-0.002944,-0.996675,-0.000152,-0.000032,-0.009969, 0.011142,-0.010250, 0.031178,1,-0.001271,-0.000621, 0.000886,1, 0.166249, 0.018588, 9.805223,1,1
1777934563649,  3710.578,  3710.573,-0.020058,-0.002690,-0.997142,-0.000200,-0.000025,-0.009966,-0.022348,-0.000219, 0.051797,1,-0.000637,-0.000313,-0.000517,1, 0.166255, 0.018506, 9.805223,1,1
1777934563659,  3710.578,  3710.573,-0.020058,-0.002690,-0.997142,-0.000200,-0.000025,-0.009966,-0.022348,-0.000219, 0.051797,1,-0.000637,-0.000313,-0.000517,1, 0.166255, 0.018506, 9.805223,1,1
1777934563672,  3710.603,  3710.598,-0.019157,-0.002297,-0.996271,-0.000197,-0.000022,-0.009967,-0.021756,-0.004098, 0.035141,1,-0.001215, 0.001319,-0.000499,1, 0.166065, 0.018391, 9.805226,1,1
1777934563682,  3710.603,  3710.598,-0.019157,-0.002297,-0.996271,-0.000197,-0.000022,-0.009967,-0.021756,-0.004098, 0.035141,1,-0.001215, 0.001319,-0.000499,1, 0.166065, 0.018391, 9.805226,1,1
1777934563698,  3710.628,  3710.623,-0.016147,-0.000569,-0.996529,-0.000162,-0.000012,-0.009971,-0.016378, 0.007147, 0.038286,1, 0.001349, 0.002204,-0.000764,1, 0.166166, 0.018545, 9.805224,1,1
1777934563709,  3710.628,  3710.623,-0.016147,-0.000569,-0.996529,-0.000162,-0.000012,-0.009971,-0.016378, 0.007147, 0.038286,1, 0.001349, 0.002204,-0.000764,1, 0.166166, 0.018545, 9.805224,1,1
1777934563722,  3710.648,  3710.648,-0.015800, 0.000224,-0.994689,-0.000160,-0.000001,-0.009948, 0.011286, 0.020705, 0.050656,1,-0.000400, 0.000690,-0.000221,1, 0.166210, 0.018491, 9.805224,1,1
1777934563732,  3710.648,  3710.648,-0.015800, 0.000224,-0.994689,-0.000160,-0.000001,-0.009948, 0.011286, 0.020705, 0.050656,1,-0.000400, 0.000690,-0.000221,1, 0.166210, 0.018491, 9.805224,1,1
1777934563748,  3710.673,  3710.673,-0.016024,-0.000740,-0.995680,-0.000153,-0.000007,-0.009958, 0.009003, 0.011424, 0.040937,1, 0.001037,-0.001471,-0.000398,1, 0.166190, 0.018709, 9.805223,1,1
1777934563758,  3710.673,  3710.673,-0.016024,-0.000740,-0.995680,-0.000153,-0.000007,-0.009958, 0.009003, 0.011424, 0.040937,1, 0.001037,-0.001471,-0.000398,1, 0.166190, 0.018709, 9.805223,1,1
1777934563770,  3710.698,  3710.693,-0.016437,-0.001597,-0.996100,-0.000165,-0.000014,-0.009965, 0.003565, 0.011657, 0.043039,1, 0.000999, 0.000016, 0.000910,1, 0.166152, 0.018749, 9.805224,1,1
1777934563780,  3710.698,  3710.693,-0.016437,-0.001597,-0.996100,-0.000165,-0.000014,-0.009965, 0.003565, 0.011657, 0.043039,1, 0.000999, 0.000016, 0.000910,1, 0.166152, 0.018749, 9.805224,1,1
1777934563798,  3710.723,  3710.723,-0.016568,-0.001576,-0.995736,-0.000162,-0.000015,-0.009959, 0.003693, 0.003475, 0.040391,1, 0.000044,-0.001308, 0.001095,1, 0.166209, 0.018927, 9.805223,1,1
1777934563808,  3710.723,  3710.723,-0.016568,-0.001576,-0.995736,-0.000162,-0.000015,-0.009959, 0.003693, 0.003475, 0.040391,1, 0.000044,-0.001308, 0.001095,1, 0.166209, 0.018927, 9.805223,1,1
1777934563820,  3710.748,  3710.743,-0.018813,-0.003914,-0.995157,-0.000186,-0.000034,-0.009947, 0.001896,-0.013730, 0.044274,1, 0.000366,-0.000791,-0.000044,1, 0.166140, 0.018766, 9.805224,1,1
1777934563830,  3710.748,  3710.743,-0.018813,-0.003914,-0.995157,-0.000186,-0.000034,-0.009947, 0.001896,-0.013730, 0.044274,1, 0.000366,-0.000791,-0.000044,1, 0.166140, 0.018766, 9.805224,1,1
1777934563847,  3710.773,  3710.773,-0.018472,-0.003754,-0.996510,-0.000183,-0.000038,-0.009959,-0.015092,-0.018107, 0.032800,1,-0.000180, 0.000244,-0.000500,1, 0.166045, 0.018702, 9.805226,1,1
1777934563857,  3710.773,  3710.773,-0.018472,-0.003754,-0.996510,-0.000183,-0.000038,-0.009959,-0.015092,-0.018107, 0.032800,1,-0.000180, 0.000244,-0.000500,1, 0.166045, 0.018702, 9.805226,1,1
1777934563869,  3710.798,  3710.793,-0.016588,-0.001970,-0.996421,-0.000167,-0.000017,-0.009960,-0.009794, 0.003710, 0.031282,1, 0.000352, 0.001694,-0.000585,1, 0.166040, 0.018740, 9.805226,1,1
1777934563879,  3710.798,  3710.793,-0.016588,-0.001970,-0.996421,-0.000167,-0.000017,-0.009960,-0.009794, 0.003710, 0.031282,1, 0.000352, 0.001694,-0.000585,1, 0.166040, 0.018740, 9.805226,1,1
1777934563897,  3710.823,  3710.823,-0.015420,-0.001852,-0.995670,-0.000153,-0.000017,-0.009956, 0.014777, 0.000523, 0.041037,1,-0.000188, 0.000615,-0.000441,1, 0.165972, 0.018681, 9.805227,1,1
1777934563907,  3710.823,  3710.823,-0.015420,-0.001852,-0.995670,-0.000153,-0.000017,-0.009956, 0.014777, 0.000523, 0.041037,1,-0.000188, 0.000615,-0.000441,1, 0.165972, 0.018681, 9.805227,1,1
1777934563919,  3710.848,  3710.843,-0.016645,-0.002093,-0.996126,-0.000167,-0.000020,-0.009962, 0.007586,-0.001068, 0.045484,1, 0.000642,-0.000766,-0.000129,1, 0.166100, 0.018745, 9.805225,1,1
1777934563929,  3710.848,  3710.843,-0.016645,-0.002093,-0.996126,-0.000167,-0.000020,-0.009962, 0.007586,-0.001068, 0.045484,1, 0.000642,-0.000766,-0.000129,1, 0.166100, 0.018745, 9.805225,1,1
1777934563942,  3710.873,  3710.868,-0.017483,-0.001796,-0.995591,-0.000173,-0.000019,-0.009957,-0.005442, 0.001146, 0.041811,1,-0.000257,-0.000212,-0.000070,1, 0.166015, 0.018752, 9.805226,1,1
1777934563952,  3710.873,  3710.868,-0.017483,-0.001796,-0.995591,-0.000173,-0.000019,-0.009957,-0.005442, 0.001146, 0.041811,1,-0.000257,-0.000212,-0.000070,1, 0.166015, 0.018752, 9.805226,1,1
1777934563968,  3710.898,  3710.893,-0.017431,-0.000604,-0.996589,-0.000178,-0.000006,-0.009967,-0.012238, 0.009419, 0.036060,1, 0.000533, 0.000578, 0.000009,1, 0.165961, 0.018915, 9.805227,1,1
1777934563979,  3710.898,  3710.893,-0.017431,-0.000604,-0.996589,-0.000178,-0.000006,-0.009967,-0.012238, 0.009419, 0.036060,1, 0.000533, 0.000578, 0.000009,1, 0.165961, 0.018915, 9.805227,1,1
1777934563992,  3710.918,  3710.918,-0.016942,-0.000964,-0.995528,-0.000172,-0.000008,-0.009955,-0.000186, 0.009475, 0.042431,1, 0.000171, 0.001011, 0.000010,1, 0.165923, 0.018931, 9.805228,1,1
1777934564002,  3710.918,  3710.918,-0.016942,-0.000964,-0.995528,-0.000172,-0.000008,-0.009955,-0.000186, 0.009475, 0.042431,1, 0.000171, 0.001011, 0.000010,1, 0.165923, 0.018931, 9.805228,1,1
1777934564018,  3710.943,  3710.943,-0.015500,-0.000851,-0.996473,-0.000154,-0.000010,-0.009967, 0.014017, 0.010652, 0.033162,1,-0.000203,-0.001423, 0.000058,1, 0.166085, 0.018991, 9.805225,1,1
1777934564028,  3710.943,  3710.943,-0.015500,-0.000851,-0.996473,-0.000154,-0.000010,-0.009967, 0.014017, 0.010652, 0.033162,1,-0.000203,-0.001423, 0.000058,1, 0.166085, 0.018991, 9.805225,1,1
1777934564040,  3710.968,  3710.963,-0.016165,-0.002438,-0.996591,-0.000160,-0.000025,-0.009966, 0.012884, 0.002182, 0.045799,1, 0.000320, 0.000100, 0.000681,1, 0.166139, 0.019001, 9.805224,1,1
1777934564050,  3710.968,  3710.963,-0.016165,-0.002438,-0.996591,-0.000160,-0.000025,-0.009966, 0.012884, 0.002182, 0.045799,1, 0.000320, 0.000100, 0.000681,1, 0.166139, 0.019001, 9.805224,1,1
1777934564068,  3710.993,  3710.993,-0.017571,-0.003586,-0.995701,-0.000172,-0.000031,-0.009957,-0.006013,-0.016209, 0.040734,1,-0.000045,-0.000546, 0.000206,1, 0.166319, 0.018959, 9.805222,1,1
1777934564078,  3710.993,  3710.993,-0.017571,-0.003586,-0.995701,-0.000172,-0.000031,-0.009957,-0.006013,-0.016209, 0.040734,1,-0.000045,-0.000546, 0.000206,1, 0.166319, 0.018959, 9.805222,1,1
1777934564090,  3711.018,  3711.013,-0.020012,-0.002764,-0.995020,-0.000205,-0.000028,-0.009945,-0.015383,-0.014792, 0.029795,1, 0.000358, 0.000729,-0.000286,1, 0.166246, 0.019001, 9.805223,1,1
1777934564100,  3711.018,  3711.013,-0.020012,-0.002764,-0.995020,-0.000205,-0.000028,-0.009945,-0.015383,-0.014792, 0.029795,1, 0.000358, 0.000729,-0.000286,1, 0.166246, 0.019001, 9.805223,1,1
1777934564117,  3711.043,  3711.043,-0.017679,-0.001918,-0.996575,-0.000179,-0.000016,-0.009967,-0.007172, 0.000169, 0.032162,1,-0.000427, 0.000266,-0.001000,1, 0.166190, 0.018967, 9.805223,1,1
1777934564128,  3711.043,  3711.043,-0.017679,-0.001918,-0.996575,-0.000179,-0.000016,-0.009967,-0.007172, 0.000169, 0.032162,1,-0.000427, 0.000266,-0.001000,1, 0.166190, 0.018967, 9.805223,1,1
1777934564139,  3711.068,  3711.063,-0.015442,-0.000709,-0.996253,-0.000155,-0.000009,-0.009966, 0.004520, 0.007657, 0.037520,1, 0.000064, 0.000944,-0.000263,1, 0.166108, 0.018980, 9.805224,1,1
1777934564149,  3711.068,  3711.063,-0.015442,-0.000709,-0.996253,-0.000155,-0.000009,-0.009966, 0.004520, 0.007657, 0.037520,1, 0.000064, 0.000944,-0.000263,1, 0.166108, 0.018980, 9.805224,1,1
1777934564167,  3711.093,  3711.093,-0.014679,-0.001708,-0.995466,-0.000144,-0.000020,-0.009957, 0.022287, 0.002155, 0.043035,1,-0.000672, 0.000323,-0.000654,1, 0.166231, 0.018884, 9.805223,1,1
1777934564177,  3711.093,  3711.093,-0.014679,-0.001708,-0.995466,-0.000144,-0.000020,-0.009957, 0.022287, 0.002155, 0.043035,1,-0.000672, 0.000323,-0.000654,1, 0.166231, 0.018884, 9.805223,1,1
1777934564189,  3711.118,  3711.113,-0.016305,-0.001417,-0.996161,-0.000156,-0.000016,-0.009964, 0.013831, 0.008718, 0.042845,1, 0.000270,-0.000023,-0.000437,1, 0.166315, 0.018930, 9.805222,1,1
1777934564199,  3711.118,  3711.113,-0.016305,-0.001417,-0.996161,-0.000156,-0.000016,-0.009964, 0.013831, 0.008718, 0.042845,1, 0.000270,-0.000023,-0.000437,1, 0.166315, 0.018930, 9.805222,1,1
1777934564212,  3711.143,  3711.138,-0.018765,-0.002170,-0.995949,-0.000189,-0.000021,-0.009956,-0.017868,-0.002220, 0.038295,1, 0.000429, 0.000302, 0.000311,1, 0.166131, 0.019073, 9.805224,1,1
1777934564222,  3711.143,  3711.138,-0.018765,-0.002170,-0.995949,-0.000189,-0.000021,-0.009956,-0.017868,-0.002220, 0.038295,1, 0.000429, 0.000302, 0.000311,1, 0.166131, 0.019073, 9.805224,1,1
1777934564238,  3711.168,  3711.163,-0.018217,-0.002435,-0.996514,-0.000186,-0.000022,-0.009964,-0.019378, 0.002677, 0.034849,1, 0.000204,-0.000340, 0.000397,1, 0.166132, 0.019183, 9.805223,1,1
1777934564249,  3711.168,  3711.163,-0.018217,-0.002435,-0.996514,-0.000186,-0.000022,-0.009964,-0.019378, 0.002677, 0.034849,1, 0.000204,-0.000340, 0.000397,1, 0.166132, 0.019183, 9.805223,1,1
1777934564262,  3711.188,  3711.188,-0.016372,-0.003445,-0.995513,-0.000167,-0.000035,-0.009956, 0.005460,-0.014726, 0.042579,1, 0.000167, 0.000745,-0.001001,1, 0.165988, 0.019060, 9.805226,1,1
1777934564272,  3711.188,  3711.188,-0.016372,-0.003445,-0.995513,-0.000167,-0.000035,-0.009956, 0.005460,-0.014726, 0.042579,1, 0.000167, 0.000745,-0.001001,1, 0.165988, 0.019060, 9.805226,1,1
1777934564288,  3711.213,  3711.213,-0.015982,-0.002520,-0.995545,-0.000159,-0.000025,-0.009954, 0.009237,-0.005673, 0.042269,1,-0.000305, 0.000093,-0.000607,1, 0.165962, 0.019030, 9.805227,1,1
1777934564298,  3711.213,  3711.213,-0.015982,-0.002520,-0.995545,-0.000159,-0.000025,-0.009954, 0.009237,-0.005673, 0.042269,1,-0.000305, 0.000093,-0.000607,1, 0.165962, 0.019030, 9.805227,1,1
1777934564310,  3711.238,  3711.233,-0.017555,-0.001544,-0.996184,-0.000172,-0.000014,-0.009962, 0.000317, 0.006541, 0.032435,1, 0.000294, 0.001076, 0.000505,1, 0.165857, 0.019058, 9.805229,1,1
1777934564320,  3711.238,  3711.233,-0.017555,-0.001544,-0.996184,-0.000172,-0.000014,-0.009962, 0.000317, 0.006541, 0.032435,1, 0.000294, 0.001076, 0.000505,1, 0.165857, 0.019058, 9.805229,1,1
1777934564338,  3711.263,  3711.263,-0.019306,-0.001133,-0.995925,-0.000195,-0.000010,-0.009956,-0.023551, 0.007858, 0.038546,1, 0.000634, 0.000618,-0.000819,1, 0.165755, 0.018985, 9.805231,1,1
1777934564348,  3711.263,  3711.263,-0.019306,-0.001133,-0.995925,-0.000195,-0.000010,-0.009956,-0.023551, 0.007858, 0.038546,1, 0.000634, 0.000618,-0.000819,1, 0.165755, 0.018985, 9.805231,1,1
1777934564360,  3711.288,  3711.283,-0.017406,-0.002521,-0.994858,-0.000176,-0.000024,-0.009946,-0.015669, 0.002938, 0.038650,1, 0.000446,-0.000195,-0.001113,1, 0.165737, 0.019075, 9.805231,1,1
1777934564370,  3711.288,  3711.283,-0.017406,-0.002521,-0.994858,-0.000176,-0.000024,-0.009946,-0.015669, 0.002938, 0.038650,1, 0.000446,-0.000195,-0.001113,1, 0.165737, 0.019075, 9.805231,1,1
1777934564387,  3711.313,  3711.313,-0.015153,-0.001359,-0.996488,-0.000150,-0.000017,-0.009964, 0.017069, 0.005728, 0.033017,1, 0.000133,-0.000126,-0.000492,1, 0.165676, 0.019063, 9.805232,1,1
1777934564397,  3711.313,  3711.313,-0.015153,-0.001359,-0.996488,-0.000150,-0.000017,-0.009964, 0.017069, 0.005728, 0.033017,1, 0.000133,-0.000126,-0.000492,1, 0.165676, 0.019063, 9.805232,1,1
1777934564409,  3711.338,  3711.333,-0.014372,-0.001328,-0.996097,-0.000143,-0.000010,-0.009960, 0.025771, 0.016395, 0.039721,1,-0.000789, 0.000524, 0.000410,1, 0.165651, 0.019031, 9.805232,1,1
1777934564419,  3711.338,  3711.333,-0.014372,-0.001328,-0.996097,-0.000143,-0.000010,-0.009960, 0.025771, 0.016395, 0.039721,1,-0.000789, 0.000524, 0.000410,1, 0.165651, 0.019031, 9.805232,1,1
1777934564437,  3711.363,  3711.363,-0.017620,-0.002352,-0.995209,-0.000176,-0.000024,-0.009951,-0.006832,-0.004160, 0.045558,1, 0.000565,-0.000803, 0.000067,1, 0.165985, 0.018919, 9.805227,1,1
1777934564447,  3711.363,  3711.363,-0.017620,-0.002352,-0.995209,-0.000176,-0.000024,-0.009951,-0.006832,-0.004160, 0.045558,1, 0.000565,-0.000803, 0.000067,1, 0.165985, 0.018919, 9.805227,1,1
1777934564459,  3711.388,  3711.383,-0.018510,-0.004548,-0.994913,-0.000186,-0.000047,-0.009954,-0.018454,-0.020546, 0.034284,1, 0.000225,-0.000636,-0.000301,1, 0.166053, 0.019006, 9.805225,1,1
1777934564469,  3711.388,  3711.383,-0.018510,-0.004548,-0.994913,-0.000186,-0.000047,-0.009954,-0.018454,-0.020546, 0.034284,1, 0.000225,-0.000636,-0.000301,1, 0.166053, 0.019006, 9.805225,1,1
1777934564482,  3711.413,  3711.408,-0.016903,-0.002365,-0.996148,-0.000170,-0.000024,-0.009956, 0.000289,-0.004215, 0.036349,1, 0.000103, 0.000032,-0.000787,1, 0.166047, 0.018981, 9.805225,1,1
1777934564492,  3711.413,  3711.408,-0.016903,-0.002365,-0.996148,-0.000170,-0.000024,-0.009956, 0.000289,-0.004215, 0.036349,1, 0.000103, 0.000032,-0.000787,1, 0.166047, 0.018981, 9.805225,1,1
1777934564509,  3711.438,  3711.433,-0.018091,-0.000418,-0.994888,-0.000182,-0.000006,-0.009946,-0.012434, 0.010078, 0.047041,1,-0.000284, 0.000711,-0.000440,1, 0.165963, 0.018897, 9.805227,1,1
1777934564519,  3711.438,  3711.433,-0.018091,-0.000418,-0.994888,-0.000182,-0.000006,-0.009946,-0.012434, 0.010078, 0.047041,1,-0.000284, 0.000711,-0.000440,1, 0.165963, 0.018897, 9.805227,1,1
1777934564532,  3711.458,  3711.458,-0.016993,-0.001781,-0.997798,-0.000169,-0.000016,-0.009978,-0.000804, 0.001441, 0.020175,1,-0.000749, 0.000150,-0.000642,1, 0.165838, 0.018883, 9.805229,1,1
1777934564542,  3711.458,  3711.458,-0.016993,-0.001781,-0.997798,-0.000169,-0.000016,-0.009978,-0.000804, 0.001441, 0.020175,1,-0.000749, 0.000150,-0.000642,1, 0.165838, 0.018883, 9.805229,1,1
1777934564558,  3711.483,  3711.483,-0.015255,-0.001768,-0.993799,-0.000153,-0.000019,-0.009939, 0.016251, 0.001448, 0.059389,1,-0.000034,-0.000586,-0.001075,1, 0.165873, 0.018787, 9.805229,1,1
1777934564568,  3711.483,  3711.483,-0.015255,-0.001768,-0.993799,-0.000153,-0.000019,-0.009939, 0.016251, 0.001448, 0.059389,1,-0.000034,-0.000586,-0.001075,1, 0.165873, 0.018787, 9.805229,1,1
1777934564580,  3711.508,  3711.503,-0.016316, 0.001360,-0.993209,-0.000159, 0.000010,-0.009939, 0.025915,-0.000684, 0.037394,1,-0.000891,-0.000927,-0.001186,1, 0.165819, 0.018797, 9.805230,1,1
1777934564590,  3711.508,  3711.503,-0.016316, 0.001360,-0.993209,-0.000159, 0.000010,-0.009939, 0.025915,-0.000684, 0.037394,1,-0.000891,-0.000927,-0.001186,1, 0.165819, 0.018797, 9.805230,1,1
1777934564608,  3711.533,  3711.533,-0.016150, 0.000940,-0.998480,-0.000167, 0.000012,-0.009977, 0.007402, 0.028157, 0.013481,1, 0.000796, 0.001083,-0.000012,1, 0.165745, 0.018963, 9.805231,1,1
1777934564618,  3711.533,  3711.533,-0.016150, 0.000940,-0.998480,-0.000167, 0.000012,-0.009977, 0.007402, 0.028157, 0.013481,1, 0.000796, 0.001083,-0.000012,1, 0.165745, 0.018963, 9.805231,1,1
1777934564630,  3711.558,  3711.553,-0.017766,-0.000718,-0.996718,-0.000182,-0.000007,-0.009966,-0.032220, 0.020682, 0.050019,1,-0.000041, 0.000291, 0.000919,1, 0.165871, 0.018848, 9.805229,1,1
1777934564640,  3711.558,  3711.553,-0.017766,-0.000718,-0.996718,-0.000182,-0.000007,-0.009966,-0.032220, 0.020682, 0.050019,1,-0.000041, 0.000291, 0.000919,1, 0.165871, 0.018848, 9.805229,1,1
1777934564657,  3711.583,  3711.583,-0.018049,-0.002180,-0.993706,-0.000180,-0.000024,-0.009942,-0.011171,-0.002405, 0.060303,1, 0.000393, 0.000029,-0.000071,1, 0.165833, 0.018987, 9.805229,1,1
1777934564668,  3711.583,  3711.583,-0.018049,-0.002180,-0.993706,-0.000180,-0.000024,-0.009942,-0.011171,-0.002405, 0.060303,1, 0.000393, 0.000029,-0.000071,1, 0.165833, 0.018987, 9.805229,1,1
1777934564680,  3711.608,  3711.603,-0.016756,-0.005970,-0.996728,-0.000167,-0.000059,-0.009974,-0.006011,-0.039815, 0.032835,1, 0.000781, 0.000952, 0.000169,1, 0.165693, 0.019308, 9.805231,1,1
1777934564690,  3711.608,  3711.603,-0.016756,-0.005970,-0.996728,-0.000167,-0.000059,-0.009974,-0.006011,-0.039815, 0.032835,1, 0.000781, 0.000952, 0.000169,1, 0.165693, 0.019308, 9.805231,1,1
1777934564707,  3711.633,  3711.633,-0.016798,-0.005594,-0.992652,-0.000166,-0.000056,-0.009929, 0.001045,-0.035770, 0.070637,1,-0.000222, 0.000659,-0.001476,1, 0.165753, 0.019078, 9.805230,1,1
1777934564717,  3711.633,  3711.633,-0.016798,-0.005594,-0.992652,-0.000166,-0.000056,-0.009929, 0.001045,-0.035770, 0.070637,1,-0.000222, 0.000659,-0.001476,1, 0.165753, 0.019078, 9.805230,1,1
1777934564729,  3711.658,  3711.653,-0.015718,-0.001289,-0.994765,-0.000154,-0.000010,-0.009955, 0.023511,-0.015142, 0.044260,1,-0.000399,-0.001405,-0.002205,1, 0.165909, 0.019059, 9.805228,1,1
1777934564739,  3711.658,  3711.653,-0.015718,-0.001289,-0.994765,-0.000154,-0.000010,-0.009955, 0.023511,-0.015142, 0.044260,1,-0.000399,-0.001405,-0.002205,1, 0.165909, 0.019059, 9.805228,1,1
1777934564752,  3711.683,  3711.678,-0.016662, 0.001836,-0.997262,-0.000163, 0.000022,-0.009973, 0.002422, 0.037067, 0.025430,1,-0.000595,-0.000774,-0.001616,1, 0.165841, 0.019045, 9.805229,1,1
1777934564763,  3711.683,  3711.678,-0.016662, 0.001836,-0.997262,-0.000163, 0.000022,-0.009973, 0.002422, 0.037067, 0.025430,1,-0.000595,-0.000774,-0.001616,1, 0.165841, 0.019045, 9.805229,1,1
1777934564778,  3711.708,  3711.703,-0.019107, 0.002064,-0.995614,-0.000191, 0.000023,-0.009954,-0.017154, 0.051859, 0.035893,1, 0.000009, 0.000496, 0.000517,1, 0.165918, 0.018958, 9.805228,1,1
1777934564789,  3711.708,  3711.703,-0.019107, 0.002064,-0.995614,-0.000191, 0.000023,-0.009954,-0.017154, 0.051859, 0.035893,1, 0.000009, 0.000496, 0.000517,1, 0.165918, 0.018958, 9.805228,1,1
1777934564802,  3711.728,  3711.728,-0.017328,-0.001088,-0.996079,-0.000175,-0.000008,-0.009961,-0.004122, 0.008358, 0.037031,1, 0.000354, 0.000121, 0.000973,1, 0.165803, 0.019035, 9.805230,1,1
1777934564812,  3711.728,  3711.728,-0.017328,-0.001088,-0.996079,-0.000175,-0.000008,-0.009961,-0.004122, 0.008358, 0.037031,1, 0.000354, 0.000121, 0.000973,1, 0.165803, 0.019035, 9.805230,1,1
1777934564828,  3711.753,  3711.753,-0.015781,-0.003559,-0.995706,-0.000160,-0.000032,-0.009952, 0.011124,-0.016013, 0.040690,1, 0.000437, 0.000552, 0.000521,1, 0.165870, 0.018900, 9.805229,1,1
1777934564838,  3711.753,  3711.753,-0.015781,-0.003559,-0.995706,-0.000160,-0.000032,-0.009952, 0.011124,-0.016013, 0.040690,1, 0.000437, 0.000552, 0.000521,1, 0.165870, 0.018900, 9.805229,1,1
1777934564850,  3711.778,  3711.773,-0.015869,-0.005393,-0.995308,-0.000159,-0.000052,-0.009951, 0.007418,-0.034485, 0.050895,1, 0.000443,-0.000214, 0.000370,1, 0.165896, 0.018931, 9.805228,1,1
1777934564860,  3711.778,  3711.773,-0.015869,-0.005393,-0.995308,-0.000159,-0.000052,-0.009951, 0.007418,-0.034485, 0.050895,1, 0.000443,-0.000214, 0.000370,1, 0.165896, 0.018931, 9.805228,1,1
1777934564878,  3711.803,  3711.803,-0.016772,-0.004066,-0.995975,-0.000169,-0.000042,-0.009959, 0.001388,-0.020891, 0.038044,1,-0.000188, 0.000584,-0.000938,1, 0.165844, 0.018974, 9.805229,1,1
1777934564888,  3711.803,  3711.803,-0.016772,-0.004066,-0.995975,-0.000169,-0.000042,-0.009959, 0.001388,-0.020891, 0.038044,1,-0.000188, 0.000584,-0.000938,1, 0.165844, 0.018974, 9.805229,1,1
1777934564900,  3711.828,  3711.823,-0.017998,-0.000289,-0.996522,-0.000181,-0.000004,-0.009967,-0.006319, 0.011310, 0.042377,1, 0.000041,-0.000351,-0.000913,1, 0.165975, 0.018861, 9.805227,1,1
1777934564910,  3711.828,  3711.823,-0.017998,-0.000289,-0.996522,-0.000181,-0.000004,-0.009967,-0.006319, 0.011310, 0.042377,1, 0.000041,-0.000351,-0.000913,1, 0.165975, 0.018861, 9.805227,1,1
1777934564927,  3711.853,  3711.853,-0.018321, 0.000569,-0.996124,-0.000185, 0.000003,-0.009961,-0.013761, 0.024399, 0.036587,1, 0.000173,-0.000162,-0.000775,1, 0.165915, 0.018830, 9.805228,1,1
1777934564937,  3711.853,  3711.853,-0.018321, 0.000569,-0.996124,-0.000185, 0.000003,-0.009961,-0.013761, 0.024399, 0.036587,1, 0.000173,-0.000162,-0.000775,1, 0.165915, 0.018830, 9.805228,1,1
1777934564949,  3711.878,  3711.873,-0.017525,-0.001373,-0.996410,-0.000174,-0.000012,-0.009964,-0.020559, 0.011920, 0.033613,1, 0.000270, 0.000203, 0.000277,1, 0.165899, 0.018866, 9.805228,1,1
1777934564959,  3711.878,  3711.873,-0.017525,-0.001373,-0.996410,-0.000174,-0.000012,-0.009964,-0.020559, 0.011920, 0.033613,1, 0.000270, 0.000203, 0.000277,1, 0.165899, 0.018866, 9.805228,1,1
1777934564977,  3711.903,  3711.903,-0.016975,-0.001541,-0.995444,-0.000167,-0.000014,-0.009956,-0.000620, 0.003792, 0.043254,1, 0.000373, 0.000130, 0.000340,1, 0.165847, 0.018915, 9.805229,1,1
1777934564987,  3711.903,  3711.903,-0.016975,-0.001541,-0.995444,-0.000167,-0.000014,-0.009956,-0.000620, 0.003792, 0.043254,1, 0.000373, 0.000130, 0.000340,1, 0.165847, 0.018915, 9.805229,1,1
1777934564999,  3711.928,  3711.923,-0.014719,-0.003008,-0.994593,-0.000150,-0.000029,-0.009947, 0.022704,-0.009023, 0.036699,1,-0.000276,-0.000772,-0.000153,1, 0.165825, 0.018911, 9.805230,1,1
1777934565009,  3711.928,  3711.923,-0.014719,-0.003008,-0.994593,-0.000150,-0.000029,-0.009947, 0.022704,-0.009023, 0.036699,1,-0.000276,-0.000772,-0.000153,1, 0.165825, 0.018911, 9.805230,1,1
1777934565022,  3711.948,  3711.948,-0.015626,-0.003200,-0.996295,-0.000157,-0.000031,-0.009962, 0.012687,-0.012449, 0.034908,1,-0.000130,-0.000309,-0.000178,1, 0.165932, 0.018933, 9.805228,1,1
1777934565032,  3711.948,  3711.948,-0.015626,-0.003200,-0.996295,-0.000157,-0.000031,-0.009962, 0.012687,-0.012449, 0.034908,1,-0.000130,-0.000309,-0.000178,1, 0.165932, 0.018933, 9.805228,1,1
1777934565049,  3711.978,  3711.973,-0.018256,-0.001001,-0.995434,-0.000180,-0.000012,-0.009954, 0.000742,-0.000036, 0.046330,1, 0.000307, 0.000258,-0.000051,1, 0.165895, 0.019070, 9.805228,1,1
1777934565059,  3711.978,  3711.973,-0.018256,-0.001001,-0.995434,-0.000180,-0.000012,-0.009954, 0.000742,-0.000036, 0.046330,1, 0.000307, 0.000258,-0.000051,1, 0.165895, 0.019070, 9.805228,1,1
1777934565072,  3711.998,  3711.998,-0.019592,-0.000068,-0.996319,-0.000193,-0.000003,-0.009965,-0.026263, 0.018366, 0.034678,1,-0.000807,-0.000238,-0.000475,1, 0.165878, 0.019011, 9.805228,1,1
1777934565082,  3711.998,  3711.998,-0.019592,-0.000068,-0.996319,-0.000193,-0.000003,-0.009965,-0.026263, 0.018366, 0.034678,1,-0.000807,-0.000238,-0.000475,1, 0.165878, 0.019011, 9.805228,1,1
1777934565098,  3712.028,  3712.023,-0.018296,-0.001715,-0.994868,-0.000185,-0.000016,-0.009946,-0.014731, 0.003161, 0.043222,1,-0.000755,-0.001503,-0.000641,1, 0.165976, 0.018884, 9.805227,1,1
1777934565108,  3712.028,  3712.023,-0.018296,-0.001715,-0.994868,-0.000185,-0.000016,-0.009946,-0.014731, 0.003161, 0.043222,1,-0.000755,-0.001503,-0.000641,1, 0.165976, 0.018884, 9.805227,1,1
1777934565120,  3712.048,  3712.043,-0.015361,-0.002348,-0.998158,-0.000157,-0.000023,-0.009974,-0.004906, 0.008156, 0.036294,1, 0.000276, 0.000682,-0.000734,1, 0.165870, 0.018973, 9.805229,1,1
1777934565130,  3712.048,  3712.043,-0.015361,-0.002348,-0.998158,-0.000157,-0.000023,-0.009974,-0.004906, 0.008156, 0.036294,1, 0.000276, 0.000682,-0.000734,1, 0.165870, 0.018973, 9.805229,1,1
1777934565148,  3712.073,  3712.073,-0.015995,-0.002867,-0.995036,-0.000158,-0.000029,-0.009951, 0.009018,-0.009179, 0.047263,1, 0.000178, 0.000142,-0.000123,1, 0.165874, 0.018945, 9.805229,1,1
1777934565158,  3712.073,  3712.073,-0.015995,-0.002867,-0.995036,-0.000158,-0.000029,-0.009951, 0.009018,-0.009179, 0.047263,1, 0.000178, 0.000142,-0.000123,1, 0.165874, 0.018945, 9.805229,1,1
1777934565170,  3712.098,  3712.093,-0.017132,-0.001082,-0.995072,-0.000172,-0.000013,-0.009951, 0.000214,-0.003280, 0.045047,1, 0.000264,-0.000880,-0.000464,1, 0.165961, 0.018976, 9.805227,1,1
1777934565180,  3712.098,  3712.093,-0.017132,-0.001082,-0.995072,-0.000172,-0.000013,-0.009951, 0.000214,-0.003280, 0.045047,1, 0.000264,-0.000880,-0.000464,1, 0.165961, 0.018976, 9.805227,1,1
1777934565197,  3712.123,  3712.123,-0.017214,-0.000804,-0.996180,-0.000171,-0.000009,-0.009961,-0.002929, 0.011236, 0.036041,1, 0.000397, 0.000223,-0.000805,1, 0.165871, 0.019129, 9.805228,1,1
1777934565207,  3712.123,  3712.123,-0.017214,-0.000804,-0.996180,-0.000171,-0.000009,-0.009961,-0.002929, 0.011236, 0.036041,1, 0.000397, 0.000223,-0.000805,1, 0.165871, 0.019129, 9.805228,1,1
1777934565219,  3712.148,  3712.143,-0.017409,-0.001816,-0.995587,-0.000173,-0.000018,-0.009960,-0.002685, 0.015498, 0.036847,1, 0.000672, 0.000817, 0.000127,1, 0.165776, 0.019155, 9.805230,1,1
1777934565229,  3712.148,  3712.143,-0.017409,-0.001816,-0.995587,-0.000173,-0.000018,-0.009960,-0.002685, 0.015498, 0.036847,1, 0.000672, 0.000817, 0.000127,1, 0.165776, 0.019155, 9.805230,1,1
1777934565247,  3712.173,  3712.173,-0.016683,-0.002889,-0.995491,-0.000169,-0.000028,-0.009955, 0.002184,-0.009185, 0.042797,1, 0.000264, 0.000582, 0.000008,1, 0.165765, 0.019159, 9.805230,1,1
1777934565257,  3712.173,  3712.173,-0.016683,-0.002889,-0.995491,-0.000169,-0.000028,-0.009955, 0.002184,-0.009185, 0.042797,1, 0.000264, 0.000582, 0.000008,1, 0.165765, 0.019159, 9.805230,1,1
1777934565269,  3712.198,  3712.193,-0.016175,-0.001864,-0.995532,-0.000163,-0.000017,-0.009954, 0.003489,-0.003670, 0.040500,1,-0.000149, 0.000028,-0.000816,1, 0.165788, 0.019228, 9.805229,1,1
1777934565279,  3712.198,  3712.193,-0.016175,-0.001864,-0.995532,-0.000163,-0.000017,-0.009954, 0.003489,-0.003670, 0.040500,1,-0.000149, 0.000028,-0.000816,1, 0.165788, 0.019228, 9.805229,1,1
1777934565292,  3712.223,  3712.218,-0.017148,-0.003086,-0.995890,-0.000171,-0.000030,-0.009962,-0.002252,-0.011131, 0.038886,1,-0.000902,-0.000679,-0.000859,1, 0.165934, 0.019108, 9.805227,1,1
1777934565302,  3712.223,  3712.218,-0.017148,-0.003086,-0.995890,-0.000171,-0.000030,-0.009962,-0.002252,-0.011131, 0.038886,1,-0.000902,-0.000679,-0.000859,1, 0.165934, 0.019108, 9.805227,1,1
1777934565319,  3712.248,  3712.243,-0.018182,-0.002382,-0.995656,-0.000182,-0.000026,-0.009955,-0.009295,-0.009127, 0.046924,1,-0.001147,-0.000776,-0.000412,1, 0.165976, 0.018981, 9.805227,1,1
1777934565329,  3712.248,  3712.243,-0.018182,-0.002382,-0.995656,-0.000182,-0.000026,-0.009955,-0.009295,-0.009127, 0.046924,1,-0.001147,-0.000776,-0.000412,1, 0.165976, 0.018981, 9.805227,1,1
1777934565342,  3712.268,  3712.268,-0.018093, 0.000081,-0.995924,-0.000179,-0.000002,-0.009962,-0.011489, 0.019774, 0.038547,1, 0.000537, 0.000935,-0.000630,1, 0.165918, 0.019000, 9.805228,1,1
1777934565352,  3712.268,  3712.268,-0.018093, 0.000081,-0.995924,-0.000179,-0.000002,-0.009962,-0.011489, 0.019774, 0.038547,1, 0.000537, 0.000935,-0.000630,1, 0.165918, 0.019000, 9.805228,1,1
1777934565368,  3712.298,  3712.293,-0.016548,-0.000767,-0.996123,-0.000163,-0.000010,-0.009962, 0.002795, 0.015699, 0.042178,1,-0.001227,-0.000558,-0.000328,1, 0.165877, 0.018892, 9.805229,1,1
1777934565378,  3712.298,  3712.293,-0.016548,-0.000767,-0.996123,-0.000163,-0.000010,-0.009962, 0.002795, 0.015699, 0.042178,1,-0.001227,-0.000558,-0.000328,1, 0.165877, 0.018892, 9.805229,1,1
1777934565390,  3712.318,  3712.313,-0.016039,-0.001439,-0.995364,-0.000162,-0.000014,-0.009952, 0.009874, 0.009836, 0.033194,1, 0.000141, 0.000565, 0.000064,1, 0.165749, 0.018942, 9.805231,1,1
1777934565400,  3712.318,  3712.313,-0.016039,-0.001439,-0.995364,-0.000162,-0.000014,-0.009952, 0.009874, 0.009836, 0.033194,1, 0.000141, 0.000565, 0.000064,1, 0.165749, 0.018942, 9.805231,1,1
1777934565418,  3712.343,  3712.343,-0.017376,-0.001678,-0.995749,-0.000173,-0.000017,-0.009956,-0.004451, 0.002517, 0.040262,1, 0.000591,-0.000849,-0.000570,1, 0.165985, 0.018985, 9.805227,1,1
1777934565428,  3712.343,  3712.343,-0.017376,-0.001678,-0.995749,-0.000173,-0.000017,-0.009956,-0.004451, 0.002517, 0.040262,1, 0.000591,-0.000849,-0.000570,1, 0.165985, 0.018985, 9.805227,1,1
1777934565440,  3712.368,  3712.363,-0.017103,-0.001761,-0.995536,-0.000170,-0.000017,-0.009956,-0.000139, 0.007379, 0.032635,1, 0.000155,-0.000477, 0.000187,1, 0.166005, 0.018991, 9.805226,1,1
1777934565450,  3712.368,  3712.363,-0.017103,-0.001761,-0.995536,-0.000170,-0.000017,-0.009956,-0.000139, 0.007379, 0.032635,1, 0.000155,-0.000477, 0.000187,1, 0.166005, 0.018991, 9.805226,1,1
1777934565467,  3712.393,  3712.393,-0.016476,-0.002229,-0.996258,-0.000164,-0.000024,-0.009962, 0.004433,-0.002962, 0.035276,1,-0.000528, 0.000202,-0.000282,1, 0.165999, 0.018876, 9.805226,1,1
1777934565477,  3712.393,  3712.393,-0.016476,-0.002229,-0.996258,-0.000164,-0.000024,-0.009962, 0.004433,-0.002962, 0.035276,1,-0.000528, 0.000202,-0.000282,1, 0.165999, 0.018876, 9.805226,1,1
1777934565489,  3712.418,  3712.413,-0.017560,-0.001486,-0.994842,-0.000178,-0.000016,-0.009947,-0.001979,-0.000501, 0.049151,1,-0.000415,-0.000453,-0.000379,1, 0.166031, 0.018817, 9.805226,1,1
1777934565499,  3712.418,  3712.413,-0.017560,-0.001486,-0.994842,-0.000178,-0.000016,-0.009947,-0.001979,-0.000501, 0.049151,1,-0.000415,-0.000453,-0.000379,1, 0.166031, 0.018817, 9.805226,1,1
1777934565517,  3712.443,  3712.443,-0.017293,-0.001950,-0.996470,-0.000172,-0.000019,-0.009967,-0.003688,-0.000185, 0.033195,1,-0.000118,-0.000156,-0.000363,1, 0.165906, 0.018932, 9.805228,1,1
1777934565527,  3712.443,  3712.443,-0.017293,-0.001950,-0.996470,-0.000172,-0.000019,-0.009967,-0.003688,-0.000185, 0.033195,1,-0.000118,-0.000156,-0.000363,1, 0.165906, 0.018932, 9.805228,1,1
1777934565539,  3712.468,  3712.463,-0.016748,-0.002641,-0.996488,-0.000168,-0.000027,-0.009963, 0.003325,-0.001334, 0.042800,1,-0.000598, 0.000055, 0.000134,1, 0.165973, 0.018865, 9.805227,1,1
1777934565549,  3712.468,  3712.463,-0.016748,-0.002641,-0.996488,-0.000168,-0.000027,-0.009963, 0.003325,-0.001334, 0.042800,1,-0.000598, 0.000055, 0.000134,1, 0.165973, 0.018865, 9.805227,1,1
1777934565562,  3712.493,  3712.488,-0.016367,-0.002741,-0.995440,-0.000165,-0.000025,-0.009952, 0.005477,-0.007964, 0.043294,1, 0.000974,-0.000764,-0.000772,1, 0.166003, 0.018949, 9.805226,1,1
1777934565572,  3712.493,  3712.488,-0.016367,-0.002741,-0.995440,-0.000165,-0.000025,-0.009952, 0.005477,-0.007964, 0.043294,1, 0.000974,-0.000764,-0.000772,1, 0.166003, 0.018949, 9.805226,1,1
1777934565589,  3712.518,  3712.513,-0.017395, 0.000440,-0.995316,-0.000171, 0.000000,-0.009966, 0.007555,-0.000408, 0.025847,1, 0.001018, 0.000479,-0.000813,1, 0.166000, 0.019123, 9.805226,1,1
1777934565599,  3712.518,  3712.513,-0.017395, 0.000440,-0.995316,-0.000171, 0.000000,-0.009966, 0.007555,-0.000408, 0.025847,1, 0.001018, 0.000479,-0.000813,1, 0.166000, 0.019123, 9.805226,1,1
1777934565612,  3712.538,  3712.538,-0.016425,-0.001729,-0.996411,-0.000169,-0.000017,-0.009953, 0.005002, 0.002096, 0.033771,1, 0.000110, 0.000202,-0.000162,1, 0.166080, 0.019046, 9.805225,1,1
1777934565622,  3712.538,  3712.538,-0.016425,-0.001729,-0.996411,-0.000169,-0.000017,-0.009953, 0.005002, 0.002096, 0.033771,1, 0.000110, 0.000202,-0.000162,1, 0.166080, 0.019046, 9.805225,1,1
1777934565638,  3712.568,  3712.563,-0.016429,-0.001725,-0.995286,-0.000165,-0.000017,-0.009946, 0.007916,-0.001823, 0.043938,1,-0.000475, 0.000187,-0.000915,1, 0.166107, 0.018908, 9.805224,1,1
1777934565648,  3712.568,  3712.563,-0.016429,-0.001725,-0.995286,-0.000165,-0.000017,-0.009946, 0.007916,-0.001823, 0.043938,1,-0.000475, 0.000187,-0.000915,1, 0.166107, 0.018908, 9.805224,1,1
1777934565662,  3712.588,  3712.588,-0.017700,-0.001883,-0.996807,-0.000176,-0.000018,-0.009968,-0.007501, 0.000474, 0.029888,1, 0.000318,-0.000317,-0.000380,1, 0.166083, 0.018954, 9.805225,1,1
1777934565672,  3712.588,  3712.588,-0.017700,-0.001883,-0.996807,-0.000176,-0.000018,-0.009968,-0.007501, 0.000474, 0.029888,1, 0.000318,-0.000317,-0.000380,1, 0.166083, 0.018954, 9.805225,1,1
1777934565688,  3712.613,  3712.613,-0.018111,-0.001619,-0.994914,-0.000177,-0.000017,-0.009952,-0.011525, 0.003044, 0.048448,1,-0.000076,-0.000839,-0.000422,1, 0.166111, 0.018920, 9.805224,1,1
1777934565698,  3712.613,  3712.613,-0.018111,-0.001619,-0.994914,-0.000177,-0.000017,-0.009952,-0.011525, 0.003044, 0.048448,1,-0.000076,-0.000839,-0.000422,1, 0.166111, 0.018920, 9.805224,1,1
1777934565710,  3712.638,  3712.633,-0.017752,-0.002623,-0.994903,-0.000177,-0.000023,-0.009949,-0.010901, 0.003939, 0.039011,1,-0.000596, 0.000281,-0.000479,1, 0.166082, 0.018884, 9.805225,1,1
1777934565720,  3712.638,  3712.633,-0.017752,-0.002623,-0.994903,-0.000177,-0.000023,-0.009949,-0.010901, 0.003939, 0.039011,1,-0.000596, 0.000281,-0.000479,1, 0.166082, 0.018884, 9.805225,1,1
1777934565737,  3712.663,  3712.663,-0.015595,-0.002797,-0.996158,-0.000159,-0.000024,-0.009957, 0.013173,-0.008573, 0.036250,1,-0.000148, 0.000732,-0.001031,1, 0.166089, 0.018854, 9.805225,1,1
1777934565748,  3712.663,  3712.663,-0.015595,-0.002797,-0.996158,-0.000159,-0.000024,-0.009957, 0.013173,-0.008573, 0.036250,1,-0.000148, 0.000732,-0.001031,1, 0.166089, 0.018854, 9.805225,1,1
1777934565759,  3712.688,  3712.683,-0.015409,-0.000725,-0.996019,-0.000156,-0.000007,-0.009949, 0.017361, 0.011688, 0.037862,1, 0.000319,-0.000498, 0.000070,1, 0.166178, 0.018685, 9.805224,1,1
1777934565770,  3712.688,  3712.683,-0.015409,-0.000725,-0.996019,-0.000156,-0.000007,-0.009949, 0.017361, 0.011688, 0.037862,1, 0.000319,-0.000498, 0.000070,1, 0.166178, 0.018685, 9.805224,1,1
1777934565787,  3712.713,  3712.713,-0.017071,-0.001941,-0.996277,-0.000171,-0.000021,-0.009966,-0.001274,-0.000225, 0.035083,1,-0.000558, 0.000024,-0.000139,1, 0.166138, 0.018797, 9.805224,1,1
1777934565797,  3712.713,  3712.713,-0.017071,-0.001941,-0.996277,-0.000171,-0.000021,-0.009966,-0.001274,-0.000225, 0.035083,1,-0.000558, 0.000024,-0.000139,1, 0.166138, 0.018797, 9.805224,1,1
1777934565809,  3712.738,  3712.733,-0.017261,-0.001936,-0.996434,-0.000177,-0.000020,-0.009962,-0.012806, 0.008338, 0.039409,1, 0.000180,-0.000285,-0.000788,1, 0.166168, 0.018850, 9.805224,1,1
1777934565819,  3712.738,  3712.733,-0.017261,-0.001936,-0.996434,-0.000177,-0.000020,-0.009962,-0.012806, 0.008338, 0.039409,1, 0.000180,-0.000285,-0.000788,1, 0.166168, 0.018850, 9.805224,1,1
1777934565832,  3712.763,  3712.758,-0.017536,-0.001545,-0.994971,-0.000176,-0.000017,-0.009956,-0.005789, 0.003522, 0.047892,1,-0.000414,-0.000078,-0.000294,1, 0.166188, 0.018659, 9.805224,1,1
1777934565843,  3712.763,  3712.758,-0.017536,-0.001545,-0.994971,-0.000176,-0.000017,-0.009956,-0.005789, 0.003522, 0.047892,1,-0.000414,-0.000078,-0.000294,1, 0.166188, 0.018659, 9.805224,1,1
1777934565859,  3712.788,  3712.783,-0.016543,-0.001347,-0.995427,-0.000166,-0.000014,-0.009958, 0.005017, 0.002636, 0.029711,1,-0.000016,-0.000263, 0.000617,1, 0.166201, 0.018694, 9.805223,1,1
1777934565869,  3712.788,  3712.783,-0.016543,-0.001347,-0.995427,-0.000166,-0.000014,-0.009958, 0.005017, 0.002636, 0.029711,1,-0.000016,-0.000263, 0.000617,1, 0.166201, 0.018694, 9.805223,1,1
1777934565882,  3712.813,  3712.808,-0.016479,-0.002655,-0.995446,-0.000165,-0.000028,-0.009951, 0.004569,-0.007297, 0.043234,1, 0.000584,-0.000280,-0.000028,1, 0.166184, 0.018755, 9.805223,1,1
1777934565892,  3712.813,  3712.808,-0.016479,-0.002655,-0.995446,-0.000165,-0.000028,-0.009951, 0.004569,-0.007297, 0.043234,1, 0.000584,-0.000280,-0.000028,1, 0.166184, 0.018755, 9.805223,1,1
1777934565908,  3712.838,  3712.833,-0.017176,-0.002464,-0.996598,-0.000172,-0.000024,-0.009966, 0.000132,-0.003841, 0.042519,1, 0.000326, 0.000501,-0.001319,1, 0.166191, 0.018873, 9.805223,1,1
1777934565918,  3712.838,  3712.833,-0.017176,-0.002464,-0.996598,-0.000172,-0.000024,-0.009966, 0.000132,-0.003841, 0.042519,1, 0.000326, 0.000501,-0.001319,1, 0.166191, 0.018873, 9.805223,1,1
1777934565932,  3712.858,  3712.858,-0.017745,-0.001186,-0.995971,-0.000176,-0.000012,-0.009958,-0.007718, 0.007327, 0.038083,1, 0.000137,-0.000066,-0.000252,1, 0.166301, 0.018963, 9.805222,1,1
1777934565942,  3712.858,  3712.858,-0.017745,-0.001186,-0.995971,-0.000176,-0.000012,-0.009958,-0.007718, 0.007327, 0.038083,1, 0.000137,-0.000066,-0.000252,1, 0.166301, 0.018963, 9.805222,1,1
1777934565958,  3712.883,  3712.883,-0.017191,-0.001339,-0.995947,-0.000170,-0.000014,-0.009963,-0.002289, 0.005765, 0.038316,1,-0.000889,-0.000810,-0.000771,1, 0.166321, 0.018872, 9.805222,1,1
1777934565968,  3712.883,  3712.883,-0.017191,-0.001339,-0.995947,-0.000170,-0.000014,-0.009963,-0.002289, 0.005765, 0.038316,1,-0.000889,-0.000810,-0.000771,1, 0.166321, 0.018872, 9.805222,1,1
1777934565980,  3712.908,  3712.903,-0.016813,-0.001799,-0.995448,-0.000167,-0.000018,-0.009956,-0.000809, 0.004560, 0.043655,1, 0.000565, 0.000656,-0.000439,1, 0.166200, 0.018980, 9.805223,1,1
1777934565990,  3712.908,  3712.903,-0.016813,-0.001799,-0.995448,-0.000167,-0.000018,-0.009956,-0.000809, 0.004560, 0.043655,1, 0.000565, 0.000656,-0.000439,1, 0.166200, 0.018980, 9.805223,1,1
1777934566007,  3712.933,  3712.933,-0.016836,-0.001937,-0.996007,-0.000168,-0.000020,-0.009959, 0.001121,-0.000013, 0.037734,1,-0.000198, 0.000051,-0.000511,1, 0.166223, 0.018976, 9.805223,1,1
1777934566018,  3712.933,  3712.933,-0.016836,-0.001937,-0.996007,-0.000168,-0.000020,-0.009959, 0.001121,-0.000013, 0.037734,1,-0.000198, 0.000051,-0.000511,1, 0.166223, 0.018976, 9.805223,1,1
1777934566029,  3712.958,  3712.953,-0.016693,-0.000994,-0.995583,-0.000169,-0.000011,-0.009957,-0.002617, 0.012278, 0.047515,1,-0.000093,-0.000278,-0.000351,1, 0.166363, 0.018891, 9.805221,1,1
1777934566039,  3712.958,  3712.953,-0.016693,-0.000994,-0.995583,-0.000169,-0.000011,-0.009957,-0.002617, 0.012278, 0.047515,1,-0.000093,-0.000278,-0.000351,1, 0.166363, 0.018891, 9.805221,1,1
1777934566057,  3712.983,  3712.983,-0.016782,-0.000870,-0.995177,-0.000168,-0.000009,-0.009953, 0.001667, 0.010460, 0.045868,1, 0.000165, 0.000801,-0.000032,1, 0.166220, 0.018995, 9.805223,1,1
1777934566067,  3712.983,  3712.983,-0.016782,-0.000870,-0.995177,-0.000168,-0.000009,-0.009953, 0.001667, 0.010460, 0.045868,1, 0.000165, 0.000801,-0.000032,1, 0.166220, 0.018995, 9.805223,1,1
1777934566079,  3713.008,  3713.003,-0.017882,-0.001437,-0.995699,-0.000180,-0.000014,-0.009955,-0.004866, 0.008623, 0.046417,1, 0.000239, 0.000179,-0.000447,1, 0.166177, 0.019018, 9.805223,1,1
1777934566089,  3713.008,  3713.003,-0.017882,-0.001437,-0.995699,-0.000180,-0.000014,-0.009955,-0.004866, 0.008623, 0.046417,1, 0.000239, 0.000179,-0.000447,1, 0.166177, 0.019018, 9.805223,1,1
1777934566107,  3713.033,  3713.033,-0.017663,-0.002150,-0.995278,-0.000173,-0.000021,-0.009954,-0.006962,-0.002087, 0.044876,1,-0.000074, 0.000878,-0.000184,1, 0.166225, 0.018993, 9.805223,1,1
1777934566117,  3713.033,  3713.033,-0.017663,-0.002150,-0.995278,-0.000173,-0.000021,-0.009954,-0.006962,-0.002087, 0.044876,1,-0.000074, 0.000878,-0.000184,1, 0.166225, 0.018993, 9.805223,1,1
1777934566129,  3713.058,  3713.053,-0.017197,-0.001261,-0.994342,-0.000170,-0.000013,-0.009952,-0.005631,-0.007641, 0.033036,1,-0.000474, 0.000204,-0.000144,1, 0.166112, 0.018934, 9.805224,1,1
1777934566139,  3713.058,  3713.053,-0.017197,-0.001261,-0.994342,-0.000170,-0.000013,-0.009952,-0.005631,-0.007641, 0.033036,1,-0.000474, 0.000204,-0.000144,1, 0.166112, 0.018934, 9.805224,1,1
1777934566152,  3713.083,  3713.078,-0.016566,-0.002179,-0.995108,-0.000168,-0.000022,-0.009948, 0.003593,-0.002398, 0.046549,1, 0.000059, 0.000686, 0.000188,1, 0.166031, 0.018974, 9.805226,1,1
1777934566162,  3713.083,  3713.078,-0.016566,-0.002179,-0.995108,-0.000168,-0.000022,-0.009948, 0.003593,-0.002398, 0.046549,1, 0.000059, 0.000686, 0.000188,1, 0.166031, 0.018974, 9.805226,1,1
1777934566178,  3713.108,  3713.103,-0.016667,-0.001528,-0.995283,-0.000169,-0.000016,-0.009948, 0.002724,-0.005753, 0.042770,1,-0.000159, 0.000176,-0.000719,1, 0.166105, 0.018998, 9.805224,1,1
1777934566188,  3713.108,  3713.103,-0.016667,-0.001528,-0.995283,-0.000169,-0.000016,-0.009948, 0.002724,-0.005753, 0.042770,1,-0.000159, 0.000176,-0.000719,1, 0.166105, 0.018998, 9.805224,1,1
1777934566202,  3713.128,  3713.128,-0.017347,-0.001122,-0.996102,-0.000175,-0.000010,-0.009960,-0.004080, 0.008040, 0.036805,1,-0.000219, 0.000804,-0.000701,1, 0.166008, 0.019035, 9.805226,1,1
1777934566212,  3713.128,  3713.128,-0.017347,-0.001122,-0.996102,-0.000175,-0.000010,-0.009960,-0.004080, 0.008040, 0.036805,1,-0.000219, 0.000804,-0.000701,1, 0.166008, 0.019035, 9.805226,1,1
1777934566228,  3713.153,  3713.153,-0.016952,-0.001575,-0.995927,-0.000170,-0.000014,-0.009955,-0.000144, 0.003537, 0.038516,1, 0.000352, 0.000025,-0.000174,1, 0.166096, 0.018995, 9.805225,1,1
1777934566238,  3713.153,  3713.153,-0.016952,-0.001575,-0.995927,-0.000170,-0.000014,-0.009955,-0.000144, 0.003537, 0.038516,1, 0.000352, 0.000025,-0.000174,1, 0.166096, 0.018995, 9.805225,1,1
1777934566250,  3713.178,  3713.173,-0.016148,-0.001779,-0.994830,-0.000163,-0.000018,-0.009946,-0.000157,-0.000849, 0.037927,1,-0.000359,-0.000080,-0.000249,1, 0.166154, 0.018923, 9.805224,1,1
1777934566260,  3713.178,  3713.173,-0.016148,-0.001779,-0.994830,-0.000163,-0.000018,-0.009946,-0.000157,-0.000849, 0.037927,1,-0.000359,-0.000080,-0.000249,1, 0.166154, 0.018923, 9.805224,1,1
1777934566277,  3713.203,  3713.203,-0.016483,-0.001704,-0.996112,-0.000168,-0.000016,-0.009959, 0.004518, 0.002261, 0.036701,1,-0.000510, 0.000645,-0.000300,1, 0.166145, 0.018952, 9.805224,1,1
1777934566288,  3713.203,  3713.203,-0.016483,-0.001704,-0.996112,-0.000168,-0.000016,-0.009959, 0.004518, 0.002261, 0.036701,1,-0.000510, 0.000645,-0.000300,1, 0.166145, 0.018952, 9.805224,1,1
1777934566299,  3713.228,  3713.223,-0.017415,-0.000782,-0.996043,-0.000176,-0.000009,-0.009958,-0.001746, 0.010548, 0.042707,1, 0.000751, 0.000191,-0.000137,1, 0.166142, 0.019004, 9.805224,1,1
1777934566310,  3713.228,  3713.223,-0.017415,-0.000782,-0.996043,-0.000176,-0.000009,-0.009958,-0.001746, 0.010548, 0.042707,1, 0.000751, 0.000191,-0.000137,1, 0.166142, 0.019004, 9.805224,1,1
1777934566327,  3713.253,  3713.253,-0.017253,-0.002001,-0.995648,-0.000173,-0.000019,-0.009957,-0.003097,-0.000699, 0.041257,1, 0.000136, 0.000216,-0.000218,1, 0.166091, 0.018926, 9.805225,1,1
1777934566337,  3713.253,  3713.253,-0.017253,-0.002001,-0.995648,-0.000173,-0.000019,-0.009957,-0.003097,-0.000699, 0.041257,1, 0.000136, 0.000216,-0.000218,1, 0.166091, 0.018926, 9.805225,1,1
1777934566349,  3713.278,  3713.273,-0.016397,-0.002560,-0.996840,-0.000165,-0.000025,-0.009964, 0.000638,-0.007811, 0.039144,1,-0.000059,-0.000212,-0.000216,1, 0.166071, 0.018946, 9.805225,1,1
1777934566359,  3713.278,  3713.273,-0.016397,-0.002560,-0.996840,-0.000165,-0.000025,-0.009964, 0.000638,-0.007811, 0.039144,1,-0.000059,-0.000212,-0.000216,1, 0.166071, 0.018946, 9.805225,1,1
1777934566377,  3713.303,  3713.303,-0.016623,-0.002049,-0.995329,-0.000166,-0.000019,-0.009954, 0.003069,-0.001067, 0.044384,1,-0.000124, 0.000290, 0.000017,1, 0.166077, 0.019020, 9.805225,1,1
1777934566387,  3713.303,  3713.303,-0.016623,-0.002049,-0.995329,-0.000166,-0.000019,-0.009954, 0.003069,-0.001067, 0.044384,1,-0.000124, 0.000290, 0.000017,1, 0.166077, 0.019020, 9.805225,1,1
1777934566399,  3713.328,  3713.323,-0.017280,-0.002359,-0.995478,-0.000175,-0.000024,-0.009953, 0.002510,-0.000949, 0.040358,1,-0.000290,-0.000605,-0.000078,1, 0.166050, 0.018991, 9.805225,1,1
1777934566409,  3713.328,  3713.323,-0.017280,-0.002359,-0.995478,-0.000175,-0.000024,-0.009953, 0.002510,-0.000949, 0.040358,1,-0.000290,-0.000605,-0.000078,1, 0.166050, 0.018991, 9.805225,1,1
1777934566422,  3713.353,  3713.348,-0.016411,-0.001982,-0.996174,-0.000164,-0.000021,-0.009960, 0.005271,-0.000576, 0.036096,1,-0.000757, 0.000265,-0.000895,1, 0.166197, 0.018834, 9.805223,1,1
1777934566432,  3713.353,  3713.348,-0.016411,-0.001982,-0.996174,-0.000164,-0.000021,-0.009960, 0.005271,-0.000576, 0.036096,1,-0.000757, 0.000265,-0.000895,1, 0.166197, 0.018834, 9.805223,1,1
1777934566448,  3713.378,  3713.373,-0.016955,-0.000623,-0.994806,-0.000165,-0.000009,-0.009951, 0.004800, 0.012216, 0.043928,1,-0.000217, 0.000541,-0.000580,1, 0.166150, 0.018809, 9.805224,1,1
1777934566458,  3713.378,  3713.373,-0.016955,-0.000623,-0.994806,-0.000165,-0.000009,-0.009951, 0.004800, 0.012216, 0.043928,1,-0.000217, 0.000541,-0.000580,1, 0.166150, 0.018809, 9.805224,1,1
1777934566472,  3713.398,  3713.398,-0.016129,-0.001274,-0.996331,-0.000163,-0.000013,-0.009961, 0.007961, 0.006428, 0.034553,1,-0.000631, 0.000472,-0.000108,1, 0.166119, 0.018902, 9.805224,1,1
1777934566482,  3713.398,  3713.398,-0.016129,-0.001274,-0.996331,-0.000163,-0.000013,-0.009961, 0.007961, 0.006428, 0.034553,1,-0.000631, 0.000472,-0.000108,1, 0.166119, 0.018902, 9.805224,1,1
1777934566498,  3713.423,  3713.423,-0.017532,-0.001084,-0.995768,-0.000174,-0.000012,-0.009955,-0.005833, 0.008251, 0.040079,1,-0.000052,-0.000148,-0.000122,1, 0.166100, 0.018876, 9.805225,1,1
1777934566508,  3713.423,  3713.423,-0.017532,-0.001084,-0.995768,-0.000174,-0.000012,-0.009955,-0.005833, 0.008251, 0.040079,1,-0.000052,-0.000148,-0.000122,1, 0.166100, 0.018876, 9.805225,1,1
1777934566520,  3713.448,  3713.443,-0.017540,-0.001799,-0.995530,-0.000176,-0.000016,-0.009956,-0.002994, 0.007495, 0.038217,1, 0.000344,-0.000532, 0.000040,1, 0.166104, 0.019067, 9.805224,1,1
1777934566530,  3713.448,  3713.443,-0.017540,-0.001799,-0.995530,-0.000176,-0.000016,-0.009956,-0.002994, 0.007495, 0.038217,1, 0.000344,-0.000532, 0.000040,1, 0.166104, 0.019067, 9.805224,1,1
1777934566547,  3713.473,  3713.473,-0.017599,-0.002484,-0.996306,-0.000177,-0.000025,-0.009962,-0.006569,-0.005221, 0.034801,1, 0.000974, 0.000778,-0.000333,1, 0.165994, 0.019166, 9.805226,1,1
1777934566558,  3713.473,  3713.473,-0.017599,-0.002484,-0.996306,-0.000177,-0.000025,-0.009962,-0.006569,-0.005221, 0.034801,1, 0.000974, 0.000778,-0.000333,1, 0.165994, 0.019166, 9.805226,1,1
1777934566569,  3713.498,  3713.493,-0.016461,-0.001661,-0.995928,-0.000166,-0.000019,-0.009960,-0.002883, 0.000879, 0.044656,1, 0.000910, 0.000049,-0.000892,1, 0.166057, 0.019252, 9.805225,1,1
1777934566580,  3713.498,  3713.493,-0.016461,-0.001661,-0.995928,-0.000166,-0.000019,-0.009960,-0.002883, 0.000879, 0.044656,1, 0.000910, 0.000049,-0.000892,1, 0.166057, 0.019252, 9.805225,1,1
1777934566597,  3713.523,  3713.523,-0.016613,-0.001822,-0.995826,-0.000162,-0.000017,-0.009963, 0.003155, 0.001377, 0.039509,1,-0.000317,-0.000095,-0.000659,1, 0.166076, 0.019239, 9.805224,1,1
1777934566607,  3713.523,  3713.523,-0.016613,-0.001822,-0.995826,-0.000162,-0.000017,-0.009963, 0.003155, 0.001377, 0.039509,1,-0.000317,-0.000095,-0.000659,1, 0.166076, 0.019239, 9.805224,1,1
1777934566619,  3713.548,  3713.543,-0.016703,-0.002431,-0.995869,-0.000167,-0.000025,-0.009962, 0.006804, 0.005353, 0.045810,1,-0.000264,-0.000140,-0.000409,1, 0.166113, 0.019117, 9.805224,1,1
1777934566629,  3713.548,  3713.543,-0.016703,-0.002431,-0.995869,-0.000167,-0.000025,-0.009962, 0.006804, 0.005353, 0.045810,1,-0.000264,-0.000140,-0.000409,1, 0.166113, 0.019117, 9.805224,1,1
1777934566647,  3713.573,  3713.573,-0.017594,-0.002875,-0.996119,-0.000174,-0.000029,-0.009958,-0.006412,-0.009106, 0.036637,1, 0.000495, 0.000059,-0.000611,1, 0.166123, 0.019105, 9.805224,1,1
1777934566657,  3713.573,  3713.573,-0.017594,-0.002875,-0.996119,-0.000174,-0.000029,-0.009958,-0.006412,-0.009106, 0.036637,1, 0.000495, 0.000059,-0.000611,1, 0.166123, 0.019105, 9.805224,1,1
1777934566669,  3713.598,  3713.593,-0.017507,-0.001705,-0.996054,-0.000179,-0.000016,-0.009954,-0.001825, 0.004841, 0.032225,1, 0.000026,-0.000563,-0.000428,1, 0.166228, 0.019172, 9.805223,1,1
1777934566679,  3713.598,  3713.593,-0.017507,-0.001705,-0.996054,-0.000179,-0.000016,-0.009954,-0.001825, 0.004841, 0.032225,1, 0.000026,-0.000563,-0.000428,1, 0.166228, 0.019172, 9.805223,1,1
1777934566692,  3713.623,  3713.613,-0.016793,-0.001595,-0.996076,-0.000167,-0.000014,-0.009959, 0.001566, 0.000285, 0.044696,1,-0.000112,-0.000406,-0.000476,1, 0.166223, 0.019210, 9.805223,1,1
1777934566702,  3713.623,  3713.613,-0.016793,-0.001595,-0.996076,-0.000167,-0.000014,-0.009959, 0.001566, 0.000285, 0.044696,1,-0.000112,-0.000406,-0.000476,1, 0.166223, 0.019210, 9.805223,1,1
1777934566718,  3713.648,  3713.643,-0.016251,-0.001934,-0.995314,-0.000160,-0.000019,-0.009951, 0.003971, 0.000879, 0.041343,1, 0.000481, 0.000228, 0.000029,1, 0.166187, 0.019181, 9.805223,1,1
1777934566728,  3713.648,  3713.643,-0.016251,-0.001934,-0.995314,-0.000160,-0.000019,-0.009951, 0.003971, 0.000879, 0.041343,1, 0.000481, 0.000228, 0.000029,1, 0.166187, 0.019181, 9.805223,1,1
1777934566742,  3713.668,  3713.668,-0.017008,-0.001905,-0.996551,-0.000168,-0.000017,-0.009966,-0.000666, 0.000619, 0.032399,1,-0.000195,-0.000426,-0.000259,1, 0.166143, 0.019295, 9.805223,1,1
1777934566752,  3713.668,  3713.668,-0.017008,-0.001905,-0.996551,-0.000168,-0.000017,-0.009966,-0.000666, 0.000619, 0.032399,1,-0.000195,-0.000426,-0.000259,1, 0.166143, 0.019295, 9.805223,1,1
1777934566768,  3713.693,  3713.693,-0.017229,-0.001304,-0.995655,-0.000170,-0.000014,-0.009953,-0.002765, 0.006477, 0.041179,1,-0.000773, 0.000069,-0.000587,1, 0.166191, 0.019236, 9.805223,1,1
1777934566778,  3713.693,  3713.693,-0.017229,-0.001304,-0.995655,-0.000170,-0.000014,-0.009953,-0.002765, 0.006477, 0.041179,1,-0.000773, 0.000069,-0.000587,1, 0.166191, 0.019236, 9.805223,1,1
1777934566790,  3713.718,  3713.713,-0.016471,-0.001117,-0.995522,-0.000164,-0.000015,-0.009958, 0.001385, 0.001450, 0.040797,1, 0.000171, 0.000351,-0.000138,1, 0.166166, 0.019290, 9.805223,1,1
1777934566800,  3713.718,  3713.713,-0.016471,-0.001117,-0.995522,-0.000164,-0.000015,-0.009958, 0.001385, 0.001450, 0.040797,1, 0.000171, 0.000351,-0.000138,1, 0.166166, 0.019290, 9.805223,1,1
1777934566818,  3713.743,  3713.743,-0.017230,-0.002246,-0.996223,-0.000174,-0.000022,-0.009959,-0.002834,-0.002812, 0.035615,1,-0.000102,-0.000264,-0.000290,1, 0.166144, 0.019203, 9.805223,1,1
1777934566828,  3713.743,  3713.743,-0.017230,-0.002246,-0.996223,-0.000174,-0.000022,-0.009959,-0.002834,-0.002812, 0.035615,1,-0.000102,-0.000264,-0.000290,1, 0.166144, 0.019203, 9.805223,1,1
1777934566840,  3713.768,  3713.763,-0.018426,-0.001575,-0.994565,-0.000182,-0.000015,-0.009945,-0.006647,-0.003873, 0.047619,1,-0.000562,-0.000213,-0.000610,1, 0.166213, 0.019165, 9.805223,1,1
1777934566850,  3713.768,  3713.763,-0.018426,-0.001575,-0.994565,-0.000182,-0.000015,-0.009945,-0.006647,-0.003873, 0.047619,1,-0.000562,-0.000213,-0.000610,1, 0.166213, 0.019165, 9.805223,1,1
1777934566867,  3713.793,  3713.793,-0.017728,-0.001286,-0.996097,-0.000176,-0.000015,-0.009963,-0.007713, 0.006555, 0.036851,1, 0.000016, 0.000717, 0.000178,1, 0.166116, 0.019166, 9.805224,1,1
1777934566877,  3713.793,  3713.793,-0.017728,-0.001286,-0.996097,-0.000176,-0.000015,-0.009963,-0.007713, 0.006555, 0.036851,1, 0.000016, 0.000717, 0.000178,1, 0.166116, 0.019166, 9.805224,1,1
1777934566889,  3713.818,  3713.813,-0.016837,-0.000328,-0.994406,-0.000171,-0.000004,-0.009948,-0.002771, 0.000024, 0.041519,1,-0.000320,-0.000446,-0.000421,1, 0.166142, 0.019079, 9.805224,1,1
1777934566899,  3713.818,  3713.813,-0.016837,-0.000328,-0.994406,-0.000171,-0.000004,-0.009948,-0.002771, 0.000024, 0.041519,1,-0.000320,-0.000446,-0.000421,1, 0.166142, 0.019079, 9.805224,1,1
1777934566917,  3713.843,  3713.843,-0.015384, 0.000377,-0.997249,-0.000160, 0.000010,-0.009963, 0.015149, 0.022845, 0.025554,1, 0.001060, 0.000253, 0.000531,1, 0.166009, 0.019180, 9.805226,1,1
1777934566927,  3713.843,  3713.843,-0.015384, 0.000377,-0.997249,-0.000160, 0.000010,-0.009963, 0.015149, 0.022845, 0.025554,1, 0.001060, 0.000253, 0.000531,1, 0.166009, 0.019180, 9.805226,1,1
1777934566939,  3713.868,  3713.863,-0.016146,-0.002076,-0.996234,-0.000162,-0.000021,-0.009958, 0.014757, 0.004673, 0.029715,1, 0.000419, 0.001054, 0.000853,1, 0.165967, 0.019277, 9.805226,1,1
1777934566949,  3713.868,  3713.863,-0.016146,-0.002076,-0.996234,-0.000162,-0.000021,-0.009958, 0.014757, 0.004673, 0.029715,1, 0.000419, 0.001054, 0.000853,1, 0.165967, 0.019277, 9.805226,1,1
1777934566962,  3713.893,  3713.888,-0.016810,-0.003702,-0.994532,-0.000168,-0.000036,-0.009945, 0.001180,-0.017031, 0.052200,1,-0.000139, 0.000066,-0.000113,1, 0.166030, 0.019268, 9.805225,1,1
1777934566972,  3713.893,  3713.888,-0.016810,-0.003702,-0.994532,-0.000168,-0.000036,-0.009945, 0.001180,-0.017031, 0.052200,1,-0.000139, 0.000066,-0.000113,1, 0.166030, 0.019268, 9.805225,1,1
1777934566988,  3713.918,  3713.913,-0.017730,-0.005236,-0.995555,-0.000178,-0.000054,-0.009958,-0.004804,-0.030841, 0.037239,1,-0.000166, 0.000552,-0.000605,1, 0.165955, 0.019301, 9.805226,1,1
1777934566998,  3713.918,  3713.913,-0.017730,-0.005236,-0.995555,-0.000178,-0.000054,-0.009958,-0.004804,-0.030841, 0.037239,1,-0.000166, 0.000552,-0.000605,1, 0.165955, 0.019301, 9.805226,1,1
1777934567012,  3713.938,  3713.938,-0.016553,-0.002351,-0.995779,-0.000166,-0.000022,-0.009957, 0.003699,-0.003825, 0.039968,1,-0.000888,-0.000037,-0.001740,1, 0.166037, 0.019214, 9.805225,1,1
1777934567022,  3713.938,  3713.938,-0.016553,-0.002351,-0.995779,-0.000166,-0.000022,-0.009957, 0.003699,-0.003825, 0.039968,1,-0.000888,-0.000037,-0.001740,1, 0.166037, 0.019214, 9.805225,1,1
1777934567038,  3713.963,  3713.963,-0.016596,-0.001602,-0.995143,-0.000163,-0.000014,-0.009953, 0.003476, 0.003413, 0.046198,1,-0.000329,-0.000166,-0.001351,1, 0.166228, 0.019114, 9.805223,1,1
