FILE_INFO
ListSeparator=,
DecimalSeparator=.

SESSION_INFO
TimeZone,UTC
TimeZoneOffset,0
DateTimeFormat,nnnnnnnnnnnnnnnnnnn
StartTime,04/29/26 21:38:25.023772416
TimeFormat,Unix

DEVICE_INFO
Address,*

CHANNEL_INFO
Channel,Type,SampleRate,Equation,Coefficients,Unit,UnitSymbol,WhereApplied,WhenApplied
inertial-6286.188861:estLinearAccelX,Timeseries,100Hz,,,,,,
inertial-6286.188861:estLinearAccelX:valid,ValidFlag,100Hz,,,,,,
inertial-6286.188861:estLinearAccelY,Timeseries,100Hz,,,,,,
inertial-6286.188861:estLinearAccelY:valid,ValidFlag,100Hz,,,,,,
inertial-6286.188861:estLinearAccelZ,Timeseries,100Hz,,,,,,
inertial-6286.188861:estLinearAccelZ:valid,ValidFlag,100Hz,,,,,,

DATA_START
Time,inertial-6286.188861:estLinearAccelX,inertial-6286.188861:estLinearAccelX:valid,inertial-6286.188861:estLinearAccelY,inertial-6286.188861:estLinearAccelY:valid,inertial-6286.188861:estLinearAccelZ,inertial-6286.188861:estLinearAccelZ:valid
1777498705023772416,-0.005573662463575602,1,-0.01258624624460936,1,0.04145289957523346,1
1777498705033398784,-0.006126764230430126,1,-0.02458438463509083,1,0.04082994908094406,1
1777498705043006464,-0.008698239922523499,1,-0.03114032186567783,1,0.04258472844958305,1
1777498705052599808,-0.007463453803211451,1,-0.02968906611204147,1,0.04130386933684349,1
1777498705062174720,-0.005899216048419476,1,-0.02928183972835541,1,0.04187881201505661,1
1777498705071963392,-0.005411455407738686,1,-0.02301025949418545,1,0.04602635651826859,1
1777498705081965312,-0.006123249884694815,1,-0.0136137967929244,1,0.04188495874404907,1
1777498705091947520,-0.005910645704716444,1,-0.002504437696188688,1,0.04738723486661911,1
1777498705101910272,-0.002301543718203902,1,0.006750405300408602,1,0.04304227605462074,1
1777498705111853568,0.000377446471247822,1,0.009056722745299339,1,0.04045537859201431,1
1777498705121777408,0.0005749754491262138,1,0.012045718729496,1,0.03911170363426208,1
1777498705131681536,0.002478772541508079,1,0.0109691433608532,1,0.03709694370627403,1
1777498705141566464,0.002216440392658114,1,0.004335273988544941,1,0.04491949826478958,1
1777498705151431936,0.004539846442639828,1,0.002794439205899835,1,0.03958373516798019,1
1777498705161277696,0.004301278386265039,1,-0.001800610567443073,1,0.04823361709713936,1
1777498705171103744,0.006177532020956278,1,-0.002738361479714513,1,0.04311376810073853,1
1777498705180910848,0.004858371336013079,1,0.0003726087452378124,1,0.04354530945420265,1
1777498705190698752,0.004753286484628916,1,0.001174644101411104,1,0.04183578863739967,1
1777498705200466944,0.003438729560002685,1,0.002900272840633988,1,0.04132585972547531,1
1777498705210215936,0.001431059325113893,1,0.003156395629048347,1,0.04731949046254158,1
1777498705219945728,0.002101993421092629,1,0.002061084378510714,1,0.04729305580258369,1
1777498705229656320,0.0009616238530725241,1,0.002500994829460979,1,0.04567944258451462,1
1777498705239347968,0.002652983879670501,1,0.002002677414566278,1,0.04388459771871567,1
1777498705249020416,0.001618777867406607,1,2.032597694778815e-05,1,0.04036660864949226,1
1777498705258673920,0.002935060299932957,1,-0.00320173054933548,1,0.04401146993041039,1
1777498705268309248,-0.0002091478381771594,1,-0.005073289852589369,1,0.03881916776299477,1
1777498705277925376,-0.003225290682166815,1,-0.004879696760326624,1,0.04497303813695908,1
1777498705287522560,-0.004527604673057795,1,-0.00827485416084528,1,0.03966180980205536,1
1777498705297100800,-0.005850701127201319,1,-0.00779089005663991,1,0.04026039317250252,1
1777498705306660096,-0.004393987357616425,1,-0.007012566085904837,1,0.04129364714026451,1
1777498705316681728,-0.001833644695580006,1,-0.002374849747866392,1,0.04087970033288002,1
1777498705326683904,-0.00169723539147526,1,0.004231338854879141,1,0.04170997440814972,1
1777498705336666624,-0.0001051892104442231,1,0.009138076566159725,1,0.03815070912241936,1
1777498705346629376,0.0002272725105285645,1,0.01154272817075253,1,0.04465100914239883,1
1777498705356572672,0.005882443860173225,1,0.01636259071528912,1,0.04298342019319534,1
1777498705366496000,0.009354491718113422,1,0.01826603524386883,1,0.0441862978041172,1
1777498705376400128,0.00870885793119669,1,0.01857964694499969,1,0.0407942458987236,1
1777498705386284544,0.007190147414803505,1,0.01537139061838388,1,0.03964646905660629,1
1777498705396149248,0.009433753788471222,1,0.00534501951187849,1,0.04468978196382523,1
1777498705405994752,0.01012442540377378,1,-0.0007822637562640011,1,0.04392609745264053,1
1777498705415822080,0.003374031279236078,1,-0.006094872485846281,1,0.04225380718708038,1
1777498705425630208,-0.003232670482248068,1,-0.01091459114104509,1,0.03593099862337112,1
1777498705435418880,-0.006695476360619068,1,-0.01654510386288166,1,0.03867991268634796,1
1777498705445188096,-0.00435916893184185,1,-0.01879540085792542,1,0.04355708137154579,1
1777498705454938112,-0.003304586512967944,1,-0.01651750318706036,1,0.03997587040066719,1
1777498705464668928,-0.005036809016019106,1,-0.01348406448960304,1,0.04532763361930847,1
1777498705474380288,0.0001031943247653544,1,-0.003588449209928513,1,0.0434444323182106,1
1777498705484072448,0.003659657202661037,1,-0.0001797185395844281,1,0.04667957127094269,1
1777498705493745664,0.008812186308205128,1,-0.004568168427795172,1,0.04682526737451553,1
1777498705503400192,0.0103564765304327,1,-0.0005026882281526923,1,0.04549716785550117,1
1777498705513035264,0.00616032537072897,1,-0.002525431336835027,1,0.04162035137414932,1
1777498705522651392,0.005600804463028908,1,-0.01751705631613731,1,0.03884279355406761,1
1777498705532248576,0.008967063389718533,1,-0.03417045250535011,1,0.0538145937025547,1
1777498705541826816,0.007962376810610294,1,-0.05015301704406738,1,0.05094818025827408,1
1777498705551622912,-0.00252852332778275,1,-0.05443111807107925,1,0.04011384770274162,1
1777498705561636352,-0.02150361239910126,1,-0.05691166594624519,1,0.03853611648082733,1
1777498705571630336,-0.032020203769207,1,-0.05384514108300209,1,0.04116330668330193,1
1777498705581604608,-0.03505206480622292,1,-0.04287952929735184,1,0.03971632942557335,1
1777498705591559168,-0.03648566827178001,1,-0.03678657859563828,1,0.0412210114300251,1
1777498705601494528,-0.03674240410327911,1,-0.01809448003768921,1,0.03274334967136383,1
1777498705611411968,-0.03571755811572075,1,0.003014979418367147,1,0.02781598083674908,1
1777498705621309696,-0.02597020193934441,1,0.01287209242582321,1,0.03532340750098228,1
1777498705631187968,-0.006737683899700642,1,0.0263116080313921,1,0.04410575330257416,1
1777498705641046784,0.005597160197794437,1,0.04995174333453178,1,0.04397480562329292,1
1777498705650886400,0.01635193079710007,1,0.06563092023134232,1,0.03817151114344597,1
1777498705660706560,0.03011784516274929,1,0.06854648143053055,1,0.03786253184080124,1
1777498705670507520,0.04288039356470108,1,0.08769632130861282,1,0.03673359006643295,1
1777498705680289536,0.04812171310186386,1,0.1001975983381271,1,0.04322504624724388,1
1777498705690052608,0.03989776223897934,1,0.1004604324698448,1,0.04246297851204872,1
1777498705699796480,0.04905261099338531,1,0.09206412732601166,1,0.05064597725868225,1
1777498705709521152,0.0539168119430542,1,0.08380608260631561,1,0.03985276445746422,1
1777498705719226624,0.04269440844655037,1,0.07195118069648743,1,0.03985443338751793,1
1777498705728912896,0.02187391556799412,1,0.06475525349378586,1,0.03595008328557014,1
1777498705738579712,0.006744976621121168,1,0.05258585140109062,1,0.03252466395497322,1
1777498705748227584,-0.0004446109523996711,1,0.02395760267972946,1,0.04421613365411758,1
1777498705757856256,0.007783590815961361,1,0.00307041616179049,1,0.04911137372255325,1
1777498705767466752,-0.01613145135343075,1,-0.002406676299870014,1,0.04351596161723137,1
1777498705777058304,-0.02956764027476311,1,-0.02035855688154697,1,0.03631497919559479,1
1777498705786867200,-0.02791436761617661,1,-0.05326482281088829,1,0.04269075021147728,1
1777498705796892928,-0.004073282703757286,1,-0.07662733644247055,1,0.04048174992203712,1
1777498705806899200,0.02804901264607906,1,-0.1027631014585495,1,0.04048814252018929,1
1777498705816886528,0.03410773724317551,1,-0.1038732826709747,1,0.04193921387195587,1
1777498705826854400,0.0312297698110342,1,-0.08106004446744919,1,0.03376429155468941,1
1777498705836803072,0.01256409473717213,1,-0.05468528345227242,1,0.06176776811480522,1
1777498705846732288,0.0004057260230183601,1,-0.0355590432882309,1,0.04148593917489052,1
1777498705856642304,-0.01166883204132318,1,-0.03173816576600075,1,0.04791044816374779,1
1777498705866532864,-0.01926852762699127,1,-0.02516385912895203,1,0.05141816288232803,1
1777498705876403968,-0.0241438876837492,1,-0.01922298036515713,1,0.04160572215914726,1
1777498705886256384,-0.03884726762771606,1,-0.0155163649469614,1,0.02767316251993179,1
1777498705896089344,-0.06312868744134903,1,-0.02393210679292679,1,0.03803109750151634,1
1777498705905905920,-0.08006152510643005,1,-0.02213778160512447,1,0.03137678653001785,1
1777498705915703040,-0.09153890609741211,1,-0.01772303879261017,1,0.05381745845079422,1
1777498705925480960,-0.09447494149208069,1,-0.02758461236953735,1,0.03346323594450951,1
1777498705935239424,-0.08933918923139572,1,-0.0202398207038641,1,0.05100254714488983,1
1777498705944978944,-0.04761163890361786,1,0.005721914116293192,1,0.01437469199299812,1
1777498705954699008,0.01950148306787014,1,0.03487331420183182,1,0.02476386167109013,1
1777498705964399872,0.08454383909702301,1,0.08158423006534576,1,0.04009978845715523,1
1777498705974081536,0.1310229003429413,1,0.1545246243476868,1,0.03497061878442764,1
1777498705983744256,0.1381891816854477,1,0.2112642824649811,1,0.03076548501849174,1
1777498705993388032,0.1128636598587036,1,0.2520806491374969,1,0.05177460610866547,1
1777498706003012864,0.07455991953611374,1,0.2910758554935455,1,0.05283353477716446,1
1777498706012618240,0.04669263958930969,1,0.2857747673988342,1,0.02718000672757626,1
1777498706022438912,0.03504626452922821,1,0.1859005689620972,1,0.009496192447841167,1
1777498706032473600,0.09773816168308258,1,0.1185325458645821,1,0.04128187894821167,1
1777498706042488576,0.1474804580211639,1,0.06759695708751678,1,0.01582345739006996,1
1777498706052483840,0.172092080116272,1,0.01368515565991402,1,0.1000941544771194,1
1777498706062459136,0.1498871892690659,1,-0.01592071354389191,1,0.05800211057066917,1
1777498706072415232,0.07915626466274261,1,-0.01361276209354401,1,0.03875791653990746,1
1777498706082352640,-0.04144609346985817,1,-0.01105858106166124,1,0.05087869986891747,1
1777498706092270336,-0.140759065747261,1,-0.05429220944643021,1,0.05644682049751282,1
1777498706102168576,-0.200325608253479,1,-0.1009860932826996,1,0.06075311452150345,1
1777498706112047360,-0.1861341446638107,1,-0.1617044657468796,1,0.04927105456590652,1
1777498706121906688,-0.1753037124872208,1,-0.2263438254594803,1,0.04082317650318146,1
1777498706131746560,-0.1300310790538788,1,-0.2997702360153198,1,0.01816730014979839,1
1777498706141566976,-0.08834472298622131,1,-0.3561593890190125,1,0.03877896443009377,1
1777498706151367936,-0.05359670892357826,1,-0.3529497981071472,1,0.04873237758874893,1
1777498706161149952,-0.06419035047292709,1,-0.3134733140468597,1,0.04792077466845512,1
1777498706170912256,-0.07670903950929642,1,-0.264838308095932,1,0.04974082484841347,1
1777498706180655360,-0.08392641693353653,1,-0.1915780603885651,1,0.04464669153094292,1
1777498706190379264,-0.04950634762644768,1,-0.1046791821718216,1,0.03862450271844864,1
1777498706200083968,-0.005012811627238989,1,-0.01347820926457644,1,0.05584490671753883,1
1777498706209769216,0.05333282425999641,1,0.07124295085668564,1,0.04327742010354996,1
1777498706219436032,0.1084151193499565,1,0.1412347406148911,1,0.02927827648818493,1
1777498706229083392,0.13486647605896,1,0.2125556766986847,1,0.04312295466661453,1
1777498706238712320,0.1407629251480103,1,0.2863649129867554,1,0.04060495272278786,1
1777498706248323840,0.119795136153698,1,0.3281930983066559,1,0.02652782388031483,1
1777498706258155264,0.08606895059347153,1,0.332906037569046,1,0.04728187248110771,1
1777498706268204288,0.06017132848501205,1,0.3121268451213837,1,0.047382652759552,1
1777498706278233600,0.0434107780456543,1,0.2633002698421478,1,0.03834686428308487,1
1777498706288242944,0.02168409898877144,1,0.1837247014045715,1,0.06592559814453125,1
1777498706298232576,0.01920053735375404,1,0.09575141221284866,1,0.03644055500626564,1
1777498706308203008,-0.008343607187271118,1,0.01129472721368074,1,0.04311595857143402,1
1777498706318153984,-0.03267842903733253,1,-0.08467818051576614,1,0.03637105226516724,1
1777498706328085504,-0.06914374232292175,1,-0.1747477948665619,1,0.03020821698009968,1
1777498706337997056,-0.1140648275613785,1,-0.2308712154626846,1,0.03226003795862198,1
1777498706347889408,-0.1733534783124924,1,-0.2484434843063354,1,0.0394398458302021,1
1777498706357762304,-0.2210115343332291,1,-0.2508651316165924,1,0.01993696764111519,1
1777498706367615488,-0.2409717589616776,1,-0.2553724944591522,1,0.04011481627821922,1
1777498706377449216,-0.2092049419879913,1,-0.2538197338581085,1,0.05538026243448257,1
1777498706387263744,-0.1456615030765533,1,-0.2323924601078033,1,0.04942744970321655,1
1777498706397059072,-0.07335161417722702,1,-0.1908116936683655,1,0.04411981254816055,1
1777498706406834944,-0.002398832701146603,1,-0.1479266583919525,1,0.07410106062889099,1
1777498706416591872,0.06098580360412598,1,-0.107623778283596,1,0.01310119219124317,1
1777498706426329344,0.09473305940628052,1,-0.07814250886440277,1,0.06986647844314575,1
1777498706436047360,0.1025395616889,1,0.004434932488948107,1,0.05070611089468002,1
1777498706445746432,0.1064320579171181,1,0.0493156798183918,1,0.03910122066736221,1
1777498706455426048,0.08350558578968048,1,0.0760088786482811,1,0.05563744530081749,1
1777498706465086720,0.07501652091741562,1,0.1339579373598099,1,0.02131931856274605,1
1777498706474731264,0.08164709061384201,1,0.181573361158371,1,0.0414140485227108,1
1777498706484357120,0.1021556556224823,1,0.1486975252628326,1,0.04855063930153847,1
1777498706493963776,0.1180041655898094,1,0.1224197223782539,1,0.04828105494379997,1
1777498706504030464,0.1112077981233597,1,0.1398842930793762,1,0.02415806241333485,1
1777498706514077440,0.09446173161268234,1,0.1247227340936661,1,0.05166285485029221,1
1777498706524104960,0.06842548400163651,1,0.08534494787454605,1,0.02503286860883236,1
1777498706534112512,0.03171167522668839,1,0.03430996090173721,1,0.05452990904450417,1
1777498706544100608,-0.003277289681136608,1,-0.007209137082099915,1,0.0418718159198761,1
1777498706554068736,-0.04776284098625183,1,-0.05186153203248978,1,0.04314319044351578,1
1777498706564017408,-0.09690791368484497,1,-0.1163805201649666,1,0.03290893882513046,1
1777498706573946112,-0.1534064114093781,1,-0.1601914763450623,1,0.04517346993088722,1
1777498706583855616,-0.1824979782104492,1,-0.1882999539375305,1,0.03213321417570114,1
1777498706593745152,-0.1749271154403687,1,-0.2138475030660629,1,0.01705071330070496,1
1777498706603615488,-0.1350367516279221,1,-0.2319326996803284,1,0.06019030138850212,1
1777498706613466112,-0.06318379193544388,1,-0.2553650438785553,1,0.06722865253686905,1
1777498706623297280,-0.02197657339274883,1,-0.2544292509555817,1,0.0561780221760273,1
1777498706633110784,-0.01642957329750061,1,-0.2347525805234909,1,0.07704164087772369,1
1777498706642905088,-0.01482329517602921,1,-0.1320924013853073,1,0.02270860783755779,1
1777498706652680448,-0.01895708404481411,1,-0.06302303075790405,1,-0.008917681872844696,1
1777498706662436096,-0.0007596900104545057,1,-0.008594752289354801,1,0.06656917929649353,1
1777498706672173056,0.02603711374104023,1,0.08715222030878067,1,0.06774834543466568,1
1777498706681890816,0.06784194707870483,1,0.1398610770702362,1,0.03136691078543663,1
1777498706691589376,0.1065329313278198,1,0.1931348443031311,1,0.02060791477560997,1
1777498706701268736,0.1356491595506668,1,0.268478125333786,1,0.02210281789302826,1
1777498706710929408,0.1350669413805008,1,0.3268417418003082,1,0.03810304775834084,1
1777498706720570880,0.09980455785989761,1,0.3391094207763672,1,0.01271166931837797,1
1777498706730193152,0.04583927616477013,1,0.2931970059871674,1,0.06855462491512299,1
1777498706740032512,0.009015795774757862,1,0.2351828366518021,1,0.01517687272280455,1
1777498706750087936,-0.006217982620000839,1,0.1402950882911682,1,0.07071123272180557,1
1777498706760123648,0.001806551124900579,1,0.01508491020649672,1,0.01933848112821579,1
1777498706770139392,-0.01794770732522011,1,-0.1006800904870033,1,0.04984027519822121,1
1777498706780135680,-0.04898714274168015,1,-0.1786172688007355,1,0.02604171074926853,1
1777498706790114304,-0.07478597015142441,1,-0.2266724705696106,1,0.0522024855017662,1
1777498706800073472,-0.08978661894798279,1,-0.2507065832614899,1,0.05038192868232727,1
1777498706810013440,-0.09398955851793289,1,-0.2131336480379105,1,0.04162082821130753,1
1777498706819933952,-0.07816597819328308,1,-0.1494343429803848,1,0.04319169744849205,1
1777498706829835264,-0.02174657955765724,1,-0.04290501773357391,1,0.05759959295392036,1
1777498706839717376,0.04459322243928909,1,0.01040972862392664,1,0.01720079034566879,1
1777498706849580288,0.07615946978330612,1,0.09854795038700104,1,0.05151274055242538,1
1777498706859423232,0.08027444034814835,1,0.2074673026800156,1,-0.002976559801027179,1
1777498706869247232,0.06490702927112579,1,0.2833797037601471,1,0.06214895099401474,1
1777498706879051520,0.07631231844425201,1,0.2852586507797241,1,0.01829885691404343,1
1777498706888836608,0.07992490381002426,1,0.2373703122138977,1,0.07520408928394318,1
1777498706898602496,0.09728246927261353,1,0.2185135334730148,1,0.03050601854920387,1
1777498706908349440,0.08395808935165405,1,0.1537940800189972,1,0.0405726432800293,1
1777498706918077184,0.06523585319519043,1,0.06554929912090302,1,0.006773179862648249,1
1777498706927785728,0.03346626088023186,1,-0.003258309327065945,1,0.05664238333702087,1
1777498706937475072,-0.006836562417447567,1,-0.05637217685580254,1,0.0336642898619175,1
1777498706947145728,-0.04352332279086113,1,-0.111700713634491,1,0.07171577960252762,1
1777498706956797184,-0.06116405129432678,1,-0.1618818342685699,1,0.03650639951229095,1
1777498706966429696,-0.06461022049188614,1,-0.1696208417415619,1,0.05226632580161095,1
1777498706976278784,-0.07230512797832489,1,-0.1679580062627792,1,0.04484115168452263,1
1777498706986343936,-0.07401677966117859,1,-0.1709496527910233,1,0.05394045636057854,1
1777498706996389376,-0.08154588937759399,1,-0.1481412649154663,1,0.01944051124155521,1
1777498707006415872,-0.08276326209306717,1,-0.085922010242939,1,0.02850585430860519,1
1777498707016422912,-0.06092748790979385,1,-0.03849327191710472,1,0.03618569299578667,1
1777498707026410240,-0.02822931297123432,1,0.01826908439397812,1,0.04401998966932297,1
1777498707036377856,0.004557066597044468,1,0.07764358818531036,1,0.0446021556854248,1
1777498707046325760,0.03362639248371124,1,0.1275795698165894,1,0.04334076121449471,1
1777498707056253952,0.05618034675717354,1,0.1422906219959259,1,0.03757822513580322,1
1777498707066162432,0.05874589085578918,1,0.1391481459140778,1,0.04232523590326309,1
1777498707076051200,0.03654274344444275,1,0.1125685423612595,1,0.05353080853819847,1
1777498707085921792,0.006449402309954166,1,0.05980353057384491,1,0.05064285174012184,1
1777498707095773952,-0.02181967161595821,1,-0.00591749045997858,1,0.0403142012655735,1
1777498707105606912,-0.02618441917002201,1,-0.06724129617214203,1,0.04898342862725258,1
1777498707115420160,-0.01780332252383232,1,-0.1065741255879402,1,0.04371945187449455,1
1777498707125214208,-0.01697767712175846,1,-0.1367833465337753,1,0.04681438952684402,1
1777498707134989056,-0.01987962424755096,1,-0.1450926512479782,1,0.03093884326517582,1
1777498707144744448,-0.02684177830815315,1,-0.1169997006654739,1,0.04202283546328545,1
1777498707154480384,-0.02130942419171333,1,-0.0648011714220047,1,0.04298942908644676,1
1777498707164197120,-0.003601084230467677,1,-0.02224884927272797,1,0.04337821900844574,1
1777498707173894656,0.01831516437232494,1,0.01761575601994991,1,0.03662334010004997,1
1777498707183573504,0.03119689039885998,1,0.06715761125087738,1,0.03868752345442772,1
1777498707193233152,0.03758860751986504,1,0.1072838455438614,1,0.03062850795686245,1
1777498707202873344,0.02747205272316933,1,0.1095656007528305,1,0.03435223922133446,1
1777498707212730112,0.00731118768453598,1,0.1024818569421768,1,0.0517585389316082,1
1777498707222803200,-0.02120497263967991,1,0.05815574526786804,1,0.03715813159942627,1
1777498707232856320,-0.03543949499726295,1,-0.003465990535914898,1,0.04884137213230133,1
1777498707242889728,-0.03944918513298035,1,-0.05857527628540993,1,0.03604521602392197,1
1777498707252903424,-0.04337028786540031,1,-0.09653560817241669,1,0.05382617935538292,1
1777498707262897664,-0.0374656543135643,1,-0.1196365803480148,1,0.03007446601986885,1
1777498707272872192,-0.03620908036828041,1,-0.1266881376504898,1,0.05099087208509445,1
1777498707282827008,-0.02717415802180767,1,-0.0924370214343071,1,0.02660647965967655,1
1777498707292762368,-0.0147734684869647,1,-0.05086074396967888,1,0.04555169492959976,1
1777498707302678016,0.01099548861384392,1,-0.02266214787960052,1,0.04767570644617081,1
1777498707312573696,0.0370732881128788,1,0.04696880280971527,1,0.04626649245619774,1
1777498707322449920,0.04405200481414795,1,0.08736648410558701,1,0.03899162262678146,1
1777498707332306944,0.05352038517594337,1,0.1162403300404549,1,0.04109923914074898,1
1777498707342144512,0.06670006364583969,1,0.1200910434126854,1,0.02744925208389759,1
1777498707351962368,0.07229989767074585,1,0.1295889317989349,1,0.03940680250525475,1
1777498707361761280,0.07122262567281723,1,0.1296553462743759,1,0.0249030739068985,1
1777498707371540480,0.06357790529727936,1,0.1092496514320374,1,0.03814508393406868,1
1777498707381299968,0.06305567175149918,1,0.08394334465265274,1,0.01149385236203671,1
1777498707391044608,0.0489196851849556,1,0.05399245768785477,1,0.03946969658136368,1
1777498707400770560,0.04020750150084496,1,0.03850459307432175,1,0.007312960457056761,1
1777498707410477824,0.02652486972510815,1,0.03298069909214973,1,0.03442016988992691,1
1777498707420166144,0.02542283944785595,1,0.05100711062550545,1,-0.008584454655647278,1
1777498707429836032,0.01351010520011187,1,0.0952991396188736,1,0.006313532125204802,1
1777498707439487232,0.01850798912346363,1,0.1386577486991882,1,-0.002052750438451767,1
1777498707449353984,0.01241439580917358,1,0.2012529969215393,1,0.0297246165573597,1
1777498707459435264,0.03388978540897369,1,0.2332769334316254,1,0.01588026247918606,1
1777498707469496576,0.06936364620923996,1,0.2206934243440628,1,0.06069071590900421,1
1777498707479538432,0.08882396668195724,1,0.1829202473163605,1,0.09231426566839218,1
1777498707489560832,0.1052053272724152,1,0.1642369329929352,1,-0.001556457253172994,1
1777498707499564032,0.06889700144529343,1,0.1221873611211777,1,0.02918407320976257,1
1777498707509547776,0.04149011522531509,1,0.0356198363006115,1,0.008426685817539692,1
1777498707519511552,-0.01420078799128532,1,-0.07229506969451904,1,0.100839301943779,1
1777498707529455872,-0.02690525539219379,1,-0.1634561717510223,1,0.0503382720053196,1
1777498707539380736,-0.07156743109226227,1,-0.2004333734512329,1,0.09186724573373795,1
1777498707549285888,-0.07552450895309448,1,-0.2559794485569,1,0.02810019254684448,1
1777498707559171584,-0.07233864068984985,1,-0.283250093460083,1,0.1035267114639282,1
1777498707569037568,-0.02329941280186176,1,-0.288710355758667,1,0.08893310278654099,1
1777498707578884608,-0.001590288011357188,1,-0.2994096577167511,1,0.064866803586483,1
1777498707588711680,-0.01517898216843605,1,-0.296970933675766,1,0.0642181932926178,1
1777498707598519808,-0.0354403518140316,1,-0.2931042313575745,1,0.05698191002011299,1
1777498707608308480,-0.05474689975380898,1,-0.2526577711105347,1,0.05690852180123329,1
1777498707618077696,-0.07726757973432541,1,-0.1782191246747971,1,0.05215321108698845,1
1777498707627827456,-0.09418545663356781,1,-0.08083453774452209,1,0.04366617649793625,1
1777498707637558272,-0.1165381371974945,1,-0.02041994594037533,1,0.04956630617380142,1
1777498707647269632,-0.1220980584621429,1,0.02978756278753281,1,0.03781858459115028,1
1777498707656964096,-0.1168727651238441,1,0.0726064071059227,1,0.04498358070850372,1
1777498707666641152,-0.09860106557607651,1,0.09983360022306442,1,0.05783450230956078,1
1777498707676299264,-0.06738384068012238,1,0.1265948563814163,1,0.04615604132413864,1
1777498707686174720,-0.0190513227134943,1,0.1187911778688431,1,0.03131657466292381,1
1777498707696267520,0.04065153375267982,1,0.09302563220262527,1,0.03424785658717155,1
1777498707706340352,0.08631788194179535,1,0.09252462536096573,1,0.03673512116074562,1
1777498707716393728,0.1069478616118431,1,0.08907710760831833,1,0.05203051865100861,1
1777498707726427392,0.09267835319042206,1,0.07972423732280731,1,0.04163772240281105,1
1777498707736441344,0.05938512459397316,1,0.06861224770545959,1,0.03267955034971237,1
1777498707746435584,0.02105583995580673,1,0.07218851894140244,1,0.02906138822436333,1
1777498707756409856,-0.004111602902412415,1,0.05946006625890732,1,0.05290648713707924,1
1777498707766364928,-0.01703351177275181,1,0.03176635503768921,1,0.04639165848493576,1
1777498707776300032,-0.01829650439321995,1,0.006269345059990883,1,0.04693708941340446,1
1777498707786215680,-0.02033197320997715,1,-0.01887970976531506,1,0.03016882576048374,1
1777498707796111872,-0.014889863319695,1,-0.04025109857320786,1,0.04467862471938133,1
1777498707805990144,-0.009683585725724697,1,-0.06561577320098877,1,0.04209351167082787,1
1777498707815848704,-0.00938015803694725,1,-0.07922686636447906,1,0.05329781025648117,1
1777498707825688064,-0.01869024708867073,1,-0.08349940925836563,1,0.03960247337818146,1
1777498707835507968,-0.02975443936884403,1,-0.08296547830104828,1,0.04489415138959885,1
1777498707845308416,-0.03456927835941315,1,-0.07115074992179871,1,0.03772421553730965,1
1777498707855089920,-0.03598546609282494,1,-0.05707470327615738,1,0.04764178767800331,1
1777498707864851712,-0.03779250755906105,1,-0.03620295599102974,1,0.04368239641189575,1
1777498707874593792,-0.03185264766216278,1,-0.02331478334963322,1,0.04110988602042198,1
1777498707884316928,-0.01476022228598595,1,-0.01330478768795729,1,0.03923526778817177,1
1777498707894021120,0.005148456431925297,1,0.001133794197812676,1,0.04225781187415123,1
1777498707903706112,0.0188740324229002,1,0.01893045008182526,1,0.05330588668584824,1
1777498707913372160,0.02643664740025997,1,0.03394960984587669,1,0.03775239363312721,1
1777498707923019008,0.02916897274553776,1,0.04433207586407661,1,0.03667371720075607,1
1777498707933119232,0.03028642572462559,1,0.0514906644821167,1,0.03409510850906372,1
1777498707943199744,0.02914039045572281,1,0.06065387278795242,1,0.04103868827223778,1
1777498707953260288,0.01934792101383209,1,0.06171885132789612,1,0.03957569226622581,1
1777498707963301376,0.01144316606223583,1,0.05647092312574387,1,0.04266030713915825,1
1777498707973322752,0.007479944732040167,1,0.04297491908073425,1,0.03396329656243324,1
1777498707983324416,0.008476017042994499,1,0.03039124980568886,1,0.03840072080492973,1
1777498707993306368,0.006558466702699661,1,0.01195439137518406,1,0.04480341449379921,1
1777498708003268864,0.003296051407232881,1,-0.006713146809488535,1,0.04450685530900955,1
1777498708013211392,-0.005162723362445831,1,-0.02506251633167267,1,0.03772517293691635,1
1777498708023134464,-0.0112269539386034,1,-0.03779023885726929,1,0.03943593800067902,1
1777498708033037824,-0.01589185371994972,1,-0.04412161931395531,1,0.04285818710923195,1
1777498708042921728,-0.01876159198582172,1,-0.05233724415302277,1,0.04843535646796227,1
1777498708052786176,-0.02275977469980717,1,-0.05233064293861389,1,0.04422400146722794,1
1777498708062630912,-0.02611542120575905,1,-0.04818993434309959,1,0.04424359649419785,1
1777498708072456448,-0.02161239087581635,1,-0.04275809228420258,1,0.0455024428665638,1
1777498708082262272,-0.01280579902231693,1,-0.03069727495312691,1,0.04309898242354393,1
1777498708092051712,-0.004516694229096174,1,-0.01832717470824718,1,0.04389265924692154,1
1777498708101821952,0.001010210020467639,1,-0.005948154721409082,1,0.03959377110004425,1
1777498708111572736,0.004947507288306952,1,0.007375719491392374,1,0.03919235244393349,1
1777498708121304576,0.008414016105234623,1,0.02022616751492023,1,0.03842531144618988,1
1777498708131016960,0.01053935382515192,1,0.03219278529286385,1,0.04167972505092621,1
1777498708140710400,0.0111742252483964,1,0.03980330377817154,1,0.04224181920289993,1
1777498708150384384,0.01227066572755575,1,0.04420320689678192,1,0.03662268817424774,1
1777498708160039424,0.01209584437310696,1,0.04075087606906891,1,0.03833526372909546,1
1777498708169915136,0.01410643011331558,1,0.03599159047007561,1,0.0414234884083271,1
1777498708180011520,0.01365790143609047,1,0.02215232513844967,1,0.04107487574219704,1
1777498708190088192,0.09570422768592834,1,-0.2268050312995911,1,-0.11032435297966,1
1777498708200145920,-0.07754720002412796,1,-0.1340955346822739,1,0.06802874803543091,1
1777498708210184448,-0.04963424429297447,1,-0.0455583930015564,1,0.1774599999189377,1
1777498708220203264,0.001851711422204971,1,-0.01253184117376804,1,-0.01554989255964756,1
1777498708230202624,-0.002049189060926437,1,-0.006502035073935986,1,0.07467976957559586,1
1777498708240182784,-0.2488516867160797,1,0.3096807599067688,1,0.6124254465103149,1
1777498708250143232,0.2551224529743195,1,0.5108546614646912,1,-0.3084561228752136,1
1777498708260083968,0.09575273096561432,1,0.1916941851377487,1,0.3386150002479553,1
1777498708270005504,0.01648710295557976,1,-0.006176799535751343,1,-0.1469553709030151,1
1777498708279908096,-0.07387775182723999,1,-0.08516688644886017,1,0.3837881088256836,1
1777498708289791488,-0.02253441326320171,1,0.04230441898107529,1,-0.1932709217071533,1
1777498708299655168,-0.009736735373735428,1,0.07381302863359451,1,0.281682014465332,1
1777498708309499904,0.002256399020552635,1,0.06113042682409286,1,-0.2443911731243134,1
1777498708319325184,-0.003765056375414133,1,0.03574095293879509,1,0.2892090678215027,1
1777498708329131520,0.02265067026019096,1,0.03519038483500481,1,-0.1553182303905487,1
1777498708338920960,0.004531488753855228,1,0.02067993953824043,1,0.2414440214633942,1
1777498708348693504,0.03169220685958862,1,0.01527306158095598,1,-0.1480775475502014,1
1777498708358446848,-0.001190447248518467,1,0.01852564699947834,1,0.1965433359146118,1
1777498708368181504,0.03643190488219261,1,-0.004545058123767376,1,-0.09139570593833923,1
1777498708377897216,-0.008191525936126709,1,-0.000277317245490849,1,0.1465648710727692,1
1777498708387593728,0.007622623816132545,1,-0.01618408784270287,1,-0.006810002028942108,1
1777498708397271552,-0.02080692164599895,1,0.03233823552727699,1,0.07526830583810806,1
1777498708407162368,-0.007360134273767471,1,-0.009144633077085018,1,0.004880990833044052,1
1777498708417265152,-0.01830119825899601,1,-0.0242002010345459,1,0.02498041465878487,1
1777498708427349248,-0.003316638059914112,1,-0.03916728496551514,1,0.08146175742149353,1
1777498708437413632,-0.003770678769797087,1,-0.01560601312667131,1,0.007813476026058197,1
1777498708447458304,-0.008620563894510269,1,-0.01426615472882986,1,0.09131871908903122,1
1777498708457483776,0.01019630860537291,1,0.009757418185472488,1,-0.01309363543987274,1
1777498708467489536,0.0128420852124691,1,0.1188756078481674,1,0.0370543859899044,1
1777498708477475584,0.03812349215149879,1,-0.01171935349702835,1,-0.01467793807387352,1
1777498708487441920,-0.0654260665178299,1,0.02462189458310604,1,0.1662349253892899,1
1777498708497388544,0.0007499339990317822,1,0.04867872968316078,1,-0.02905555814504623,1
1777498708507315968,0.01332401018589735,1,0.03442793339490891,1,0.1039029359817505,1
1777498708517223936,0.0102201821282506,1,0.03941606730222702,1,-0.02629553899168968,1
1777498708527112448,-0.0001396196894347668,1,0.02030699513852596,1,0.09371486306190491,1
1777498708536983040,0.0181783102452755,1,-0.03029049932956696,1,0.02618081122636795,1
1777498708546836736,0.004739623051136732,1,-0.01573707908391953,1,0.06278275698423386,1
1777498708556670720,-0.006870405748486519,1,-0.0180392786860466,1,0.01380782295018435,1
1777498708566485504,-0.01071441918611526,1,-0.01521895080804825,1,0.08265732228755951,1
1777498708576280832,-0.001238383119925857,1,-0.02270262315869331,1,-0.002647783141583204,1
1777498708586056704,-0.01752643287181854,1,-0.01099991053342819,1,0.08918367326259613,1
1777498708595813120,-0.005710165947675705,1,-0.01513017807155848,1,0.004124639555811882,1
1777498708605550592,-0.01002935413271189,1,-0.007009848020970821,1,0.06632362306118011,1
1777498708615268864,-0.002298729494214058,1,0.008462704718112946,1,0.03667181730270386,1
1777498708624967936,0.00175699929241091,1,0.02615782804787159,1,0.0532243549823761,1
1777498708634647552,0.003010110929608345,1,0.02612875774502754,1,0.01374424993991852,1
1777498708644541952,0.04137947037816048,1,0.08922537416219711,1,0.05712931230664253,1
1777498708654650880,-0.02601129747927189,1,0.1858109086751938,1,0.03617056086659431,1
1777498708664739840,-0.01729394495487213,1,0.05454351380467415,1,0.01097838208079338,1
1777498708674808832,-0.02196856215596199,1,0.02816588431596756,1,0.04597560688853264,1
1777498708684857856,0.004658414982259274,1,0.003299483563750982,1,0.02539152838289738,1
1777498708694887680,-0.004642152693122625,1,0.0006682256935164332,1,0.05718687176704407,1
1777498708704897536,0.002080044010654092,1,-0.003439955413341522,1,0.06957143545150757,1
1777498708714887680,0.005863151513040066,1,0.008587275631725788,1,-0.01383599452674389,1
1777498708724857856,-0.001935420092195272,1,-0.02473676949739456,1,0.08736969530582428,1
1777498708734808832,0.01381541322916746,1,-0.0343739353120327,1,0.009365439414978027,1
1777498708744739840,-0.008171587251126766,1,-0.03373666107654572,1,0.0791245624423027,1
1777498708754651136,-0.006022911984473467,1,-0.04562083631753922,1,0.0176196675747633,1
1777498708764543232,-0.02475656196475029,1,-0.03867089748382568,1,0.061619583517313,1
1777498708774415872,-0.01602518744766712,1,-0.03493666276335716,1,0.02666746824979782,1
1777498708784268800,-0.02641537040472031,1,-0.02701044082641602,1,0.05859005823731422,1
1777498708794102528,-0.01762920431792736,1,-0.01743073388934135,1,0.04129201173782349,1
1777498708803916288,-0.01565638184547424,1,-0.00355450576171279,1,0.03460701182484627,1
1777498708813710848,-0.008234729059040546,1,0.007068857550621033,1,0.05380526930093765,1
1777498708823487488,0.001329306280240417,1,0.009053431451320648,1,0.02929207310080528,1
1777498708833246208,0.006696003023535013,1,0.009861406870186329,1,0.0571906603872776,1
1777498708842985728,0.01495178043842316,1,0.01466146949678659,1,0.0379159189760685,1
1777498708852705792,0.01051050890237093,1,0.02235050313174725,1,0.04947703331708908,1
1777498708862406912,0.01347407232969999,1,0.02838983573019505,1,0.0302074458450079,1
1777498708872088576,0.01177752111107111,1,0.03081068955361843,1,0.04720417037606239,1
1777498708881987072,0.01505047641694546,1,0.02932944521307945,1,0.03751689195632935,1
1777498708892101888,0.01172196492552757,1,0.02511154115200043,1,0.04560312256217003,1
1777498708902197504,0.009356251917779446,1,0.01935321278870106,1,0.04043091088533401,1
1777498708912273152,0.00574235524982214,1,0.01446019951254129,1,0.03621043264865875,1
1777498708922330112,0.001922146882861853,1,0.006162480916827917,1,0.04591121152043343,1
1777498708932367872,0.001275102840736508,1,0.001200195401906967,1,0.03944134339690208,1
1777498708942386176,-0.0005903891287744045,1,-0.01094438228756189,1,0.04190314188599586,1
1777498708952385024,-0.00367012619972229,1,-0.01800467818975449,1,0.04408080503344536,1
1777498708962364928,-0.005021100863814354,1,-0.02346183732151985,1,0.04337538406252861,1
1777498708972325376,-0.01037963479757309,1,-0.02558433450758457,1,0.04372414946556091,1
1777498708982266624,-0.0108596496284008,1,-0.02496472373604774,1,0.04441580176353455,1
1777498708992188416,-0.01271948963403702,1,-0.02373571693897247,1,0.04582426324486732,1
1777498709002092288,-0.009768554009497166,1,-0.02289130166172981,1,0.04258458688855171,1
1777498709011976960,-0.00932723842561245,1,-0.01651092059910297,1,0.04780860245227814,1
1777498709021843712,-0.004931801464408636,1,-0.0106009105220437,1,0.04279965162277222,1
1777498709031691264,-0.0005906909354962409,1,-0.002586220391094685,1,0.0436151959002018,1
1777498709041519360,0.002853363985195756,1,0.007109757512807846,1,0.03952905908226967,1
1777498709051328000,0.006660451181232929,1,0.01168348547071218,1,0.04050128906965256,1
1777498709061117696,0.00815898459404707,1,0.01772939041256905,1,0.04145308583974838,1
1777498709070887424,0.009133251383900642,1,0.02137532830238342,1,0.04411925375461578,1
1777498709080638208,0.009030000306665897,1,0.02291424386203289,1,0.04105278849601746,1
1777498709090369536,0.009766718372702599,1,0.02194941788911819,1,0.04036278277635574,1
1777498709100081920,0.009054141119122505,1,0.02267629280686378,1,0.03665797784924507,1
1777498709109774848,0.007060681004077196,1,0.01339959632605314,1,0.04263005033135414,1
1777498709119684608,0.004616378340870142,1,0.008070133626461029,1,0.04140420630574226,1
1777498709129810944,0.001874856534413993,1,0.002890014555305243,1,0.04089706763625145,1
1777498709139917824,0.0009176022140309215,1,-0.004804225638508797,1,0.0446382500231266,1
1777498709150005760,-0.00586665328592062,1,-0.01050610654056072,1,0.0418970100581646,1
1777498709160074240,-0.008995962329208851,1,-0.019280094653368,1,0.04551424831151962,1
1777498709170122752,-0.01778434030711651,1,-0.02367098443210125,1,0.0402594655752182,1
1777498709180151552,-0.1436896622180939,1,-0.03420695662498474,1,0.08095534145832062,1
1777498709190160640,-0.3124874234199524,1,-0.02453530207276344,1,-0.007622698787599802,1
1777498709200150016,-0.485807865858078,1,-0.1403294205665588,1,0.01469743065536022,1
1777498709210119936,-0.1342761367559433,1,-0.2555194199085236,1,-0.1059145629405975,1
1777498709220070400,0.300168514251709,1,-0.4195099174976349,1,0.2020269483327866,1
1777498709230001664,0.4220390319824219,1,-0.3757510781288147,1,0.311845988035202,1
1777498709239913984,0.3096692562103271,1,-0.4093788266181946,1,-0.1564084738492966,1
1777498709249806848,0.05922773107886314,1,-0.2407661080360413,1,-0.0697159618139267,1
1777498709259680256,-0.180810421705246,1,0.05963678658008575,1,0.1373094320297241,1
1777498709269534720,-0.2429241836071014,1,0.1137003228068352,1,0.01248657889664173,1
1777498709279373568,-0.3191983103752136,1,0.1693383604288101,1,0.08042152971029282,1
1777498709289193984,-0.219415083527565,1,0.3131744563579559,1,-0.06262022256851196,1
1777498709298995456,-0.01652541011571884,1,0.3504745364189148,1,0.02761700004339218,1
1777498709308777728,0.2488958388566971,1,0.3106271326541901,1,0.02975430339574814,1
1777498709318541824,0.3999328911304474,1,0.2894111573696136,1,0.1378115564584732,1
1777498709328287232,0.4983478188514709,1,0.3242976069450378,1,-0.06361164897680283,1
1777498709338013696,0.3882951736450195,1,0.3011748790740967,1,0.05909709259867668,1
1777498709347721472,0.2625209987163544,1,0.2994183301925659,1,-0.06110019236803055,1
1777498709357411328,0.06506118178367615,1,0.3591570854187012,1,0.09575486928224564,1
1777498709367550976,-0.0651201531291008,1,0.3349609971046448,1,0.03411497175693512,1
1777498709377670912,-0.1943288594484329,1,0.2730662822723389,1,0.1092502847313881,1
1777498709387771136,-0.2155734598636627,1,0.1539964824914932,1,0.01457224413752556,1
1777498709397851648,-0.180737629532814,1,0.04696319252252579,1,-0.01893045753240585,1
1777498709407911936,-0.061179518699646,1,-0.06016537547111511,1,0.04360001534223557,1
1777498709417952768,0.04866785183548927,1,-0.1951598227024078,1,0.09617555886507034,1
1777498709427974144,0.09072890132665634,1,-0.2573839128017426,1,0.02074757218360901,1
1777498709437975296,0.08306340873241425,1,-0.312464714050293,1,0.003899155184626579,1
1777498709447956992,0.03903527185320854,1,-0.3620591461658478,1,0.0539298951625824,1
1777498709457918720,-0.03211996704339981,1,-0.3255408108234406,1,0.07609570026397705,1
1777498709467860992,-0.1366655975580215,1,-0.2392582595348358,1,0.09846173971891403,1
1777498709477785088,-0.2095441371202469,1,-0.1981962025165558,1,0.0463157519698143,1
1777498709487689984,-0.233305811882019,1,-0.1729245185852051,1,0.0596185103058815,1
1777498709497574912,-0.182293176651001,1,-0.13626928627491,1,-0.024942921474576,1
1777498709507440640,-0.1027934402227402,1,-0.1005728244781494,1,0.07546380907297134,1
1777498709517286656,-0.01006887294352055,1,-0.09728382527828217,1,0.07027871161699295,1
1777498709527113472,0.05170730873942375,1,-0.08254148811101913,1,0.0521124079823494,1
1777498709536920576,0.08574704080820084,1,-0.05541210994124413,1,0.01067617442458868,1
1777498709546708224,0.08743896335363388,1,0.01154554449021816,1,0.05744844675064087,1
1777498709556477184,0.07496857643127441,1,0.1158557236194611,1,0.03698908910155296,1
1777498709566226432,0.0342215970158577,1,0.1551845818758011,1,0.03263001888990402,1
1777498709575956224,0.003134243423119187,1,0.165283590555191,1,0.02930578216910362,1
1777498709585666816,-0.002531352220103145,1,0.1777113378047943,1,0.01507032662630081,1
1777498709595358464,0.02127233147621155,1,0.1889317035675049,1,0.04470081999897957,1
1777498709605267456,0.0494408905506134,1,0.1794835031032562,1,0.06432392448186874,1
1777498709615392256,0.06744781136512756,1,0.1463215500116348,1,0.04563190042972565,1
1777498709625497088,0.07055030018091202,1,0.105436198413372,1,0.004398167133331299,1
1777498709635582464,0.06293704360723495,1,0.05539054796099663,1,0.04388315603137016,1
1777498709645648384,0.05400368943810463,1,0.006873743142932653,1,0.03716303780674934,1
1777498709655695360,0.01876101270318031,1,-0.02811409533023834,1,0.07109055668115616,1
1777498709665722624,-0.02543896809220314,1,-0.0550113245844841,1,0.05130236595869064,1
1777498709675730944,-0.05810058489441872,1,-0.06872130185365677,1,0.03517648577690125,1
1777498709685720320,-0.06297128647565842,1,-0.0871322900056839,1,0.03100443631410599,1
1777498709695690496,-0.05290724337100983,1,-0.1030543521046638,1,0.06249038502573967,1
1777498709705641472,-0.03026577457785606,1,-0.10570178180933,1,0.05191072449088097,1
1777498709715572992,-0.02526278421282768,1,-0.1135166063904762,1,0.04701575636863708,1
1777498709725485568,-0.02354848012328148,1,-0.1093718633055687,1,0.03745513409376144,1
1777498709735378688,-0.01907163113355637,1,-0.08148209005594254,1,0.03787660598754883,1
1777498709745253632,-0.01883541420102119,1,-0.04771577939391136,1,0.05439111217856407,1
1777498709755108864,-0.02263238839805126,1,-0.01899109408259392,1,0.0519583523273468,1
1777498709764944896,-0.02392536215484142,1,0.00124137825332582,1,0.03112287633121014,1
1777498709774761216,-0.01259111799299717,1,0.01859112828969955,1,0.03054088540375233,1
1777498709784558592,0.008691211231052876,1,0.04203438013792038,1,0.04562092944979668,1
1777498709794336256,0.02336559817194939,1,0.06399869173765182,1,0.05045446753501892,1
1777498709804094720,0.02568481303751469,1,0.06946323812007904,1,0.04078229889273643,1
1777498709813833984,0.02458250522613525,1,0.0623638704419136,1,0.02803821489214897,1
1777498709823554048,0.0254268329590559,1,0.05872593075037003,1,0.02974328398704529,1
1777498709833254656,0.02776066586375237,1,0.04831923544406891,1,0.043841902166605,1
1777498709843170560,0.01960304193198681,1,0.0368446409702301,1,0.05113799870014191,1
1777498709853301248,0.007630182895809412,1,0.02533842995762825,1,0.03452664986252785,1
1777498709863411712,-0.005679837428033352,1,0.01133787073194981,1,0.03630805760622025,1
1777498709873502720,-0.002118893899023533,1,-0.01085456553846598,1,0.03894598409533501,1
1777498709883573760,0.006562729831784964,1,-0.02357679791748524,1,0.04911885038018227,1
1777498709893625600,0.00556578254327178,1,-0.03010613843798637,1,0.05358550325036049,1
1777498709903657472,6.17686309851706e-05,1,-0.0294062327593565,1,0.03686797246336937,1
1777498709913669888,-0.006235348526388407,1,-0.02428862825036049,1,0.03282871097326279,1
1777498709923662592,-0.002054887125268579,1,-0.01679481752216816,1,0.04131739586591721,1
1777498709933635584,-0.00164344790391624,1,-0.00478342967107892,1,0.05012828856706619,1
1777498709943588608,-0.005138796754181385,1,7.437649765051901e-05,1,0.04578462243080139,1
1777498709953521920,-0.01210354827344418,1,0.004067567642778158,1,0.0342460423707962,1
1777498709963435776,-0.009169378317892551,1,0.006887808442115784,1,0.03398353233933449,1
1777498709973330176,-0.001290896092541516,1,0.01037652883678675,1,0.04598909988999367,1
1777498709983204864,0.0004615423385985196,1,0.007263653445988894,1,0.05108799785375595,1
1777498709993060352,-0.00101583800278604,1,-0.002496252302080393,1,0.04277409240603447,1
1777498710002896128,-0.01000155601650476,1,-0.01280172076076269,1,0.03609945625066757,1
1777498710012712448,-0.004167621489614248,1,-0.01481061428785324,1,0.03523144125938416,1
1777498710022509312,0.006531022023409605,1,-0.01464673317968845,1,0.05094621703028679,1
1777498710032286720,0.01048567425459623,1,-0.009908239357173443,1,0.04808161035180092,1
1777498710042045440,0.008620857261121273,1,-8.967664325609803e-05,1,0.03596741333603859,1
1777498710051788288,-0.002274791477248073,1,0.003043042263016105,1,0.04100359231233597,1
1777498710061512192,-0.006250962615013123,1,0.005934740416705608,1,0.03875371813774109,1
1777498710071217408,-0.009325157850980759,1,0.006530469749122858,1,0.05040539428591728,1
1777498710081138176,-0.01216582581400871,1,5.600339500233531e-05,1,0.04994948953390121,1
1777498710091273984,-0.002741980599239469,1,-0.001959475688636303,1,0.03151753917336464,1
1777498710101390080,0.0173374842852354,1,0.001694243866950274,1,0.03733925521373749,1
1777498710111486464,0.02989388071000576,1,0.008383489213883877,1,0.0502123236656189,1
1777498710121563136,0.02665413357317448,1,0.02321802452206612,1,0.04250040650367737,1
1777498710131619840,0.009129070676863194,1,0.02423512935638428,1,0.04302755370736122,1
1777498710141656576,-0.006415925920009613,1,0.02055555395781994,1,0.03657571226358414,1
1777498710151673856,-0.01627173088490963,1,0.01161685865372419,1,0.04136447235941887,1
1777498710161670912,-0.02389938570559025,1,-0.0007063737139105797,1,0.04815537109971046,1
1777498710171649280,-0.02936682105064392,1,-0.0178406722843647,1,0.05129131674766541,1
1777498710181607936,-0.0251991730183363,1,-0.03978500887751579,1,0.0373849906027317,1
1777498710191546880,-0.01483217068016529,1,-0.05496645346283913,1,0.03642245754599571,1
1777498710201466368,0.005658682901412249,1,-0.06085795536637306,1,0.04391072317957878,1
1777498710211366144,0.01941739395260811,1,-0.05355220288038254,1,0.04594091325998306,1
1777498710221246208,0.01956469751894474,1,-0.03613324463367462,1,0.04191102460026741,1
1777498710231107072,0.002750371815636754,1,-0.01374825462698936,1,0.03745004162192345,1
1777498710240948480,-0.01398698519915342,1,0.01348222699016333,1,0.03485416993498802,1
1777498710250770944,-0.02326719276607037,1,0.03214555978775024,1,0.04320918768644333,1
1777498710260573440,-0.02837411314249039,1,0.03127723932266235,1,0.04869144037365913,1
1777498710270356736,-0.02149873226881027,1,0.02220893278717995,1,0.04043504595756531,1
1777498710280120832,-0.006093411240726709,1,0.005718814209103584,1,0.0366734080016613,1
1777498710289865472,0.01552475895732641,1,-0.005146493669599295,1,0.03883402422070503,1
1777498710299590912,0.03854899853467941,1,-0.00746779702603817,1,0.04334727302193642,1
1777498710309297152,0.0414419025182724,1,-0.005920785944908857,1,0.0462750680744648,1
1777498710319220992,0.02312571182847023,1,0.003993285354226828,1,0.0379432737827301,1
1777498710329361920,-0.009251249954104424,1,0.006141922902315855,1,0.0370757058262825,1
1777498710339482880,-0.03364625200629234,1,0.008255861699581146,1,0.04591419920325279,1
1777498710349584128,-0.03573558479547501,1,-0.001258285134099424,1,0.04645048826932907,1
1777498710359665920,-0.02828509360551834,1,-0.01381413266062737,1,0.05108266323804855,1
1777498710369727744,-0.009574067778885365,1,-0.02833406254649162,1,0.04035413637757301,1
1777498710379769600,0.01284459047019482,1,-0.031684510409832,1,0.0373920202255249,1
1777498710389791744,0.03513326868414879,1,-0.02260356210172176,1,0.0436277724802494,1
1777498710399794176,0.04214353114366531,1,-0.01256052870303392,1,0.04796440899372101,1
1777498710409776896,0.03057235479354858,1,0.008683526888489723,1,0.04263909533619881,1
1777498710419739648,0.007289743982255459,1,0.03029108792543411,1,0.03738162666559219,1
1777498710429682944,-0.01693432405591011,1,0.04862673953175545,1,0.04129902645945549,1
1777498710439608320,-0.02458620816469193,1,0.0552758052945137,1,0.03879451379179955,1
1777498710449514496,-0.01270974334329367,1,0.04708763211965561,1,0.0464421771466732,1
1777498710459401728,0.01370276883244514,1,0.02703876420855522,1,0.04235761985182762,1
1777498710469269504,0.04358318075537682,1,0.01568383723497391,1,0.03530911356210709,1
1777498710479118848,0.07649321109056473,1,0.01823774538934231,1,0.03970269113779068,1
1777498710488949248,0.08609413355588913,1,0.01823919825255871,1,0.04202822595834732,1
1777498710498760704,0.04850428551435471,1,0.04602439701557159,1,0.05000060796737671,1
1777498710508553216,0.0131551381200552,1,0.06076741963624954,1,0.01536262314766645,1
1777498710518327040,-0.03671534359455109,1,0.05021918565034866,1,0.05620947852730751,1
1777498710528081920,-0.0377805233001709,1,0.0187434908002615,1,0.03082269988954067,1
1777498710537817856,-0.06345801055431366,1,0.001030359417200089,1,0.06542199105024338,1
1777498710547534848,-0.04141586646437645,1,-0.03304597735404968,1,0.03434111550450325,1
1777498710557468416,-0.02079314738512039,1,-0.07105603814125061,1,0.03388429060578346,1
1777498710567618048,0.002853916026651859,1,-0.07223440706729889,1,0.02736514434218407,1
1777498710577748224,-0.02279931306838989,1,-0.08675661683082581,1,0.06785684823989868,1
1777498710587858688,-0.03534120321273804,1,-0.09109902381896973,1,0.02133134752511978,1
1777498710597949696,-0.009323215112090111,1,-0.1019810885190964,1,0.05092766135931015,1
1777498710608020992,-0.0007474025478586555,1,-0.07800338417291641,1,0.07430921494960785,1
1777498710618073088,-0.0002450840547680855,1,-0.03879581391811371,1,0.007999831810593605,1
1777498710628105984,-0.02423650585114956,1,0.008473769761621952,1,0.03992148861289024,1
1777498710638119168,-0.01757154054939747,1,0.03415418788790703,1,0.04213708266615868,1
1777498710648112896,-0.006990104448050261,1,0.05174173787236214,1,0.03426536545157433,1
1777498710658087168,0.004659888800233603,1,0.04784271866083145,1,0.05518593639135361,1
1777498710668041984,0.01488045882433653,1,0.03051026724278927,1,0.04660639539361,1
1777498710677977344,0.02787582390010357,1,0.05254014953970909,1,0.03648734465241432,1
1777498710687893504,0.03546186164021492,1,0.0462171770632267,1,0.03083774261176586,1
1777498710697791744,0.03082102350890636,1,0.04211237654089928,1,0.06260649859905243,1
1777498710707670528,0.03531831130385399,1,0.04172169044613838,1,0.003252993803471327,1
1777498710717530368,0.01262720581144094,1,0.01607974991202354,1,0.06312583386898041,1
1777498710727370752,0.006606678478419781,1,0.007356047630310059,1,0.04585108160972595,1
1777498710737192192,-0.009601825848221779,1,7.455782906617969e-05,1,0.04008280858397484,1
1777498710746994176,-0.0237722359597683,1,-0.004914389923214912,1,0.04898112267255783,1
1777498710756777472,-0.02137335948646069,1,-0.02304748073220253,1,0.03577437624335289,1
1777498710766541824,-0.01552224531769753,1,-0.03681208565831184,1,0.03390150889754295,1
1777498710776287488,-0.004822244867682457,1,-0.04940316826105118,1,0.04932773858308792,1
1777498710786014208,-0.002591357100754976,1,-0.05824549496173859,1,0.05853438749909401,1
1777498710795721984,-0.005236674100160599,1,-0.04636449739336967,1,0.03579503297805786,1
1777498710805876736,-0.01795653626322746,1,-0.04092217981815338,1,0.04793461039662361,1
1777498710816011776,-0.01990557089447975,1,-0.02492263354361057,1,0.03737042099237442,1
1777498710826127104,-0.01367305964231491,1,-0.01051187980920076,1,0.03968995437026024,1
1777498710836223232,-0.009947557933628559,1,-0.004851946141570807,1,0.05110036954283714,1
1777498710846299648,0.001690544071607292,1,0.004688430577516556,1,0.03670153766870499,1
1777498710856355840,0.007654841523617506,1,0.01540806237608194,1,0.03168793395161629,1
1777498710866392576,0.01453529577702284,1,0.02311715111136436,1,0.04832926765084267,1
1777498710876409344,0.02099101990461349,1,0.03524655848741531,1,0.03214073553681374,1
1777498710886406400,0.01546796597540379,1,0.03497663140296936,1,0.04551936313509941,1
1777498710896383488,0.01454767771065235,1,0.03242644667625427,1,0.03609227761626244,1
1777498710906340864,0.01166108250617981,1,0.03219245746731758,1,0.04096982255578041,1
1777498710916279296,0.007671131286770105,1,0.02843077853322029,1,0.04432262852787971,1
1777498710926197760,0.00530282873660326,1,0.02214416489005089,1,0.04764493182301521,1
1777498710936096768,0.0011296053417027,1,0.009836062788963318,1,0.03851180523633957,1
1777498710945976832,-0.001083063543774188,1,-0.002984923776239157,1,0.03907637298107147,1
1777498710955838464,-0.001159403356723487,1,-0.01579120755195618,1,0.04369432851672173,1
1777498710965680640,-0.002071864902973175,1,-0.02671244740486145,1,0.0450771227478981,1
1777498710975503616,-0.005340880714356899,1,-0.03249828517436981,1,0.04457396641373634,1
1777498710985306880,-0.009510002098977566,1,-0.03555862605571747,1,0.0445588119328022,1
1777498710995090944,-0.01281528268009424,1,-0.03245633840560913,1,0.03800961002707481,1
1777498711004855808,-0.01562958210706711,1,-0.03000723384320736,1,0.04750841856002808,1
1777498711014601472,-0.009562617167830467,1,-0.02645666711032391,1,0.04697908833622932,1
1777498711024327936,-0.007654074113816023,1,-0.02027495391666889,1,0.04235352203249931,1
1777498711034035200,-0.004799438174813986,1,-0.01300580147653818,1,0.04211176186800003,1
1777498711044202496,0.0002197848516516387,1,-0.004124752711504698,1,0.03823814913630486,1
1777498711054350080,0.005646223202347755,1,0.004696473479270935,1,0.04409449175000191,1
1777498711064478208,0.007132282480597496,1,0.01042918767780066,1,0.04375199601054192,1
1777498711074586880,0.008140305057168007,1,0.01752025634050369,1,0.04122236371040344,1
1777498711084675840,0.009703728370368481,1,0.02285422198474407,1,0.03585444018244743,1
1777498711094745088,0.0098440982401371,1,0.02466748096048832,1,0.04204089567065239,1
1777498711104796416,0.01225111912935972,1,0.02473367005586624,1,0.04141535982489586,1
1777498711114829056,0.01060775853693485,1,0.02164757251739502,1,0.0433829128742218,1
1777498711124842240,0.006951677612960339,1,0.01659095287322998,1,0.04242297261953354,1
1777498711134835968,0.005881381221115589,1,0.01122069545090199,1,0.03924182802438736,1
1777498711144810752,0.004408421460539103,1,0.002833474427461624,1,0.04731941223144531,1
1777498711154765824,0.003463683184236288,1,-0.002991290763020515,1,0.0463428869843483,1
1777498711164701440,-0.0005062264390289783,1,-0.01036544796079397,1,0.04522402584552765,1
1777498711174617600,-0.00437965290620923,1,-0.01528621464967728,1,0.0419984944164753,1
1777498711184515072,-0.005982003174722195,1,-0.01976928301155567,1,0.03814684599637985,1
1777498711194393856,-0.009869949892163277,1,-0.02368339709937572,1,0.04533606022596359,1
1777498711204253184,-0.007912320084869862,1,-0.02402415871620178,1,0.0409095399081707,1
1777498711214093312,-0.008090870454907417,1,-0.02126718685030937,1,0.04054158926010132,1
1777498711223913984,-0.004158963449299335,1,-0.01787181384861469,1,0.03950686007738113,1
1777498711233715712,-0.001697057159617543,1,-0.01242681499570608,1,0.03970316424965858,1
1777498711243498496,0.0006370986811816692,1,-0.006861211732029915,1,0.04560992494225502,1
1777498711253262080,0.002773595042526722,1,-0.001398405758664012,1,0.04156315699219704,1
1777498711263006976,0.001992439385503531,1,0.003855325048789382,1,0.04378003254532814,1
1777498711272733440,0.004967586137354374,1,0.007642933167517185,1,0.03888159245252609,1
1777498711282673152,0.00581076554954052,1,0.01377896405756474,1,0.04162049293518066,1
1777498711292825856,0.008411988615989685,1,0.0154492212459445,1,0.04281529411673546,1
1777498711302958848,0.009672515094280243,1,0.0159490630030632,1,0.03862001001834869,1
1777498711313072896,0.007535984273999929,1,0.01595149748027325,1,0.03984948992729187,1
1777498711323167232,0.009140671230852604,1,0.01146496459841728,1,0.04301508888602257,1
1777498711333242368,0.007517385296523571,1,0.009762589819729328,1,0.04171685501933098,1
1777498711343297536,0.004182323813438416,1,0.004195197951048613,1,0.04597410559654236,1
1777498711353333504,0.002099837409332395,1,4.024064401164651e-05,1,0.03980756178498268,1
1777498711363350016,-9.741622488945723e-05,1,-0.006445495411753654,1,0.03880438208580017,1
1777498711373346816,-0.002288373187184334,1,-0.01292630564421415,1,0.04137170687317848,1
1777498711383324160,-0.003930477425456047,1,-0.01424373127520084,1,0.04329551383852959,1
1777498711393283072,-0.002659127116203308,1,-0.01706499606370926,1,0.04305672273039818,1
1777498711403222272,-0.005190984345972538,1,-0.01914699375629425,1,0.04169570282101631,1
1777498711413144320,-0.005888393148779869,1,-0.02125945687294006,1,0.04094265028834343,1
1777498711423048448,-0.003568485146388412,1,-0.01817641407251358,1,0.04471122473478317,1
1777498711432933376,0.005798916332423687,1,-0.01820259168744087,1,0.02379501238465309,1
1777498711442799104,0.04278608039021492,1,-0.1212720647454262,1,0.02186047658324242,1
1777498711452645632,0.04175044968724251,1,-0.1308540403842926,1,0.0683148056268692,1
1777498711462473216,0.06394476443529129,1,-0.1382904201745987,1,0.04542798176407814,1
1777498711472281344,0.04894082993268967,1,-0.0554518848657608,1,0.0655631497502327,1
1777498711482070528,0.04775018244981766,1,0.1206995248794556,1,-0.04985981434583664,1
1777498711491841280,0.02982771955430508,1,0.1053414046764374,1,0.1243936419487,1
1777498711501592576,0.04439832270145416,1,0.1615017205476761,1,-0.01493817754089832,1
1777498711511324928,0.0251164548099041,1,0.1818874031305313,1,0.08548727631568909,1
1777498711521268992,0.02556717023253441,1,0.2487870156764984,1,0.009538104757666588,1
1777498711531424512,0.01186368614435196,1,0.1818499565124512,1,0.09528906643390656,1
1777498711541560320,0.00764553714543581,1,0.06767179816961288,1,0.001447560265660286,1
1777498711551676928,-0.01239194348454475,1,-0.02768709138035774,1,0.08072502166032791,1
1777498711561774848,-0.1002888530492783,1,-0.157665878534317,1,0.09103246778249741,1
1777498711571853312,-0.174926683306694,1,-0.2649979591369629,1,-0.08349450677633286,1
1777498711581912064,-0.1288849413394928,1,-0.1472396552562714,1,0.04067180678248405,1
1777498711591951616,-0.06421579420566559,1,-0.1806791871786118,1,-0.08421821147203445,1
1777498711601971712,0.06021005287766457,1,-0.1684956550598145,1,0.2917929589748383,1
1777498711611972608,0.08705876767635345,1,0.1000743806362152,1,-0.09415559470653534,1
1777498711621953792,0.1038476377725601,1,0.1564625650644302,1,0.06742973625659943,1
1777498711631916288,0.03783797100186348,1,0.06099139153957367,1,0.08264699578285217,1
1777498711641862656,0.05376913771033287,1,-0.1201604306697845,1,-0.01506246812641621,1
1777498711651789824,-0.002524955663830042,1,-0.1708377152681351,1,0.06326504796743393,1
1777498711661698048,0.002329878276214004,1,-0.2597694993019104,1,-0.005306059494614601,1
1777498711671586816,0.03040936961770058,1,-0.313475102186203,1,-0.001199176535010338,1
1777498711681456640,0.0660177618265152,1,0.1014618054032326,1,-0.1317643821239471,1
1777498711691307264,0.06066154316067696,1,0.1298975944519043,1,0.2269056290388107,1
1777498711701138432,0.1183274015784264,1,0.1929598897695541,1,-0.08990846574306488,1
1777498711710950656,0.2077841311693192,1,0.2980069220066071,1,0.175313264131546,1
1777498711720744192,0.2098374515771866,1,0.2671400606632233,1,0.1272638887166977,1
1777498711730518528,0.2531163394451141,1,0.2140445113182068,1,0.04341746121644974,1
1777498711740273664,0.2402401715517044,1,0.079487644135952,1,-0.08373935520648956,1
1777498711750010112,0.2884241044521332,1,0.06143493950366974,1,0.008237455040216446,1
1777498711759958528,0.3476856052875519,1,-0.02832050248980522,1,0.03039760887622833,1
1777498711770118144,0.4010070264339447,1,-0.08206310868263245,1,0.09824968874454498,1
1777498711780258304,0.4731904268264771,1,0.03336197137832642,1,0.002529234392568469,1
1777498711790379520,0.4899100363254547,1,0.09715691953897476,1,0.05922500789165497,1
1777498711800481280,0.564242959022522,1,0.108470655977726,1,-0.07605257630348206,1
1777498711810563584,0.5053410530090332,1,0.1002884954214096,1,0.06555818021297455,1
1777498711820626176,0.5618125796318054,1,0.007475527003407478,1,0.01971844956278801,1
1777498711830669056,0.5423572063446045,1,-0.008327063173055649,1,0.01176661998033524,1
1777498711840692480,0.5881043672561646,1,-0.05389510467648506,1,-0.02751651406288147,1
1777498711850696448,0.5868996381759644,1,-0.1463252753019333,1,0.1049739122390747,1
1777498711860680704,0.6240924000740051,1,-0.2019335478544235,1,-0.008203292265534401,1
1777498711870645760,0.6487447023391724,1,-0.2052169293165207,1,0.01082071475684643,1
1777498711880591872,0.6697714328765869,1,-0.194768026471138,1,-0.06960909068584442,1
1777498711890518784,0.6857762932777405,1,-0.2388152033090591,1,-0.1220524162054062,1
1777498711900428544,0.6852675080299377,1,-0.06658177077770233,1,-0.2773374021053314,1
1777498711910321408,0.7679596543312073,1,-0.1187166124582291,1,0.2327935099601746,1
1777498711920195072,0.7956457138061523,1,-0.3359430432319641,1,0.1833706647157669,1
1777498711930049792,0.8006505966186523,1,-0.3905979096889496,1,-0.1347038745880127,1
1777498711939885568,0.7358607053756714,1,0.06378801167011261,1,-0.7370630502700806,1
1777498711949702144,0.8334411382675171,1,0.002605438232421875,1,-0.1937625259160995,1
1777498711959499776,0.9766340851783752,1,-0.181940495967865,1,-0.01053706184029579,1
1777498711969278976,1.149181246757507,1,-0.8473079800605774,1,-0.06854180991649628,1
1777498711979039488,1.333515644073486,1,-0.3852608799934387,1,-0.04088849574327469,1
1777498711988781568,1.379291892051697,1,-0.4325383901596069,1,-0.1138755083084106,1
1777498711998736640,1.376005291938782,1,-0.7672487497329712,1,-0.02557098120450974,1
1777498712008904192,1.344987511634827,1,-0.700384795665741,1,-0.1218134164810181,1
1777498712019052032,1.469614267349243,1,-0.6380487680435181,1,-0.05835533887147903,1
1777498712029179392,1.44599461555481,1,-0.6501855850219727,1,0.1437163203954697,1
1777498712039287040,1.542866826057434,1,-0.7053532600402832,1,0.1111981719732285,1
1777498712049374976,1.592758417129517,1,-0.6566832065582275,1,0.1116214841604233,1
1777498712059443456,1.618671417236328,1,-0.5879910588264465,1,0.06449098140001297,1
1777498712069491968,1.664054751396179,1,-0.5416277050971985,1,-0.02593391016125679,1
1777498712079520512,1.695780515670776,1,-0.5827436447143555,1,-0.04925589263439178,1
1777498712089529344,1.67398464679718,1,-0.4240961670875549,1,-0.1424416750669479,1
1777498712099518464,1.733185052871704,1,-0.215092346072197,1,-0.0433381088078022,1
1777498712109487616,1.744420289993286,1,-0.08876091241836548,1,-0.01959375478327274,1
1777498712119437312,1.779057741165161,1,-0.04908286035060883,1,-0.2905462980270386,1
1777498712129367552,1.827914357185364,1,-0.04938823357224464,1,-0.4767897725105286,1
1777498712139278080,1.688957095146179,1,0.2824639081954956,1,-0.6288706660270691,1
1777498712149168640,1.392285943031311,1,0.4772706031799316,1,-1.325083017349243,1
1777498712159040000,1.320161104202271,1,0.4621926844120026,1,-1.436065435409546,1
1777498712168891648,1.33256995677948,1,0.4287927150726318,1,-1.630099415779114,1
1777498712178724096,1.251142978668213,1,0.5245929956436157,1,-1.331305623054504,1
1777498712188536832,1.318180561065674,1,0.6911149621009827,1,-0.9259899854660034,1
1777498712198330112,1.291500568389893,1,0.8551685214042664,1,-0.6259074211120605,1
1777498712208105984,1.430980443954468,1,0.9081090092658997,1,-0.1274496614933014,1
1777498712217863936,1.37909471988678,1,1.000364899635315,1,0.02125941962003708,1
1777498712227602432,1.306552290916443,1,1.04659116268158,1,0.09790173172950745,1
1777498712237321472,1.167585134506226,1,1.058039665222168,1,0.2554688155651093,1
1777498712247501056,1.102956771850586,1,1.079430103302002,1,0.6239286661148071,1
1777498712257660672,1.036911725997925,1,1.136732459068298,1,0.6672374606132507,1
1777498712267800064,0.9967934489250183,1,1.105655312538147,1,0.9549612402915955,1
1777498712277920000,1.00896430015564,1,1.006404876708984,1,0.9102436304092407,1
1777498712288020224,0.9661005735397339,1,0.849884033203125,1,1.125656485557556,1
1777498712298100480,1.00128972530365,1,0.6901168823242188,1,1.075554490089417,1
1777498712308160768,1.023276686668396,1,0.6160820722579956,1,1.111851453781128,1
1777498712318201600,1.01884925365448,1,0.4742755889892578,1,1.096313238143921,1
1777498712328222208,0.9835829138755798,1,0.3146792650222778,1,1.190013289451599,1
1777498712338223360,0.9827410578727722,1,0.1623592674732208,1,1.23059356212616,1
1777498712348204800,1.024683117866516,1,-0.09528208523988724,1,1.104526162147522,1
1777498712358167296,1.067903399467468,1,-0.2648518681526184,1,1.193478941917419,1
1777498712368110848,1.063525319099426,1,-0.2840386033058167,1,0.9039850234985352,1
1777498712378034944,0.9285829663276672,1,-0.2630153596401215,1,0.9781455397605896,1
1777498712387939328,0.8908483386039734,1,-0.2145253121852875,1,0.6697045564651489,1
1777498712397824256,0.8567787408828735,1,-0.06634662300348282,1,0.8138403296470642,1
1777498712407689728,0.8939489126205444,1,-0.03650853782892227,1,0.4015659987926483,1
1777498712417536000,0.8937709331512451,1,-0.2484095543622971,1,0.5392042994499207,1
1777498712427362560,0.8898469209671021,1,-0.123773530125618,1,0.2302122116088867,1
1777498712437169920,0.8777197599411011,1,-0.1920392513275146,1,0.3319212794303894,1
1777498712446958080,0.9337775707244873,1,-0.3386794924736023,1,0.2240410149097443,1
1777498712456726528,0.8873845934867859,1,-0.2980763912200928,1,0.04055347293615341,1
1777498712466475776,0.861331582069397,1,-0.365187019109726,1,-0.143069326877594,1
1777498712476205568,0.9237052798271179,1,-0.4264354705810547,1,-0.4256260693073273,1
1777498712486152960,0.8773977160453796,1,-0.5517491698265076,1,-0.4481521844863892,1
1777498712496317184,0.9865692257881165,1,-0.5991759896278381,1,-0.8056410551071167,1
1777498712506462464,0.9184874892234802,1,-0.4431340992450714,1,-0.9083589315414429,1
1777498712516587776,0.968454897403717,1,-0.4371948838233948,1,-1.225239872932434,1
1777498712526693632,0.945196270942688,1,-0.3663589954376221,1,-1.026354551315308,1
1777498712536779008,0.9881213903427124,1,-0.3089035749435425,1,-1.311305642127991,1
1777498712546844928,0.982682466506958,1,-0.1470245867967606,1,-1.193250894546509,1
1777498712556890880,1.107248663902283,1,-0.04482853785157204,1,-1.300544142723083,1
1777498712566917120,1.116573333740234,1,-0.0470900684595108,1,-0.9811354279518127,1
1777498712576924672,1.176467418670654,1,0.09889593720436096,1,-1.086279034614563,1
1777498712586912512,1.064330220222473,1,0.1822578012943268,1,-0.8853867053985596,1
1777498712596880640,1.05653989315033,1,0.1708154231309891,1,-0.7882278561592102,1
1777498712606829312,1.004156708717346,1,0.2591244578361511,1,-0.6111373901367188,1
1777498712616758784,0.9849662780761719,1,0.2971471548080444,1,-0.7293000817298889,1
1777498712626668288,1.008088350296021,1,0.1915263533592224,1,-0.6435056328773499,1
1777498712636558336,0.9039408564567566,1,0.2541817724704742,1,-0.7038518786430359,1
1777498712646428928,0.9122341871261597,1,0.004894243087619543,1,-0.3212275207042694,1
1777498712656280064,0.9072263240814209,1,0.02456425689160824,1,-0.01229436602443457,1
1777498712666111744,0.8967140913009644,1,0.08181825280189514,1,0.0556594617664814,1
1777498712675923968,0.9561630487442017,1,0.2250613123178482,1,0.197315588593483,1
1777498712685716736,0.7472115755081177,1,-0.0009764316491782665,1,0.5992317795753479,1
1777498712695490560,0.7140641808509827,1,-0.03725889325141907,1,0.672680139541626,1
1777498712705244928,0.6802043914794922,1,-0.01467617321759462,1,0.814897894859314,1
1777498712714980096,0.6956630945205688,1,0.01821236498653889,1,0.7267189025878906,1
1777498712724931328,0.6305680274963379,1,0.07268941402435303,1,0.6873597502708435,1
1777498712735098624,0.5309703350067139,1,0.1049616634845734,1,0.6550918221473694,1
1777498712745245440,0.4862363338470459,1,0.09770414978265762,1,0.7086342573165894,1
1777498712755372544,0.4877974390983582,1,0.05196687579154968,1,0.6026707291603088,1
1777498712765479424,0.4953680038452148,1,0.1221001148223877,1,0.7159045338630676,1
1777498712775566592,0.5025450587272644,1,0.1273923516273499,1,0.6628410220146179,1
1777498712785633792,0.4696365594863892,1,0.04840878769755363,1,0.9077740907669067,1
1777498712795681280,0.4494446218013763,1,-0.03564517199993134,1,0.7896737456321716,1
1777498712805708800,0.4494855105876923,1,-0.0371171161532402,1,0.7700439691543579,1
1777498712815720704,0.4878349006175995,1,-0.2983443140983582,1,0.7918277382850647,1
1777498712825712896,0.3714420199394226,1,-0.2290928810834885,1,0.610835075378418,1
1777498712835685376,0.3224998116493225,1,-0.4004281163215637,1,0.6608036160469055,1
1777498712845638144,0.2611513435840607,1,-0.302689790725708,1,0.4485365450382233,1
1777498712855571456,0.2923696935176849,1,-0.2779417634010315,1,0.4919413328170776,1
1777498712865485056,0.3806110620498657,1,-0.1502745598554611,1,0.4475834667682648,1
1777498712875378944,0.3379196524620056,1,-0.1925164312124252,1,0.3671500682830811,1
1777498712885253376,0.1734179705381393,1,-0.24813511967659,1,0.4805134534835815,1
1777498712895108096,0.1344117075204849,1,-0.4588440656661987,1,0.4083181321620941,1
1777498712904943872,0.173704132437706,1,-0.6179360747337341,1,0.4540932178497314,1
1777498712914759936,0.111115962266922,1,-0.6660107374191284,1,0.3867053091526031,1
1777498712924556544,0.1363056749105453,1,-0.4826006889343262,1,-0.01676363870501518,1
1777498712934334464,0.03828638792037964,1,-0.3514906466007233,1,0.2645542919635773,1
1777498712944092928,0.1338978409767151,1,-0.3776974976062775,1,-0.05032982677221298,1
1777498712953831936,0.06714820861816406,1,-0.1593874096870422,1,0.3259702026844025,1
1777498712963787520,0.2117420434951782,1,0.03047024086117744,1,0.07018876820802689,1
1777498712973958912,0.09171850234270096,1,-0.2695421576499939,1,0.5266733765602112,1
1777498712984110336,0.08949768543243408,1,-0.2743841409683228,1,-0.02563134208321571,1
1777498712994242816,-0.1852983683347702,1,-0.1714462637901306,1,0.1566548049449921,1
1777498713004356096,-0.2227423340082169,1,-0.2570408880710602,1,0.3111476898193359,1
1777498713014449408,-0.3236086070537567,1,-0.3462787866592407,1,0.7331486344337463,1
1777498713024523008,0.03927049785852432,1,-0.03619043156504631,1,0.3277835845947266,1
1777498713034577152,0.2163825482130051,1,0.07585424184799194,1,0.5318508744239807,1
1777498713044613120,0.1572980284690857,1,0.07000237703323364,1,0.4626434445381165,1
1777498713054629376,-0.02262332290410995,1,0.2975195050239563,1,0.2756198942661285,1
1777498713064626176,0.004348184913396835,1,0.5826144814491272,1,0.2111328542232513,1
1777498713074603264,-0.09685474634170532,1,0.416893482208252,1,0.1826537251472473,1
1777498713084560896,-0.08800003677606583,1,0.2159380465745926,1,0.2512976229190826,1
1777498713094499072,-0.1181947812438011,1,0.3831004798412323,1,-0.1659641712903976,1
1777498713104418048,-0.1663411557674408,1,0.2735995054244995,1,-0.3024315237998962,1
1777498713114317312,-0.1154888644814491,1,0.1499862968921661,1,-0.526710033416748,1
1777498713124197632,-0.2182208150625229,1,0.1661286354064941,1,-0.7384650111198425,1
1777498713134058752,-0.1039557158946991,1,0.108117051422596,1,-0.8016968965530396,1
1777498713143900416,-0.2030649185180664,1,0.1147409602999687,1,-0.8551235198974609,1
1777498713153722880,-0.08343403786420822,1,0.09644170105457306,1,-0.723182201385498,1
1777498713163526144,-0.1160967275500298,1,0.2486834526062012,1,-0.70501309633255,1
1777498713173309952,-0.03753013908863068,1,0.3099698722362518,1,-0.5258262157440186,1
1777498713183074560,-0.05721982195973396,1,0.3937190175056458,1,-0.2797446250915527,1
1777498713192820224,-0.03296582400798798,1,0.5357038378715515,1,-0.2751182019710541,1
1777498713202780672,-0.02557788789272308,1,0.4765375256538391,1,-0.1372069865465164,1
1777498713212954880,-0.03199305385351181,1,0.4785261750221252,1,-0.1408477872610092,1
1777498713223109632,0.07386371493339539,1,0.5615431666374207,1,-0.3665056228637695,1
1777498713233244672,-0.04207075759768486,1,0.5889286398887634,1,-0.3101694881916046,1
1777498713243359744,0.01650420576334,1,0.3797732293605804,1,-0.3043967485427856,1
1777498713253454848,-0.2395869493484497,1,0.3268785178661346,1,-0.03552524745464325,1
1777498713263530496,-0.06027407199144363,1,0.2059032618999481,1,-0.03276221826672554,1
1777498713273586688,-0.1257774531841278,1,0.1440005302429199,1,0.2741191387176514,1
1777498713283623424,-0.07676068693399429,1,-0.02381820976734161,1,0.410145103931427,1
1777498713293639936,-0.1989257633686066,1,0.04919310286641121,1,0.4231798350811005,1
1777498713303636992,-0.1074716150760651,1,0.1167559027671814,1,0.3050076067447662,1
1777498713313614592,-0.1965408474206924,1,0.1197041198611259,1,0.4260816276073456,1
1777498713323572224,-0.1374199986457825,1,0.0250694714486599,1,0.2728132605552673,1
1777498713333510144,-0.1619406640529633,1,0.2287333309650421,1,0.1087892353534698,1
1777498713343428352,-0.1506898105144501,1,0.1867132186889648,1,-0.07566212862730026,1
1777498713353327360,-0.1758373975753784,1,0.06363765895366669,1,0.08214325457811356,1
1777498713363206656,-0.1911506354808807,1,0.177317202091217,1,-0.08983942866325378,1
1777498713373066240,-0.1279321759939194,1,0.1677786856889725,1,0.07377506792545319,1
1777498713382906624,-0.158170074224472,1,0.1363956928253174,1,0.03595979511737823,1
1777498713392727296,-0.05502726882696152,1,0.2001698017120361,1,0.2101702243089676,1
1777498713402528768,-0.08911608159542084,1,0.06811586022377014,1,0.1618136614561081,1
1777498713412310784,-0.06490554660558701,1,-0.1022000089287758,1,0.2185830622911453,1
1777498713422073856,-0.1132520586252213,1,-0.1175834909081459,1,-0.0876503512263298,1
1777498713431819008,-0.1382589042186737,1,-0.1431877613067627,1,-0.216709166765213,1
1777498713441783552,-0.1173771470785141,1,-0.2862301468849182,1,-0.1605141162872314,1
1777498713451965184,-0.2058645784854889,1,-0.2451448887586594,1,-0.2126692980527878,1
1777498713462126848,-0.1367609202861786,1,-0.4319974482059479,1,0.1051092967391014,1
1777498713472268288,-0.2581349611282349,1,-0.383316844701767,1,0.1589804887771606,1
1777498713482389760,-0.02201176062226295,1,-0.2206527143716812,1,0.02970263734459877,1
1777498713492491264,-0.1494864225387573,1,-0.2096987217664719,1,0.3586276471614838,1
1777498713502572800,-0.05705542862415314,1,-0.369160532951355,1,0.417282372713089,1
1777498713512635136,-0.1431289315223694,1,-0.2973215579986572,1,0.6124410629272461,1
1777498713522678016,-0.1278330534696579,1,-0.3752248883247375,1,0.3975724875926971,1
1777498713532700928,-0.0247900914400816,1,-0.4537894129753113,1,0.527138888835907,1
1777498713542704128,-0.1379220932722092,1,-0.3788348734378815,1,0.1856341511011124,1
1777498713552687360,0.02410341054201126,1,-0.4461369514465332,1,0.1591809689998627,1
1777498713562651136,-0.2737685739994049,1,-0.4124634861946106,1,-0.001417067833244801,1
1777498713572595456,-0.07213804870843887,1,-0.5318213105201721,1,0.1834955215454102,1
1777498713582520064,-0.227770209312439,1,-0.4017858505249023,1,0.2346503585577011,1
1777498713592425216,0.003486638888716698,1,-0.3384882807731628,1,0.1938905119895935,1
1777498713602310912,-0.1079246401786804,1,-0.3404403030872345,1,0.448274552822113,1
1777498713612176896,0.01299729570746422,1,-0.3145012557506561,1,0.3137377500534058,1
1777498713622023936,-0.07612258195877075,1,-0.2370883077383041,1,0.3616258203983307,1
1777498713631851520,-0.1174822747707367,1,-0.1321827620267868,1,0.09849901497364044,1
1777498713641659904,-0.05200603604316711,1,-0.1872389912605286,1,0.004823929164558649,1
1777498713651449088,-0.211325004696846,1,-0.1468701660633087,1,-0.07586394995450974,1
1777498713661218304,-0.06661604344844818,1,-0.1738411039113998,1,-0.2220836728811264,1
1777498713670969088,-0.07585817575454712,1,-0.07190363854169846,1,-0.1037013605237007,1
1777498713680700416,0.1028547286987305,1,-0.04832173511385918,1,-0.1437419503927231,1
1777498713690884608,0.02581039443612099,1,-0.003335703164339066,1,0.1633281409740448,1
1777498713701048832,0.04293191432952881,1,0.01371624879539013,1,0.09725989401340485,1
1777498713711193088,0.1627518981695175,1,0.1207653135061264,1,0.1503471583127975,1
1777498713721317376,0.202531561255455,1,0.1666394919157028,1,-0.08570424467325211,1
1777498713731421696,0.1669979095458984,1,0.1354725658893585,1,-0.1922914832830429,1
1777498713741506048,-0.01954137906432152,1,0.1998531520366669,1,-0.5924835801124573,1
1777498713751570688,-0.01522658858448267,1,0.0960780456662178,1,-0.3000150918960571,1
1777498713761616384,-0.06424760818481445,1,-0.02216269634664059,1,0.02079522982239723,1
1777498713771642624,0.1720164716243744,1,0.09998148679733276,1,0.2820286750793457,1
1777498713781649152,0.2348145097494125,1,0.3127342760562897,1,0.1205207481980324,1
1777498713791635712,0.2694271206855774,1,0.2141678035259247,1,0.3414082229137421,1
1777498713801602816,0.2188989669084549,1,0.1477467268705368,1,0.2159638553857803,1
1777498713811550208,0.1616920977830887,1,0.2453628331422806,1,0.0418410412967205,1
1777498713821477888,0.154740035533905,1,0.1952241212129593,1,0.03379221633076668,1
1777498713831385856,0.1047682240605354,1,0.09855533391237259,1,-0.3025286197662354,1
1777498713841274624,0.07189978659152985,1,0.04392264038324356,1,-0.3256517946720123,1
1777498713851143936,0.1467090547084808,1,0.2800004780292511,1,-0.6869149208068848,1
1777498713860993536,0.2381633818149567,1,0.1741743832826614,1,-0.6519666314125061,1
1777498713870823680,0.2052907645702362,1,0.02022451162338257,1,-0.4586755633354187,1
1777498713880634624,0.153194859623909,1,-0.03548426926136017,1,-0.3200502097606659,1
1777498713890425856,0.231737419962883,1,-0.08268517255783081,1,-0.05237092077732086,1
1777498713900197888,0.2085760980844498,1,-0.1003432422876358,1,-0.02638904750347137,1
1777498713909950720,0.3718037903308868,1,0.01851365901529789,1,0.03362154960632324,1
1777498713919685120,0.2274319678544998,1,0.0264127217233181,1,-0.09601949900388718,1
1777498713929881088,0.3095341920852661,1,-0.01546287629753351,1,0.1361536085605621,1
1777498713940057088,0.185183584690094,1,0.0204689372330904,1,0.06772938370704651,1
1777498713950213632,0.2342561632394791,1,-0.08159516006708145,1,0.5175921320915222,1
1777498713960350464,0.2373543679714203,1,0.08875037729740143,1,0.2134993225336075,1
1777498713970467840,0.3317326605319977,1,0.07718169689178467,1,0.3809460401535034,1
1777498713980565760,0.1826857030391693,1,-0.1459281891584396,1,0.5485602617263794,1
1777498713990644224,0.1751664727926254,1,-0.09702031314373016,1,0.3376438915729523,1
1777498714000703232,0.1203645467758179,1,-0.1113736182451248,1,0.3723407685756683,1
1777498714010742528,0.1534569263458252,1,-0.1434561312198639,1,0.3094736933708191,1
1777498714020763136,0.163669228553772,1,-0.136874794960022,1,0.4177686870098114,1
1777498714030764288,0.1431213319301605,1,0.02058964967727661,1,0.3318183422088623,1
1777498714040746240,0.1605969071388245,1,-0.1743997037410736,1,0.4757152199745178,1
1777498714050708480,0.1179402992129326,1,-0.2494372874498367,1,0.5928521156311035,1
1777498714060651520,0.1462937444448471,1,-0.08155980706214905,1,0.5193517804145813,1
1777498714070575360,0.1698653995990753,1,-0.08891886472702026,1,0.5872578620910645,1
1777498714080479744,-0.07131724804639816,1,-0.09569884836673737,1,0.4100810885429382,1
1777498714090364928,-0.1814448982477188,1,-0.1786707490682602,1,-0.05138475447893143,1
1777498714100231424,-0.1715037077665329,1,0.2511349320411682,1,-0.05884949117898941,1
1777498714110079744,-0.1543641537427902,1,0.3776287436485291,1,0.5272573828697205,1
1777498714119909376,0.01600809022784233,1,0.2723688185214996,1,0.919122040271759,1
1777498714129719808,0.3222063183784485,1,0.5171818733215332,1,0.3958973288536072,1
1777498714139511040,0.2633783519268036,1,0.6068416833877563,1,0.5554279685020447,1
1777498714149283840,0.2159840911626816,1,0.3618594408035278,1,0.2993024885654449,1
1777498714159037696,0.1352579593658447,1,0.1672216504812241,1,0.06127578020095825,1
1777498714169004544,0.04573839902877808,1,0.4629426002502441,1,-0.8984721899032593,1
1777498714179183872,-0.06495966017246246,1,0.5795164108276367,1,-1.196233987808228,1
1777498714189343488,-0.08299267292022705,1,0.2450374513864517,1,-1.405149459838867,1
1777498714199483392,-0.08747665584087372,1,-0.1294044256210327,1,-1.241841077804565,1
1777498714209603584,-0.02873745933175087,1,0.06208277866244316,1,-1.228779196739197,1
1777498714219704576,-0.02030362002551556,1,-0.009084467776119709,1,-1.093368768692017,1
1777498714229786624,0.08399587869644165,1,-0.1399080604314804,1,-0.8685617446899414,1
1777498714239848704,0.1316492408514023,1,0.3060604333877563,1,-0.9712232351303101,1
1777498714249890560,0.3227197229862213,1,0.648310661315918,1,-0.8436116576194763,1
1777498714259912960,0.3871315717697144,1,1.195704102516174,1,-1.384921789169312,1
1777498714269915904,0.1713824868202209,1,0.9108162522315979,1,-0.4157708883285522,1
1777498714279898880,0.3453676402568817,1,0.7646635770797729,1,-0.3557644188404083,1
1777498714289862400,0.2236018776893616,1,0.6812425851821899,1,0.06931420415639877,1
1777498714299806208,0.1274375468492508,1,0.8891699910163879,1,0.1894136965274811,1
1777498714309730560,0.0814175009727478,1,0.7223567366600037,1,-0.2561047673225403,1
1777498714319635456,0.1171140223741531,1,0.3363235592842102,1,0.4912541806697845,1
1777498714329520640,-0.02595400810241699,1,0.3382503688335419,1,-0.01829981431365013,1
1777498714339386368,-0.01722370833158493,1,0.3429748117923737,1,0.1673362702131271,1
1777498714349232384,-0.02763768285512924,1,0.02885542623698711,1,0.1561317443847656,1
1777498714359059456,0.000459727831184864,1,-0.1546643376350403,1,0.3889732956886292,1
1777498714368866560,0.02453518286347389,1,-0.0007869359105825424,1,0.3287222981452942,1
1777498714378654976,0.05794530361890793,1,-0.01396601088345051,1,0.518193244934082,1
1777498714388424192,0.1008669659495354,1,-0.1663536876440048,1,0.5675533413887024,1
1777498714398174208,0.09925276786088943,1,-0.06839302182197571,1,0.6884918808937073,1
1777498714408140544,0.1605416089296341,1,-0.006494695320725441,1,0.5458253026008606,1
1777498714418322944,0.08069176971912384,1,-0.09545841813087463,1,0.6600995063781738,1
1777498714428485888,0.1382585763931274,1,-0.2707517743110657,1,0.6165348291397095,1
1777498714438629120,0.09519322216510773,1,-0.3724105060100555,1,0.8405776619911194,1
1777498714448753152,0.2052415311336517,1,-0.4148872494697571,1,0.6675174236297607,1
1777498714458857472,0.1490960121154785,1,-0.4410319328308105,1,0.5225476622581482,1
1777498714468942336,0.1498424708843231,1,-0.4214722216129303,1,0.118143692612648,1
1777498714479006720,-0.07042138278484344,1,-0.6482515335083008,1,0.2737064361572266,1
1777498714489051392,-0.1508987247943878,1,-0.6801165342330933,1,0.1375248432159424,1
1777498714499076352,-0.1254115998744965,1,-0.5055571794509888,1,0.2562518715858459,1
1777498714509081088,0.1151148453354836,1,-0.4616565704345703,1,0.1014477089047432,1
1777498714519066368,0.06188669800758362,1,-0.444897323846817,1,0.4446929097175598,1
1777498714529031680,0.156273752450943,1,-0.3381030261516571,1,0.20432448387146,1
1777498714538977536,0.04264304786920547,1,-0.3732618093490601,1,0.323890894651413,1
1777498714548903936,0.08502666652202606,1,-0.3936448097229004,1,0.2774412333965302,1
1777498714558811392,0.05782122164964676,1,-0.2885701954364777,1,0.201077789068222,1
1777498714568700160,0.03360851109027863,1,-0.2401028871536255,1,0.06584816426038742,1
1777498714578569216,0.02247677370905876,1,-0.05611568689346313,1,-0.01562189124524593,1
1777498714588418816,0.08277416229248047,1,-0.1477045714855194,1,0.08479213714599609,1
1777498714598248960,0.05643486976623535,1,-0.1704681515693665,1,0.1397606730461121,1
1777498714608059648,0.1149547249078751,1,-0.1449055671691895,1,0.1290326118469238,1
1777498714617851392,0.08702902495861053,1,-0.1483960300683975,1,0.1652946919202805,1
1777498714627623168,0.06350521743297577,1,-0.07294062525033951,1,0.2168387323617935,1
1777498714637376000,0.1557787656784058,1,0.2269677519798279,1,0.1851181089878082,1
1777498714647344896,0.31771519780159,1,0.05931758880615234,1,0.5565111637115479,1
1777498714657529088,0.4866721034049988,1,-0.04279801249504089,1,0.9447187781333923,1
1777498714667693568,0.5139847993850708,1,-0.005262399092316628,1,1.163771867752075,1
1777498714677838592,-0.0647190660238266,1,-0.8164412975311279,1,1.115883827209473,1
1777498714687964160,1.187306523323059,1,-0.5058662891387939,1,-2.387985706329346,1
1777498714698070784,-0.9821861982345581,1,-0.583152174949646,1,-1.83028781414032,1
1777498714708157440,0.2392491400241852,1,-1.498902916908264,1,-2.573977470397949,1
1777498714718224896,-0.1757500469684601,1,-0.6066738367080688,1,-0.2758186459541321,1
1777498714728272896,0.04015926271677017,1,0.2485332041978836,1,-0.8288273215293884,1
1777498714738301696,0.3700025379657745,1,-0.08633672446012497,1,-0.04354527592658997,1
1777498714748310784,0.6333812475204468,1,-0.2310922294855118,1,0.4674662053585052,1
1777498714758300416,0.6516757011413574,1,0.1646112948656082,1,1.522349119186401,1
1777498714768271360,0.7362129688262939,1,-0.2120561301708221,1,0.4219493865966797,1
1777498714778222848,0.4346834421157837,1,-0.2318312227725983,1,0.5528602600097656,1
1777498714788155136,0.4220718443393707,1,-0.1920671164989471,1,-0.03921696543693542,1
1777498714798068224,0.2531554102897644,1,0.1197627633810043,1,-0.7053301334381104,1
1777498714807962624,0.2664055824279785,1,-0.1002713665366173,1,-0.4687946438789368,1
1777498714817837824,0.1824729889631271,1,0.1801773905754089,1,-0.968533456325531,1
1777498714827698944,0.2962355315685272,1,-0.004167576320469379,1,-0.2696868777275085,1
1777498714837541376,0.3016405403614044,1,0.3041535317897797,1,-0.3578760623931885,1
1777498714847364352,0.4563784599304199,1,0.1382924318313599,1,0.1027210727334023,1
1777498714857168384,0.4385541677474976,1,0.1853684931993484,1,-0.1842707246541977,1
1777498714866953728,0.4235161244869232,1,0.1950065195560455,1,-0.3419342041015625,1
1777498714876719360,0.2657228112220764,1,0.2479193955659866,1,-0.462902694940567,1
1777498714886698240,0.3140684962272644,1,0.170290544629097,1,-0.7685301303863525,1
1777498714896889600,0.2639378607273102,1,0.0420323982834816,1,-0.619781494140625,1
1777498714907061248,0.1956687122583389,1,0.01282422058284283,1,-0.9889381527900696,1
1777498714917213184,0.1580896824598312,1,-0.01623177714645863,1,-0.6609978079795837,1
1777498714927345152,0.1661548912525177,1,-0.04289815202355385,1,-0.5146864652633667,1
1777498714937457920,0.237132728099823,1,-0.09178060293197632,1,-0.1269694268703461,1
1777498714947550976,0.21401746571064,1,-0.04131734371185303,1,0.04700083658099174,1
1777498714957624576,0.1890099793672562,1,-0.1522586494684219,1,0.2093615233898163,1
1777498714967678464,0.1578692495822906,1,0.05102613568305969,1,0.3521504998207092,1
1777498714977715712,0.1823400855064392,1,0.05767283216118813,1,0.480915904045105,1
1777498714987733760,0.11844202876091,1,0.06328576058149338,1,0.5975907444953918,1
1777498714997732096,0.1603835225105286,1,0.09448955208063126,1,0.5983096361160278,1
1777498715007710976,0.08646079897880554,1,0.2638282179832458,1,0.9890968203544617,1
1777498715017670656,0.1750448346138,1,0.2483578473329544,1,0.7804916501045227,1
1777498715027610880,0.09328783303499222,1,0.2665805518627167,1,1.134943246841431,1
1777498715037531392,0.1213037148118019,1,0.2538721859455109,1,0.7466615438461304,1
1777498715047432704,-0.02007853053510189,1,0.313031941652298,1,0.9310857057571411,1
1777498715057315072,-0.008513918146491051,1,0.1149087473750114,1,0.8560273051261902,1
1777498715067178496,0.05024780705571175,1,0.1091726720333099,1,0.8613982796669006,1
1777498715077022208,0.05020220950245857,1,0.2586072981357574,1,0.6593461036682129,1
1777498715086846720,0.107670858502388,1,0.2025454044342041,1,0.6780389547348022,1
1777498715096651776,0.03998338431119919,1,0.1200528740882874,1,0.7960739135742188,1
1777498715106437888,0.1325394511222839,1,-0.04056970775127411,1,0.909234881401062,1
1777498715116205056,0.1264740824699402,1,0.103504553437233,1,0.5806007385253906,1
1777498715125953280,0.138870969414711,1,-0.09592069685459137,1,0.131838321685791,1
1777498715136147456,-0.1746090352535248,1,-0.1980387419462204,1,0.2642328441143036,1
1777498715146321664,-0.2797577977180481,1,-0.2895365953445435,1,-0.2547746300697327,1
1777498715156476160,-0.3420722484588623,1,-0.1011597141623497,1,0.2894651293754578,1
1777498715166610944,0.04441482573747635,1,0.06837258487939835,1,-0.3064215779304504,1
1777498715176726016,-0.1071100756525993,1,0.2043120712041855,1,0.4223156869411469,1
1777498715186821120,0.08073565363883972,1,-0.1357722878456116,1,-0.4116119742393494,1
1777498715196896768,-0.2132093906402588,1,0.1438853591680527,1,0.2586361765861511,1
1777498715206952960,0.01980787888169289,1,-0.06467366218566895,1,-0.6995280385017395,1
1777498715216988928,-0.2266809791326523,1,-0.182344913482666,1,-0.1235413700342178,1
1777498715227005696,-0.1829170137643814,1,0.02875382639467716,1,-1.305526256561279,1
1777498715237003008,-0.3550341129302979,1,0.1107904464006424,1,-0.7704403400421143,1
1777498715246980608,-0.2674684226512909,1,0.04340444877743721,1,-1.338446378707886,1
1777498715256938752,-0.2225273698568344,1,0.05852727964520454,1,-0.7707459330558777,1
1777498715266881024,-0.1477800756692886,1,0.1004533544182777,1,-0.8770201206207275,1
1777498715276803840,-0.06090855225920677,1,0.02039052173495293,1,-0.607229471206665,1
1777498715286707200,-0.1398096680641174,1,0.09931661933660507,1,-0.663130521774292,1
1777498715296591360,-0.06400477141141891,1,0.06347032636404037,1,-0.5616984963417053,1
1777498715306456320,-0.1640754789113998,1,0.3995436728000641,1,-0.420583575963974,1
1777498715316302080,-0.07074374705553055,1,0.3890377879142761,1,-0.159109890460968,1
1777498715326128384,-0.1127037703990936,1,0.4653556048870087,1,0.09852713346481323,1
1777498715335935488,0.1272560507059097,1,0.6076037287712097,1,-0.03860922157764435,1
1777498715345723648,-0.008362328633666039,1,0.7149443030357361,1,0.4603078365325928,1
1777498715355492608,0.04946411401033401,1,0.7869890332221985,1,0.4069991707801819,1
1777498715365242624,-0.03279159963130951,1,0.8723551630973816,1,0.6320235729217529,1
1777498715375210752,0.09418852627277374,1,0.7644980549812317,1,0.5045917630195618,1
1777498715385396736,-0.004898643121123314,1,0.7515497803688049,1,0.5983896255493164,1
1777498715395563264,0.01764039508998394,1,0.4644638299942017,1,0.348524272441864,1
1777498715405710592,-0.1051514521241188,1,0.4284507930278778,1,0.5218870043754578,1
1777498715415838208,-0.0521022155880928,1,0.276862233877182,1,0.2069187462329865,1
1777498715425946112,-0.07013094425201416,1,0.2007932364940643,1,0.5220932364463806,1
1777498715436034560,-0.003174895420670509,1,-0.01353308092802763,1,-0.01861181482672691,1
1777498715446102784,-0.1120529323816299,1,-0.06413815915584564,1,0.2823371887207031,1
1777498715456151296,-0.1385874003171921,1,-0.1285413056612015,1,-0.2693001925945282,1
1777498715466180096,-0.1381223201751709,1,-0.1836311370134354,1,-0.0279117077589035,1
1777498715476190976,-0.2024293690919876,1,-0.2207724750041962,1,-0.2132358551025391,1
1777498715486183936,-0.112067386507988,1,-0.07474385201931,1,-0.05234310403466225,1
1777498715496157440,-0.06629467010498047,1,0.07029122859239578,1,0.1799692958593369,1
1777498715506111232,0.06196052581071854,1,-0.07093629986047745,1,0.3409804701805115,1
1777498715516045824,-0.007790024857968092,1,-0.08399353176355362,1,0.4538763761520386,1
1777498715525961216,-0.004578716121613979,1,-0.08879230171442032,1,0.5085824131965637,1
1777498715535857152,-0.1384523808956146,1,-0.0676148533821106,1,0.3660753965377808,1
1777498715545733632,-0.03923295065760612,1,-0.2144746333360672,1,0.2568428218364716,1
1777498715555591424,-0.109207384288311,1,-0.2509560585021973,1,0.1107913106679916,1
1777498715565430272,-0.1929457187652588,1,-0.3230292499065399,1,-0.0385054424405098,1
1777498715575249920,-0.2188436388969421,1,-0.2526584565639496,1,-0.04866570234298706,1
1777498715585050112,-0.2229362726211548,1,-0.3471449613571167,1,-0.02230993658304214,1
1777498715594831104,-0.1755992472171783,1,-0.2911757528781891,1,-0.1122121587395668,1
1777498715604593152,-0.1407747864723206,1,-0.3163427412509918,1,-0.05881290882825851,1
1777498715614568448,-0.1068840175867081,1,-0.5743759274482727,1,0.3406707346439362,1
1777498715624755968,-0.1908985823392868,1,-0.7603276371955872,1,0.3768165707588196,1
1777498715634923520,-0.04452333599328995,1,-0.5830009579658508,1,-0.1118019744753838,1
1777498715645072640,-0.07308705151081085,1,-0.5853955149650574,1,-0.1403413861989975,1
1777498715655202304,-0.1615849435329437,1,-0.4430902302265167,1,-0.02074231021106243,1
1777498715665312512,-0.07345949858427048,1,-0.1751872152090073,1,-0.07832245528697968,1
1777498715675403264,0.04235614091157913,1,-0.1481740772724152,1,0.2601592838764191,1
1777498715685474560,0.02173785492777824,1,-0.3464028537273407,1,0.3084884881973267,1
1777498715695526400,0.01580295898020267,1,-0.2228100150823593,1,0.505313515663147,1
1777498715705558784,0.05986224114894867,1,-0.1524304747581482,1,0.04347199201583862,1
1777498715715571712,-0.07309998571872711,1,-0.1545627564191818,1,0.4139696359634399,1
1777498715725565952,0.002271641045808792,1,-0.2972424626350403,1,-0.09533032774925232,1
1777498715735540736,-0.06720011681318283,1,-0.1203075349330902,1,0.1494399309158325,1
1777498715745496576,0.06969326734542847,1,-0.2102162390947342,1,-0.1823716461658478,1
1777498715755436288,-0.1018132418394089,1,-0.2350639253854752,1,0.337255448102951,1
1777498715765357056,0.1148942559957504,1,-0.2128858268260956,1,0.172308623790741,1
1777498715775258624,0.1216608434915543,1,-0.166873961687088,1,0.3732008039951324,1
1777498715785140736,0.2751555442810059,1,-0.2439529001712799,1,-0.2390659302473068,1
1777498715795003904,0.04661416634917259,1,-0.1150496751070023,1,-0.1934425830841064,1
1777498715804847872,0.0863080620765686,1,-0.1768208295106888,1,-0.5688714981079102,1
1777498715814672896,0.03868329152464867,1,-0.2223399877548218,1,-0.2782938182353973,1
1777498715824478464,0.2895683646202087,1,-0.09004475176334381,1,-0.5470113158226013,1
1777498715834265600,0.3066540658473969,1,0.05857531353831291,1,-0.4538021683692932,1
1777498715844033792,0.4021461009979248,1,0.06869129836559296,1,-0.6367838382720947,1
1777498715854013696,0.2223150134086609,1,0.1284815073013306,1,-0.2703330814838409,1
1777498715864204288,0.3079172074794769,1,-0.06494942307472229,1,-0.2645814716815948,1
1777498715874374912,0.1956275403499603,1,0.1054084300994873,1,-0.003116589039564133,1
1777498715884526336,0.3922004997730255,1,0.07631772756576538,1,-0.2036159783601761,1
1777498715894658560,0.1413706541061401,1,-0.03867020457983017,1,-0.1145444810390472,1
1777498715904770560,0.1580625623464584,1,0.04268548265099525,1,-0.3041293621063232,1
1777498715914862848,0.03918429091572762,1,-0.02720769122242928,1,-0.146252766251564,1
1777498715924935424,0.04089806973934174,1,0.3186180889606476,1,-0.2457934617996216,1
1777498715934988544,0.1538110673427582,1,0.1789251863956451,1,-0.1747213304042816,1
1777498715945021440,0.05557498335838318,1,0.2827966213226318,1,-0.07903671264648438,1
1777498715955034624,0.1789718568325043,1,0.2559283971786499,1,-0.2040827572345734,1
1777498715965028352,0.0144609697163105,1,0.5169332027435303,1,-0.1442658454179764,1
1777498715975002368,0.2123268395662308,1,0.2836704254150391,1,-0.1063256114721298,1
1777498715984956928,0.02468869835138321,1,0.3600159287452698,1,0.4167766869068146,1
1777498715994895872,0.3600921630859375,1,0.3072998821735382,1,-0.07957667112350464,1
1777498716004815360,0.1631693094968796,1,0.3728143274784088,1,0.5414365530014038,1
1777498716014715904,0.2254529744386673,1,0.01748325116932392,1,0.1358144730329514,1
1777498716024597248,0.03518490493297577,1,0.1406751424074173,1,0.7607603073120117,1
1777498716034459648,0.2390158176422119,1,0.147420659661293,1,-0.006843101233243942,1
1777498716044303104,0.1080502346158028,1,0.06035517528653145,1,0.4877492189407349,1
1777498716054126848,-0.006134852766990662,1,-0.2291781604290009,1,0.1691823303699493,1
1777498716063931904,-0.08080444484949112,1,-0.2180020362138748,1,0.457027405500412,1
1777498716073718528,-0.03207364678382874,1,-0.1115419119596481,1,-0.001547656953334808,1
1777498716083485952,0.09534161537885666,1,-0.1019173860549927,1,0.009773395955562592,1
1777498716093466112,0.05876358598470688,1,0.02518611028790474,1,-0.2856312096118927,1
1777498716103658752,-0.02170485444366932,1,-0.7188717722892761,1,0.4726484417915344,1
1777498716113831936,-0.2965458333492279,1,-0.6212570071220398,1,0.3829526901245117,1
1777498716123985664,0.05694699287414551,1,-0.4546889960765839,1,0.09970065206289291,1
1777498716134120192,0.2378019243478775,1,-0.2372566759586334,1,0.06514351069927216,1
1777498716144235008,0.0470053032040596,1,0.207101970911026,1,0.1614228636026382,1
1777498716154330112,0.06756100058555603,1,0.3761555850505829,1,0.6759898662567139,1
1777498716164405504,0.1925356239080429,1,0.05234658345580101,1,0.4558336436748505,1
1777498716174461184,0.2011154592037201,1,0.1331582963466644,1,0.6443743705749512,1
1777498716184497152,0.2133277356624603,1,0.0255405493080616,1,0.08189728111028671,1
1777498716194513664,-0.00444934144616127,1,0.1052805930376053,1,1.101834416389465,1
1777498716204510464,0.0536530613899231,1,0.2134577929973602,1,-0.1492393165826797,1
1777498716214488320,-0.02696437016129494,1,0.1800975948572159,1,0.8538859486579895,1
1777498716224446720,0.1393077969551086,1,0.201360747218132,1,-0.05752794072031975,1
1777498716234385664,0.006208352278918028,1,0.004478382878005505,1,0.9420891404151917,1
1777498716244305408,0.1124242693185806,1,0.2015098631381989,1,-0.08633457869291306,1
1777498716254205696,0.123795360326767,1,0.2086819410324097,1,0.2552169263362885,1
1777498716264086528,0.1722985804080963,1,0.01196095161139965,1,0.09421677142381668,1
1777498716273954816,0.1492282599210739,1,-0.0339912511408329,1,0.1048017665743828,1
1777498716283803648,0.2196310758590698,1,0.2822083830833435,1,-0.2259930968284607,1
1777498716293633536,0.1566617339849472,1,0.274066686630249,1,-0.5954484343528748,1
1777498716303443712,0.1453575640916824,1,0.03534916415810585,1,-0.1907571852207184,1
1777498716313234944,0.1728148311376572,1,-0.02718173526227474,1,-0.5577284693717957,1
1777498716323007232,0.1524744927883148,1,0.1884582042694092,1,-0.4531670808792114,1
1777498716332993536,0.2683743834495544,1,0.291487455368042,1,-1.00408411026001,1
1777498716343193344,0.09635557234287262,1,0.2395745515823364,1,-0.5193694233894348,1
1777498716353373184,0.1559861302375793,1,0.1858579516410828,1,-0.5642845630645752,1
1777498716363533056,0.1447211652994156,1,0.4512551426887512,1,-0.3044326901435852,1
1777498716373674240,0.3392901420593262,1,0.4409985840320587,1,-0.2327366918325424,1
1777498716383795968,0.313444972038269,1,0.5897185802459717,1,-0.2418846189975739,1
1777498716393898240,0.2977083027362823,1,0.6502537727355957,1,-0.1205218732357025,1
1777498716403980800,0.1859565526247025,1,0.6059430241584778,1,0.01596799492835999,1
1777498716414043904,0.2088864892721176,1,0.5118204355239868,1,0.07607441395521164,1
1777498716424087552,0.2510004341602325,1,0.5337502360343933,1,-0.1962077617645264,1
1777498716434111744,0.07624537497758865,1,0.7266328930854797,1,-0.4708241820335388,1
1777498716444116480,-0.02076522633433342,1,0.5394545793533325,1,-0.2707319259643555,1
1777498716454102528,-0.1244809776544571,1,0.3273114860057831,1,0.2076769024133682,1
1777498716464069632,0.143866702914238,1,0.2312363684177399,1,0.1758797019720078,1
1777498716474017280,0.2207031548023224,1,0.3677075505256653,1,0.1607456058263779,1
1777498716483945472,0.214031770825386,1,0.4160870313644409,1,-0.1991317123174667,1
1777498716493854464,0.1145735830068588,1,0.08900332450866699,1,-0.1955390870571136,1
1777498716503744256,0.05913814157247543,1,-0.09402970969676971,1,-0.385975569486618,1
1777498716513621504,0.03425528854131699,1,-0.3126469552516937,1,-0.4725309908390045,1
1777498716523479296,-0.08384128659963608,1,-0.2988927662372589,1,-0.547804594039917,1
1777498716533317888,0.07928184419870377,1,-0.4664700627326965,1,-0.491562157869339,1
1777498716543137536,0.02118363790214062,1,-0.3037414252758026,1,-0.3242813050746918,1
1777498716552938496,0.0480816662311554,1,-0.06010707095265388,1,-0.7037326097488403,1
1777498716562720256,0.08775626868009567,1,-0.2721623182296753,1,-0.05808156728744507,1
1777498716572482816,0.02187808603048325,1,-0.8170405626296997,1,0.9771520495414734,1
1777498716582683136,-0.1150766760110855,1,-0.5963765382766724,1,0.5999773740768433,1
1777498716592863744,0.1626416444778442,1,-0.6743784546852112,1,0.3122784495353699,1
1777498716603025152,0.2285755276679993,1,-0.5600717067718506,1,0.1718508899211884,1
1777498716613167616,-0.07995286583900452,1,-0.5664018392562866,1,0.3726283311843872,1
1777498716623290112,-0.1373971104621887,1,-0.0735161304473877,1,0.03723239898681641,1
1777498716633393408,-0.01705746166408062,1,-0.1453085094690323,1,0.7708874940872192,1
1777498716643476992,0.219420999288559,1,-0.5936844944953918,1,0.4519258439540863,1
1777498716653541120,0.07824887335300446,1,-0.4228298366069794,1,1.221136927604675,1
1777498716663585792,0.1207713633775711,1,-0.1796904057264328,1,0.3926977217197418,1
1777498716673611264,0.02510366588830948,1,-0.1462902426719666,1,1.006100058555603,1
1777498716683617024,0.04009397327899933,1,-0.1064124703407288,1,0.2925224602222443,1
1777498716693604096,0.07802841812372208,1,-0.5169148445129395,1,0.7953974008560181,1
1777498716703571712,0.1098642572760582,1,-0.5754451751708984,1,0.3307411670684814,1
1777498716713519872,0.05774044245481491,1,-0.5386160016059875,1,0.2352480888366699,1
1777498716723448576,0.0554933212697506,1,-0.2955754399299622,1,0.173876941204071,1
1777498716733361408,0.05229298770427704,1,-0.1827729195356369,1,0.001905292272567749,1
1777498716743255040,0.114075280725956,1,-0.09920762479305267,1,0.1955959051847458,1
1777498716753129728,0.1398733705282211,1,0.08472974598407745,1,0.02274111285805702,1
1777498716762984960,0.2525730431079865,1,0.2271416187286377,1,0.1633453518152237,1
1777498716772821504,0.2659146189689636,1,0.2315534502267838,1,0.4683398008346558,1
1777498716782638592,0.3804375827312469,1,0.03937065228819847,1,0.3176747262477875,1
1777498716792436480,0.2808508574962616,1,0.1164007633924484,1,0.09150137007236481,1
1777498716802215424,0.2100735157728195,1,0.09713245183229446,1,-0.1123651936650276,1
1777498716811975936,0.1233855560421944,1,-0.01737349107861519,1,-0.2545995116233826,1
1777498716822187008,0.1377769559621811,1,-0.13576939702034,1,-0.3524964153766632,1
1777498716832378624,0.1931570768356323,1,-0.1188188716769218,1,-0.4090150594711304,1
1777498716842550784,0.2146296799182892,1,0.1120967045426369,1,-0.3734642267227173,1
1777498716852703232,0.3501215279102325,1,-0.1474660187959671,1,-0.2501585185527802,1
1777498716862836224,0.2439655959606171,1,-0.1949487179517746,1,0.02986598759889603,1
1777498716872950784,0.4418575465679169,1,-0.2248914688825607,1,-0.2731913328170776,1
1777498716883046400,0.428786039352417,1,-0.08200256526470184,1,-0.3528982698917389,1
1777498716893122560,0.4350752532482147,1,-0.1550440341234207,1,-0.5826048254966736,1
1777498716903179264,0.3376457691192627,1,-0.3075108528137207,1,-0.3549117147922516,1
1777498716913216512,0.3599868714809418,1,-0.1735597848892212,1,-0.1951311677694321,1
1777498716923234304,0.4941573143005371,1,-0.09555727243423462,1,-0.1914146393537521,1
1777498716933232640,0.4183333218097687,1,-0.3131400644779205,1,0.03676909953355789,1
1777498716943211520,0.3372468948364258,1,-0.3786680102348328,1,-0.1986055374145508,1
1777498716953171200,0.1268646419048309,1,-0.1726192831993103,1,-0.1620449870824814,1
1777498716963111424,0.1407489031553268,1,-0.1731370985507965,1,-0.5725985169410706,1
1777498716973032448,0.1125314086675644,1,-0.2097418606281281,1,-0.3582314252853394,1
1777498716982934016,0.2177082598209381,1,-0.2719596326351166,1,-0.4683762788772583,1
1777498716992816384,0.1584004014730453,1,-0.08069621026515961,1,-0.3977254629135132,1
1777498717002679296,0.1331185549497604,1,-0.1239123940467834,1,-0.3259471952915192,1
1777498717012523264,0.1899344176054001,1,-0.0400766134262085,1,-0.0337994247674942,1
1777498717022347776,0.3552422821521759,1,-0.5459641218185425,1,0.02053288370370865,1
1777498717032156672,0.09195295721292496,1,-0.5725614428520203,1,-0.01477770879864693,1
1777498717041949952,-0.03003758564591408,1,-0.4064081907272339,1,-0.6296491622924805,1
1777498717051724032,-0.1080133318901062,1,-0.4336434900760651,1,-0.01485487073659897,1
1777498717061708288,-0.1142758503556252,1,-0.2354268729686737,1,0.1137987896800041,1
1777498717071901440,0.1642105579376221,1,-0.1329371333122253,1,0.5713886022567749,1
1777498717082074880,0.2283255308866501,1,0.1587901562452316,1,0.108149528503418,1
1777498717092229376,0.1458020806312561,1,-0.3041172623634338,1,0.8878129720687866,1
1777498717102363904,0.01108863577246666,1,-0.2625331282615662,1,0.9420141577720642,1
1777498717112478464,0.1669511646032333,1,-0.1483004242181778,1,0.7404042482376099,1
1777498717122573056,-0.01350603625178337,1,0.009441740810871124,1,0.7790662050247192,1
1777498717132647936,0.1686446815729141,1,-0.01090758852660656,1,0.4847660064697266,1
1777498717142703104,0.04103951901197433,1,0.1975870132446289,1,0.5320703983306885,1
1777498717152738560,0.1778217703104019,1,-0.001531455665826797,1,0.5881296396255493,1
1777498717162754304,0.07607972621917725,1,-0.0195830725133419,1,0.7864357233047485,1
1777498717172750848,0.1842263638973236,1,-0.08084385842084885,1,0.04635253548622131,1
1777498717182727936,-0.013333760201931,1,-0.01801346242427826,1,0.7185642719268799,1
1777498717192685312,0.08956383168697357,1,0.01269889250397682,1,0.2185099422931671,1
1777498717202623488,0.06390906870365143,1,0.0436708927154541,1,0.2791817784309387,1
1777498717212542464,0.155426099896431,1,-0.07963252067565918,1,0.2915053367614746,1
1777498717222442240,0.06583724170923233,1,-0.08574603497982025,1,0.4630520641803741,1
1777498717232327168,0.1149113103747368,1,-0.1471356749534607,1,0.4302690327167511,1
1777498717242193152,0.10394187271595,1,0.04198018461465836,1,0.2828280329704285,1
1777498717252039936,0.1772324293851852,1,-0.07585626095533371,1,0.6577823758125305,1
1777498717261867264,0.08173751085996628,1,-0.03364402428269386,1,0.2250620871782303,1
1777498717271675648,0.06999710947275162,1,0.1617976427078247,1,0.3485381901264191,1
1777498717281464832,0.1069769635796547,1,0.1726704388856888,1,-0.03098524361848831,1
1777498717291235072,-0.05264537036418915,1,0.1084563210606575,1,0.05787434801459312,1
1777498717301218048,0.08063299953937531,1,0.1949081122875214,1,-0.3441488444805145,1
1777498717311413760,0.06813789159059525,1,0.1082266494631767,1,0.02893798612058163,1
1777498717321589504,-0.0077009666711092,1,0.05638114362955093,1,-0.1723654568195343,1
1777498717331745280,0.05628533288836479,1,0.0441969558596611,1,0.06071574613451958,1
1777498717341881344,-0.005674861371517181,1,0.2382663488388062,1,0.1178585439920425,1
1777498717351998720,0.1351563334465027,1,0.09103477001190186,1,-0.1785110533237457,1
1777498717362096384,0.03637681901454926,1,0.08291170001029968,1,-0.04161076992750168,1
1777498717372174848,-0.01064747385680676,1,-0.08164116740226746,1,-0.4802521169185638,1
1777498717382233600,-0.1770035475492477,1,-0.02598633803427219,1,-0.3012406229972839,1
1777498717392272896,-0.1262321174144745,1,0.2310247868299484,1,-0.8399772644042969,1
1777498717402292736,-0.004192039370536804,1,0.157002180814743,1,-0.3968020379543304,1
1777498717412293376,-0.05874321237206459,1,0.2763457894325256,1,-0.2902880907058716,1
1777498717422274560,-0.03554630279541016,1,0.2728402316570282,1,-0.104333832859993,1
1777498717432237056,0.004292968660593033,1,0.483329713344574,1,-0.3932806253433228,1
1777498717442182144,0.003798320889472961,1,0.4209104776382446,1,-0.3610075414180756,1
1777498717452109824,-0.0372529923915863,1,0.5424809455871582,1,-0.02256778255105019,1
1777498717462018304,-0.09718877822160721,1,0.5031588077545166,1,0.1268018633127213,1
1777498717471907328,0.008306641131639481,1,0.1839660108089447,1,-0.03780296817421913,1
1777498717481777664,0.05547060444951057,1,0.1083045601844788,1,-0.3590688109397888,1
1777498717491628800,-0.1504949778318405,1,0.1942333877086639,1,-0.4519170820713043,1
1777498717501460992,-0.1165026724338531,1,0.222061961889267,1,-0.6320797204971313,1
1777498717511273728,-0.24353888630867,1,-0.04457568377256393,1,-0.7035861015319824,1
1777498717521068032,-0.2182929366827011,1,-0.2284791469573975,1,-0.4507369101047516,1
1777498717530843648,-0.2462209165096283,1,-0.1603964567184448,1,-0.7527453899383545,1
1777498717540830464,-0.2048686593770981,1,-0.2100670784711838,1,-0.328917533159256,1
1777498717551027968,-0.06768603622913361,1,0.07874514162540436,1,-0.8405116200447083,1
1777498717561205504,-0.06159165874123573,1,0.01323268003761768,1,-0.3690465986728668,1
1777498717571363328,-0.05281785503029823,1,-0.351587176322937,1,-0.2857409417629242,1
1777498717581502208,-0.1138100922107697,1,-0.2092710435390472,1,-0.1761065870523453,1
1777498717591621632,-0.04953759163618088,1,-0.07018949836492538,1,-0.3642520308494568,1
1777498717601721088,-0.1673760861158371,1,0.08067018538713455,1,-0.03577875718474388,1
1777498717611801088,-0.09265759587287903,1,-0.09939100593328476,1,0.6377061605453491,1
1777498717621861376,-0.1241202279925346,1,-0.1483079791069031,1,0.6239969730377197,1
1777498717631902208,0.05599415302276611,1,-0.1498430967330933,1,0.722653865814209,1
1777498717641923584,-0.09570061415433884,1,-0.1874697953462601,1,0.6951794624328613,1
1777498717651925504,-0.09962660074234009,1,-0.05771983042359352,1,0.5683034658432007,1
1777498717661907968,-0.1310821175575256,1,-0.168337419629097,1,0.80387282371521,1
1777498717671871232,-0.2128632664680481,1,-0.02677988819777966,1,0.6448092460632324,1
1777498717681815040,-0.1980045139789581,1,-0.1467124223709106,1,0.6644729375839233,1
1777498717691739136,-0.1548384577035904,1,-0.1796478778123856,1,0.6856759190559387,1
1777498717701644288,-0.1459124088287354,1,0.0278011541813612,1,0.463475376367569,1
1777498717711529728,-0.160647839307785,1,0.01491982489824295,1,0.5599983930587769,1
1777498717721396224,-0.1885918825864792,1,-0.1044381484389305,1,0.5700162053108215,1
1777498717731246336,-0.1114560291171074,1,-0.1702565103769302,1,0.6120760440826416,1
1777498717741080320,-0.2212859392166138,1,-0.1374346911907196,1,0.4362289607524872,1
1777498717750894848,0.01270556822419167,1,-0.105243980884552,1,0.3034165799617767,1
1777498717760690432,-0.1879022568464279,1,-0.2297486513853073,1,0.6272138953208923,1
1777498717770467072,-0.08053775131702423,1,-0.0910804271697998,1,0.2531650364398956,1
1777498717780457728,-0.1562773585319519,1,-0.02371111884713173,1,0.416819840669632,1
1777498717790661632,-0.1814457625150681,1,-0.2198214381933212,1,0.2744114100933075,1
1777498717800845568,-0.1773453503847122,1,-0.1676453202962875,1,0.2095694541931152,1
1777498717811010560,-0.145904928445816,1,0.08091842383146286,1,-0.1961572766304016,1
1777498717821155840,-0.2213689833879471,1,0.0329187884926796,1,-0.1421918421983719,1
1777498717831281920,-0.2102333456277847,1,-0.22310870885849,1,-0.1012765169143677,1
1777498717841388032,-0.2910999357700348,1,-0.07557813823223114,1,-0.06154962256550789,1
1777498717851474944,-0.08429250121116638,1,-0.1171109676361084,1,-0.3957176804542542,1
1777498717861541888,-0.1786911636590958,1,-0.2480324953794479,1,-0.2106538861989975,1
1777498717871589376,-0.1784706264734268,1,-0.290783703327179,1,-0.6168936491012573,1
1777498717881617664,-0.2612794041633606,1,-0.2186949849128723,1,-0.4522300064563751,1
1777498717891627008,-0.3094961941242218,1,-0.03094059973955154,1,-0.7820702791213989,1
1777498717901619968,-0.1484123468399048,1,-0.1133921295404434,1,-0.1655514091253281,1
1777498717911593472,-0.05554235726594925,1,-0.1057806760072708,1,-0.6607059836387634,1
1777498717921548032,0.1361722648143768,1,-0.2015216052532196,1,-0.3284038007259369,1
1777498717931482880,0.005965527147054672,1,-0.1060808077454567,1,-0.5768519043922424,1
1777498717941399040,0.03154953196644783,1,-0.3303848206996918,1,-0.346693217754364,1
1777498717951296000,-0.03984669595956802,1,-0.2858245670795441,1,-0.1425305604934692,1
1777498717961173504,-0.05963876470923424,1,-0.2418184727430344,1,-0.1380944550037384,1
1777498717971031808,-0.1137133613228798,1,-0.2116143554449081,1,-0.03580017760396004,1
1777498717980871680,-0.1247962117195129,1,0.0004525817930698395,1,-0.3605114221572876,1
1777498717990692352,-0.1030633896589279,1,0.1866143047809601,1,-0.2582859992980957,1
1777498718000493824,-0.08190744370222092,1,-0.1171631962060928,1,-0.3663214445114136,1
1777498718010276352,-0.3417268693447113,1,-0.1141471788287163,1,-0.09400318562984467,1
1777498718020039936,-0.1218603849411011,1,0.09200282394886017,1,-0.9463340044021606,1
1777498718030246144,-0.2951205372810364,1,0.08713544905185699,1,0.01503045856952667,1
1777498718040432640,-0.02379579469561577,1,0.04199573025107384,1,-0.7187305092811584,1
1777498718050599680,-0.1919696778059006,1,0.04467666894197464,1,0.2520789206027985,1
1777498718060746752,0.009173163212835789,1,0.2708332240581512,1,-0.566476047039032,1
1777498718070875136,-0.1080314889550209,1,0.002942752093076706,1,0.1146248057484627,1
1777498718080983808,-0.00768529437482357,1,0.009262152947485447,1,-0.08284340798854828,1
1777498718091073024,-0.1718842834234238,1,0.07848118245601654,1,0.276622861623764,1
1777498718101142784,-0.1155433729290962,1,0.03284753486514091,1,0.09020213782787323,1
1777498718111193088,-0.09639808535575867,1,0.1210424453020096,1,0.3068961799144745,1
1777498718121224192,-0.0908663347363472,1,0.03823748975992203,1,0.5558589696884155,1
1777498718131235584,-0.1220883429050446,1,0.1659953147172928,1,0.5936340093612671,1
1777498718141227520,-0.08132612705230713,1,0.220584511756897,1,0.766251266002655,1
1777498718151200000,-0.1065708622336388,1,-0.002237090840935707,1,1.063697338104248,1
1777498718161153536,-0.1487258672714233,1,-0.01349154859781265,1,0.6470954418182373,1
1777498718171087616,-0.2168786972761154,1,0.1954589486122131,1,0.6594917178153992,1
1777498718181002496,-0.2383348792791367,1,0.5065370202064514,1,0.2121381163597107,1
1777498718190899968,-0.2137681990861893,1,0.308385044336319,1,0.683728814125061,1
1777498718200780032,-0.1985680162906647,1,0.06114412471652031,1,0.8898241519927979,1
1777498718210640896,-0.1039330884814262,1,-0.04915261641144753,1,0.7869175672531128,1
1777498718220482816,-0.1528757810592651,1,0.1885586977005005,1,0.5450438857078552,1
1777498718230305792,-0.04327746480703354,1,0.1588842570781708,1,0.2050232589244843,1
1777498718240109312,-0.2004680037498474,1,0.06932681798934937,1,0.8432137966156006,1
1777498718249893888,-0.1724972426891327,1,-0.02208538539707661,1,0.06595061719417572,1
1777498718259659520,-0.2573691606521606,1,0.1362015753984451,1,0.7299196124076843,1
1777498718269876224,-0.126307338476181,1,0.1356416195631027,1,0.2994184494018555,1
1777498718280073216,-0.1560568511486053,1,0.1061897575855255,1,0.7916646599769592,1
1777498718290250240,-0.05916886404156685,1,0.2738254964351654,1,0.4039289653301239,1
1777498718300407552,-0.1093341484665871,1,0.3620700538158417,1,0.4064640700817108,1
1777498718310545152,-0.0972624197602272,1,0.4165455102920532,1,0.1984974294900894,1
1777498718320664064,-0.1026479303836823,1,0.05542120337486267,1,0.2855970561504364,1
1777498718330764288,-0.2499540597200394,1,-0.08134283125400543,1,0.1998189687728882,1
1777498718340844800,-0.2162997424602509,1,-0.0903443843126297,1,-0.1895360797643661,1
1777498718350906112,-0.2591521143913269,1,-0.03376070410013199,1,-0.2181659340858459,1
1777498718360947968,-0.2269680798053741,1,0.007750302087515593,1,-0.5950333476066589,1
1777498718370970368,-0.2247803807258606,1,-0.007024145685136318,1,-0.546319842338562,1
1777498718380973312,-0.2492856234312057,1,0.08167387545108795,1,-0.5434070229530334,1
1777498718390956800,-0.1599811315536499,1,-0.1378931701183319,1,-0.7155088186264038,1
1777498718400921344,-0.1802901327610016,1,-0.08494897186756134,1,-0.3010627031326294,1
1777498718410866688,-0.1125326976180077,1,0.06313784420490265,1,-0.5662181377410889,1
1777498718420792832,-0.1663874685764313,1,0.166798010468483,1,-0.2806474268436432,1
1777498718430699520,-0.09558209776878357,1,0.2509896159172058,1,-0.4758516848087311,1
1777498718440587264,-0.05248313397169113,1,0.3502137064933777,1,-0.2217958718538284,1
1777498718450455808,0.01815223507583141,1,0.4242554605007172,1,-0.2788450121879578,1
1777498718460304896,0.01377175375819206,1,0.5207445025444031,1,-0.2776515483856201,1
1777498718470135040,0.03601256757974625,1,0.6575824022293091,1,-0.1892683953046799,1
1777498718479949056,-0.02759311348199844,1,0.4845348000526428,1,0.005369368940591812,1
1777498718489747968,-0.1318883001804352,1,0.4718351364135742,1,0.3511041700839996,1
1777498718499528192,-0.01534774340689182,1,0.3798478841781616,1,0.3942399919033051,1
1777498718509517312,-0.06693351268768311,1,0.4622774422168732,1,0.44049471616745,1
1777498718519715328,-0.03194945305585861,1,0.2932388484477997,1,-0.1117717996239662,1
1777498718529893632,-0.2191170305013657,1,0.2491328418254852,1,0.08251918852329254,1
1777498718540052224,-0.2558653354644775,1,-0.06053903698921204,1,-0.433628648519516,1
1777498718550191360,-0.2859331071376801,1,-0.1888201534748077,1,-0.3974863290786743,1
1777498718560310784,-0.2884203195571899,1,-0.1177886724472046,1,-0.7943336963653564,1
1777498718570412544,-0.3190004527568817,1,-0.2611002922058105,1,-0.7408896684646606,1
1777498718580494592,-0.3495787978172302,1,-0.215297669172287,1,-0.4994998574256897,1
1777498718590557184,-0.1835211217403412,1,-0.1401041150093079,1,-0.7228405475616455,1
1777498718600599808,-0.152434915304184,1,-0.1571663022041321,1,-0.3548885583877563,1
1777498718610623232,-0.1040686517953873,1,-0.2984119653701782,1,-0.1397166550159454,1
1777498718620627200,-0.1854903846979141,1,-0.2505834698677063,1,0.1897418797016144,1
1777498718630611456,-0.0289063286036253,1,-0.3079223930835724,1,0.3075180351734161,1
1777498718640576256,-0.1825297027826309,1,-0.09189183264970779,1,0.516046404838562,1
1777498718650522112,0.02866728417575359,1,-0.08888620138168335,1,0.2951826453208923,1
1777498718660448256,-0.1437705010175705,1,-0.1021129488945007,1,0.6904779076576233,1
1777498718670355200,-0.1115305125713348,1,-0.21147121489048,1,0.4419352412223816,1
1777498718680242688,-0.1812059730291367,1,-0.01105130929499865,1,0.4741542935371399,1
1777498718690110976,-0.1429458409547806,1,-0.1184539049863815,1,0.2471353262662888,1
1777498718699960064,-0.238286018371582,1,-0.2058767229318619,1,0.5813358426094055,1
1777498718709790464,-0.3229008615016937,1,-0.01268233917653561,1,0.4500569999217987,1
1777498718719601408,-0.1883268803358078,1,0.02657213807106018,1,0.3318967223167419,1
1777498718729394688,-0.1741534620523453,1,0.0526849627494812,1,0.484927237033844,1
1777498718739169024,-0.1596757173538208,1,-0.1012845858931541,1,0.7837250232696533,1
1777498718749156096,-0.1246063709259033,1,0.002974042668938637,1,0.5421380400657654,1
1777498718759355648,-0.04682264104485512,1,0.00540377339348197,1,0.5663405656814575,1
1777498718769535488,-0.1241675466299057,1,-0.02839771658182144,1,0.6297565698623657,1
1777498718779695872,-0.03454913944005966,1,-0.1977600157260895,1,0.5671192407608032,1
