FILE_INFO
ListSeparator=,
DecimalSeparator=.

SESSION_INFO
TimeZone,UTC
TimeZoneOffset,0
DateTimeFormat,nnnnnnnnnnnnnnnnnnn
StartTime,04/29/26 21:48:16.026840320
TimeFormat,Unix

DEVICE_INFO
Address,*

CHANNEL_INFO
Channel,Type,SampleRate,Equation,Coefficients,Unit,UnitSymbol,WhereApplied,WhenApplied
inertial-6286.188861:estLinearAccelX,Timeseries,100Hz,,,,,,
inertial-6286.188861:estLinearAccelX:valid,ValidFlag,100Hz,,,,,,
inertial-6286.188861:estLinearAccelY,Timeseries,100Hz,,,,,,
inertial-6286.188861:estLinearAccelY:valid,ValidFlag,100Hz,,,,,,
inertial-6286.188861:estLinearAccelZ,Timeseries,100Hz,,,,,,
inertial-6286.188861:estLinearAccelZ:valid,ValidFlag,100Hz,,,,,,

DATA_START
Time,inertial-6286.188861:estLinearAccelX,inertial-6286.188861:estLinearAccelX:valid,inertial-6286.188861:estLinearAccelY,inertial-6286.188861:estLinearAccelY:valid,inertial-6286.188861:estLinearAccelZ,inertial-6286.188861:estLinearAccelZ:valid
1777499296026840320,-0.006455513183027506,1,-0.00980606023222208,1,0.04007701948285103,1
1777499296036972288,-0.005062298849225044,1,-0.01047369185835123,1,0.03979943320155144,1
1777499296047092480,-0.004602853208780289,1,-0.01019329391419888,1,0.03842624649405479,1
1777499296057193472,-0.005655624438077211,1,-0.0133493198081851,1,0.04135863482952118,1
1777499296067274752,-0.004303747788071632,1,-0.01571634598076344,1,0.04151159524917603,1
1777499296077336320,-0.003236970864236355,1,-0.01185742113739252,1,0.0412750244140625,1
1777499296087378432,0.0004420173063408583,1,-0.01001446973532438,1,0.04216824099421501,1
1777499296097401088,0.002776833018288016,1,-0.004130610264837742,1,0.04107443243265152,1
1777499296107871232,0.004197059664875269,1,-0.0002529148478060961,1,0.04419656470417976,1
1777499296118320896,0.005398331210017204,1,0.005219784565269947,1,0.04497257620096207,1
1777499296128750336,0.002922271843999624,1,0.005988133605569601,1,0.04315472766757011,1
1777499296139159552,0.002015879610553384,1,0.005319210700690746,1,0.04683500900864601,1
1777499296149548544,0.003629300510510802,1,0.004843457136303186,1,0.04491084069013596,1
1777499296159917056,0.003222526283934712,1,0.003902193857356906,1,0.04424264281988144,1
1777499296170266112,0.005751868709921837,1,0.00292858062312007,1,0.0398731417953968,1
1777499296180594688,0.005428014788776636,1,-0.0007409194950014353,1,0.04336485266685486,1
1777499296190903296,0.003503303043544292,1,-0.003715690458193421,1,0.04227541387081146,1
1777499296201191936,0.004837167914956808,1,-0.006570708472281694,1,0.0415043830871582,1
1777499296211460864,0.002206328790634871,1,-0.01087182015180588,1,0.04225605353713036,1
1777499296221711616,0.001983140129595995,1,-0.009024071507155895,1,0.03716491907835007,1
1777499296231943936,0.002023394219577312,1,-0.006887168157845736,1,0.04107315838336945,1
1777499296242156544,0.00236617517657578,1,-0.002050652401521802,1,0.04121313616633415,1
1777499296252349696,0.002713186666369438,1,-0.001984854927286506,1,0.04433291777968407,1
1777499296262522880,0.001705229049548507,1,-0.0004183688433840871,1,0.04447292909026146,1
1777499296272676096,0.002103561302646995,1,0.002007560105994344,1,0.0441235825419426,1
1777499296282809600,0.002667286666110158,1,0.003518978832289577,1,0.04316119104623795,1
1777499296292923392,0.004123270511627197,1,0.00030916539253667,1,0.04173506796360016,1
1777499296303017472,0.005089655052870512,1,-0.0004680905840359628,1,0.04446273669600487,1
1777499296313092096,0.002675664378330112,1,-0.004567906260490417,1,0.04412300512194633,1
1777499296323147008,-6.177349132485688e-05,1,-0.00829671137034893,1,0.04491504654288292,1
1777499296333182208,-0.001950975158251822,1,-0.0138792097568512,1,0.04533301293849945,1
1777499296343197696,-0.003143776208162308,1,-0.01721376925706863,1,0.04470460116863251,1
1777499296353425920,-0.003194743068888783,1,-0.0187255572527647,1,0.04497142508625984,1
1777499296363866368,-0.003256162628531456,1,-0.01701356843113899,1,0.03997973725199699,1
1777499296374286592,-0.0007565268315374851,1,-0.01620603539049625,1,0.04227517172694206,1
1777499296384687104,0.0007559555815532804,1,-0.01170989684760571,1,0.04268225282430649,1
1777499296395067392,0.001579759758897126,1,-0.009050078690052032,1,0.0421966090798378,1
1777499296405427712,0.00313572003506124,1,-0.006158932112157345,1,0.0464242696762085,1
1777499296415768064,0.001624086289666593,1,-0.003666955512017012,1,0.04454884305596352,1
1777499296426088192,0.002143873367458582,1,-0.0009808081667870283,1,0.04325084388256073,1
1777499296436388352,0.003950769547373056,1,0.001791285583749413,1,0.04268894344568253,1
1777499296446668544,0.006856851745396852,1,0.00187399925198406,1,0.0423220582306385,1
1777499296456928768,0.004829389974474907,1,0.001901622745208442,1,0.042518001049757,1
1777499296467172096,0.003257215721532702,1,0.00307112094014883,1,0.03807388991117477,1
1777499296477395456,0.0008004170376807451,1,3.488865331746638e-05,1,0.04293425008654594,1
1777499296487599104,0.001668126555159688,1,-0.001931651961058378,1,0.04211592674255371,1
1777499296497782784,0.004600058309733868,1,-0.003921835217624903,1,0.04412312805652618,1
1777499296507946752,0.006323753390461206,1,-0.001375549356453121,1,0.04087455198168755,1
1777499296518090752,0.005775345955044031,1,0.001505906111560762,1,0.04030022397637367,1
1777499296528215296,0.004958067554980516,1,0.004321907181292772,1,0.04403924196958542,1
1777499296538319872,0.00340613815933466,1,0.006625405047088861,1,0.04368716850876808,1
1777499296548405760,-0.001001734053716063,1,0.008978446014225483,1,0.04742525890469551,1
1777499296558471680,-0.005053556524217129,1,0.00716397212818265,1,0.04632239416241646,1
1777499296568517632,-0.00702555337920785,1,0.002789217047393322,1,0.04351215064525604,1
1777499296578544128,-0.006343113724142313,1,-0.003635295433923602,1,0.04344356805086136,1
1777499296588551168,-0.003172739408910275,1,-0.008332235738635063,1,0.04432468116283417,1
1777499296598769920,-0.002227669581770897,1,-0.01533603202551603,1,0.04467209056019783,1
1777499296609200384,-0.001200043014250696,1,-0.02029305510222912,1,0.04062085226178169,1
1777499296619610368,-0.001181418658234179,1,-0.02263469621539116,1,0.04420773312449455,1
1777499296630000128,-0.0006434638053178787,1,-0.02437630854547024,1,0.0424843542277813,1
1777499296640369664,-0.003959610126912594,1,-0.02624538727104664,1,0.0433991551399231,1
1777499296650720256,-0.003966017160564661,1,-0.02289637736976147,1,0.04485294595360756,1
1777499296661050880,-0.003167960327118635,1,-0.01673217117786407,1,0.03869310766458511,1
1777499296671361280,-0.001057086046785116,1,-0.01017568819224834,1,0.04048884660005569,1
1777499296681651712,-0.0007478703046217561,1,-0.004603947978466749,1,0.04144595190882683,1
1777499296691922432,0.002092752605676651,1,0.001044580363668501,1,0.04318011552095413,1
1777499296702173440,0.004879374988377094,1,0.006748716346919537,1,0.04184091091156006,1
1777499296712404224,0.006007125601172447,1,0.01387329958379269,1,0.04271276295185089,1
1777499296722615040,0.007253825664520264,1,0.01459666155278683,1,0.04613474756479263,1
1777499296732806912,0.009054382331669331,1,0.01327866595238447,1,0.04427693039178848,1
1777499296742978816,0.009319089353084564,1,0.01128108147531748,1,0.04665099456906319,1
1777499296753131008,0.008628669194877148,1,0.009973224252462387,1,0.04324445128440857,1
1777499296763263488,0.008351775817573071,1,0.003647909732535481,1,0.04481426998972893,1
1777499296773376000,0.007473838049918413,1,-0.002048889175057411,1,0.04477719962596893,1
1777499296783468800,0.006479195784777403,1,-0.009050291962921619,1,0.0426199696958065,1
1777499296793544704,0.003845337545499206,1,-0.01632796972990036,1,0.04643090069293976,1
1777499296803604480,-0.0003725007409229875,1,-0.01554210390895605,1,0.0428512804210186,1
1777499296813644800,-0.004340778104960918,1,-0.01695749349892139,1,0.04416513442993164,1
1777499296823665664,-0.008004776202142239,1,-0.01748747564852238,1,0.04284917563199997,1
1777499296833666816,-0.01026595942676067,1,-0.01287872809916735,1,0.04214857518672943,1
1777499296843878656,-0.0125921880826354,1,-0.008915623649954796,1,0.04544061049818993,1
1777499296854300416,-0.01777181029319763,1,-0.004620613530278206,1,0.04105031117796898,1
1777499296864701696,-0.02067888528108597,1,0.00857992097735405,1,0.04123151302337646,1
1777499296875082752,-0.01455649454146624,1,0.003619472496211529,1,0.05294633284211159,1
1777499296885443328,-0.01141299493610859,1,-0.003929654136300087,1,0.03931228816509247,1
1777499296895785216,-0.01259054150432348,1,-0.007698272354900837,1,0.04245688766241074,1
1777499296906106624,-0.01723548956215382,1,-0.01948424428701401,1,0.03962955251336098,1
1777499296916408064,-0.02540952526032925,1,-0.02931796945631504,1,0.04476346075534821,1
1777499296926689536,-0.03204640001058578,1,-0.03457812592387199,1,0.04324562102556229,1
1777499296936951040,-0.030667744576931,1,-0.04572666063904762,1,0.03911815583705902,1
1777499296947191808,-0.02111619524657726,1,-0.0556061714887619,1,0.04015056416392326,1
1777499296957412608,-0.002644675783813,1,-0.06138761341571808,1,0.03574008494615555,1
1777499296967613696,0.01102928444743156,1,-0.06448830664157867,1,0.04013302177190781,1
1777499296977794816,0.01880339533090591,1,-0.05220500379800797,1,0.04588017612695694,1
1777499296987956224,0.02923959866166115,1,-0.03025487065315247,1,0.03246920928359032,1
1777499296998097408,0.03249881789088249,1,-0.003974299877882004,1,0.04209737479686737,1
1777499297008218880,0.03574943169951439,1,0.02703223377466202,1,0.05012258514761925,1
1777499297018320384,0.04031229019165039,1,0.05648397281765938,1,0.05708396807312965,1
1777499297028402432,0.04035793244838715,1,0.08864670991897583,1,0.0489308126270771,1
1777499297038464512,0.03709224984049797,1,0.1064959093928337,1,0.05049904435873032,1
1777499297048506880,0.04169667884707451,1,0.1018312200903893,1,0.05051640793681145,1
1777499297058530560,0.04034325107932091,1,0.09075113385915756,1,0.05367300659418106,1
1777499297068534784,0.03341856598854065,1,0.0775860920548439,1,0.04929113388061523,1
1777499297078519040,0.02500704303383827,1,0.06451313942670822,1,0.04301922768354416,1
1777499297088720640,0.0172932967543602,1,0.03939789906144142,1,0.04317319020628929,1
1777499297099138816,0.01069388259202242,1,0.008023801259696484,1,0.04214198514819145,1
1777499297109537024,-0.005968871060758829,1,-0.01612155139446259,1,0.04671173915266991,1
1777499297119915008,-0.02151678502559662,1,-0.03306985273957253,1,0.03773052617907524,1
1777499297130273536,-0.03128893300890923,1,-0.05192031338810921,1,0.03498151898384094,1
1777499297140611328,-0.03691617771983147,1,-0.06866408139467239,1,0.03501780703663826,1
1777499297150929152,-0.03626732528209686,1,-0.07778734713792801,1,0.04080592468380928,1
1777499297161227264,-0.03653617575764656,1,-0.07346019893884659,1,0.03028083592653275,1
1777499297171504640,-0.03221981972455978,1,-0.064809650182724,1,0.03131746500730515,1
1777499297181762048,-0.02983751147985458,1,-0.05586342513561249,1,0.03918079286813736,1
1777499297191999488,-0.02346770651638508,1,-0.04917735978960991,1,0.04473703727126122,1
1777499297202216960,-0.01408580411225557,1,-0.04716129973530769,1,0.03785481676459312,1
1777499297212414464,-0.005514564923942089,1,-0.0406656451523304,1,0.04558728262782097,1
1777499297222592256,0.01312194764614105,1,-0.03038611263036728,1,0.03749826177954674,1
1777499297232750080,0.00950765423476696,1,-0.02536400407552719,1,0.04176231846213341,1
1777499297242891264,0.009777916595339775,1,-0.01367404870688915,1,0.04517853632569313,1
1777499297253012736,0.002282909816130996,1,0.0004385138163343072,1,0.03846080601215363,1
1777499297263114496,-0.00631774915382266,1,0.004165950696915388,1,0.04205646365880966,1
1777499297273196800,0.000619188416749239,1,0.002142027951776981,1,0.04416698589920998,1
1777499297283259392,0.009017356671392918,1,0.00293858558870852,1,0.0423782542347908,1
1777499297293302272,0.02284056693315506,1,-0.001771361916325986,1,0.03882589563727379,1
1777499297303325696,0.0245779063552618,1,0.001004284014925361,1,0.04495204612612724,1
1777499297313329408,0.02143921889364719,1,0.006599006243050098,1,0.04016085714101791,1
1777499297323313920,0.0053475396707654,1,0.01672682538628578,1,0.0498865619301796,1
1777499297333278720,-0.01545030251145363,1,0.02575841918587685,1,0.04404082894325256,1
1777499297343696640,-0.03304636105895042,1,0.02130281925201416,1,0.05201147869229317,1
1777499297354094336,-0.04093892872333527,1,0.007167630828917027,1,0.04461472481489182,1
1777499297364472064,-0.03540312126278877,1,-0.01355986855924129,1,0.03820458427071571,1
1777499297374829312,-0.02118914574384689,1,-0.03248417750000954,1,0.03835307061672211,1
1777499297385166592,-0.008981568738818169,1,-0.05097193643450737,1,0.03559932112693787,1
1777499297395483648,-0.009443989023566246,1,-0.05653220042586327,1,0.04164564236998558,1
1777499297405780480,-0.01940775476396084,1,-0.05523528903722763,1,0.04397957399487495,1
1777499297416057344,-0.02364091575145721,1,-0.04076484218239784,1,0.04066942632198334,1
1777499297426313984,-0.01278143748641014,1,-0.0317486897110939,1,0.03330415114760399,1
1777499297436550400,0.01418037712574005,1,-0.02805818617343903,1,0.03991414606571198,1
1777499297446769920,0.0589526891708374,1,-0.002394328825175762,1,0.04509072750806808,1
1777499297456969472,0.06318587809801102,1,0.02512486651539803,1,0.0440857820212841,1
1777499297467148800,0.05878961458802223,1,0.05241258069872856,1,0.04184167832136154,1
1777499297477308672,0.03344448655843735,1,0.0859641432762146,1,0.04997142031788826,1
1777499297487449344,0.01713929325342178,1,0.1100119948387146,1,0.05949469655752182,1
1777499297497570048,0.0002059894613921642,1,0.1210159733891487,1,0.06859032809734344,1
1777499297507671296,-0.003368064761161804,1,0.1160487532615662,1,0.06805799156427383,1
1777499297517752576,0.0086132837459445,1,0.1095666661858559,1,0.05369827896356583,1
1777499297527814912,0.016369903460145,1,0.08220934867858887,1,0.04221609979867935,1
1777499297537857536,0.02320176549255848,1,0.03945022076368332,1,0.04815370216965675,1
1777499297547880704,0.0151471309363842,1,0.01264634542167187,1,0.01963334158062935,1
1777499297557884416,-0.03896753489971161,1,0.007004570215940475,1,0.05149728432297707,1
1777499297567868416,-0.1157500445842743,1,0.009281891398131847,1,0.01121661625802517,1
1777499297577833216,-0.1402306854724884,1,-0.1247996985912323,1,0.05462497472763062,1
1777499297588011264,-0.1606932729482651,1,-0.06844804435968399,1,-0.09429118037223816,1
1777499297598401792,-0.1408722251653671,1,-0.07900889962911606,1,0.06735032796859741,1
1777499297608772352,-0.01528821792453527,1,-0.1780152171850204,1,-0.08385591208934784,1
1777499297619122944,0.05000587180256844,1,-0.245447963476181,1,0.1476297974586487,1
1777499297629453824,0.16181980073452,1,-0.2074332982301712,1,-0.0722339004278183,1
1777499297639764224,0.1738548427820206,1,-0.1727224141359329,1,0.02434154972434044,1
1777499297650054656,0.1265895664691925,1,-0.05681849643588066,1,-0.06270891427993774,1
1777499297660325120,0.05396078154444695,1,0.05554676800966263,1,0.09597731381654739,1
1777499297670575616,-0.006966065149754286,1,0.09922214597463608,1,0.07981346547603607,1
1777499297680808192,-0.00691560423001647,1,0.1558568924665451,1,0.1354518234729767,1
1777499297691020800,0.1351259052753448,1,0.2137010395526886,1,0.06859980523586273,1
1777499297701213184,0.2890368700027466,1,0.2800402343273163,1,0.08329758793115616,1
1777499297711385600,0.3883367478847504,1,0.3160693943500519,1,0.1205083355307579,1
1777499297721538304,0.3469116389751434,1,0.2934794723987579,1,0.09678281098604202,1
1777499297731671296,0.2508013546466827,1,0.3055650293827057,1,0.1317897886037827,1
1777499297741784064,0.1672608852386475,1,0.2868442237377167,1,0.01525254640728235,1
1777499297751877120,0.07291567325592041,1,0.2335735559463501,1,0.05197535082697868,1
1777499297761950976,0.0210501030087471,1,0.2335697859525681,1,0.005722507834434509,1
1777499297772004864,-0.0128913652151823,1,0.1979333609342575,1,0.07324956357479095,1
1777499297782039552,-0.02466218546032906,1,0.1314221322536469,1,0.03031828999519348,1
1777499297792054528,-0.01945428550243378,1,-0.02781027927994728,1,0.05952000990509987,1
1777499297802049792,-0.003891906933858991,1,-0.1845346391201019,1,-0.004817365668714046,1
1777499297812025600,0.01489512529224157,1,-0.291175901889801,1,0.06596832722425461,1
1777499297821981696,0.03342900797724724,1,-0.3589995503425598,1,0.03085793368518353,1
1777499297832151552,0.02089916542172432,1,-0.3753681480884552,1,0.002859885804355145,1
1777499297842534656,0.009066184982657433,1,-0.3564317524433136,1,-0.005778816528618336,1
1777499297852897536,-0.01681516319513321,1,-0.3216376304626465,1,0.05140677094459534,1
1777499297863240192,-0.04424169659614563,1,-0.2431280761957169,1,0.03835347667336464,1
1777499297873563136,-0.09082053601741791,1,-0.1640071272850037,1,0.05126337707042694,1
1777499297883866368,-0.1196639761328697,1,-0.09854770451784134,1,0.02721178531646729,1
1777499297894149888,-0.1524759978055954,1,-0.06815551221370697,1,0.05120418220758438,1
1777499297904412928,-0.170273557305336,1,-0.04518783092498779,1,0.03018367849290371,1
1777499297914656256,-0.1820991039276123,1,-0.0146922841668129,1,0.06087381392717361,1
1777499297924879616,-0.1801555454730988,1,0.03976378962397575,1,0.05235503613948822,1
1777499297935083008,-0.1742871999740601,1,0.08451432734727859,1,0.04624487459659576,1
1777499297945266944,-0.1631186455488205,1,0.1110675781965256,1,0.03814003244042397,1
1777499297955431680,-0.1463845372200012,1,0.1003140509128571,1,0.05517318099737167,1
1777499297965576704,-0.1350876539945602,1,0.062364861369133,1,0.05674859881401062,1
1777499297975702016,-0.1157287731766701,1,0.004198381211608648,1,0.03892184421420097,1
1777499297985807616,-0.09394171833992004,1,-0.0493260845541954,1,0.03988524153828621,1
1777499297995893504,-0.1919189393520355,1,0.11446912586689,1,0.2855172157287598,1
1777499298005959680,-0.03834231570363045,1,-0.005660872906446457,1,0.02482789754867554,1
1777499298016008960,0.03790402412414551,1,0.04179041832685471,1,-0.004873339086771011,1
1777499298026041344,0.01073462516069412,1,0.03418547660112381,1,0.08212815225124359,1
1777499298036054528,0.01820561662316322,1,-0.03123172745108604,1,0.1500880420207977,1
1777499298046048256,0.05672592669725418,1,-0.004993043839931488,1,0.08349306881427765,1
1777499298056022528,0.4830294251441956,1,-0.09268184006214142,1,0.1391350030899048,1
1777499298065977600,0.1002803221344948,1,-0.07127052545547485,1,0.0165177583694458,1
1777499298076143616,-0.01660857349634171,1,-0.04828237742185593,1,0.07087663561105728,1
1777499298086520064,0.02081887982785702,1,0.03600199893116951,1,-0.02349570021033287,1
1777499298096876288,0.01061038114130497,1,0.1491009294986725,1,0.1102261319756508,1
1777499298107212288,-0.004501944873481989,1,0.1547078192234039,1,0.004686376079916954,1
1777499298117528576,0.02865954488515854,1,0.1387717425823212,1,0.09513255953788757,1
1777499298127824896,0.04560848698019981,1,0.09971368312835693,1,0.004162626340985298,1
1777499298138101248,0.02917454950511456,1,0.09899445623159409,1,0.1034861505031586,1
1777499298148357376,0.07050856947898865,1,0.03365224227309227,1,0.0009084772318601608,1
1777499298158593536,0.07649176567792892,1,-0.045965526252985,1,0.05709662288427353,1
1777499298168809728,0.1185029149055481,1,-0.1283438205718994,1,-0.07269441336393356,1
1777499298179006208,-0.04348123818635941,1,-0.1363018453121185,1,0.1778876036405563,1
1777499298189182720,0.006254321895539761,1,-0.1131437718868256,1,-0.08566903322935104,1
1777499298199339776,-0.01676834747195244,1,-0.1223787218332291,1,0.148651972413063,1
1777499298209476608,-0.01700712367892265,1,-0.054035484790802,1,-0.08374041318893433,1
1777499298219593728,-0.03281517699360847,1,-0.07698582112789154,1,0.1102679222822189,1
1777499298229690880,-0.06270235031843185,1,-0.04708082228899002,1,-0.01823447458446026,1
1777499298239768576,-0.04941464588046074,1,-0.02477512136101723,1,0.05407865718007088,1
1777499298249828608,-0.08433375507593155,1,0.01771458983421326,1,0.06915806978940964,1
1777499298259871744,-0.06539906561374664,1,0.05270818248391151,1,0.04962526634335518,1
1777499298269895424,-0.06811341643333435,1,0.06006225198507309,1,0.07349509000778198,1
1777499298279899904,-0.05139264091849327,1,0.06800037622451782,1,0.01434034109115601,1
1777499298289885184,-0.037063367664814,1,0.0439615361392498,1,0.08448651432991028,1
1777499298299851008,-0.02123725973069668,1,0.01203282829374075,1,0.00616567675024271,1
1777499298309797376,-0.001645471667870879,1,-0.01594637334346771,1,0.080296590924263,1
1777499298319958016,0.01800269074738026,1,-0.02325032465159893,1,0.002485249657183886,1
1777499298330332928,0.03346940875053406,1,-0.04346726462244987,1,0.07284741848707199,1
1777499298340687616,0.0458739660680294,1,-0.04696923494338989,1,0.01103399228304625,1
1777499298351022336,0.05025728046894073,1,-0.05334817990660667,1,0.060162004083395,1
1777499298361337856,0.05031150579452515,1,-0.0444297194480896,1,0.01992425508797169,1
1777499298371632896,0.04726706445217133,1,-0.04519779607653618,1,0.0519283339381218,1
1777499298381908224,0.04016475006937981,1,-0.0232697818428278,1,0.03628071397542953,1
1777499298392163584,0.029280174523592,1,0.001725127454847097,1,0.04092437773942947,1
1777499298402399232,0.01988755725324154,1,0.02505320869386196,1,0.04466644302010536,1
1777499298412614912,0.01320879533886909,1,0.04652662947773933,1,0.04123982414603233,1
1777499298422810624,0.004274156410247087,1,0.0566241480410099,1,0.05551028996706009,1
1777499298432986112,-0.0002450330648571253,1,0.06594721227884293,1,0.03774748370051384,1
1777499298443142912,-0.01057987753301859,1,0.05589524284005165,1,0.05285784602165222,1
1777499298453279744,-0.01512062177062035,1,0.03638569265604019,1,0.03029236942529678,1
1777499298463399424,-0.01549119222909212,1,0.006988056469708681,1,0.05765383690595627,1
1777499298473499648,-0.008792106062173843,1,-0.0143438559025526,1,0.03064082935452461,1
1777499298483580160,-0.008601430803537369,1,-0.03755819052457809,1,0.04954158142209053,1
1777499298493640960,-0.01454477570950985,1,-0.05256198346614838,1,0.02523970417678356,1
1777499298503683072,-0.05956865102052689,1,-0.07222367078065872,1,0.05771331116557121,1
1777499298513705472,-0.03479897975921631,1,-0.06892082840204239,1,0.00588097283616662,1
1777499298523708672,-0.02501064166426659,1,-0.08777624368667603,1,0.07608955353498459,1
1777499298533692160,0.002202418632805347,1,-0.04394456371665001,1,0.0307336114346981,1
1777499298543656960,-0.01605137437582016,1,-0.0178728774189949,1,0.04197527840733528,1
1777499298553602304,0.00633162260055542,1,-0.02838721126317978,1,0.02107008174061775,1
1777499298563528192,0.01143665704876184,1,0.01488327980041504,1,0.05342364683747292,1
1777499298573896448,0.01628798060119152,1,0.02052412554621696,1,0.03649154305458069,1
1777499298584244736,0.01454279851168394,1,0.03354991599917412,1,0.05449473857879639,1
1777499298594573056,0.02614212036132812,1,0.06339382380247116,1,0.04496769979596138,1
1777499298604880896,0.01208949647843838,1,0.06784608960151672,1,0.04772521555423737,1
1777499298615168768,0.01988394558429718,1,0.04764147475361824,1,0.04506789892911911,1
1777499298625436672,0.01377071719616652,1,0.01796220988035202,1,0.04288522899150848,1
1777499298635684864,0.01772592589259148,1,0.008127781562507153,1,0.0546843521296978,1
1777499298645914624,0.0210946798324585,1,0.00396390538662672,1,0.02810016646981239,1
1777499298656124416,0.02574589103460312,1,-0.01655058562755585,1,0.04528344050049782,1
1777499298666314240,0.02258627489209175,1,-0.02578893676400185,1,0.05039208754897118,1
1777499298676484352,0.01620130985975266,1,-0.03159568831324577,1,0.03712218627333641,1
1777499298686635008,0.00455103162676096,1,-0.04867482557892799,1,0.05692865327000618,1
1777499298696765696,-0.002611633390188217,1,-0.05594224482774734,1,0.02937716990709305,1
1777499298706876160,-0.01699495315551758,1,-0.04674914106726646,1,0.04737066105008125,1
1777499298716967168,-0.02375136688351631,1,-0.03184195980429649,1,0.03469016402959824,1
1777499298727038976,-0.02912305109202862,1,-0.01625035330653191,1,0.04705252125859261,1
1777499298737090816,-0.02778227813541889,1,0.002849312266334891,1,0.04005295410752296,1
1777499298747123200,-0.02937259711325169,1,0.0129158878698945,1,0.05206948518753052,1
1777499298757136128,-0.02982659637928009,1,0.02299149334430695,1,0.0462363138794899,1
1777499298767129088,-0.02555918507277966,1,0.02033277414739132,1,0.03968966752290726,1
1777499298777102592,-0.01932701095938683,1,0.009774612262845039,1,0.04597955942153931,1
1777499298787056640,-0.01020684745162725,1,0.001073905266821384,1,0.04332450032234192,1
1777499298796991744,-0.002156870439648628,1,-0.004647080786526203,1,0.03915653005242348,1
1777499298806908160,0.006083825137466192,1,-0.008251401595771313,1,0.04337282478809357,1
1777499298817278720,0.01453439239412546,1,-0.01382207963615656,1,0.04360087588429451,1
1777499298827629056,0.01825243048369884,1,-0.01737330108880997,1,0.04312019422650337,1
1777499298837959424,0.02223863452672958,1,-0.02176820114254951,1,0.04093755036592484,1
1777499298848269824,0.02093045227229595,1,-0.02778923325240612,1,0.03889289125800133,1
1777499298858560000,0.01890090294182301,1,-0.02911608666181564,1,0.03824866563081741,1
1777499298868829952,0.01660698279738426,1,-0.02228671312332153,1,0.03879046440124512,1
1777499298879081728,0.01285292766988277,1,-0.004690898116677999,1,0.04398664459586143,1
1777499298889313792,0.01040430832654238,1,0.01087343692779541,1,0.0406455434858799,1
1777499298899525888,0.006765533238649368,1,0.01925988309085369,1,0.04399919137358665,1
1777499298909718528,0.004666858818382025,1,0.02694736793637276,1,0.04598357155919075,1
1777499298919891200,0.0002371862647123635,1,0.02703482285141945,1,0.04220921546220779,1
1777499298930044928,-0.003363542724400759,1,0.0203285776078701,1,0.04169086366891861,1
1777499298940178688,-0.005912816151976585,1,0.01059277169406414,1,0.04296721145510674,1
1777499298950292992,-0.006436313968151808,1,0.002031950745731592,1,0.04288159683346748,1
1777499298960387840,-0.005905635189265013,1,-0.004202475771307945,1,0.04281767830252647,1
1777499298970462976,-0.005018617026507854,1,-0.01056080870330334,1,0.04288825392723083,1
1777499298980518400,-0.005884748417884111,1,-0.0190320797264576,1,0.04149283841252327,1
1777499298990554368,-0.005339958239346743,1,-0.02773150056600571,1,0.04090848937630653,1
1777499299000570880,-0.004850437864661217,1,-0.03229906037449837,1,0.03993254899978638,1
1777499299010567936,-0.002618367318063974,1,-0.03559420257806778,1,0.03792977333068848,1
1777499299020545792,-0.001384134171530604,1,-0.03433965891599655,1,0.03884737938642502,1
1777499299030504704,0.0003621199866756797,1,-0.02291637659072876,1,0.04103535041213036,1
1777499299040450304,0.0001919596397783607,1,-0.01092923898249865,1,0.04344905912876129,1
1777499299050376704,0.000881809217389673,1,0.00460047135129571,1,0.04311062023043633,1
1777499299060513024,-0.0006385152228176594,1,0.01429000217467546,1,0.04881882667541504,1
1777499299070858496,-0.002944188192486763,1,0.01635337993502617,1,0.04471508041024208,1
1777499299081183744,-0.001598771661520004,1,0.01795205101370811,1,0.04448800534009933,1
1777499299091489792,0.0003168494440615177,1,0.01699198037385941,1,0.04516551271080971,1
1777499299101775616,0.0009302060934714973,1,0.01098737400025129,1,0.04575655981898308,1
1777499299112041472,0.001480613253079355,1,0.006094881799072027,1,0.04311226308345795,1
1777499299122287360,0.0009670089930295944,1,-0.0008707725210115314,1,0.04389027133584023,1
1777499299132513536,0.003594745416194201,1,-0.008021365851163864,1,0.04172918573021889,1
1777499299142719744,0.005229291506111622,1,-0.01540027093142271,1,0.04180466756224632,1
1777499299152905728,0.005513838957995176,1,-0.02255578525364399,1,0.04350883886218071,1
1777499299163072000,0.006230666302144527,1,-0.02463983744382858,1,0.0404834970831871,1
1777499299173219072,0.005868475884199142,1,-0.02562413364648819,1,0.04027306288480759,1
1777499299183345920,0.004855025094002485,1,-0.02246313169598579,1,0.04244941845536232,1
1777499299193456640,0.003018004121258855,1,-0.01520053669810295,1,0.0421227402985096,1
1777499299203547392,-0.002354931784793735,1,-0.006039187777787447,1,0.04154380410909653,1
1777499299213618944,-0.004611492156982422,1,0.004510535858571529,1,0.04430494084954262,1
1777499299223670528,-0.004320130683481693,1,0.00775531679391861,1,0.04075691476464272,1
1777499299233702912,-0.008147891610860825,1,0.01085872109979391,1,0.04407105594873428,1
1777499299243715840,-0.007637598551809788,1,0.009040753357112408,1,0.04144794121384621,1
1777499299253709056,-0.007569049019366503,1,0.00694560632109642,1,0.04296828806400299,1
1777499299263682816,-0.004430099856108427,1,0.001602903241291642,1,0.04296199604868889,1
1777499299273637376,-0.0002307197137270123,1,-0.002649465575814247,1,0.04410755261778831,1
1777499299283572480,0.0008881251560524106,1,-0.007319988217204809,1,0.04497746378183365,1
1777499299293488384,0.004590227268636227,1,-0.01216288190335035,1,0.04346579313278198,1
1777499299303616768,0.007372934371232986,1,-0.01690667308866978,1,0.04394467547535896,1
1777499299313957120,0.008074288256466389,1,-0.01995913125574589,1,0.04221095517277718,1
1777499299324276992,0.006936571095138788,1,-0.02281263098120689,1,0.04301795735955238,1
1777499299334577664,0.003768527414649725,1,-0.0212094858288765,1,0.04240851476788521,1
1777499299344858368,0.002662059152498841,1,-0.0145846251398325,1,0.04045407846570015,1
1777499299355119104,0.002863534493371844,1,-0.007749577984213829,1,0.04151018336415291,1
1777499299365359616,-0.0007335185655392706,1,-0.001060159876942635,1,0.04290204867720604,1
1777499299375580416,-0.002152201253920794,1,0.007093179970979691,1,0.04372017830610275,1
1777499299385781248,-0.003181308275088668,1,0.009976007044315338,1,0.04420312121510506,1
1777499299395961856,-0.005235778633505106,1,0.0103180855512619,1,0.04386063292622566,1
1777499299406122496,-0.006369415204972029,1,0.003890461986884475,1,0.04554067179560661,1
1777499299416263680,-0.00612305011600256,1,0.001681203721091151,1,0.04388610646128654,1
1777499299426388480,-0.004019915126264095,1,-0.003282272722572088,1,0.04507977515459061,1
1777499299436493312,-0.001113813952542841,1,-0.007112388964742422,1,0.04180318489670753,1
1777499299446578944,0.002052451251074672,1,-0.01055429875850677,1,0.04372367262840271,1
1777499299456644608,0.002721507335081697,1,-0.01410227175801992,1,0.03727291896939278,1
1777499299466690816,0.005864899605512619,1,-0.01941755414009094,1,0.04045464843511581,1
1777499299476717568,0.004950117785483599,1,-0.01935103721916676,1,0.04049459472298622,1
1777499299486724608,0.004379991441965103,1,-0.01888631284236908,1,0.04187611490488052,1
1777499299496711936,0.005665566772222519,1,-0.016391322016716,1,0.03970200940966606,1
1777499299506680320,0.002359988167881966,1,-0.009805942885577679,1,0.0439879335463047,1
1777499299516628992,0.0003988388925790787,1,-0.002852143719792366,1,0.04044809564948082,1
1777499299526558208,-0.001337231718935072,1,0.003738150000572205,1,0.03992171585559845,1
1777499299536467968,-0.00298658711835742,1,0.006353531964123249,1,0.0435856357216835,1
1777499299546591232,-0.00558418408036232,1,0.007984185591340065,1,0.04576970264315605,1
1777499299556927232,-0.00312182167544961,1,0.00631813146173954,1,0.04417877271771431,1
1777499299567243008,-0.0005742895882576704,1,0.0036418701056391,1,0.0397871620953083,1
1777499299577539328,0.01596423238515854,1,-0.0124962879344821,1,0.01566243357956409,1
1777499299587816704,0.0326736606657505,1,0.01356987655162811,1,0.03481866791844368,1
1777499299598074368,0.0875478982925415,1,0.1403584778308868,1,0.02531915158033371,1
1777499299608311296,0.08722430467605591,1,0.2411506474018097,1,0.2204041332006454,1
1777499299618528768,0.07156998664140701,1,0.270616352558136,1,-0.1680535525083542,1
1777499299628726784,0.09518526494503021,1,0.02583782747387886,1,0.2233549356460571,1
1777499299638904832,0.4574462175369263,1,1.062958717346191,1,-0.8003697991371155,1
1777499299649062912,0.7020970582962036,1,1.346395373344421,1,0.6117802262306213,1
1777499299659201280,0.9200456738471985,1,0.3716719448566437,1,0.5065879821777344,1
1777499299669321984,0.9545758366584778,1,-0.6090238094329834,1,-0.04708193987607956,1
1777499299679424000,0.6933106780052185,1,-0.3635336756706238,1,0.2906282842159271,1
1777499299689506560,0.6325761675834656,1,-0.255629301071167,1,-0.3694938123226166,1
1777499299699569408,0.4072546362876892,1,-0.4491191506385803,1,-0.1020795702934265,1
1777499299709612544,0.2420817911624908,1,-0.5307813882827759,1,0.06481696665287018,1
1777499299719636480,0.2806011438369751,1,-0.2344585955142975,1,0.08056405186653137,1
1777499299729640704,0.2044687718153,1,0.002631112933158875,1,0.2833496630191803,1
1777499299739625216,0.3011590242385864,1,0.0651770755648613,1,-0.03230268508195877,1
1777499299749590784,0.4549961686134338,1,0.1447101235389709,1,-0.4741555452346802,1
1777499299759537408,0.6458507776260376,1,0.09307117015123367,1,-0.1621153056621552,1
1777499299769464576,0.8007532358169556,1,0.1170206367969513,1,-0.7216431498527527,1
1777499299779372288,0.8295733332633972,1,0.1495988070964813,1,-0.8816145062446594,1
1777499299789491456,0.8498006463050842,1,0.03035860322415829,1,-1.64010751247406,1
1777499299799822336,1.007803559303284,1,0.05207046866416931,1,-0.9331488013267517,1
1777499299810132736,1.183719635009766,1,-0.7663916349411011,1,-0.5305390357971191,1
1777499299820423936,1.477379322052002,1,-1.245119214057922,1,-0.9725430011749268,1
1777499299830695424,1.590280890464783,1,-0.5462353825569153,1,-0.7074772119522095,1
1777499299840947200,1.620047211647034,1,-0.5131230354309082,1,-0.7697986364364624,1
1777499299851179008,1.858622312545776,1,-0.3005915284156799,1,-0.7042956352233887,1
1777499299861391104,1.821811556816101,1,-0.2319821119308472,1,-0.685731828212738,1
1777499299871583232,2.062824964523315,1,-0.3950228095054626,1,-0.1061492934823036,1
1777499299881755648,2.20714545249939,1,-0.04858297854661942,1,0.04774775356054306,1
1777499299891908352,2.238968849182129,1,0.03984471037983894,1,0.07938543707132339,1
1777499299902041088,2.227504968643188,1,0.5289636850357056,1,0.03143193572759628,1
1777499299912154112,2.098463535308838,1,0.5245701670646667,1,0.6010317206382751,1
1777499299922251008,2.199222564697266,1,0.4468532204627991,1,0.6436535120010376,1
1777499299932327936,2.208266973495483,1,0.5061566829681396,1,0.9449347257614136,1
1777499299942385408,2.257935762405396,1,0.451575756072998,1,1.047465562820435,1
1777499299952423168,2.239145278930664,1,0.2997823357582092,1,1.150150060653687,1
1777499299962441472,2.28825569152832,1,0.2504822909832001,1,0.9406200051307678,1
1777499299972440320,2.270081996917725,1,0.2306525111198425,1,0.8248579502105713,1
1777499299982419712,2.229419231414795,1,0.1580172032117844,1,0.7858822345733643,1
1777499299992379392,2.172329187393188,1,0.1186647415161133,1,0.8664014935493469,1
1777499300002320128,2.142860889434814,1,0.004020726308226585,1,1.043946981430054,1
1777499300012241152,2.188721179962158,1,-0.0760001614689827,1,1.140735983848572,1
1777499300022142720,2.233253717422485,1,-0.06144421547651291,1,1.119451642036438,1
1777499300032259328,2.256232261657715,1,-0.1161729469895363,1,0.9584451913833618,1
1777499300042589952,2.240471363067627,1,-0.1333231627941132,1,0.7161725163459778,1
1777499300052900608,2.236187934875488,1,-0.1523742377758026,1,0.4584308266639709,1
1777499300063191296,2.237848997116089,1,-0.1957223862409592,1,0.198199674487114,1
1777499300073462784,2.139511823654175,1,-0.3529452681541443,1,0.2183459252119064,1
1777499300083714048,2.128939628601074,1,-0.3240199089050293,1,-0.03513685241341591,1
1777499300093945344,2.052251815795898,1,-0.2816770374774933,1,0.1102259457111359,1
1777499300104156928,2.143601894378662,1,-0.2754386067390442,1,-0.406419575214386,1
1777499300114349056,2.026525974273682,1,-0.2265155911445618,1,-0.4032401144504547,1
1777499300124520960,2.067436933517456,1,-0.1529948860406876,1,-0.7458376288414001,1
1777499300134672896,2.052080869674683,1,-0.0588810071349144,1,-0.6494514346122742,1
1777499300144805120,2.0270676612854,1,0.01968476176261902,1,-0.5937509536743164,1
1777499300154918144,2.008514881134033,1,0.1787624508142471,1,-0.5232349634170532,1
1777499300165011712,1.992042422294617,1,0.2643474042415619,1,-0.6558758616447449,1
1777499300175085568,2.044533729553223,1,0.1856611669063568,1,-0.9412439465522766,1
1777499300185141760,2.038061618804932,1,0.0318281352519989,1,-1.145990610122681,1
1777499300195179520,1.904867768287659,1,-0.1474635899066925,1,-1.539818048477173,1
1777499300205197568,1.859240531921387,1,-0.1533496379852295,1,-1.562003374099731,1
1777499300215196160,1.845081567764282,1,-0.1581768244504929,1,-1.499843120574951,1
1777499300225175296,1.843594074249268,1,-0.04062696173787117,1,-1.220386862754822,1
1777499300235135232,1.810528755187988,1,0.0008225012570619583,1,-1.039494276046753,1
1777499300245075712,1.678731441497803,1,0.1708889156579971,1,-0.4720626175403595,1
1777499300254996480,1.769994497299194,1,0.5125848054885864,1,-0.380224347114563,1
1777499300264898048,1.713873863220215,1,0.5303111672401428,1,0.1106113269925117,1
1777499300274780672,1.682945489883423,1,0.564456045627594,1,0.2179828435182571,1
1777499300285116160,1.448381900787354,1,0.740272045135498,1,0.6692306399345398,1
1777499300295432192,1.361872911453247,1,0.9115746021270752,1,0.825520932674408,1
1777499300305728000,1.306745409965515,1,0.7939597368240356,1,1.242623925209045,1
1777499300316004096,1.296020150184631,1,0.9407045245170593,1,1.098044276237488,1
1777499300326260224,1.224448680877686,1,0.8579468131065369,1,1.211286544799805,1
1777499300336497152,1.173322916030884,1,0.9717143177986145,1,0.814279317855835,1
1777499300346715136,1.214098930358887,1,0.8359255194664001,1,0.6902722716331482,1
1777499300356913152,1.258862972259521,1,0.6775753498077393,1,0.4365523457527161,1
1777499300367091200,1.261202931404114,1,0.5964778661727905,1,0.4843911826610565,1
1777499300377250048,1.20452892780304,1,0.3729548454284668,1,0.3771960437297821,1
1777499300387389184,1.176962614059448,1,0.169200524687767,1,0.5084477663040161,1
1777499300397508352,1.065192341804504,1,0.1789906471967697,1,0.2507329285144806,1
1777499300407607808,1.109732747077942,1,-0.08182721585035324,1,0.07677273452281952,1
1777499300417687808,1.002092361450195,1,-0.138104721903801,1,-0.05210085213184357,1
1777499300427748608,1.098727464675903,1,-0.216411828994751,1,-0.3456186056137085,1
1777499300437789952,1.008714914321899,1,-0.2505080103874207,1,-0.02312706224620342,1
1777499300447811328,1.116625189781189,1,-0.2835074365139008,1,-0.1766106188297272,1
1777499300457813248,1.0437331199646,1,-0.3807726204395294,1,0.2404134422540665,1
1777499300467795968,1.083523035049438,1,-0.2220124304294586,1,0.05262206122279167,1
1777499300477759232,0.9044333100318909,1,-0.4441379904747009,1,0.5056691765785217,1
1777499300487702784,1.053375959396362,1,-0.2075322568416595,1,0.1147688999772072,1
1777499300497627648,0.9539946913719177,1,-0.3232214450836182,1,0.5236680507659912,1
1777499300507539200,0.9637820720672607,1,-0.3331564664840698,1,0.355774313211441,1
1777499300517431808,0.8689340353012085,1,-0.1290851086378098,1,0.7744736671447754,1
1777499300527534080,0.7203305959701538,1,0.007792875170707703,1,0.8315191864967346,1
1777499300537845760,0.8201695084571838,1,-0.1857205182313919,1,0.8645904660224915,1
1777499300548136960,0.7698646783828735,1,-0.07565445452928543,1,0.5121210813522339,1
1777499300558407680,0.8113914728164673,1,-0.03990910574793816,1,0.4248746931552887,1
1777499300568659456,0.5921401381492615,1,-0.1267169117927551,1,0.6885071992874146,1
1777499300578891008,0.5138418674468994,1,-0.1384587436914444,1,0.8069749474525452,1
1777499300589102336,0.5651614665985107,1,-0.1924302875995636,1,0.8291824460029602,1
1777499300599293696,0.6475373506546021,1,-0.296889990568161,1,0.9301036596298218,1
1777499300609465344,0.8423023223876953,1,-0.451719343662262,1,1.153901219367981,1
1777499300619617280,0.6750169396400452,1,-0.1258792579174042,1,0.9331713318824768,1
1777499300629749248,0.7378692626953125,1,0.09317426383495331,1,0.6447527408599854,1
1777499300639861760,0.5324408411979675,1,-0.06957947462797165,1,0.5436318516731262,1
1777499300649954560,0.4606064856052399,1,-0.02023793756961823,1,0.7266331911087036,1
1777499300660027648,0.4824275970458984,1,0.1095705330371857,1,0.4439592957496643,1
1777499300670081024,0.5080364942550659,1,-0.2487427145242691,1,0.7259962558746338,1
1777499300680114176,0.6375476121902466,1,0.2077136933803558,1,-0.7024282217025757,1
1777499300690127872,0.2463555932044983,1,0.1413843631744385,1,-0.7848070859909058,1
1777499300700122112,-0.1686293184757233,1,0.00937536358833313,1,-1.230249762535095,1
1777499300710096384,-0.5292832851409912,1,0.1352735906839371,1,-1.33520519733429,1
1777499300720051200,0.1115069091320038,1,0.1221142038702965,1,-1.841731548309326,1
1777499300729987328,0.4704192578792572,1,-0.1601874977350235,1,-1.304423451423645,1
1777499300739904256,0.3950686454772949,1,-0.388796329498291,1,-0.6150417327880859,1
1777499300749807360,-0.02964045107364655,1,-0.2037224471569061,1,-0.8493244051933289,1
1777499300759691008,0.06629361212253571,1,-0.1494283080101013,1,-0.8206344246864319,1
1777499300769787136,0.2823970913887024,1,-0.5113812685012817,1,-1.022280693054199,1
1777499300780094720,0.1598295271396637,1,-0.07872926443815231,1,-0.7794604897499084,1
1777499300790382336,-0.08628229051828384,1,-0.1332466006278992,1,-0.4059476256370544,1
1777499300800651008,-0.1766780912876129,1,0.1766900718212128,1,-0.1413015425205231,1
1777499300810899712,0.06359541416168213,1,0.3777036070823669,1,0.307622879743576,1
1777499300821128448,0.1173953860998154,1,0.3467344343662262,1,0.7221454381942749,1
1777499300831337216,0.01784636825323105,1,0.4762829840183258,1,0.2453943490982056,1
1777499300841526272,-0.2116106152534485,1,0.4479349255561829,1,0.2711495459079742,1
1777499300851695360,-0.2699897885322571,1,0.1121698021888733,1,0.051223024725914,1
1777499300861844736,-0.1293874680995941,1,0.1549914926290512,1,0.2053402811288834,1
1777499300871974144,-0.1309043169021606,1,-0.09750444442033768,1,0.1573646664619446,1
1777499300882087168,-0.1201274618506432,1,-0.0427294634282589,1,0.7152031660079956,1
1777499300892180480,-0.1930537074804306,1,-0.04898367077112198,1,0.6330296397209167,1
1777499300902254080,-0.07074455916881561,1,-0.2644938230514526,1,0.8389513492584229,1
1777499300912307712,0.001773685682564974,1,-0.2135374397039413,1,0.7760427594184875,1
1777499300922342144,-0.003444889560341835,1,-0.5469645261764526,1,0.4931455254554749,1
1777499300932356864,-0.09794311970472336,1,-0.4772828221321106,1,0.7514433860778809,1
1777499300942351872,-0.09075233340263367,1,-0.5027378797531128,1,0.3630879521369934,1
1777499300952327680,-0.09383617341518402,1,-0.6709146499633789,1,0.5910071730613708,1
1777499300962284288,-0.04916990175843239,1,-0.4311533570289612,1,0.2106670290231705,1
1777499300972221696,-0.1236069649457932,1,-0.724946916103363,1,0.281960129737854,1
1777499300982139392,-0.1929055005311966,1,-0.5079799294471741,1,0.1680951714515686,1
1777499300992037888,-0.1641356348991394,1,-0.535068154335022,1,0.01500078476965427,1
1777499301001916672,-0.1296319663524628,1,-0.4971083998680115,1,0.167996883392334,1
1777499301012008448,-0.01612097397446632,1,-0.3589906990528107,1,-0.07775090634822845,1
1777499301022312704,-0.1131770014762878,1,-0.4994402229785919,1,0.1840177774429321,1
1777499301032596736,-0.08777360618114471,1,-0.2545082271099091,1,-0.03428153321146965,1
1777499301042861312,-0.1216852515935898,1,-0.3169340789318085,1,0.1151100620627403,1
1777499301053106176,-0.07182419300079346,1,-0.4726763665676117,1,-0.09085289388895035,1
1777499301063331072,-0.04596592485904694,1,-0.3812912702560425,1,-0.3125005066394806,1
1777499301073536000,-0.126390665769577,1,-0.557066798210144,1,-0.2558579742908478,1
1777499301083720960,-0.1733091473579407,1,-0.4776618480682373,1,-0.5498624444007874,1
1777499301093886208,-0.1453673243522644,1,-0.407282680273056,1,-0.3045323491096497,1
1777499301104031488,0.002719230949878693,1,-0.4556775689125061,1,-0.7371607422828674,1
1777499301114157056,-0.04218922182917595,1,-0.2745895683765411,1,-0.6827796697616577,1
1777499301124263168,-0.1834830641746521,1,-0.4825739562511444,1,-0.8626677989959717,1
1777499301134350080,-0.2195859104394913,1,-0.3550834655761719,1,-0.8689587712287903,1
1777499301144419584,-0.1276209354400635,1,-0.4700645208358765,1,-0.7939510345458984,1
1777499301154469376,0.03034238331019878,1,-0.7018341422080994,1,-0.7304369807243347,1
1777499301164499968,0.0225740484893322,1,-0.5072407722473145,1,-0.4911312460899353,1
1777499301174510848,0.1143925413489342,1,-0.6137974262237549,1,-0.6167744398117065,1
1777499301184502528,0.08427103608846664,1,-0.474239319562912,1,-0.5656983256340027,1
1777499301194474496,0.1566490232944489,1,-0.4031350612640381,1,-0.7881508469581604,1
1777499301204427264,0.1313956826925278,1,-0.2594397068023682,1,-0.5714410543441772,1
1777499301214360832,0.01160959526896477,1,-0.1833730190992355,1,-0.1732470989227295,1
1777499301224275456,0.0902562215924263,1,-0.034755639731884,1,0.03332389518618584,1
1777499301234170880,0.217463418841362,1,0.01511236280202866,1,0.5931240916252136,1
1777499301244046848,0.378303200006485,1,0.03502679616212845,1,0.02782481163740158,1
1777499301254136064,0.1787662208080292,1,0.2721717059612274,1,-0.2809998393058777,1
1777499301264437760,-0.001179703744128346,1,0.1628671437501907,1,-0.4085654616355896,1
1777499301274719744,-0.2515572309494019,1,0.2392564415931702,1,-0.3101955056190491,1
1777499301284981760,0.1299305260181427,1,0.4103600978851318,1,-0.1104900240898132,1
1777499301295224576,0.3303634822368622,1,0.2750248312950134,1,0.1225549578666687,1
1777499301305447424,0.4045687913894653,1,0.4029121994972229,1,0.09709475189447403,1
1777499301315650560,-0.04117605462670326,1,0.08694878220558167,1,0.09565344452857971,1
1777499301325833472,0.01191679015755653,1,0.1966295689344406,1,-0.1601609736680984,1
1777499301335996928,0.05643926560878754,1,0.1645288914442062,1,-0.1230926439166069,1
1777499301346140672,0.0284687839448452,1,-0.04676823690533638,1,0.08977387100458145,1
1777499301356264192,-0.01846283115446568,1,-0.007559478748589754,1,0.1797275841236115,1
1777499301366368256,-0.1521716713905334,1,0.009515333920717239,1,0.8702839016914368,1
1777499301376452608,0.03170514479279518,1,0.07416242361068726,1,0.8296706676483154,1
1777499301386517504,0.1757454723119736,1,0.2127761095762253,1,0.978064239025116,1
1777499301396564224,0.1346069574356079,1,0.1049923226237297,1,1.000493764877319,1
1777499301406591488,-0.05601443350315094,1,0.1384495496749878,1,1.119683384895325,1
1777499301416599040,-0.09457001835107803,1,0.1682772636413574,1,1.096269845962524,1
1777499301426587136,0.005497613921761513,1,0.1637579202651978,1,1.255898237228394,1
1777499301436556032,0.09510628879070282,1,0.2702191472053528,1,1.234504103660583,1
1777499301446505472,0.01193942874670029,1,0.0654451847076416,1,1.436387658119202,1
1777499301456435456,-0.09541047364473343,1,0.1435563564300537,1,1.34216845035553,1
1777499301466345728,-0.0192540418356657,1,0.2385662198066711,1,1.412626147270203,1
1777499301476237056,-0.08085202425718307,1,0.1084429025650024,1,1.379163026809692,1
1777499301486108928,-0.02787375077605247,1,0.235906258225441,1,1.112340569496155,1
1777499301495961088,-0.1403291672468185,1,-0.01241956278681755,1,1.154282331466675,1
1777499301506264832,-0.1745098680257797,1,0.05117651075124741,1,0.9694492816925049,1
1777499301516549120,-0.298427015542984,1,-0.1390676498413086,1,0.8055275082588196,1
1777499301526813184,-0.2970154285430908,1,-0.1681500673294067,1,0.7762089967727661,1
1777499301537057280,-0.421422153711319,1,-0.2191818952560425,1,0.8462824821472168,1
1777499301547281664,-0.2829502522945404,1,-0.129305824637413,1,0.8445200324058533,1
1777499301557487104,-0.1454789489507675,1,0.02233204245567322,1,0.7604174017906189,1
1777499301567673600,-0.1767522692680359,1,-0.1084026992321014,1,1.079016089439392,1
1777499301577840128,-0.2232465744018555,1,0.05328402668237686,1,0.8282818794250488,1
1777499301587986688,-0.2685496211051941,1,0.05351224169135094,1,0.6034629940986633,1
1777499301598113536,-0.1749261319637299,1,0.2235571593046188,1,0.2431834936141968,1
1777499301608220672,-0.2530546486377716,1,0.1229315251111984,1,0.2839082479476929,1
1777499301618308096,-0.3336485326290131,1,-0.02326182089745998,1,0.2362003326416016,1
1777499301628375552,-0.2660357356071472,1,0.08221733570098877,1,-0.3423566222190857,1
1777499301638423808,-0.2791217863559723,1,-0.1157543212175369,1,-0.1042019575834274,1
1777499301648452608,-0.1211573034524918,1,-0.1219918355345726,1,-0.6716808080673218,1
1777499301658461952,-0.3028392195701599,1,-0.1744536310434341,1,-0.2348839044570923,1
1777499301668451584,-0.2614724934101105,1,-0.2333269417285919,1,-0.6393107175827026,1
1777499301678421504,-0.142912283539772,1,-0.08228103071451187,1,-0.8263153433799744,1
1777499301688372480,-0.3278260827064514,1,-0.1979919970035553,1,-0.8861405849456787,1
1777499301698303744,-0.2021517604589462,1,-0.1723320931196213,1,-1.572515368461609,1
1777499301708215296,-0.3615315556526184,1,-0.01799680292606354,1,-1.339622497558594,1
1777499301718108416,-0.1754966825246811,1,-0.06122299656271935,1,-1.633519172668457,1
1777499301727982848,-0.1708255857229233,1,-0.08055824041366577,1,-1.133222699165344,1
1777499301737837824,-0.03891156986355782,1,0.03240489214658737,1,-0.9336725473403931,1
1777499301748146688,0.09015796333551407,1,0.08507584780454636,1,-0.718738317489624,1
1777499301758436096,-0.07852213829755783,1,0.04480212926864624,1,-0.4034789204597473,1
1777499301768705792,-0.07826934009790421,1,0.3770793974399567,1,-0.7133228182792664,1
1777499301778955264,-0.1946153342723846,1,0.3471797704696655,1,-0.412853866815567,1
1777499301789184768,-0.1330367922782898,1,0.2572496831417084,1,-0.4965869784355164,1
1777499301799395840,-0.177912563085556,1,0.3521990180015564,1,-0.07062255591154099,1
1777499301809587200,-0.08259991556406021,1,0.3756359219551086,1,0.1733673810958862,1
1777499301819758848,-0.08070598542690277,1,0.3313133716583252,1,0.2792975008487701,1
1777499301829910272,-0.2329617738723755,1,0.2294906377792358,1,0.1455197185277939,1
1777499301840042240,-0.2736051380634308,1,0.3644292652606964,1,-0.02918816730380058,1
1777499301850154496,-0.2949032783508301,1,0.3730262219905853,1,0.1492531597614288,1
1777499301860246784,-0.2165337949991226,1,0.2374785095453262,1,0.5083900690078735,1
1777499301870319360,-0.05523741990327835,1,0.1409973800182343,1,0.3574461042881012,1
1777499301880372736,0.02153711020946503,1,-0.0483272597193718,1,0.5298089385032654,1
1777499301890406400,0.001185622066259384,1,0.04489041492342949,1,0.1118465960025787,1
1777499301900420096,-0.2363650947809219,1,-0.08880886435508728,1,0.1488177627325058,1
1777499301910414336,-0.1906862705945969,1,-0.1564851850271225,1,-0.2167127877473831,1
1777499301920389120,-0.2508024573326111,1,-0.171719029545784,1,-0.03328167647123337,1
1777499301930344192,-0.1443859785795212,1,-0.3944687843322754,1,-0.01814385503530502,1
1777499301940280320,-0.1705170124769211,1,-0.4835366904735565,1,0.1658246368169785,1
1777499301950197504,-0.1939035356044769,1,-0.5099032521247864,1,0.3749141693115234,1
1777499301960101120,-0.08659105747938156,1,-0.008770911023020744,1,0.2569338977336884,1
1777499301969985536,0.1333428472280502,1,0.1257910877466202,1,0.6676807999610901,1
1777499301979850496,0.1568124294281006,1,-0.4077981412410736,1,1.57196569442749,1
1777499301989926400,-0.0001872330904006958,1,-0.5891755223274231,1,1.661189913749695,1
1777499302000212736,0.6606521010398865,1,-1.142852663993835,1,0.3316908180713654,1
1777499302010479104,0.2989854216575623,1,-1.889582872390747,1,-0.7368761301040649,1
1777499302020726528,-0.4546926617622375,1,-1.045969367027283,1,-2.750340938568115,1
1777499302030953984,-1.298224925994873,1,-1.380693078041077,1,-1.816823244094849,1
1777499302041161984,-0.5774714350700378,1,-1.093297362327576,1,-0.8040508627891541,1
1777499302051350016,0.1812537312507629,1,0.3029138445854187,1,-0.7723568677902222,1
1777499302061518592,0.9996845722198486,1,-0.6498414874076843,1,1.159819602966309,1
1777499302071667456,0.639601469039917,1,1.020412445068359,1,1.912600755691528,1
1777499302081796352,-0.3205942511558533,1,1.060633540153503,1,1.827372312545776,1
1777499302091905536,-0.215854749083519,1,-0.6434852480888367,1,1.970199584960938,1
1777499302101997824,0.2116993814706802,1,0.2773783504962921,1,-1.034950256347656,1
1777499302112070656,-0.07541029900312424,1,0.206591010093689,1,0.2668068408966064,1
1777499302122123776,-0.009882897138595581,1,0.2544099688529968,1,-0.8754084706306458,1
1777499302132156928,0.2471859902143478,1,0.003135871142148972,1,-1.604435563087463,1
1777499302142170880,-0.3643073439598083,1,0.4072535336017609,1,-0.4384931623935699,1
1777499302152165120,-0.2225711345672607,1,0.4035329222679138,1,-0.6271775960922241,1
1777499302162140160,0.1516512036323547,1,0.2407466620206833,1,-0.6880894899368286,1
1777499302172095488,-0.1224846467375755,1,0.127282977104187,1,-0.1711459457874298,1
1777499302182031872,0.1752535998821259,1,0.05034299194812775,1,-0.5882341265678406,1
1777499302191949056,0.1132988631725311,1,0.1270350515842438,1,-1.048707246780396,1
1777499302201846784,0.2394115328788757,1,0.1948040127754211,1,-0.4180475175380707,1
1777499302211724800,0.3853056132793427,1,0.5707188844680786,1,-0.610093355178833,1
1777499302221583616,0.260303258895874,1,0.8485181331634521,1,-0.02654089033603668,1
1777499302231655168,0.4374672174453735,1,1.070918321609497,1,-0.5941208600997925,1
1777499302241939712,0.3852298259735107,1,1.137953519821167,1,0.06416203081607819,1
1777499302252204032,0.5037000179290771,1,1.072889566421509,1,0.01266815140843391,1
1777499302262449152,0.5616518259048462,1,1.062711358070374,1,0.2594625949859619,1
1777499302272674560,0.6375787258148193,1,1.031402230262756,1,0.1745816618204117,1
1777499302282880256,0.4407521486282349,1,0.7539684176445007,1,0.2671328186988831,1
1777499302293065984,0.3217010498046875,1,0.6535764336585999,1,-0.02285235002636909,1
1777499302303232256,0.3032010495662689,1,0.6619626879692078,1,-0.3747678101062775,1
1777499302313378816,0.2906582951545715,1,0.5310100317001343,1,-0.3218250870704651,1
1777499302323505664,0.3468430638313293,1,0.298054963350296,1,-0.5421450734138489,1
1777499302333612800,0.3106638491153717,1,0.1691194623708725,1,-0.3109994530677795,1
1777499302343703552,0.3059109449386597,1,-0.07785860449075699,1,-0.3371809124946594,1
1777499302353774592,0.3832629323005676,1,-0.2877269983291626,1,-0.3795401453971863,1
1777499302363826176,0.3264183104038239,1,-0.1844165623188019,1,-0.5701419711112976,1
1777499302373858048,0.361207902431488,1,-0.1124976873397827,1,-0.8076419234275818,1
1777499302383870720,0.2442501336336136,1,0.004131588153541088,1,-0.3666559457778931,1
1777499302393863680,0.2719377279281616,1,0.2008444517850876,1,-0.2699326276779175,1
1777499302403837184,0.3745421767234802,1,0.159957617521286,1,0.1442320793867111,1
1777499302413790976,0.4227156043052673,1,0.1544715464115143,1,-0.3714571893215179,1
1777499302423726080,0.07219958305358887,1,-0.1006002649664879,1,-0.07914720475673676,1
1777499302433641728,-0.3229586780071259,1,-0.05586829781532288,1,-0.1672244220972061,1
1777499302443538176,-0.05090365558862686,1,-0.1654967963695526,1,0.4166050553321838,1
1777499302453415168,0.4386639595031738,1,-0.4143624305725098,1,0.7976651191711426,1
1777499302463273472,0.5860595107078552,1,-0.3084065318107605,1,0.7504913806915283,1
1777499302473344000,0.39054936170578,1,-0.1483859270811081,1,0.8735748529434204,1
1777499302483626752,0.03201156482100487,1,0.006153685972094536,1,0.4035327136516571,1
1777499302493890048,0.07671482861042023,1,0.1649749428033829,1,0.388584315776825,1
1777499302504133888,0.03447568044066429,1,-0.07915034890174866,1,0.2959297597408295,1
1777499302514358272,0.04330802336335182,1,-0.2102479487657547,1,0.7076590061187744,1
1777499302524563200,0.08882723748683929,1,0.1112665012478828,1,0.6772397756576538,1
1777499302534748672,0.2149572223424911,1,0.0418175496160984,1,1.074208974838257,1
1777499302544915968,0.3011439740657806,1,0.08596004545688629,1,1.026885390281677,1
1777499302555063552,0.1100689172744751,1,-0.009232660755515099,1,0.9594911336898804,1
1777499302565191424,0.1311220228672028,1,0.07113088667392731,1,0.7873545289039612,1
1777499302575299072,0.1627198755741119,1,0.1118242368102074,1,0.7592086791992188,1
1777499302585387520,0.1201998889446259,1,0.04335596039891243,1,0.7934438586235046,1
1777499302595456256,0.1246666386723518,1,0.2090701907873154,1,0.5607295036315918,1
1777499302605505024,0.06178942322731018,1,0.06628210097551346,1,0.6949447989463806,1
1777499302615534080,0.1007311344146729,1,0.2081837356090546,1,0.790111243724823,1
1777499302625544192,0.2206963747739792,1,0.2896250486373901,1,0.5293919444084167,1
1777499302635534336,0.1693422794342041,1,0.2841307520866394,1,0.3493183255195618,1
1777499302645504768,0.002722293138504028,1,0.1631788313388824,1,0.3397386074066162,1
1777499302655455744,0.04648641124367714,1,-0.02317583560943604,1,0.1675065159797668,1
1777499302665387520,-0.01496319286525249,1,0.03027833253145218,1,0.2121217548847198,1
1777499302675299584,0.1284337639808655,1,0.07410065829753876,1,0.2127642631530762,1
1777499302685192448,0.004652611911296844,1,-0.07269367575645447,1,0.1650644689798355,1
1777499302695065856,-0.1125363409519196,1,-0.1421792507171631,1,-0.06782280653715134,1
1777499302704921088,-0.04823222011327744,1,-0.03511809185147285,1,-0.3664239048957825,1
1777499302714988544,-0.05609634891152382,1,-0.09656344354152679,1,-0.2727046012878418,1
1777499302725268224,0.01992788538336754,1,-0.03907016664743423,1,-0.492612898349762,1
1777499302735527680,-0.002855084836483002,1,-0.06475368142127991,1,-0.3263161480426788,1
1777499302745767168,-0.07914290577173233,1,-0.08125047385692596,1,-0.3194472193717957,1
1777499302755987456,-0.003168251365423203,1,0.1890927404165268,1,-0.427681565284729,1
1777499302766187776,-0.05601582676172256,1,0.08861954510211945,1,-0.2899583578109741,1
1777499302776368128,-0.007315307855606079,1,0.1840234994888306,1,-0.88888019323349,1
1777499302786528256,-0.2199450135231018,1,0.03941423073410988,1,-0.6755351424217224,1
1777499302796669184,-0.2938464879989624,1,-0.01355156674981117,1,-1.031722187995911,1
1777499302806789888,-0.2079550325870514,1,0.1646355241537094,1,-0.9507741928100586,1
1777499302816890880,-0.1411210298538208,1,0.08384886384010315,1,-0.8083356618881226,1
1777499302826971904,-0.1819746196269989,1,0.1109917610883713,1,-0.7443738579750061,1
1777499302837033728,-0.005116486456245184,1,0.2195781767368317,1,-0.7742046713829041,1
1777499302847075840,-0.2190209627151489,1,-0.1118229925632477,1,-0.5414279699325562,1
1777499302857097984,-0.3604098856449127,1,-0.3524204790592194,1,-1.049414753913879,1
1777499302867100672,-0.3662716448307037,1,-0.2810702323913574,1,-1.008490920066833,1
1777499302877083648,-0.3332903683185577,1,-0.562430202960968,1,-1.160001397132874,1
1777499302887052032,-0.2859534025192261,1,-0.2075032591819763,1,-0.8750510215759277,1
1777499302897000960,-0.2829224169254303,1,-0.316015213727951,1,-0.3566239476203918,1
1777499302906930688,-0.1814533472061157,1,-0.06879852712154388,1,0.1172319874167442,1
1777499302916840960,0.02945366874337196,1,-0.04825351759791374,1,0.3959378004074097,1
1777499302926732032,0.04657572880387306,1,0.07473021000623703,1,0.3968890011310577,1
1777499302936604160,0.011036716401577,1,0.4683074355125427,1,0.2894583642482758,1
1777499302946456832,-0.1320544630289078,1,0.3478260338306427,1,0.6225974559783936,1
1777499302956524544,-0.1348503977060318,1,0.5284708738327026,1,0.7643155455589294,1
1777499302966806784,0.09320206940174103,1,0.3606902658939362,1,0.9929433465003967,1
1777499302977068800,0.174050897359848,1,0.1313537359237671,1,0.8851245045661926,1
1777499302987310848,-0.01484517566859722,1,0.4662398397922516,1,0.6500651836395264,1
1777499302997533696,-0.3009592890739441,1,0.2795328795909882,1,0.6754075288772583,1
1777499303007736576,-0.294768363237381,1,0.3375194370746613,1,0.8593788743019104,1
1777499303017919744,-0.04395873099565506,1,0.2198423743247986,1,0.7678852677345276,1
1777499303028082944,0.015889722853899,1,0.06612576544284821,1,1.022409558296204,1
1777499303038226432,0.0143439769744873,1,0.1749021112918854,1,0.9172809720039368,1
1777499303048349952,-0.08490072935819626,1,-0.00724243326112628,1,0.9676350355148315,1
1777499303058453760,-0.0998169407248497,1,0.06774806976318359,1,0.6012392044067383,1
1777499303068537856,-0.0105661042034626,1,0.006592269986867905,1,0.4606711566448212,1
1777499303078602496,-0.07857457548379898,1,-0.11295385658741,1,0.4792074859142303,1
1777499303088647680,0.0007436331361532211,1,0.07961603999137878,1,0.4085163772106171,1
1777499303098672896,0.02819189056754112,1,0.03518317267298698,1,0.6876810789108276,1
1777499303108678656,0.01637157239019871,1,0.1159726977348328,1,0.618459939956665,1
1777499303118664960,0.175766795873642,1,0.2076538503170013,1,0.4998903274536133,1
1777499303128631552,0.0924045592546463,1,0.1732201278209686,1,0.3943940103054047,1
1777499303138578688,-0.04844202101230621,1,0.1517103761434555,1,-0.09583865106105804,1
1777499303148509184,-0.151666060090065,1,0.07715018093585968,1,0.1080085039138794,1
1777499303158422528,-0.08759637922048569,1,0.05707459524273872,1,-0.1507331430912018,1
1777499303168316928,-0.02485352009534836,1,0.006865117698907852,1,0.2538785040378571,1
1777499303178191872,0.0448429174721241,1,0.009507177397608757,1,0.2685847282409668,1
1777499303188048128,0.1954789012670517,1,0.1633118391036987,1,0.2445745766162872,1
1777499303197884928,0.09599439054727554,1,0.0565590113401413,1,0.1714262217283249,1
1777499303208173568,0.07423781603574753,1,0.2561884224414825,1,-0.4316946268081665,1
1777499303218442240,0.1027023568749428,1,0.08203108608722687,1,-0.4485797882080078,1
1777499303228690688,0.05927146598696709,1,-0.02272607013583183,1,-0.7501199841499329,1
1777499303238919424,0.3804255127906799,1,0.115394651889801,1,-0.5767748951911926,1
1777499303249128192,0.2588297426700592,1,0.1814642250537872,1,-0.8382661938667297,1
1777499303259317248,0.3069387078285217,1,-0.02871648967266083,1,-0.3914871513843536,1
1777499303269486592,0.06818382441997528,1,-0.1025660485029221,1,-0.1203156337141991,1
1777499303279635968,0.07634318619966507,1,-0.2362238466739655,1,-0.4503082931041718,1
1777499303289767168,0.42650106549263,1,-0.3484968841075897,1,-0.6430172324180603,1
1777499303299878400,0.2874051928520203,1,-0.4618164896965027,1,-0.4907781779766083,1
1777499303309969920,0.1969786733388901,1,-0.05293607711791992,1,-0.9260689616203308,1
1777499303320041984,0.1169574707746506,1,0.191853791475296,1,-1.060135126113892,1
1777499303330094848,0.1895013302564621,1,0.09881824254989624,1,-0.7434915900230408,1
1777499303340128000,0.413632720708847,1,0.05663147941231728,1,-0.5844206809997559,1
1777499303350141440,0.4983754456043243,1,0.2397499680519104,1,-0.5296878218650818,1
1777499303360135168,0.2819358706474304,1,0.06064445525407791,1,-0.343981921672821,1
1777499303370109440,0.3070296049118042,1,0.04488351196050644,1,-0.7207850217819214,1
1777499303380064512,0.1456669718027115,1,-0.1077529937028885,1,-0.1712557226419449,1
1777499303389999872,0.2245272696018219,1,0.1126750037074089,1,-0.5827773213386536,1
1777499303399915520,0.329852283000946,1,0.08952466398477554,1,-0.0504305399954319,1
1777499303409811968,0.242348849773407,1,-0.04219525307416916,1,0.2176232635974884,1
1777499303419689216,0.3301559090614319,1,-0.0006045394693501294,1,0.2600507736206055,1
1777499303429547008,0.3284308910369873,1,0.01536230370402336,1,0.3092834949493408,1
1777499303439386368,0.2501581609249115,1,0.02143942937254906,1,0.2784776985645294,1
1777499303449440256,0.2531441152095795,1,0.02890835143625736,1,0.1957713514566422,1
1777499303459707392,0.1444110572338104,1,0.02512473985552788,1,0.5043630599975586,1
1777499303469954560,0.2388398200273514,1,0.02510547637939453,1,0.3057186007499695,1
1777499303480182784,0.2753866910934448,1,-0.005636509507894516,1,0.6223906874656677,1
1777499303490391040,0.2592451572418213,1,0.1134493052959442,1,0.3341911137104034,1
1777499303500579328,0.2558987736701965,1,0.274088442325592,1,0.5112942457199097,1
1777499303510747904,0.1799106299877167,1,0.1926821768283844,1,0.4375645816326141,1
1777499303520897280,0.02373421192169189,1,0.2309841811656952,1,0.9089297652244568,1
1777499303531026432,0.2625510990619659,1,0.2449756860733032,1,0.8437285423278809,1
1777499303541135616,0.325878381729126,1,0.08695918321609497,1,0.9009530544281006,1
1777499303551225088,0.1976697742938995,1,0.1736511290073395,1,0.3195445239543915,1
1777499303561295104,-0.03315513581037521,1,0.1569998413324356,1,0.6046500205993652,1
1777499303571345920,-0.0862031877040863,1,0.1983138918876648,1,0.7241454124450684,1
1777499303581376768,0.1558860838413239,1,0.2589515745639801,1,0.7123267650604248,1
1777499303591388160,0.3376432359218597,1,0.08129492402076721,1,1.032496929168701,1
1777499303601381632,0.1804531514644623,1,0.1754861921072006,1,0.8833621740341187,1
1777499303611357440,0.1003174260258675,1,0.4277278780937195,1,0.3842334747314453,1
1777499303621314048,0.03616591915488243,1,0.4107123017311096,1,-0.009963218122720718,1
1777499303631250944,-0.01035316381603479,1,0.09452801942825317,1,-0.1071548387408257,1
1777499303641168896,-0.03115612082183361,1,0.2693874537944794,1,-0.3403526842594147,1
1777499303651067136,-0.08932184427976608,1,0.3698455989360809,1,-0.03693839907646179,1
1777499303660945920,-0.04820619523525238,1,0.5470596551895142,1,-0.1547067612409592,1
1777499303670805760,0.1151460558176041,1,0.2395930737257004,1,0.7596743106842041,1
1777499303680646400,0.1775907427072525,1,0.1290530860424042,1,0.4454103112220764,1
1777499303690700544,0.1801383495330811,1,0.1248886585235596,1,-0.4495957493782043,1
1777499303700966912,-0.05177611857652664,1,-0.3735730350017548,1,-0.5793848037719727,1
1777499303711213568,-0.2833625376224518,1,-0.2728296220302582,1,-0.9499185085296631,1
1777499303721440768,-0.2209849208593369,1,-0.3452067971229553,1,-0.6617811322212219,1
1777499303731648000,-0.0287169311195612,1,-0.1011021882295609,1,-0.7809491157531738,1
1777499303741835264,0.1520522236824036,1,-0.08401303738355637,1,-0.1975312829017639,1
1777499303752002560,-0.07967544347047806,1,-0.1266951262950897,1,-0.01719637773931026,1
1777499303762149888,0.0516882911324501,1,0.06294035166501999,1,-0.3264197409152985,1
1777499303772277504,0.05719861388206482,1,-0.131490096449852,1,-0.4894359409809113,1
1777499303782384896,-0.05035719275474548,1,-0.1326934546232224,1,-0.6861991286277771,1
1777499303792472832,-0.1584051251411438,1,-0.237000048160553,1,-0.6344547867774963,1
1777499303802540800,-0.1216696202754974,1,-0.468830019235611,1,-0.9323176145553589,1
1777499303812590592,-0.06199304759502411,1,-0.5071208477020264,1,-0.5565274357795715,1
1777499303822621952,-0.08918185532093048,1,-0.5801866054534912,1,-0.8935632109642029,1
1777499303832633600,-0.04467201232910156,1,-0.7927672266960144,1,-0.6688613891601562,1
1777499303842626048,-0.1984248608350754,1,-0.6725753545761108,1,-0.7933576703071594,1
1777499303852598784,-0.1250845193862915,1,-0.5839154720306396,1,-0.7592143416404724,1
1777499303862552576,-0.05033980309963226,1,-0.6038286089897156,1,-0.3474427461624146,1
1777499303872487168,0.07095356285572052,1,-0.3960702121257782,1,-0.2480764240026474,1
1777499303882402304,0.06243299320340157,1,-0.1680926829576492,1,0.06019312515854836,1
1777499303892298240,0.03559868037700653,1,-0.1841692477464676,1,0.3234205842018127,1
1777499303902174976,0.06448578089475632,1,-0.308380514383316,1,0.6445187926292419,1
1777499303912032512,0.1379545629024506,1,-0.09141937643289566,1,0.8382753729820251,1
1777499303921870848,0.1221264973282814,1,0.1828911006450653,1,1.144745111465454,1
1777499303931922176,0.1282717436552048,1,0.335942268371582,1,1.124831199645996,1
1777499303942186240,0.1983528584241867,1,0.5958698987960815,1,1.740395069122314,1
1777499303952430336,0.2252411097288132,1,0.4816204011440277,1,1.313774347305298,1
1777499303962654464,0.0211164653301239,1,0.4465630054473877,1,1.47390341758728,1
1777499303972859392,0.02861061319708824,1,0.2647199332714081,1,1.16155207157135,1
1777499303983045376,-0.00791938416659832,1,0.2081201672554016,1,1.27373993396759,1
1777499303993211648,0.03320931643247604,1,0.1320044994354248,1,0.9546313285827637,1
1777499304003357952,-0.01039308682084084,1,-0.02215543016791344,1,1.012694001197815,1
1777499304013485056,-0.05541720613837242,1,-0.007762350142002106,1,0.8813867568969727,1
1777499304023592704,-0.08613097667694092,1,-0.1621696054935455,1,0.4734859764575958,1
1777499304033680640,-0.04467488080263138,1,-0.002996597439050674,1,0.167025163769722,1
1777499304043749120,-0.1881507337093353,1,-0.1232361346483231,1,0.152487576007843,1
1777499304053798144,-0.1374238431453705,1,-0.08782455325126648,1,0.1509589999914169,1
1777499304063827968,0.09823817014694214,1,0.06339139491319656,1,-0.03279838338494301,1
1777499304073838336,0.09943673759698868,1,-0.1794376075267792,1,0.364701122045517,1
1777499304083829248,0.01089074090123177,1,-0.5287306308746338,1,-0.2050933539867401,1
1777499304093800704,-0.1139184832572937,1,-0.4475210905075073,1,-0.5094199776649475,1
1777499304103752448,-0.3602361679077148,1,-0.3527044057846069,1,-0.8484395742416382,1
1777499304113684992,-0.3558797240257263,1,-0.4646728932857513,1,-0.8427783846855164,1
1777499304123598080,-0.07210871577262878,1,-0.1874130368232727,1,-0.5330344438552856,1
1777499304133497856,0.1125202476978302,1,-0.146426647901535,1,-0.4622905254364014,1
1777499304143378432,0.05290162563323975,1,-0.2601996064186096,1,0.009873196482658386,1
1777499304153239552,0.122004508972168,1,0.0004480648785829544,1,-0.2830244302749634,1
1777499304163081472,0.1027026325464249,1,-0.04812895879149437,1,-0.2422927021980286,1
1777499304173134080,0.1421851217746735,1,-0.04518858343362808,1,-0.7697604298591614,1
1777499304183397376,0.003090459853410721,1,-0.1715899854898453,1,-0.8844320178031921,1
1777499304193640448,-0.01516406890004873,1,-0.2772176265716553,1,-0.5886058211326599,1
1777499304203863552,0.1877762973308563,1,-0.2877088487148285,1,-0.7462108731269836,1
1777499304214067456,0.3653770685195923,1,-0.3784510493278503,1,-0.8618993759155273,1
1777499304224251392,0.4264121651649475,1,-0.3559042811393738,1,-0.8494288921356201,1
1777499304234415872,0.2116428017616272,1,-0.4474882483482361,1,-0.6348098516464233,1
1777499304244560384,0.199264258146286,1,-0.3356674611568451,1,-0.7539241909980774,1
1777499304254685184,0.4084626734256744,1,-0.4219114482402802,1,-0.4627922475337982,1
1777499304264790272,0.3225967288017273,1,-0.3485059440135956,1,-0.2190035581588745,1
1777499304274875392,0.4400714635848999,1,-0.1621515452861786,1,-0.1495622247457504,1
1777499304284941056,0.3814522624015808,1,-0.01884078420698643,1,-0.3237182199954987,1
1777499304294987776,0.2425960004329681,1,0.15486741065979,1,-0.1633427441120148,1
1777499304305015040,0.3792352974414825,1,0.1796044409275055,1,-0.3959334194660187,1
1777499304315022592,0.2796380221843719,1,-0.06813895702362061,1,-0.2772881984710693,1
1777499304325013760,0.2521803975105286,1,-0.03901126980781555,1,-0.3781251311302185,1
1777499304334985472,0.4240688979625702,1,0.02052750065922737,1,-0.6201061010360718,1
1777499304344937728,0.4824358224868774,1,0.04022223502397537,1,-0.2000409662723541,1
1777499304354870784,0.2632010281085968,1,-0.1192047595977783,1,-0.2038700580596924,1
1777499304364784384,0.251204788684845,1,-0.09478586167097092,1,0.05704895406961441,1
1777499304374678784,0.3953783810138702,1,-0.13705775141716,1,0.205580085515976,1
1777499304384553984,0.3524511754512787,1,0.002451363950967789,1,0.6882596611976624,1
1777499304394409472,0.4152923226356506,1,0.06904438883066177,1,0.3528382778167725,1
1777499304404246528,0.4313559234142303,1,0.1028318554162979,1,0.5974403619766235,1
1777499304414298624,0.2319848388433456,1,-0.1820226907730103,1,0.6856664419174194,1
1777499304424565760,0.09767267853021622,1,-0.09306593984365463,1,0.3765625953674316,1
1777499304434812928,0.1470514088869095,1,-0.08136481791734695,1,0.3344430923461914,1
1777499304445040640,0.1584496647119522,1,-0.1970673203468323,1,0.5969606041908264,1
1777499304455248896,0.1598957926034927,1,0.0722927451133728,1,0.3259417712688446,1
1777499304465437184,0.1876706629991531,1,0.3082351386547089,1,0.4340393543243408,1
1777499304475605504,-0.04123172909021378,1,0.2724304795265198,1,1.038430452346802,1
1777499304485754624,0.08677076548337936,1,0.4286523461341858,1,1.031700134277344,1
1777499304495883776,0.2541435956954956,1,0.5656667947769165,1,1.036100506782532,1
1777499304505993216,0.2788933515548706,1,0.1926083564758301,1,1.065808176994324,1
1777499304516082944,0.09389019757509232,1,0.2249428927898407,1,0.7481943368911743,1
1777499304526155008,-0.03290761262178421,1,0.2234311103820801,1,0.5943918824195862,1
1777499304536209152,-0.08222827315330505,1,-0.02922189794480801,1,0.2468648552894592,1
1777499304546243328,-0.09655510634183884,1,-0.01386345084756613,1,0.3526661694049835,1
1777499304556258048,0.1097747385501862,1,-0.01249266508966684,1,0.2906205952167511,1
1777499304566253312,-0.007431875914335251,1,-0.1086559891700745,1,0.4473752677440643,1
1777499304576229120,0.008089589886367321,1,0.1027399227023125,1,0.4477092325687408,1
1777499304586185216,0.1744321584701538,1,0.1778165847063065,1,0.1866164952516556,1
1777499304596121600,0.196020632982254,1,-0.0006571942940354347,1,0.1573169082403183,1
1777499304606038784,0.06122366338968277,1,0.304104208946228,1,-0.4046350717544556,1
1777499304615936768,-0.07254964113235474,1,0.07897894829511642,1,-0.1506916731595993,1
1777499304625815296,-0.1394928693771362,1,-0.08806251734495163,1,-0.4395645558834076,1
1777499304635675136,0.07819870859384537,1,-0.2428433150053024,1,-0.1190213486552238,1
1777499304645515264,0.1297371685504913,1,-0.1402163952589035,1,-0.4521650075912476,1
1777499304655336448,0.04083217307925224,1,-0.3423226177692413,1,-0.3355174958705902,1
1777499304665610752,-0.08330932259559631,1,-0.1766596734523773,1,-0.5608856081962585,1
1777499304675865088,-0.0702185332775116,1,-0.0996541753411293,1,-0.5562906861305237,1
1777499304686099712,-0.09449847042560577,1,-0.1513403505086899,1,-0.8426715135574341,1
1777499304696314368,-0.0271743405610323,1,-0.0786500871181488,1,-0.5661677718162537,1
1777499304706510080,-0.02660860307514668,1,0.1120867878198624,1,-0.4893929064273834,1
1777499304716686848,-0.01820977590978146,1,-0.06881825625896454,1,-0.1332243382930756,1
1777499304726843648,0.1140271872282028,1,0.08809468895196915,1,-0.004914574325084686,1
1777499304736980224,0.1490818709135056,1,0.1901141852140427,1,-0.3208828568458557,1
1777499304747097600,0.002889109775424004,1,0.06102265417575836,1,-0.2615837156772614,1
1777499304757195008,-0.2065777778625488,1,0.02701163291931152,1,-0.4380703866481781,1
1777499304767272960,-0.1644015610218048,1,0.1583688110113144,1,-0.7722374796867371,1
1777499304777330944,-0.1772759854793549,1,-0.08750364929437637,1,-0.622273862361908,1
1777499304787369216,-0.1531466990709305,1,-0.1740099787712097,1,-0.7551897764205933,1
1777499304797388288,-0.1185304373502731,1,0.1481157839298248,1,-0.8315516114234924,1
1777499304807387648,-0.1177874282002449,1,-0.05820775777101517,1,-0.3185977339744568,1
1777499304817367552,-0.2248407006263733,1,-0.2862634062767029,1,-0.007391113787889481,1
1777499304827328000,-0.07759084552526474,1,-0.01888778619468212,1,-0.236804187297821,1
1777499304837268992,-0.08971093595027924,1,-0.1460694670677185,1,-0.08850289881229401,1
1777499304847190272,-0.2708161771297455,1,-0.5150489807128906,1,-0.3616552948951721,1
1777499304857092096,-0.5039859414100647,1,-0.1846942901611328,1,0.001913275569677353,1
1777499304866975232,-0.3698468208312988,1,-0.008732158690690994,1,0.1479423195123672,1
1777499304876839936,-0.1781765073537827,1,-0.07240872085094452,1,0.6462681889533997,1
1777499304886684928,0.04881947115063667,1,0.2522182166576385,1,1.102081298828125,1
1777499304896511232,0.01988449692726135,1,0.5066858530044556,1,1.357681155204773,1
1777499304906555648,0.006030564196407795,1,0.2445124983787537,1,1.250388026237488,1
1777499304916808704,-0.1701181977987289,1,0.1635594666004181,1,0.951613187789917,1
1777499304927042304,-0.1996040642261505,1,0.01508183032274246,1,0.7773391008377075,1
1777499304937256192,-0.2926632165908813,1,-0.03888625279068947,1,0.3935383558273315,1
1777499304947450368,-0.3395653665065765,1,-0.07695471495389938,1,0.8250728845596313,1
1777499304957624832,-0.2552340030670166,1,0.1048966497182846,1,0.7521947622299194,1
1777499304967779584,-0.1049790382385254,1,-0.1290888339281082,1,1.10040295124054,1
1777499304977916672,-0.1635947525501251,1,0.1964378207921982,1,0.7358027100563049,1
1777499304988033792,-0.1560925096273422,1,-0.00818999856710434,1,0.840567409992218,1
1777499304998132992,-0.2531338036060333,1,-0.237085685133934,1,0.580138623714447,1
1777499305008214528,-0.1849000155925751,1,-0.02595292776823044,1,0.2399947047233582,1
1777499305018276096,-0.1236872971057892,1,-0.04075903445482254,1,0.1747444123029709,1
1777499305028318464,-0.269459456205368,1,-0.3005128502845764,1,0.2559726536273956,1
1777499305038341632,-0.3227033913135529,1,-0.1625584363937378,1,0.2645054757595062,1
1777499305048344832,-0.2197137027978897,1,-0.3429141938686371,1,0.1536091566085815,1
1777499305058328576,-0.2004175335168839,1,-0.4402880668640137,1,0.1135408207774162,1
1777499305068292864,-0.2379655092954636,1,0.007768374402076006,1,-0.4035143852233887,1
1777499305078237952,-0.4164534211158752,1,-0.05012062937021255,1,-0.04351966828107834,1
1777499305088164096,-0.2180449664592743,1,0.02623280324041843,1,-0.2770900130271912,1
1777499305098070784,-0.03517141565680504,1,0.01051313057541847,1,-0.4362634420394897,1
1777499305107958272,-0.06614470481872559,1,-0.4170479476451874,1,-0.3443165123462677,1
1777499305117826304,-0.04063960909843445,1,-0.24197718501091,1,-0.7505248188972473,1
1777499305127675136,-0.1579343378543854,1,-0.1735005080699921,1,-0.3904894292354584,1
1777499305137504768,-0.1165247410535812,1,-0.5879100561141968,1,-0.3920389115810394,1
1777499305147546112,0.004526491742581129,1,-0.05037813633680344,1,-0.5262870788574219,1
1777499305157798400,0.1155318468809128,1,-0.1609029769897461,1,-0.5832136273384094,1
1777499305168030720,-0.04841899126768112,1,-0.4998109936714172,1,-0.2208142280578613,1
1777499305178244096,-0.07600592076778412,1,-0.1222217977046967,1,-0.7761884331703186,1
1777499305188437504,0.06235800683498383,1,-0.2797192335128784,1,-0.5336839556694031,1
1777499305198610944,0.02144994586706161,1,-0.4635125696659088,1,-0.09068027138710022,1
1777499305208764672,0.09873282909393311,1,-0.1845483928918839,1,-0.3826567530632019,1
1777499305218898688,0.144187331199646,1,-0.1358372718095779,1,0.1329693496227264,1
1777499305229012480,0.1214856207370758,1,-0.08054661750793457,1,0.09408946335315704,1
1777499305239106560,0.1127822399139404,1,0.01859326101839542,1,0.03641033917665482,1
1777499305249180928,0.09525137394666672,1,0.05201098695397377,1,-0.1609252691268921,1
1777499305259236096,0.05437909811735153,1,-0.3716680407524109,1,-0.5923677086830139,1
1777499305269271808,-0.07572484761476517,1,-0.1947819739580154,1,-1.021333932876587,1
1777499305279287552,-0.1551668792963028,1,-0.4731807112693787,1,-0.9265678524971008,1
1777499305289283840,-0.1285073608160019,1,-0.3860428035259247,1,-1.024482727050781,1
1777499305299260416,0.07340209186077118,1,-0.1949609220027924,1,-0.7825405597686768,1
1777499305309217536,0.1076383292675018,1,-0.2424731254577637,1,0.03857433050870895,1
1777499305319162112,0.09085018932819366,1,0.04073962569236755,1,0.02697490900754929,1
1777499305329087488,0.1797298043966293,1,0.1493563055992126,1,0.1678106039762497,1
1777499305338993664,0.1045030057430267,1,0.03145569190382957,1,0.7922894358634949,1
1777499305348880384,0.1901419907808304,1,0.2654516100883484,1,0.5315988659858704,1
1777499305358747904,0.09545259922742844,1,0.4613975286483765,1,0.4057334065437317,1
1777499305368596480,0.06943642348051071,1,0.1443671584129333,1,0.5607581734657288,1
1777499305378425600,-0.05101505666971207,1,0.363730251789093,1,0.5168691277503967,1
1777499305388466432,-0.1192043721675873,1,0.3407185971736908,1,0.7547231316566467,1
1777499305398717952,0.008190774358808994,1,0.3146841526031494,1,0.8018885254859924,1
1777499305408949504,0.0541541799902916,1,0.4531005024909973,1,0.9209805130958557,1
1777499305419161088,-0.01518223993480206,1,0.4844496548175812,1,0.7616796493530273,1
1777499305429353472,-0.1056850552558899,1,0.4801506996154785,1,1.088139057159424,1
1777499305439525888,0.000825982540845871,1,0.5325881838798523,1,0.8013589978218079,1
1777499305449678336,-0.09964422881603241,1,0.3570543527603149,1,0.9125915169715881,1
1777499305459811328,-0.08133677393198013,1,0.309718906879425,1,0.5216265320777893,1
1777499305469924352,-0.3590356409549713,1,0.3043644726276398,1,0.8059512376785278,1
1777499305480017920,-0.2106423825025558,1,0.3288868367671967,1,0.5921472907066345,1
1777499305490091264,-0.02126674167811871,1,0.2376775145530701,1,0.7491909861564636,1
1777499305500145152,0.1010155603289604,1,0.2867602109909058,1,0.7173784375190735,1
1777499305510180352,-0.05466222390532494,1,0.2683102786540985,1,0.6467276215553284,1
1777499305520195584,-0.1806267499923706,1,0.2824420928955078,1,0.2470011711120605,1
1777499305530191104,-0.244284600019455,1,0.3541243374347687,1,0.5038045048713684,1
1777499305540167168,-0.1710744798183441,1,0.2992054224014282,1,-0.1478228569030762,1
1777499305550128128,-0.1795754134654999,1,0.4259802103042603,1,0.2197188138961792,1
1777499305560069632,-0.2921661734580994,1,0.1708736717700958,1,-0.2876667976379395,1
1777499305569992192,-0.3075243234634399,1,-0.01113324239850044,1,-0.1709332764148712,1
1777499305579895808,-0.3035271763801575,1,0.1564712077379227,1,-0.6940709352493286,1
1777499305589780480,-0.3375788033008575,1,-0.02850201725959778,1,-0.5059480667114258,1
1777499305599645696,-0.4339800179004669,1,-0.0589032806456089,1,-0.6082572937011719,1
1777499305609491968,-0.3871462345123291,1,0.0538225993514061,1,-0.5405389070510864,1
1777499305619319040,-0.3841194212436676,1,-0.3329171240329742,1,-0.3088372647762299,1
1777499305629361152,-0.3226867616176605,1,-0.1218562871217728,1,-0.9063288569450378,1
1777499305639617536,-0.3993295431137085,1,-0.0535195916891098,1,-1.764325976371765,1
1777499305649853952,-0.6013021469116211,1,-0.2440110296010971,1,-1.527397990226746,1
1777499305660069888,-0.8009322285652161,1,-0.07235438376665115,1,-1.473831653594971,1
1777499305670265856,-0.591042160987854,1,-0.1519479900598526,1,-1.051643252372742,1
1777499305680443136,-0.2348620295524597,1,-0.2412607222795486,1,-0.7885551452636719,1
1777499305690600448,-0.162425309419632,1,-0.006119944155216217,1,-0.3459332883358002,1
1777499305700738304,-0.2546964585781097,1,-0.08736041188240051,1,-0.06933552026748657,1
1777499305710856192,-0.3198789060115814,1,0.02592415362596512,1,-0.2936325371265411,1
1777499305720954368,-0.2395203560590744,1,-0.04791473969817162,1,-0.1921218484640121,1
1777499305731032832,-0.254753053188324,1,-0.1589986234903336,1,-0.7002975344657898,1
1777499305741091584,-0.45269376039505,1,-0.01165506616234779,1,-0.4695162773132324,1
1777499305751130624,-0.4922356605529785,1,-0.1945926398038864,1,-0.4492152333259583,1
1777499305761150720,-0.3039654791355133,1,-0.2168050408363342,1,-0.04823038354516029,1
1777499305771150848,-0.1688390523195267,1,-0.1840322613716125,1,-0.12517449259758,1
1777499305781131264,-0.153235912322998,1,-0.3606382608413696,1,0.2204031348228455,1
1777499305791092224,-0.1972587257623672,1,-0.2714943885803223,1,0.3753100335597992,1
1777499305801033984,-0.1501674652099609,1,-0.06977326422929764,1,0.3219649791717529,1
1777499305810956032,-0.1427273154258728,1,-0.2451825439929962,1,0.6089241504669189,1
1777499305820858368,-0.1867067515850067,1,-0.198294073343277,1,0.7332751750946045,1
1777499305830741504,-0.08990688621997833,1,-0.2384087592363358,1,0.8648839592933655,1
1777499305840606208,-0.07861661165952682,1,-0.02912133559584618,1,0.9814562797546387,1
1777499305850451712,-0.02520465292036533,1,0.01271549426019192,1,1.206117630004883,1
1777499305860281856,-0.01960093714296818,1,0.1013555079698563,1,1.11230206489563,1
1777499305870093312,-0.1175286918878555,1,0.3568737804889679,1,1.344605565071106,1
1777499305880348160,-0.02453762292861938,1,0.1535038501024246,1,1.394400238990784,1
1777499305890583040,-0.0769919827580452,1,-0.08490962535142899,1,1.607145071029663,1
1777499305900797952,-0.1083687841892242,1,0.02714597061276436,1,1.672085523605347,1
1777499305910993920,-0.06807501614093781,1,0.05220739170908928,1,1.137085318565369,1
1777499305921170432,-0.07824132591485977,1,-0.1332077383995056,1,1.411601781845093,1
1777499305931327744,0.01980770938098431,1,0.1480501294136047,1,0.650245189666748,1
1777499305941465344,-0.1140965670347214,1,0.5071410536766052,1,0.4762058854103088,1
1777499305951586304,-0.217223584651947,1,0.3469812870025635,1,0.5122522115707397,1
1777499305961687296,-0.3976853489875793,1,-0.4034485816955566,1,1.348146200180054,1
1777499305971771136,-0.1261714696884155,1,-0.08547197282314301,1,0.3753190934658051,1
1777499305981835264,-5.017220973968506e-05,1,-0.3691860437393188,1,0.4297420680522919,1
1777499305991880448,0.03623773157596588,1,-0.5688919425010681,1,0.04201184585690498,1
1777499306001906176,-0.3667837679386139,1,-0.4576992094516754,1,-0.07121533155441284,1
1777499306011912704,-0.3492228090763092,1,-0.5035231113433838,1,-0.406861424446106,1
1777499306021899520,-0.3588141798973083,1,-0.8210207223892212,1,-0.4189917147159576,1
1777499306031866880,-0.1319741457700729,1,-0.6106152534484863,1,-0.2611986100673676,1
1777499306041814784,-0.04541946947574615,1,-0.4256430566310883,1,-0.6401809453964233,1
1777499306051744512,0.03029577434062958,1,-0.7201123833656311,1,-0.5314487814903259,1
1777499306061654528,-0.05798143893480301,1,-0.6141936779022217,1,-1.130259394645691,1
1777499306071545344,-0.2600268423557281,1,-0.4173091650009155,1,-1.738328099250793,1
1777499306081416448,-0.1371181011199951,1,-0.5231124758720398,1,-1.352800726890564,1
1777499306091268608,-0.2075025290250778,1,-0.5103257298469543,1,-1.112668514251709,1
1777499306101101312,0.1424773186445236,1,-0.336880087852478,1,-1.011466503143311,1
1777499306110914560,-0.1209946274757385,1,-0.1942353397607803,1,-0.3325633406639099,1
1777499306121177600,0.03434056043624878,1,0.01922617852687836,1,-1.002656102180481,1
1777499306131420928,-0.2099287658929825,1,0.2001684606075287,1,-0.1631369292736053,1
1777499306141644544,-0.02526083029806614,1,0.0340525358915329,1,-0.8138970136642456,1
1777499306151848192,-0.0122159868478775,1,0.4014540016651154,1,-0.02624920010566711,1
1777499306162031872,0.07731437683105469,1,0.4313552379608154,1,-0.1088530123233795,1
1777499306172195328,-0.06374885141849518,1,0.7472972869873047,1,0.7717980742454529,1
1777499306182339328,0.1451958119869232,1,0.6306776404380798,1,0.2366223931312561,1
1777499306192463360,0.05960643291473389,1,0.6615166664123535,1,0.3470309376716614,1
1777499306202567424,-0.05955560877919197,1,0.5695522427558899,1,-0.477992832660675,1
1777499306212652032,-0.1757342517375946,1,0.7607658505439758,1,-0.7082840204238892,1
1777499306222717440,-0.1635423451662064,1,0.5669668316841125,1,-0.7251562476158142,1
1777499306232764160,0.06630200147628784,1,0.378888338804245,1,-0.7055342197418213,1
1777499306242792448,0.1240954548120499,1,0.3959142863750458,1,-0.2698603272438049,1
1777499306252801280,0.1389316320419312,1,0.07644400000572205,1,-0.5725716352462769,1
1777499306262790400,0.1295207589864731,1,0.02067428827285767,1,-0.4465983808040619,1
1777499306272760064,0.07218044996261597,1,-0.0131479874253273,1,-0.399941086769104,1
1777499306282710272,0.1265099495649338,1,-0.1752949506044388,1,-0.5983186960220337,1
1777499306292641280,0.1070632040500641,1,-0.1701729148626328,1,-0.2682787775993347,1
1777499306302552576,0.1627735793590546,1,-0.3610485792160034,1,-0.277996301651001,1
1777499306312444928,0.1031196340918541,1,-0.1705646216869354,1,0.07623071223497391,1
1777499306322318336,0.1897442489862442,1,-0.07140181213617325,1,0.03132312372326851,1
1777499306332173056,0.09135034680366516,1,-0.2811872363090515,1,0.3586841821670532,1
1777499306342008064,-0.02692507952451706,1,-0.2443918138742447,1,0.3948825597763062,1
1777499306351824128,-0.04613771662116051,1,-0.3140457272529602,1,0.8932826519012451,1
1777499306361853952,-0.06218376383185387,1,-0.4451644122600555,1,1.754988431930542,1
1777499306372096512,0.711823582649231,1,1.007910132408142,1,-0.8240848779678345,1
1777499306382319104,0.4326452612876892,1,-0.3175027370452881,1,0.06790952384471893,1
1777499306392523008,-0.3250638842582703,1,-0.3048033118247986,1,0.04383378848433495,1
1777499306402707456,-0.8077616691589355,1,-0.4219828248023987,1,0.2831911146640778,1
1777499306412872192,0.1608564555644989,1,0.4583571255207062,1,0.8842554092407227,1
1777499306423016960,0.1444389373064041,1,-0.5707375407218933,1,0.3107668459415436,1
1777499306433142272,0.3304378688335419,1,-0.3191802501678467,1,1.546865820884705,1
1777499306443247616,-0.7414694428443909,1,0.7070767879486084,1,0.8851041793823242,1
1777499306453333760,0.2178276479244232,1,0.9601044058799744,1,0.6137694120407104,1
1777499306463400192,-0.05623716488480568,1,1.116256594657898,1,-0.7435503602027893,1
1777499306473447936,0.05360549688339233,1,0.1333505511283875,1,1.061294794082642,1
1777499306483476224,-0.7420432567596436,1,0.01028843782842159,1,1.197359919548035,1
1777499306493484800,0.3224303126335144,1,-1.050799608230591,1,0.1641947031021118,1
1777499306503473920,-0.265825629234314,1,-0.810806930065155,1,-0.6498771905899048,1
1777499306513443584,-0.2994963824748993,1,-0.9299248456954956,1,-0.03091618046164513,1
1777499306523393792,-0.6235312223434448,1,-0.5177781581878662,1,0.2716989517211914,1
1777499306533324288,0.04412068426609039,1,0.244007483124733,1,-1.373721241950989,1
1777499306543235584,-0.4091805517673492,1,0.2315860986709595,1,0.1319369077682495,1
1777499306553134592,-0.5329532027244568,1,0.03796271234750748,1,-0.7863414287567139,1
1777499306563014144,-0.5414257049560547,1,0.02274522185325623,1,0.3134374022483826,1
1777499306572874496,-0.2597973942756653,1,0.3398076891899109,1,-1.051498055458069,1
1777499306582715648,-0.3422019183635712,1,0.3380725979804993,1,0.2603405714035034,1
1777499306592538112,-0.2177047729492188,1,0.07884722948074341,1,-0.6416844129562378,1
1777499306602570752,-0.2429602146148682,1,0.2076055407524109,1,-0.02361124195158482,1
1777499306612813568,-0.3018321096897125,1,0.3338447213172913,1,-0.4283576607704163,1
1777499306623036416,-0.3337286412715912,1,0.469999760389328,1,0.05152415484189987,1
1777499306633239808,-0.3730847537517548,1,0.4533839821815491,1,-0.2223614156246185,1
1777499306643423488,-0.4736958742141724,1,0.4775923490524292,1,-0.2664558887481689,1
1777499306653588224,-0.2660366296768188,1,0.4468761384487152,1,-0.3267744481563568,1
1777499306663733504,-0.2529358267784119,1,0.34381103515625,1,-0.1590883582830429,1
1777499306673859328,-0.2548486590385437,1,0.1360016763210297,1,0.01127117499709129,1
1777499306683966976,-0.1666661202907562,1,0.06401196122169495,1,-0.07462436705827713,1
1777499306694055168,-0.1595761924982071,1,-0.127404659986496,1,0.1750533878803253,1
1777499306704123648,-0.1276805102825165,1,-0.1781593561172485,1,0.06135530024766922,1
1777499306714172416,-0.2081232815980911,1,-0.1749879568815231,1,0.3023371398448944,1
1777499306724201984,-0.1229963004589081,1,-0.02781799621880054,1,-0.2669465243816376,1
1777499306734211840,-0.190795823931694,1,0.1475572884082794,1,0.1591820865869522,1
1777499306744203008,-0.1539723426103592,1,0.08112671226263046,1,0.1113050580024719,1
1777499306754174720,-0.130841851234436,1,0.0212230458855629,1,1.070787191390991,1
1777499306764127488,0.01355456281453371,1,-0.09222662448883057,1,1.013031363487244,1
1777499306774060544,0.1351357251405716,1,-0.1647678315639496,1,0.6543018817901611,1
1777499306783974144,0.02738628163933754,1,-0.2284214347600937,1,0.8174980282783508,1
1777499306793868544,0.005945455282926559,1,-0.03481022268533707,1,0.6768527626991272,1
1777499306803743488,0.0383329875767231,1,0.3528228402137756,1,0.4378047287464142,1
1777499306813598976,0.07334855943918228,1,0.1906912922859192,1,0.5361453294754028,1
1777499306823435264,0.02240453846752644,1,0.2524293065071106,1,0.8558487892150879,1
1777499306833252608,0.09924400597810745,1,0.09842661023139954,1,0.5352232456207275,1
1777499306843289088,0.05778531730175018,1,0.001997115090489388,1,0.4701370298862457,1
1777499306853543936,0.07585752755403519,1,-0.09748915582895279,1,0.1944586038589478,1
1777499306863778816,0.03310235217213631,1,-0.1265756338834763,1,0.4320131540298462,1
1777499306873993984,-0.01750999689102173,1,0.01249964442104101,1,0.4391943216323853,1
1777499306884189184,0.1219527944922447,1,-0.04961650818586349,1,0.7566737532615662,1
1777499306894366976,0.1300742030143738,1,0.03796549886465073,1,0.6863270401954651,1
1777499306904528128,0.128568634390831,1,0.01943986862897873,1,0.6920404434204102,1
1777499306914670336,0.07990539819002151,1,0.3253991901874542,1,0.5281916260719299,1
1777499306924792576,0.1178689897060394,1,0.07578647881746292,1,0.3408322036266327,1
1777499306934895104,0.1549711674451828,1,0.2531958222389221,1,0.04389313980937004,1
1777499306944978432,0.1017003953456879,1,-0.2143000066280365,1,-0.1747207641601562,1
1777499306955047680,-0.03553707897663116,1,-0.2874052226543427,1,-0.2017238587141037,1
1777499306965098496,0.02199493907392025,1,-0.1903859078884125,1,-0.5164230465888977,1
1777499306975130112,0.110133171081543,1,-0.4476101398468018,1,-0.1525690406560898,1
1777499306985142528,0.2324700653553009,1,-0.04528003185987473,1,-0.4446861743927002,1
1777499306995136256,0.3101885318756104,1,0.05162445083260536,1,-0.6204044222831726,1
1777499307005151232,-0.1025032997131348,1,-0.1898875385522842,1,-0.2487833201885223,1
1777499307015147008,0.4226199686527252,1,-0.08851957321166992,1,-1.034043073654175,1
1777499307025123328,0.3986896276473999,1,0.09910076856613159,1,-0.6627440452575684,1
1777499307035079936,0.3306236863136292,1,-0.4502321183681488,1,-0.2898513376712799,1
1777499307045017344,0.19955213367939,1,0.2047793865203857,1,-0.9439473748207092,1
1777499307054935040,-0.007955249398946762,1,0.7455674409866333,1,-1.114252209663391,1
1777499307064833536,0.5993059277534485,1,-0.02143704891204834,1,-0.2953388690948486,1
1777499307074712320,0.3732153177261353,1,-0.2473909556865692,1,-0.2676047682762146,1
1777499307084773120,0.5094673633575439,1,0.06062028557062149,1,-0.1812993288040161,1
1777499307095014912,0.1796031147241592,1,-0.3109085261821747,1,0.04754785448312759,1
1777499307105238016,0.3634833693504333,1,0.2135879397392273,1,-0.2430529594421387,1
1777499307115442432,0.5697805881500244,1,0.4977148771286011,1,-0.3585317730903625,1
1777499307125627648,0.4319509565830231,1,0.4892690777778625,1,-0.5336152911186218,1
1777499307135794688,0.4978072047233582,1,0.3866764008998871,1,-0.5109262466430664,1
1777499307145943296,0.3667818307876587,1,0.2074012458324432,1,-1.0567547082901,1
1777499307156074240,0.4806365966796875,1,0.2198092341423035,1,-0.7464279532432556,1
1777499307166186240,0.6851744055747986,1,0.2272225469350815,1,-1.343266367912292,1
1777499307176279296,0.5744524598121643,1,0.1613093614578247,1,-0.9862863421440125,1
1777499307186352640,0.7258567214012146,1,0.05969984084367752,1,-1.61724066734314,1
1777499307196407040,0.5924296379089355,1,-0.3345581591129303,1,-0.8253647089004517,1
1777499307206441728,0.7322332859039307,1,-0.04161799699068069,1,-1.355555057525635,1
1777499307216456960,0.7175117135047913,1,-0.3751464784145355,1,-0.4037468135356903,1
1777499307226452992,0.7368674278259277,1,-0.3478424549102783,1,-0.3742972612380981,1
1777499307236430080,0.6616828441619873,1,-0.2920624613761902,1,-0.05168985202908516,1
1777499307246387712,0.4543337821960449,1,-0.3840909600257874,1,0.1590312421321869,1
1777499307256326144,0.5021657943725586,1,-0.1738259941339493,1,0.1792640835046768,1
1777499307266245120,0.3590040504932404,1,-0.2749252915382385,1,0.6568657159805298,1
1777499307276144896,0.2380437552928925,1,-0.3458952307701111,1,0.6812565326690674,1
1777499307286025472,0.1753067970275879,1,-0.2185651361942291,1,1.09816563129425,1
1777499307295886848,0.1254759132862091,1,-0.287595272064209,1,1.084635376930237,1
1777499307305729536,0.08357609063386917,1,-0.221642792224884,1,1.065468788146973,1
1777499307315553280,0.001342879608273506,1,0.07864203304052353,1,1.373454689979553,1
1777499307325587968,-0.2071790844202042,1,0.04910315945744514,1,1.598774909973145,1
1777499307335832320,-0.1323905438184738,1,0.1603580713272095,1,2.189773082733154,1
1777499307346056704,0.04896407946944237,1,0.4108268320560455,1,2.162249565124512,1
1777499307356261120,0.09908825904130936,1,0.2737241983413696,1,2.296181917190552,1
1777499307366445824,0.0138067789375782,1,0.5619466304779053,1,1.533608436584473,1
1777499307376611072,-0.2280810475349426,1,0.2985606789588928,1,1.136947154998779,1
1777499307386756864,-0.6938376426696777,1,-0.2123739123344421,1,1.400549411773682,1
1777499307396882688,-0.4553855657577515,1,0.0701071172952652,1,0.5374177098274231,1
1777499307406989056,-0.3982079923152924,1,-0.2579859495162964,1,0.899835467338562,1
1777499307417075968,-0.4062397480010986,1,-0.1432561427354813,1,0.4984309673309326,1
1777499307427143168,-0.5231843590736389,1,-0.05161697417497635,1,0.5738231539726257,1
1777499307437190400,-0.5006858110427856,1,-0.09945989400148392,1,0.1803320199251175,1
1777499307447218688,-0.433167576789856,1,0.01322872936725616,1,-0.08352269977331161,1
1777499307457227776,-0.3636433780193329,1,-0.1647731959819794,1,-0.1439999341964722,1
1777499307467217408,-0.4196859300136566,1,-0.3481595814228058,1,-0.0132109522819519,1
1777499307477187328,-0.318274199962616,1,-0.2742561101913452,1,-0.411277174949646,1
1777499307487137792,-0.3902791738510132,1,-0.3397741913795471,1,-0.6486771702766418,1
1777499307497069056,-0.4765363931655884,1,-0.4305997788906097,1,-1.053701043128967,1
1777499307506985728,-0.6293653249740601,1,-0.4460782408714294,1,-1.249116897583008,1
1777499307516883200,-0.5502247214317322,1,-0.43631911277771,1,-1.114163875579834,1
1777499307526761472,-0.4673380553722382,1,-0.3341494202613831,1,-1.296781539916992,1
1777499307536620544,-0.4373573958873749,1,-0.4491153359413147,1,-0.7197956442832947,1
1777499307546460672,-0.437881201505661,1,-0.2388499677181244,1,-0.819602370262146,1
1777499307556281344,-0.4099267721176147,1,-0.181676834821701,1,-0.6398810744285583,1
1777499307566083328,-0.4301628768444061,1,0.142104908823967,1,-0.795696496963501,1
1777499307576336128,-0.2929764688014984,1,0.05646224319934845,1,-0.7374318242073059,1
1777499307586569728,-0.4806649088859558,1,0.1403396725654602,1,-0.6310615539550781,1
1777499307596783872,-0.4027132391929626,1,0.2990940511226654,1,-0.9448786973953247,1
1777499307606979072,-0.39767786860466,1,0.06021209806203842,1,-0.5359340906143188,1
1777499307617155584,-0.4821588099002838,1,0.1229721382260323,1,-0.4455479979515076,1
1777499307627313920,-0.4154085516929626,1,-0.1375860273838043,1,-0.534919798374176,1
1777499307637452800,-0.491974264383316,1,-0.1933451890945435,1,-0.3822703063488007,1
1777499307647572224,-0.3491648733615875,1,-0.2199548631906509,1,-0.8352828621864319,1
1777499307657672192,-0.4045542776584625,1,-0.1375628709793091,1,-0.6985546350479126,1
1777499307667752704,-0.4479410946369171,1,-0.1978382766246796,1,-0.5576962232589722,1
1777499307677813504,-0.512371838092804,1,-0.2311811149120331,1,-0.2429915964603424,1
1777499307687854592,-0.3772665560245514,1,-0.006552462466061115,1,0.1550066918134689,1
1777499307697876480,-0.2422238886356354,1,-0.148985356092453,1,0.4271826148033142,1
1777499307707879168,-0.2586975991725922,1,0.007657505571842194,1,0.6546405553817749,1
1777499307717865728,-0.1745581477880478,1,0.03329665958881378,1,0.4182596802711487,1
1777499307727832832,-0.2127792537212372,1,0.1944744884967804,1,0.5816202163696289,1
1777499307737780736,-0.177290067076683,1,0.05638175457715988,1,0.3918089866638184,1
1777499307747709696,-0.2654137909412384,1,-0.08837781101465225,1,0.539800226688385,1
1777499307757619456,-0.2101296335458755,1,-0.06089215725660324,1,0.3685686588287354,1
1777499307767509760,-0.1330583244562149,1,-0.05816317722201347,1,0.3338379263877869,1
1777499307777381120,-0.1370586901903152,1,-0.02787932753562927,1,0.1419713497161865,1
1777499307787233280,-0.201204389333725,1,-0.04667055979371071,1,0.3152479827404022,1
1777499307797067008,-0.3584018051624298,1,-0.07559529691934586,1,0.1632387340068817,1
1777499307806882304,-0.2285527586936951,1,-0.1363735795021057,1,0.609932005405426,1
1777499307816906752,-0.04648345336318016,1,0.01094681583344936,1,0.363552451133728,1
1777499307827139840,0.03584510087966919,1,0.07418736815452576,1,0.369905948638916,1
1777499307837353216,0.00885795708745718,1,-0.001387022435665131,1,0.2008714377880096,1
1777499307847547136,-0.07607841491699219,1,0.04595353454351425,1,0.04493388533592224,1
1777499307857721344,0.02747639454901218,1,-0.1731476783752441,1,-0.1053918153047562,1
1777499307867875584,0.101082056760788,1,-0.2885685563087463,1,-0.07179807126522064,1
1777499307878010880,0.1774158179759979,1,-0.4966079592704773,1,-0.1948727816343307,1
1777499307888131072,0.3880382776260376,1,-0.3773855865001678,1,-0.3347549438476562,1
1777499307898232576,0.4764743745326996,1,-0.2533134818077087,1,-0.286237508058548,1
1777499307908314624,0.4559406340122223,1,-0.1138014420866966,1,-0.238255649805069,1
1777499307918377472,0.5389308333396912,1,-0.01719732955098152,1,-0.03407702967524529,1
1777499307928420864,0.6803524494171143,1,-0.2713303864002228,1,0.1443365216255188,1
1777499307938444800,0.7621661424636841,1,-0.4827470779418945,1,0.2075359523296356,1
1777499307948449280,0.7022528648376465,1,-0.5518057346343994,1,0.04961513727903366,1
1777499307958435072,0.7929951548576355,1,-0.6323043704032898,1,-0.2593470513820648,1
1777499307968434944,0.6455988883972168,1,-0.5236280560493469,1,0.1557196378707886,1
1777499307978430976,0.8117524385452271,1,-0.4876017868518829,1,-0.1978690177202225,1
1777499307988407552,0.8306022882461548,1,-0.3293280601501465,1,0.1779335290193558,1
1777499307998364928,0.9125825166702271,1,-0.5613517165184021,1,0.1472715735435486,1
1777499308008302592,0.9480234384536743,1,-0.3354174196720123,1,0.2834248244762421,1
1777499308018221312,0.9539168477058411,1,-0.3597608804702759,1,0.2632784247398376,1
1777499308028120576,1.05455493927002,1,-0.2282139658927917,1,0.03810065984725952,1
1777499308038000640,1.090986609458923,1,-0.1463335454463959,1,0.002220173366367817,1
1777499308047861248,0.8962858319282532,1,0.0994303822517395,1,-0.1550707519054413,1
1777499308057907712,0.8688247203826904,1,0.2722527384757996,1,-0.08963333815336227,1
1777499308068138752,0.8323442935943604,1,0.3870473206043243,1,-0.08565825968980789,1
1777499308078350080,0.9640452861785889,1,0.2647507786750793,1,-0.3047933280467987,1
1777499308088541696,1.000563859939575,1,0.3629621565341949,1,-0.1510944664478302,1
1777499308098714880,0.8930947780609131,1,0.6298367381095886,1,0.002358102239668369,1
1777499308108868096,0.9349405765533447,1,0.8029666543006897,1,0.2373112738132477,1
1777499308119001600,0.9108096957206726,1,0.6184499263763428,1,0.395978569984436,1
1777499308129115648,0.8614654541015625,1,0.6414584517478943,1,0.6155514121055603,1
1777499308139209984,0.7688018679618835,1,0.7055332660675049,1,0.7866097688674927,1
1777499308149284864,0.7192840576171875,1,0.6732084155082703,1,0.5506665110588074,1
1777499308159340032,0.5750277042388916,1,0.6915542483329773,1,0.7141681313514709,1
1777499308169375488,0.4944307804107666,1,0.7662561535835266,1,0.4028540253639221,1
1777499308179392512,0.4605661034584045,1,0.8265242576599121,1,0.7213419675827026,1
1777499308189390336,0.3097924888134003,1,1.037541151046753,1,0.9136756658554077,1
1777499308199369472,0.573572039604187,1,1.098096132278442,1,1.044482350349426,1
1777499308209329152,0.6093011498451233,1,1.124438881874084,1,1.270859718322754,1
1777499308219269632,0.3606075942516327,1,0.904252827167511,1,0.9260514974594116,1
1777499308229190912,0.1322318017482758,1,0.4568683803081512,1,0.9127535223960876,1
1777499308239092480,0.04443685710430145,1,0.5762972831726074,1,0.9545385837554932,1
1777499308248975104,0.2235564887523651,1,0.5093174576759338,1,0.7811701893806458,1
1777499308258839296,0.3120625615119934,1,0.460837334394455,1,0.1388682723045349,1
1777499308268683776,0.198430985212326,1,0.2990877330303192,1,0.1868267506361008,1
1777499308278509312,-0.09434135258197784,1,0.07737363874912262,1,0.009613990783691406,1
1777499308288315648,-0.09318119287490845,1,-0.1402119696140289,1,0.2087173312902451,1
1777499308298335488,0.2158653736114502,1,-0.1378435641527176,1,0.1223356053233147,1
1777499308308568064,0.1584070175886154,1,-0.4760012626647949,1,-0.01976055651903152,1
1777499308318780672,-0.09483976662158966,1,-0.4985978305339813,1,-0.02423509955406189,1
1777499308328973568,-0.2942364513874054,1,-0.43158158659935,1,-0.8139398694038391,1
1777499308339147520,-0.2052551358938217,1,-0.5948911905288696,1,-0.5276037454605103,1
1777499308349301760,-0.17957603931427,1,-0.6230595111846924,1,-1.226634383201599,1
1777499308359436032,-0.2941270470619202,1,-0.6917122602462769,1,-0.9041430354118347,1
1777499308369550592,-0.4638796746730804,1,-0.8864513635635376,1,-0.6149011254310608,1
1777499308379646208,-0.25572469830513,1,-0.9018391370773315,1,-0.6139457821846008,1
1777499308389721856,-0.2045199126005173,1,-0.6812098622322083,1,-0.4533841013908386,1
1777499308399777792,-0.280529111623764,1,-0.6543895602226257,1,-0.2249697744846344,1
1777499308409814272,-0.3917528092861176,1,-0.3980447053909302,1,0.166571170091629,1
1777499308419832064,-0.5787699818611145,1,-0.1374765038490295,1,0.5518458485603333,1
1777499308429830144,-0.5626381635665894,1,-0.02565056085586548,1,0.7781813740730286,1
1777499308439808512,-0.5471761226654053,1,0.3407753109931946,1,1.24366295337677,1
1777499308449771776,-0.6780880093574524,1,0.8410084843635559,1,1.227130651473999,1
1777499308459715840,-0.7442797422409058,1,0.61529141664505,1,1.534764409065247,1
1777499308469640704,-0.4214417040348053,1,0.6357542872428894,1,0.9275923371315002,1
1777499308479546112,-0.5579272508621216,1,0.4060218632221222,1,1.318997144699097,1
1777499308489432320,-0.5444066524505615,1,0.4295387268066406,1,0.313261091709137,1
1777499308499299072,-0.6120250225067139,1,0.5976737141609192,1,0.5758561491966248,1
1777499308509146624,-0.3536590039730072,1,0.05655648931860924,1,0.4699447154998779,1
1777499308518975232,-0.292688250541687,1,0.1187752187252045,1,0.262222558259964,1
1777499308528785152,-0.1960862576961517,1,-0.4160002171993256,1,-0.2601069509983063,1
1777499308538806784,-0.37184077501297,1,-0.9842690229415894,1,-0.8473063707351685,1
1777499308549039104,-0.5497416257858276,1,-0.992165207862854,1,-1.313473701477051,1
1777499308559251456,-0.5867893099784851,1,-1.116371273994446,1,-2.263277053833008,1
1777499308569443840,-0.5428661704063416,1,-1.529587507247925,1,-1.458264708518982,1
1777499308579616768,-0.2998337149620056,1,-1.440171360969543,1,-1.410911321640015,1
1777499308589769984,-0.2979016900062561,1,-1.116693258285522,1,-0.7971265912055969,1
1777499308599903744,-0.1603826433420181,1,-1.043426036834717,1,-0.928196907043457,1
1777499308610017536,-0.1021078750491142,1,-0.8495491147041321,1,-1.210960745811462,1
1777499308620111872,-0.2391863614320755,1,-0.6128615140914917,1,-0.9609249234199524,1
1777499308630186496,-0.2398153692483902,1,-0.3167332112789154,1,-1.052019238471985,1
1777499308640241408,-0.2633403539657593,1,-0.1551446318626404,1,-0.6265395879745483,1
1777499308650276864,-0.134781688451767,1,0.1801816523075104,1,-0.3749147057533264,1
1777499308660292864,-0.194915235042572,1,0.6011307239532471,1,0.03231373429298401,1
1777499308670289664,-0.2716444432735443,1,0.2956849336624146,1,0.6477838158607483,1
1777499308680266752,-0.1402276605367661,1,0.4564454555511475,1,0.1714879870414734,1
1777499308690224384,-0.08959504961967468,1,0.5088157653808594,1,0.7299854755401611,1
1777499308700162560,-0.08605589717626572,1,0.3729572594165802,1,0.3443776369094849,1
1777499308710081536,-0.1863431036472321,1,0.4141658246517181,1,0.6409249305725098,1
1777499308719981312,-0.1540831923484802,1,0.2831059098243713,1,-0.01633581519126892,1
1777499308729861632,0.03952077776193619,1,0.04346080869436264,1,0.621313750743866,1
1777499308739725568,0.01616646721959114,1,-0.07884408533573151,1,0.2876215875148773,1
1777499308749573632,0.09654510766267776,1,-0.1671116650104523,1,0.2451542317867279,1
1777499308759402240,0.08838032931089401,1,-0.2167301177978516,1,0.3044016659259796,1
1777499308769211904,0.146296814084053,1,-0.1537030339241028,1,-0.09830021858215332,1
1777499308779002880,0.3037778735160828,1,-0.05002280697226524,1,0.156456470489502,1
1777499308789239040,0.3481408059597015,1,0.02373211085796356,1,-0.2745332419872284,1
1777499308799455488,0.4599263072013855,1,0.01582980342209339,1,-0.2144351303577423,1
1777499308809652736,0.5386027693748474,1,-0.03469497710466385,1,-0.674560546875,1
1777499308819830016,0.6289889216423035,1,-0.05374923348426819,1,-0.6359726786613464,1
1777499308829987328,0.7021932601928711,1,0.1073008999228477,1,-0.9562190771102905,1
1777499308840124928,0.6133728623390198,1,0.1096799448132515,1,-0.7664483785629272,1
1777499308850243072,0.6109196543693542,1,0.01369308680295944,1,-0.5562585592269897,1
1777499308860341248,0.6919540166854858,1,0.0132908234372735,1,-0.2132000327110291,1
1777499308870419712,0.7124203443527222,1,-0.09832342714071274,1,0.2570092082023621,1
1777499308880478464,0.731505811214447,1,-0.1365787088871002,1,-0.2387726157903671,1
1777499308890519296,0.6258426904678345,1,-0.2073838710784912,1,-0.03984769061207771,1
1777499308900542464,0.4498986005783081,1,-0.2051309794187546,1,-0.1565258055925369,1
1777499308910546176,0.4894807636737823,1,-0.1033661812543869,1,0.1476660221815109,1
1777499308920530432,0.6217303872108459,1,-0.1514062285423279,1,0.4438121914863586,1
1777499308930495232,0.6140421628952026,1,-0.3767845034599304,1,0.9778786301612854,1
1777499308940440576,0.6642367839813232,1,-0.3035583794116974,1,1.066518545150757,1
1777499308950366208,0.6177524924278259,1,-0.4625036120414734,1,1.192568898200989,1
1777499308960272640,0.5884903073310852,1,-0.4375907480716705,1,1.211891293525696,1
1777499308970159872,0.6575974225997925,1,-0.28472501039505,1,0.5890200138092041,1
1777499308980027904,0.5689606666564941,1,-0.5328701734542847,1,0.7860777974128723,1
1777499308989876480,0.4097828269004822,1,-0.3482821881771088,1,0.3730838894844055,1
1777499308999706112,0.4447403848171234,1,-0.2594383358955383,1,0.5633906722068787,1
1777499309009515776,0.7078699469566345,1,-0.4690971076488495,1,0.3487184047698975,1
1777499309019306496,0.7174855470657349,1,-0.7181234359741211,1,-0.1216599345207214,1
1777499309029552128,0.5514695644378662,1,-0.7592401504516602,1,-0.2785952985286713,1
1777499309039778048,0.3536603450775146,1,-0.6177725195884705,1,-0.2566088736057281,1
1777499309049984000,0.2780629694461823,1,-0.6498455405235291,1,0.2753254771232605,1
1777499309060169984,0.7813552021980286,1,-0.2986760437488556,1,-0.2657122015953064,1
1777499309070335744,0.8326734304428101,1,-0.3161117136478424,1,0.4304161369800568,1
1777499309080482048,0.6085739731788635,1,-0.2674600780010223,1,0.574529767036438,1
1777499309090608384,0.3600370585918427,1,-0.04991831630468369,1,0.5503979921340942,1
1777499309100715008,0.4531403183937073,1,-0.05725749954581261,1,0.5462021231651306,1
1777499309110803712,0.4789119064807892,1,-0.2418948858976364,1,0.743265688419342,1
1777499309120872704,0.3885755240917206,1,0.07704803347587585,1,0.5385247468948364,1
1777499309130921984,0.4175333976745605,1,0.2181342244148254,1,0.1929154694080353,1
1777499309140951552,0.1056976690888405,1,0.01441115792840719,1,0.5401983261108398,1
1777499309150962176,0.1621026694774628,1,-0.01719499938189983,1,0.3992515802383423,1
1777499309160953344,0.1911269724369049,1,-0.08287041634321213,1,0.3487051129341125,1
1777499309170924544,0.1861827075481415,1,-0.3074148297309875,1,0.01683085039258003,1
1777499309180876288,0.0992298424243927,1,-0.4626536667346954,1,0.0566193200647831,1
1777499309190809088,-0.008316906169056892,1,0.03383800387382507,1,-0.1621156930923462,1
1777499309200722176,0.02703016251325607,1,-0.1409256458282471,1,-0.1462049037218094,1
1777499309210616064,0.274617612361908,1,-0.08329133689403534,1,-0.1929390728473663,1
1777499309220490496,0.164742186665535,1,0.04873204231262207,1,0.1326108276844025,1
1777499309230345984,0.1086751073598862,1,0.09553097933530807,1,0.1333450227975845,1
1777499309240182016,0.04496853053569794,1,0.134468674659729,1,-0.04640370607376099,1
1777499309249998848,0.2051364034414291,1,0.1605224013328552,1,0.2184734642505646,1
1777499309259796992,0.06156061962246895,1,0.2769929468631744,1,0.280699759721756,1
1777499309269809664,0.08176788687705994,1,0.3153688907623291,1,0.220864549279213,1
1777499309280035840,0.03646386414766312,1,0.6313359141349792,1,0.4174233675003052,1
1777499309290242048,-0.07180305570363998,1,0.724914014339447,1,0.4321915507316589,1
1777499309300428544,0.1155425757169724,1,0.5261167287826538,1,0.4929082989692688,1
1777499309310597632,0.1079212203621864,1,0.5074822306632996,1,0.3513757586479187,1
1777499309320747008,-0.08013959974050522,1,0.4841984212398529,1,-0.06066867336630821,1
1777499309330876672,-0.1080669760704041,1,0.3830995857715607,1,-0.2706372737884521,1
1777499309340986368,-0.1322862654924393,1,0.2575920820236206,1,-0.598509669303894,1
1777499309351076608,-0.06747778505086899,1,0.09857774525880814,1,-0.2380081117153168,1
1777499309361147136,-0.1983601301908493,1,0.07896405458450317,1,0.004696886986494064,1
1777499309371197952,0.0935329794883728,1,-0.04343654215335846,1,-0.1948990225791931,1
1777499309381229568,0.1241288185119629,1,-0.0900215208530426,1,-0.6085025072097778,1
1777499309391241984,-0.1667034924030304,1,-0.1707183867692947,1,-1.016880869865417,1
1777499309401234688,-0.4552432596683502,1,-0.1118267402052879,1,-0.961865246295929,1
1777499309411207936,-0.4077434539794922,1,-0.1750438064336777,1,-1.04587185382843,1
1777499309421161472,-0.09210123121738434,1,-0.003438062965869904,1,-0.8044679164886475,1
1777499309431095808,0.05970838293433189,1,-0.06024838984012604,1,-0.4202550053596497,1
1777499309441010688,-0.1572088450193405,1,-0.04875548183917999,1,0.1016220450401306,1
1777499309450906112,-0.1441157758235931,1,0.08864229917526245,1,-0.3277080357074738,1
1777499309460782336,-0.1598470956087112,1,0.02319630794227123,1,0.01238427683711052,1
1777499309470640384,0.01732239499688148,1,-0.08826883882284164,1,0.1748472452163696,1
1777499309480484864,0.04188831150531769,1,0.006268902681767941,1,0.1191751956939697,1
1777499309490309888,-0.09196953475475311,1,0.3403942883014679,1,-0.1997329145669937,1
1777499309500116480,-0.3492766618728638,1,0.1189109832048416,1,-0.04959742352366447,1
1777499309510134016,-0.1039937436580658,1,-0.0636613592505455,1,-0.05246448516845703,1
1777499309520361216,-0.0877285897731781,1,-0.04521331191062927,1,-0.2468370795249939,1
1777499309530568448,-0.157787412405014,1,-0.09730125963687897,1,-0.08545801043510437,1
1777499309540755712,-0.1954974234104156,1,-0.02210851013660431,1,-0.2796206474304199,1
1777499309550923008,-0.291042149066925,1,-0.2466838955879211,1,0.05623259767889977,1
1777499309561070592,-0.219981774687767,1,-0.2266442477703094,1,-0.3830802738666534,1
1777499309571198464,-0.05477175489068031,1,-0.472196638584137,1,-0.2877897322177887,1
1777499309581306368,-0.09629257023334503,1,-0.6883389949798584,1,-0.5580264329910278,1
1777499309591394560,-0.3487153947353363,1,-0.4907343983650208,1,-0.07711643725633621,1
1777499309601463552,-0.136584609746933,1,-0.4176046848297119,1,-0.2287760674953461,1
1777499309611516160,0.002798600122332573,1,-0.4650013446807861,1,0.1235161796212196,1
1777499309621549056,0.004823397845029831,1,-0.3171092569828033,1,0.2957829236984253,1
1777499309631562496,-0.08066355437040329,1,-0.3046688735485077,1,0.327028900384903,1
1777499309641556480,-0.09150125086307526,1,-0.341718465089798,1,0.3991621136665344,1
1777499309651531264,-0.1700631380081177,1,-0.1584222018718719,1,0.2775107026100159,1
1777499309661486592,-0.2093732953071594,1,-0.3305929899215698,1,0.3467445969581604,1
1777499309671422464,-0.1861977875232697,1,-0.2695880234241486,1,0.473002701997757,1
1777499309681339136,-0.1971791386604309,1,-0.06110084801912308,1,0.4790829420089722,1
1777499309691237120,-0.1980345547199249,1,-0.1378515660762787,1,0.6431841850280762,1
1777499309701115904,-0.06093117594718933,1,-0.09703931957483292,1,0.8106693029403687,1
1777499309710975232,-0.118041917681694,1,0.02060142904520035,1,0.5419460535049438,1
1777499309720815616,-0.3440409898757935,1,0.06345246732234955,1,0.9419318437576294,1
1777499309730636800,-0.1916945576667786,1,0.1673162430524826,1,0.8020062446594238,1
1777499309740438528,-0.02120079100131989,1,0.1201848164200783,1,0.7796568870544434,1
1777499309750452992,-0.01340517401695251,1,0.04457281529903412,1,0.5553555488586426,1
1777499309760679680,-0.2866387069225311,1,0.04747043550014496,1,0.4010284841060638,1
1777499309770886400,-0.391131579875946,1,0.0002623852342367172,1,0.5729461908340454,1
1777499309781073408,-0.360460638999939,1,0.01303372904658318,1,0.4771334528923035,1
1777499309791240192,-0.103183887898922,1,0.05371948331594467,1,0.6273916959762573,1
1777499309801387520,-0.0822359025478363,1,0.1717847883701324,1,0.5767335295677185,1
1777499309811515136,-0.3095915019512177,1,0.1858504265546799,1,0.6310198903083801,1
1777499309821622784,-0.3215890526771545,1,0.3003343343734741,1,-0.09443514049053192,1
1777499309831714048,-0.2953127920627594,1,0.1342692077159882,1,-0.120053730905056,1
1777499309841785600,-0.2752280831336975,1,-0.2028477191925049,1,-0.2576556503772736,1
1777499309851837440,-0.3378324508666992,1,-0.09493734687566757,1,-0.2518962025642395,1
1777499309861869824,-0.3007717132568359,1,-0.170081689953804,1,-0.2953236997127533,1
1777499309871882752,-0.226983979344368,1,-0.4969581067562103,1,-0.1991825103759766,1
1777499309881875968,-0.1071983724832535,1,-0.3123262822628021,1,-0.4565271139144897,1
1777499309891849472,-0.1730086803436279,1,-0.345379114151001,1,-0.7638834714889526,1
1777499309901803520,-0.2414937913417816,1,-0.5161131620407104,1,-0.736467182636261,1
1777499309911738880,-0.1854161471128464,1,-0.5782437920570374,1,-1.057167887687683,1
1777499309921654528,-0.05912835896015167,1,-0.37916299700737,1,-0.7407349944114685,1
1777499309931550720,0.03852339088916779,1,-0.5153228044509888,1,-0.5741298198699951,1
1777499309941427456,0.06540489196777344,1,-0.5059119462966919,1,-0.0115951057523489,1
1777499309951284992,0.1215032488107681,1,-0.4816052913665771,1,-0.01538382284343243,1
1777499309961123328,0.09744339436292648,1,-0.4913274049758911,1,0.3722907304763794,1
1777499309970942464,0.08915171027183533,1,-0.05569988489151001,1,-0.152887299656868,1
1777499309980742656,0.07820145040750504,1,-0.04935666918754578,1,-0.1558750420808792,1
1777499309990757120,-0.03974701091647148,1,-0.1067710220813751,1,-0.1469050496816635,1
1777499310000984576,-0.08579373359680176,1,-0.01296839490532875,1,-0.662112832069397,1
1777499310011192064,-0.1156309992074966,1,-0.1944240629673004,1,-0.2706491947174072,1
1777499310021379840,0.02063040807843208,1,-0.1302250623703003,1,-0.6532766819000244,1
1777499310031548416,0.1265478134155273,1,0.1149130240082741,1,-0.5425780415534973,1
1777499310041697280,0.06477592885494232,1,0.003108829259872437,1,-0.8380810618400574,1
1777499310051826176,0.01654455251991749,1,-0.1384528279304504,1,-0.1687365472316742,1
1777499310061935616,0.0654408261179924,1,0.005167644470930099,1,-0.4344996511936188,1
1777499310072025088,0.1387434899806976,1,-0.2320490777492523,1,0.03263696283102036,1
