FILE_INFO
ListSeparator=,
DecimalSeparator=.

SESSION_INFO
TimeZone,UTC
TimeZoneOffset,0
DateTimeFormat,nnnnnnnnnnnnnnnnnnn
StartTime,04/29/26 21:19:20.269724928
TimeFormat,Unix

DEVICE_INFO
Address,*

CHANNEL_INFO
Channel,Type,SampleRate,Equation,Coefficients,Unit,UnitSymbol,WhereApplied,WhenApplied
inertial-6286.188861:estLinearAccelX,Timeseries,100Hz,,,,,,
inertial-6286.188861:estLinearAccelX:valid,ValidFlag,100Hz,,,,,,
inertial-6286.188861:estLinearAccelY,Timeseries,100Hz,,,,,,
inertial-6286.188861:estLinearAccelY:valid,ValidFlag,100Hz,,,,,,
inertial-6286.188861:estLinearAccelZ,Timeseries,100Hz,,,,,,
inertial-6286.188861:estLinearAccelZ:valid,ValidFlag,100Hz,,,,,,

DATA_START
Time,inertial-6286.188861:estLinearAccelX,inertial-6286.188861:estLinearAccelX:valid,inertial-6286.188861:estLinearAccelY,inertial-6286.188861:estLinearAccelY:valid,inertial-6286.188861:estLinearAccelZ,inertial-6286.188861:estLinearAccelZ:valid
1777497560269724928,-0.007542162667959929,1,0.03011622093617916,1,0.05263033136725426,1
1777497560279914496,-0.01204504538327456,1,0.02691120095551014,1,0.03220323845744133,1
1777497560290084096,-0.02393963746726513,1,0.008935457095503807,1,0.03893965482711792,1
1777497560300233728,-0.02680932357907295,1,-0.0001875798334367573,1,0.04096600785851479,1
1777497560310364160,-0.03275393322110176,1,-0.000810296565759927,1,0.05210015550255775,1
1777497560320474624,-0.03042107075452805,1,0.006481875665485859,1,0.04559957236051559,1
1777497560330565632,-0.02871927060186863,1,0.009225183166563511,1,0.03675543144345284,1
1777497560340636928,-0.02335505560040474,1,0.006041982211172581,1,0.05139953270554543,1
1777497560350688512,-0.01322830375283957,1,0.01183095201849937,1,0.03972222283482552,1
1777497560360725248,-0.008765058591961861,1,0.01734475418925285,1,0.05206796526908875,1
1777497560370745088,8.27935291454196e-05,1,0.01784389838576317,1,0.03316526859998703,1
1777497560380745728,0.003651078324764967,1,0.01236527878791094,1,0.0457688570022583,1
1777497560390955264,0.006722264923155308,1,0.0007484355010092258,1,0.04354910552501678,1
1777497560401373696,0.003804290667176247,1,-0.00960115808993578,1,0.0413489006459713,1
1777497560411771904,0.001697117113508284,1,-0.0124631617218256,1,0.04711706936359406,1
1777497560422149888,0.004866099450737238,1,-0.01214730367064476,1,0.03687015548348427,1
1777497560432508416,0.007654707413166761,1,-0.01426848396658897,1,0.03922431543469429,1
1777497560442847232,0.01468291506171227,1,-0.01186321116983891,1,0.04354067891836166,1
1777497560453165824,0.02009396068751812,1,-0.00704194325953722,1,0.04552147537469864,1
1777497560463464192,0.02389763481914997,1,-0.007736766245216131,1,0.03829499334096909,1
1777497560473742848,0.02558715268969536,1,-0.001450837124139071,1,0.04151384904980659,1
1777497560484001536,0.02502263523638248,1,0.002681195503100753,1,0.04374690353870392,1
1777497560494240256,0.02117562852799892,1,0.001612130785360932,1,0.04081018641591072,1
1777497560504459008,0.01457692123949528,1,0.00133213703520596,1,0.03808840736746788,1
1777497560514658304,0.005251558963209391,1,-0.004749685991555452,1,0.04199200868606567,1
1777497560524837632,-0.003543740138411522,1,-0.01072598900645971,1,0.04150557145476341,1
1777497560534996992,-0.01051159761846066,1,-0.0153643311932683,1,0.04394251108169556,1
1777497560545136896,-0.01723112165927887,1,-0.0105558019131422,1,0.04182601720094681,1
1777497560555256832,-0.01727066934108734,1,-0.005353453569114208,1,0.03965931013226509,1
1777497560565357056,-0.01438801363110542,1,0.00236251438036561,1,0.04323064535856247,1
1777497560575437824,-0.008643472567200661,1,0.008447129279375076,1,0.04266409575939178,1
1777497560585502464,-0.004256631713360548,1,0.01496485993266106,1,0.04655260592699051,1
1777497560595550208,0.0005181136075407267,1,0.02454304322600365,1,0.04312548786401749,1
1777497560605578240,0.001941773458383977,1,0.02225708216428757,1,0.04425229504704475,1
1777497560615586816,0.001804998842999339,1,0.01785574480891228,1,0.04172612354159355,1
1777497560625576192,0.0003462138993199915,1,0.01092175394296646,1,0.04455365240573883,1
1777497560635778816,-0.001827902626246214,1,0.003602791577577591,1,0.04010606929659843,1
1777497560646194432,-0.003453889861702919,1,-0.005122263450175524,1,0.04225213825702667,1
1777497560656589824,-0.005120658315718174,1,-0.01195985171943903,1,0.04122038930654526,1
1777497560666965248,-0.003214974422007799,1,-0.0157153382897377,1,0.04324113950133324,1
1777497560677320448,-0.003420654218643904,1,-0.01403896231204271,1,0.04441520944237709,1
1777497560687655936,6.851783837191761e-05,1,-0.009700104594230652,1,0.04388471692800522,1
1777497560697971200,0.003369118552654982,1,-0.003716846462339163,1,0.0418814904987812,1
1777497560708268288,0.009588385932147503,1,0.002756135072559118,1,0.04562120512127876,1
1777497560718545664,0.01430069375783205,1,0.009337101131677628,1,0.04428140446543694,1
1777497560728803072,0.01691228523850441,1,0.01142790913581848,1,0.04676170647144318,1
1777497560739040768,0.01748845167458057,1,0.007383674383163452,1,0.04524438828229904,1
1777497560749258752,0.01289975456893444,1,0.0005942615680396557,1,0.0436243861913681,1
1777497560759456768,0.005454317666590214,1,-0.006394076161086559,1,0.03906076028943062,1
1777497560769635072,-0.001755915116518736,1,-0.01357642561197281,1,0.03988019749522209,1
1777497560779793152,-0.004518782719969749,1,-0.01873797178268433,1,0.04182877391576767,1
1777497560789932288,-0.005020789802074432,1,-0.01588397845625877,1,0.04081933200359344,1
1777497560800051712,-0.004991443827748299,1,-0.008192539215087891,1,0.03999152779579163,1
1777497560810151424,-0.00476814853027463,1,-0.00223810994066298,1,0.04181071370840073,1
1777497560820231424,-0.002899386687204242,1,0.00423160009086132,1,0.04116486385464668,1
1777497560830291712,-0.00119413947686553,1,0.00949967373162508,1,0.04397530108690262,1
1777497560840332800,-0.0004463988007046282,1,0.01611964590847492,1,0.04361983388662338,1
1777497560850353920,8.267995872301981e-05,1,0.01782500185072422,1,0.04268614947795868,1
1777497560860355584,-0.001299666706472635,1,0.0183611772954464,1,0.04495210573077202,1
1777497560870339072,-0.004456246271729469,1,0.01583525165915489,1,0.04153432324528694,1
1777497560880303360,-0.009305287152528763,1,0.01022956240922213,1,0.04292948171496391,1
1777497560890717952,-0.01230303198099136,1,0.004010525066405535,1,0.04127398505806923,1
1777497560901112832,-0.01323133707046509,1,-0.003217183519154787,1,0.04316875338554382,1
1777497560911487232,-0.01080071926116943,1,-0.007897687144577503,1,0.04182097688317299,1
1777497560921841664,-0.008115057833492756,1,-0.009535254910588264,1,0.04142354056239128,1
1777497560932175872,-0.004178246483206749,1,-0.00526203028857708,1,0.04280954971909523,1
1777497560942489856,0.0008144757011905313,1,-0.0028129902202636,1,0.04226536303758621,1
1777497560952783872,0.006918320432305336,1,0.002430927939713001,1,0.04472262039780617,1
1777497560963059712,0.01030478067696095,1,0.009188555181026459,1,0.04577163234353065,1
1777497560973315328,0.01419095229357481,1,0.01205415464937687,1,0.04405760765075684,1
1777497560983550720,0.01613625511527061,1,0.009411150589585304,1,0.04803531616926193,1
1777497560993766400,0.0157866608351469,1,0.002914631040766835,1,0.04239697754383087,1
1777497561003962368,0.01005222368985415,1,-0.001058711437508464,1,0.04429556801915169,1
1777497561014138368,0.006670593749731779,1,-0.006079097278416157,1,0.04319704324007034,1
1777497561024294400,0.001253240508958697,1,-0.01458640769124031,1,0.03579503297805786,1
1777497561034430720,-0.002244411734864116,1,-0.0178837887942791,1,0.0451994352042675,1
1777497561044547840,-0.0008245636126957834,1,-0.01882167719304562,1,0.03895664215087891,1
1777497561054644736,0.0007663490250706673,1,-0.02099492773413658,1,0.04090031236410141,1
1777497561064722432,0.002911954885348678,1,-0.01579170860350132,1,0.04028311371803284,1
1777497561074780416,0.004590725991874933,1,-0.008064236491918564,1,0.04053974896669388,1
1777497561084818688,0.006621369160711765,1,-0.002213892294093966,1,0.04228688403964043,1
1777497561094837504,0.007944493554532528,1,0.003938179463148117,1,0.04414574429392815,1
1777497561104836864,0.007885418832302094,1,0.01002896297723055,1,0.04342192411422729,1
1777497561114816512,0.003864515572786331,1,0.01198737416416407,1,0.04337878525257111,1
1777497561124777728,0.002135813469067216,1,0.01084287744015455,1,0.03905785083770752,1
1777497561134952192,-0.002631708746775985,1,0.00653024623170495,1,0.04561028257012367,1
1777497561145339648,-0.006223042495548725,1,-0.0001426783856004477,1,0.04052451252937317,1
1777497561155706880,-0.007814543321728706,1,-0.001029629842378199,1,0.04494611546397209,1
1777497561166054912,-0.009758577682077885,1,0.001760292565450072,1,0.04283183440566063,1
1777497561176382720,-0.01065585762262344,1,0.003979992587119341,1,0.04504069685935974,1
1777497561186690816,-0.0100693367421627,1,0.005005298182368279,1,0.042681984603405,1
1777497561196978688,-0.004853266756981611,1,0.007828783243894577,1,0.04281093552708626,1
1777497561207247104,-0.004938055295497179,1,0.009508646093308926,1,0.04173968732357025,1
1777497561217495552,-0.006064271554350853,1,0.009229861199855804,1,0.04153509438037872,1
1777497561227724288,-0.005985181778669357,1,0.004921733867377043,1,0.04558588936924934,1
1777497561237933312,-0.004033118952065706,1,0.004780593793839216,1,0.04802808165550232,1
1777497561248123392,-0.0004475761379580945,1,0.005104272160679102,1,0.03812424093484879,1
1777497561258293504,-0.001118741231039166,1,0.003794422373175621,1,0.0464821569621563,1
1777497561268446720,0.0005776252364739776,1,-0.001763074425980449,1,0.0438142828643322,1
1777497561278580992,-0.001988597679883242,1,-0.005727233830839396,1,0.04192127287387848,1
1777497561288695296,-0.001352593302726746,1,-0.003118310123682022,1,0.04565447568893433,1
1777497561298789888,0.00069735839497298,1,-0.002644240856170654,1,0.03727863729000092,1
1777497561308865280,0.001338421134278178,1,-0.0006784756551496685,1,0.04647348821163177,1
1777497561318921216,0.005118537694215775,1,0.001160727231763303,1,0.04385660961270332,1
1777497561328957184,0.007451884914189577,1,0.003774046199396253,1,0.04390348121523857,1
1777497561338973696,0.006811088882386684,1,0.005787306930869818,1,0.04213713854551315,1
1777497561348971264,0.004630401264876127,1,0.001155349891632795,1,0.0385436937212944,1
1777497561358949376,0.0045372792519629,1,-0.005818643607199192,1,0.04217833653092384,1
1777497561368908032,0.002817641478031874,1,-0.006985560990869999,1,0.04158224537968636,1
1777497561379077376,0.01273298636078835,1,0.006807119585573673,1,0.03354958817362785,1
1777497561389456896,-0.002085196785628796,1,0.002163910306990147,1,0.0995083749294281,1
1777497561399816448,0.002606402616947889,1,0.001660788897424936,1,-0.02810315042734146,1
1777497561410155520,-0.01005854178220034,1,-0.02238751761615276,1,0.08474262058734894,1
1777497561420474880,0.02011013031005859,1,-0.005620945245027542,1,-0.006145895458757877,1
1777497561430775040,-0.005341232288628817,1,-0.02347776107490063,1,0.06401350349187851,1
1777497561441054976,0.01347867213189602,1,-0.03211772814393044,1,0.04025562107563019,1
1777497561451314944,-0.003281860845163465,1,-0.01275095716118813,1,0.03448750451207161,1
1777497561461555968,-0.01136176846921444,1,0.00713376235216856,1,0.05145470052957535,1
1777497561471777280,-0.02063120529055595,1,0.0207450445741415,1,-0.004045167937874794,1
1777497561481978368,-0.01924692839384079,1,-0.003488293616101146,1,0.1000476628541946,1
1777497561492159744,0.01085780840367079,1,0.02086523175239563,1,0.03387618064880371,1
1777497561502322432,-0.006527566350996494,1,0.05200105533003807,1,0.06675770133733749,1
1777497561512465152,0.010041618719697,1,0.03242459520697594,1,0.008267650380730629,1
1777497561522588416,0.009179724380373955,1,0.01173104532063007,1,0.05048422515392303,1
1777497561532691968,-0.01247401814907789,1,-0.01428739633411169,1,0.0707583948969841,1
1777497561542775552,-0.02443552576005459,1,0.0108592938631773,1,0.008373212069272995,1
1777497561552842240,-0.02499306388199329,1,-0.01529452856630087,1,0.03416389226913452,1
1777497561562892544,-0.002803723094984889,1,-0.008365299552679062,1,0.08641445636749268,1
1777497561572923392,-0.01741359755396843,1,-0.01618264988064766,1,-0.0001761091407388449,1
1777497561582934784,-0.003445109585300088,1,-0.03742922842502594,1,0.06765856593847275,1
1777497561592926976,-0.001286710379645228,1,0.000647508364636451,1,0.01248908881098032,1
1777497561602899968,-0.005976968444883823,1,-0.02891332656145096,1,0.08113165199756622,1
1777497561612853504,0.0101197836920619,1,0.001959662651643157,1,-0.005173987708985806,1
1777497561623017216,0.007368795573711395,1,0.01097939349710941,1,0.09701626747846603,1
1777497561633390592,0.02924718335270882,1,0.02206347323954105,1,0.02034936472773552,1
1777497561643744000,0.02132627740502357,1,0.03409641981124878,1,0.03730975091457367,1
1777497561654077952,0.02836120128631592,1,0.008111470378935337,1,0.06521354615688324,1
1777497561664392192,0.01779327541589737,1,-0.00689729442819953,1,0.02670281939208508,1
1777497561674686720,0.008820783346891403,1,-0.01480567269027233,1,0.04158186167478561,1
1777497561684961280,-0.0138721838593483,1,-0.01801438443362713,1,0.03266458585858345,1
1777497561695216128,-0.007935101166367531,1,-0.02689388394355774,1,0.03443700075149536,1
1777497561705451264,-0.001148348907008767,1,-0.02490329556167126,1,0.06250660121440887,1
1777497561715666432,1.354271080344915e-05,1,0.01100567076355219,1,0.05310492590069771,1
1777497561725861632,0.002440707525238395,1,0.004211049992591143,1,0.02027713879942894,1
1777497561736037120,0.002356657991185784,1,-0.003940501250326633,1,0.04810478910803795,1
1777497561746194688,-0.002037764526903629,1,-0.001977040665224195,1,0.04560377448797226,1
1777497561756334080,-0.009123340249061584,1,-0.0007904116064310074,1,0.04379427060484886,1
1777497561766454016,0.001236204523593187,1,0.02439019829034805,1,0.020353764295578,1
1777497561776554496,-0.0002654858399182558,1,0.01845026202499866,1,0.08300070464611053,1
1777497561786636288,0.006995400413870811,1,0.0153589490801096,1,0.01319685578346252,1
1777497561796699648,-0.004977825097739697,1,0.01644573360681534,1,0.06807179003953934,1
1777497561806745088,-0.007862644270062447,1,0.00169683899730444,1,0.03288941830396652,1
1777497561816772864,-0.0110528701916337,1,-0.02026480808854103,1,0.03621698170900345,1
1777497561826781440,-0.01256552897393703,1,-0.01929260790348053,1,0.0512831062078476,1
1777497561836771072,-0.007844120264053345,1,-0.01167710218578577,1,0.03597723320126534,1
1777497561846741248,-0.004690664354711771,1,0.003844927763566375,1,0.04319297894835472,1
1777497561856691968,0.002006857190281153,1,0.01669102534651756,1,0.04521717876195908,1
1777497561866853376,0.002093788934871554,1,0.01280695572495461,1,0.04556624218821526,1
1777497561877225216,0.001715026330202818,1,0.01084031164646149,1,0.04866186156868935,1
1777497561887576832,0.000197115441551432,1,0.01000335533171892,1,0.04200353473424911,1
1777497561897908224,-0.0009537112200632691,1,0.00364757189527154,1,0.03440742567181587,1
1777497561908220928,-0.000698534888215363,1,9.7062555141747e-05,1,0.04164264723658562,1
1777497561918513152,-0.001773154363036156,1,-0.006214640568941832,1,0.05496354773640633,1
1777497561928785664,-0.0003376524255145341,1,-0.006317014340311289,1,0.03722700476646423,1
1777497561939038208,-0.003796024713665247,1,-0.0045336470939219,1,0.04696834832429886,1
1777497561949271040,-0.001829939661547542,1,-0.01300179120153189,1,0.03894218057394028,1
1777497561959483904,0.0003779364633373916,1,-0.01583685725927353,1,0.04081688076257706,1
1777497561969676800,0.003746147500351071,1,-0.0110312458127737,1,0.04540314525365829,1
1777497561979849984,0.00702662905678153,1,-0.001055903267115355,1,0.03419161587953568,1
1777497561990003968,0.01094720419496298,1,0.005716568790376186,1,0.04535562172532082,1
1777497562000137984,0.01324343588203192,1,0.008072521537542343,1,0.05292173847556114,1
1777497562010252544,0.01324140746146441,1,0.01341872289776802,1,0.04048706591129303,1
1777497562020347392,0.009189561940729618,1,0.01617920584976673,1,0.04440853372216225,1
1777497562030422528,0.003991738427430391,1,0.008031874895095825,1,0.03813773393630981,1
1777497562040477952,-0.002444730838760734,1,-0.00714424904435873,1,0.04237356036901474,1
1777497562050513920,-0.005877568852156401,1,-0.01077504269778728,1,0.04707141220569611,1
1777497562060530432,-0.008787432685494423,1,-0.01108777895569801,1,0.03878598287701607,1
1777497562070533376,-0.01162764802575111,1,-0.01108637172728777,1,0.04273462668061256,1
1777497562080516608,-0.01089994702488184,1,-0.01311425492167473,1,0.04466672241687775,1
1777497562090480384,-0.009058087132871151,1,-0.00935974158346653,1,0.04307642206549644,1
1777497562100424960,-0.005889815744012594,1,0.0008159746648743749,1,0.04173127934336662,1
1777497562110350080,-0.001898206770420074,1,0.007052867207676172,1,0.04075651615858078,1
1777497562120716288,0.0008987445617094636,1,0.006715644616633654,1,0.04275976493954659,1
1777497562131062528,0.00279613328166306,1,0.009778601117432117,1,0.04684911295771599,1
1777497562141388800,0.004581412766128778,1,0.0144675662741065,1,0.04636187851428986,1
1777497562151695104,0.003763816319406033,1,0.01420399453490973,1,0.04524672776460648,1
1777497562161980672,0.000702631426975131,1,0.006915182806551456,1,0.04692719504237175,1
1777497562172246528,-0.0009491711389273405,1,-0.001061852090060711,1,0.04437642171978951,1
1777497562182492416,-0.004760765470564365,1,-0.00440961541607976,1,0.04334428533911705,1
1777497562192720128,-0.005875773262232542,1,-0.007379263173788786,1,0.03846925124526024,1
1777497562202927872,-0.005978918634355068,1,-0.01065960060805082,1,0.03867672011256218,1
1777497562213115648,-0.006754027679562569,1,-0.008998711593449116,1,0.04329179972410202,1
1777497562223283712,-0.006320787593722343,1,-0.004685977939516306,1,0.04134755581617355,1
1777497562233432576,-0.002792240586131811,1,0.001940748887136579,1,0.04083678126335144,1
1777497562243561216,0.0002494265499990433,1,0.003610597923398018,1,0.04500646889209747,1
1777497562253670400,0.00195188052020967,1,0.001009090337902308,1,0.04424380138516426,1
1777497562263759616,0.001666958210989833,1,0.00200517033226788,1,0.04639419913291931,1
1777497562273829888,0.003387245116755366,1,0.004673056770116091,1,0.04337680339813232,1
1777497562283880448,0.002953253919258714,1,-0.0009438846609555185,1,0.04025764390826225,1
1777497562293911296,0.00190216745249927,1,-0.004726285114884377,1,0.04160642251372337,1
1777497562303922944,0.002800941001623869,1,-0.009081793017685413,1,0.0423479899764061,1
1777497562313914880,0.001876338734291494,1,-0.006865639705210924,1,0.03981882706284523,1
1777497562323887360,0.0007068664417602122,1,-0.005191384814679623,1,0.04016850143671036,1
1777497562333840384,0.0009609668049961329,1,-0.008606658317148685,1,0.04140356928110123,1
1777497562343773952,0.001212800736539066,1,-0.005143942311406136,1,0.04656529426574707,1
1777497562353689856,0.00241240905597806,1,0.001274347654543817,1,0.04287512227892876,1
1777497562364057600,0.0005794030148535967,1,0.007467485498636961,1,0.04126953333616257,1
1777497562374405632,0.002892943331971765,1,0.004768551792949438,1,0.04291210696101189,1
1777497562384733440,0.001274451962672174,1,0.00281573785468936,1,0.0463104136288166,1
1777497562395041536,0.0005121767171658576,1,0.003663820214569569,1,0.04397056251764297,1
1777497562405330688,-0.0003487753856461495,1,0.002180554438382387,1,0.04204484820365906,1
1777497562415599872,-0.004285805858671665,1,-0.002824463415890932,1,0.04147623106837273,1
1777497562425849088,-0.006704829167574644,1,-0.007361705414950848,1,0.04170495271682739,1
1777497562436078592,-0.008730440400540829,1,-0.006674394011497498,1,0.04027232900261879,1
1777497562446288640,-0.007724466733634472,1,-0.005851146299391985,1,0.04063436761498451,1
1777497562456479232,-0.005046539008617401,1,-0.002597019542008638,1,0.04089249297976494,1
1777497562466649856,-0.00115100375842303,1,0.0003395291860215366,1,0.03981097787618637,1
1777497562476800512,0.002552308142185211,1,0.001727807917632163,1,0.04170143231749535,1
1777497562486932480,0.003115308936685324,1,0.006875468883663416,1,0.0423385314643383,1
1777497562497046016,0.005853811278939247,1,0.007170453201979399,1,0.04132011905312538,1
1777497562507140864,0.004878493957221508,1,0.004747558385133743,1,0.04344173520803452,1
1777497562517216000,0.00334127014502883,1,0.003128328593447804,1,0.04440392181277275,1
1777497562527271680,0.002343975938856602,1,0.001330901402980089,1,0.03981117904186249,1
1777497562537307648,0.0003954137209802866,1,-0.001963312970474362,1,0.04034968465566635,1
1777497562547324160,-0.00192811549641192,1,-0.00547500979155302,1,0.04005900025367737,1
1777497562557320448,-0.003241843776777387,1,-0.007218145299702883,1,0.04213713854551315,1
1777497562567297280,-0.004095546901226044,1,-0.005461615044623613,1,0.03986656293272972,1
1777497562577254912,-0.0053521110676229,1,-0.003909680526703596,1,0.04027152433991432,1
1777497562587193088,-0.003897825255990028,1,-0.003111578058451414,1,0.04077299684286118,1
1777497562597111808,4.664703737944365e-06,1,-0.000375753705156967,1,0.04006695747375488,1
1777497562607242496,0.00113665487151593,1,0.005212741903960705,1,0.04215964674949646,1
1777497562617585152,0.003124923445284367,1,0.006121842656284571,1,0.04211509227752686,1
1777497562627907840,0.004660027101635933,1,0.004747515544295311,1,0.04441448301076889,1
1777497562638211072,0.005227247253060341,1,0.001900678733363748,1,0.04212641716003418,1
1777497562648494592,0.001737207057885826,1,0.001255944254808128,1,0.04225312545895576,1
1777497562658758400,0.000433734297985211,1,0.0008469815948046744,1,0.04177219793200493,1
1777497562669002240,0.001126020564697683,1,-0.001788163208402693,1,0.04015479981899261,1
1777497562679226368,-0.002111439593136311,1,-0.004981395322829485,1,0.0425596572458744,1
1777497562689430784,-0.004337527323514223,1,-0.005545065272599459,1,0.04002302139997482,1
1777497562699615232,-0.005269742105156183,1,-0.002917354227975011,1,0.04092658311128616,1
1777497562709779712,-0.004401146899908781,1,-0.001303857890889049,1,0.04106024280190468,1
1777497562719926784,-0.001963345101103187,1,-0.0002551525831222534,1,0.0420856773853302,1
1777497562730055936,-9.596391464583576e-05,1,0.003228016197681427,1,0.0423106923699379,1
1777497562740165120,-0.0004707063490059227,1,0.005020052194595337,1,0.04198301583528519,1
1777497562750255360,-0.0001568800507811829,1,0.004517180379480124,1,0.04289763048291206,1
1777497562760326144,0.00140779372304678,1,0.001319580245763063,1,0.0447189062833786,1
1777497562770377472,-0.001869297819212079,1,0.0006812079227529466,1,0.04420954361557961,1
1777497562780409344,-0.001489813672378659,1,0.0001432455173926428,1,0.04539654776453972,1
1777497562790421504,-0.001590026076883078,1,-0.001274717738851905,1,0.04017295315861702,1
1777497562800414464,-0.002045184606686234,1,-0.003398580243811011,1,0.04275180026888847,1
1777497562810388480,0.00022717154934071,1,-0.006038385443389416,1,0.04085723310709,1
1777497562820342784,0.0001927763660205528,1,-0.001954850740730762,1,0.04503462463617325,1
1777497562830277888,0.001764225191436708,1,0.0003223229723516852,1,0.04348155856132507,1
1777497562840193792,-0.0001665859890636057,1,0.0006508477963507175,1,0.0442219004034996,1
1777497562850320896,0.0008350746938958764,1,0.003981067799031734,1,0.04479433968663216,1
1777497562860658176,4.511064616963267e-05,1,0.003377520246431231,1,0.04027059301733971,1
1777497562870975488,-0.002395787741988897,1,0.004252248909324408,1,0.04222100600600243,1
1777497562881273088,-0.001539692049846053,1,0.001283285208046436,1,0.04504057765007019,1
1777497562891550208,0.0009608973050490022,1,-0.00108000636100769,1,0.04498041048645973,1
1777497562901808896,-4.232383798807859e-05,1,-0.0009035137481987476,1,0.04281920939683914,1
1777497562912047616,-0.0009189933771267533,1,-0.003303674282506108,1,0.04286166280508041,1
1777497562922266624,-0.004049391020089388,1,-0.006071578711271286,1,0.04525608569383621,1
1777497562932465408,-0.0005531708593480289,1,-0.005376607645303011,1,0.04334243759512901,1
1777497562942644992,0.001131818629801273,1,-0.00402173912152648,1,0.04335492104291916,1
1777497562952804608,0.001236025826074183,1,-0.0002058406971627846,1,0.04370873793959618,1
1777497562962943744,0.002253520535305142,1,0.002450638916343451,1,0.04090840741991997,1
1777497562973063168,0.004025929607450962,1,0.00461887801066041,1,0.04211686551570892,1
1777497562983163136,0.002774873049929738,1,0.003949325531721115,1,0.04092717915773392,1
1777497562993243136,0.002335961908102036,1,0.003286189632490277,1,0.04361717030405998,1
1777497563003303424,0.001486857188865542,1,-0.0003623698721639812,1,0.04248447343707085,1
1777497563013344000,0.0004861908964812756,1,-0.0008375775068998337,1,0.04175996407866478,1
1777497563023365376,-0.001649859710596502,1,-0.002948382869362831,1,0.04453801363706589,1
1777497563033366784,-0.001964186085388064,1,-0.002218772191554308,1,0.04357699677348137,1
1777497563043348736,-0.0002779265632852912,1,-0.001321314484812319,1,0.04184229671955109,1
1777497563053310976,-0.001227240078151226,1,-0.002055763499811292,1,0.04240378364920616,1
1777497563063254528,-0.002378799021244049,1,-0.001272263121791184,1,0.04224993288516998,1
1777497563073178624,-0.001284064608626068,1,-0.0001367561635561287,1,0.03924228623509407,1
1777497563083083520,0.001445703557692468,1,0.002809197874739766,1,0.04057539999485016,1
1777497563093202432,0.002547968178987503,1,0.002951841335743666,1,0.04230238124728203,1
1777497563103535616,0.002458773553371429,1,0.001854383037425578,1,0.04424002766609192,1
1777497563113848576,0.003322854405269027,1,0.001418037340044975,1,0.04216540977358818,1
1777497563124141824,0.00199432298541069,1,-0.0001540512021165341,1,0.04427649825811386,1
1777497563134416128,0.0001442194479750469,1,-0.0006203055381774902,1,0.04090432822704315,1
1777497563144670720,0.0004338952130638063,1,-0.002443629549816251,1,0.04394494369626045,1
1777497563154905344,-0.0008482665289193392,1,-0.002861055778339505,1,0.04156409204006195,1
1777497563165120000,-0.001231662579812109,1,-0.002063549589365721,1,0.04611897096037865,1
1777497563175315200,1.144303041655803e-05,1,-0.002304445020854473,1,0.04381022974848747,1
1777497563185490432,-0.001355853397399187,1,-0.0006514399428851902,1,0.04599107429385185,1
1777497563195645440,0.001303325523622334,1,-0.001641252660192549,1,0.04597928002476692,1
1777497563205780992,-0.0007327527273446321,1,0.001210384769365191,1,0.04343337938189507,1
1777497563215897344,0.0002442359109409153,1,-0.002222821116447449,1,0.04333951324224472,1
1777497563225993728,-0.002991973655298352,1,-0.0008042155532166362,1,0.04355969652533531,1
1777497563236070656,-0.001520891673862934,1,-0.001102788839489222,1,0.04417001456022263,1
1777497563246127872,-0.001970542594790459,1,-0.002661666600033641,1,0.04328276216983795,1
1777497563256167936,-0.0009921123273670673,1,-0.003798217279836535,1,0.04545963183045387,1
1777497563266190336,-0.002289760857820511,1,-0.005669919773936272,1,0.04375367611646652,1
1777497563276193536,-0.0005045825382694602,1,-0.004664067644625902,1,0.04287831857800484,1
1777497563286177536,-0.001366857439279556,1,-0.003226561937481165,1,0.0424925722181797,1
1777497563296142336,-0.001214791322126985,1,7.41216354072094e-05,1,0.04374290630221367,1
1777497563306087936,-0.000637854915112257,1,0.001543559483252466,1,0.04323878884315491,1
1777497563316014080,0.002344647422432899,1,0.001101328991353512,1,0.04251634329557419,1
1777497563325920768,0.003439439227804542,1,0.0006735894712619483,1,0.04216134175658226,1
1777497563336038400,0.0007800788152962923,1,0.00163927604444325,1,0.0419609434902668,1
1777497563346366720,-0.0004531985032372177,1,-0.0003385960590094328,1,0.04013622179627419,1
1777497563356675584,-0.0006787637248635292,1,-0.0005355706671252847,1,0.04318774864077568,1
1777497563366964224,-0.0007551352609880269,1,-0.002579167019575834,1,0.04256075993180275,1
1777497563377233152,-0.003066298551857471,1,-0.002219479531049728,1,0.04313670471310616,1
1777497563387482112,-0.002720983000472188,1,-0.003405378432944417,1,0.04008108004927635,1
1777497563397711360,-0.006007014773786068,1,-0.002877047983929515,1,0.04066010192036629,1
1777497563407920640,-0.004084554966539145,1,-0.003445069538429379,1,0.03912489861249924,1
1777497563418109952,-0.002352697774767876,1,-0.001946436008438468,1,0.04174244403839111,1
1777497563428279552,0.001295494730584323,1,0.000145139783853665,1,0.04302874207496643,1
1777497563438431744,0.002715361304581165,1,0.001328753074631095,1,0.04693249613046646,1
1777497563448566272,0.002369572874158621,1,0.000356149161234498,1,0.04388491436839104,1
1777497563458682112,0.002655305434018373,1,0.001479028956964612,1,0.04388438165187836,1
1777497563468777984,0.0004843579954467714,1,0.003259158926084638,1,0.04293927550315857,1
1777497563478854912,0.0001264931634068489,1,0.002305466681718826,1,0.04305300861597061,1
1777497563488912128,-0.001257352880202234,1,0.003842935664579272,1,0.04561974480748177,1
1777497563498949632,-0.002622363390401006,1,0.001752660609781742,1,0.04219245538115501,1
1777497563508967680,-0.003056827466934919,1,-0.002608127892017365,1,0.04457239806652069,1
1777497563518967296,-0.003655729815363884,1,-0.000660609919577837,1,0.0423450693488121,1
1777497563528947200,-0.004531408194452524,1,-0.0008775931200943887,1,0.04337813705205917,1
1777497563538908160,-0.001523655140772462,1,-0.0001600512769073248,1,0.0410485565662384,1
1777497563548849664,-0.001708790892735124,1,-0.001110784243792295,1,0.04370063543319702,1
1777497563558771712,0.001577951479703188,1,0.0004073117743246257,1,0.04485129565000534,1
1777497563568674816,-0.0006220808136276901,1,0.001823449740186334,1,0.04495897889137268,1
1777497563578790912,0.0002641725004650652,1,0.0005984113086014986,1,0.04267488420009613,1
1777497563589120000,-0.0004818647284992039,1,0.00181658985093236,1,0.0442456416785717,1
1777497563599429120,-0.0002906292502302676,1,0.00110543891787529,1,0.04254240915179253,1
1777497563609718528,-0.002452927641570568,1,-6.534479325637221e-06,1,0.04173924773931503,1
1777497563619988224,-0.00234725046902895,1,0.000745743396691978,1,0.04301345720887184,1
1777497563630239232,-0.001273863832466304,1,-0.00101473240647465,1,0.04365869238972664,1
1777497563640470528,0.0002982454607263207,1,-0.0006582158384844661,1,0.04237193241715431,1
1777497563650682112,-0.0001718838466331363,1,-0.002045144094154239,1,0.04692492261528969,1
1777497563660873728,0.0008063283748924732,1,-0.001667876029387116,1,0.04674530774354935,1
1777497563671046144,-0.0007636566879227757,1,0.000180273738806136,1,0.04503434151411057,1
1777497563681198848,-0.000486362783703953,1,0.001631788560189307,1,0.0416104644536972,1
1777497563691331840,-0.001639831461943686,1,0.001312173320911825,1,0.04115266725420952,1
1777497563701445120,-0.002499129856005311,1,0.0008516123052686453,1,0.04164846614003181,1
1777497563711539456,-0.001333031570538878,1,-0.000857997452840209,1,0.04117831587791443,1
1777497563721614336,-0.001796718453988433,1,0.0003949823440052569,1,0.04024225100874901,1
1777497563731669504,-0.0007453042780980468,1,-0.001249041175469756,1,0.04262505099177361,1
1777497563741705216,-0.0004566368297673762,1,0.001224157400429249,1,0.04280433431267738,1
1777497563751721472,-0.0002772067382466048,1,6.666806439170614e-05,1,0.04230698198080063,1
1777497563761718272,-0.001225329819135368,1,4.451011773198843e-05,1,0.04388172924518585,1
1777497563771695616,0.001981936627998948,1,0.0009867592016234994,1,0.04343467578291893,1
1777497563781653760,0.001493690302595496,1,0.002960679354146123,1,0.04271011054515839,1
1777497563791600896,0.000507175805978477,1,0.002979883458465338,1,0.04492591693997383,1
1777497563801528832,-0.0003755393554456532,1,0.001256425864994526,1,0.03981407359242439,1
1777497563811437824,0.000458001100923866,1,0.00164546724408865,1,0.04372299835085869,1
1777497563821327616,0.0003618448972702026,1,0.0007289925124496222,1,0.04219882935285568,1
1777497563831660544,-0.001033867825753987,1,0.0006152878631837666,1,0.04259699955582619,1
1777497563841973760,-0.0007536689518019557,1,0.001073907595127821,1,0.04481082409620285,1
1777497563852267264,-0.001696077873930335,1,-0.002088898094370961,1,0.04347746446728706,1
1777497563862540544,-0.002192883519455791,1,-0.002537146443501115,1,0.04467178136110306,1
1777497563872793856,-0.001076709246262908,1,-0.002601409563794732,1,0.04268275201320648,1
1777497563883027456,-0.003007791237905622,1,-0.00258032395504415,1,0.04384004324674606,1
1777497563893243136,0.0002228059165645391,1,-0.00229093455709517,1,0.04161863401532173,1
1777497563903439360,0.0008240537135861814,1,-0.001683509210124612,1,0.0428420677781105,1
1777497563913616128,0.001093749655410647,1,-0.0005420229281298816,1,0.04293220862746239,1
1777497563923772928,0.0004317627171985805,1,0.002455818699672818,1,0.04298567771911621,1
1777497563933910272,0.002368516521528363,1,0.003117791842669249,1,0.04389872029423714,1
1777497563944028416,0.00170887797139585,1,0.002451656619086862,1,0.0407920815050602,1
1777497563954126592,0.001419463194906712,1,0.003399502253159881,1,0.0429912768304348,1
1777497563964206080,-0.0005062874988652766,1,0.001535738469101489,1,0.04222264513373375,1
1777497563974266880,-0.001805954263545573,1,0.0009266688721254468,1,0.04308674484491348,1
1777497563984307968,0.0003486625791992992,1,0.0003313222550787032,1,0.04384355247020721,1
1777497563994329600,0.0003836525429505855,1,0.0006709283334203064,1,0.04334868118166924,1
1777497564004332288,-0.0007239796686917543,1,-0.000435620837379247,1,0.0444842129945755,1
1777497564014315776,-0.0003910671803168952,1,-0.002207627287134528,1,0.04212948307394981,1
1777497564024279808,-0.001082899747416377,1,-0.002166022313758731,1,0.04267232865095139,1
1777497564034224384,-0.0003025548940058798,1,-0.001921958522871137,1,0.0443742498755455,1
1777497564044149504,-0.0008233238477259874,1,-0.001834148308262229,1,0.04234756529331207,1
1777497564054057216,-0.002316372003406286,1,-0.002716266550123692,1,0.04345791041851044,1
1777497564063945472,-0.001638138433918357,1,-0.00131709489505738,1,0.0408673882484436,1
1777497564074044672,-0.002324124332517385,1,-0.0005943551659584045,1,0.04177198559045792,1
1777497564084353792,-0.00350378337316215,1,5.091281491331756e-05,1,0.04116207733750343,1
1777497564094642944,-0.002471081679686904,1,0.0004083818639628589,1,0.0409935787320137,1
1777497564104913408,-0.002680366858839989,1,-0.002434085356071591,1,0.04330683127045631,1
1777497564115163904,-0.002365716500207782,1,-0.002264213981106877,1,0.04286064580082893,1
1777497564125394944,-0.002070476533845067,1,-0.002173223067075014,1,0.04380073770880699,1
1777497564135606016,-0.0005166322807781398,1,-0.0006767940940335393,1,0.04308166354894638,1
1777497564145797632,0.0002472990308888257,1,-0.001309619517996907,1,0.04223258048295975,1
1777497564155969536,-0.0004161326796747744,1,-0.00170642661396414,1,0.04476745799183846,1
1777497564166123008,-0.0004777687136083841,1,-0.0004245445015840232,1,0.04477858543395996,1
1777497564176257792,-0.0004038677143398672,1,-0.002460157265886664,1,0.04336278513073921,1
1777497564186373120,0.0008195852860808372,1,-0.001489190850406885,1,0.04251999408006668,1
1777497564196468736,0.000219249224755913,1,0.0001931344741024077,1,0.04199730977416039,1
1777497564206545152,-0.001012728200294077,1,-0.001374036772176623,1,0.04296850040555,1
1777497564216602112,-0.001140826148912311,1,-0.001527033396996558,1,0.04363112524151802,1
1777497564226639616,-0.0003711694735102355,1,-0.001036432571709156,1,0.04259045422077179,1
1777497564236657664,-0.001856175949797034,1,-0.00014730982366018,1,0.04302455857396126,1
1777497564246656512,-0.001055378001183271,1,0.001302599906921387,1,0.04275840520858765,1
1777497564256636160,-7.32496046111919e-05,1,-0.0006162679637782276,1,0.04032576084136963,1
1777497564266596608,0.0008531356579624116,1,0.001965391682460904,1,0.04360783472657204,1
1777497564276537600,-0.002209552330896258,1,0.001174123026430607,1,0.04193811863660812,1
1777497564286459392,-0.000457605958217755,1,0.001730936230160296,1,0.04103459045290947,1
1777497564296361728,-0.001310723600909114,1,0.0009390196646563709,1,0.04283193126320839,1
1777497564306244864,-0.002282134024426341,1,-0.0006692426977679133,1,0.04282084107398987,1
1777497564316339456,-0.002578057115897536,1,-0.001342242932878435,1,0.04224579781293869,1
1777497564326645248,-0.002348801819607615,1,-0.002091073431074619,1,0.0441056452691555,1
1777497564336930816,-0.002876132261008024,1,-0.0005994347739033401,1,0.04286497458815575,1
1777497564347196672,-0.002590492134913802,1,0.0002119602868333459,1,0.04312628135085106,1
1777497564357442816,-0.0001471641735406592,1,-0.001338144647888839,1,0.04284553602337837,1
1777497564367668992,-0.002255825558677316,1,-2.352691080886871e-05,1,0.04218438267707825,1
1777497564377875456,-0.001505019492469728,1,-0.0009449257049709558,1,0.04286139085888863,1
1777497564388062464,0.00132078118622303,1,-0.0007885296363383532,1,0.04261665046215057,1
1777497564398230016,-0.0001890274579636753,1,-0.001060635317116976,1,0.04369065165519714,1
1777497564408377600,-0.001061410293914378,1,0.000377272954210639,1,0.04458503797650337,1
1777497564418505216,-0.0005988203920423985,1,0.0009277859935536981,1,0.04397866502404213,1
1777497564428614400,-0.001060887472704053,1,0.0005960104172118008,1,0.04670458287000656,1
1777497564438706432,-0.002620356623083353,1,-0.0006558567984029651,1,0.04602480307221413,1
1777497564448779008,1.324724871665239e-05,1,-0.0008243688498623669,1,0.04351945966482162,1
1777497564458831872,-0.001298966468311846,1,-0.002345283748582006,1,0.0447293259203434,1
1777497564468865280,-0.0006431768415495753,1,-0.002857631770893931,1,0.04419108480215073,1
1777497564478878976,-0.001579887582920492,1,-0.001362976734526455,1,0.04037625715136528,1
1777497564488873216,-0.0009410666534677148,1,-0.001746391644701362,1,0.04155657812952995,1
1777497564498848000,0.0008779038907960057,1,-0.001820521196350455,1,0.04190237075090408,1
1777497564508803328,-0.002510240999981761,1,-0.002658733865246177,1,0.04553714767098427,1
1777497564518739712,-0.003054399276152253,1,-0.001554838847368956,1,0.04539719223976135,1
1777497564528656384,-0.002286206465214491,1,-0.002533890074118972,1,0.04414616897702217,1
1777497564538553600,-0.002438898198306561,1,-0.0008916237857192755,1,0.0430326908826828,1
1777497564548431616,-0.002948306268081069,1,-0.0001755163393681869,1,0.04374015331268311,1
1777497564558521600,-0.003358070971444249,1,-0.0001674487139098346,1,0.04312562942504883,1
1777497564568823552,-0.002783243311569095,1,-0.002084305742755532,1,0.04291903600096703,1
1777497564579104768,-0.001419502077624202,1,-0.00332822441123426,1,0.04061866924166679,1
1777497564589366272,-0.001032144413329661,1,-0.002536472398787737,1,0.04301346093416214,1
1777497564599608576,-0.0005137887201271951,1,0.0002404365222901106,1,0.04124729707837105,1
1777497564609831168,-0.0003554358845576644,1,-0.00158925075083971,1,0.04438124597072601,1
1777497564620034048,-0.0005340198404155672,1,-0.0007349173538386822,1,0.04404648765921593,1
1777497564630217216,0.0003032573731616139,1,-0.001361938775517046,1,0.04508557915687561,1
1777497564640381440,7.665459634154104e-06,1,-0.002953031798824668,1,0.04093271121382713,1
1777497564650525952,-0.0005998639389872551,1,-0.003328000660985708,1,0.0423109233379364,1
1777497564660650752,-0.003388617420569062,1,-0.004143217578530312,1,0.04250648617744446,1
1777497564670755840,-0.001376006868667901,1,-0.00300130108371377,1,0.04246679693460464,1
1777497564680841984,-0.001493095885962248,1,-0.005078381393104792,1,0.04400438815355301,1
1777497564690908672,-0.002380304737016559,1,-0.004047191701829433,1,0.04334377497434616,1
1777497564700958976,-0.0006886423798277974,1,-0.001320912037044764,1,0.04512965306639671,1
1777497564710989568,-0.001526210573501885,1,-0.002041372237727046,1,0.04264723882079124,1
1777497564721000448,-0.00202307035215199,1,-0.00135625631082803,1,0.04244030639529228,1
1777497564730991872,-0.002360456390306354,1,0.001198139740154147,1,0.0419200100004673,1
1777497564740964096,-0.001442936831153929,1,4.166594590060413e-05,1,0.04466969519853592,1
1777497564750916608,-0.00199342449195683,1,0.0004443742800503969,1,0.04553687199950218,1
1777497564760849664,0.0002800761139951646,1,-0.0005528796464204788,1,0.04639270156621933,1
1777497564770763008,0.0003328217717353255,1,-0.002601455431431532,1,0.04296532273292542,1
1777497564780657664,-0.001749248243868351,1,-0.00138850137591362,1,0.04144404083490372,1
1777497564790532864,-0.002764811739325523,1,-0.0006984428036957979,1,0.04207642748951912,1
1777497564800620544,-0.003841491648927331,1,-0.001501974416896701,1,0.04232104495167732,1
1777497564810920704,-0.002183358650654554,1,-0.001160135609097779,1,0.04084367305040359,1
1777497564821200896,-0.00364189874380827,1,-0.001764842309057713,1,0.04112013429403305,1
1777497564831461120,-0.001264386577531695,1,-0.002728152321651578,1,0.04038122296333313,1
1777497564841701632,-0.0003051455423701555,1,-0.00281748897396028,1,0.04315955936908722,1
1777497564851921920,-0.0007413867278955877,1,-0.003017331473529339,1,0.04115264862775803,1
1777497564862123520,-0.0008462658151984215,1,-0.001132855424657464,1,0.04008900746703148,1
1777497564872307968,-0.001636087894439697,1,-0.001666552969254553,1,0.04088004678487778,1
1777497564882472448,-2.082162245642394e-05,1,-0.0008636362617835402,1,0.04240934550762177,1
1777497564892616704,-0.0006959823658689857,1,-0.002174382330849767,1,0.04481418430805206,1
1777497564902741760,0.0006814475054852664,1,-0.0001687047188170254,1,0.04421689361333847,1
1777497564912847104,-0.001233802875503898,1,-0.0007367288344539702,1,0.04533352702856064,1
1777497564922932736,-0.0006059813313186169,1,-0.001245757448486984,1,0.04279949888586998,1
1777497564932998400,-0.002720488235354424,1,-0.0003780099214054644,1,0.04410161823034286,1
1777497564943045376,-0.0006012279773131013,1,-0.001051594968885183,1,0.04336883500218391,1
1777497564953073920,-0.0007182320696301758,1,-0.001664896495640278,1,0.04251933842897415,1
1777497564963083008,-0.0002292369026690722,1,-0.002696331823244691,1,0.04155347123742104,1
1777497564973072384,-0.00110175390727818,1,-0.003392314771190286,1,0.03995519131422043,1
1777497564983042048,-0.001849995809607208,1,-0.003792806062847376,1,0.0411406010389328,1
1777497564992992512,-0.001180018647573888,1,-0.003423583460971713,1,0.04042143747210503,1
1777497565002923776,-0.0009221899090334773,1,-0.004202842246741056,1,0.04142644256353378,1
1777497565012835328,-0.001284001627936959,1,-0.002342922613024712,1,0.04349738731980324,1
1777497565022728192,-0.0007982258684933186,1,-0.001325917663052678,1,0.04181892052292824,1
1777497565032602112,-0.0009243882959708571,1,-0.002027450129389763,1,0.04390570148825645,1
1777497565042456832,0.000578132807277143,1,-0.002112815156579018,1,0.04586707800626755,1
1777497565052758016,-0.0003657612833194435,1,-0.001735435565933585,1,0.04501965641975403,1
1777497565063039232,-0.0008980075363069773,1,-0.00217179860919714,1,0.04281668365001678,1
1777497565073300480,-0.001108793308958411,1,-0.002263130154460669,1,0.04189976304769516,1
1777497565083541760,-0.0009948060614988208,1,-0.00170198199339211,1,0.04355083033442497,1
1777497565093764352,-0.00131510803475976,1,-0.00239325943402946,1,0.04279466718435287,1
1777497565103967232,-0.003834831528365612,1,-0.003379209199920297,1,0.04384006932377815,1
1777497565114150144,-0.001823753584176302,1,-0.002247106283903122,1,0.04271587729454041,1
1777497565124313600,-0.001518135541118681,1,-0.002363077830523252,1,0.0421653650701046,1
1777497565134458368,-0.002203846583142877,1,-0.002703060861676931,1,0.04469510540366173,1
1777497565144583168,-0.002015076810494065,1,-0.002728056162595749,1,0.04366915673017502,1
1777497565154688256,-0.0004962439998053014,1,-0.001729668700136244,1,0.04451010748744011,1
1777497565164773632,9.636571485316381e-05,1,-0.001483868574723601,1,0.04086459800601006,1
1777497565174840320,4.111614543944597e-05,1,-0.002339103491976857,1,0.04413646087050438,1
1777497565184887296,-0.0005427735159173608,1,-0.002613246208056808,1,0.04417349398136139,1
1777497565194914560,-0.001533298403955996,1,-0.002202976262196898,1,0.04250722751021385,1
1777497565204922368,-0.00223690876737237,1,-0.003401615656912327,1,0.04132777452468872,1
1777497565214910720,-0.002364635234698653,1,-0.002282373607158661,1,0.04425805062055588,1
1777497565224879616,-0.002287255600094795,1,-0.0008898297674022615,1,0.04475016519427299,1
1777497565234829056,-0.003691090969368815,1,-0.001005631173029542,1,0.04385175555944443,1
1777497565244762368,-0.004184691235423088,1,0.0002578504208941013,1,0.04570995271205902,1
1777497565254679296,-0.002695037983357906,1,0.0005633588880300522,1,0.04358119145035744,1
1777497565264576768,-0.0009587567765265703,1,-0.001232040347531438,1,0.04243367910385132,1
1777497565274455040,-0.001654589315876365,1,-0.001926183234900236,1,0.04362285137176514,1
1777497565284314624,0.0007262372528202832,1,-0.004121413920074701,1,0.04143546521663666,1
1777497565294620672,-0.0007128845900297165,1,-0.002798250876367092,1,0.04464836791157722,1
1777497565304906496,-0.001298840390518308,1,-0.0003885667538270354,1,0.04180257022380829,1
1777497565315172608,-0.001468825154006481,1,0.0006322305416688323,1,0.04135799407958984,1
1777497565325419008,-0.0005086113233119249,1,-0.002055658027529716,1,0.03917749971151352,1
1777497565335645696,-0.002150549553334713,1,-0.00170963304117322,1,0.04173282161355019,1
1777497565345852416,-0.002627736190333962,1,-0.001207625260576606,1,0.04434835165739059,1
1777497565356039424,-0.002096815500408411,1,-0.001254406641237438,1,0.04260577261447906,1
1777497565366206976,-0.003197896992787719,1,-0.001962263602763414,1,0.04200104624032974,1
1777497565376356096,-0.0008479294483549893,1,-0.002832740545272827,1,0.04387823492288589,1
1777497565386487040,-0.000764285447075963,1,-0.00189976638648659,1,0.04329657554626465,1
1777497565396598784,-0.000534356920979917,1,-0.00138429447542876,1,0.04337090253829956,1
1777497565406691328,-0.001015000278130174,1,-0.003782709827646613,1,0.04204418510198593,1
1777497565416764672,-0.002733386820182204,1,-0.001815599738620222,1,0.04233044758439064,1
1777497565426818304,-0.0008659223094582558,1,-0.002106517320498824,1,0.04331645742058754,1
1777497565436852224,-0.000472787709441036,1,-0.00348564307205379,1,0.04227264225482941,1
1777497565446866688,0.0004552691243588924,1,-0.004263180773705244,1,0.04278995841741562,1
1777497565456861952,-0.001294349553063512,1,-0.002477816306054592,1,0.04278801009058952,1
1777497565466838272,-0.0004414665745571256,1,-0.004662496037781239,1,0.04225821420550346,1
1777497565476795136,-0.001155111356638372,1,-0.00363439554348588,1,0.04120249301195145,1
1777497565486732544,-0.00167998019605875,1,-0.0016607113648206,1,0.044404037296772,1
1777497565496651008,-0.001150100375525653,1,-0.001999491127207875,1,0.04379770159721375,1
1777497565506549760,-0.003127478994429111,1,-0.002170142019167542,1,0.04521079733967781,1
1777497565516429312,-0.0013259471161291,1,-0.003533175680786371,1,0.04446524754166603,1
1777497565526289920,-0.0008269924437627196,1,-0.002186009427532554,1,0.04201683774590492,1
1777497565536362496,-0.0005427789874374866,1,-0.00107113120611757,1,0.04348983615636826,1
1777497565546647296,-0.001119373715482652,1,-0.002507270779460669,1,0.04304589703679085,1
1777497565556912384,0.0004882444045506418,1,-0.0003432026132941246,1,0.04409253224730492,1
1777497565567158528,-0.000571574957575649,1,-0.002302952576428652,1,0.04326437413692474,1
1777497565577384960,-0.0007783800829201937,1,-0.001714724814519286,1,0.04091445729136467,1
1777497565587591680,-0.001040676492266357,1,-0.002927750581875443,1,0.04470312222838402,1
1777497565597778176,-0.0005865038838237524,1,-0.003049106802791357,1,0.04044269770383835,1
1777497565607945216,-0.00239650416187942,1,-0.003817127551883459,1,0.04079048335552216,1
1777497565618092288,-0.002094863913953304,1,-0.003687845077365637,1,0.04009362682700157,1
1777497565628219648,-0.0009817625395953655,1,-0.003584427526220679,1,0.04104272648692131,1
1777497565638327040,-0.001543332822620869,1,0.003029108047485352,1,0.04280300810933113,1
1777497565648415232,0.0004315684200264513,1,0.007986654527485371,1,0.05880106985569,1
1777497565658483712,0.001747728674672544,1,0.003449372481554747,1,0.02446361258625984,1
1777497565668532224,-0.001189758535474539,1,-0.002563560847193003,1,0.05013521388173103,1
1777497565678561280,0.00932969618588686,1,-0.007748887874186039,1,0.04230310022830963,1
1777497565688570624,0.008679422549903393,1,-0.01462715677917004,1,0.04267270490527153,1
1777497565698560000,0.0072142886929214,1,-0.01818587072193623,1,0.04978355392813683,1
1777497565708529920,0.0008597968844696879,1,-0.01532037928700447,1,0.03008196316659451,1
1777497565718480640,0.002401931677013636,1,-0.01447731629014015,1,0.04841200634837151,1
1777497565728412672,0.0007092627929523587,1,-0.01697928830981255,1,0.03634373471140862,1
1777497565738331904,0.001325468765571713,1,-0.01352648623287678,1,0.05474655702710152,1
1777497565748231936,0.006072334013879299,1,0.0007751157972961664,1,0.02883440069854259,1
1777497565758113024,0.005573924630880356,1,0.00684734620153904,1,0.05493265390396118,1
1777497565767975168,0.008289056830108166,1,0.005939710885286331,1,0.03085758537054062,1
1777497565778047744,0.003007853869348764,1,0.002602471970021725,1,0.05476408451795578,1
1777497565788330240,-0.001489655813202262,1,0.01055772416293621,1,0.03609820455312729,1
1777497565798593024,-0.01443250756710768,1,0.0137771237641573,1,0.04421556368470192,1
1777497565808836864,-0.01596722006797791,1,0.0173769649118185,1,0.03889530897140503,1
1777497565819060736,-0.01998182013630867,1,0.003467673901468515,1,0.05306894704699516,1
1777497565829265152,-0.01768080703914165,1,0.005157643463462591,1,0.05250168219208717,1
1777497565839449600,-0.02135724760591984,1,-0.0002786041877698153,1,0.03253389894962311,1
1777497565849614336,-0.01535990368574858,1,-0.003731454256922007,1,0.03744617849588394,1
1777497565859759616,-0.01368247345089912,1,-0.002369107212871313,1,0.04946469888091087,1
1777497565869885184,-0.01435844693332911,1,-0.002399195451289415,1,0.05332522466778755,1
1777497565879990784,-0.008149621076881886,1,0.008022665977478027,1,0.02383024431765079,1
1777497565890077952,-0.006897030863910913,1,0.01303610298782587,1,0.06016053631901741,1
1777497565900145408,0.002671908820047975,1,0.006518872920423746,1,0.03213177993893623,1
1777497565910192896,-0.0006267649005167186,1,0.001102211186662316,1,0.05303188413381577,1
1777497565920221440,0.0033364815171808,1,-0.001534944982267916,1,0.04078342765569687,1
1777497565930234880,0.002149830805137753,1,-0.005478189792484045,1,0.03758589550852776,1
1777497565940228864,0.004723462741822004,1,-0.011333585716784,1,0.04459172114729881,1
1777497565950204160,0.004688173066824675,1,-0.01768262684345245,1,0.03966677561402321,1
1777497565960160000,0.003803708590567112,1,-0.01142467837780714,1,0.04879196360707283,1
1777497565970097152,0.00503358943387866,1,-0.005824313499033451,1,0.0389750599861145,1
1777497565980015104,0.0002266863302793354,1,-0.002578951185569167,1,0.04431894794106483,1
1777497565989913856,0.002089845249429345,1,-0.01004063617438078,1,0.04193675145506859,1
1777497565999793408,-0.0007436017040163279,1,-0.008953993208706379,1,0.04633967950940132,1
1777497566009654784,0.001908896490931511,1,-0.001479093683883548,1,0.04244910925626755,1
1777497566019725568,0.002820766530930996,1,0.003954073879867792,1,0.03732814267277718,1
1777497566030005504,0.00218839175067842,1,0.002027857583016157,1,0.04620621353387833,1
1777497566040265472,0.0004859725595451891,1,0.0002757239853963256,1,0.04272915795445442,1
1777497566050505728,-0.00106100644916296,1,0.002873122226446867,1,0.0445219948887825,1
1777497566060726016,-0.005848735570907593,1,-0.002531493548303843,1,0.03845267742872238,1
1777497566070928640,-0.006940853781998158,1,-0.01039460115134716,1,0.03961547464132309,1
1777497566081111296,-0.007784155197441578,1,-0.01164963562041521,1,0.04625307768583298,1
1777497566091274240,-0.005397296510636806,1,-0.004064928740262985,1,0.04241598024964333,1
1777497566101417472,-0.003656302345916629,1,0.004142769146710634,1,0.04366055503487587,1
1777497566111541248,0.0002259693865198642,1,0.002640522550791502,1,0.04506337270140648,1
1777497566121645056,0.002226547105237842,1,0.004061020910739899,1,0.04581334069371223,1
1777497566131729664,0.0009868157794699073,1,0.009450494311749935,1,0.04485542327165604,1
1777497566141794304,0.001526286825537682,1,0.01166475471109152,1,0.03748013079166412,1
1777497566151839744,0.001916161389090121,1,0.00653482973575592,1,0.04346366971731186,1
1777497566161865728,0.001726159593090415,1,0.0001987804716918617,1,0.04527031257748604,1
1777497566171872000,-0.0001575036440044641,1,-0.002695840084925294,1,0.04574902728199959,1
1777497566181858560,-0.001490092719905078,1,-0.007445814553648233,1,0.03356346487998962,1
1777497566191825664,-0.002414998831227422,1,-0.01347299758344889,1,0.04042103514075279,1
1777497566201773056,-0.001425299560651183,1,-0.01636705547571182,1,0.04024374485015869,1
1777497566211701248,0.000799880363047123,1,-0.018294807523489,1,0.04193129763007164,1
1777497566221610240,0.003093856852501631,1,-0.01024448778480291,1,0.0401056669652462,1
1777497566231500800,0.004212337080389261,1,-0.006095975637435913,1,0.04424292221665382,1
1777497566241372160,0.004414468538016081,1,-0.004902790300548077,1,0.03677600622177124,1
1777497566251224320,0.005936440546065569,1,0.001260829623788595,1,0.04571104049682617,1
1777497566261288960,0.006562578957527876,1,0.003635105909779668,1,0.04295582696795464,1
1777497566271566080,0.004026293288916349,1,0.006706579122692347,1,0.03860844671726227,1
1777497566281823232,0.003938871901482344,1,0.00502219470217824,1,0.04781661555171013,1
1777497566292060672,0.00281860982067883,1,0.001412165816873312,1,0.04372453317046165,1
1777497566302278656,-0.001375371124595404,1,8.671656541991979e-05,1,0.04560476168990135,1
1777497566312477184,-0.005009250715374947,1,-0.002527308417484164,1,0.03975912556052208,1
1777497566322656000,-0.006858918350189924,1,-0.006456229370087385,1,0.03902632370591164,1
1777497566332815616,-0.008166984654963017,1,-0.007848223671317101,1,0.04363645985722542,1
1777497566342955520,-0.007401042152196169,1,-0.004179065581411123,1,0.04163729399442673,1
1777497566353075712,-0.006897065788507462,1,0.001823293743655086,1,0.03993410989642143,1
1777497566363176192,-0.004453145433217287,1,0.003814222058281302,1,0.04188923165202141,1
1777497566373256960,-0.003118329448625445,1,0.004392736125737429,1,0.04481709375977516,1
1777497566383318784,-0.003000315744429827,1,0.003316951682791114,1,0.04000537469983101,1
1777497566393361152,-0.002210887148976326,1,0.006990822497755289,1,0.04163229465484619,1
1777497566403383808,-0.001315696747042239,1,0.003289096988737583,1,0.04106014594435692,1
1777497566413386752,0.001474484335631132,1,-0.001039869152009487,1,0.03921395912766457,1
1777497566423370240,-0.0001266641775146127,1,-0.0008769735577516258,1,0.04600471258163452,1
1777497566433334272,-0.0002461730618961155,1,-0.001785878208465874,1,0.03835165873169899,1
1777497566443278848,-0.002897980622947216,1,-0.003789298236370087,1,0.04020366817712784,1
1777497566453203712,-0.003411409677937627,1,-0.004954574629664421,1,0.04324130713939667,1
1777497566463113216,-0.002185672521591187,1,-0.004869773052632809,1,0.04255219921469688,1
1777497566473007360,0.0002435962815070525,1,-0.003073857398703694,1,0.04396087303757668,1
1777497566482882048,0.0007927637780085206,1,-0.001523384591564536,1,0.04145382717251778,1
1777497566492737536,0.0003487688663881272,1,-0.0002050312905339524,1,0.0428362712264061,1
1777497566502805504,-0.001728600938804448,1,-0.0002184681507060304,1,0.03985558450222015,1
1777497566513086208,-0.00381100713275373,1,0.00193137745372951,1,0.04130997136235237,1
1777497566523347200,-0.003125668503344059,1,0.003727186471223831,1,0.03734581544995308,1
1777497566533588224,-0.003758905455470085,1,0.00174697139300406,1,0.03965036198496819,1
1777497566543809536,-0.002825525589287281,1,-0.0001879867631942034,1,0.04143181815743446,1
1777497566554012160,-0.001700927503407001,1,-0.0007602214463986456,1,0.04112526029348373,1
1777497566564195072,-0.0005374490283429623,1,-0.001164045883342624,1,0.04302815347909927,1
1777497566574358272,0.0002826678974088281,1,-0.004852075595408678,1,0.03910036012530327,1
1777497566584501760,0.001013000844977796,1,-0.005120772868394852,1,0.0423443540930748,1
1777497566594626304,0.001618572045117617,1,-0.006252759136259556,1,0.0407019704580307,1
1777497566604730880,0.0008970561320893466,1,-0.002186891157180071,1,0.03689020499587059,1
1777497566614816000,-0.0002455603680573404,1,-0.002176356501877308,1,0.04032716900110245,1
1777497566624881664,0.0008974429219961166,1,-0.001157684368081391,1,0.04132567718625069,1
1777497566634928128,-2.524541923776269e-05,1,0.002305645029991865,1,0.04310127720236778,1
1777497566644955392,-0.0005726658273488283,1,0.005161450710147619,1,0.04382864758372307,1
1777497566654963200,0.0002340068895136937,1,0.004452657885849476,1,0.04444209486246109,1
1777497566664951552,0.001069475198164582,1,0.003206285182386637,1,0.04394114762544632,1
1777497566674923776,4.408374661579728e-05,1,0.0006268953438848257,1,0.04405420273542404,1
1777497566684876544,-0.001013676752336323,1,-0.000437020295066759,1,0.04112396761775017,1
1777497566694810112,-0.00164904713165015,1,-0.002942163264378905,1,0.04286947473883629,1
1777497566704723968,-0.005124610383063555,1,-0.002727034036070108,1,0.042975053191185,1
1777497566714618624,-0.005676633678376675,1,-0.002192095387727022,1,0.04574654251337051,1
1777497566724493824,-0.003809260437265038,1,6.819076952524483e-05,1,0.04460269212722778,1
1777497566734349824,-0.004891638178378344,1,-0.0004349143127910793,1,0.04433206841349602,1
1777497566744186624,-0.00118531659245491,1,0.0003831417707260698,1,0.04271808266639709,1
1777497566754473216,-0.00145334517583251,1,0.0006629998097196221,1,0.04327138885855675,1
1777497566764740096,0.0003012421075254679,1,0.002156269736588001,1,0.04044757038354874,1
1777497566774987008,0.001228919718414545,1,0.004213550593703985,1,0.04257878288626671,1
1777497566785213952,0.002288915915414691,1,0.001344304298982024,1,0.04239159449934959,1
1777497566795420928,0.002728797029703856,1,8.579765562899411e-05,1,0.0424402728676796,1
1777497566805607936,0.0006905134650878608,1,-0.001350268255919218,1,0.04177656769752502,1
1777497566815775232,-0.0003390363999642432,1,-0.004336830228567123,1,0.04049557447433472,1
1777497566825922560,-0.0009735418716445565,1,-0.00387095077894628,1,0.0415901280939579,1
1777497566836049920,-0.0007831369293853641,1,-0.006022695451974869,1,0.04104545339941978,1
1777497566846161152,-0.00143234443385154,1,-0.004928553476929665,1,0.04346030578017235,1
1777497566856252928,-0.001455235877074301,1,-0.004307686816900969,1,0.04156559705734253,1
1777497566866325504,-0.003932372201234102,1,-0.002017984166741371,1,0.04291985556483269,1
1777497566876378112,-0.005053143016993999,1,-0.0003163292421959341,1,0.04180948808789253,1
1777497566886411776,-0.004403899889439344,1,-0.0005096807144582272,1,0.04164399206638336,1
1777497566896425728,-0.006201166193932295,1,0.003529824083670974,1,0.04041746631264687,1
1777497566906419968,-0.005273678340017796,1,0.001969495322555304,1,0.04211103916168213,1
1777497566916394496,-0.003699321765452623,1,0.005227185320109129,1,0.04856299981474876,1
1777497566926350080,-0.00300236651673913,1,0.003696664003655314,1,0.04949786886572838,1
1777497566936286208,-0.001116225030273199,1,0.002503383904695511,1,0.03819309547543526,1
1777497566946202880,-0.002135338028892875,1,0.00141291948966682,1,0.04392235353589058,1
1777497566956100096,-0.004072336480021477,1,-0.001120621338486671,1,0.0424642525613308,1
1777497566965978112,-0.007065629120916128,1,-0.004221631679683924,1,0.04292251169681549,1
1777497566975836672,-0.007649557199329138,1,-0.005131428129971027,1,0.04640509188175201,1
1777497566985676032,-0.006358495447784662,1,-0.002904713386669755,1,0.04729511588811874,1
1777497566995728640,-0.003133248770609498,1,-0.004348443821072578,1,0.03451021015644073,1
1777497567005993984,-0.001945421798154712,1,-0.003136247862130404,1,0.0421685092151165,1
1777497567016239360,-0.001946924487128854,1,-0.003135980572551489,1,0.0392865389585495,1
1777497567026465536,-0.003421975765377283,1,-0.002765790093690157,1,0.03765848278999329,1
1777497567036672000,-0.00180448975879699,1,0.0008270243997685611,1,0.04573538154363632,1
1777497567046858752,0.001924175070598722,1,-0.0006015625549480319,1,0.04151785373687744,1
1777497567057026048,0.001755314413458109,1,0.0003475211560726166,1,0.04424574598670006,1
1777497567067173120,0.0002577081322669983,1,0.0008674030541442335,1,0.04414141923189163,1
1777497567077300992,-0.001544305472634733,1,-0.00194685161113739,1,0.04226551204919815,1
1777497567087409408,-0.003395997919142246,1,-0.004897053353488445,1,0.04504697024822235,1
1777497567097497856,-0.002626047004014254,1,-0.007593960035592318,1,0.04539329186081886,1
1777497567107566848,-0.003153139026835561,1,-0.004285226576030254,1,0.04285148903727531,1
1777497567117616640,-0.002293705707415938,1,-0.001193931675516069,1,0.04463470727205276,1
1777497567127646720,-0.00281689059920609,1,-0.003470724215731025,1,0.04131006449460983,1
1777497567137657088,-0.0040786974132061,1,-0.003021253040060401,1,0.04434376209974289,1
1777497567147647744,-0.00417862506583333,1,-0.0007200280670076609,1,0.04413030296564102,1
1777497567157622528,-0.003921143710613251,1,0.001596034620888531,1,0.04010026901960373,1
1777497567167578112,-0.003093792824074626,1,0.004130848683416843,1,0.04403350129723549,1
1777497567177514240,-0.003277648240327835,1,0.003259327262639999,1,0.04373320937156677,1
1777497567187431424,-0.002274611731991172,1,0.002635256387293339,1,0.04420705512166023,1
1777497567197329664,-0.003093469422310591,1,0.001688352436758578,1,0.04681122675538063,1
1777497567207208960,-0.004121329169720411,1,0.0005098697729408741,1,0.04385394603013992,1
1777497567217069312,-0.003224061336368322,1,-0.003836341900750995,1,0.0436413362622261,1
1777497567226910208,-0.002788395388051867,1,-0.003136577317491174,1,0.04321799427270889,1
1777497567236963584,0.0009190824348479509,1,-0.002824454801157117,1,0.04118100553750992,1
1777497567247228416,-0.001786166452802718,1,0.00097592209931463,1,0.04300703480839729,1
1777497567257473792,-0.001564974198117852,1,0.0001779267622623593,1,0.04482058063149452,1
1777497567267699968,-0.001510085887275636,1,-9.484819020144641e-05,1,0.04348384588956833,1
1777497567277906176,-0.001769061898812652,1,0.00122147158253938,1,0.043089859187603,1
1777497567288092416,0.0005750010604970157,1,-0.0003682483220472932,1,0.0417986661195755,1
1777497567298258688,0.0002344034728594124,1,-0.001032345346175134,1,0.04462329298257828,1
1777497567308405248,0.0002185485500376672,1,-0.002620799466967583,1,0.04714372754096985,1
1777497567318531584,-0.0004938786732964218,1,-0.0024832165800035,1,0.04319089278578758,1
1777497567328637696,-0.002624425338581204,1,-0.002514599356800318,1,0.04712710902094841,1
1777497567338723840,-0.004551541525870562,1,-0.004348633345216513,1,0.04496614262461662,1
1777497567348790784,-0.002930316142737865,1,-0.005350437946617603,1,0.04451458528637886,1
1777497567358838016,-0.001408666837960482,1,-0.004891511984169483,1,0.04442226886749268,1
1777497567368865280,-0.004286843352019787,1,-0.001834932831116021,1,0.0416470468044281,1
1777497567378872832,-0.002429725602269173,1,-0.001110575394704938,1,0.04213186353445053,1
1777497567388860928,-0.003307333448901772,1,-0.0004491258587222546,1,0.04278364777565002,1
1777497567398829056,-0.001238005235791206,1,0.0006005418254062533,1,0.04307855665683746,1
1777497567408777728,-0.001666526193730533,1,0.001568287727423012,1,0.0404723659157753,1
1777497567418707200,-0.001095928018912673,1,0.0008746833191253245,1,0.04464763402938843,1
1777497567428620800,-0.002921522129327059,1,0.002597719663754106,1,0.0435284823179245,1
1777497567438518016,-0.003301671240478754,1,0.0006769259925931692,1,0.0450657531619072,1
1777497567448396288,-0.004171384032815695,1,0.0005381066002883017,1,0.04036727920174599,1
1777497567458255360,-0.00369999255053699,1,-0.001680065412074327,1,0.04224530607461929,1
1777497567468095488,-0.003162627574056387,1,-0.003362534567713737,1,0.04179349914193153,1
1777497567478147072,-0.004422714468091726,1,-0.003168914001435041,1,0.04097522422671318,1
1777497567488409600,-0.003669834230095148,1,-0.002755547175183892,1,0.0412825345993042,1
1777497567498652160,-0.003607061225920916,1,-0.0007060873322188854,1,0.04371146485209465,1
1777497567508874496,-0.001437619794160128,1,0.0006682942621409893,1,0.04197504743933678,1
1777497567519077632,0.002702837809920311,1,0.0007686581229791045,1,0.04252015054225922,1
1777497567529261056,0.0004599080129992217,1,0.003134345170110464,1,0.04248610138893127,1
1777497567539424768,-0.001917469780892134,1,0.00175685784779489,1,0.04291859269142151,1
1777497567549569024,-0.001845671329647303,1,-0.0024183657951653,1,0.04427023977041245,1
1777497567559693824,-0.002137709408998489,1,-0.003243847051635385,1,0.04283549264073372,1
1777497567569798912,-0.002869843039661646,1,-0.003034916007891297,1,0.04345843940973282,1
1777497567579884288,-0.002162735443562269,1,-0.002476919442415237,1,0.04173525795340538,1
1777497567589950208,0.0005834095645695925,1,-0.001275354530662298,1,0.04058747738599777,1
1777497567599997184,-0.0005164450849406421,1,-0.00182800181210041,1,0.04127237200737,1
1777497567610024448,-0.002528615994378924,1,-8.287022501463071e-05,1,0.04133626818656921,1
1777497567620032512,-0.0007705027819611132,1,-0.0008860589005053043,1,0.03987405821681023,1
1777497567630021376,-0.00017736510199029,1,-0.0005833089235238731,1,0.04155519232153893,1
1777497567639993088,-0.0002906086738221347,1,-0.0008272434351965785,1,0.04179703444242477,1
1777497567649947392,-0.0004129846347495914,1,0.001832746202126145,1,0.04248224943876266,1
1777497567659882496,-0.0008600212750025094,1,0.001016779569908977,1,0.04152294248342514,1
1777497567669798400,-0.002185223856940866,1,-0.0003474116965662688,1,0.04217095300555229,1
1777497567679694848,-0.002356487326323986,1,-0.002746311482042074,1,0.03992569446563721,1
1777497567689572352,-0.002260611159726977,1,-0.000834649836178869,1,0.04065413773059845,1
1777497567699430912,-0.002022356726229191,1,-0.001805585343390703,1,0.04054892435669899,1
1777497567709270272,-0.00207961443811655,1,-0.002430240623652935,1,0.04343976080417633,1
1777497567719320832,-0.00220830924808979,1,-0.00355478236451745,1,0.04152599349617958,1
1777497567729582336,-0.00247735227458179,1,0.000434410001616925,1,0.04400699958205223,1
1777497567739823872,-0.001016516122035682,1,0.001063702744431794,1,0.04267849028110504,1
1777497567750045440,-0.002281239023432136,1,0.002298280596733093,1,0.0416119359433651,1
1777497567760247040,-0.003126497147604823,1,0.0005977920372970402,1,0.04279597476124763,1
1777497567770429696,-0.002700324635952711,1,-0.002025323221459985,1,0.04520269110798836,1
1777497567780593408,-0.002340117935091257,1,0.0001028936967486516,1,0.04510068148374557,1
1777497567790737664,-0.00109410472214222,1,-0.003086060751229525,1,0.04309670999646187,1
1777497567800861952,-0.002598020015284419,1,-0.001991237048059702,1,0.04284977167844772,1
1777497567810966784,-0.003113394137471914,1,-0.0002978988050017506,1,0.04026815667748451,1
1777497567821051904,-0.002584161702543497,1,-0.001108447322621942,1,0.04129314422607422,1
1777497567831117312,-0.001377584761939943,1,0.0001212658535223454,1,0.04158801957964897,1
1777497567841163520,-0.002272395649924874,1,0.0002174849068978801,1,0.04301846772432327,1
1777497567851190272,-0.001237998367287219,1,0.001384956995025277,1,0.046379204839468,1
1777497567861197312,-0.0005233563715592027,1,0.002019464271143079,1,0.04379178583621979,1
1777497567871184896,-0.00120935239829123,1,0.001659366302192211,1,0.04448175802826881,1
1777497567881152768,-0.001133414218202233,1,0.001191339921206236,1,0.04299799725413322,1
1777497567891101184,0.0004337482969276607,1,-0.0003576709423214197,1,0.04449756816029549,1
1777497567901029888,-0.001907194382511079,1,-0.001607127604074776,1,0.04445290938019753,1
1777497567910939392,-0.0004570174787659198,1,-0.001000485965050757,1,0.04152342304587364,1
1777497567920829184,-0.001899653812870383,1,-0.002878357423469424,1,0.04333531111478806,1
1777497567930700288,-0.001476519275456667,1,-0.002548372838646173,1,0.04265667498111725,1
1777497567940552448,-0.0009769697207957506,1,-0.001189693808555603,1,0.04590446501970291,1
1777497567950385408,-0.002477140165865421,1,-0.001170886214822531,1,0.04339779913425446,1
1777497567960434432,-0.003440090687945485,1,-0.00373743986710906,1,0.042629174888134,1
1777497567970699776,-0.002065870445221663,1,-0.002105716150254011,1,0.04312043264508247,1
1777497567980945408,-0.002363513922318816,1,-5.457131192088127e-05,1,0.04071999713778496,1
1777497567991171072,-0.002074361080303788,1,0.0007358533330261707,1,0.04365972429513931,1
1777497568001377536,-0.0004027647082693875,1,0.000297636550385505,1,0.04173218831419945,1
1777497568011564800,-0.0006862765876576304,1,-0.001730430987663567,1,0.0412982665002346,1
1777497568021732096,0.001206178334541619,1,-0.0008667727815918624,1,0.04212302342057228,1
1777497568031879936,0.001025416306219995,1,-0.002542933449149132,1,0.04123058542609215,1
1777497568042007552,0.000929865229409188,1,-0.003152887569740415,1,0.03958457708358765,1
1777497568052115712,-0.0001858804607763886,1,-0.00126114662270993,1,0.03972651064395905,1
1777497568062204160,-0.002874890808016062,1,-0.0006879190332256258,1,0.04347578808665276,1
1777497568072272640,-0.001004717661999166,1,-0.0004846398660447448,1,0.04279850050806999,1
1777497568082321920,-0.001522887381725013,1,-0.0008065043366514146,1,0.04203486070036888,1
1777497568092351744,-0.002766642486676574,1,-0.001353540108539164,1,0.04174882918596268,1
1777497568102362112,-0.001363116200082004,1,-0.002204517601057887,1,0.04018330201506615,1
1777497568112352768,-0.001124912407249212,1,-0.00234794314019382,1,0.04071692004799843,1
1777497568122323968,-0.0003027171769645065,1,-0.001785813714377582,1,0.0404496043920517,1
1777497568132275712,-0.001018184353597462,1,-0.003181754378601909,1,0.0433560349047184,1
1777497568142208000,-0.002121507655829191,1,-0.001862967968918383,1,0.04476695507764816,1
1777497568152121088,-0.002711310051381588,1,-0.001545778126455843,1,0.04180979356169701,1
1777497568162015232,-0.001769663067534566,1,-0.001832180540077388,1,0.04248913750052452,1
1777497568171890688,-0.0009720864472910762,1,-0.0006351418560370803,1,0.04076164588332176,1
1777497568181750528,-0.0001440183696104214,1,-0.0009394437656737864,1,0.04124420881271362,1
1777497568191594496,-0.001289432169869542,1,-0.002149297157302499,1,0.0406644307076931,1
1777497568201419520,-0.0002592056407593191,1,-0.002268463838845491,1,0.03926348313689232,1
1777497568211692032,-0.00161426339764148,1,0.001008606748655438,1,0.04058894887566566,1
1777497568221945088,-0.001206999411806464,1,0.0003294697380624712,1,0.04153168573975563,1
1777497568232178176,-0.003197471611201763,1,0.0001810413523344323,1,0.04433980211615562,1
1777497568242391808,-0.001407450181432068,1,0.0001570738386362791,1,0.04271405190229416,1
1777497568252585728,-0.0002426561550237238,1,-0.0002319696068298072,1,0.04330557957291603,1
1777497568262759936,0.0001389853714499623,1,-0.003530107438564301,1,0.04144474491477013,1
1777497568272915712,0.001259325654245913,1,-0.003122324123978615,1,0.0402684360742569,1
1777497568283052032,-0.001539195887744427,1,-0.0001655342639423907,1,0.04117502644658089,1
1777497568293168896,0.0002407194260740653,1,0.001039573457092047,1,0.04222188889980316,1
1777497568303266048,-0.001228814129717648,1,-4.148713196627796e-05,1,0.04237348586320877,1
1777497568313343744,-0.002645845524966717,1,-0.0007979245856404305,1,0.04348937049508095,1
1777497568323401728,-0.0005553384544327855,1,-0.0001710524375084788,1,0.04214093089103699,1
1777497568333440256,-0.00140293303411454,1,-0.0002521875139791518,1,0.04384202882647514,1
1777497568343459072,-0.0001119121443480253,1,-0.0008650055970065296,1,0.04269181191921234,1
1777497568353459200,-0.001452744472771883,1,-4.664577136281878e-05,1,0.04421273246407509,1
1777497568363439872,1.089356373995543e-06,1,0.001110328594222665,1,0.04153870418667793,1
1777497568373401088,-0.00224501546472311,1,0.001941409194841981,1,0.04162563011050224,1
1777497568383342848,-0.003017141949385405,1,0.0008265301585197449,1,0.04207156226038933,1
1777497568393265408,-0.0003050552622880787,1,-0.0002336663310416043,1,0.04035872966051102,1
1777497568403168512,0.0002108889311784878,1,-0.002231928054243326,1,0.042252067476511,1
1777497568413052416,-0.0008217194117605686,1,0.0001292231609113514,1,0.04331595078110695,1
1777497568422917120,-0.0008639453444629908,1,0.001696501160040498,1,0.04484290257096291,1
1777497568432763648,-0.001117538893595338,1,-0.0003536099102348089,1,0.04300614446401596,1
1777497568442591232,-0.0007529310532845557,1,0.00215488625690341,1,0.04208984971046448,1
1777497568452631040,-0.001285263686440885,1,0.00314621371217072,1,0.04421147704124451,1
1777497568462882304,0.0008191256783902645,1,0.001410956494510174,1,0.04069273918867111,1
1777497568473113856,0.0002745237143244594,1,-0.0007292106747627258,1,0.04135376587510109,1
1777497568483325696,0.0006000673165544868,1,0.0008904208661988378,1,0.04104571789503098,1
1777497568493518080,-0.001438063685782254,1,-0.0006034323014318943,1,0.04147031158208847,1
1777497568503691008,-0.0002926900633610785,1,-0.004179537761956453,1,0.04056969657540321,1
1777497568513843968,-0.002062512328848243,1,-0.00147458421997726,1,0.04107752069830894,1
1777497568523976960,-0.001013609580695629,1,0.001483599306084216,1,0.04322976246476173,1
1777497568534091776,-0.0005668990197591484,1,0.001641675946302712,1,0.04303012788295746,1
1777497568544187648,-0.001968717202544212,1,-0.0001335112610831857,1,0.04066646099090576,1
1777497568554264064,-0.002618278143927455,1,0.0009527600486762822,1,0.04383471235632896,1
1777497568564321280,-0.002262800000607967,1,0.004033782985061407,1,0.04607726261019707,1
1777497568574359040,-0.0001991674653254449,1,0.0004540212103165686,1,0.04378098994493484,1
1777497568584377600,-0.0002693495771382004,1,9.975966531783342e-05,1,0.04325829073786736,1
1777497568594376960,-0.0021000059787184,1,0.0009415361564606428,1,0.04692385345697403,1
1777497568604356864,-0.003380057867616415,1,0.001232833135873079,1,0.04501376673579216,1
1777497568614317312,-0.001687017269432545,1,-6.28867419436574e-05,1,0.04103837162256241,1
1777497568624258816,-0.002719631185755134,1,-0.003444472327828407,1,0.04397336393594742,1
1777497568634181120,-0.001091020763851702,1,-0.0006663429085165262,1,0.04495353624224663,1
1777497568644083968,-0.002670960035175085,1,-0.001435316284187138,1,0.04532494395971298,1
1777497568653967616,-0.0005497461534105241,1,-0.001949328929185867,1,0.04046852141618729,1
1777497568663831808,-0.0001436301972717047,1,-0.00200134189799428,1,0.04458414018154144,1
1777497568673676800,-0.0007280327845364809,1,0.0005513777723535895,1,0.04322867840528488,1
1777497568683502592,-0.001807233085855842,1,0.001335296779870987,1,0.04353171959519386,1
1777497568693541376,-0.00349989184178412,1,0.0008981517748907208,1,0.04268399626016617,1
1777497568703792128,-0.004351244308054447,1,0.002279250416904688,1,0.04198106750845909,1
1777497568714023168,-0.00230556889437139,1,0.003160589374601841,1,0.04327372834086418,1
1777497568724234752,-0.003799208672717214,1,-0.0009525206405669451,1,0.04211998358368874,1
1777497568734426624,-0.003790681017562747,1,-0.003205697750672698,1,0.04213164746761322,1
1777497568744599040,-0.002785716904327273,1,-0.005137029569596052,1,0.04143201187252998,1
1777497568754751744,-0.004329964052885771,1,-0.002273429185152054,1,0.04140233993530273,1
1777497568764884480,-0.002725129714235663,1,-0.0009732298785820603,1,0.04470842331647873,1
1777497568774999040,-0.00121428829152137,1,-0.0008037610678002238,1,0.03999178484082222,1
1777497568785095168,0.0002586044429335743,1,-0.0008106694440357387,1,0.04160516709089279,1
1777497568795172608,-0.001681997673586011,1,0.0007962078670971096,1,0.04379957914352417,1
1777497568805230336,-0.001293436624109745,1,-0.001096383901312947,1,0.04377621784806252,1
1777497568815268608,-0.003131168661639094,1,-0.003360477043315768,1,0.04290574416518211,1
1777497568825287936,-0.0013695735251531,1,-0.0005249326350167394,1,0.04204294085502625,1
1777497568835287552,-0.00141834351234138,1,-0.001067080651409924,1,0.04447722807526588,1
1777497568845267712,0.0001843012141762301,1,-0.001222340739332139,1,0.03983624279499054,1
1777497568855228928,-0.00152321404311806,1,-0.0007674950757063925,1,0.04212600737810135,1
1777497568865171200,-0.001735855592414737,1,-0.00418707262724638,1,0.04181971773505211,1
1777497568875094272,-0.003045045770704746,1,-0.002266539959236979,1,0.04171893745660782,1
1777497568884998144,-0.001527159474790096,1,-0.002423141384497285,1,0.04195819795131683,1
1777497568894882560,-0.002569897565990686,1,-0.001488620298914611,1,0.03987253084778786,1
1777497568904748032,-0.002309357514604926,1,-0.001984261441975832,1,0.04311595484614372,1
1777497568914594048,-0.001639420399442315,1,-0.0002503259456716478,1,0.04093106463551521,1
1777497568924421120,-0.0003918793809134513,1,0.0001982517424039543,1,0.0425892136991024,1
1777497568934459904,-0.0004478957271203399,1,0.0008098263060674071,1,0.04261624440550804,1
1777497568944710144,-8.021973189897835e-05,1,0.001711772289127111,1,0.04183739423751831,1
1777497568954940928,-0.001752567593939602,1,-0.000137998431455344,1,0.04224465787410736,1
1777497568965151744,-0.002124568447470665,1,0.0001163635461125523,1,0.0442199744284153,1
1777497568975343616,0.0006339616375043988,1,-1.515645999461412e-05,1,0.04442975670099258,1
1777497568985516288,0.001740223960950971,1,-0.001335542881861329,1,0.04225640371441841,1
1777497568995668992,0.0003792810312006623,1,-0.002383267041295767,1,0.04504509642720222,1
1777497569005801984,0.0004859204636886716,1,-0.002735124435275793,1,0.04310009256005287,1
1777497569015915776,-0.0004720049910247326,1,-0.001088376855477691,1,0.04361795261502266,1
1777497569026009600,-0.002216137014329433,1,-0.001718942425213754,1,0.04262098670005798,1
1777497569036084224,-0.002111569512635469,1,-0.001166124013252556,1,0.04220549389719963,1
1777497569046139136,-0.00106788135599345,1,7.429589459206909e-05,1,0.0438072457909584,1
1777497569056175104,-0.000766604789532721,1,-0.0004756599082611501,1,0.04183243960142136,1
1777497569066191616,-0.001633396255783737,1,-0.0005205654888413846,1,0.04508619010448456,1
1777497569076188672,-0.001850655069574714,1,-0.002562721725553274,1,0.04373373463749886,1
1777497569086166272,-0.002473354339599609,1,-0.002790683880448341,1,0.04071830585598946,1
1777497569096124672,-0.001848301384598017,1,-0.00359700433909893,1,0.04364759102463722,1
1777497569106063872,-0.000646336586214602,1,-0.00385808851569891,1,0.04199159145355225,1
1777497569115987968,-0.0006542511400766671,1,-0.002708235289901495,1,0.04253792762756348,1
1777497569125895680,-0.0007894045556895435,1,-0.003342539304867387,1,0.04230183362960815,1
1777497569135784448,-0.001025414676405489,1,-0.002674276940524578,1,0.0453806035220623,1
1777497569145654272,-0.0005724961520172656,1,-0.001777857891283929,1,0.04371872171759605,1
1777497569155504896,0.0009031353984028101,1,-0.0009414628730155528,1,0.0425209105014801,1
1777497569165336832,-0.003019146155565977,1,-0.002073053503409028,1,0.04445553943514824,1
1777497569175379968,-0.0005901059485040605,1,-0.002552327467128634,1,0.04301626607775688,1
1777497569185634304,-0.0002624235639814287,1,-0.0004602797562256455,1,0.04324451461434364,1
1777497569195868672,-0.00135558214969933,1,-0.0005733441794291139,1,0.04344886168837547,1
1777497569206083072,-0.0008248467347584665,1,-0.0005197376594878733,1,0.04142142832279205,1
1777497569216277504,-0.002109896158799529,1,-0.001403896138072014,1,0.04297889024019241,1
1777497569226452992,-0.002993082161992788,1,-0.002439305884763598,1,0.04207797348499298,1
1777497569236610304,-0.001095793442800641,1,-0.001524879829958081,1,0.04398617520928383,1
1777497569246747648,-0.0002002569235628471,1,-0.001436667749658227,1,0.04098283126950264,1
1777497569256865536,-0.001370493788272142,1,-0.001757838530465961,1,0.04173622280359268,1
1777497569266963968,0.0007424994837492704,1,-0.001280520111322403,1,0.04126330837607384,1
1777497569277042944,-0.0009986725635826588,1,-0.001116970553994179,1,0.04114286601543427,1
1777497569287102720,-0.00225465907715261,1,-0.001573515706695616,1,0.04272875562310219,1
1777497569297143296,-0.002931311726570129,1,0.0001631865306990221,1,0.04173783212900162,1
1777497569307164672,-0.004163718316704035,1,-0.001457625417970121,1,0.04605930671095848,1
1777497569317166848,-0.0009834393858909607,1,-0.002913849195465446,1,0.04236605763435364,1
1777497569327149568,-0.001247057225555182,1,-0.002732133027166128,1,0.04390473663806915,1
1777497569337112576,-0.001739189610816538,1,-0.002420248929411173,1,0.04425179213285446,1
1777497569347056384,-0.0002394754847045988,1,-0.00142440409399569,1,0.04211444035172462,1
1777497569356980736,0.0002259710745420307,1,-0.000890323193743825,1,0.04395800456404686,1
1777497569366885376,-1.573024201206863e-05,1,-0.001934499829076231,1,0.04420736059546471,1
1777497569376770816,-0.00298160407692194,1,-0.001781826140359044,1,0.04430745542049408,1
1777497569386637312,-0.003200358245521784,1,-0.0006148430984467268,1,0.04193007573485374,1
1777497569396485376,-0.003151579760015011,1,-0.002114576287567616,1,0.04075157642364502,1
1777497569406314240,-0.00201295455917716,1,-0.002122968900948763,1,0.04196031391620636,1
1777497569416124160,-0.003180197672918439,1,-0.001420818269252777,1,0.04052110016345978,1
1777497569426378240,-0.003792864270508289,1,5.028245504945517e-05,1,0.04170363396406174,1
1777497569436612352,0.001308171078562737,1,-0.001230323221534491,1,0.04231229424476624,1
1777497569446826496,0.003965332638472319,1,-0.002941597485914826,1,0.04295335337519646,1
1777497569457021952,0.005199281498789787,1,-0.004534307401627302,1,0.04082286730408669,1
1777497569467197696,0.001683469745330513,1,-0.004648203495889902,1,0.04210867360234261,1
1777497569477353472,0.0005116106476634741,1,-0.005102800205349922,1,0.04301929846405983,1
1777497569487490048,3.847698462777771e-05,1,-0.004582672379910946,1,0.04042346030473709,1
1777497569497607168,-0.002096801297739148,1,-0.003453262615948915,1,0.0425904281437397,1
1777497569507704832,-0.0008585252217017114,1,-0.002557413885369897,1,0.04301461949944496,1
1777497569517782784,0.0007680656271986663,1,-0.003477567108348012,1,0.04369425028562546,1
1777497569527841792,0.002398246200755239,1,-0.003603965975344181,1,0.04489092156291008,1
1777497569537881600,-0.0001155044883489609,1,-0.003414931008592248,1,0.04456236958503723,1
1777497569547901952,0.00129911070689559,1,-0.002683998085558414,1,0.04510008916258812,1
1777497569557903360,0.001472588395699859,1,-0.002278229687362909,1,0.03983674198389053,1
1777497569567885312,0.0001857645693235099,1,-0.0008396421326324344,1,0.04380201175808907,1
1777497569577851904,0.0002760820207186043,1,-0.002281256252899766,1,0.04237082600593567,1
1777497569587799552,-0.00422604288905859,1,-0.001988701056689024,1,0.04426764696836472,1
1777497569597728000,-0.002414260990917683,1,-0.0006839178968220949,1,0.04723102226853371,1
1777497569607637248,-0.001798361423425376,1,-0.002880045212805271,1,0.04359043389558792,1
1777497569617527808,-0.002994235837832093,1,-0.0002302929933648556,1,0.04147684574127197,1
1777497569627399168,-0.002760367002338171,1,-0.001052578911185265,1,0.04234527423977852,1
1777497569637251328,-0.001714341109618545,1,0.001134093967266381,1,0.04248665645718575,1
1777497569647084544,-0.002079787431284785,1,0.001347972429357469,1,0.04655425623059273,1
1777497569656899584,-0.001165356952697039,1,0.001868304912932217,1,0.04226039722561836,1
1777497569667160832,0.001501518534496427,1,0.002330371644347906,1,0.0420658066868782,1
1777497569677402368,0.002079433295875788,1,0.001352237304672599,1,0.04392145201563835,1
1777497569687624192,0.0003784009895753115,1,0.0004630678449757397,1,0.04166239500045776,1
1777497569697826304,0.0007920342613942921,1,-0.001513188006356359,1,0.04481657966971397,1
1777497569708008448,0.0005698475288227201,1,-0.002022215398028493,1,0.04458495602011681,1
1777497569718171392,-4.596731741912663e-06,1,-0.00341906351968646,1,0.04586758092045784,1
1777497569728314624,0.0001460473577026278,1,-0.002628382528200746,1,0.04318121820688248,1
1777497569738437888,2.52910831477493e-06,1,-0.002833921927958727,1,0.04383796826004982,1
1777497569748541440,0.001267784973606467,1,-0.003750193398445845,1,0.04184975847601891,1
1777497569758625536,0.001340940129011869,1,-0.003548302687704563,1,0.04193142056465149,1
1777497569768690432,0.001231876434758306,1,-0.003396613523364067,1,0.04221052303910255,1
1777497569778735872,0.0005984098534099758,1,-0.002697897143661976,1,0.04380243271589279,1
1777497569788761600,0.0008145731408149004,1,-0.000749575556255877,1,0.04319414868950844,1
1777497569798771712,0.002439929638057947,1,0.0003784552682191133,1,0.0443429984152317,1
1777497569808762368,0.002401988487690687,1,-0.001126542454585433,1,0.04355401173233986,1
1777497569818733568,0.001072835060767829,1,-0.003584057558327913,1,0.04152801632881165,1
1777497569828685568,0.001411300385370851,1,-0.00428306870162487,1,0.04290376231074333,1
1777497569838618368,0.001618917449377477,1,-0.004801307804882526,1,0.04212246090173721,1
1777497569848531456,-0.001108626835048199,1,-0.003929837141185999,1,0.04177878051996231,1
1777497569858425344,-0.00197374215349555,1,-0.002972147194668651,1,0.04472950100898743,1
1777497569868299776,-0.002279968932271004,1,-0.002547597046941519,1,0.04229617118835449,1
1777497569878155264,-0.001075382344424725,1,-0.0007176121580414474,1,0.04304983839392662,1
1777497569887991808,0.0006830685888417065,1,-0.003542334074154496,1,0.041400246322155,1
1777497569897808896,-0.0004101775120943785,1,7.529536378569901e-05,1,0.04141905903816223,1
1777497569907838464,-5.253416020423174e-06,1,0.001879866467788815,1,0.04369083046913147,1
1777497569918079744,-0.001289271051064134,1,0.001669259276241064,1,0.04158654808998108,1
1777497569928301312,-0.001501222955994308,1,0.002306228969246149,1,0.04294382035732269,1
1777497569938503168,-0.000651392329018563,1,0.0005918432725593448,1,0.04279201477766037,1
1777497569948685056,-0.001031930209137499,1,0.0006535662687383592,1,0.04134572669863701,1
1777497569958847488,-0.001916444743983448,1,-0.002000872977077961,1,0.04209114238619804,1
1777497569968990464,-0.002048313152045012,1,-0.001045469660311937,1,0.04347426444292068,1
1777497569979113728,-0.001632790779694915,1,-0.00102689117193222,1,0.04164387658238411,1
1777497569989217280,-0.001250081462785602,1,-0.001182504813186824,1,0.03848437592387199,1
1777497569999300608,-0.0003373074287083,1,-0.001039028051309288,1,0.03991088643670082,1
1777497570009367552,0.0006715016206726432,1,-0.002548675052821636,1,0.04195491224527359,1
1777497570019414784,-5.977955879643559e-06,1,-0.0009073543478734791,1,0.04272930324077606,1
1777497570029442560,-0.001167367910966277,1,-0.0003313317138236016,1,0.03990275785326958,1
1777497570039450624,-0.0003194535674992949,1,-0.001969120698049664,1,0.04123466834425926,1
1777497570049439488,0.0001192597846966237,1,-0.002874848200008273,1,0.04213451221585274,1
1777497570059408640,-0.0001344351330772042,1,-0.003448264906182885,1,0.04285883903503418,1
1777497570069358336,-0.0008218780276365578,1,-0.004211066290736198,1,0.04201590269804001,1
1777497570079288832,-0.0002641720639076084,1,-0.004172994289547205,1,0.04266641288995743,1
1777497570089200384,0.001274968846701086,1,-0.00314556946977973,1,0.04296486079692841,1
1777497570099092480,0.003352713771164417,1,-0.002087026368826628,1,0.04297683387994766,1
1777497570108965376,0.003001180244609714,1,-0.002733235713094473,1,0.04287910833954811,1
1777497570118818816,0.0008807864505797625,1,-0.002051915507763624,1,0.04280379414558411,1
1777497570128653056,0.0006863553426228464,1,-0.0005625989870168269,1,0.04112375527620316,1
1777497570138467840,9.191790013574064e-05,1,0.0004832539125345647,1,0.0424167774617672,1
1777497570148495872,3.286625724285841e-05,1,0.001268606400117278,1,0.04319675266742706,1
1777497570158736896,-0.001121324021369219,1,0.0009321416728198528,1,0.04518634080886841,1
1777497570168957952,-0.001045374083332717,1,0.001667775097303092,1,0.0455816276371479,1
1777497570179160064,-0.001162890694104135,1,0.001890232670120895,1,0.04290108382701874,1
1777497570189342464,-0.002266884315758944,1,0.002011857461184263,1,0.04437730088829994,1
1777497570199504896,-0.00242875050753355,1,0.002426434773951769,1,0.04061039537191391,1
1777497570209647616,-0.001873466069810092,1,0.002174793044105172,1,0.04394834861159325,1
1777497570219770624,-0.001782945124432445,1,2.117999247275293e-05,1,0.04305801913142204,1
1777497570229873920,-0.0009836971294134855,1,-0.001320837181992829,1,0.04174136742949486,1
1777497570239957248,0.001293359557166696,1,-0.0003599693300202489,1,0.04188818112015724,1
1777497570250021120,-0.001177216414362192,1,-0.001552726607769728,1,0.04061483219265938,1
1777497570260066048,-0.0006364589207805693,1,-0.003552587935701013,1,0.04090322554111481,1
1777497570270091264,0.001221790444105864,1,-0.002956746844574809,1,0.04212870448827744,1
1777497570280097024,9.55688301473856e-05,1,-0.001587703009136021,1,0.04185676202178001,1
1777497570290083072,-9.962180047295988e-05,1,-0.003216885030269623,1,0.04275181517004967,1
1777497570300053504,3.682117676362395e-05,1,-0.004045202396810055,1,0.0437530092895031,1
1777497570310004736,0.001381194684654474,1,-0.004421019926667213,1,0.04542072489857674,1
1777497570319936768,0.001634847838431597,1,-0.002368602203205228,1,0.04256077110767365,1
1777497570329849344,0.002301978878676891,1,-0.002422956749796867,1,0.04433812946081161,1
1777497570339742720,0.002043822314590216,1,0.0002758844348136336,1,0.04579629004001617,1
1777497570349617152,-0.0003294048656243831,1,-0.0008986558532342315,1,0.04606375843286514,1
1777497570359471872,-0.000612377654761076,1,0.0001930658472701907,1,0.04346486181020737,1
1777497570369307648,-0.00112990103662014,1,0.0005357037880457938,1,0.04390591010451317,1
1777497570379124480,-0.0009463155874982476,1,-0.0006588432588614523,1,0.04453552514314651,1
1777497570389153280,-0.0009472029050812125,1,-0.001430450938642025,1,0.04329005628824234,1
1777497570399393536,-0.0008949395269155502,1,-0.001219980418682098,1,0.04419404268264771,1
1777497570409614080,-0.003113707527518272,1,-0.002753220731392503,1,0.04628501459956169,1
1777497570419814656,-0.002675974741578102,1,-0.003086227690801024,1,0.04410748928785324,1
1777497570429995520,-0.002045607194304466,1,-0.001899829134345055,1,0.04687079414725304,1
1777497570440157696,-0.001506829401478171,1,-0.002538531320169568,1,0.04333959892392159,1
1777497570450300416,-0.002732174005359411,1,-0.001908909645862877,1,0.04406246915459633,1
1777497570460423168,-0.002977608935907483,1,-0.001391976838931441,1,0.04302197322249413,1
1777497570470526464,-0.002796984277665615,1,0.000399035430746153,1,0.04280033707618713,1
1777497570480610560,-0.00278822286054492,1,0.0006749469321221113,1,0.04408774897456169,1
1777497570490674944,-0.00412590941414237,1,-0.0003511163813527673,1,0.04209458082914352,1
1777497570500719616,-0.00204661744646728,1,-0.0003763815911952406,1,0.04381965845823288,1
1777497570510745088,-0.0004606322036124766,1,0.0008874564664438367,1,0.04406726360321045,1
1777497570520751104,-0.0007732577505521476,1,-0.001784007996320724,1,0.04342178627848625,1
1777497570530737664,-2.621285966597497e-05,1,-0.001127612078562379,1,0.04263155162334442,1
1777497570540704768,-0.000263151916442439,1,-0.0008281686459667981,1,0.0407123938202858,1
1777497570550652416,0.001894630724564195,1,-0.004031112417578697,1,0.04205470904707909,1
1777497570560580608,0.001806408632546663,1,-0.002682944526895881,1,0.04225125536322594,1
1777497570570489344,0.0009599936893209815,1,-0.002048470545560122,1,0.04356476292014122,1
1777497570580378368,0.001764705637469888,1,-0.002289833500981331,1,0.04302649945020676,1
1777497570590248960,1.625827280804515e-05,1,0.0008230898529291153,1,0.04432611912488937,1
1777497570600100608,0.001324223936535418,1,-0.001298627117648721,1,0.04211359843611717,1
1777497570609933312,0.000701861921697855,1,-0.001894205226562917,1,0.04360005632042885,1
1777497570619746560,0.0001154691562987864,1,-0.000740442075766623,1,0.04276474565267563,1
1777497570629773568,0.0009975521825253963,1,-0.001677037100307643,1,0.04254452511668205,1
1777497570640014336,0.00128843798302114,1,-0.0008658914011903107,1,0.0424242876470089,1
1777497570650234880,-0.001217978075146675,1,-0.002951774513348937,1,0.04275909811258316,1
1777497570660435456,0.0001170347313745879,1,-0.002888767747208476,1,0.04086150228977203,1
1777497570670616064,0.0006516011198982596,1,-0.00263293762691319,1,0.04119892418384552,1
1777497570680776960,-0.001328213373199105,1,-0.002061433391645551,1,0.04177326709032059,1
1777497570690918912,-0.0005837360513396561,1,-0.002275396371260285,1,0.0439995601773262,1
1777497570701041664,-0.002449525520205498,1,-0.0006577727617695928,1,0.04067641869187355,1
1777497570711145216,-0.002819465938955545,1,-0.0006029601790942252,1,0.04100838303565979,1
1777497570721228544,-0.001144266570918262,1,-0.001817543059587479,1,0.0398949570953846,1
1777497570731292672,-0.002024609129875898,1,1.005828380584717e-05,1,0.04366752132773399,1
1777497570741337088,-0.00245212740264833,1,0.0001684982562437654,1,0.04358714073896408,1
1777497570751361792,-0.004570601508021355,1,-0.001470418181270361,1,0.043521948158741,1
1777497570761367040,-0.005334246903657913,1,-0.002911596791818738,1,0.04453454911708832,1
1777497570771353088,-0.005234365351498127,1,0.01551058236509562,1,0.04218592122197151,1
1777497570781319680,0.003337483620271087,1,-0.003252707421779633,1,0.06883596628904343,1
1777497570791266816,-0.000631596427410841,1,-0.002769327722489834,1,0.0100048091262579,1
1777497570801194752,0.001853177673183382,1,-0.01197378896176815,1,0.07966135442256927,1
1777497570811103232,0.01602956280112267,1,0.003271089401096106,1,0.003828646149486303,1
1777497570820992512,-0.0007257793331518769,1,-0.01747645623981953,1,0.07111024856567383,1
1777497570830862592,0.004793360829353333,1,-0.0060348198749125,1,0.01738921366631985,1
1777497570840713216,-0.01480260863900185,1,-0.018642358481884,1,0.04611380398273468,1
1777497570850545664,-0.003727413713932037,1,-0.01116198766976595,1,0.05320175737142563,1
1777497570860359168,-0.004160464741289616,1,-0.0004529532161541283,1,0.02787420526146889,1
1777497570870388736,-0.001260130666196346,1,0.002047494985163212,1,0.07483314722776413,1
1777497570880633600,0.01130635384470224,1,0.02251978777348995,1,0.002279106061905622,1
1777497570890858752,0.004734104033559561,1,0.01741115935146809,1,0.08025214821100235,1
1777497570901064192,0.01086144521832466,1,0.009039668366312981,1,0.02117176726460457,1
1777497570911250688,0.001942568575032055,1,-0.001420223736204207,1,0.06137426942586899,1
1777497570921417728,-0.005650418810546398,1,0.0009365270379930735,1,0.04013566300272942,1
1777497570931565056,-0.0109339626505971,1,0.007786579895764589,1,0.03100057691335678,1
1777497570941692416,-0.01632891781628132,1,-0.01024018321186304,1,0.05513365194201469,1
1777497570951800576,-0.0127602145075798,1,-0.01906372420489788,1,0.04989586025476456,1
1777497570961889024,-0.01524744648486376,1,-0.01590690575540066,1,0.03061657771468163,1
1777497570971958016,-0.009108642116189003,1,-0.01333178393542767,1,0.04953679442405701,1
1777497570982007552,-0.001660028588958085,1,-0.0003380260604899377,1,0.02896437980234623,1
1777497570992038400,0.00566049525514245,1,-0.01160888001322746,1,0.06792479008436203,1
1777497571002052096,0.01135751791298389,1,0.007465845439583063,1,0.02167601510882378,1
1777497571012047616,0.01245495956391096,1,0.01415716484189034,1,0.05921423435211182,1
1777497571022024192,0.0135837635025382,1,0.009357942268252373,1,0.02836937457323074,1
1777497571031981568,0.01070428546518087,1,0.001098644570447505,1,0.05833694711327553,1
1777497571041919744,0.003588444786146283,1,-0.006024239584803581,1,0.04628189653158188,1
1777497571051838464,0.004769093357026577,1,-0.003226631321012974,1,0.03468400612473488,1
1777497571061737728,0.00134684843942523,1,-0.008669872768223286,1,0.04059499874711037,1
1777497571071617536,0.001770432689227164,1,-0.0181967057287693,1,0.04228994622826576,1
1777497571081478400,0.001136695616878569,1,-0.016318179666996,1,0.04080455750226974,1
1777497571091320064,-0.003471634117886424,1,-0.004223153926432133,1,0.04446482285857201,1
1777497571101142528,-0.001606236677616835,1,0.003205216489732265,1,0.03253528848290443,1
1777497571110945792,-0.004410027991980314,1,0.001959524117410183,1,0.04618772864341736,1
1777497571121199104,-0.001617268426343799,1,0.004827344324439764,1,0.04218340292572975,1
1777497571131432704,-0.005269118119031191,1,0.007772685494273901,1,0.04575430229306221,1
1777497571141646592,-0.002643685322254896,1,0.01076061837375164,1,0.03800114989280701,1
1777497571151840512,-0.004787185229361057,1,0.00296374037861824,1,0.04370370134711266,1
1777497571162014976,-0.005650718696415424,1,-0.003923766314983368,1,0.04745146259665489,1
1777497571172169728,-0.002340782433748245,1,-0.001234524883329868,1,0.04436999559402466,1
1777497571182304256,-0.006248750723898411,1,0.000627103028818965,1,0.03961616009473801,1
1777497571192420608,-0.005486680194735527,1,-0.006752099841833115,1,0.03872008621692657,1
1777497571202518016,-0.006137832999229431,1,-0.01406734716147184,1,0.04672858119010925,1
1777497571212595968,-0.004419792909175158,1,-0.008380347862839699,1,0.04939817264676094,1
1777497571222654208,-0.0002508355246391147,1,0.002340845298022032,1,0.04015665501356125,1
1777497571232692736,-5.207140929996967e-06,1,0.004321378190070391,1,0.04348300769925117,1
1777497571242712064,0.002451912965625525,1,0.001593595487065613,1,0.04534439742565155,1
1777497571252711936,0.003705905983224511,1,0.003901988035067916,1,0.04828924685716629,1
1777497571262692352,0.001768824644386768,1,0.005660574417561293,1,0.04248462989926338,1
1777497571272653312,-0.0007594280177727342,1,0.001020314637571573,1,0.04166241362690926,1
1777497571282595328,-0.0009047287749126554,1,-0.00460149860009551,1,0.04479007422924042,1
1777497571292517632,-0.0006009702337905765,1,-0.009998937137424946,1,0.04577247053384781,1
1777497571302420480,-0.004054074175655842,1,-0.008241440169513226,1,0.04113764688372612,1
1777497571312303872,-0.003349811304360628,1,-0.01054293755441904,1,0.03882765397429466,1
1777497571322168064,-0.002076385309919715,1,-0.01373537722975016,1,0.04084481298923492,1
1777497571332013056,-9.895343100652099e-05,1,-0.01104818750172853,1,0.04839051142334938,1
1777497571341839104,0.002042490988969803,1,-0.005193410906940699,1,0.03986391797661781,1
1777497571351646976,0.004114896524697542,1,0.002598519437015057,1,0.04211021214723587,1
1777497571361668096,0.007376131135970354,1,0.00387375638820231,1,0.04073067009449005,1
1777497571371900672,0.009429562836885452,1,0.001058790017850697,1,0.04882542788982391,1
1777497571382113536,0.007117537781596184,1,0.00342011172324419,1,0.04636145755648613,1
1777497571392306688,0.003929730504751205,1,0.005052573978900909,1,0.04205988347530365,1
1777497571402479872,-0.0001535601186333224,1,0.0003327708691358566,1,0.04390353709459305,1
1777497571412633856,-0.002351443748921156,1,-0.006578317377716303,1,0.04063743725419044,1
1777497571422768128,-0.005456708371639252,1,-0.007641888223588467,1,0.0462958961725235,1
1777497571432882432,-0.006606097798794508,1,-0.006613901816308498,1,0.03893502429127693,1
1777497571442977024,-0.007949730381369591,1,-0.004997230600565672,1,0.04349207505583763,1
1777497571453051904,-0.007917251437902451,1,-0.00578610273078084,1,0.04178007692098618,1
1777497571463107072,-0.007597514893859625,1,-0.002033667406067252,1,0.0440312959253788,1
1777497571473143040,-0.007930207066237926,1,0.005809032823890448,1,0.04084961488842964,1
1777497571483162624,-0.00435691000893712,1,0.007395540364086628,1,0.03913695365190506,1
1777497571493162752,-0.004263506270945072,1,0.004744033329188824,1,0.04033438861370087,1
1777497571503143424,-0.002098025055602193,1,0.002442540600895882,1,0.04243209213018417,1
1777497571513104384,-0.001174761564470828,1,0.004677905235439539,1,0.0410953126847744,1
1777497571523045632,-4.851320409215987e-05,1,0.003552912501618266,1,0.04094564169645309,1
1777497571532967680,0.0002227400400443003,1,-0.003644604235887527,1,0.03853694349527359,1
1777497571542869760,-0.0006748730083927512,1,-0.01004452630877495,1,0.04486554488539696,1
1777497571552752640,-0.001824522390961647,1,-0.008003257215023041,1,0.04096448421478271,1
1777497571562616576,-0.002036921447142959,1,-0.008374685421586037,1,0.04099641740322113,1
1777497571572461056,-0.0005920777912251651,1,-0.008864619769155979,1,0.04112106189131737,1
1777497571582286080,0.001695070997811854,1,-0.01049399748444557,1,0.04176183789968491,1
1777497571592091648,0.003486430272459984,1,-0.006330626551061869,1,0.04396401345729828,1
1777497571602111232,0.003031241241842508,1,-0.0007894944865256548,1,0.03936449810862541,1
1777497571612344832,0.003764026798307896,1,-0.0007771247765049338,1,0.04223168641328812,1
1777497571622558464,0.00403003441169858,1,-0.001303269993513823,1,0.04306866601109505,1
1777497571632753408,0.003825316671282053,1,-0.0001429121184628457,1,0.04222835227847099,1
1777497571642928640,0.001466042827814817,1,0.0009431893704459071,1,0.03968314453959465,1
1777497571653083904,0.002344847423955798,1,-0.002289665164425969,1,0.04001077264547348,1
1777497571663219712,0.0007232662755995989,1,-0.005176557693630457,1,0.04311370477080345,1
1777497571673335808,0.0002448475279379636,1,-0.006114394403994083,1,0.04586688801646233,1
1777497571683432192,0.002482429146766663,1,-0.002194405067712069,1,0.04228243604302406,1
1777497571693508864,0.0002009887539315969,1,-0.001437474857084453,1,0.04486032947897911,1
1777497571703566336,0.00255144783295691,1,-0.001676369458436966,1,0.04234707728028297,1
1777497571713604352,0.0002668060478754342,1,0.00165308138821274,1,0.04707904160022736,1
1777497571723622912,-0.0001755349221639335,1,0.00481352536007762,1,0.04068463668227196,1
1777497571733622016,-1.609732862561941e-06,1,0.005238366778939962,1,0.04428942129015923,1
1777497571743601664,0.0007692644139751792,1,0.002165574347600341,1,0.04403133317828178,1
1777497571753561600,-0.0004621814587153494,1,-0.0008096270030364394,1,0.04681559652090073,1
1777497571763505408,-0.002918944926932454,1,-0.001030656043440104,1,0.04451612010598183,1
1777497571773433088,-0.003565646009519696,1,-0.002937618410214782,1,0.04270812124013901,1
1777497571783341312,-0.004776439629495144,1,-0.002543677808716893,1,0.04314911738038063,1
1777497571793230336,-0.004154096823185682,1,-0.004357120487838984,1,0.04451009631156921,1
1777497571803100160,-0.003106129355728626,1,-0.003109409939497709,1,0.04417756944894791,1
1777497571812951040,0.0009775366634130478,1,-0.001140318112447858,1,0.04085539653897285,1
1777497571822782464,0.003463108325377107,1,-0.0001872927241493016,1,0.04335704073309898,1
1777497571832594688,0.004127491731196642,1,-0.0006840839050710201,1,0.04070799052715302,1
1777497571842617600,0.00627225311473012,1,0.001614668406546116,1,0.04326737299561501,1
1777497571852851200,0.005324486177414656,1,0.003489626571536064,1,0.03992762044072151,1
1777497571863064832,0.004047519993036985,1,0.0001414435100741684,1,0.04033593460917473,1
1777497571873258752,0.002936176490038633,1,-0.001165744150057435,1,0.04168329387903214,1
1777497571883433728,0.002583967754617333,1,-0.003463614033535123,1,0.04385704547166824,1
1777497571893589248,0.00141535303555429,1,-0.004840302746742964,1,0.03860680758953094,1
1777497571903725056,0.002540736692026258,1,-0.006674975156784058,1,0.04368556663393974,1
1777497571913841152,0.001115627004764974,1,-0.008432759903371334,1,0.04260461032390594,1
1777497571923937536,-0.0004398807068355381,1,-0.0096809146925807,1,0.04597180336713791,1
1777497571934014208,0.001586453174240887,1,-0.004970036447048187,1,0.04348317533731461,1
1777497571944071424,0.0006486537167802453,1,-0.001000255695544183,1,0.04346874356269836,1
1777497571954108928,0.002656469820067286,1,0.000717397197149694,1,0.04153427481651306,1
1777497571964126976,0.001624296884983778,1,0.003101330250501633,1,0.04406631365418434,1
1777497571974126080,0.0002103603910654783,1,0.004499549977481365,1,0.04071037098765373,1
1777497571984105728,-0.002724441699683666,1,0.0009217301849275827,1,0.04207107052206993,1
1777497571994065920,-0.001908286241814494,1,0.000217008258914575,1,0.04325317963957787,1
1777497572004006656,-0.003212257055565715,1,-0.001496955868788064,1,0.04355422779917717,1
1777497572013927936,-0.003675851738080382,1,-0.00101278186775744,1,0.04118365794420242,1
1777497572023830016,-0.003789955284446478,1,0.001418008701875806,1,0.0426715575158596,1
1777497572033712640,-0.003113697748631239,1,-0.0007203784771263599,1,0.04225120320916176,1
1777497572043576576,-0.002695251489058137,1,-0.0005772225558757782,1,0.04294124618172646,1
1777497572053425408,-0.002480816096067429,1,0.002041819505393505,1,0.0425722561776638,1
1777497572063258880,-0.001894094049930573,1,0.002918772166594863,1,0.04124097153544426,1
1777497572073072896,-0.001869576750323176,1,0.005067780613899231,1,0.04436557739973068,1
1777497572083097088,-0.001922136638313532,1,0.006455353926867247,1,0.04425202682614326,1
1777497572093331200,-0.0009106795769184828,1,0.005929386243224144,1,0.04453376680612564,1
1777497572103545856,-0.0003183405788149685,1,0.003815343370661139,1,0.04427798837423325,1
1777497572113740544,-0.002118387259542942,1,0.001388305565342307,1,0.04509502276778221,1
1777497572123916032,-0.001236061565577984,1,-0.002885027322918177,1,0.04810149595141411,1
1777497572134072064,-0.001156039768829942,1,-0.003635599743574858,1,0.04387658089399338,1
1777497572144208640,-0.001835886505432427,1,-0.005518744233995676,1,0.04326134547591209,1
1777497572154324992,0.0005630311788991094,1,-0.005936088971793652,1,0.04229369014501572,1
1777497572164422144,0.001839915988966823,1,-0.005291280336678028,1,0.04197248443961143,1
1777497572174499328,0.005176544655114412,1,-0.005077362526208162,1,0.04160839319229126,1
1777497572184557056,0.003681468544527888,1,-0.0004203718854114413,1,0.03930817544460297,1
1777497572194595328,0.005177853628993034,1,-0.0007508046110160649,1,0.04394034296274185,1
1777497572204614400,0.00621184753254056,1,-0.0003026107151526958,1,0.04405033588409424,1
1777497572214614016,0.00505002960562706,1,-0.0004805640783160925,1,0.04434025287628174,1
1777497572224594176,0.003666937351226807,1,0.00152389332652092,1,0.04106570035219193,1
1777497572234554624,0.001916784676723182,1,-0.000759545830078423,1,0.04262931644916534,1
1777497572244495360,0.0003281966783106327,1,-0.002982128178700805,1,0.0412592850625515,1
1777497572254416896,-0.001227748696692288,1,-0.004802757874131203,1,0.04562286660075188,1
1777497572264319232,-0.001600244198925793,1,-0.005596428643912077,1,0.04322182759642601,1
1777497572274202112,-0.001666370197199285,1,-0.004413633141666651,1,0.041598130017519,1
1777497572284072192,-0.0006609327392652631,1,-0.001535939634777606,1,0.04485180228948593,1
1777497572293923584,-0.001440988969989121,1,-0.003738169791176915,1,0.04125808924436569,1
1777497572303755520,-0.002095472300425172,1,-0.000411857501603663,1,0.04354746639728546,1
1777497572313568256,-0.003805958200246096,1,0.003577422583475709,1,0.04194526374340057,1
1777497572323362304,-0.002986534964293242,1,0.00341384019702673,1,0.04457628354430199,1
1777497572333600512,-0.003446878166869283,1,0.00375601090490818,1,0.04138405248522758,1
1777497572343819008,-0.005066710524260998,1,0.003617148846387863,1,0.04242805019021034,1
1777497572354018048,-0.005613979883491993,1,0.003075716784223914,1,0.04362795129418373,1
1777497572364197888,-0.005146738141775131,1,0.0001297727721976116,1,0.0422680601477623,1
1777497572374357760,-0.004821240901947021,1,-3.651971928775311e-05,1,0.04395145550370216,1
1777497572384497920,-0.002665212843567133,1,-0.0017194818938151,1,0.04497052729129791,1
1777497572394618880,-0.001700605265796185,1,-0.002660142257809639,1,0.04120214655995369,1
1777497572404720640,-0.001426118309609592,1,-0.003541824407875538,1,0.04476694762706757,1
1777497572414804224,-0.0008497517555952072,1,-0.001479456666857004,1,0.04318232834339142,1
1777497572424868096,0.0006695782067254186,1,-0.001563416793942451,1,0.04603614658117294,1
1777497572434912768,0.001869107712991536,1,0.0005080437404103577,1,0.0412403792142868,1
1777497572444938496,0.001759087783284485,1,0.0005021017277613282,1,0.04272386804223061,1
1777497572454944768,0.001710104523226619,1,-0.002695320406928658,1,0.03907950222492218,1
1777497572464931584,0.001112986821681261,1,-0.003534736577421427,1,0.04331448301672935,1
1777497572474898944,0.0008853730978444219,1,-0.002859028754755855,1,0.04131033271551132,1
1777497572484847360,-0.000248078111326322,1,-0.002325587440282106,1,0.04480766877532005,1
1777497572494776832,0.000984492595307529,1,-0.001152844983153045,1,0.04440462961792946,1
1777497572504686848,0.002851539058610797,1,-0.002056060591712594,1,0.04410303384065628,1
1777497572514577664,0.003301813267171383,1,-0.003486891742795706,1,0.04562743380665779,1
1777497572524449280,0.002957480726763606,1,-0.001094363164156675,1,0.04410074651241302,1
1777497572534301952,0.0009446479380130768,1,0.001295797061175108,1,0.04370086267590523,1
1777497572544135168,0.001209194422699511,1,0.0007508613634854555,1,0.0443575456738472,1
1777497572553949440,0.002403530059382319,1,-0.0008532139472663403,1,0.04457170143723488,1
1777497572563745280,0.00161790894344449,1,0.0002677761658560485,1,0.04560333117842674,1
1777497572573992704,0.0001225525338668376,1,-0.001375612802803516,1,0.04520059004426003,1
1777497572584220416,0.0001261838478967547,1,-0.00125860411208123,1,0.04493093118071556,1
1777497572594428416,-0.001481963554397225,1,-0.001010939944535494,1,0.04299775138497353,1
1777497572604617472,-0.003175949910655618,1,-0.0003179135092068464,1,0.04195472225546837,1
1777497572614787584,-0.003313716500997543,1,0.001342845614999533,1,0.04231293871998787,1
1777497572624937728,-0.002434460213407874,1,0.0001618965179659426,1,0.04482189565896988,1
1777497572635068160,-0.002038764068856835,1,7.98432738520205e-05,1,0.04122045636177063,1
1777497572645179392,8.101528510451317e-05,1,-0.0008200668962672353,1,0.04341714084148407,1
1777497572655270912,0.0001748028735164553,1,-0.0003606603131629527,1,0.0390315055847168,1
1777497572665342464,-2.892786869779229e-05,1,0.000130853644805029,1,0.0433397963643074,1
1777497572675394560,0.0004432207788340747,1,-0.0006004451424814761,1,0.04018229618668556,1
1777497572685427456,0.0006335930665954947,1,-0.00173684093169868,1,0.04376781731843948,1
1777497572695441152,-0.0008407880086451769,1,-0.004574909340590239,1,0.04133077710866928,1
1777497572705438720,-0.002900796476751566,1,-0.0053513846360147,1,0.0421423465013504,1
1777497572715417088,-0.0001597047230461612,1,-0.004152699373662472,1,0.04005138576030731,1
1777497572725376256,-0.001498835976235569,1,-0.004581920336931944,1,0.04085680469870567,1
1777497572735316224,-0.001806073123589158,1,-0.004560322500765324,1,0.03868712857365608,1
1777497572745238016,-0.001902265124954283,1,-0.004377047531306744,1,0.04154019430279732,1
1777497572755140096,0.001539793564006686,1,-0.001414639875292778,1,0.04089554771780968,1
1777497572765023232,0.000125028338516131,1,0.0004103046667296439,1,0.04194381460547447,1
1777497572774887168,-0.0006357448291964829,1,-0.0005551818758249283,1,0.04112618416547775,1
1777497572784732672,-0.0001661638962104917,1,-0.0001631635968806222,1,0.04386548325419426,1
1777497572794558976,-0.0007606354774907231,1,-0.001171023235656321,1,0.03804219886660576,1
1777497572804366336,-0.001587584381923079,1,-0.00241796625778079,1,0.04524032026529312,1
1777497572814384128,-0.001007103826850653,1,-0.001930363243445754,1,0.04158591106534004,1
1777497572824611584,-0.0006032732781022787,1,-0.004538122564554214,1,0.04532035812735558,1
1777497572834819072,-0.001031993539072573,1,-0.00480381678789854,1,0.03926845639944077,1
1777497572845007872,-0.0001952740858541802,1,-0.004638255573809147,1,0.04442334920167923,1
1777497572855176960,-0.001148356823250651,1,-0.004538642708212137,1,0.04167461767792702,1
1777497572865326080,-0.0001220540143549442,1,-0.002349675400182605,1,0.04495490714907646,1
1777497572875455488,-1.174844237539219e-05,1,-0.001560101984068751,1,0.04472462087869644,1
1777497572885565440,-0.001259186072275043,1,-0.0001761957828421146,1,0.04795046895742416,1
1777497572895655680,-0.002448248444125056,1,0.0001503231469541788,1,0.04452653601765633,1
1777497572905725952,-0.002610967261716723,1,0.0004457890754565597,1,0.04716771095991135,1
1777497572915776768,-0.001393195707350969,1,-0.0007349690422415733,1,0.04140399396419525,1
1777497572925808640,-0.002463192213326693,1,-0.0006945701315999031,1,0.04326729848980904,1
1777497572935820800,-0.002610350027680397,1,-0.002218101173639297,1,0.04052936285734177,1
1777497572945813504,-0.00357061205431819,1,-0.002196901943534613,1,0.04201909899711609,1
1777497572955786496,-0.004517578985542059,1,-0.003768761176615953,1,0.04122227430343628,1
1777497572965739776,-0.003894769586622715,1,-0.002532655373215675,1,0.04365966096520424,1
1777497572975673856,-0.004167057108134031,1,-0.002502704970538616,1,0.04265990480780602,1
1777497572985594368,-0.002645330969244242,1,-0.002007635543122888,1,0.04163596406579018,1
1777497572995495936,-0.001965084346011281,1,0.0001333760446868837,1,0.04242204874753952,1
1777497573005378304,-0.001728694071061909,1,-0.0004916951293125749,1,0.0439082533121109,1
1777497573015241472,0.0004991651512682438,1,0.001665440737269819,1,0.04253149777650833,1
1777497573025085952,0.0007937154732644558,1,0.002685402985662222,1,0.04360829666256905,1
1777497573034911232,0.00100421835668385,1,0.004757561720907688,1,0.04421831667423248,1
1777497573044717568,0.00106749520637095,1,0.004058558493852615,1,0.04798037558794022,1
1777497573054735104,0.001930920640006661,1,0.005720829591155052,1,0.04434425383806229,1
1777497573064963072,0.002474253065884113,1,0.003485695226117969,1,0.0443292148411274,1
1777497573075171584,0.004268495831638575,1,-0.0007852195994928479,1,0.0464000403881073,1
1777497573085361152,0.005466110073029995,1,-0.001898097572848201,1,0.04187402129173279,1
1777497573095530752,0.003484223736450076,1,-0.008422190323472023,1,0.04870377108454704,1
1777497573105680640,0.003725285874679685,1,-0.01868986338376999,1,0.04807268083095551,1
1777497573115810560,0.01736333966255188,1,-0.01624000258743763,1,0.02856507524847984,1
1777497573125921280,0.008354268036782742,1,-0.02082860469818115,1,0.03422120958566666,1
1777497573136012288,0.009523550979793072,1,-0.02109481953084469,1,0.07031324505805969,1
1777497573146083328,0.005608176812529564,1,-0.0150935398414731,1,0.009887375868856907,1
1777497573156134912,-0.008415709249675274,1,-0.01891277730464935,1,0.06982544809579849,1
1777497573166167296,0.003389620454981923,1,-0.0005459326202981174,1,0.02439674362540245,1
1777497573176180224,-0.006531017832458019,1,-0.006123022176325321,1,0.04390504956245422,1
1777497573186173440,-0.004189850762486458,1,-0.0002468919265083969,1,0.05248293280601501,1
1777497573196147200,0.0005157847190275788,1,0.01283968053758144,1,0.04293083399534225,1
1777497573206101760,0.002222838345915079,1,0.01026194542646408,1,0.05524585396051407,1
1777497573216040704,0.007742338348180056,1,0.01271512359380722,1,0.03148050978779793,1
1777497573225960192,-0.01571907475590706,1,0.006036496721208096,1,0.07686169445514679,1
1777497573235860736,-0.04626231268048286,1,0.00733837578445673,1,0.0152905136346817,1
1777497573245741824,-0.04274076595902443,1,0.02723231911659241,1,0.04179675132036209,1
1777497573255603712,-0.01393253076821566,1,0.02127521671354771,1,0.07666579633951187,1
1777497573265446400,-0.01407141890376806,1,0.04438961297273636,1,0.05283966660499573,1
1777497573275269632,-0.016350157558918,1,0.008452421985566616,1,0.02352524176239967,1
1777497573285073664,0.004481988027691841,1,-0.00128401443362236,1,0.03309552371501923,1
1777497573295090432,-0.002199983457103372,1,-0.01182827074080706,1,0.04879168793559074,1
1777497573305319424,-0.01394381187856197,1,-0.03601400181651115,1,0.0396333783864975,1
1777497573315528448,-0.005777015350759029,1,-0.01316479407250881,1,-0.008145295083522797,1
1777497573325718272,-0.00220829714089632,1,-0.01565182209014893,1,0.1165276914834976,1
1777497573335888384,0.0266694687306881,1,0.009916771203279495,1,-0.002310162875801325,1
1777497573346038528,0.004026992712169886,1,-0.006354191806167364,1,0.06421653181314468,1
1777497573356169472,0.02258554100990295,1,-0.02474697679281235,1,0.02923769876360893,1
1777497573366280704,0.01328661479055882,1,-0.02487875893712044,1,0.02732392400503159,1
1777497573376372480,0.01519118342548609,1,-0.0201023742556572,1,0.08247729390859604,1
1777497573386444544,0.02307835593819618,1,-0.009966637939214706,1,-0.01208939123898745,1
1777497573396497152,0.01734117418527603,1,0.001927733770571649,1,0.09682466834783554,1
1777497573406530560,0.0334734134376049,1,0.01392934285104275,1,0.01039558555930853,1
1777497573416546304,0.01562937907874584,1,0.01656236127018929,1,0.06832493841648102,1
1777497573426543872,0.005403228104114532,1,0.005317979957908392,1,0.04068364575505257,1
1777497573436522752,-0.006705462001264095,1,-0.0265301838517189,1,0.0242948941886425,1
1777497573446482176,-0.007254798896610737,1,-0.01573973894119263,1,0.06196508556604385,1
1777497573456422656,-0.01381378807127476,1,-0.01424898765981197,1,0.01174184866249561,1
1777497573466343680,-0.008626044727861881,1,-0.01466232445091009,1,0.04823856800794601,1
1777497573476245504,-0.008938727900385857,1,0.005359441041946411,1,0.05226918682456017,1
1777497573486128128,-0.009802933782339096,1,0.01311137340962887,1,0.04836153984069824,1
1777497573495991552,-0.01370569039136171,1,0.0165818128734827,1,0.03381895273923874,1
1777497573505836544,-0.01331970561295748,1,0.007708407007157803,1,0.05026376619935036,1
1777497573515662336,-0.01335820090025663,1,-0.005671043880283833,1,0.04402722418308258,1
1777497573525468928,-0.0127748865634203,1,0.009228222072124481,1,0.0285166073590517,1
1777497573535486976,-0.005111598409712315,1,0.01471602823585272,1,0.05331741645932198,1
1777497573545715712,-0.004827044904232025,1,0.01102062314748764,1,0.04669731855392456,1
1777497573555925248,0.001315571833401918,1,0.01276267133653164,1,0.04460478946566582,1
1777497573566115072,-0.006420404184609652,1,0.01017810869961977,1,0.05328479409217834,1
1777497573576284928,-0.00424305209890008,1,1.625443110242486e-05,1,0.02505579777061939,1
1777497573586436352,-0.008002740330994129,1,-0.01286611892282963,1,0.05274645984172821,1
1777497573596568064,-0.00927896611392498,1,-0.00967868696898222,1,0.03364995867013931,1
1777497573606680320,-0.004218642134219408,1,-0.00806064996868372,1,0.04251659661531448,1
1777497573616772864,0.0005936872330494225,1,0.001651313388720155,1,0.05069214850664139,1
1777497573626845952,0.006481605116277933,1,0.001570001943036914,1,0.04403878003358841,1
1777497573636899840,0.006225892808288336,1,-0.001890320330858231,1,0.04172481596469879,1
1777497573646934016,0.007333353627473116,1,-0.001320574665442109,1,0.04271937161684036,1
1777497573656948736,0.003367617260664701,1,-0.01132606249302626,1,0.04399706795811653,1
1777497573666944256,0.004597558174282312,1,-0.01016113255172968,1,0.02902811951935291,1
1777497573676920064,0.00660863658413291,1,-0.009607831947505474,1,0.04815751314163208,1
1777497573686876672,0.0092656584456563,1,-0.008124054409563541,1,0.0403793565928936,1
1777497573696813824,0.01081204600632191,1,-0.006827482022345066,1,0.04242804646492004,1
