FILE_INFO
ListSeparator=,
DecimalSeparator=.

SESSION_INFO
TimeZone,UTC
TimeZoneOffset,0
DateTimeFormat,nnnnnnnnnnnnnnnnnnn
StartTime,04/29/26 21:46:26.049544448
TimeFormat,Unix

DEVICE_INFO
Address,*

CHANNEL_INFO
Channel,Type,SampleRate,Equation,Coefficients,Unit,UnitSymbol,WhereApplied,WhenApplied
inertial-6286.188861:estLinearAccelX,Timeseries,100Hz,,,,,,
inertial-6286.188861:estLinearAccelX:valid,ValidFlag,100Hz,,,,,,
inertial-6286.188861:estLinearAccelY,Timeseries,100Hz,,,,,,
inertial-6286.188861:estLinearAccelY:valid,ValidFlag,100Hz,,,,,,
inertial-6286.188861:estLinearAccelZ,Timeseries,100Hz,,,,,,
inertial-6286.188861:estLinearAccelZ:valid,ValidFlag,100Hz,,,,,,

DATA_START
Time,inertial-6286.188861:estLinearAccelX,inertial-6286.188861:estLinearAccelX:valid,inertial-6286.188861:estLinearAccelY,inertial-6286.188861:estLinearAccelY:valid,inertial-6286.188861:estLinearAccelZ,inertial-6286.188861:estLinearAccelZ:valid
1777499186049544448,0.02923613600432873,1,0.0254343543201685,1,0.0382332019507885,1
1777499186059750144,0.0417405292391777,1,0.03729185089468956,1,0.03258393704891205,1
1777499186069937152,0.03722753003239632,1,0.05384868010878563,1,0.05042335018515587,1
1777499186080104192,0.02019035443663597,1,0.07234327495098114,1,0.04616103321313858,1
1777499186090251264,0.004085487686097622,1,0.07101328670978546,1,0.05213458463549614,1
1777499186100378368,-0.06136488541960716,1,0.006184660829603672,1,0.001681255176663399,1
1777499186110485760,0.02934632450342178,1,-0.0202841479331255,1,0.08858828246593475,1
1777499186120573440,0.05305676907300949,1,0.002867415547370911,1,-0.0007290029898285866,1
1777499186130641408,0.007857690565288067,1,-0.02051042392849922,1,0.04064742848277092,1
1777499186140689664,-0.0230973344296217,1,-0.07973766326904297,1,0.05866776034235954,1
1777499186150719744,-0.02941672690212727,1,-0.07507722079753876,1,0.005274889059364796,1
1777499186160730112,-0.01658755354583263,1,-0.06096576154232025,1,0.05818525701761246,1
1777499186170954240,0.01126667391508818,1,-0.07558693736791611,1,0.04775702580809593,1
1777499186181390848,0.01676627062261105,1,-0.09427398443222046,1,0.02614262327551842,1
1777499186191806976,0.01192145515233278,1,-0.05859903246164322,1,0.03182005137205124,1
1777499186202202624,0.01623702794313431,1,0.00986846350133419,1,0.06761935353279114,1
1777499186212578304,0.01219694130122662,1,0.06191721558570862,1,0.05268701910972595,1
1777499186222933504,0.002081803977489471,1,0.08401452004909515,1,0.05968702211976051,1
1777499186233268224,0.002253232756629586,1,0.1093054339289665,1,0.05729680880904198,1
1777499186243582720,0.02099910005927086,1,0.1345699727535248,1,0.04821455851197243,1
1777499186253876480,0.04045987874269485,1,0.1247368454933167,1,0.04477956518530846,1
1777499186264150016,0.05897011607885361,1,0.09816493093967438,1,0.03723229095339775,1
1777499186274403328,0.05847916752099991,1,0.07997008413076401,1,0.03190561011433601,1
1777499186284636416,0.05582891032099724,1,0.06358319520950317,1,0.03028396144509315,1
1777499186294849280,0.05249695479869843,1,0.04056618735194206,1,0.03760655224323273,1
1777499186305042176,0.04158999025821686,1,0.02202302031219006,1,0.04918998852372169,1
1777499186315214848,0.01945441216230392,1,0.0182756669819355,1,0.04537864774465561,1
1777499186325367808,-0.004266724921762943,1,0.01528558693826199,1,0.05097043886780739,1
1777499186335500288,-0.02419565245509148,1,-0.0009550420800223947,1,0.04767896607518196,1
1777499186345612800,-0.04104609414935112,1,-0.01974653080105782,1,0.03319716453552246,1
1777499186355706880,-0.05648816749453545,1,-0.02882634103298187,1,0.05335870757699013,1
1777499186365782272,-0.04361961036920547,1,-0.02915129251778126,1,0.0547768622636795,1
1777499186375837696,-0.06322501599788666,1,-0.02295248582959175,1,0.05582280457019806,1
1777499186385873408,-0.06541028618812561,1,-0.05334553867578506,1,0.004807048011571169,1
1777499186395889408,-0.09111417084932327,1,-0.05906975269317627,1,0.06304672360420227,1
1777499186405885696,-0.08898796141147614,1,-0.07822567969560623,1,0.05218717828392982,1
1777499186416098048,-0.07055503875017166,1,-0.09809145331382751,1,0.04626566171646118,1
1777499186426526720,-0.02908184565603733,1,-0.1262760311365128,1,0.004210515879094601,1
1777499186436935168,-0.008886946365237236,1,-0.1708628982305527,1,0.07023351639509201,1
1777499186447323136,0.007286586798727512,1,-0.1863416582345963,1,0.002467077691107988,1
1777499186457691136,-0.01493597775697708,1,-0.2137301117181778,1,0.06169210746884346,1
1777499186468039936,-0.03463518992066383,1,-0.2230189442634583,1,0.02757891453802586,1
1777499186478368512,-0.07043042778968811,1,-0.2074002623558044,1,0.03579424321651459,1
1777499186488677120,-0.07431526482105255,1,-0.1826266199350357,1,0.009894282557070255,1
1777499186498966016,-0.06532227993011475,1,-0.1506956070661545,1,0.03456656262278557,1
1777499186509234944,-0.03082047961652279,1,-0.09542085975408554,1,0.01897126063704491,1
1777499186519484160,-0.007763189263641834,1,-0.01591292768716812,1,0.03941023722290993,1
1777499186529713408,0.03108314424753189,1,0.08433318883180618,1,0.04630725830793381,1
1777499186539923200,0.05380010604858398,1,0.1693544387817383,1,0.03799743577837944,1
1777499186550113280,0.07207101583480835,1,0.2442622631788254,1,0.06464866548776627,1
1777499186560283392,0.07661040872335434,1,0.3061448335647583,1,0.07664577662944794,1
1777499186570434048,0.06439674645662308,1,0.3204855620861053,1,0.0735260471701622,1
1777499186580564992,0.03900083526968956,1,0.2869129478931427,1,0.08234456181526184,1
1777499186590679808,0.01266490016132593,1,0.2051236480474472,1,0.05235260352492332,1
1777499186600775424,-0.007459296379238367,1,0.08165533840656281,1,0.05737046897411346,1
1777499186610851328,-0.02387993969023228,1,-0.06127146258950233,1,0.04351157695055008,1
1777499186620908032,-0.051047183573246,1,-0.1773954778909683,1,0.03528639301657677,1
1777499186630946048,-0.08659125119447708,1,-0.2529559731483459,1,0.001880904659628868,1
1777499186640964096,-0.1052937060594559,1,-0.3098884224891663,1,0.01586762815713882,1
1777499186650962944,-0.1110313758254051,1,-0.3147763013839722,1,0.003445002250373363,1
1777499186661172224,-0.09503789991140366,1,-0.2642089128494263,1,0.003776860190555453,1
1777499186671591424,-0.0738757848739624,1,-0.1847561150789261,1,0.02539453655481339,1
1777499186681990144,-0.02519655600190163,1,-0.09706595540046692,1,0.02801921963691711,1
1777499186692368384,0.03175030276179314,1,-0.002603871747851372,1,0.04503503069281578,1
1777499186702726144,0.08107448369264603,1,0.09596869349479675,1,0.05158365517854691,1
1777499186713064448,0.1104540005326271,1,0.1832026541233063,1,0.05776523053646088,1
1777499186723382016,0.1124541535973549,1,0.2252439260482788,1,0.06428068876266479,1
1777499186733679360,0.09483374655246735,1,0.228402316570282,1,0.08543142676353455,1
1777499186743956224,0.06811072677373886,1,0.213103711605072,1,0.05950154364109039,1
1777499186754213120,0.03727399557828903,1,0.153364434838295,1,0.08174559473991394,1
1777499186764449792,0.0007142580579966307,1,0.06597483158111572,1,0.03753118216991425,1
1777499186774666240,-0.0184670127928257,1,-0.01427661161869764,1,0.03286907821893692,1
1777499186784862208,-0.03784188628196716,1,-0.1046963930130005,1,0.02407081238925457,1
1777499186795038720,-0.05123318731784821,1,-0.1925914585590363,1,0.04772131890058517,1
1777499186805195264,-0.05306230112910271,1,-0.2261861711740494,1,0.000804500188678503,1
1777499186815332608,-0.03554683551192284,1,-0.2256852090358734,1,0.01221591420471668,1
1777499186825449984,-0.003303685691207647,1,-0.1832150518894196,1,0.00696706585586071,1
1777499186835547904,0.03167536109685898,1,-0.1518813818693161,1,0.03708378598093987,1
1777499186845625856,0.02252639457583427,1,-0.1347990483045578,1,0.07582663744688034,1
1777499186855684352,-0.05250562727451324,1,-0.1054873466491699,1,0.07961617410182953,1
1777499186865725696,-0.116926297545433,1,-0.08668269217014313,1,0.01265460904687643,1
1777499186875747328,-0.2088192403316498,1,-0.119747593998909,1,0.122964508831501,1
1777499186885749248,-0.1768717765808105,1,-0.1547722667455673,1,-0.0218953862786293,1
1777499186895731200,-0.1356262713670731,1,-0.2022407799959183,1,0.01752088591456413,1
1777499186905930240,-0.02240967750549316,1,-0.1806951314210892,1,-0.01924623176455498,1
1777499186916345856,0.05318505316972733,1,-0.1716355085372925,1,0.02595333382487297,1
1777499186926740480,0.08757179975509644,1,-0.1171517223119736,1,0.005889863707125187,1
1777499186937115136,0.03596018254756927,1,-0.03787166997790337,1,0.06162555515766144,1
1777499186947469056,-0.05589073151350021,1,0.02817857265472412,1,0.06170661002397537,1
1777499186957803264,-0.1334073394536972,1,0.1348661333322525,1,-0.01283358316868544,1
1777499186968117248,-0.1955409497022629,1,0.2000154703855515,1,0.1130755394697189,1
1777499186978410496,-0.1702471822500229,1,0.1291499435901642,1,0.03838532418012619,1
1777499186988683776,-0.1070428639650345,1,0.01590604707598686,1,0.0457436628639698,1
1777499186998936576,-0.04405584558844566,1,-0.08085935562849045,1,0.02254747040569782,1
1777499187009169408,0.01538107171654701,1,-0.1556286811828613,1,0.00913655199110508,1
1777499187019381760,0.03638109937310219,1,-0.2078592926263809,1,0.02594294212758541,1
1777499187029573888,0.0191660188138485,1,-0.2548815608024597,1,0.04690846428275108,1
1777499187039746048,0.01850597187876701,1,-0.2220721542835236,1,0.01275612507015467,1
1777499187049898240,0.06903760135173798,1,-0.1450588405132294,1,0.002708620857447386,1
1777499187060030208,0.1774197518825531,1,-0.02767531760036945,1,0.0006801181007176638,1
1777499187070141952,0.2254979014396667,1,0.05402352660894394,1,0.03570213913917542,1
1777499187080233984,0.1780363321304321,1,0.1218978688120842,1,0.06681415438652039,1
1777499187090305792,0.08198857307434082,1,0.2525403201580048,1,0.04966462403535843,1
1777499187100357888,-0.01097618509083986,1,0.396155059337616,1,0.1476739943027496,1
1777499187110390016,0.01594345085322857,1,0.5430785417556763,1,0.0414150133728981,1
1777499187120406784,0.06823072582483292,1,0.5592029094696045,1,0.1476083099842072,1
1777499187130403840,0.1581402122974396,1,0.4944821894168854,1,0.09269280731678009,1
1777499187140380928,0.1937094926834106,1,0.465638667345047,1,0.08532518148422241,1
1777499187150338560,0.1829228550195694,1,0.4305749535560608,1,0.04143858700990677,1
1777499187160754688,0.1393820196390152,1,0.2955815196037292,1,0.1213875189423561,1
1777499187171150336,0.06096922233700752,1,0.1687684804201126,1,0.0624089315533638,1
1777499187181525760,-0.02665800414979458,1,0.08454816788434982,1,0.1034698709845543,1
1777499187191880704,-0.07470803707838058,1,-0.008172979578375816,1,0.01655002683401108,1
1777499187202215424,-0.1065176501870155,1,-0.1456738412380219,1,0.01766606047749519,1
1777499187212529664,-0.08119777590036392,1,-0.3046191334724426,1,-0.00450835470110178,1
1777499187222823680,-0.09404246509075165,1,-0.3687039315700531,1,0.007750687189400196,1
1777499187233096960,-0.08415746688842773,1,-0.3731394410133362,1,-0.04678620398044586,1
1777499187243350016,-0.08840826898813248,1,-0.3844730854034424,1,-0.04621939733624458,1
1777499187253584640,-0.07951897382736206,1,-0.3746525049209595,1,0.02411288768053055,1
1777499187263799040,-0.08381478488445282,1,-0.2845833301544189,1,-0.001729766954667866,1
1777499187273993216,-0.07415122538805008,1,-0.1504682749509811,1,0.0131442416459322,1
1777499187284167424,-0.05040790513157845,1,-0.03964394330978394,1,0.006992505863308907,1
1777499187294321920,-0.009069738909602165,1,0.02541569992899895,1,0.05212587118148804,1
1777499187304455936,0.02401868440210819,1,0.07508630305528641,1,0.0814230889081955,1
1777499187314569984,0.03116354532539845,1,0.1235740631818771,1,0.1127931550145149,1
1777499187324664064,0.03050936572253704,1,0.1860175877809525,1,0.03398767486214638,1
1777499187334738432,0.0372050441801548,1,0.2148326486349106,1,0.09035805612802505,1
1777499187344792576,0.05624227598309517,1,0.1843152344226837,1,0.05821453034877777,1
1777499187354827264,0.06412188708782196,1,0.1491523087024689,1,0.07040902972221375,1
1777499187364841984,0.05495648831129074,1,0.1260458827018738,1,0.03936868906021118,1
1777499187374836992,0.04622893407940865,1,0.08969949185848236,1,0.05846667662262917,1
1777499187384812288,0.03463385999202728,1,0.04106718301773071,1,0.04316184669733047,1
1777499187394767616,0.004694805480539799,1,0.006819854024797678,1,0.06332646310329437,1
1777499187404940032,-0.0204697884619236,1,-0.001924411510117352,1,0.02101379819214344,1
1777499187415328512,-0.0391937643289566,1,-0.03428870439529419,1,0.02912979945540428,1
1777499187425696512,-0.03764483332633972,1,-0.08030882477760315,1,0.02920787967741489,1
1777499187436044288,-0.02513178810477257,1,-0.1095006316900253,1,0.02264028042554855,1
1777499187446371584,-0.04238944873213768,1,-0.08776743710041046,1,0.01941709034144878,1
1777499187456678656,-0.04765231534838676,1,-0.0825176015496254,1,0.01994841918349266,1
1777499187466965504,-0.03690598160028458,1,-0.09697733819484711,1,0.02663108520209789,1
1777499187477232128,-0.02357255108654499,1,-0.1135843098163605,1,0.06230392679572105,1
1777499187487478528,0.004675962496548891,1,-0.1033293753862381,1,0.02527136728167534,1
1777499187497704448,0.0007591982721351087,1,-0.08325962722301483,1,0.07292135059833527,1
1777499187507910144,0.01304332539439201,1,-0.03167912364006042,1,-0.003641107119619846,1
1777499187518095616,0.02962599694728851,1,0.0197000578045845,1,0.07096989452838898,1
1777499187528260864,0.05097706615924835,1,0.04682547971606255,1,0.03665245324373245,1
1777499187538406144,0.06814999133348465,1,0.0645548403263092,1,0.07855093479156494,1
1777499187548531456,0.07208563387393951,1,0.1027174815535545,1,0.0303967297077179,1
1777499187558637568,0.07161802053451538,1,0.1428713202476501,1,0.07052416354417801,1
1777499187568724992,0.07203245908021927,1,0.1502333432435989,1,0.01167541369795799,1
1777499187578792448,0.06856883317232132,1,0.1211286634206772,1,0.04052757099270821,1
1777499187588840448,0.06942848116159439,1,0.1215714886784554,1,0.0120889563113451,1
1777499187598868992,0.08255866169929504,1,0.14447021484375,1,0.03262776508927345,1
1777499187608877312,0.09713445603847504,1,0.1660716831684113,1,0.0103549612686038,1
1777499187618865920,0.1199485212564468,1,0.2095697224140167,1,0.05288258939981461,1
1777499187628834816,0.1640352755784988,1,0.2985164523124695,1,0.06383628398180008,1
1777499187638784000,0.1703698039054871,1,0.3142854869365692,1,0.0690595805644989,1
1777499187648949248,0.1555396467447281,1,0.3147667348384857,1,0.07834050804376602,1
1777499187659330560,0.1150263771414757,1,0.3302468359470367,1,0.04939471930265427,1
1777499187669691392,0.1354725062847137,1,0.3157705664634705,1,0.0836431160569191,1
1777499187680032000,0.1385298371315002,1,0.2822833657264709,1,0.09654822200536728,1
1777499187690352384,0.1363934576511383,1,0.2487092316150665,1,0.05121716856956482,1
1777499187700652544,0.08067794144153595,1,0.2227392792701721,1,0.08598414063453674,1
1777499187710932480,0.04835920035839081,1,0.1593008935451508,1,0.03308422490954399,1
1777499187721192192,0.08322543650865555,1,0.0110772829502821,1,0.08464961498975754,1
1777499187731431680,0.04829041287302971,1,-0.09815207123756409,1,-0.05426401272416115,1
1777499187741650944,0.05488256365060806,1,-0.1393506824970245,1,-0.00918438658118248,1
1777499187751849984,0.03211703151464462,1,-0.3076522052288055,1,0.03083117306232452,1
1777499187762028800,0.03866507858037949,1,-0.4396238029003143,1,0.05884301662445068,1
1777499187772187648,0.01326669380068779,1,-0.4771034419536591,1,0.03834205493330956,1
1777499187782326528,-0.02786136046051979,1,-0.5176693797111511,1,0.002390861976891756,1
1777499187792445440,-0.04704281315207481,1,-0.4974436461925507,1,0.02885249257087708,1
1777499187802544128,-0.07639992237091064,1,-0.4871529936790466,1,0.04611065238714218,1
1777499187812623104,-0.08765589445829391,1,-0.4294353425502777,1,0.02255101874470711,1
1777499187822682112,-0.1210175901651382,1,-0.3360001146793365,1,0.07324758917093277,1
1777499187832721152,-0.1479916125535965,1,-0.2464988529682159,1,0.04403940215706825,1
1777499187842743296,-0.1744653433561325,1,-0.1754565984010696,1,0.02806496992707253,1
1777499187852745728,-0.2047391086816788,1,-0.1000255271792412,1,0.03003956563770771,1
1777499187862728448,-0.2009022682905197,1,0.01745458133518696,1,0.004731252323836088,1
1777499187872691456,-0.2190129011869431,1,0.07426384091377258,1,0.09081428498029709,1
1777499187882635008,-0.1952364593744278,1,0.1209918260574341,1,0.02448556944727898,1
1777499187892794368,-0.196642130613327,1,0.1872920542955399,1,0.07472919672727585,1
1777499187903169024,-0.1730799973011017,1,0.2328348457813263,1,0.0591936856508255,1
1777499187913523200,-0.1453527957201004,1,0.2519047856330872,1,0.07013615220785141,1
1777499187923856896,-0.1155884340405464,1,0.2396820336580276,1,0.06010551005601883,1
1777499187934170368,-0.07931923121213913,1,0.2163198888301849,1,0.06940487027168274,1
1777499187944463872,-0.04644230380654335,1,0.2056475728750229,1,0.05579845234751701,1
1777499187954736640,-0.006113135721534491,1,0.1380395889282227,1,0.06023307889699936,1
1777499187964989440,0.02865276113152504,1,0.06344076991081238,1,0.01662105694413185,1
1777499187975222016,0.04115679860115051,1,0.01775810122489929,1,0.05707194283604622,1
1777499187985434368,0.06824827194213867,1,-0.05252119153738022,1,0.01590933836996555,1
1777499187995626240,0.08379220217466354,1,-0.1416457146406174,1,0.0339491181075573,1
1777499188005798400,0.09578567743301392,1,-0.2009042501449585,1,0.03443609550595284,1
1777499188015950592,0.1007786318659782,1,-0.2179729044437408,1,0.05008592829108238,1
1777499188026082560,0.09459450095891953,1,-0.2101593911647797,1,0.01880215667188168,1
1777499188036194560,0.08300098776817322,1,-0.1961273699998856,1,0.01965787447988987,1
1777499188046286592,0.06327328085899353,1,-0.1716973334550858,1,0.04068174585700035,1
1777499188056358656,0.03931130841374397,1,-0.1150719076395035,1,0.05009149387478828,1
1777499188066410752,0.01276199147105217,1,-0.02521520853042603,1,0.001071827486157417,1
1777499188076442880,-0.009226174093782902,1,0.02913147024810314,1,0.05005860328674316,1
1777499188086455296,-0.0278281606733799,1,0.06503431499004364,1,0.0606566034257412,1
1777499188096450304,-0.04700369760394096,1,0.1143461316823959,1,0.044615488499403,1
1777499188106425600,-0.06353916227817535,1,0.1564342081546783,1,0.05209270119667053,1
1777499188116380928,-0.07395089417695999,1,0.1694771200418472,1,0.0644201785326004,1
1777499188126316800,-0.07248232513666153,1,0.1441962867975235,1,0.0535019226372242,1
1777499188136471552,-0.07112662494182587,1,0.1191223561763763,1,0.04797343909740448,1
1777499188146844672,-0.06288332492113113,1,0.1082147881388664,1,0.06469589471817017,1
1777499188157197824,-0.04772579297423363,1,0.06511390209197998,1,0.04062437266111374,1
1777499188167529984,-0.02554012276232243,1,-0.008039946667850018,1,0.04546218365430832,1
1777499188177842688,-0.007214900106191635,1,-0.054044209420681,1,0.04433713853359222,1
1777499188188134912,0.009631860069930553,1,-0.09644518047571182,1,0.0289355032145977,1
1777499188198406912,0.0208981279283762,1,-0.1078491806983948,1,-0.02000859193503857,1
1777499188208658176,0.0767209380865097,1,-0.1787798255681992,1,0.07906515896320343,1
1777499188218889472,0.1221887469291687,1,-0.1066266894340515,1,-0.0422501340508461,1
1777499188229100288,0.03735546767711639,1,-0.05785240232944489,1,-0.145484447479248,1
1777499188239291648,-0.06986268609762192,1,-0.111991859972477,1,0.1807457506656647,1
1777499188249462528,0.2591485381126404,1,-0.5779980421066284,1,-0.163343608379364,1
1777499188259613696,-0.07973379641771317,1,-0.2191440165042877,1,0.08412861824035645,1
1777499188269746432,0.01419262494891882,1,0.04573041200637817,1,-0.03397303819656372,1
1777499188279858944,0.02476639673113823,1,0.1684422940015793,1,-0.06649526953697205,1
1777499188289951744,-0.03311825916171074,1,0.1061916276812553,1,0.1572975665330887,1
1777499188300024320,0.06446626782417297,1,0.09534113109111786,1,-0.01504785008728504,1
1777499188310077184,0.06326571106910706,1,0.1646200120449066,1,0.1315805464982986,1
1777499188320110080,0.07308785617351532,1,0.1123415678739548,1,-0.02969769760966301,1
1777499188330123008,-0.01607100665569305,1,0.02475973218679428,1,0.06440847367048264,1
1777499188340116224,0.001460250467061996,1,0.04886213317513466,1,0.08783850073814392,1
1777499188350089984,0.04873265698552132,1,0.08360645174980164,1,0.1948399841785431,1
1777499188360043776,0.006190158426761627,1,0.154818058013916,1,-0.2779110968112946,1
1777499188369978368,-0.1076682657003403,1,-0.06299938261508942,1,0.4162148833274841,1
1777499188379892992,0.08268620073795319,1,-0.1060851067304611,1,-0.2988145351409912,1
1777499188390261760,-0.1322015225887299,1,-0.1147255003452301,1,0.3018097877502441,1
1777499188400609792,-0.03743923455476761,1,-0.09764900803565979,1,-0.2038321644067764,1
1777499188410937600,-0.1100207343697548,1,-0.1113913208246231,1,0.1767311692237854,1
1777499188421245696,-0.0890977680683136,1,-0.02972355857491493,1,-0.04489700496196747,1
1777499188431533824,-0.06649422645568848,1,-0.02725551649928093,1,0.1201527565717697,1
1777499188441801472,-0.07300788909196854,1,0.05563575029373169,1,0.08097728341817856,1
1777499188452048896,-0.002516763284802437,1,0.1125773787498474,1,-0.09025460481643677,1
1777499188462276096,-0.04308778420090675,1,0.06685281544923782,1,0.1837709248065948,1
1777499188472482816,0.02209080755710602,1,0.0772213339805603,1,-0.02156618237495422,1
1777499188482669568,0.02054351940751076,1,0.07485195994377136,1,0.09231235086917877,1
1777499188492835840,0.04283758625388145,1,0.07006152719259262,1,0.03681236505508423,1
1777499188502982144,0.06153124943375587,1,0.07077985256910324,1,0.050045445561409,1
1777499188513108480,0.04898849874734879,1,0.04915939271450043,1,0.04289373382925987,1
1777499188523214848,0.06730902194976807,1,-0.003382564522325993,1,0.04150829464197159,1
1777499188533303040,0.04120923578739166,1,-0.02642879635095596,1,0.04445942863821983,1
1777499188543371264,0.03616316616535187,1,-0.03303983807563782,1,0.03262852504849434,1
1777499188553419520,0.01392176933586597,1,-0.05205855891108513,1,0.03614554181694984,1
1777499188563448064,-0.003517729230225086,1,-0.07593665271997452,1,0.05004097148776054,1
1777499188573456896,-0.01533437985926867,1,-0.07060731947422028,1,0.008326815441250801,1
1777499188583445760,-0.04345706850290298,1,-0.05130280926823616,1,0.06427165120840073,1
1777499188593414656,-0.04584354162216187,1,-0.03401067852973938,1,0.02165079861879349,1
1777499188603364096,-0.05904944613575935,1,-0.02157936431467533,1,0.04143970459699631,1
1777499188613293824,-0.05046619847416878,1,0.009058674797415733,1,0.05239047482609749,1
1777499188623204096,-0.04653283953666687,1,0.04712177067995071,1,0.02727450430393219,1
1777499188633573632,-0.0298989824950695,1,0.05141149461269379,1,0.06691630929708481,1
1777499188643922944,-0.01183931529521942,1,0.05707965418696404,1,0.03480611741542816,1
1777499188654251776,0.00378867844119668,1,0.06430944055318832,1,0.05899417400360107,1
1777499188664560640,0.01893633231520653,1,0.05909654498100281,1,0.03557697311043739,1
1777499188674849024,0.02898610755801201,1,0.03544413298368454,1,0.06186122447252274,1
1777499188685116672,0.04006626829504967,1,0.01420193631201982,1,0.02877749875187874,1
1777499188695364352,0.03699338063597679,1,-0.0006888556526973844,1,0.05683179572224617,1
1777499188705591552,0.03712710365653038,1,-0.01857508718967438,1,0.03239047527313232,1
1777499188715798784,0.03077763319015503,1,-0.04650795459747314,1,0.03557807952165604,1
1777499188725985792,0.02135278843343258,1,-0.05580641329288483,1,0.03823039680719376,1
1777499188736153856,0.009764920920133591,1,-0.04883839190006256,1,0.03675645217299461,1
1777499188746302720,0.0003263881662860513,1,-0.04552139714360237,1,0.03476995974779129,1
1777499188756431616,-0.01187744829803705,1,-0.04325072094798088,1,0.03607212007045746,1
1777499188766541056,-0.01701624132692814,1,-0.01971894502639771,1,0.04459547623991966,1
1777499188776630528,-0.02387474663555622,1,0.01060167327523232,1,0.03525238856673241,1
1777499188786700544,-0.02390528656542301,1,0.02516493201255798,1,0.0558728314936161,1
1777499188796750592,-0.02308293245732784,1,0.03618216514587402,1,0.03425833582878113,1
1777499188806780928,-0.02143660187721252,1,0.04876812547445297,1,0.05368918925523758,1
1777499188816791808,-0.01631970703601837,1,0.05916257947683334,1,0.03848574310541153,1
1777499188826783232,-0.009505093097686768,1,0.04738467931747437,1,0.05296981707215309,1
1777499188836754944,-0.002183970063924789,1,0.03171999752521515,1,0.03911338746547699,1
1777499188846707200,0.0003529844107106328,1,0.01945176161825657,1,0.04834245145320892,1
1777499188856640000,0.005450322758406401,1,0.003784457221627235,1,0.03667866066098213,1
1777499188866553088,0.01030837092548609,1,-0.02201368845999241,1,0.04216645285487175,1
1777499188876682496,0.01492494437843561,1,-0.03850257769227028,1,0.03849781677126884,1
1777499188887027456,0.01485993526875973,1,-0.04129602015018463,1,0.0333014577627182,1
1777499188897352192,0.01304508466273546,1,-0.044411800801754,1,0.04100668057799339,1
1777499188907656704,0.01370029617100954,1,-0.04547413438558578,1,0.03450088948011398,1
1777499188917941248,0.01168473809957504,1,-0.03388709202408791,1,0.04147573187947273,1
1777499188928205312,0.00657636858522892,1,-0.01360026281327009,1,0.03742488101124763,1
1777499188938449408,0.002640179125592113,1,0.002864630427211523,1,0.04448448866605759,1
1777499188948673024,-0.003106466960161924,1,0.01461193524301052,1,0.03827746957540512,1
1777499188958876672,-0.005907125771045685,1,0.02876579575240612,1,0.04661896452307701,1
1777499188969059840,-0.01171998959034681,1,0.04438535496592522,1,0.04227643460035324,1
1777499188979223040,-0.01391397230327129,1,0.04280083999037743,1,0.04719696193933487,1
1777499188989368064,-0.01484835520386696,1,0.03379473462700844,1,0.04105108231306076,1
1777499188999493376,-0.01834692247211933,1,0.03147460147738457,1,0.04522997513413429,1
1777499189009598208,-0.01759414002299309,1,0.01840833015739918,1,0.04166030511260033,1
1777499189019683584,-0.01339395344257355,1,-0.002120591700077057,1,0.04305776953697205,1
1777499189029748736,-0.01112780719995499,1,-0.01922767236828804,1,0.03985084965825081,1
1777499189039794176,-0.006116682197898626,1,-0.02708897925913334,1,0.03889242187142372,1
1777499189049819648,-0.0001012861321214586,1,-0.03453435003757477,1,0.04118281230330467,1
1777499189059825408,0.005729314405471087,1,-0.04245073720812798,1,0.03729227557778358,1
1777499189069811712,0.009163419716060162,1,-0.03956431150436401,1,0.03883256390690804,1
1777499189079778304,0.01072619389742613,1,-0.02576770260930061,1,0.03893250599503517,1
1777499189089724928,0.01498394832015038,1,-0.01460017636418343,1,0.04537453874945641,1
1777499189099651840,0.01563747227191925,1,-0.003519571851938963,1,0.04473291710019112,1
1777499189109559296,0.01285703014582396,1,0.01146780513226986,1,0.04617147520184517,1
1777499189119683072,0.007975350134074688,1,0.02811789326369762,1,0.04418446496129036,1
1777499189130022912,0.0005227076471783221,1,0.03374816849827766,1,0.04638904705643654,1
1777499189140342272,-0.005108322482556105,1,0.03359892591834068,1,0.04603922739624977,1
1777499189150641664,-0.01137746870517731,1,0.03143550455570221,1,0.04770039021968842,1
1777499189160920832,-0.01768850907683372,1,0.0272824652493,1,0.04635119065642357,1
1777499189171181568,-0.01840440928936005,1,0.01534258108586073,1,0.04457897320389748,1
1777499189181422080,-0.01754382252693176,1,0.002160662785172462,1,0.0416736789047718,1
1777499189191642368,-0.01560825388878584,1,-0.008369443006813526,1,0.04224076122045517,1
1777499189201842432,-0.01185859274119139,1,-0.01950681768357754,1,0.04273328557610512,1
1777499189212022528,-0.005570711102336645,1,-0.0289939921349287,1,0.03938920795917511,1
1777499189222182144,0.0001932506274897605,1,-0.03175381571054459,1,0.04271285980939865,1
1777499189232321792,0.00528054591268301,1,-0.02569439448416233,1,0.04286136478185654,1
1777499189242441472,0.01075215917080641,1,-0.02042689360678196,1,0.04409712180495262,1
1777499189252541184,0.01254060212522745,1,-0.01159576419740915,1,0.0443880707025528,1
1777499189262621184,0.01396622601896524,1,0.0001012817956507206,1,0.04457958042621613,1
1777499189272681216,0.01254191994667053,1,0.01331109181046486,1,0.0442783385515213,1
1777499189282721024,0.008699403144419193,1,0.01871316134929657,1,0.04541189968585968,1
1777499189292741376,0.007564292754977942,1,0.02384530380368233,1,0.04653844609856606,1
1777499189302742016,0.002709584543481469,1,0.02834639698266983,1,0.04493911564350128,1
1777499189312722944,-0.005334966816008091,1,0.02679692395031452,1,0.0476410947740078,1
1777499189322684160,-0.008080125786364079,1,0.01774630323052406,1,0.04517470672726631,1
1777499189332626432,-0.01034960523247719,1,0.009408187121152878,1,0.04260985180735588,1
1777499189342549248,-0.00987499114125967,1,0.00146041065454483,1,0.04323688521981239,1
1777499189352452096,-0.01070196274667978,1,-0.007873000577092171,1,0.04138582572340965,1
1777499189362571520,-0.009810289368033409,1,-0.01788763329386711,1,0.04114270582795143,1
1777499189372907520,-0.005260560661554337,1,-0.0253740306943655,1,0.04067591577768326,1
1777499189383223296,0.0004977842327207327,1,-0.02340498380362988,1,0.03922662138938904,1
1777499189393518592,0.002253658603876829,1,-0.02102737501263618,1,0.04059740900993347,1
1777499189403793920,0.006109622772783041,1,-0.01439094077795744,1,0.04229283332824707,1
1777499189414050304,0.005929903127253056,1,-0.004567823372781277,1,0.04175234586000443,1
1777499189424286208,0.008247421123087406,1,0.004151662345975637,1,0.0398571789264679,1
1777499189434502144,0.008567783050239086,1,0.01088600885123014,1,0.04247401654720306,1
1777499189444697600,0.008977395482361317,1,0.01739719696342945,1,0.04445953667163849,1
1777499189454873088,0.006378650199621916,1,0.02309577167034149,1,0.04306137934327126,1
1777499189465028608,0.003567314008250833,1,0.02581502869725227,1,0.04210261255502701,1
1777499189475164160,-0.001814430695958436,1,0.0202109981328249,1,0.04217870533466339,1
1777499189485279232,-0.003680175868794322,1,0.01447446085512638,1,0.04266085103154182,1
1777499189495374848,-0.005932044703513384,1,0.007996722124516964,1,0.04221208393573761,1
1777499189505450496,-0.005742386914789677,1,0.000380316108930856,1,0.04127530008554459,1
1777499189515506176,-0.006141697987914085,1,-0.009981489740312099,1,0.04245098680257797,1
1777499189525542144,-0.005849165841937065,1,-0.01505384501069784,1,0.04124492779374123,1
1777499189535558144,-0.003950786311179399,1,-0.01524425018578768,1,0.0422053299844265,1
1777499189545554432,-0.002664541825652122,1,-0.01665141992270947,1,0.04336827620863914,1
1777499189555531264,-0.0005712236743420362,1,-0.01676789112389088,1,0.04192892462015152,1
1777499189565490944,0.00219195825047791,1,-0.01085524447262287,1,0.0430435948073864,1
1777499189575431168,0.002067467896267772,1,-0.002047942485660315,1,0.04132654145359993,1
1777499189585351424,0.002528613433241844,1,0.004835745319724083,1,0.04312637075781822,1
1777499189595252480,0.002638539299368858,1,0.009472685866057873,1,0.04366814345121384,1
1777499189605368832,0.001260263496078551,1,0.01311174966394901,1,0.04562580585479736,1
1777499189615700224,0.0008688207599334419,1,0.01862749271094799,1,0.04376667737960815,1
1777499189626011392,-0.000160196068463847,1,0.01698081009089947,1,0.0445428341627121,1
1777499189636302592,-0.001334281638264656,1,0.01218198612332344,1,0.04337203502655029,1
1777499189646573824,-0.004087884910404682,1,0.007340492215007544,1,0.04420860484242439,1
1777499189656825600,-0.005463068373501301,1,0.00369092752225697,1,0.04196464270353317,1
1777499189667056384,-0.004897269885987043,1,-0.003209448419511318,1,0.04447118192911148,1
1777499189677267712,-0.006378971505910158,1,-0.01066054496914148,1,0.04395709931850433,1
1777499189687458816,-0.005570224486291409,1,-0.01104293297976255,1,0.04082415625452995,1
1777499189697629696,-0.004942093044519424,1,-0.01391504798084497,1,0.04200185090303421,1
1777499189707780096,-0.00355781870894134,1,-0.01444438099861145,1,0.04546409100294113,1
1777499189717910784,-0.003142756642773747,1,-0.01128294784575701,1,0.04195315018296242,1
1777499189728021504,-0.003448905190452933,1,-0.005160893313586712,1,0.04213305562734604,1
1777499189738112256,-0.00153268373105675,1,0.0008181898156180978,1,0.04206961765885353,1
1777499189748183296,0.001786685199476779,1,0.004937597084790468,1,0.04455079510807991,1
1777499189758234368,0.001660993439145386,1,0.00885922834277153,1,0.04395607858896255,1
1777499189768265728,0.002694415859878063,1,0.01370388548821211,1,0.04286356270313263,1
1777499189778277120,0.002783285919576883,1,0.01516200508922338,1,0.04368633776903152,1
1777499189788268800,0.002683317288756371,1,0.01400799304246902,1,0.04313648119568825,1
1777499189798241024,0.003774886485189199,1,0.0101991007104516,1,0.04358544573187828,1
1777499189808199168,0.003464167471975088,1,0.005590794142335653,1,0.04372184351086617,1
1777499189818137856,0.002246491378173232,1,-0.0006746936123818159,1,0.04308699443936348,1
1777499189828056832,-0.001349406782537699,1,-0.004203310701996088,1,0.04165526106953621,1
1777499189837956352,-0.003861862234771252,1,-0.008351369760930538,1,0.04078147560358047,1
1777499189848071936,-0.004246872384101152,1,-0.00983823835849762,1,0.03980226069688797,1
1777499189858402560,-0.004130097106099129,1,-0.01103781629353762,1,0.03956413641571999,1
1777499189868713472,-0.004745114594697952,1,-0.01159264799207449,1,0.04151469841599464,1
1777499189879004672,-0.002347426256164908,1,-0.005348141305148602,1,0.04468977451324463,1
1777499189889276160,0.0002245709765702486,1,-0.0006210348219610751,1,0.04094601795077324,1
1777499189899527168,0.0007676345994696021,1,0.003615820547565818,1,0.04268397018313408,1
1777499189909757952,-0.000277654966339469,1,0.007548846770077944,1,0.04267093166708946,1
1777499189919969280,0.0003359377733431756,1,0.01100136153399944,1,0.0448310524225235,1
1777499189930160896,0.001730861724354327,1,0.01093584392219782,1,0.0438457690179348,1
1777499189940332288,0.002929274225607514,1,0.01031622663140297,1,0.04453238099813461,1
1777499189950483200,0.003753288881853223,1,0.0117134265601635,1,0.04544959962368011,1
1777499189960617728,0.002347953384742141,1,0.008839257061481476,1,0.04430689290165901,1
1777499189970732544,0.0002231565886177123,1,0.000754996610339731,1,0.04586143419146538,1
1777499189980827392,-0.0008927884045988321,1,-0.003601039759814739,1,0.04320354014635086,1
1777499189990902272,-0.002842506160959601,1,-0.005720470100641251,1,0.0433114692568779,1
1777499190000957440,-0.003503805957734585,1,-0.009085343219339848,1,0.04222593456506729,1
1777499190010992896,-0.004672541283071041,1,-0.01062037516385317,1,0.04397664219141006,1
1777499190021008384,-0.00516076385974884,1,-0.007956119254231453,1,0.04322243109345436,1
1777499190031004160,-0.004833649378269911,1,-0.005808291956782341,1,0.04082746431231499,1
1777499190040980480,-0.002425546525046229,1,-0.002198371803388,1,0.04200126975774765,1
1777499190050937088,-0.001846908475272357,1,-0.0002009320887736976,1,0.04355506971478462,1
1777499190060874240,0.0004520959919318557,1,0.005326678510755301,1,0.04471392184495926,1
1777499190070791424,0.0001677332475082949,1,0.00934934988617897,1,0.04453050345182419,1
1777499190080689152,0.0009450698853470385,1,0.01223323214799166,1,0.04345846921205521,1
1777499190090567168,0.004176349379122257,1,0.01048722490668297,1,0.04178456962108612,1
1777499190100902656,0.004692901391535997,1,0.009318259544670582,1,0.0410623662173748,1
1777499190111217920,0.003169312840327621,1,0.005538105498999357,1,0.04234000667929649,1
1777499190121512960,0.05037770420312881,1,-0.01652117446064949,1,-0.05328952893614769,1
1777499190131787776,0.0330841988325119,1,-0.023619269952178,1,0.1165399998426437,1
1777499190142042368,0.134382352232933,1,-0.04672018811106682,1,-0.008753508329391479,1
1777499190152276736,0.08709424734115601,1,-0.03393815085291862,1,0.09775704145431519,1
1777499190162490880,0.1032141223549843,1,-0.006243215408176184,1,-0.06909206509590149,1
1777499190172684800,0.05345000699162483,1,0.01552843954414129,1,0.1650326550006866,1
1777499190182858496,0.05404501408338547,1,0.05035265162587166,1,-0.05706602707505226,1
1777499190193012480,0.03822548687458038,1,0.06345847994089127,1,0.1440562009811401,1
1777499190203147264,0.04618334770202637,1,0.09579063206911087,1,-0.0269179493188858,1
1777499190213263360,0.07422608882188797,1,0.1075724437832832,1,0.102365531027317,1
1777499190223360000,0.05693050473928452,1,0.168614462018013,1,0.07213069498538971,1
1777499190233437184,0.06632605195045471,1,0.1439361125230789,1,-0.04625555872917175,1
1777499190243494656,0.06867872178554535,1,-0.03391967713832855,1,0.161870151758194,1
1777499190253533184,0.05621957778930664,1,-0.09849347174167633,1,-0.05910275876522064,1
1777499190263552256,0.04251552745699883,1,-0.2205470651388168,1,0.09463951736688614,1
1777499190273551616,0.1295509040355682,1,-0.2205083668231964,1,-0.1193859577178955,1
1777499190283532288,0.7621279358863831,1,-0.6111450791358948,1,-0.5532801747322083,1
1777499190293493760,0.808050274848938,1,-1.010118722915649,1,0.2831245958805084,1
1777499190303436032,1.010507225990295,1,-0.4319266974925995,1,0.6778730750083923,1
1777499190313359104,0.9312339425086975,1,0.0538950152695179,1,0.2707508504390717,1
1777499190323262976,0.8590043783187866,1,1.419970393180847,1,-1.3425452709198,1
1777499190333147392,1.153542637825012,1,0.9375052452087402,1,0.3572783172130585,1
1777499190343246080,1.311508297920227,1,0.3367064595222473,1,-0.3889814615249634,1
1777499190353557760,1.260441303253174,1,0.08611259609460831,1,-0.2545180320739746,1
1777499190363849472,1.074889421463013,1,0.2953539788722992,1,-1.559940099716187,1
1777499190374120960,0.8687999248504639,1,0.2196852266788483,1,-1.378681302070618,1
1777499190384372736,1.234655737876892,1,-0.394667774438858,1,-1.168283343315125,1
1777499190394604544,0.8067903518676758,1,-0.4873045384883881,1,-0.8618068695068359,1
1777499190404816384,1.455799698829651,1,-0.8987518548965454,1,-1.914876103401184,1
1777499190415007744,1.249873161315918,1,-0.7898916602134705,1,-0.4614382684230804,1
1777499190425179136,1.318495154380798,1,0.4887531995773315,1,-1.46990168094635,1
1777499190435330304,1.530716896057129,1,0.1090924441814423,1,-0.5918018817901611,1
1777499190445461504,1.768784999847412,1,-0.6370958685874939,1,-0.8450901508331299,1
1777499190455572480,1.890300393104553,1,-0.4429205656051636,1,0.2974136471748352,1
1777499190465663744,1.951375961303711,1,-0.09084127098321915,1,-0.5504373908042908,1
1777499190475735296,1.855638980865479,1,-0.0138433575630188,1,0.5258939266204834,1
1777499190485786880,1.880580425262451,1,-0.02017656899988651,1,0.3467664122581482,1
1777499190495818496,1.909756064414978,1,-0.1906005293130875,1,0.9349424839019775,1
1777499190505830400,1.860889911651611,1,-0.02508854493498802,1,0.8555157780647278,1
1777499190515822336,1.786208391189575,1,-0.136848583817482,1,1.090375661849976,1
1777499190525794816,1.752588510513306,1,-0.1569336950778961,1,1.11412250995636,1
1777499190535747328,1.738790154457092,1,-0.1346796900033951,1,1.244455814361572,1
1777499190545683968,1.774021148681641,1,-0.1118587702512741,1,1.138117551803589,1
1777499190555601152,1.753135323524475,1,-0.3045698702335358,1,1.314363241195679,1
1777499190565498624,1.783231735229492,1,-0.3839297592639923,1,1.135638117790222,1
1777499190575376896,1.741881012916565,1,-0.4627360701560974,1,1.256410717964172,1
1777499190585469952,1.680216312408447,1,-0.5344585776329041,1,1.229442358016968,1
1777499190595777792,1.697004675865173,1,-0.6075229048728943,1,1.134885787963867,1
1777499190606065408,1.671575307846069,1,-0.5653855204582214,1,1.059742093086243,1
1777499190616332544,1.669642567634583,1,-0.5954040288925171,1,0.9077564477920532,1
1777499190626579712,1.695661425590515,1,-0.5915970802307129,1,0.7598671913146973,1
1777499190636806400,1.624499082565308,1,-0.5909205079078674,1,0.8057646155357361,1
1777499190647012864,1.713388204574585,1,-0.6371045112609863,1,0.4621664881706238,1
1777499190657199616,1.6889888048172,1,-0.580482542514801,1,0.4424085021018982,1
1777499190667366144,1.660752892494202,1,-0.4804165065288544,1,0.06938617676496506,1
1777499190677512448,1.649707555770874,1,-0.4566612243652344,1,-0.1144311726093292,1
1777499190687638528,1.637359261512756,1,-0.3962366580963135,1,-0.3291982710361481,1
1777499190697744896,1.628446221351624,1,-0.3595311939716339,1,-0.3208670616149902,1
1777499190707831296,1.669887900352478,1,-0.2564158141613007,1,-0.4901422560214996,1
1777499190717897728,1.626278519630432,1,-0.1707373261451721,1,-0.428029865026474,1
1777499190727944192,1.588337540626526,1,-0.1493681520223618,1,-0.5979182720184326,1
1777499190737970944,1.588072180747986,1,-0.05285749956965446,1,-0.7300087809562683,1
1777499190747977728,1.565936207771301,1,-0.06502792239189148,1,-0.936521589756012,1
1777499190757967360,1.631103157997131,1,-0.1279352009296417,1,-0.9416245818138123,1
1777499190767937280,1.62402868270874,1,-0.0465107336640358,1,-0.8965328335762024,1
1777499190777887232,1.670119881629944,1,-0.165547102689743,1,-0.8368242979049683,1
1777499190787817728,1.622345447540283,1,-0.3101394176483154,1,-0.6640844941139221,1
1777499190797728512,1.559956789016724,1,-0.2745475769042969,1,-0.7239341735839844,1
1777499190807620096,1.459864974021912,1,-0.3267355561256409,1,-0.6382017135620117,1
1777499190817491712,1.385395169258118,1,-0.08228008449077606,1,-0.3756588697433472,1
1777499190827580160,1.419891357421875,1,0.1749715507030487,1,-0.3315281271934509,1
1777499190837885184,1.336779356002808,1,0.2178145796060562,1,-0.06182224676012993,1
1777499190848169728,1.334159851074219,1,0.2438455671072006,1,0.2327566891908646,1
1777499190858434304,1.27132248878479,1,0.4812744557857513,1,0.09263814240694046,1
1777499190868678912,1.304113745689392,1,0.4674700498580933,1,0.2919554710388184,1
1777499190878903296,1.373825550079346,1,0.3090613484382629,1,0.1630575060844421,1
1777499190889107456,1.335540294647217,1,0.2615607678890228,1,0.2250570505857468,1
1777499190899291136,1.288454174995422,1,0.1948360502719879,1,0.06257029622793198,1
1777499190909454848,1.305439949035645,1,0.1366623640060425,1,0.07327276468276978,1
1777499190919598336,1.250708222389221,1,-0.002283373847603798,1,-0.2241521030664444,1
1777499190929721856,1.227431297302246,1,-0.1171087324619293,1,-0.4254856705665588,1
1777499190939825152,1.199847102165222,1,-0.1055890396237373,1,-0.6124209761619568,1
1777499190949908992,1.156784296035767,1,-0.03824267536401749,1,-0.5510022044181824,1
1777499190959972608,1.170938491821289,1,0.06516587734222412,1,-0.4664285182952881,1
1777499190970016512,1.279050230979919,1,0.2772147357463837,1,-0.3796928822994232,1
1777499190980040448,1.249208569526672,1,0.2762279808521271,1,-0.09788364917039871,1
1777499190990044416,1.23928689956665,1,0.4560759663581848,1,-0.01974648423492908,1
1777499191000028928,1.318355798721313,1,0.6840407252311707,1,-0.1245767325162888,1
1777499191009993472,1.272393822669983,1,0.6443377733230591,1,0.1459356993436813,1
1777499191019939328,1.294657468795776,1,0.6737273335456848,1,0.003346552141010761,1
1777499191029867008,1.236886858940125,1,0.7813687920570374,1,0.2201532870531082,1
1777499191039774976,1.155326008796692,1,0.6669073700904846,1,0.2583275139331818,1
1777499191049663488,1.152368783950806,1,0.6057910919189453,1,0.1810652613639832,1
1777499191059532288,0.9763495922088623,1,0.6650937795639038,1,0.08742982894182205,1
1777499191069617920,1.002759099006653,1,0.5355615019798279,1,-0.0197974406182766,1
1777499191079920128,0.8613134026527405,1,0.4846758246421814,1,0.1900288164615631,1
1777499191090201856,0.9154940247535706,1,0.4347316026687622,1,0.4691464304924011,1
1777499191100463104,0.8981457352638245,1,0.4475127756595612,1,0.8043324947357178,1
1777499191110704128,1.105149030685425,1,0.4549700021743774,1,0.8926330208778381,1
1777499191120925440,1.034629583358765,1,0.4144250154495239,1,1.176004528999329,1
1777499191131126528,1.022687077522278,1,0.4380113780498505,1,1.060885190963745,1
1777499191141307392,0.8725903034210205,1,0.4144862294197083,1,1.125731348991394,1
1777499191151470592,0.788138210773468,1,0.2539618909358978,1,0.8453522324562073,1
1777499191161613824,0.7397151589393616,1,0.1927646696567535,1,0.9510148763656616,1
1777499191171736832,0.7096335887908936,1,0.3166673481464386,1,0.6635617613792419,1
1777499191181840128,0.8576379418373108,1,0.1294259279966354,1,0.8518271446228027,1
1777499191191923200,0.87089604139328,1,-0.08005943894386292,1,0.7956324219703674,1
1777499191201986560,0.8399465084075928,1,-0.09404166787862778,1,1.020763158798218,1
1777499191212029952,0.7749847769737244,1,0.1162843331694603,1,1.246331810951233,1
1777499191222053376,0.9189042448997498,1,0.3453718721866608,1,1.544862866401672,1
1777499191232057344,1.078312873840332,1,0.5503290891647339,1,0.5195139646530151,1
1777499191242041600,1.134509444236755,1,0.3012655079364777,1,0.1534471660852432,1
1777499191252006144,0.7833994030952454,1,0.280312716960907,1,0.2696343064308167,1
1777499191261950976,0.1546737253665924,1,0.1174503266811371,1,1.025284886360168,1
1777499191271875840,0.3249861598014832,1,-0.3070421814918518,1,0.6102402806282043,1
1777499191281781504,0.5516889691352844,1,-0.6638374924659729,1,-0.003614470362663269,1
1777499191291667456,0.5750910043716431,1,-0.518748939037323,1,-0.8059765696525574,1
1777499191301533696,0.2766013443470001,1,0.05494232475757599,1,-0.8458667397499084,1
1777499191311381248,0.2552590370178223,1,0.1950692385435104,1,-0.6878400444984436,1
1777499191321686528,0.4500066936016083,1,-0.3124170303344727,1,-0.246626228094101,1
1777499191331972096,0.3745565116405487,1,-0.1002802103757858,1,-0.251497894525528,1
1777499191342237696,0.367590606212616,1,-0.25834921002388,1,-0.8076427578926086,1
1777499191352483584,0.1048892959952354,1,-0.4735396802425385,1,0.4312664866447449,1
1777499191362709504,0.4540105164051056,1,0.08581430464982986,1,-0.622255265712738,1
1777499191372916992,0.4520627558231354,1,0.6992393732070923,1,-0.2307000160217285,1
1777499191383104512,0.5521513819694519,1,0.7485300302505493,1,-0.3408834338188171,1
1777499191393272064,-0.01314330101013184,1,0.3303871154785156,1,0.1741388291120529,1
1777499191403419904,0.1567155420780182,1,0.2959551811218262,1,-0.003518633544445038,1
1777499191413548032,0.0838317796587944,1,0.4286281168460846,1,-0.007796900812536478,1
1777499191423656192,0.2308836728334427,1,0.250062882900238,1,-0.1698332130908966,1
1777499191433744640,-0.03735728561878204,1,0.4089597165584564,1,0.6654696464538574,1
1777499191443813376,-0.001800199039280415,1,0.3615328073501587,1,-0.2426323294639587,1
1777499191453862400,-0.0822279155254364,1,0.3352996706962585,1,0.450566440820694,1
1777499191463891968,-0.06207482516765594,1,0.5694413185119629,1,-0.3217432796955109,1
1777499191473902080,-0.01519337017089128,1,0.4481612741947174,1,-0.216516375541687,1
1777499191483892480,-0.0322001725435257,1,0.2988756895065308,1,-0.3070295453071594,1
1777499191493863424,-0.04840283095836639,1,-0.07260780036449432,1,-0.008795682340860367,1
1777499191503814656,-0.06255239248275757,1,-0.3192413151264191,1,-0.2017548382282257,1
1777499191513746432,-0.0652199387550354,1,-0.4342184066772461,1,-0.09323494136333466,1
1777499191523659008,-0.1509483307600021,1,-0.3490413725376129,1,-0.3275542855262756,1
1777499191533555456,-0.16921167075634,1,-0.1124198436737061,1,-0.3246899247169495,1
1777499191543434752,-0.01073801890015602,1,-0.3293615281581879,1,-0.7090821862220764,1
1777499191553295104,-0.03738998249173164,1,-0.3946367502212524,1,-0.3455901443958282,1
1777499191563604992,-0.02863549441099167,1,-0.4825671911239624,1,-0.493918389081955,1
1777499191573894912,-0.112795002758503,1,-0.4224326908588409,1,-0.149787425994873,1
1777499191584165120,-0.03125113993883133,1,-0.2777668833732605,1,-0.288384884595871,1
1777499191594415872,-0.03412730991840363,1,-0.1838779151439667,1,0.04297614097595215,1
1777499191604646400,-0.08608930557966232,1,0.02804186753928661,1,0.1791286021471024,1
1777499191614856704,0.02011156640946865,1,0.1647746860980988,1,0.07887377589941025,1
1777499191625046784,-0.1585550755262375,1,-0.06670896708965302,1,0.7010135054588318,1
1777499191635216640,-0.0398753359913826,1,-0.1321645379066467,1,0.5241550803184509,1
1777499191645366784,0.006447954103350639,1,0.002139734104275703,1,0.613569974899292,1
1777499191655496704,0.1380201578140259,1,0.08326394855976105,1,0.2994009554386139,1
1777499191665606400,-0.01829385384917259,1,-0.09041531383991241,1,0.4461381733417511,1
1777499191675698176,-0.09167872369289398,1,0.05408327281475067,1,0.4628803133964539,1
1777499191685769984,0.01041744649410248,1,0.0373414158821106,1,0.2425656765699387,1
1777499191695822080,-0.007205817848443985,1,0.1373582184314728,1,0.4317234456539154,1
1777499191705854208,0.005060944706201553,1,-0.005644187331199646,1,0.2047352939844131,1
1777499191715866624,-0.1687920689582825,1,-0.1813667118549347,1,0.4281822144985199,1
1777499191725859072,-0.09810072928667068,1,-0.2246472537517548,1,0.2527475357055664,1
1777499191735832064,-0.0403083823621273,1,-0.1416038274765015,1,0.227210208773613,1
1777499191745785088,-0.0504898726940155,1,0.0197999756783247,1,0.276010274887085,1
1777499191755718656,-0.05231678485870361,1,0.001248165965080261,1,0.4405560195446014,1
1777499191765633024,-0.03203874081373215,1,0.001957900822162628,1,0.8524808883666992,1
1777499191775527680,0.03973373398184776,1,0.05000925809144974,1,0.6106601357460022,1
1777499191785402880,0.009426836855709553,1,0.06716450303792953,1,0.7094011902809143,1
1777499191795258624,-0.120557576417923,1,0.05112140625715256,1,0.3083869516849518,1
1777499191805330432,-0.2966476380825043,1,0.1820413172245026,1,0.2922668159008026,1
1777499191815617536,-0.3663688004016876,1,0.07556363940238953,1,0.2271288484334946,1
1777499191825884672,-0.1709641665220261,1,0.07272361218929291,1,0.4022316336631775,1
1777499191836132096,-0.05493786185979843,1,0.1694120764732361,1,0.4740899205207825,1
1777499191846359552,-0.03596285730600357,1,0.08536682277917862,1,0.2308188378810883,1
1777499191856566784,-0.1363326460123062,1,0.03490353748202324,1,-0.0220886804163456,1
1777499191866753792,-0.1915070414543152,1,-0.1714157462120056,1,-0.2971966564655304,1
1777499191876920576,-0.1193903014063835,1,-0.2312425225973129,1,-0.6620483994483948,1
1777499191887067136,-0.1129103973507881,1,-0.4067288041114807,1,-0.7755276560783386,1
1777499191897194240,-0.00619048997759819,1,-0.5347463488578796,1,-1.108523607254028,1
1777499191907301120,-0.03155370801687241,1,-0.6184790134429932,1,-0.7615846395492554,1
1777499191917389056,0.2439080774784088,1,-0.5485201478004456,1,-1.259463906288147,1
1777499191927457280,0.2131212055683136,1,-0.4235337376594543,1,-0.9459809064865112,1
1777499191937505792,0.1563331484794617,1,-0.300103634595871,1,-1.482516288757324,1
1777499191947534848,-0.04357534646987915,1,-0.2409363687038422,1,-0.8806515336036682,1
1777499191957544192,-0.003394544124603271,1,-0.1037799566984177,1,-0.6089027523994446,1
1777499191967534080,0.2855879068374634,1,0.1308800280094147,1,-0.4770984351634979,1
1777499191977504512,0.3844024538993835,1,0.5059669017791748,1,-0.1747573614120483,1
1777499191987455488,0.2086284756660461,1,0.3722207546234131,1,0.08865734934806824,1
1777499191997389056,0.009991826489567757,1,0.05351706594228745,1,-0.04042764753103256,1
1777499192007305472,-0.02232082933187485,1,0.08147222548723221,1,-0.4313435852527618,1
1777499192017202688,0.03883815556764603,1,0.051743533462286,1,-0.4739018380641937,1
1777499192027080448,0.06167235597968102,1,0.0114434864372015,1,-0.4516419768333435,1
1777499192036938752,0.05863520130515099,1,0.09176450222730637,1,-0.2745652496814728,1
1777499192047010816,-0.07883714884519577,1,0.2971811592578888,1,-0.2739763557910919,1
1777499192057296384,0.170787513256073,1,0.1490592360496521,1,0.05057594925165176,1
1777499192067561472,0.1636094450950623,1,0.01157206948846579,1,0.6338620781898499,1
1777499192077807104,0.2203022688627243,1,0.2915247082710266,1,0.3332643210887909,1
1777499192088032256,0.01193247549235821,1,0.1396792680025101,1,0.5114852786064148,1
1777499192098237440,-0.04365798458456993,1,0.2007984668016434,1,0.7451215386390686,1
1777499192108422144,-0.02318958565592766,1,0.2239548861980438,1,0.9653540849685669,1
1777499192118586880,0.1325553506612778,1,-0.01000425685197115,1,0.8864976167678833,1
1777499192128731392,0.1058953702449799,1,-0.1040981113910675,1,1.298216581344604,1
1777499192138856192,0.05344739556312561,1,-0.2873282730579376,1,1.055377244949341,1
1777499192148960512,0.02904325164854527,1,-0.2976626455783844,1,0.9651729464530945,1
1777499192159045376,-0.03096977807581425,1,-0.2450260668992996,1,0.5022185444831848,1
1777499192169110784,-0.005147210322320461,1,-0.2597241401672363,1,0.3730347454547882,1
1777499192179157248,-0.1628661751747131,1,-0.378650575876236,1,0.6160355806350708,1
1777499192189184000,-0.1215879395604134,1,-0.4109865725040436,1,0.712623119354248,1
1777499192199190784,0.03926878422498703,1,-0.5771133303642273,1,0.6201115250587463,1
1777499192209177856,-0.06725412607192993,1,-0.6052529215812683,1,-0.0261572003364563,1
1777499192219145216,-0.3759057223796844,1,-0.357557475566864,1,0.2274212241172791,1
1777499192229092608,-0.4380395114421844,1,-0.01440459117293358,1,0.1316987127065659,1
1777499192239020800,0.01251788437366486,1,0.8533804416656494,1,0.7003364562988281,1
1777499192248929280,0.4429107308387756,1,0.4344770908355713,1,2.011466264724731,1
1777499192258818304,0.1946998536586761,1,0.459472119808197,1,1.903110265731812,1
1777499192268687616,0.004466034471988678,1,0.2818747758865356,1,1.394343733787537,1
1777499192278537728,0.1524524688720703,1,0.3431993722915649,1,-0.1224810928106308,1
1777499192288604416,-0.1149798780679703,1,0.492478609085083,1,-0.03378860652446747,1
1777499192298887936,-0.1541972011327744,1,0.3779139518737793,1,-1.086172103881836,1
1777499192309151488,-0.2285407334566116,1,-0.1367337852716446,1,-0.06371916830539703,1
1777499192319394816,-0.2626946568489075,1,-0.2723769247531891,1,-0.4538615643978119,1
1777499192329617920,-0.05877599120140076,1,-0.2706297338008881,1,0.06034216284751892,1
1777499192339821056,0.03245852887630463,1,-0.750326931476593,1,-0.1766382604837418,1
1777499192350004736,0.3136864304542542,1,0.5197468996047974,1,-1.17719554901123,1
1777499192360168192,0.1976803839206696,1,1.407828807830811,1,-2.011325120925903,1
1777499192370311936,0.04475902765989304,1,0.5252126455307007,1,-0.305311918258667,1
1777499192380435456,-0.257317066192627,1,-0.008998584002256393,1,-1.153205394744873,1
1777499192390539008,0.1004309356212616,1,0.04068013653159142,1,-0.530000627040863,1
1777499192400622848,0.05029457807540894,1,-0.1229049488902092,1,-1.469680547714233,1
1777499192410686720,-0.06791572272777557,1,-0.3316864669322968,1,-0.9367524981498718,1
1777499192420730624,-0.1225853934884071,1,0.1180433630943298,1,-1.589681029319763,1
1777499192430754816,-0.1199809610843658,1,0.3276464641094208,1,-0.943842887878418,1
1777499192440759296,0.2703293561935425,1,-0.0259647574275732,1,-0.5048061609268188,1
1777499192450743808,0.03535683453083038,1,0.3913252055644989,1,-0.03259594738483429,1
1777499192460708864,0.1341505944728851,1,0.6340335011482239,1,-0.1644967347383499,1
1777499192470653952,-0.1280644536018372,1,0.4461913704872131,1,-0.5229853391647339,1
1777499192480579840,0.07727232575416565,1,0.1639676243066788,1,0.1510493159294128,1
1777499192490485760,-0.1744185537099838,1,0.2933652102947235,1,0.1335102170705795,1
1777499192500372480,0.04533363878726959,1,0.6507664322853088,1,0.1193996667861938,1
1777499192510243328,0.03337907791137695,1,0.3581660985946655,1,0.6463128328323364,1
1777499192520094464,0.06082003191113472,1,0.2141063213348389,1,0.3181554973125458,1
1777499192530161152,0.03868626058101654,1,0.2331297248601913,1,0.08931785821914673,1
1777499192540442368,-0.1123933494091034,1,0.1265564858913422,1,-0.6242562532424927,1
1777499192550703104,-0.3146762251853943,1,-0.1508801281452179,1,0.3150302767753601,1
1777499192560944128,-0.2134192585945129,1,-0.2545353174209595,1,0.2470585703849792,1
1777499192571166208,0.003282524645328522,1,-0.1344163119792938,1,0.5444452166557312,1
1777499192581368320,0.1589010953903198,1,-0.244355171918869,1,0.4226706326007843,1
1777499192591550208,-0.002893636003136635,1,-0.3061199188232422,1,0.9251306056976318,1
1777499192601712384,-0.1062781512737274,1,-0.3511506021022797,1,0.3076236844062805,1
1777499192611854080,-0.117172583937645,1,-0.4235453605651855,1,0.344012051820755,1
1777499192621976064,-0.04254847392439842,1,-0.5679497122764587,1,0.38191819190979,1
1777499192632077824,0.07669262588024139,1,-0.5509209632873535,1,0.2863243222236633,1
1777499192642159872,0.1362870335578918,1,-0.3495441675186157,1,0.3687381744384766,1
1777499192652222208,-0.01475147157907486,1,-0.4054980576038361,1,0.2067444324493408,1
1777499192662265088,0.009094147011637688,1,-0.2449399828910828,1,0.6922988891601562,1
1777499192672287744,0.07598488032817841,1,-0.08820372819900513,1,0.6772264242172241,1
1777499192682290688,0.4443179070949554,1,0.03404846787452698,1,1.036821365356445,1
1777499192692273920,0.3103760182857513,1,-0.1487216651439667,1,1.745694756507874,1
1777499192702237440,-0.2422224879264832,1,-0.8674274086952209,1,2.694043636322021,1
1777499192712181248,-0.4065533876419067,1,-1.001374959945679,1,0.4834773242473602,1
1777499192722105344,0.05279411375522614,1,-0.8131895661354065,1,-3.14352011680603,1
1777499192732010496,-1.577096223831177,1,-1.376854300498962,1,-0.9246018528938293,1
1777499192741896192,-0.1187237799167633,1,-0.2265456467866898,1,-1.994600772857666,1
1777499192751762176,0.1661482155323029,1,-0.4354923665523529,1,0.6817000508308411,1
1777499192761608960,0.7568766474723816,1,-0.6805739402770996,1,-0.8470287322998047,1
1777499192771674112,0.3334777355194092,1,-1.077423095703125,1,2.033067464828491,1
1777499192781957632,0.3899424970149994,1,-1.236530065536499,1,2.387182235717773,1
1777499192792221184,0.1908809989690781,1,0.1940779238939285,1,0.2654420137405396,1
1777499192802464256,0.2527957558631897,1,0.1409233510494232,1,-0.005638644099235535,1
1777499192812687872,0.6306227445602417,1,0.1046328544616699,1,-1.099014043807983,1
1777499192822891008,-0.5376918911933899,1,-0.1449824869632721,1,-0.2253383696079254,1
1777499192833074176,0.1317710876464844,1,-0.3840155303478241,1,-1.088358402252197,1
1777499192843236864,-0.08885925263166428,1,0.1502638310194016,1,0.06257927417755127,1
1777499192853380096,0.3639889061450958,1,0.1451485306024551,1,-0.6600098013877869,1
1777499192863502848,0.1794737279415131,1,0.1829168200492859,1,0.1559680700302124,1
1777499192873605632,0.2146906107664108,1,0.002614854369312525,1,-0.9182637929916382,1
1777499192883688448,0.2202349603176117,1,-0.2783732116222382,1,-0.2681251168251038,1
1777499192893751808,0.3377484679222107,1,-0.05205158889293671,1,-0.8275256156921387,1
1777499192903795712,0.270089328289032,1,0.003842443227767944,1,-0.4909986853599548,1
1777499192913820672,0.4549916088581085,1,0.5423975586891174,1,-0.9434028267860413,1
1777499192923825664,0.47635418176651,1,0.4402236938476562,1,-0.470546692609787,1
1777499192933811200,0.5440511107444763,1,0.4598105251789093,1,-0.4316737651824951,1
1777499192943777024,0.5975121855735779,1,0.3852605223655701,1,-0.07093614339828491,1
1777499192953723136,0.5168664455413818,1,0.4501454532146454,1,-0.2442454099655151,1
1777499192963649536,0.548214316368103,1,0.379144549369812,1,-0.06654581427574158,1
1777499192973556480,0.5581516027450562,1,0.4106102287769318,1,0.06172996759414673,1
1777499192983443968,0.4714971780776978,1,0.3630451858043671,1,-0.06224199011921883,1
1777499192993312256,0.385908454656601,1,0.3955993950366974,1,-0.1730760931968689,1
1777499193003160832,0.202551394701004,1,0.5717438459396362,1,-0.2341114580631256,1
1777499193012989952,0.2760654985904694,1,0.4396185278892517,1,-0.6033640503883362,1
1777499193023280128,0.2471034824848175,1,0.3006103336811066,1,-0.4613686501979828,1
1777499193033550336,0.2847552001476288,1,0.1756871938705444,1,-0.5272892117500305,1
1777499193043800576,0.3128048479557037,1,0.01215510442852974,1,-0.5108954310417175,1
1777499193054030592,0.3181461095809937,1,0.1261102259159088,1,-0.6577440500259399,1
1777499193064240384,0.2039036899805069,1,0.07590432465076447,1,-0.4944112300872803,1
1777499193074429952,0.226242333650589,1,0.09034646302461624,1,-0.1580920964479446,1
1777499193084599552,0.2061813324689865,1,-0.1959361881017685,1,0.3066530823707581,1
1777499193094749440,0.4122356176376343,1,-0.2886051535606384,1,-0.06132026016712189,1
1777499193104878848,0.330629974603653,1,-0.124983623623848,1,-0.3466359078884125,1
1777499193114990336,0.05702774226665497,1,-0.1623785346746445,1,-0.6327774524688721,1
1777499193125081600,-0.1879109591245651,1,0.009168114513158798,1,0.2114975601434708,1
1777499193135153152,-0.01223395764827728,1,-0.2208941578865051,1,0.6608443856239319,1
1777499193145204736,0.2191299200057983,1,-0.2072072327136993,1,1.264269113540649,1
1777499193155236352,0.3503364622592926,1,-0.03912190720438957,1,1.183501839637756,1
1777499193165248256,0.2618001401424408,1,-0.1791020035743713,1,1.082038998603821,1
1777499193175240448,-0.1467431932687759,1,-0.04929701238870621,1,0.4146813452243805,1
1777499193185212928,-0.2565265297889709,1,-0.1192087903618813,1,0.5935670733451843,1
1777499193195166208,-0.1073722392320633,1,-0.04057322815060616,1,0.5978278517723083,1
1777499193205099520,0.08448198437690735,1,0.1677993535995483,1,0.9041762351989746,1
1777499193215013632,0.1388942301273346,1,0.3342040479183197,1,1.179286479949951,1
1777499193224907776,0.07069817185401917,1,0.34627965092659,1,1.347752332687378,1
1777499193234782720,0.03362432867288589,1,0.2111434936523438,1,1.324468493461609,1
1777499193244637952,0.1229301244020462,1,0.08490738272666931,1,1.151001930236816,1
1777499193254473984,-0.07106982916593552,1,0.232706680893898,1,0.9611111879348755,1
1777499193264526848,-0.02695116028189659,1,0.1315063685178757,1,0.98417067527771,1
1777499193274796288,-0.1126081943511963,1,0.1257160604000092,1,1.052862524986267,1
1777499193285045504,-0.02451684698462486,1,0.1454685628414154,1,1.057310938835144,1
1777499193295275008,0.04861437529325485,1,0.1835988759994507,1,1.193936109542847,1
1777499193305484544,0.07419788837432861,1,0.2411343604326248,1,0.988125205039978,1
1777499193315673856,0.003781505860388279,1,0.2732508778572083,1,0.3522525727748871,1
1777499193325842944,-0.2848077118396759,1,0.122734323143959,1,0.5356309413909912,1
1777499193335992064,-0.1763999164104462,1,0.1999145895242691,1,-0.05156927183270454,1
1777499193346121472,-0.2116113007068634,1,0.3229244351387024,1,-0.07766122370958328,1
1777499193356230400,-0.1769912093877792,1,0.2935244143009186,1,-0.4540062546730042,1
1777499193366319616,-0.1047152876853943,1,0.368014395236969,1,-0.4860199093818665,1
1777499193376389120,-0.2155789285898209,1,0.3179807662963867,1,-0.4208482503890991,1
1777499193386438912,-0.07475023716688156,1,0.2964783906936646,1,-0.7647099494934082,1
1777499193396470784,-0.120849147439003,1,0.3060200810432434,1,-0.5912010073661804,1
1777499193406483200,-0.2228949069976807,1,0.2340870201587677,1,-0.8826538920402527,1
1777499193416476160,-0.03891580179333687,1,0.3941372632980347,1,-0.787350058555603,1
1777499193426449664,-0.07986010611057281,1,0.5325310826301575,1,-0.746570885181427,1
1777499193436403968,0.0488123744726181,1,0.5283274054527283,1,-0.8464652895927429,1
1777499193446339072,-0.06354606151580811,1,0.6814809441566467,1,-0.5699526071548462,1
1777499193456254720,-0.03869146481156349,1,0.5820415019989014,1,-0.6015657186508179,1
1777499193466151168,-0.03947125375270844,1,0.6074545383453369,1,-0.5147218108177185,1
1777499193476028928,0.006168630439788103,1,0.8073859214782715,1,-0.6903734803199768,1
1777499193485887744,-0.1623197942972183,1,0.7463352084159851,1,-0.2574718594551086,1
1777499193495727360,-0.1562097370624542,1,0.6524326801300049,1,-0.1470153033733368,1
1777499193505781760,-0.1191632449626923,1,0.626670777797699,1,-0.05998789146542549,1
1777499193516050176,-0.1221210286021233,1,0.5243971943855286,1,-0.1421861350536346,1
1777499193526298368,-0.1970807611942291,1,0.2604483366012573,1,0.04824475571513176,1
1777499193536527360,-0.3858631551265717,1,0.08165030181407928,1,-0.1019605249166489,1
1777499193546736640,-0.3545700311660767,1,0.1364919990301132,1,-0.5399905443191528,1
1777499193556926464,-0.3496057093143463,1,0.1330825090408325,1,-0.4097132384777069,1
1777499193567095808,-0.318099707365036,1,0.009003527462482452,1,-0.5832257270812988,1
1777499193577245184,-0.1950163394212723,1,0.03114405646920204,1,-0.2792398929595947,1
1777499193587374592,-0.1268164217472076,1,-0.05555840581655502,1,-0.2934439778327942,1
1777499193597484032,-0.08943586051464081,1,-0.4028504192829132,1,0.160268634557724,1
1777499193607573248,-0.08386459201574326,1,-0.3229790329933167,1,-0.1471152156591415,1
1777499193617642752,-0.1768795102834702,1,-0.4347190260887146,1,0.01841939985752106,1
1777499193627692800,-0.1246436908841133,1,-0.4460086524486542,1,-0.0778438001871109,1
1777499193637722624,-0.1661313325166702,1,-0.3494898080825806,1,0.1529179662466049,1
1777499193647732992,-0.006557039450854063,1,-0.8034808039665222,1,0.4683041870594025,1
1777499193657723136,0.1052794232964516,1,-0.6174498200416565,1,0.2218440473079681,1
1777499193667693312,0.08725781738758087,1,-0.4542824029922485,1,-0.09237483143806458,1
1777499193677644288,-0.2016355693340302,1,-0.7658694386482239,1,0.1868570446968079,1
1777499193687575552,-0.2591224610805511,1,-0.7258971333503723,1,0.6436254978179932,1
1777499193697487360,-0.12465500831604,1,-0.7253879308700562,1,0.5148061513900757,1
1777499193707380224,0.02383682131767273,1,-0.478778213262558,1,0.5720891952514648,1
1777499193717253632,0.08001124113798141,1,-0.4199613332748413,1,0.2679771482944489,1
1777499193727107328,-0.235225185751915,1,-0.537228524684906,1,0.4292621314525604,1
1777499193736942080,-0.1490429043769836,1,-0.3807026743888855,1,0.2504729032516479,1
1777499193746992384,-0.1853767335414886,1,-0.3363260924816132,1,0.362593412399292,1
1777499193757257984,0.1090509817004204,1,-0.3624274134635925,1,0.3673855364322662,1
1777499193767503616,0.1314797848463058,1,-0.03633294999599457,1,0.3149218559265137,1
1777499193777729792,0.06163409352302551,1,0.02924169227480888,1,0.5669173002243042,1
1777499193787936000,0.03536386042833328,1,0.1490024775266647,1,0.5366159677505493,1
1777499193798122240,0.1758986115455627,1,0.04930759966373444,1,0.7793568968772888,1
1777499193808289024,0.185186043381691,1,0.1699592024087906,1,0.2611068487167358,1
1777499193818435840,0.05206943303346634,1,0.3325516283512115,1,0.1014854907989502,1
1777499193828562688,-0.05563956499099731,1,0.3276011645793915,1,-0.2533804178237915,1
1777499193838669824,-0.1104615107178688,1,0.5509135127067566,1,-0.1366030871868134,1
1777499193848756736,0.1013352498412132,1,0.5264130830764771,1,-0.1599241495132446,1
1777499193858824448,0.1273070275783539,1,0.4887933433055878,1,0.02872374281287193,1
1777499193868872192,0.1448407620191574,1,0.6180408596992493,1,0.01380017213523388,1
1777499193878900480,0.0865747481584549,1,0.402877539396286,1,0.1361372768878937,1
1777499193888910080,0.03636077791452408,1,0.6184025406837463,1,-0.3815040588378906,1
1777499193898900224,-0.002484770491719246,1,0.6937514543533325,1,-0.3566210269927979,1
1777499193908870912,-0.00830996036529541,1,0.7318501472473145,1,-0.5207182168960571,1
1777499193918821888,0.07285540550947189,1,0.9655123353004456,1,-0.3713812530040741,1
1777499193928754176,0.1194316446781158,1,0.9377185702323914,1,-0.606683611869812,1
1777499193938666752,0.009716171771287918,1,0.5382514595985413,1,-0.3996331691741943,1
1777499193948560128,-0.2326966375112534,1,0.6342304944992065,1,-0.009393395856022835,1
1777499193958434048,0.03419635444879532,1,0.7853097319602966,1,-0.1737535744905472,1
1777499193968289024,0.4377085566520691,1,0.479659229516983,1,0.2599455714225769,1
1777499193978124800,0.4263042807579041,1,0.2969043552875519,1,0.2307838201522827,1
1777499193988175360,0.1008789241313934,1,0.3631108999252319,1,0.1929700374603271,1
1777499193998440192,0.1449040174484253,1,0.3163372278213501,1,-0.2266968935728073,1
1777499194008684800,0.09766145795583725,1,0.04397852346301079,1,-0.2109109163284302,1
1777499194018909184,0.1780325025320053,1,0.05558493733406067,1,-0.7766876220703125,1
1777499194029113344,-0.02445078641176224,1,0.03757406026124954,1,-0.8213449716567993,1
1777499194039297280,-0.04593813419342041,1,-0.04596178233623505,1,-0.8432713150978088,1
1777499194049461248,0.1778883785009384,1,-0.1563248336315155,1,-0.8098422884941101,1
1777499194059606528,0.2477918714284897,1,-0.2123284786939621,1,-0.4508048295974731,1
1777499194069731840,0.272649347782135,1,-0.1061581820249557,1,-0.4675779342651367,1
1777499194079837696,0.2800857424736023,1,-0.0977821871638298,1,-0.08943656831979752,1
1777499194089923328,0.2411734908819199,1,-0.236490935087204,1,0.05217593535780907,1
1777499194099989248,0.3787380158901215,1,-0.3841741681098938,1,0.2522484958171844,1
1777499194110035456,0.3452450037002563,1,-0.4890512824058533,1,0.1751150488853455,1
1777499194120061696,0.3509997427463531,1,-0.233541876077652,1,0.1394158601760864,1
1777499194130067712,0.1736142188310623,1,-0.151373103260994,1,0.313069611787796,1
1777499194140054272,0.1895046830177307,1,-0.413389652967453,1,0.6846411228179932,1
1777499194150021120,0.3207190930843353,1,-0.3496700823307037,1,0.584522545337677,1
1777499194159968512,0.3294208645820618,1,-0.3521363437175751,1,0.8027634620666504,1
1777499194169895936,0.1496438831090927,1,-0.4622389078140259,1,0.7518963217735291,1
1777499194179803904,-0.03436148539185524,1,-0.3686978816986084,1,0.9318768382072449,1
1777499194189692160,0.1450075507164001,1,-0.2519249618053436,1,1.039106726646423,1
1777499194199560704,0.2248572558164597,1,-0.351792186498642,1,1.390537142753601,1
1777499194209409792,0.3457363545894623,1,-0.1748295873403549,1,1.49728786945343,1
1777499194219239936,0.2863883078098297,1,-0.1033737808465958,1,1.242781639099121,1
1777499194229289472,0.1186323612928391,1,-0.09527887403964996,1,0.8174390196800232,1
1777499194239558144,-0.08576852083206177,1,-0.1744998097419739,1,1.202616453170776,1
1777499194249806848,-0.1414989084005356,1,-0.1353133767843246,1,1.086968898773193,1
1777499194260035072,0.1859003305435181,1,0.002790085971355438,1,1.224431037902832,1
1777499194270243840,0.2897928059101105,1,-0.01603154465556145,1,0.9578792452812195,1
1777499194280432128,0.1143512427806854,1,0.07226009666919708,1,1.032225966453552,1
1777499194290600960,0.03722135350108147,1,0.1105830818414688,1,0.4129011332988739,1
1777499194300749312,-0.02806979604065418,1,-0.02611765079200268,1,-0.1243411749601364,1
1777499194310877696,-0.1137223988771439,1,0.1455664336681366,1,-0.4418396353721619,1
1777499194320986112,-0.1465090960264206,1,0.2293408513069153,1,-0.6761990189552307,1
1777499194331074560,-0.2391480058431625,1,0.2800391316413879,1,-0.8362325429916382,1
1777499194341143040,-0.205523282289505,1,0.4215001165866852,1,-1.011643290519714,1
1777499194351191808,-0.1317126601934433,1,0.1754740327596664,1,-0.3365464210510254,1
1777499194361221120,-0.0201866626739502,1,0.1165081113576889,1,-0.4459185898303986,1
1777499194371230208,0.003147607669234276,1,0.177034318447113,1,-1.058184504508972,1
1777499194381219840,-0.3171867728233337,1,0.1491449773311615,1,-1.156686186790466,1
1777499194391189504,-0.5379231572151184,1,0.2543749809265137,1,-1.494488477706909,1
1777499194401139456,-0.511883020401001,1,0.3582366704940796,1,-1.235464215278625,1
1777499194411069952,-0.3423210382461548,1,0.8114137649536133,1,-1.216437458992004,1
1777499194420983552,-0.118323877453804,1,0.8060256242752075,1,-0.5454668402671814,1
1777499194430877696,-0.09432286024093628,1,0.6403429508209229,1,0.06385727226734161,1
1777499194440752384,-0.2034779638051987,1,0.9058217406272888,1,-0.04366271197795868,1
1777499194450607616,-0.1274811923503876,1,0.9532058835029602,1,-0.2106695175170898,1
1777499194460443904,-0.2008058428764343,1,0.7725410461425781,1,-0.04631921648979187,1
1777499194470260224,-0.1834176331758499,1,0.7516663074493408,1,-0.07642839848995209,1
1777499194480536320,-0.352977842092514,1,0.6365503072738647,1,-0.2621992230415344,1
1777499194490792448,-0.3349411487579346,1,0.4859752357006073,1,-0.1875260770320892,1
1777499194501028352,-0.2754312455654144,1,0.4074897766113281,1,-0.004714066162705421,1
1777499194511245056,-0.3253616988658905,1,0.2035448998212814,1,-0.1814042180776596,1
1777499194521442048,-0.259479284286499,1,0.04656901955604553,1,-0.4772977232933044,1
1777499194531619328,-0.4337099492549896,1,-0.1217237859964371,1,-0.5476738214492798,1
1777499194541776640,-0.4623634219169617,1,-0.003699837019667029,1,-0.4358689785003662,1
1777499194551915264,-0.2420264631509781,1,0.05550403892993927,1,-0.5706565380096436,1
1777499194562033664,-0.1567534059286118,1,-0.1671442538499832,1,0.09766368567943573,1
1777499194572132352,-0.1402886360883713,1,-0.270741194486618,1,0.1757539659738541,1
1777499194582210816,-0.08019134402275085,1,-0.2787138223648071,1,0.6197460889816284,1
1777499194592269568,-0.101557157933712,1,-0.2485740929841995,1,0.5249931812286377,1
1777499194602308608,-0.04950756579637527,1,-0.09680929780006409,1,0.8249984383583069,1
1777499194612327680,0.001025190576910973,1,0.06071370095014572,1,0.4986161887645721,1
1777499194622327296,0.05797206237912178,1,0.06686873733997345,1,0.612690269947052,1
1777499194632307200,0.03711569309234619,1,0.07441322505474091,1,0.8033762574195862,1
1777499194642267392,0.0325213223695755,1,0.125471368432045,1,0.9376658797264099,1
1777499194652207872,0.06661897897720337,1,-0.1053332090377808,1,1.034594416618347,1
1777499194662128640,0.09761016815900803,1,-0.1114254221320152,1,0.8701490163803101,1
1777499194672029952,0.0835760235786438,1,-0.4285228252410889,1,0.9965543150901794,1
1777499194681912320,-0.01229432225227356,1,-0.3056501746177673,1,1.148384571075439,1
1777499194691774720,0.1771481335163116,1,-0.136483371257782,1,0.8536573052406311,1
1777499194701617664,0.2034175097942352,1,-0.3657676577568054,1,0.8980221152305603,1
1777499194711441664,0.2956251502037048,1,-0.5095998644828796,1,0.6257153749465942,1
1777499194721481472,0.08610507100820541,1,-0.5477924346923828,1,0.4383695721626282,1
1777499194731736320,0.1625512540340424,1,-0.4819865226745605,1,0.1600394994020462,1
1777499194741971200,0.2712889015674591,1,-0.4084154069423676,1,-0.1108516901731491,1
1777499194752186624,0.370698869228363,1,-0.4925800561904907,1,-0.3687577247619629,1
1777499194762382592,0.3226536512374878,1,-0.5723884105682373,1,0.2209752947092056,1
1777499194772558848,0.3407024145126343,1,-0.442992627620697,1,-0.102524496614933,1
1777499194782715392,0.293653130531311,1,-0.4971505701541901,1,-0.2714493274688721,1
1777499194792852992,0.2380988895893097,1,-0.7487039566040039,1,-0.5786375999450684,1
1777499194802971136,0.1524532586336136,1,-0.52521151304245,1,-0.7762604951858521,1
1777499194813069824,0.1854790449142456,1,-0.3095280230045319,1,-0.7580326199531555,1
1777499194823148800,0.296729564666748,1,-0.1197108551859856,1,-0.5498273372650146,1
1777499194833212416,0.5452523231506348,1,-0.0839223638176918,1,-0.4860115647315979,1
1777499194843256576,0.5552410483360291,1,-0.1707696616649628,1,-0.3048321604728699,1
1777499194853281280,0.4701651930809021,1,-0.01250162348151207,1,-0.8986272811889648,1
1777499194863286528,0.3592574894428253,1,-0.322574645280838,1,-1.014212131500244,1
1777499194873272832,0.3190200924873352,1,-0.01669800095260143,1,-1.434256315231323,1
1777499194883239680,0.3894393444061279,1,-0.1841008067131042,1,-1.339308142662048,1
1777499194893187072,0.2243718802928925,1,-0.1817778944969177,1,-1.18044638633728,1
1777499194903115520,0.3878981471061707,1,-0.2459070384502411,1,-1.065827965736389,1
1777499194913025280,0.5304958820343018,1,-0.5019804835319519,1,-0.7660163640975952,1
1777499194922915584,0.6029870510101318,1,-0.3489323556423187,1,-0.9308172464370728,1
1777499194932786944,0.4001348912715912,1,-0.3889951109886169,1,-0.3906940817832947,1
1777499194942639104,0.4077796936035156,1,-0.2110183387994766,1,-0.6138166189193726,1
1777499194952472320,0.4371428787708282,1,-0.1777068674564362,1,0.238530308008194,1
1777499194962516224,0.404437780380249,1,-0.0697363018989563,1,0.2001827657222748,1
1777499194972770816,0.475748598575592,1,0.0438077449798584,1,0.490624874830246,1
1777499194983005696,0.433969646692276,1,0.1791931837797165,1,0.1370794773101807,1
1777499194993220608,0.1898969560861588,1,0.262017160654068,1,0.195964515209198,1
1777499195003415552,0.2826510965824127,1,0.09943243116140366,1,0.1821088492870331,1
1777499195013590528,0.4048178791999817,1,0.04985697939991951,1,0.147880494594574,1
1777499195023746048,0.3163680732250214,1,0.08237707614898682,1,0.3732321858406067,1
1777499195033881600,0.3774150013923645,1,-0.08571541309356689,1,0.2382482290267944,1
1777499195043997184,0.2084946185350418,1,-0.04040588811039925,1,0.8887194991111755,1
1777499195054095104,0.383048415184021,1,-0.09175536781549454,1,0.5716418623924255,1
1777499195064173056,0.4492602348327637,1,-0.1227373704314232,1,0.9263178706169128,1
1777499195074231040,0.458741158246994,1,-0.1865473389625549,1,0.655449390411377,1
1777499195084269312,0.1405107229948044,1,-0.06885170936584473,1,0.774450421333313,1
1777499195094287616,0.2135443240404129,1,-0.2755948901176453,1,0.6468685269355774,1
1777499195104286208,0.2958983182907104,1,-0.3354593515396118,1,0.7202103137969971,1
1777499195114264832,0.3577877879142761,1,-0.4501684606075287,1,0.5593507289886475,1
1777499195124224000,0.05938160419464111,1,-0.4603288471698761,1,0.7649214863777161,1
1777499195134163712,-0.03038810007274151,1,-0.4686190187931061,1,0.9380066990852356,1
1777499195144084224,0.03771986812353134,1,-0.1137316823005676,1,0.7095122933387756,1
1777499195153985536,0.2463437169790268,1,-0.09508258104324341,1,0.4421662390232086,1
1777499195163867136,0.1834607273340225,1,-0.06219232082366943,1,0.35129514336586,1
1777499195173729536,-0.3130288422107697,1,-0.02309082448482513,1,0.4339150786399841,1
1777499195183572480,-0.1586379557847977,1,-0.04868093132972717,1,0.7815707921981812,1
1777499195193396224,0.2824816107749939,1,-0.05902135744690895,1,0.7596011757850647,1
1777499195203435008,0.3263182640075684,1,0.1043183505535126,1,0.5110663175582886,1
1777499195213688320,0.181711420416832,1,0.3346036076545715,1,0.2244789600372314,1
1777499195223921152,0.00433909147977829,1,0.05748595669865608,1,-0.1861404180526733,1
1777499195234134016,-0.1152587160468102,1,0.06573949754238129,1,-0.2422306686639786,1
1777499195244326400,-9.960681200027466e-05,1,-0.08056917041540146,1,-0.403506726026535,1
1777499195254499840,0.07909984886646271,1,-0.5582311153411865,1,-0.1571579873561859,1
1777499195264653568,-0.000255487859249115,1,-0.3095147013664246,1,0.1753794401884079,1
1777499195274787072,0.07327212393283844,1,-0.2228897958993912,1,-0.1371418684720993,1
1777499195284900864,0.01211172714829445,1,-0.2403498739004135,1,0.3366793692111969,1
1777499195294994432,0.174715593457222,1,-0.1378372311592102,1,-0.5493689775466919,1
1777499195305068032,-0.04097798839211464,1,0.09943106770515442,1,-0.4502506256103516,1
1777499195315121664,-0.2122857868671417,1,0.03255532681941986,1,-0.5665081143379211,1
1777499195325155328,-0.3126167058944702,1,0.2557217478752136,1,-0.08564653247594833,1
1777499195335169536,0.0713026225566864,1,0.3221010565757751,1,-0.1086504757404327,1
1777499195345163776,0.2673900723457336,1,0.3583635091781616,1,0.09309385716915131,1
1777499195355138304,0.08936620503664017,1,0.4092170596122742,1,0.198393315076828,1
1777499195365092864,-0.09480974823236465,1,0.2183751910924911,1,0.1759349554777145,1
1777499195375027968,-0.05951747670769691,1,0.2387809455394745,1,-0.1142041981220245,1
1777499195384943360,0.0767439603805542,1,0.138570249080658,1,-0.3865374326705933,1
1777499195394841600,0.138840913772583,1,0.344415545463562,1,-0.517939031124115,1
1777499195404720128,-0.08435927331447601,1,0.1344985663890839,1,-0.5478313565254211,1
1777499195414579456,-0.1743786185979843,1,0.06746098399162292,1,-0.521725058555603,1
1777499195424419328,0.06699497997760773,1,0.1699339002370834,1,-0.5960370302200317,1
1777499195434239744,0.06414354592561722,1,-0.05236580967903137,1,-0.6953978538513184,1
1777499195444279040,-0.02770263142883778,1,-0.02247340232133865,1,-0.4435714483261108,1
1777499195454536704,-0.2054310142993927,1,0.1568898111581802,1,-0.6927689909934998,1
1777499195464774400,-0.1026540696620941,1,0.03773730248212814,1,-0.326786994934082,1
1777499195474991872,0.0962301641702652,1,0.1210435628890991,1,-0.3146688342094421,1
1777499195485189120,0.08156660199165344,1,0.3690264523029327,1,-0.3286102116107941,1
1777499195495366656,-0.01733818091452122,1,0.3105748295783997,1,-0.5035329461097717,1
1777499195505524992,-0.09940275549888611,1,-0.02539506182074547,1,-0.7739052772521973,1
1777499195515663104,-0.2518010437488556,1,0.00254848413169384,1,-0.4953432977199554,1
1777499195525781248,-0.09094715118408203,1,0.06384896486997604,1,-0.8714847564697266,1
1777499195535879424,-0.1430617868900299,1,-0.2148246467113495,1,-0.05684336274862289,1
1777499195545957888,-0.05043786391615868,1,0.1444994807243347,1,-0.4331419765949249,1
1777499195556016640,-0.1102275550365448,1,-0.0662863552570343,1,0.3561471402645111,1
1777499195566055424,-0.1073442623019218,1,-0.03735514730215073,1,0.04753882065415382,1
1777499195576074496,-0.1749179363250732,1,0.3304558098316193,1,0.5092924237251282,1
1777499195586074112,-0.1119747087359428,1,0.3304207026958466,1,1.066709637641907,1
1777499195596053760,-0.03892567381262779,1,0.2743754088878632,1,1.200949192047119,1
1777499195606013952,0.1270608007907867,1,0.3601513504981995,1,1.066708922386169,1
1777499195615954176,-0.08333417773246765,1,0.5613666176795959,1,0.7816014885902405,1
1777499195625875200,-0.3177506327629089,1,0.2034520357847214,1,0.5724319219589233,1
1777499195635776768,-0.4379709661006927,1,0.0556255504488945,1,0.5629796385765076,1
1777499195645658624,-0.2352799773216248,1,-0.1502567976713181,1,0.6905900835990906,1
1777499195655521280,-0.1950992494821548,1,-0.1737865805625916,1,0.7389645576477051,1
1777499195665364736,-0.1903623789548874,1,-0.1827299147844315,1,0.8490365147590637,1
1777499195675188992,-0.2518251836299896,1,-0.06056214869022369,1,0.8261774778366089,1
1777499195684993536,-0.3428264558315277,1,-0.2032616883516312,1,0.5034500360488892,1
1777499195695250432,-0.2070286124944687,1,-0.2121156752109528,1,0.09593627601861954,1
1777499195705486848,-0.2773823440074921,1,-0.3398785591125488,1,0.06669218093156815,1
1777499195715703296,-0.4081993997097015,1,-0.2582814991474152,1,0.128252387046814,1
1777499195725899264,-0.2481480985879898,1,-0.120404064655304,1,0.1016189903020859,1
1777499195736075264,-0.01993447542190552,1,-0.1072045117616653,1,0.2834177315235138,1
1777499195746231552,-0.03954633325338364,1,-0.1305625736713409,1,-0.01637100055813789,1
1777499195756367872,-0.1354257762432098,1,-0.2186749577522278,1,-0.1526225209236145,1
1777499195766485504,-0.1019349917769432,1,-0.1555152237415314,1,-0.3464360535144806,1
1777499195776583680,-0.1641933619976044,1,-0.2743076086044312,1,-0.4020877182483673,1
1777499195786661376,-0.07259646058082581,1,-0.1482630670070648,1,-0.7802960276603699,1
1777499195796719616,-0.1482658237218857,1,-0.3838019669055939,1,-0.4363170266151428,1
1777499195806757888,-0.02326289936900139,1,-0.2109700739383698,1,-1.196601390838623,1
1777499195816776448,-0.07407188415527344,1,-0.07484619319438934,1,-1.440032601356506,1
1777499195826775296,-0.224446028470993,1,-0.1801710277795792,1,-0.8758828043937683,1
1777499195836754432,-0.2791025340557098,1,0.1812391877174377,1,-0.5717951059341431,1
1777499195846714112,0.03157660365104675,1,0.3181664347648621,1,-0.1041985750198364,1
1777499195856654336,0.25282022356987,1,0.2300336211919785,1,0.2660134434700012,1
1777499195866574592,0.3162936270236969,1,0.4534040987491608,1,0.3691175282001495,1
1777499195876475136,0.006479207426309586,1,0.5808054208755493,1,0.003968125209212303,1
1777499195886356480,-0.06757864356040955,1,0.03178346902132034,1,0.01029102317988873,1
1777499195896217856,-0.1418161988258362,1,0.1583741456270218,1,0.3896095156669617,1
1777499195906060032,0.2039470374584198,1,0.03127788007259369,1,0.1885167509317398,1
1777499195915882496,0.1061685755848885,1,-0.0113883912563324,1,0.4039235413074493,1
1777499195925686016,0.2817812561988831,1,0.253623753786087,1,0.4352359771728516,1
1777499195935950848,0.04595400765538216,1,-0.06142674386501312,1,0.823504626750946,1
1777499195946195968,0.2304264754056931,1,-0.3132818341255188,1,0.6625557541847229,1
1777499195956421376,0.230861559510231,1,-0.4597416520118713,1,0.3789800703525543,1
1777499195966626816,0.1707187741994858,1,-0.6227146983146667,1,-0.1341393440961838,1
1777499195976812288,-0.1206423938274384,1,-0.7694152593612671,1,-0.5463488101959229,1
1777499195986977792,-0.2118439376354218,1,-0.6656432747840881,1,-0.6605978012084961,1
1777499195997123328,-0.01299421489238739,1,-0.7259897589683533,1,-0.8985025882720947,1
1777499196007249152,0.07769402116537094,1,-1.023579835891724,1,-0.3902563750743866,1
1777499196017355264,0.03948460519313812,1,-0.623788058757782,1,-0.6655248403549194,1
1777499196027442176,-0.05788540095090866,1,-0.7763506770133972,1,-0.01673200167715549,1
1777499196037509888,0.03280090168118477,1,-0.7839307188987732,1,-0.2863080203533173,1
1777499196047560960,0.05219726264476776,1,-0.3285370469093323,1,-0.3992249369621277,1
1777499196057592576,0.09283086657524109,1,-0.3859703838825226,1,-0.4508553743362427,1
1777499196067604480,-0.05503757297992706,1,-0.290362685918808,1,-0.031235096976161,1
1777499196077596928,-0.1149358302354813,1,-0.1036414057016373,1,-0.1303993761539459,1
1777499196087569920,-0.06387941539287567,1,-0.1502354294061661,1,0.3643127381801605,1
1777499196097523456,0.0765153169631958,1,-0.06070047989487648,1,0.6395518779754639,1
1777499196107457536,0.05906554684042931,1,0.272539883852005,1,0.8177037835121155,1
1777499196117372160,-0.1189364567399025,1,0.1940193921327591,1,0.8978124856948853,1
1777499196127267840,-0.07739529013633728,1,0.125080794095993,1,0.8411713242530823,1
1777499196137144064,-0.2186261117458344,1,0.1286250650882721,1,1.067334055900574,1
1777499196147000832,-0.1288888454437256,1,0.1940104216337204,1,1.04547107219696,1
1777499196156838144,-0.1003352254629135,1,0.3684670925140381,1,1.234534859657288,1
1777499196166656512,-0.07615780085325241,1,0.2277953177690506,1,1.143400549888611,1
1777499196176687872,-0.1133048757910728,1,0.2190526574850082,1,1.229435920715332,1
1777499196186932224,-0.1456967294216156,1,0.3300482332706451,1,1.034850001335144,1
1777499196197156608,-0.1814897060394287,1,0.2769595384597778,1,0.9753758907318115,1
1777499196207361792,-0.1747077852487564,1,0.2939512729644775,1,0.8663362264633179,1
1777499196217547264,-0.1619934737682343,1,-0.00920045655220747,1,0.9189239144325256,1
1777499196227713024,-0.2605695724487305,1,0.0421612411737442,1,0.5134252905845642,1
1777499196237858816,-0.2135842740535736,1,0.1196236982941628,1,0.649785578250885,1
1777499196247984896,-0.1915259063243866,1,0.2668901383876801,1,0.5497544407844543,1
1777499196258091264,-0.08084012567996979,1,0.3140013217926025,1,0.2204366326332092,1
1777499196268177920,-0.06605390459299088,1,0.4080432951450348,1,0.02457274869084358,1
1777499196278244864,-0.1898035109043121,1,0.224753201007843,1,-0.0807948037981987,1
1777499196288292864,-0.1485534906387329,1,0.3838532567024231,1,-0.4347690939903259,1
1777499196298321152,-0.2445466369390488,1,0.3701103031635284,1,-0.4990097284317017,1
1777499196308332800,-0.2395767718553543,1,0.3287701010704041,1,-0.5659504532814026,1
1777499196318325248,-0.1924154460430145,1,0.2403470128774643,1,-0.2623730301856995,1
1777499196328297984,-0.1255809366703033,1,0.1671830862760544,1,-0.2003897130489349,1
1777499196338251008,-0.09152685105800629,1,0.4832510650157928,1,-1.181724905967712,1
1777499196348184832,-0.2025619000196457,1,0.4217783808708191,1,-1.223276495933533,1
1777499196358098944,-0.6484441161155701,1,0.2561378479003906,1,-0.796643853187561,1
1777499196367993856,-0.5049418210983276,1,0.1135152727365494,1,-0.6661665439605713,1
1777499196377869056,-0.1922681629657745,1,0.3273935317993164,1,-0.5210317969322205,1
1777499196387724800,-0.05997784435749054,1,0.1611781716346741,1,-0.4323365688323975,1
1777499196397561600,-0.2217191606760025,1,0.5515837073326111,1,-0.2278379052877426,1
1777499196407378432,-0.489052027463913,1,0.6757356524467468,1,-0.9219873547554016,1
1777499196417409536,-0.2838721871376038,1,0.1587638854980469,1,-0.9354469180107117,1
1777499196427653888,-0.464704304933548,1,-0.06720423698425293,1,-1.041323661804199,1
1777499196437878272,-0.243432492017746,1,0.1700623035430908,1,-1.034355878829956,1
1777499196448082944,-0.3525407910346985,1,0.04749049991369247,1,-0.7724190354347229,1
1777499196458267648,-0.3018494844436646,1,-0.02035755850374699,1,-0.5557669401168823,1
1777499196468432384,-0.2646779716014862,1,-0.2196018844842911,1,-0.2735491693019867,1
1777499196478577408,-0.2249877154827118,1,-0.2352084368467331,1,-0.7023743391036987,1
1777499196488702720,-0.1712502837181091,1,-0.3751239776611328,1,-0.5903642773628235,1
1777499196498808064,-0.4405681192874908,1,-0.3468122482299805,1,-0.8047230243682861,1
1777499196508893440,-0.3136973083019257,1,-0.3643470704555511,1,-0.4644138216972351,1
1777499196518959360,-0.1609432995319366,1,-0.1733033806085587,1,-0.1765705943107605,1
1777499196529007616,0.01724657788872719,1,-0.2173075675964355,1,-0.01427754014730453,1
1777499196539036416,-0.04972027242183685,1,-0.1326139271259308,1,0.253176361322403,1
1777499196549046016,-0.07496479898691177,1,-0.0209195613861084,1,0.3526580333709717,1
1777499196559035904,-0.06950041651725769,1,-0.06997568905353546,1,0.5597270131111145,1
1777499196569006336,0.0009364457800984383,1,-0.1034119501709938,1,0.5337200164794922,1
1777499196578957056,-0.02451157942414284,1,0.2424879968166351,1,0.6011811494827271,1
1777499196588888576,-0.06423619389533997,1,-0.0297057032585144,1,1.085344076156616,1
1777499196598800128,-0.09226218611001968,1,0.2638548612594604,1,1.411049008369446,1
1777499196608692224,0.05691526457667351,1,0.5221853852272034,1,1.052072525024414,1
1777499196618565120,0.1405473500490189,1,0.1548869013786316,1,1.675729155540466,1
1777499196628418304,0.08234704285860062,1,0.3973830938339233,1,0.889516294002533,1
1777499196638252032,0.1027399525046349,1,0.6267288327217102,1,0.5618671774864197,1
1777499196648066304,-0.01047023385763168,1,0.1752433925867081,1,0.7161354422569275,1
1777499196658095360,-0.2867473363876343,1,-0.3951844871044159,1,1.392431616783142,1
1777499196668338944,-0.1324701458215714,1,-0.1525065004825592,1,0.8088703751564026,1
1777499196678562560,-0.1208094209432602,1,0.04425141215324402,1,0.3922637701034546,1
1777499196688765696,0.009844880551099777,1,-0.1880880892276764,1,0.6641489267349243,1
1777499196698949120,-0.2851564586162567,1,-0.04215323925018311,1,0.6282079815864563,1
1777499196709112576,-0.2055794894695282,1,0.003608744591474533,1,0.2802730202674866,1
1777499196719256064,0.04805442318320274,1,-0.2982385158538818,1,0.5215361714363098,1
1777499196729379584,0.06333775818347931,1,-0.3268687129020691,1,0.4794120192527771,1
1777499196739483136,0.04313299804925919,1,-0.2480277270078659,1,-0.1783862859010696,1
1777499196749566464,-0.2322530448436737,1,0.0131412148475647,1,-0.6986087560653687,1
1777499196759630080,-0.1333901584148407,1,-0.2755982279777527,1,-0.9969971179962158,1
1777499196769673728,-0.05445623397827148,1,-0.1607627719640732,1,-1.265547633171082,1
1777499196779697664,0.06539825350046158,1,-0.0002457648515701294,1,-1.111983299255371,1
1777499196789701888,-0.01239593233913183,1,-0.05835181474685669,1,-1.022902965545654,1
1777499196799686400,-0.03358209878206253,1,0.0631585568189621,1,-0.7749512195587158,1
1777499196809650944,-0.0261215940117836,1,-0.08922572433948517,1,-0.5886898636817932,1
1777499196819596032,0.0341443344950676,1,-0.19135881960392,1,-0.9507274627685547,1
1777499196829521408,-0.08291558176279068,1,-0.1835654526948929,1,-0.9050409197807312,1
1777499196839430400,-0.1161970049142838,1,-0.0301682073622942,1,-1.181764841079712,1
1777499196849320192,-0.1134841740131378,1,0.08447141200304031,1,-0.5379343628883362,1
1777499196859191040,-0.03625901415944099,1,0.1059898361563683,1,-0.1577991843223572,1
1777499196869042432,0.2240946143865585,1,-0.0171069223433733,1,0.4901211857795715,1
1777499196878875136,0.3150080740451813,1,-0.02805269882082939,1,0.3104443848133087,1
1777499196888688384,0.2009480893611908,1,0.06767529249191284,1,0.3824017345905304,1
1777499196898717440,0.1641137301921844,1,0.2672552466392517,1,-0.114782027900219,1
1777499196908961536,-0.05169375985860825,1,0.1995427459478378,1,0.3964002132415771,1
1777499196919185408,0.06809321045875549,1,-0.04126085340976715,1,0.3387344479560852,1
1777499196929389056,0.2504025995731354,1,-0.0629550889134407,1,0.4210805296897888,1
1777499196939572480,0.3158969283103943,1,-0.1042810752987862,1,0.1169878095388412,1
1777499196949735680,0.1902324855327606,1,-0.2114493697881699,1,0.3349080085754395,1
1777499196959879168,0.1033668965101242,1,-0.2943351566791534,1,-0.4604839682579041,1
1777499196970002432,0.1708574593067169,1,-0.3127404153347015,1,-0.2997130453586578,1
1777499196980105728,0.2286344021558762,1,-0.4433354735374451,1,-0.7098175287246704,1
1777499196990193664,0.1568164527416229,1,-0.4135789275169373,1,-0.2765564322471619,1
1777499197000261888,0.2770115733146667,1,-0.1133251190185547,1,-0.5717297792434692,1
1777499197010310144,0.2980238795280457,1,-0.4489002227783203,1,-0.07002802938222885,1
1777499197020338432,0.2514390349388123,1,-0.8267884850502014,1,0.4342734217643738,1
1777499197030347008,0.1550460159778595,1,-0.6411553621292114,1,0.2149340957403183,1
1777499197040335872,0.08811498433351517,1,-0.7223916053771973,1,1.175594329833984,1
1777499197050305024,0.7005831599235535,1,0.08294980973005295,1,0.1602410674095154,1
1777499197060254208,0.7673817276954651,1,-0.4174698889255524,1,-0.1603722423315048,1
1777499197070184192,0.6532143950462341,1,-0.2592946887016296,1,0.6468924283981323,1
1777499197080094720,-0.5656375288963318,1,0.145801767706871,1,0.2320845127105713,1
1777499197089985280,0.335384339094162,1,0.01719351299107075,1,1.780080199241638,1
1777499197099856640,0.4212685823440552,1,-0.1795721352100372,1,0.09973997622728348,1
1777499197109708288,0.3314012289047241,1,-0.3546874225139618,1,1.734063148498535,1
1777499197119540736,-0.3152959644794464,1,-0.07483509182929993,1,0.541833758354187,1
1777499197129353472,-0.06302635371685028,1,-0.00825660303235054,1,1.075974702835083,1
1777499197139384320,0.02115161530673504,1,0.4595104157924652,1,0.02157993614673615,1
1777499197149633024,0.4055206179618835,1,-0.1259564757347107,1,0.6790069937705994,1
1777499197159862272,-0.3037290573120117,1,-0.3061162233352661,1,1.652591586112976,1
1777499197170072064,0.02880876511335373,1,-0.3153632581233978,1,0.01646581292152405,1
1777499197180262144,-0.0238458663225174,1,-0.3479059338569641,1,0.2259786427021027,1
1777499197190432256,-0.06691966950893402,1,-0.6888045072555542,1,-0.286236971616745,1
1777499197200582656,-0.2192872911691666,1,-0.0553688257932663,1,0.02814944833517075,1
1777499197210713600,-0.06367625296115875,1,0.1118537411093712,1,-0.4684520959854126,1
1777499197220824576,-0.1505458056926727,1,0.3786680698394775,1,0.2294507622718811,1
1777499197230916352,0.07792145758867264,1,0.2536764740943909,1,0.285817950963974,1
1777499197240990976,-0.1329365670681,1,0.5751857757568359,1,0.2864547371864319,1
1777499197251046144,-0.07210797071456909,1,0.5414655208587646,1,0.2899754643440247,1
1777499197261081856,-0.1072656661272049,1,0.4521698355674744,1,-0.4243175983428955,1
1777499197271098112,-0.09807625412940979,1,0.3830702006816864,1,-0.2208251655101776,1
1777499197281095168,-0.2130407392978668,1,0.5896950960159302,1,-0.4589319825172424,1
1777499197291072768,-0.2540964782238007,1,0.6020349860191345,1,-0.5004064440727234,1
1777499197301030912,-0.274691253900528,1,0.3569473624229431,1,-0.186711773276329,1
1777499197310969344,-0.3285110592842102,1,0.2653309404850006,1,-0.4375129342079163,1
1777499197320889088,-0.3956873118877411,1,0.4224610924720764,1,-0.4980678856372833,1
1777499197330789376,-0.3035889565944672,1,0.5622231960296631,1,-0.6180813908576965,1
1777499197340670464,-0.3790596127510071,1,0.577612042427063,1,-0.5091779828071594,1
1777499197350532096,-0.2169822305440903,1,0.3769446611404419,1,-0.4619392454624176,1
1777499197360374784,-0.3144896328449249,1,0.2763870656490326,1,-0.5847549438476562,1
1777499197370197760,-0.3123288750648499,1,0.363364577293396,1,-0.458818793296814,1
1777499197380001792,-0.2396953403949738,1,0.6028125882148743,1,-0.4019837379455566,1
1777499197390258176,-0.2876729965209961,1,0.4480485618114471,1,-0.1947414577007294,1
1777499197400494848,-0.274851381778717,1,0.6103883981704712,1,-0.2793583869934082,1
1777499197410711296,-0.410359650850296,1,0.4278924763202667,1,-0.01597831398248672,1
1777499197420907776,-0.4242215156555176,1,0.3646290898323059,1,-0.1026181355118752,1
1777499197431084032,-0.2960180342197418,1,0.2662988901138306,1,-0.450603574514389,1
1777499197441240320,-0.3541139364242554,1,0.2166213691234589,1,-0.6153069734573364,1
1777499197451378432,-0.4776525497436523,1,0.1029922664165497,1,-0.4905456304550171,1
1777499197461496576,-0.5522265434265137,1,0.04886718839406967,1,-0.09187152236700058,1
1777499197471595008,-0.4338085353374481,1,-0.119577668607235,1,-0.06528186798095703,1
1777499197481673728,-0.2449012249708176,1,-0.1593939065933228,1,-0.0795709639787674,1
1777499197491733248,-0.2080307006835938,1,-0.2421485632658005,1,-0.03405365720391273,1
1777499197501773056,-0.3559095859527588,1,-0.3383728265762329,1,-0.08973126113414764,1
1777499197511793152,-0.4439869225025177,1,-0.3271154761314392,1,-0.06349215656518936,1
1777499197521793536,-0.3738657534122467,1,-0.3270677030086517,1,0.0968458354473114,1
1777499197531774720,-0.1252374798059464,1,-0.1498655676841736,1,0.1411302983760834,1
1777499197541736704,-0.1045147031545639,1,-0.05836286395788193,1,0.4840209186077118,1
1777499197551678976,-0.116863489151001,1,-0.1238643676042557,1,0.6766203045845032,1
1777499197561601792,-0.08721161633729935,1,-0.05437351763248444,1,0.8213201761245728,1
1777499197571504896,-0.06787184625864029,1,-0.08454596996307373,1,0.9764890670776367,1
1777499197581388544,0.02844968810677528,1,-0.08905483782291412,1,0.3204755187034607,1
1777499197591252992,-0.1772332638502121,1,-0.1926989704370499,1,0.2848418653011322,1
1777499197601097984,-0.425320029258728,1,-0.179519847035408,1,-0.07756231725215912,1
1777499197610924544,-0.433774322271347,1,-0.2572744488716125,1,0.4146108329296112,1
1777499197620732160,-0.1992696970701218,1,-0.003398426808416843,1,0.3067349791526794,1
1777499197630754048,-0.05037998780608177,1,-0.05469516664743423,1,0.6723801493644714,1
1777499197640989952,-0.05287193134427071,1,-0.3028711676597595,1,0.811778724193573,1
1777499197651206144,-0.1367601305246353,1,-0.3287512362003326,1,0.8367195725440979,1
1777499197661403136,-0.2343463599681854,1,-0.1568819880485535,1,0.4273590743541718,1
1777499197671580416,-0.08969025313854218,1,-0.3209172785282135,1,0.3895666003227234,1
1777499197681737984,-0.09982296824455261,1,-0.2082198560237885,1,0.5131532549858093,1
1777499197691875840,-0.139200434088707,1,-0.1568958610296249,1,0.1502628028392792,1
1777499197701994240,-0.06799603998661041,1,-0.1738886535167694,1,0.1306270658969879,1
1777499197712092416,0.01795816235244274,1,-0.3069158494472504,1,-0.02350135520100594,1
1777499197722171136,-0.01724487915635109,1,-0.2402862906455994,1,-0.3888430595397949,1
1777499197732232704,-0.06276120245456696,1,-0.2230636030435562,1,-0.5498198866844177,1
1777499197742274560,-0.09845999628305435,1,-0.4191986918449402,1,-0.4382882714271545,1
1777499197752296960,0.09067188203334808,1,-0.5546420216560364,1,-0.1974327713251114,1
1777499197762299392,0.1946656405925751,1,-0.5546841025352478,1,-0.2784702181816101,1
1777499197772282112,0.4678305387496948,1,-0.4264437258243561,1,-0.2890771925449371,1
1777499197782244864,0.380502313375473,1,-0.6480132341384888,1,-0.3522011041641235,1
1777499197792188416,0.2930592596530914,1,-0.4608539640903473,1,-0.5082581639289856,1
1777499197802112512,0.2822450995445251,1,-0.4111999273300171,1,-0.7131425142288208,1
1777499197812017664,0.3229650855064392,1,-0.4256792962551117,1,-0.3873756527900696,1
1777499197821903104,0.4907036125659943,1,-0.3138981461524963,1,-0.4913466274738312,1
1777499197831769344,0.5005167126655579,1,-0.3383676409721375,1,0.1416962742805481,1
1777499197841616384,0.5386854410171509,1,-0.2315132468938828,1,0.05669018626213074,1
1777499197851443968,0.5293088555335999,1,-0.113938957452774,1,0.4524064362049103,1
1777499197861252352,0.5323055982589722,1,-0.135442703962326,1,0.288919985294342,1
1777499197871275008,0.4959515929222107,1,-0.04258552938699722,1,0.3320349454879761,1
1777499197881511424,0.4282040596008301,1,-0.03937939554452896,1,-0.008902600966393948,1
1777499197891727872,0.3136080503463745,1,0.1249205693602562,1,-0.007285312749445438,1
1777499197901924864,0.4648079872131348,1,0.2712424993515015,1,-0.2117678821086884,1
1777499197912101888,0.605079710483551,1,0.01291440427303314,1,0.03103852644562721,1
1777499197922258688,0.4866828620433807,1,-0.08604700863361359,1,-0.3493624031543732,1
1777499197932395776,0.4896480441093445,1,-0.1991258412599564,1,-0.7194774746894836,1
1777499197942513152,0.44781693816185,1,-0.3411836326122284,1,-0.4760023653507233,1
1777499197952610816,0.4745134115219116,1,-0.4517797529697418,1,-0.8700568079948425,1
1777499197962688512,0.4026326239109039,1,-0.7910504341125488,1,-0.4369987547397614,1
1777499197972746752,0.4056685864925385,1,-0.7749701738357544,1,-0.4802554547786713,1
1777499197982787328,0.3787101805210114,1,-0.6364749670028687,1,-0.2341649383306503,1
1777499197992808704,0.3906251490116119,1,-0.5112951397895813,1,0.08412685245275497,1
1777499198002810624,0.599921703338623,1,-0.5109835863113403,1,-0.1427818536758423,1
1777499198012792576,0.4931290745735168,1,-0.3489951193332672,1,-0.3634987473487854,1
1777499198022755840,0.3147166073322296,1,-0.2413070946931839,1,-0.4173598289489746,1
1777499198032699392,-0.06135611608624458,1,-0.1932872980833054,1,0.3595455884933472,1
1777499198042623488,0.1642779856920242,1,0.03025814518332481,1,0.3793493807315826,1
1777499198052528128,0.4276059567928314,1,0.4078987240791321,1,0.9697639942169189,1
1777499198062414080,0.4738966226577759,1,0.4192670881748199,1,0.8957326412200928,1
1777499198072280832,-0.01485537365078926,1,0.6067461967468262,1,1.194613695144653,1
1777499198082128384,-0.1432516872882843,1,0.714968204498291,1,0.4183531999588013,1
1777499198091956480,0.08328951895236969,1,0.353990375995636,1,0.7367866635322571,1
1777499198101765632,0.2816215753555298,1,0.2637272477149963,1,1.038565754890442,1
1777499198111788544,0.03651184588670731,1,0.637076199054718,1,0.8701028823852539,1
1777499198122024704,-0.1336139440536499,1,0.7400016784667969,1,0.4842410087585449,1
1777499198132241152,0.02312646061182022,1,0.4761504828929901,1,0.4221931397914886,1
1777499198142437888,-0.1208751946687698,1,0.3093595206737518,1,0.7531976699829102,1
1777499198152615424,-0.01008752919733524,1,0.413252592086792,1,0.4457429051399231,1
1777499198162772736,-0.3769952058792114,1,0.4113989770412445,1,1.010706424713135,1
1777499198172910336,-0.3036408722400665,1,0.4044211208820343,1,0.5039867758750916,1
1777499198183028224,-0.3840320110321045,1,0.3920944333076477,1,0.8711137175559998,1
1777499198193126656,-0.2833163440227509,1,0.4422842264175415,1,0.3764140605926514,1
1777499198203205632,-0.422341376543045,1,0.2915076911449432,1,0.3224148750305176,1
1777499198213264640,-0.5434347987174988,1,0.2737208604812622,1,0.03768015652894974,1
1777499198223305472,-0.6444029211997986,1,0.3141639828681946,1,-0.0813194066286087,1
1777499198233328384,-0.5210341811180115,1,0.2257860004901886,1,-0.2244088798761368,1
1777499198243331840,-0.4788811802864075,1,0.3892456293106079,1,-0.2295246124267578,1
1777499198253315584,-0.6337530016899109,1,0.2707704603672028,1,-0.4444722235202789,1
1777499198263279872,-0.6541175246238708,1,0.2365200370550156,1,-0.401427298784256,1
1777499198273224960,-0.7630646824836731,1,0.513336181640625,1,-0.839011013507843,1
1777499198283150592,-0.6329068541526794,1,0.3861382007598877,1,-0.96389240026474,1
1777499198293057280,-0.8898287415504456,1,0.431211531162262,1,-0.743243396282196,1
1777499198302944512,-0.738394558429718,1,0.3709794580936432,1,-0.8949577808380127,1
1777499198312812800,-0.6981281638145447,1,0.3308679461479187,1,-0.5320102572441101,1
1777499198322661888,-0.6736735105514526,1,0.2829446196556091,1,-0.4716714024543762,1
1777499198332491520,-0.6539168953895569,1,0.3176872730255127,1,-0.4933529794216156,1
1777499198342301952,-0.8065789937973022,1,0.5012402534484863,1,-0.5363010764122009,1
1777499198352325888,-0.72465980052948,1,0.1157060042023659,1,-0.5089797973632812,1
1777499198362562816,-0.7905555367469788,1,0.1073606461286545,1,-0.3486998379230499,1
1777499198372779776,-0.7210939526557922,1,0.05193973332643509,1,-0.6252802014350891,1
1777499198382977024,-0.8177174925804138,1,-0.1402652412652969,1,-0.4477038383483887,1
1777499198393154816,-0.7192882895469666,1,-0.2845428586006165,1,-0.7542725205421448,1
1777499198403312896,-0.6393140554428101,1,-0.5731807947158813,1,-0.7252786159515381,1
1777499198413451520,-0.4956157207489014,1,-0.7496966123580933,1,-0.8520331382751465,1
1777499198423570176,-0.4883153140544891,1,-0.7965555787086487,1,-0.9370818138122559,1
1777499198433669888,-0.5306225419044495,1,-0.7236741185188293,1,-0.6315754652023315,1
1777499198443750144,-0.6657654643058777,1,-0.6422869563102722,1,0.1576107740402222,1
1777499198453810944,-0.3314504623413086,1,-0.6242215037345886,1,-0.04384147003293037,1
1777499198463852032,-0.3552598357200623,1,-0.3334129452705383,1,0.2285411953926086,1
1777499198473873920,-0.254432886838913,1,-0.3034304678440094,1,-0.4361279904842377,1
1777499198483876608,-0.4120829105377197,1,-0.138053297996521,1,-0.07789026945829391,1
1777499198493862656,-0.4929246604442596,1,-0.02742168307304382,1,-0.3728152513504028,1
1777499198503829248,-0.4463860094547272,1,0.05858064442873001,1,0.6294823884963989,1
1777499198513776384,-0.2121761292219162,1,0.3652465343475342,1,0.4843460023403168,1
1777499198523704320,-0.2472530603408813,1,0.3620484471321106,1,1.036628007888794,1
1777499198533612800,-0.4158583581447601,1,0.7420443892478943,1,0.5498853921890259,1
1777499198543502080,-0.4893341362476349,1,0.6133135557174683,1,0.334517776966095,1
1777499198553372160,-0.5851646065711975,1,0.5670845508575439,1,-0.03355476260185242,1
1777499198563222528,-0.4890865981578827,1,0.1899854689836502,1,-0.03082569316029549,1
1777499198573054720,-0.5736011862754822,1,0.4556353986263275,1,-0.008349193260073662,1
1777499198582867200,-0.4887091815471649,1,0.6831085681915283,1,0.431925892829895,1
1777499198592660736,-0.3979751765727997,1,0.67275470495224,1,0.7393794655799866,1
1777499198602901760,-0.3011648952960968,1,0.3949220478534698,1,1.053081393241882,1
1777499198613123072,-0.2679452300071716,1,0.1752321124076843,1,0.6332488059997559,1
1777499198623324416,-0.2259549051523209,1,-0.07684488594532013,1,0.540031373500824,1
1777499198633505792,-0.1871349364519119,1,-0.2581599950790405,1,-0.1790499687194824,1
1777499198643667200,-0.2766172587871552,1,-0.2270670533180237,1,-0.08349789679050446,1
1777499198653809152,-0.1610315889120102,1,-0.3111238479614258,1,-0.5028655529022217,1
1777499198663931904,-0.04182346165180206,1,-0.3567799925804138,1,0.1533375382423401,1
1777499198674036224,0.299872100353241,1,-0.5236992835998535,1,0.1413243860006332,1
1777499198684121344,0.3915929198265076,1,-0.4899636805057526,1,0.4746708869934082,1
1777499198694186752,0.3459745049476624,1,-0.543172299861908,1,0.3104548156261444,1
1777499198704232704,0.2226132303476334,1,-0.3824376165866852,1,0.2914876937866211,1
1777499198714258944,0.268099844455719,1,-0.3918457329273224,1,0.3209056854248047,1
1777499198724265728,0.32024085521698,1,-0.095367431640625,1,0.1342310607433319,1
1777499198734253056,0.4459933936595917,1,-0.1560405790805817,1,0.4943163394927979,1
1777499198744221184,0.4001685678958893,1,-0.07334734499454498,1,0.7095410227775574,1
1777499198754170368,0.5352881550788879,1,-0.0734059065580368,1,0.6338937878608704,1
1777499198764100608,0.5871525406837463,1,0.0185479111969471,1,0.5899498462677002,1
1777499198774011392,0.6840190887451172,1,0.01296724751591682,1,0.714698851108551,1
1777499198783902720,0.709326446056366,1,-0.09312120079994202,1,0.5526891946792603,1
1777499198793775104,0.7519113421440125,1,-0.04216745495796204,1,0.09886206686496735,1
1777499198803628032,0.8553619384765625,1,-0.4263598918914795,1,0.06997900456190109,1
1777499198813461760,0.8122515082359314,1,-0.4982315897941589,1,0.0150725319981575,1
1777499198823276544,0.813285231590271,1,-0.6114346385002136,1,-0.2124515026807785,1
1777499198833072896,0.870840847492218,1,-0.5657004714012146,1,-0.2404364049434662,1
1777499198843322624,0.9401398301124573,1,-0.883476734161377,1,-0.2921449840068817,1
1777499198853552640,1.036773920059204,1,-0.6334378123283386,1,-0.2379477024078369,1
1777499198863762944,1.028741240501404,1,-0.3118652105331421,1,-0.1762306988239288,1
1777499198873953280,1.073974013328552,1,-0.5298315286636353,1,-0.1982936263084412,1
1777499198884123648,0.5114912986755371,1,-0.1760836839675903,1,0.3172483444213867,1
1777499198894274304,0.5673253536224365,1,-0.007447429001331329,1,-0.2639745473861694,1
1777499198904405248,0.4243625402450562,1,0.2441582381725311,1,0.4538174569606781,1
1777499198914518016,0.5699734091758728,1,0.4192136824131012,1,0.07187263667583466,1
1777499198924611072,0.7364480495452881,1,0.6534796357154846,1,0.6009894609451294,1
1777499198934684416,0.5039727687835693,1,1.061882495880127,1,0.101276807487011,1
1777499198944738048,0.6182951331138611,1,0.8107563853263855,1,0.587247908115387,1
1777499198954772736,0.2341807931661606,1,0.9927471280097961,1,0.09884403645992279,1
1777499198964787712,0.3629438281059265,1,0.8547140955924988,1,0.08261498808860779,1
1777499198974782976,0.358055979013443,1,0.9697992205619812,1,0.1578354239463806,1
1777499198984758784,0.4621395766735077,1,0.8060367107391357,1,0.2002939283847809,1
1777499198994715648,0.3339771330356598,1,0.5963801145553589,1,0.2762784957885742,1
1777499199004652800,0.1753708869218826,1,0.532421350479126,1,-0.1562552452087402,1
1777499199014570752,0.1650528907775879,1,0.3880746066570282,1,-0.02469516173005104,1
1777499199024469248,0.2158075720071793,1,0.1768494695425034,1,-0.1595571041107178,1
1777499199034348288,0.1303287297487259,1,0.2307198196649551,1,-0.2859345674514771,1
1777499199044208128,-0.003678411245346069,1,0.1736393421888351,1,-0.57918781042099,1
1777499199054048512,-0.1102883368730545,1,0.0630602091550827,1,0.0482289157807827,1
1777499199063869696,-0.0604836717247963,1,0.2155202776193619,1,-0.3104842305183411,1
1777499199073672704,0.1491066217422485,1,0.2360653728246689,1,-0.3156463205814362,1
1777499199083689728,0.1226612478494644,1,0.3715651035308838,1,-0.1592970341444016,1
1777499199093920000,0.03698226809501648,1,0.5254358649253845,1,-0.4675078094005585,1
1777499199104130304,0.0004893634468317032,1,0.5865268707275391,1,-0.1183300539851189,1
1777499199114321408,0.206189438700676,1,0.7048518657684326,1,-0.341541975736618,1
1777499199124492544,0.2112272530794144,1,0.4132227599620819,1,-0.006051113829016685,1
1777499199134644224,0.1672873497009277,1,0.3778911828994751,1,-0.04606037586927414,1
1777499199144775936,0.1704679131507874,1,0.1598228216171265,1,0.06143144890666008,1
1777499199154887936,0.3196844160556793,1,-0.2465536594390869,1,0.1334080696105957,1
1777499199164980480,0.3948853015899658,1,-0.006763127632439137,1,0.1611957252025604,1
1777499199175053056,0.4756896197795868,1,0.08631710708141327,1,0.3199329674243927,1
1777499199185105920,0.2619242072105408,1,-0.0001346804201602936,1,0.8577818870544434,1
1777499199195139840,0.2741257548332214,1,-0.2052025645971298,1,0.7147709131240845,1
1777499199205153792,0.1676890701055527,1,-0.4268982708454132,1,0.9701006412506104,1
1777499199215148288,0.2169993817806244,1,-0.3094593584537506,1,0.5291982293128967,1
1777499199225123072,0.3700246214866638,1,-0.2807939052581787,1,0.3845891058444977,1
1777499199235078656,0.3251300752162933,1,-0.3252192735671997,1,0.3178243935108185,1
1777499199245014528,0.2909111976623535,1,-0.2181532382965088,1,0.5015587210655212,1
1777499199254930944,0.3520805239677429,1,-0.4287016987800598,1,0.5877575874328613,1
1777499199264830720,0.5861167907714844,1,-0.3934489786624908,1,0.6927967667579651,1
1777499199274713344,0.7355085015296936,1,-0.243114709854126,1,0.2136828452348709,1
1777499199284576768,0.6960481405258179,1,-0.8825840353965759,1,-0.04109399765729904,1
1777499199294421248,0.6752146482467651,1,-1.042849898338318,1,-0.9951152801513672,1
1777499199304246272,0.5961312651634216,1,-0.9828950166702271,1,-1.115263700485229,1
1777499199314052352,0.419614315032959,1,-1.336292624473572,1,-1.195111989974976,1
1777499199324071680,0.4558053314685822,1,-1.013110518455505,1,-0.962414562702179,1
1777499199334303232,0.5761039257049561,1,-0.939517617225647,1,-0.9592758417129517,1
1777499199344515328,0.4663916230201721,1,-1.091031074523926,1,-0.4636752605438232,1
1777499199354707456,0.5117765069007874,1,-1.046036720275879,1,-0.3773945271968842,1
1777499199364879872,0.3565578758716583,1,-1.108925342559814,1,-0.03743522986769676,1
1777499199375032576,0.385277658700943,1,-0.9506739974021912,1,-0.2352467775344849,1
1777499199385165824,0.406149834394455,1,-0.5753625631332397,1,-0.1288416087627411,1
1777499199395279104,0.3458636701107025,1,-0.6100612282752991,1,0.0195203460752964,1
1777499199405372928,0.2932063341140747,1,-0.230233833193779,1,0.1737215518951416,1
1777499199415447040,0.2207955569028854,1,0.1984694749116898,1,0.04678520560264587,1
1777499199425501696,0.1162888705730438,1,0.2292511612176895,1,0.5389665365219116,1
1777499199435540224,0.1561549007892609,1,0.03192876651883125,1,0.2925911545753479,1
1777499199445559040,0.1137223839759827,1,0.1886104643344879,1,0.5305632948875427,1
1777499199455558656,0.026646813377738,1,0.3071283400058746,1,0.396963357925415,1
1777499199465538816,0.1451926827430725,1,0.1633144468069077,1,0.3285744786262512,1
1777499199475499776,0.07047871500253677,1,0.2150691151618958,1,0.4857633709907532,1
1777499199485441280,0.0285708736628294,1,0.1085119768977165,1,0.2262981832027435,1
1777499199495363328,0.0550205372273922,1,-0.1142333596944809,1,0.3007560670375824,1
1777499199505266176,0.1486027538776398,1,-0.04435205087065697,1,0.1094444841146469,1
1777499199515150336,0.259652704000473,1,-0.1789654940366745,1,0.1740089803934097,1
1777499199525015040,0.2335734516382217,1,-0.2458256334066391,1,-0.02026492357254028,1
1777499199534860800,0.2885165214538574,1,-0.3824552595615387,1,-0.0285639576613903,1
1777499199544687104,0.2898880243301392,1,-0.5697221755981445,1,0.1261677592992783,1
1777499199554494464,0.3991456031799316,1,-0.3904393911361694,1,-0.4139483273029327,1
1777499199564513792,0.4241448044776917,1,-0.5082876682281494,1,-0.3933970928192139,1
1777499199574744320,0.2923871874809265,1,-0.7034733891487122,1,-0.4009497165679932,1
1777499199584954624,0.1813352108001709,1,-0.5631544589996338,1,-0.2662529349327087,1
1777499199595144960,0.352990448474884,1,-0.4266003370285034,1,0.2069729864597321,1
1777499199605316096,0.6315879821777344,1,-0.4529947340488434,1,0.1247115284204483,1
1777499199615467520,0.595695972442627,1,-0.1717982441186905,1,0.3388916254043579,1
1777499199625599744,0.5278747081756592,1,-0.261395275592804,1,0.2798134386539459,1
1777499199635712256,0.3655559718608856,1,-0.1423404514789581,1,0.3971437215805054,1
1777499199645805568,0.5390533208847046,1,-0.08382759243249893,1,0.1690159440040588,1
1777499199655879168,0.3149339258670807,1,-0.2068158835172653,1,0.3561563789844513,1
1777499199665933312,0.3416763544082642,1,0.1045327335596085,1,0.1307306289672852,1
1777499199675967488,0.3672597706317902,1,0.239104300737381,1,-0.004590053111314774,1
1777499199685982976,0.3989938199520111,1,0.4094180166721344,1,-0.4624417126178741,1
1777499199695979008,0.3053008913993835,1,0.4705780744552612,1,-0.350496917963028,1
1777499199705956864,0.07800574600696564,1,0.8674037456512451,1,-0.03299273550510406,1
1777499199715916800,0.1915609687566757,1,0.6544685959815979,1,0.9470922350883484,1
1777499199725857280,0.4574310779571533,1,0.4806094765663147,1,0.5871341228485107,1
1777499199735778304,0.5980116724967957,1,0.7383517026901245,1,0.6865437626838684,1
1777499199745680128,0.3931061923503876,1,0.8271864652633667,1,0.6583755016326904,1
1777499199755563008,0.125134214758873,1,0.6274452209472656,1,0.5163436532020569,1
1777499199765426432,0.1213807985186577,1,0.6703447699546814,1,0.2339436709880829,1
1777499199775270912,0.2737114429473877,1,0.6245721578598022,1,0.5723905563354492,1
1777499199785096704,0.3251598477363586,1,0.4141914546489716,1,0.6121127605438232,1
1777499199794903552,0.3291872441768646,1,0.4418956935405731,1,0.4790336787700653,1
1777499199804922624,0.1550009697675705,1,0.4333637952804565,1,0.3797320425510406,1
1777499199815153664,0.09674747288227081,1,0.3619538545608521,1,0.2676096260547638,1
1777499199825364992,0.1052806302905083,1,0.02786815539002419,1,0.3552046716213226,1
1777499199835556352,0.1533167958259583,1,0.03092139959335327,1,0.4664353132247925,1
1777499199845727744,0.2380336821079254,1,0.1240933984518051,1,0.3212078809738159,1
1777499199855880192,0.3213000893592834,1,-0.05282800644636154,1,0.2066368013620377,1
1777499199866012928,0.1301998496055603,1,-0.2026501893997192,1,0.5341628789901733,1
1777499199876126208,0.1182426586747169,1,-0.1062339618802071,1,0.2207591980695724,1
1777499199886219776,0.1269189715385437,1,-0.1658449918031693,1,0.5701087713241577,1
1777499199896293888,0.2208539694547653,1,-0.3457873463630676,1,0.35488361120224,1
1777499199906348800,0.1376838982105255,1,-0.02565328776836395,1,0.4259474873542786,1
1777499199916384256,0.01298176124691963,1,-0.05944368243217468,1,-0.07256758958101273,1
1777499199926400256,-0.01469231583178043,1,0.1707036346197128,1,-0.060918889939785,1
1777499199936397056,0.00141792674548924,1,0.1163670271635056,1,-0.04422730952501297,1
1777499199946376448,-0.02131151780486107,1,0.1579229831695557,1,0.4906789362430573,1
1777499199956336384,0.01878322660923004,1,0.2032689899206161,1,0.2334627211093903,1
1777499199966277120,0.1364410519599915,1,0.07642197608947754,1,0.5546829104423523,1
1777499199976198144,0.07082045078277588,1,0.144847571849823,1,0.1363125741481781,1
1777499199986099968,-0.04312565922737122,1,0.1917668730020523,1,-0.05715006589889526,1
1777499199995982336,-0.0697488933801651,1,-0.08006684482097626,1,-0.06855382025241852,1
1777499200005845248,-0.1171428263187408,1,-0.2038281708955765,1,-0.1489723324775696,1
1777499200015688960,0.02351361699402332,1,0.01100233197212219,1,-0.09104224294424057,1
1777499200025513984,0.1168643161654472,1,-0.08414934575557709,1,-0.03386764973402023,1
1777499200035319808,0.1456579715013504,1,-0.05323149636387825,1,-0.1193856224417686,1
1777499200045340672,0.008122384548187256,1,-0.0280772652477026,1,-0.7659692764282227,1
1777499200055576832,-0.1109327971935272,1,-0.01959059946238995,1,-0.5969717502593994,1
1777499200065792768,-0.2986631691455841,1,-0.1191002354025841,1,-0.4594924747943878,1
1777499200075988992,-0.2739905118942261,1,0.05335631594061852,1,-0.1748677492141724,1
1777499200086166272,0.05468684807419777,1,0.2860442996025085,1,-0.4699222147464752,1
1777499200096324096,0.03914903104305267,1,0.09416947513818741,1,-0.1761154979467392,1
1777499200106461952,-0.07425665855407715,1,0.126186266541481,1,-0.1292787790298462,1
1777499200116580096,-0.2862798869609833,1,0.3985638320446014,1,-0.4696584045886993,1
