FILE_INFO
ListSeparator=,
DecimalSeparator=.

SESSION_INFO
TimeZone,UTC
TimeZoneOffset,0
DateTimeFormat,nnnnnnnnnnnnnnnnnnn
StartTime,04/29/26 21:28:31.089049856
TimeFormat,Unix

DEVICE_INFO
Address,*

CHANNEL_INFO
Channel,Type,SampleRate,Equation,Coefficients,Unit,UnitSymbol,WhereApplied,WhenApplied
inertial-6286.188861:estLinearAccelX,Timeseries,100Hz,,,,,,
inertial-6286.188861:estLinearAccelX:valid,ValidFlag,100Hz,,,,,,
inertial-6286.188861:estLinearAccelY,Timeseries,100Hz,,,,,,
inertial-6286.188861:estLinearAccelY:valid,ValidFlag,100Hz,,,,,,
inertial-6286.188861:estLinearAccelZ,Timeseries,100Hz,,,,,,
inertial-6286.188861:estLinearAccelZ:valid,ValidFlag,100Hz,,,,,,

DATA_START
Time,inertial-6286.188861:estLinearAccelX,inertial-6286.188861:estLinearAccelX:valid,inertial-6286.188861:estLinearAccelY,inertial-6286.188861:estLinearAccelY:valid,inertial-6286.188861:estLinearAccelZ,inertial-6286.188861:estLinearAccelZ:valid
1777498111089049856,0.004353804513812065,1,0.0022665208671242,1,0.03814227133989334,1
1777498111098727424,-0.001516039832495153,1,-0.0007116872584447265,1,0.0371442548930645,1
1777498111108385792,-0.004611372947692871,1,-0.009877935983240604,1,0.04522030428051949,1
1777498111118024960,-0.007349118590354919,1,-0.009607652202248573,1,0.04833619296550751,1
1777498111127645696,-0.01181633211672306,1,-0.00739271380007267,1,0.03681895881891251,1
1777498111137246976,-0.01540345046669245,1,-0.01137459278106689,1,0.03736654296517372,1
1777498111146829824,-0.01289225742220879,1,-0.01211874093860388,1,0.04589821398258209,1
1777498111156393216,-0.01128718350082636,1,-0.01096035819500685,1,0.04803642630577087,1
1777498111166176000,-0.01314948778599501,1,-0.003623846685513854,1,0.0347699336707592,1
1777498111176177408,-0.01223764568567276,1,-0.00134934822563082,1,0.0424131453037262,1
1777498111186159360,-0.008569885045289993,1,-0.004733256064355373,1,0.04434886202216148,1
1777498111196121344,-0.004768353886902332,1,-0.003267755731940269,1,0.04621288180351257,1
1777498111206063872,-0.003092407016083598,1,0.002033591503277421,1,0.03662780672311783,1
1777498111215986944,-0.0005637384601868689,1,0.005072648636996746,1,0.03812428936362267,1
1777498111225890816,0.001730701187625527,1,0.003076085820794106,1,0.04160693287849426,1
1777498111235774720,0.003130871336907148,1,0.00321500631980598,1,0.04474243521690369,1
1777498111245639168,0.004930648487061262,1,0.008066489361226559,1,0.04344629496335983,1
1777498111255484160,0.003697882173582911,1,0.009068762883543968,1,0.037783183157444,1
1777498111265310208,0.003855402348563075,1,0.004543994553387165,1,0.0477316603064537,1
1777498111275116288,0.006882315967231989,1,0.001567656989209354,1,0.04435396194458008,1
1777498111284903168,0.008744906634092331,1,0.00145945732947439,1,0.04215483367443085,1
1777498111294670848,0.006952851545065641,1,0.003084601368755102,1,0.0351683646440506,1
1777498111304419584,0.007004020269960165,1,-0.001018701586872339,1,0.04462787508964539,1
1777498111314148864,0.007445012684911489,1,-0.003406214760616422,1,0.04515904933214188,1
1777498111323858688,0.006946812849491835,1,-0.001710306387394667,1,0.04318491742014885,1
1777498111333549568,0.003934524022042751,1,-0.002459491835907102,1,0.04046624153852463,1
1777498111343220992,0.00220578582957387,1,-0.004489397630095482,1,0.0438079871237278,1
1777498111352874752,-0.001573741901665926,1,-0.005782147403806448,1,0.04691220074892044,1
1777498111362510592,-0.003932537510991096,1,-0.001627491903491318,1,0.04200612008571625,1
1777498111372127744,-0.008087486028671265,1,0.0004407105734571815,1,0.03907456621527672,1
1777498111381725696,-0.007680411916226149,1,-0.0001802180631784722,1,0.03876460716128349,1
1777498111391304960,-0.009721571579575539,1,-0.001008789637126029,1,0.04346009716391563,1
1777498111400865024,-0.009928550571203232,1,-3.378151450306177e-05,1,0.04139192774891853,1
1777498111410886912,-0.01118588540703058,1,0.003164490917697549,1,0.03987056016921997,1
1777498111420889600,-0.008704762905836105,1,0.002484347205609083,1,0.03947582468390465,1
1777498111430873088,-0.004547269083559513,1,0.0008079659892246127,1,0.04308668151497841,1
1777498111440836608,-0.001190786017104983,1,-0.001620498020201921,1,0.04198776185512543,1
1777498111450780672,-0.0007234683143906295,1,0.0002698639000300318,1,0.03969254717230797,1
1777498111460704768,0.001831397064961493,1,-0.001199648948386312,1,0.04109043627977371,1
1777498111470609664,0.005723881535232067,1,-0.003350872080773115,1,0.04502713680267334,1
1777498111480494592,0.009597530588507652,1,-0.004103407263755798,1,0.04236413910984993,1
1777498111490361344,0.009608940221369267,1,-0.003451040247455239,1,0.04005145654082298,1
1777498111500208384,0.009588059037923813,1,-0.003542569000273943,1,0.0399671271443367,1
1777498111510036224,0.007570091634988785,1,-0.002931465860456228,1,0.04198803752660751,1
1777498111519844352,0.006508397404104471,1,0.001298173563554883,1,0.04294322803616524,1
1777498111529633280,0.001842278055846691,1,0.002355043543502688,1,0.03843886405229568,1
1777498111539403008,-0.0009220364736393094,1,0.002987106330692768,1,0.03987795859575272,1
1777498111549153280,-0.003193410811945796,1,0.002265207236632705,1,0.03990523144602776,1
1777498111558884352,-0.004558324813842773,1,0.001392439473420382,1,0.0417434424161911,1
1777498111568596480,-0.007200906984508038,1,0.00236838310956955,1,0.04373973235487938,1
1777498111578289408,-0.00668322155252099,1,0.004185867961496115,1,0.03780874237418175,1
1777498111587962880,-0.007444652728736401,1,0.001007949467748404,1,0.04250325262546539,1
1777498111597617152,-0.005035022739320993,1,-0.0006831131177023053,1,0.04266906157135963,1
1777498111607252224,-0.005205065943300724,1,-0.0007277941331267357,1,0.04193924367427826,1
1777498111616868352,-0.002513834740966558,1,-0.002599011873826385,1,0.04060626402497292,1
1777498111626465280,0.0001145483402069658,1,-0.005276481620967388,1,0.04512866958975792,1
1777498111636043520,0.001181656727567315,1,-0.00747442664578557,1,0.04523780569434166,1
1777498111645839616,-0.0004359410377219319,1,-0.007194824982434511,1,0.04332074895501137,1
1777498111655853568,0.00242209923453629,1,-0.007419141009449959,1,0.03872606530785561,1
1777498111665848576,0.002485813340172172,1,-0.005276164971292019,1,0.03977805003523827,1
1777498111675824384,0.002595525700598955,1,-0.003707679454237223,1,0.04097424447536469,1
1777498111685781504,0.002403435995802283,1,-0.0005849255830980837,1,0.04068603739142418,1
1777498111695718912,-0.0002004954003496096,1,0.001578452880494297,1,0.03713975101709366,1
1777498111705637120,0.002010901225730777,1,0.0009083872428163886,1,0.04095252975821495,1
1777498111715535872,0.002419097581878304,1,0.001955140382051468,1,0.04229206591844559,1
1777498111725415168,-6.050520460121334e-05,1,0.003868491621688008,1,0.04005357995629311,1
1777498111735275008,-0.002378418808802962,1,0.005000222474336624,1,0.03975093737244606,1
1777498111745115392,-0.000868793751578778,1,0.004710973706096411,1,0.03935800865292549,1
1777498111754936320,-0.00129239447414875,1,0.003496149554848671,1,0.04349103197455406,1
1777498111764738048,-0.0005727122770622373,1,0.001293167937546968,1,0.04135232046246529,1
1777498111774520576,-1.52678694576025e-07,1,0.002468965481966734,1,0.04353141784667969,1
1777498111784283648,0.001236000331118703,1,-0.001103793154470623,1,0.04089811071753502,1
1777498111794027520,0.0004649805196095258,1,-0.002145975595340133,1,0.04339180514216423,1
1777498111803752192,0.0005392661551013589,1,-0.004596208222210407,1,0.0439593717455864,1
1777498111813457920,0.00061876728432253,1,-0.005098955705761909,1,0.04181243851780891,1
1777498111823144192,-0.0007086966070346534,1,-0.00469021825119853,1,0.04148824512958527,1
1777498111832815872,-0.001839169068261981,1,-0.006934379227459431,1,0.04336416348814964,1
1777498111842469376,-0.001743072876706719,1,-0.004416979849338531,1,0.0459812618792057,1
1777498111852103936,-0.004259030800312757,1,-0.003711350494995713,1,0.04207068681716919,1
1777498111861719296,-0.006503181532025337,1,-0.003547756699845195,1,0.04236282408237457,1
1777498111871316480,-0.006273597944527864,1,-0.001697174157015979,1,0.04209002479910851,1
1777498111881127424,-0.005853486713021994,1,0.0008945821900852025,1,0.04454260692000389,1
1777498111891151360,-0.002034763572737575,1,-0.0004910867428407073,1,0.04233253002166748,1
1777498111901155840,0.00121249002404511,1,0.000313090393319726,1,0.04266490414738655,1
1777498111911140352,0.001985314534977078,1,-0.001255731331184506,1,0.04318232461810112,1
1777498111921105664,0.000815253471955657,1,-0.00128670153208077,1,0.04639165475964546,1
1777498111931051264,0.002666170010343194,1,0.001510438625700772,1,0.04178778454661369,1
1777498111940977408,0.002717235125601292,1,0.001479273429140449,1,0.0417727418243885,1
1777498111950883840,0.00233823643065989,1,-0.0006288040895015001,1,0.04322837293148041,1
1777498111960770816,0.002200113842263818,1,0.000485289900097996,1,0.04725383594632149,1
1777498111970638080,0.0007047696853987873,1,0.001057073706761003,1,0.04591349139809608,1
1777498111980485888,-0.000341886596288532,1,0.0009873262606561184,1,0.04367905482649803,1
1777498111990314240,-0.0007228810572996736,1,-0.0004132540198042989,1,0.04426954314112663,1
1777498112000123392,-0.002271478530019522,1,-0.002634618896991014,1,0.04391549527645111,1
1777498112009913088,-0.002255585975944996,1,-0.002475040266290307,1,0.03997594118118286,1
1777498112019683840,-0.003659681649878621,1,-0.001051544211804867,1,0.04166791960597038,1
1777498112029435136,-0.005368949845433235,1,-0.003507003653794527,1,0.04278282448649406,1
1777498112039166720,-0.003224508604034781,1,-0.001348096411675215,1,0.04270736128091812,1
1777498112048881152,-0.002876050770282745,1,-0.0007808079826645553,1,0.04127838835120201,1
1777498112058576640,-0.002204719930887222,1,-0.00012562534539029,1,0.04094802960753441,1
1777498112068252928,-0.001847353531047702,1,-0.0003048772341571748,1,0.04263162985444069,1
1777498112077910016,-0.001305869780480862,1,-0.0006112171104177833,1,0.04375047609210014,1
1777498112087548160,-5.19030581926927e-05,1,-0.0002117331605404615,1,0.04187260940670967,1
1777498112097167104,0.0009971538092941046,1,0.001680041197687387,1,0.04314454644918442,1
1777498112106766848,0.0002452252374496311,1,0.002638064092025161,1,0.04230334609746933,1
1777498112116584448,-0.0009510843665339053,1,-0.00110240769572556,1,0.04431572183966637,1
1777498112126618880,-0.002224804367870092,1,-0.0006035889382474124,1,0.04191840440034866,1
1777498112136633856,-0.001607674988918006,1,-0.001240982208400965,1,0.04253809154033661,1
1777498112146629376,-0.004039405845105648,1,-0.0009363698773086071,1,0.04523515701293945,1
1777498112156605696,-0.003046638332307339,1,0.0002834993647411466,1,0.0451149009168148,1
1777498112166563072,-0.003064006334170699,1,0.001967021264135838,1,0.04306942224502563,1
1777498112176500736,-0.002728749765083194,1,0.001210156129673123,1,0.04364639893174171,1
1777498112186419200,-0.001466080662794411,1,-0.001410806784406304,1,0.04317668452858925,1
1777498112196317952,-0.003020707750692964,1,-0.001533689326606691,1,0.04627441242337227,1
1777498112206197504,-0.002374108880758286,1,-0.002940312959253788,1,0.04275329038500786,1
1777498112216057344,-0.002523261355236173,1,-0.002126407809555531,1,0.04319599270820618,1
1777498112225897472,-0.001712627476081252,1,-0.0005869883461855352,1,0.04150743409991264,1
1777498112235718400,0.0009066834463737905,1,-0.0008244380005635321,1,0.04552153125405312,1
1777498112245520384,0.0002791503793559968,1,0.0003031430533155799,1,0.0421692430973053,1
1777498112255302400,-0.0001328035141341388,1,0.0005341850337572396,1,0.04549361765384674,1
1777498112265064960,-0.00395545968785882,1,0.0005735024460591376,1,0.04515029489994049,1
1777498112274808576,-0.003170850453898311,1,-0.000582006003241986,1,0.04362168908119202,1
1777498112284532736,-0.002361753722652793,1,-0.001601215451955795,1,0.04178923740983009,1
1777498112294237696,-0.003089150413870811,1,-0.001277407980524004,1,0.0410357192158699,1
1777498112303926784,-0.004005249124020338,1,0.001333782100118697,1,0.04033087566494942,1
1777498112313597184,-0.002083920175209641,1,0.0007213085191324353,1,0.04561256244778633,1
1777498112323248896,-0.0023557273671031,1,0.0001868682447820902,1,0.04596181586384773,1
1777498112332881920,-0.001632041181437671,1,3.388727782294154e-05,1,0.04457555711269379,1
1777498112342496000,-0.001773028052411973,1,0.0003679403453134,1,0.0420718789100647,1
1777498112352328448,-0.001226756721735001,1,-0.001353240106254816,1,0.04235359653830528,1
1777498112362377984,-0.0012976253638044,1,-0.002099237404763699,1,0.04466758295893669,1
1777498112372407808,-0.000310159259242937,1,-0.002516669221222401,1,0.04380614683032036,1
1777498112382417920,-0.0008180340519174933,1,-0.0009143808274529874,1,0.04193343594670296,1
1777498112392408320,0.001178277656435966,1,-0.0004317968850955367,1,0.04442901536822319,1
1777498112402379776,0.0002068993489956483,1,0.0003394808154553175,1,0.04258843138813972,1
1777498112412331520,0.0005519092082977295,1,-0.00213579973205924,1,0.04312827438116074,1
1777498112422263552,-0.0009726698626764119,1,-0.002741841366514564,1,0.04402094334363937,1
1777498112432176128,-0.003382186172530055,1,-0.0002555387909524143,1,0.04561413824558258,1
1777498112442068992,-0.00383976474404335,1,-0.001869497122243047,1,0.04307478666305542,1
1777498112451942400,-0.00326857203617692,1,0.0007769725052639842,1,0.0449993759393692,1
1777498112461796352,-0.003353492124006152,1,0.001372685073874891,1,0.04563046991825104,1
1777498112471630848,-0.001756456797011197,1,-0.0008660207968205214,1,0.04554324969649315,1
1777498112481446144,-0.004208686295896769,1,-0.002103823469951749,1,0.04677202180027962,1
1777498112491242496,-0.004998432006686926,1,-0.001027831342071295,1,0.04492140933871269,1
1777498112501019136,-0.004871152341365814,1,0.0005656715948134661,1,0.04517532512545586,1
1777498112510776576,-0.002358567900955677,1,-0.0005190825322642922,1,0.04267200082540512,1
1777498112520514816,-9.874343231786042e-05,1,-0.0004552465106826276,1,0.0422980822622776,1
1777498112530235392,0.001174883218482137,1,-9.279290679842234e-05,1,0.04272943735122681,1
1777498112539936768,0.001127995550632477,1,4.595684004016221e-05,1,0.04093235358595848,1
1777498112549618944,0.001238777884282172,1,-0.001149926451034844,1,0.04408537968993187,1
1777498112559282432,-0.0003720707318279892,1,-0.001013712026178837,1,0.04328585043549538,1
1777498112568926720,0.001231673522852361,1,-0.00162982742767781,1,0.04511834308505058,1
1777498112578551808,0.002213734434917569,1,-0.0003205598331987858,1,0.04104713723063469,1
1777498112588157952,0.0001187250600196421,1,-0.002429370069876313,1,0.04395938664674759,1
1777498112598224384,-0.001062265364453197,1,-0.0003660747315734625,1,0.04315997660160065,1
1777498112608271360,-0.00191612436901778,1,-0.0009645378449931741,1,0.04349929094314575,1
1777498112618298624,-0.00305372173897922,1,0.001111214747652411,1,0.04389603063464165,1
1777498112628306176,-0.003683256451040506,1,0.0008161083678714931,1,0.04434417188167572,1
1777498112638294016,-0.003596520284190774,1,0.001030593411996961,1,0.04293446987867355,1
1777498112648262144,-0.001124773640185595,1,0.003472413867712021,1,0.04332246631383896,1
1777498112658210560,-0.0003588408580981195,1,-0.0007120610680431128,1,0.04170377179980278,1
1777498112668140288,-0.0004022783832624555,1,-0.001332887099124491,1,0.04493024200201035,1
1777498112678050560,2.603472967166454e-05,1,-0.003084549680352211,1,0.04257938638329506,1
1777498112687941120,0.0004433652211446315,1,-0.003119893372058868,1,0.04477550089359283,1
1777498112697812224,0.00152941734995693,1,-0.003921645227819681,1,0.04217913001775742,1
1777498112707663872,-0.002551453886553645,1,-0.0009493830148130655,1,0.04418843239545822,1
1777498112717496064,-0.001352983061224222,1,-0.003213339019566774,1,0.04312041401863098,1
1777498112727308800,-0.001281968201510608,1,-0.00101618398912251,1,0.04587571695446968,1
1777498112737102080,-0.003314321162179112,1,0.0007079001516103745,1,0.0438205674290657,1
1777498112746876160,-0.002450569299980998,1,-0.0004346916102804244,1,0.04504277184605598,1
1777498112756631040,-0.0033157451543957,1,-0.001465079956687987,1,0.04468189179897308,1
1777498112766366464,-0.001670106197707355,1,0.001020625350065529,1,0.04373081773519516,1
1777498112776082688,-0.003986430820077658,1,0.001705173635855317,1,0.04203974455595016,1
1777498112785779712,-0.001844680402427912,1,0.0009547090739943087,1,0.04376795887947083,1
1777498112795457280,-0.001034677145071328,1,0.0009374056244269013,1,0.04502974823117256,1
1777498112805115904,0.0009125955984927714,1,0.001675823354162276,1,0.04545558989048004,1
1777498112814755328,0.003166677663102746,1,0.001130920718424022,1,0.04410310462117195,1
1777498112824376064,0.001516427379101515,1,-0.0001050028367899358,1,0.04523056373000145,1
1777498112834214400,0.001721742562949657,1,-0.000828083953820169,1,0.04228202998638153,1
1777498112844269824,0.0001668652257649228,1,-0.001207456341944635,1,0.04356839880347252,1
1777498112854305536,0.00050025072414428,1,-0.0005869835731573403,1,0.0427071712911129,1
1777498112864321536,0.0008931243210099638,1,-0.0008441256359219551,1,0.04339173808693886,1
1777498112874318080,-0.0009533175616525114,1,-0.0005953023210167885,1,0.04100777581334114,1
1777498112884294656,-0.000673915958032012,1,-0.002460156567394733,1,0.04238708689808846,1
1777498112894251776,-0.002069143112748861,1,-0.002593769924715161,1,0.04073299840092659,1
1777498112904188928,-0.002591370139271021,1,-0.001647818833589554,1,0.04064132273197174,1
1777498112914106624,-0.003161209868267179,1,-0.002492437139153481,1,0.04041678458452225,1
1777498112924004608,-0.00254081143066287,1,-0.001708797179162502,1,0.04142893105745316,1
1777498112933883136,-0.0005904279532842338,1,-0.001439589774236083,1,0.04125620052218437,1
1777498112943741952,-0.001211031223647296,1,8.085444278549403e-05,1,0.04257442802190781,1
1777498112953581824,-0.002079027239233255,1,-0.001281205913983285,1,0.03981459513306618,1
1777498112963402240,-0.0009699254878796637,1,-0.001633394742384553,1,0.03964740782976151,1
1777498112973204736,-0.000529270910192281,1,-0.001561214332468808,1,0.0394817553460598,1
1777498112982988032,0.0005644685588777065,1,-0.0005576757248491049,1,0.04187632724642754,1
1777498112992752128,0.00101553276181221,1,-0.0005939789116382599,1,0.04401615262031555,1
1777498113002496512,0.0006830798229202628,1,-1.819533645175397e-05,1,0.04228158667683601,1
1777498113012221696,-0.001764136017300189,1,8.182763122022152e-05,1,0.04404407367110252,1
1777498113021927936,-6.829171616118401e-05,1,-0.001067767734639347,1,0.04184319078922272,1
1777498113031615232,-0.000837764295283705,1,-0.000369392684660852,1,0.04251944273710251,1
1777498113041283072,-0.0007323408499360085,1,-0.001802031067200005,1,0.0402873232960701,1
1777498113050931968,-0.001131688361056149,1,-0.001385240349918604,1,0.04063744843006134,1
1777498113060561408,-0.003126530442386866,1,-0.002992562251165509,1,0.04186110198497772,1
1777498113070408960,-0.003266874002292752,1,-0.002700151409953833,1,0.03947232663631439,1
1777498113080473344,-0.002284218790009618,1,-0.001130346092395484,1,0.04229273274540901,1
1777498113090517760,-0.001470209797844291,1,-0.001861345488578081,1,0.04283434525132179,1
1777498113100543232,-0.0004732937959488481,1,-0.003079661633819342,1,0.04486414045095444,1
1777498113110548480,-0.001094261882826686,1,-0.002406145446002483,1,0.04282074049115181,1
1777498113120534272,0.0001526836422272027,1,-0.00175542407669127,1,0.04416400194168091,1
1777498113130500352,-0.0008048112504184246,1,0.0002328405680600554,1,0.04363798722624779,1
1777498113140446976,0.0006043368484824896,1,0.0004307127674110234,1,0.04171431809663773,1
1777498113150374144,-0.0005054713110439479,1,-0.000216437183553353,1,0.04094599559903145,1
1777498113160281600,-0.0007004858925938606,1,0.001389355980791152,1,0.042227853089571,1
1777498113170169856,-0.0004090051515959203,1,-0.002423582365736365,1,0.04194032773375511,1
1777498113180039936,-0.0005460155080072582,1,-0.001627681311219931,1,0.04214879125356674,1
1777498113189891072,-0.0006549406098201871,1,-0.0002002237015403807,1,0.04168284311890602,1
1777498113199722752,-0.001907705329358578,1,0.000112137189717032,1,0.04114659875631332,1
1777498113209535232,-0.001056516077369452,1,0.0003742661501746625,1,0.04210605472326279,1
1777498113219328768,-0.0008959546103142202,1,-4.727961641037837e-05,1,0.04229972139000893,1
1777498113229103104,7.437907333951443e-05,1,-0.0006782513810321689,1,0.04345467686653137,1
1777498113238858496,-0.0009573710267432034,1,8.769363194005564e-05,1,0.04257959127426147,1
1777498113248594944,-0.001256393385119736,1,-0.0001453917502658442,1,0.04322951287031174,1
1777498113258312448,-0.001823513652198017,1,-0.00115387374535203,1,0.04120240360498428,1
1777498113268010752,-0.0007450195262208581,1,-0.0003732086624950171,1,0.041446752846241,1
1777498113277689856,-0.0003525515785440803,1,6.198835035320371e-05,1,0.04066489264369011,1
1777498113287349760,-0.0006233224412426353,1,-0.0006003938615322113,1,0.04198255762457848,1
1777498113296990720,0.0001834078866522759,1,0.0001168769231298938,1,0.04141782596707344,1
1777498113306847744,-0.002078279852867126,1,0.001465057954192162,1,0.04091683402657509,1
1777498113316920832,-0.003404087619856,1,0.001656933687627316,1,0.04187073558568954,1
1777498113326973696,-0.002589693292975426,1,7.816028664819896e-05,1,0.0434618853032589,1
1777498113337006848,-0.001479072961956263,1,0.0009133347775787115,1,0.04370220750570297,1
1777498113347020544,-0.0020877905189991,1,0.001378285000100732,1,0.04383446276187897,1
1777498113357014784,-0.0005007301224395633,1,-0.0001516401534900069,1,0.04207123070955276,1
1777498113366989056,-0.001331699430011213,1,-0.0003323964774608612,1,0.04290691018104553,1
1777498113376943616,-0.0002200458548031747,1,-0.0006603218498639762,1,0.04487926885485649,1
1777498113386878976,-0.002123504411429167,1,-0.0002822623355314136,1,0.04526375234127045,1
1777498113396794880,-0.001904284581542015,1,-0.002000015461817384,1,0.04419700428843498,1
1777498113406691072,-0.0006872033118270338,1,-0.002210504841059446,1,0.04597006365656853,1
1777498113416568064,0.0007952624000608921,1,-0.003659293055534363,1,0.04398259520530701,1
1777498113426425856,0.001112519763410091,1,-0.004365327302366495,1,0.0428348109126091,1
1777498113436263680,-0.0004950640723109245,1,-0.002211869228631258,1,0.04305760189890862,1
1777498113446082560,-0.0002978795964736491,1,-0.001250783912837505,1,0.04245976731181145,1
1777498113455881984,-0.0004028230323456228,1,-0.003473027143627405,1,0.04233055934309959,1
1777498113465661696,-0.001582016353495419,1,-0.002500640926882625,1,0.0423721969127655,1
1777498113475424768,-0.001924705109559,1,-0.0007512665470130742,1,0.04412725567817688,1
1777498113485168384,-0.0003890559601131827,1,-0.0002659105812199414,1,0.03929553553462029,1
1777498113494893056,-0.0002250717079732567,1,-0.001470511313527822,1,0.03963692858815193,1
1777498113504598272,-0.002009680727496743,1,-0.001283964025788009,1,0.04216382279992104,1
1777498113514284544,-0.0007993910112418234,1,-0.0008632999379187822,1,0.04070421680808067,1
1777498113523951360,-0.001828378648497164,1,0.001111652934923768,1,0.04154335707426071,1
1777498113533599488,-0.001029826351441443,1,0.001794692478142679,1,0.04333416000008583,1
1777498113543464192,-0.0003163931251037866,1,0.002671058988198638,1,0.04276903718709946,1
1777498113553545216,0.000597473990637809,1,-0.0001969954319065437,1,0.04063011333346367,1
1777498113563606016,0.0009069471270777285,1,-0.001792446011677384,1,0.04137514531612396,1
1777498113573647360,-0.0002313658187631518,1,-0.001724160392768681,1,0.04348468035459518,1
1777498113583668992,-0.0002877904043998569,1,-0.001527056097984314,1,0.04285982623696327,1
1777498113593671168,-0.0003490375820547342,1,-0.0009054970578290522,1,0.04204225912690163,1
1777498113603653632,0.001298854011110961,1,-0.002971542999148369,1,0.0429917573928833,1
1777498113613616384,0.0001277043338632211,1,-0.00421083951368928,1,0.04263009503483772,1
1777498113623559424,0.001190114533528686,1,-0.002669819863513112,1,0.04134254530072212,1
1777498113633482752,-0.001629111007787287,1,-0.0009517291327938437,1,0.0432899035513401,1
1777498113643386368,-0.001302263699471951,1,-0.0007965430850163102,1,0.04233824089169502,1
1777498113653270528,-0.0008614709367975593,1,-0.0004294165119063109,1,0.04245871677994728,1
1777498113663135488,-0.001169240800663829,1,-5.113047518534586e-05,1,0.04248266667127609,1
1777498113672980992,-0.004151864908635616,1,0.0007373171392828226,1,0.04316560551524162,1
1777498113682806528,-0.002541569992899895,1,0.000875248690135777,1,0.04035891965031624,1
1777498113692613120,-0.001391743426211178,1,8.643000910524279e-06,1,0.0427408404648304,1
1777498113702400256,0.001072108512744308,1,0.0006464022444561124,1,0.04188153892755508,1
1777498113712168704,0.0005167626077309251,1,-0.0009269727161154151,1,0.04329137876629829,1
1777498113721919488,0.0004871125565841794,1,-0.003290182212367654,1,0.04132533445954323,1
1777498113731651072,-0.000129136344185099,1,-0.004119706340134144,1,0.04043415561318398,1
1777498113741363456,0.0002428185835015029,1,-0.0009662031079642475,1,0.04287233948707581,1
1777498113751056384,0.0005065115401521325,1,-0.002179326256737113,1,0.04492638632655144,1
1777498113760730368,-5.377715569920838e-05,1,-0.002452200977131724,1,0.04281948506832123,1
1777498113770385408,-9.255895565729588e-05,1,-0.001587920123711228,1,0.04277516901493073,1
1777498113780257024,-0.0001055713291862048,1,-0.0003879914002027363,1,0.04282766953110695,1
1777498113790344960,-0.0001859869516920298,1,-0.0005506093730218709,1,0.04207437485456467,1
1777498113800412928,-0.001667186617851257,1,-0.0007399166934192181,1,0.0435834638774395,1
1777498113810461440,-0.001865968806669116,1,0.0002855611965060234,1,0.04466356337070465,1
1777498113820489728,-0.001709852484054863,1,0.0009267184068448842,1,0.04059108719229698,1
1777498113830499072,-0.001460059080272913,1,-8.058530511334538e-06,1,0.04248929023742676,1
1777498113840488704,-0.0006685664993710816,1,-0.0005382887320592999,1,0.04361365735530853,1
1777498113850458624,0.01529731787741184,1,-0.03031794726848602,1,0.0141375008970499,1
1777498113860409088,0.04582028090953827,1,-0.04790394380688667,1,0.06102326884865761,1
1777498113870339584,0.07315174490213394,1,0.05249125882983208,1,0.04151599109172821,1
1777498113880250624,0.08997874706983566,1,0.1596824675798416,1,0.1053817048668861,1
1777498113890141952,0.111317053437233,1,0.21538046002388,1,-0.07808439433574677,1
1777498113900013824,0.1239637583494186,1,0.1792832165956497,1,0.109713688492775,1
1777498113909866240,0.08581463992595673,1,0.1136319413781166,1,0.07322356849908829,1
1777498113919699456,0.07359913736581802,1,0.01056910771876574,1,0.03500894829630852,1
1777498113929512960,-0.0006492002867162228,1,-0.04734444990754128,1,0.0262767355889082,1
1777498113939307008,-0.03015678003430367,1,-0.1144355237483978,1,0.01577525027096272,1
1777498113949081856,-0.05142642930150032,1,-0.1173828467726707,1,0.05552631989121437,1
1777498113958837504,-0.046933863312006,1,-0.09621228277683258,1,0.04902612790465355,1
1777498113968573952,-0.07238930463790894,1,-0.1020238772034645,1,0.05072470009326935,1
1777498113978290944,0.02441003359854221,1,-0.04917258769273758,1,-0.02833754569292068,1
1777498113987989760,-0.0006260387599468231,1,-0.01950613409280777,1,0.1350753158330917,1
1777498113997672704,-0.005696837790310383,1,-0.1257603764533997,1,0.07531747221946716,1
1777498114007336704,0.02656255289912224,1,-0.2134988158941269,1,-0.06857088953256607,1
1777498114017219072,-0.008920149877667427,1,-0.2168698161840439,1,0.1372045874595642,1
1777498114027319296,0.00888815987855196,1,-0.121287427842617,1,0.02421801909804344,1
1777498114037399808,-0.005641263909637928,1,-0.08993618190288544,1,-0.03337020799517632,1
1777498114047460096,0.005440743640065193,1,0.007248146459460258,1,0.07714524865150452,1
1777498114057500928,-0.000486837700009346,1,-0.00886513851583004,1,0.07172997295856476,1
1777498114067522048,0.004136804956942797,1,0.1096129789948463,1,0.01848803646862507,1
1777498114077524224,-0.02382909134030342,1,0.1436765193939209,1,0.01173471193760633,1
1777498114087506688,-0.02613601461052895,1,0.1178515553474426,1,0.0453917570412159,1
1777498114097469440,-0.05838939547538757,1,0.1018149629235268,1,0.1108368933200836,1
1777498114107412480,-0.03141960129141808,1,0.05021880194544792,1,-0.00850186962634325,1
1777498114117335808,-0.05949354916810989,1,0.02525903657078743,1,0.09050180017948151,1
1777498114127239424,-0.0312715470790863,1,0.01766910776495934,1,0.01538365241140127,1
1777498114137123840,-0.03161821886897087,1,0.00702464347705245,1,0.0890449583530426,1
1777498114146988544,0.000693760986905545,1,0.002341745654121041,1,0.002196125220507383,1
1777498114156834048,0.01545692794024944,1,-0.008644282817840576,1,0.05029477179050446,1
1777498114166660096,0.05687149614095688,1,-0.03588073700666428,1,0.04448870941996574,1
1777498114176466688,0.09526900947093964,1,0.005121107213199139,1,-0.009603209793567657,1
1777498114186254080,0.09961545467376709,1,-0.01417157985270023,1,0.09452539682388306,1
1777498114196021760,0.1445489078760147,1,0.04248613864183426,1,-0.03570953756570816,1
1777498114205770240,0.1883706450462341,1,-0.03115960955619812,1,0.02684807777404785,1
1777498114215499520,0.2761082053184509,1,-0.09925581514835358,1,0.007982956245541573,1
1777498114225210368,0.3083412647247314,1,-0.1038229018449783,1,0.09441021084785461,1
1777498114234906624,0.3170955181121826,1,-0.04330188781023026,1,0.0711396336555481,1
1777498114244583680,0.287878006696701,1,0.0506570003926754,1,-0.006825799122452736,1
1777498114254242048,0.2561507523059845,1,0.06868677586317062,1,0.005883934907615185,1
1777498114264357120,0.234663188457489,1,0.0257946215569973,1,0.05683524534106255,1
1777498114274452480,0.2385341823101044,1,-0.1034152507781982,1,0.02189959213137627,1
1777498114284528128,0.2563042640686035,1,-0.1941443681716919,1,0.0362294465303421,1
1777498114294583808,0.274995356798172,1,-0.22918900847435,1,0.03259328007698059,1
1777498114304619776,0.2824569046497345,1,-0.2291449457406998,1,0.1126686260104179,1
1777498114314635776,0.2661930620670319,1,-0.1269461959600449,1,0.04207068309187889,1
1777498114324632320,0.2905407249927521,1,0.006162554025650024,1,0.1009141504764557,1
1777498114334610688,0.2797669768333435,1,0.02778701111674309,1,0.07103309035301208,1
1777498114344569600,0.2651391625404358,1,0.1248789429664612,1,0.08128891885280609,1
1777498114354508800,0.3459933698177338,1,0.1489548981189728,1,0.06951169669628143,1
1777498114364428544,0.3297654688358307,1,0.09348476678133011,1,-0.129037469625473,1
1777498114374328576,0.4032050669193268,1,0.1338880211114883,1,0.0736960843205452,1
1777498114384209152,0.3940666615962982,1,0.08264952152967453,1,-0.2268767356872559,1
1777498114394070016,0.4663874804973602,1,0.07735176384449005,1,0.12627112865448,1
1777498114403911424,0.4878811240196228,1,-0.08093498647212982,1,-0.04212716594338417,1
1777498114413733632,0.4726428985595703,1,-0.2261136025190353,1,0.3780913352966309,1
1777498114423536640,0.4839229583740234,1,-0.07157352566719055,1,-0.1425175964832306,1
1777498114433319936,0.5736874938011169,1,-0.151216447353363,1,-0.2741817533969879,1
1777498114443084032,0.6245110034942627,1,-0.2432003021240234,1,-0.08987253904342651,1
1777498114452828672,0.6713169813156128,1,-0.1769688427448273,1,-0.0003300365060567856,1
1777498114462554112,0.6431728601455688,1,-0.2007097005844116,1,0.01285208016633987,1
1777498114472260608,0.6107933521270752,1,-0.1703294068574905,1,0.2094918936491013,1
1777498114481947904,0.7015419602394104,1,-0.1672149449586868,1,-0.1702687740325928,1
1777498114491616256,0.6971121430397034,1,-0.1333927363157272,1,-0.09139042347669601,1
1777498114501502208,0.6064515709877014,1,-0.3358058929443359,1,0.2728339433670044,1
1777498114511604736,0.5979920029640198,1,-0.3501824736595154,1,0.05477558076381683,1
1777498114521687552,0.5472091436386108,1,-0.1870367079973221,1,0.1408152431249619,1
1777498114531749888,0.4718858003616333,1,-0.1269586235284805,1,-0.08382554352283478,1
1777498114541793280,0.5803057551383972,1,-0.2197324633598328,1,0.1000031307339668,1
1777498114551816704,0.5905104875564575,1,-0.2731281816959381,1,-0.05177348107099533,1
1777498114561820416,0.8492988348007202,1,-0.129288911819458,1,0.05663367360830307,1
1777498114571804160,0.9728153347969055,1,-0.1548202931880951,1,0.06690394878387451,1
1777498114581768448,0.8470245599746704,1,-0.1912456750869751,1,0.4818294048309326,1
1777498114591712768,0.8326604962348938,1,-0.06058691442012787,1,0.2785063683986664,1
1777498114601637888,0.7684413194656372,1,-0.1198114901781082,1,0.3937825858592987,1
1777498114611543296,0.8587214350700378,1,0.03652973845601082,1,-0.06426425278186798,1
1777498114621429504,0.7099072933197021,1,0.1888679265975952,1,0.01404699683189392,1
1777498114631296256,0.5924259424209595,1,0.09807407855987549,1,-0.1172298043966293,1
1777498114641143552,0.4978045523166656,1,0.1653456687927246,1,-0.06563234329223633,1
1777498114650971136,0.4065673351287842,1,0.1983045786619186,1,-0.2672336101531982,1
1777498114660779264,0.4033725559711456,1,0.2565130591392517,1,-0.2961684763431549,1
1777498114670568448,0.5280459523200989,1,0.1817806959152222,1,-0.6187933683395386,1
1777498114680337920,0.4973526000976562,1,0.141524612903595,1,-0.1603632867336273,1
1777498114690087680,0.5634685158729553,1,-0.0260966382920742,1,-0.1993507146835327,1
1777498114699820288,0.6166135668754578,1,0.0002311151474714279,1,0.1952765733003616,1
1777498114709535232,0.5257633924484253,1,-0.06271525472402573,1,-0.017316535115242,1
1777498114719230976,0.554224967956543,1,0.05425053462386131,1,0.1875152885913849,1
1777498114728908032,0.4681541919708252,1,-0.102273017168045,1,0.3585268259048462,1
1777498114738801152,0.5368697643280029,1,-0.2040899395942688,1,0.2963015735149384,1
1777498114748909568,0.4661388397216797,1,-0.1568165719509125,1,0.4255732297897339,1
1777498114758998528,0.5486008524894714,1,-0.2040573507547379,1,0.02746373228728771,1
1777498114769067264,0.5507872700691223,1,-0.1119707897305489,1,0.2922330796718597,1
1777498114779116544,0.6120955944061279,1,-0.1733289211988449,1,0.2004183530807495,1
1777498114789146368,0.4969317615032196,1,-0.1420777440071106,1,0.206632524728775,1
1777498114799156224,0.4920148551464081,1,-0.1818229705095291,1,-0.07288774847984314,1
1777498114809146624,0.5459630489349365,1,-0.1287221908569336,1,-0.1668428033590317,1
1777498114819117568,0.5629670023918152,1,-0.1392035037279129,1,-0.001556996256113052,1
1777498114829068544,0.5094307661056519,1,0.01206575892865658,1,-0.08367681503295898,1
1777498114839000064,0.5551424622535706,1,-0.008580639958381653,1,0.05747471749782562,1
1777498114848911872,0.5467914938926697,1,0.06021809950470924,1,-0.1026221066713333,1
1777498114858804224,0.4323994517326355,1,0.1329552978277206,1,0.1368071585893631,1
1777498114868677376,0.5173536539077759,1,0.08294029533863068,1,-0.071905717253685,1
1777498114878531072,0.4822266101837158,1,0.2889902591705322,1,0.0742039829492569,1
1777498114888365312,0.4079119861125946,1,0.3677996098995209,1,-0.1912508606910706,1
1777498114898180352,0.4351343214511871,1,0.3139945268630981,1,0.3172354996204376,1
1777498114907977472,0.3493974804878235,1,0.3762388527393341,1,-0.0164114385843277,1
1777498114917755392,0.5043823719024658,1,0.3567913770675659,1,0.191972941160202,1
1777498114927514368,0.4245997965335846,1,0.4803453087806702,1,-0.1109918504953384,1
1777498114937254144,0.1621230095624924,1,0.2763168513774872,1,0.1600666791200638,1
1777498114946975232,0.2080668061971664,1,0.1813906133174896,1,-0.3639646768569946,1
1777498114956676864,0.3644968271255493,1,0.1990413665771484,1,0.5027799606323242,1
1777498114966359552,0.3352717459201813,1,0.08182116597890854,1,-0.02137434482574463,1
1777498114976258816,0.1748138964176178,1,0.2578771710395813,1,0.1122296750545502,1
1777498114986374656,0.1315614879131317,1,0.3680227994918823,1,-0.08270042389631271,1
1777498114996470784,0.100841149687767,1,0.245950385928154,1,-0.6275784969329834,1
1777498115006547968,0.3204350173473358,1,0.03075193800032139,1,0.4543378055095673,1
1777498115016605696,0.3447389602661133,1,0.2854504883289337,1,-0.6395610570907593,1
1777498115026644224,0.1198883578181267,1,-0.1418485641479492,1,0.2030205577611923,1
1777498115036663296,0.396004855632782,1,-0.1935947239398956,1,0.079444520175457,1
1777498115046662656,0.1901559680700302,1,-0.1674616932868958,1,0.01152143627405167,1
1777498115056643328,0.1536488682031631,1,0.1532463878393173,1,0.0638834685087204,1
1777498115066604288,0.1054004281759262,1,-0.05377978459000587,1,0.2440420389175415,1
1777498115076546304,0.06893955171108246,1,-0.09635127335786819,1,-0.1429295837879181,1
1777498115086468352,0.06975658982992172,1,-0.05029670521616936,1,0.02002439647912979,1
1777498115096371200,-0.04948104918003082,1,-0.2714357376098633,1,-0.5375362634658813,1
1777498115106254592,-0.1217818111181259,1,-0.3070455491542816,1,-0.203474149107933,1
1777498115116118272,-0.136376291513443,1,-0.254242867231369,1,-0.6457134485244751,1
1777498115125962752,-0.2199927270412445,1,-0.3704496920108795,1,-0.1153529584407806,1
1777498115135788032,-0.1256158351898193,1,-0.3759317696094513,1,-0.4677143692970276,1
1777498115145593856,-0.2068175375461578,1,-0.3980391621589661,1,0.08745962381362915,1
1777498115155380480,-0.1764944791793823,1,-0.2820826470851898,1,-0.2671308517456055,1
1777498115165148160,-0.1975904405117035,1,-0.2688598930835724,1,-0.03992144018411636,1
1777498115174896640,-0.1653609573841095,1,-0.3107839524745941,1,-0.1850870549678802,1
1777498115184625920,-0.1996156424283981,1,-0.2469428777694702,1,-0.2283117175102234,1
1777498115194336256,-0.1723678559064865,1,-0.2288553565740585,1,-0.264880359172821,1
1777498115204027136,-0.02948462404310703,1,-0.2064990997314453,1,-0.5550205707550049,1
1777498115213935872,-0.08437430113554001,1,-0.1960577815771103,1,-0.2300601154565811,1
1777498115224060928,-0.08086009323596954,1,-0.2025134712457657,1,-0.3580330610275269,1
1777498115234166272,-0.1345634311437607,1,-0.2410846203565598,1,-0.05674410238862038,1
1777498115244251904,-0.1255300939083099,1,-0.2118003964424133,1,-0.2665694355964661,1
1777498115254317824,-0.1889105290174484,1,-0.17209492623806,1,-0.08827725052833557,1
1777498115264363776,-0.1416210234165192,1,-0.2513954937458038,1,-0.1278774738311768,1
1777498115274390784,-0.1189100444316864,1,-0.2361440509557724,1,-0.169788658618927,1
1777498115284398336,-0.0335184670984745,1,-0.1923643499612808,1,0.03928270563483238,1
1777498115294386432,-0.05855864658951759,1,-0.2728261053562164,1,0.04360209777951241,1
1777498115304354560,0.004689954686909914,1,-0.1590822637081146,1,0.3301573395729065,1
1777498115314303232,0.04544765129685402,1,-0.07504088431596756,1,0.3898359835147858,1
1777498115324232704,0.03408190608024597,1,-0.103911280632019,1,0.6919318437576294,1
1777498115334142464,0.07600206136703491,1,0.05327847599983215,1,0.6995514035224915,1
1777498115344032512,0.07341048866510391,1,0.1340429782867432,1,0.8396115899085999,1
1777498115353904128,0.05498990789055824,1,-0.01079999189823866,1,0.9383375644683838,1
1777498115363755776,0.02587159909307957,1,0.1316030621528625,1,0.9071376919746399,1
1777498115373588480,0.01375667750835419,1,0.1200677827000618,1,0.833817183971405,1
1777498115383401216,0.03959237039089203,1,0.09818394482135773,1,0.7437406778335571,1
1777498115393195008,0.03184044361114502,1,0.1193883717060089,1,0.6597408652305603,1
1777498115402970112,0.01530181244015694,1,0.07571738958358765,1,0.4634973108768463,1
1777498115412726272,-0.02347000502049923,1,0.002773387357592583,1,0.4324699938297272,1
1777498115422462976,-0.07487715035676956,1,-0.04501795023679733,1,0.3488892316818237,1
1777498115432181504,-0.1083410605788231,1,-0.1074954271316528,1,0.1900025904178619,1
1777498115441881600,-0.05752047151327133,1,-0.1215232461690903,1,0.153675839304924,1
1777498115451562496,-0.07204113900661469,1,-0.1836455464363098,1,0.08880212157964706,1
1777498115461694208,-0.05947200953960419,1,-0.164177730679512,1,0.03978857398033142,1
1777498115471805952,-0.09194666147232056,1,-0.1956239938735962,1,0.03149516507983208,1
1777498115481898496,-0.1481850296258926,1,-0.1474855691194534,1,0.01347746979445219,1
1777498115491971328,-0.1575549244880676,1,-0.08773691952228546,1,-0.04616282135248184,1
1777498115502024704,-0.1764338761568069,1,0.03139415383338928,1,-0.1097594648599625,1
1777498115512059392,-0.07981695979833603,1,0.03390021994709969,1,-0.177332878112793,1
1777498115522074368,0.09284132719039917,1,0.02996121346950531,1,-0.6031884551048279,1
1777498115532069888,0.02871669270098209,1,0.07816063612699509,1,-0.1526467204093933,1
1777498115542045952,0.08856736868619919,1,0.04446296393871307,1,-0.3145122528076172,1
1777498115552002560,0.04935158789157867,1,0.1892869174480438,1,0.08084618300199509,1
1777498115561939712,0.1075018644332886,1,0.1873326003551483,1,-0.198766216635704,1
1777498115571857152,0.1097297221422195,1,0.1814094632863998,1,0.06150443106889725,1
1777498115581755136,0.1422347277402878,1,0.1417611837387085,1,-0.06317749619483948,1
1777498115591633664,0.1582508683204651,1,0.1849418878555298,1,-0.1130711287260056,1
1777498115601492736,0.1616654098033905,1,0.2012388557195663,1,-0.1148245856165886,1
1777498115611332352,0.2112551033496857,1,0.1688467860221863,1,-0.0966634675860405,1
1777498115621152768,0.2090080082416534,1,0.1304869055747986,1,0.02863185666501522,1
1777498115630953472,0.2995851039886475,1,0.1099676638841629,1,0.02282816730439663,1
1777498115640734976,0.2909397482872009,1,0.1284545063972473,1,0.1770584136247635,1
1777498115650497536,0.3563678562641144,1,0.1046446934342384,1,0.06096582859754562,1
1777498115660241152,0.3359336256980896,1,0.1185919940471649,1,0.1866186261177063,1
1777498115669966336,0.3599936962127686,1,0.02939537912607193,1,0.2457713484764099,1
1777498115679675648,0.3696364164352417,1,0.06596546620130539,1,0.2741126716136932,1
1777498115689369088,0.3971653580665588,1,0.04189503192901611,1,0.2557002902030945,1
1777498115699513600,0.4070333540439606,1,0.04694713652133942,1,0.2400114089250565,1
1777498115709637888,0.4172384738922119,1,0.1120621412992477,1,0.122199222445488,1
1777498115719742720,0.3892292082309723,1,0.1858636736869812,1,0.06073923408985138,1
1777498115729827328,0.382886528968811,1,0.09914692491292953,1,0.02473431453108788,1
1777498115739891968,0.4270618557929993,1,0.1570956856012344,1,-0.08070333302021027,1
1777498115749937408,0.4670448899269104,1,0.1675873398780823,1,-0.01152843236923218,1
1777498115759963136,0.526117205619812,1,0.1625655293464661,1,0.1322251707315445,1
1777498115769969152,0.5877063274383545,1,0.2190404981374741,1,0.2067376375198364,1
1777498115779955456,0.6430307030677795,1,0.2261741459369659,1,0.369919627904892,1
1777498115789922048,0.6694707870483398,1,0.245270162820816,1,0.5216975212097168,1
1777498115799868928,0.6341192126274109,1,0.2447839081287384,1,0.5926796793937683,1
1777498115809795840,0.5942175388336182,1,0.2661198079586029,1,0.5050519108772278,1
1777498115819703296,0.5167726874351501,1,0.3200141191482544,1,0.414016455411911,1
1777498115829591296,0.4896905124187469,1,0.2956770658493042,1,0.288093090057373,1
1777498115839459840,0.5033797025680542,1,0.3070166707038879,1,0.2453184276819229,1
1777498115849308672,0.7298663258552551,1,0.2309090793132782,1,-0.07146301120519638,1
1777498115859138304,0.6871580481529236,1,0.1450017988681793,1,0.1371908634901047,1
1777498115868948480,0.6240245699882507,1,0.1547378599643707,1,0.07332793623209,1
1777498115878739200,0.5348766446113586,1,0.1010392159223557,1,0.0571051724255085,1
1777498115888510464,0.4845961928367615,1,0.09171243011951447,1,-0.2383168935775757,1
1777498115898262272,0.4764249324798584,1,0.07124482840299606,1,-0.3651737570762634,1
1777498115907995392,0.5047924518585205,1,-0.02402721531689167,1,-0.9395846724510193,1
1777498115917709312,0.4246842563152313,1,0.04965727776288986,1,-0.6442487835884094,1
1777498115927404032,0.4349794983863831,1,0.01710917800664902,1,-0.8943082094192505,1
1777498115937318144,0.4885690212249756,1,0.002131370827555656,1,-0.7008245587348938,1
1777498115947448576,0.5795548558235168,1,0.0210547186434269,1,-0.8046501874923706,1
1777498115957559040,0.5322570204734802,1,0.06518919765949249,1,-0.6682008504867554,1
1777498115967650048,0.4584272801876068,1,0.02204824239015579,1,-0.5155854821205139,1
1777498115977721088,0.3177545368671417,1,0.1215435490012169,1,-0.4455116391181946,1
1777498115987771904,0.5500279068946838,1,0.2040110677480698,1,-0.4612911939620972,1
1777498115997803264,0.4741972386837006,1,0.3970431983470917,1,-0.1975166797637939,1
1777498116007814400,0.506392776966095,1,0.4691051244735718,1,0.001254727132618427,1
1777498116017806080,0.4136025607585907,1,0.5789902806282043,1,0.2030724138021469,1
1777498116027778048,0.5601826310157776,1,0.6811590194702148,1,-0.004678806290030479,1
1777498116037730560,0.53844153881073,1,0.5931998491287231,1,0.2959436476230621,1
1777498116047664128,0.5261545181274414,1,0.5937156081199646,1,0.10329669713974,1
1777498116057578752,0.4256095588207245,1,0.5050776600837708,1,0.4018365442752838,1
1777498116067473664,0.4643237888813019,1,0.4824400246143341,1,-0.0859154537320137,1
1777498116077349120,0.4341687560081482,1,0.279798299074173,1,0.2418073415756226,1
1777498116087204864,0.4392988383769989,1,0.275012731552124,1,-0.1062563359737396,1
1777498116097041664,0.3682150542736053,1,0.04712068289518356,1,0.3652757704257965,1
1777498116106858496,0.3931145668029785,1,0.004527270793914795,1,0.04127476364374161,1
1777498116116656128,0.3405042588710785,1,-0.1133314669132233,1,0.3330518901348114,1
1777498116126434560,0.2843548059463501,1,-0.01893004775047302,1,-0.021880853921175,1
1777498116136194048,0.2638139128684998,1,-0.1523258090019226,1,0.2523308992385864,1
1777498116145933568,0.3414891958236694,1,-0.1230862140655518,1,0.01511597074568272,1
1777498116155653632,0.3680427372455597,1,-0.160657525062561,1,0.2492804080247879,1
1777498116165354752,0.4208846092224121,1,-0.1843347996473312,1,0.2341203689575195,1
1777498116175273728,0.4292631149291992,1,-0.06795431673526764,1,0.2820074558258057,1
1777498116185409792,0.4790440499782562,1,-0.06162445992231369,1,0.2712519764900208,1
1777498116195525888,0.4262745380401611,1,0.009023763239383698,1,0.2513342201709747,1
1777498116205622528,0.4051428139209747,1,0.07530207931995392,1,0.2652163207530975,1
1777498116215699200,0.375744104385376,1,0.09003162384033203,1,0.3554808795452118,1
1777498116225755904,0.3855714797973633,1,0.0861150249838829,1,0.4237500131130219,1
1777498116235792896,0.4533502161502838,1,0.2442982494831085,1,0.4700721502304077,1
1777498116245809920,0.4353385269641876,1,0.2654230892658234,1,0.4950256645679474,1
1777498116255808000,0.4620489478111267,1,0.2324413657188416,1,0.5944042801856995,1
1777498116265786624,0.3824002146720886,1,0.2941555082798004,1,0.4577443897724152,1
1777498116275745792,0.3988446295261383,1,0.2831567823886871,1,0.5750588178634644,1
1777498116285684992,0.2495695352554321,1,0.2562301754951477,1,0.3014025092124939,1
1777498116295604736,0.2405200302600861,1,0.2243917882442474,1,0.5482023358345032,1
1777498116305504768,0.2684163749217987,1,0.2275896370410919,1,0.08029817789793015,1
1777498116315385600,0.2787042856216431,1,0.2269124537706375,1,0.4788617789745331,1
1777498116325246464,0.2530733644962311,1,0.2256023734807968,1,0.4934252500534058,1
1777498116335088384,0.3195933997631073,1,0.403238832950592,1,0.5926837921142578,1
1777498116344910848,0.3873142302036285,1,0.6023064255714417,1,0.5227072834968567,1
1777498116354713856,0.3555281460285187,1,0.5695035457611084,1,0.3936364650726318,1
1777498116364497408,0.2083441168069839,1,0.4421660006046295,1,0.4172219336032867,1
1777498116374262016,0.1007439941167831,1,0.4431197345256805,1,0.1432572901248932,1
1777498116384006912,0.01267711538821459,1,0.3790274560451508,1,-0.06433515250682831,1
1777498116393732096,0.1274405121803284,1,0.233080580830574,1,-0.7609208822250366,1
1777498116403438336,0.03418680280447006,1,0.2210472673177719,1,-0.3293673098087311,1
1777498116413362688,0.007899081334471703,1,0.2999148666858673,1,-0.8288836479187012,1
1777498116423504640,-0.06699000298976898,1,0.1763492226600647,1,-0.3499852120876312,1
1777498116433627136,0.1404110491275787,1,0.02506573498249054,1,-0.8971172571182251,1
1777498116443730432,0.02693367376923561,1,-0.004406055435538292,1,-0.7870862483978271,1
1777498116453814016,-0.029693853110075,1,-0.06871450692415237,1,-0.7627659440040588,1
1777498116463878144,-0.003649001941084862,1,-0.08171066641807556,1,-1.196234941482544,1
1777498116473922304,-0.01208028849214315,1,-0.01876272633671761,1,-0.9581078290939331,1
1777498116483946752,0.06812934577465057,1,-0.1233016550540924,1,-1.082022190093994,1
1777498116493951488,0.09229844063520432,1,-0.0780855193734169,1,-0.8102442026138306,1
1777498116503936512,0.2140335142612457,1,-0.07555331289768219,1,-0.8703811764717102,1
1777498116513901568,0.1384033113718033,1,-0.03661132603883743,1,-0.6025056838989258,1
1777498116523847168,0.2692103087902069,1,0.01588283479213715,1,-0.6450552344322205,1
1777498116533773312,0.2729963660240173,1,0.09642703086137772,1,-0.3726975917816162,1
1777498116543681280,0.3419895768165588,1,0.154481053352356,1,-0.1375076621770859,1
1777498116553569792,0.3916495442390442,1,0.2066258937120438,1,0.2560774981975555,1
1777498116563438848,0.4468215107917786,1,0.1816191077232361,1,0.5467263460159302,1
1777498116573288704,0.460725724697113,1,0.2338982969522476,1,0.7985008955001831,1
1777498116583118848,0.4615490138530731,1,0.3623063564300537,1,0.8413977026939392,1
1777498116592929792,0.367205411195755,1,0.2645337879657745,1,1.084974765777588,1
1777498116602721024,0.2725697159767151,1,0.2277310788631439,1,1.025681376457214,1
1777498116612492800,0.3107988834381104,1,0.3176169097423553,1,0.9550854563713074,1
1777498116622245632,0.2610862255096436,1,0.2048833221197128,1,1.019564390182495,1
1777498116631979264,0.3443228900432587,1,-0.04778467863798141,1,0.871978759765625,1
1777498116641693696,0.3961412906646729,1,0.07576499879360199,1,0.5539083480834961,1
1777498116651623680,0.3524951934814453,1,-0.140752375125885,1,0.7475247979164124,1
1777498116661768448,0.3484721183776855,1,-0.4288568198680878,1,0.6045971512794495,1
1777498116671893248,0.2968804240226746,1,-0.3332310616970062,1,0.4881635308265686,1
1777498116681998080,0.2264006733894348,1,-0.4912925958633423,1,0.4960595965385437,1
1777498116692083200,0.1716568619012833,1,-0.7027713656425476,1,0.1729176789522171,1
1777498116702148864,0.1542617082595825,1,-0.6051061153411865,1,0.1599921584129333,1
1777498116712194816,0.2611596286296844,1,-0.6157161593437195,1,0.01492692157626152,1
1777498116722220800,0.3322661221027374,1,-0.6657441258430481,1,0.3272751867771149,1
1777498116732227072,0.3975846767425537,1,-0.4552144110202789,1,0.3031837940216064,1
1777498116742213888,0.3395646512508392,1,-0.561408519744873,1,0.4909212589263916,1
1777498116752180736,0.2616933286190033,1,-0.5031911134719849,1,0.3278181552886963,1
1777498116762127872,0.2619195878505707,1,-0.3167433142662048,1,-0.7999898195266724,1
1777498116772055296,0.2416856437921524,1,-0.577526867389679,1,-0.1353546679019928,1
1777498116781963520,0.1708659529685974,1,-0.7605736255645752,1,-0.4879721105098724,1
1777498116791852032,0.1392402201890945,1,-0.5905202031135559,1,-0.1053069308400154,1
1777498116801720576,0.2466776072978973,1,-0.6698923110961914,1,-0.3080734610557556,1
1777498116811569920,0.3039371967315674,1,-0.6878906488418579,1,-0.02420749701559544,1
1777498116821399552,0.3053278625011444,1,-0.4749809503555298,1,-0.1573317795991898,1
1777498116831209984,0.2641765773296356,1,-0.4115212559700012,1,-0.07590591907501221,1
1777498116841000960,0.2670660316944122,1,-0.423149585723877,1,0.03959346935153008,1
1777498116850774016,0.2258166670799255,1,-0.2961236536502838,1,-0.03004061058163643,1
1777498116860528896,0.4134316742420197,1,-0.4197240471839905,1,-0.08402391523122787,1
1777498116870264832,0.3345988690853119,1,-0.2262064069509506,1,0.07830467075109482,1
1777498116879981312,0.428200751543045,1,-0.2770190238952637,1,0.2091572284698486,1
1777498116889917184,0.4576698243618011,1,-0.2715606093406677,1,0.3208600878715515,1
1777498116900071424,0.5044955611228943,1,-0.2124854177236557,1,0.3673458695411682,1
1777498116910205952,0.5516061782836914,1,-0.1651600897312164,1,0.2831427454948425,1
1777498116920320512,0.4893878102302551,1,-0.2171915173530579,1,0.4158543944358826,1
1777498116930415104,0.496279239654541,1,-0.2438118457794189,1,0.3010830879211426,1
1777498116940490240,0.4822341501712799,1,-0.2172545790672302,1,0.1133437007665634,1
1777498116950545664,0.5421111583709717,1,-0.3228316605091095,1,0.1957896202802658,1
1777498116960581120,0.5316836833953857,1,-0.2628317177295685,1,0.1088751628994942,1
1777498116970596864,0.4997785687446594,1,-0.4240398406982422,1,0.190655380487442,1
1777498116980592896,0.4777792990207672,1,-0.3240098059177399,1,0.310470312833786,1
1777498116990568960,0.4792296588420868,1,-0.3220665752887726,1,0.08517195284366608,1
1777498117000525568,0.4867491126060486,1,-0.3574469983577728,1,0.2138708680868149,1
1777498117010462720,0.4283685684204102,1,-0.2503461539745331,1,0.2145267128944397,1
1777498117020380928,0.4032179415225983,1,-0.2736967206001282,1,0.2147669196128845,1
1777498117030279680,0.3891615271568298,1,-0.1981507241725922,1,0.2565636336803436,1
1777498117040158976,0.437336802482605,1,-0.1211262792348862,1,0.1852031350135803,1
1777498117050018560,0.4254870712757111,1,-0.1192911490797997,1,0.1804692596197128,1
1777498117059858944,0.3435156941413879,1,-0.04322673380374908,1,-0.1623116284608841,1
1777498117069679872,0.4054074287414551,1,0.03261536732316017,1,-1.029551267623901,1
1777498117079481344,0.2442042678594589,1,-0.01787290349602699,1,-1.054241538047791,1
1777498117089263872,0.2337064296007156,1,-0.0249128844588995,1,-1.409071445465088,1
1777498117099030784,0.2964630126953125,1,0.1507970094680786,1,-1.332062244415283,1
1777498117108777984,0.4023784101009369,1,0.2944991886615753,1,-0.9616926312446594,1
1777498117118506240,0.4720657467842102,1,0.2739821076393127,1,-0.6510566473007202,1
1777498117128215040,0.4526012539863586,1,0.3136383593082428,1,-0.05796884000301361,1
1777498117138382080,0.3898589611053467,1,0.4138375818729401,1,-0.02193832769989967,1
1777498117148529408,0.412443220615387,1,0.4495169818401337,1,0.283761590719223,1
1777498117158656768,0.3462242186069489,1,0.4789975881576538,1,-0.09276418387889862,1
1777498117168764416,0.2542448937892914,1,0.4411651194095612,1,0.2195615172386169,1
1777498117178851840,0.3140418231487274,1,0.4281163811683655,1,-0.190413311123848,1
1777498117188920576,0.2918828129768372,1,0.5353690385818481,1,0.2068857848644257,1
1777498117198969344,0.3109844624996185,1,0.430597335100174,1,-0.0150767182931304,1
1777498117208998144,0.2776889204978943,1,0.3909347057342529,1,0.2543458938598633,1
1777498117219007232,0.2448533624410629,1,0.4154484570026398,1,-0.2244793772697449,1
1777498117228996864,0.1897797435522079,1,0.3597982227802277,1,0.0630304217338562,1
1777498117238967040,0.1844970136880875,1,0.278277188539505,1,-0.3434901833534241,1
1777498117248917248,0.1826604753732681,1,0.1159812659025192,1,-0.004161916673183441,1
1777498117258848000,0.1752806454896927,1,0.1948298811912537,1,-0.1694144308567047,1
1777498117268759552,0.1198583692312241,1,-0.008278638124465942,1,-0.1251988410949707,1
1777498117278651648,0.1739427000284195,1,-0.1314880400896072,1,-0.07805490493774414,1
1777498117288524032,0.008312027901411057,1,-0.2176093310117722,1,-0.2221323251724243,1
1777498117298376960,0.1042911037802696,1,-0.1479400545358658,1,0.1047179773449898,1
1777498117308212480,0.1226127743721008,1,-0.1358222365379333,1,0.09977784752845764,1
1777498117318028800,0.2886439561843872,1,-0.2634893655776978,1,0.5102341771125793,1
1777498117327826176,0.2604251503944397,1,-0.1440097242593765,1,0.5135928988456726,1
1777498117337604608,0.2567925155162811,1,-0.1386408358812332,1,0.7064060568809509,1
1777498117347363328,0.1161369979381561,1,-0.208756685256958,1,0.8046025037765503,1
1777498117357102848,-0.01910163462162018,1,-0.2051428854465485,1,0.5603599548339844,1
1777498117366822912,-0.0004287813790142536,1,-0.2786336243152618,1,0.583966851234436,1
1777498117376759040,-0.07548853009939194,1,-0.2598687410354614,1,0.3128387331962585,1
1777498117386910720,0.1774973571300507,1,-0.3766350150108337,1,0.1955802887678146,1
1777498117397042432,0.1486610919237137,1,-0.2645357847213745,1,0.3213187158107758,1
1777498117407154688,0.1856497973203659,1,-0.3523279130458832,1,0.3991251289844513,1
1777498117417247232,0.197304755449295,1,-0.3554325103759766,1,0.5652073621749878,1
1777498117427319808,0.09337034076452255,1,-0.1827788501977921,1,0.3041771948337555,1
1777498117437372416,0.1413782984018326,1,-0.1770789921283722,1,0.4765487313270569,1
1777498117447405056,0.1025510057806969,1,-0.08521588146686554,1,0.2469745576381683,1
1777498117457418240,0.2177174985408783,1,-0.1860759854316711,1,0.4763803482055664,1
1777498117467411200,0.2113232016563416,1,-0.1214030534029007,1,0.3355059623718262,1
1777498117477384192,0.2355858385562897,1,-0.1321007013320923,1,0.2433318197727203,1
1777498117487337728,0.2452097088098526,1,0.04254429414868355,1,0.3404045403003693,1
1777498117497272064,0.2681182026863098,1,0.1414955258369446,1,-0.08249030262231827,1
1777498117507186688,0.3536699116230011,1,0.2122572064399719,1,0.3047492504119873,1
1777498117517083392,0.2303272485733032,1,0.3544014990329742,1,-0.2439539283514023,1
1777498117526960640,0.2914244830608368,1,0.2420210540294647,1,0.1532235890626907,1
1777498117536818688,0.2221311628818512,1,0.3804091215133667,1,-0.2231237441301346,1
1777498117546657024,0.222463071346283,1,0.3549747467041016,1,-0.0945424884557724,1
1777498117556476160,0.1337401866912842,1,0.3384136557579041,1,-0.2082868218421936,1
1777498117566275584,0.164225772023201,1,0.4057925939559937,1,-0.3196384906768799,1
1777498117576055552,0.1350281983613968,1,0.3356727063655853,1,-0.1350277066230774,1
1777498117585816320,0.08277886360883713,1,0.3816491365432739,1,-0.3678769469261169,1
1777498117595557888,0.1663808226585388,1,0.3905695676803589,1,-0.03195831552147865,1
1777498117605280512,0.08821454644203186,1,0.31155064702034,1,-0.3361204266548157,1
1777498117615219712,0.07942818850278854,1,0.3893038928508759,1,-0.04398638382554054,1
1777498117625375232,0.1305109858512878,1,0.4022070169448853,1,-0.4562691748142242,1
1777498117635511040,-0.146878570318222,1,0.4196346700191498,1,-0.5826847553253174,1
1777498117645628160,-0.2296422123908997,1,0.7202709913253784,1,-0.8304492235183716,1
1777498117655725312,-0.1500387936830521,1,0.9984940886497498,1,-0.5935543775558472,1
1777498117665802496,-0.06717501580715179,1,0.8289017081260681,1,0.1261135637760162,1
1777498117675859968,0.1966410875320435,1,0.6991921067237854,1,0.5431567430496216,1
1777498117685897472,0.3672744035720825,1,0.6600502133369446,1,0.4442492425441742,1
1777498117695915264,0.1015359312295914,1,0.7641724348068237,1,0.2632986903190613,1
1777498117705913088,-0.09305769205093384,1,0.3420385420322418,1,-0.05085575580596924,1
1777498117715891200,-0.2884210646152496,1,0.3831565082073212,1,-0.7162165641784668,1
1777498117725850112,-0.2309726923704147,1,0.3532771170139313,1,-0.897355318069458,1
1777498117735789056,-0.1260076314210892,1,-0.008434277027845383,1,-0.7733492255210876,1
1777498117745708544,-0.1744747161865234,1,-0.1020025163888931,1,-0.4946069121360779,1
1777498117755608320,-0.2407443076372147,1,0.139375776052475,1,-0.5235143899917603,1
1777498117765488384,-0.2213720679283142,1,0.1664921641349792,1,-0.9365172386169434,1
1777498117775349248,-0.0945318192243576,1,0.07888831198215485,1,-0.5378435850143433,1
1777498117785190400,-0.1763109266757965,1,0.07244868576526642,1,-0.7488635182380676,1
1777498117795011840,-0.08267267048358917,1,-0.06745380908250809,1,-0.6057539582252502,1
1777498117804814848,-0.1646203994750977,1,-0.01315588876605034,1,-0.5959749817848206,1
1777498117814598144,-0.006115712225437164,1,-0.2027162313461304,1,-0.2949569523334503,1
1777498117824362240,-0.03521956130862236,1,-0.2640590667724609,1,0.2108521461486816,1
1777498117834107392,0.03152374178171158,1,-0.4156797528266907,1,0.321997195482254,1
1777498117843833088,0.02329873293638229,1,-0.197163388133049,1,0.4665794372558594,1
1777498117853775872,-0.03231173381209373,1,-0.3116420805454254,1,0.2862140238285065,1
1777498117863935232,-0.06722713261842728,1,-0.5389385223388672,1,0.5815219283103943,1
1777498117874075136,-0.1528397649526596,1,-0.4934938549995422,1,0.2698051929473877,1
1777498117884195072,-0.1277354657649994,1,-0.6102827191352844,1,0.697458803653717,1
1777498117894295040,-0.04425483569502831,1,-0.6871623396873474,1,0.4437554180622101,1
1777498117904375296,0.05961360037326813,1,-0.6981806755065918,1,0.8500546813011169,1
1777498117914435840,0.02182706259191036,1,-0.6277499198913574,1,0.8489286303520203,1
1777498117924477440,0.02810944244265556,1,-0.60832679271698,1,1.066825985908508,1
1777498117934498816,0.03576731309294701,1,-0.5507835745811462,1,1.084466338157654,1
1777498117944500736,-0.006856292486190796,1,-0.6885578632354736,1,1.065849304199219,1
1777498117954482944,0.0147203654050827,1,-0.7096004486083984,1,1.125392556190491,1
1777498117964445440,-0.02019385248422623,1,-0.6303607225418091,1,0.7166252732276917,1
1777498117974387968,0.01792068220674992,1,-0.6694761514663696,1,0.8572754263877869,1
1777498117984311040,0.01406332291662693,1,-0.6861400008201599,1,0.4216919541358948,1
1777498117994214656,0.01202021352946758,1,-0.6445100903511047,1,0.6321095824241638,1
1777498118004099328,-0.01451322063803673,1,-0.5992465019226074,1,0.4000594615936279,1
1777498118013964544,0.03908560425043106,1,-0.643443763256073,1,0.6899436116218567,1
1777498118023810048,0.09634415805339813,1,-0.6233639121055603,1,0.6274088025093079,1
1777498118033636608,0.1462630927562714,1,-0.4830060005187988,1,0.5212970972061157,1
1777498118043443968,0.07141911238431931,1,-0.523029625415802,1,0.5985650420188904,1
1777498118053232128,-0.08730673789978027,1,-0.5506854057312012,1,0.5393628478050232,1
1777498118063000832,-0.00305444560945034,1,-0.5560071468353271,1,0.1890514045953751,1
1777498118072750848,-0.1481171995401382,1,-0.3293069005012512,1,0.1578393876552582,1
1777498118082481664,-0.140191525220871,1,-0.3278277814388275,1,0.2055282443761826,1
1777498118092431616,-0.06661126017570496,1,-0.1498025804758072,1,0.1619171053171158,1
1777498118102599936,-0.02708716504275799,1,-0.1365640610456467,1,0.01296046376228333,1
1777498118112748288,0.0112985372543335,1,-0.205572172999382,1,0.1019891276955605,1
1777498118122876672,-0.04441002756357193,1,-0.09875762462615967,1,-0.05219025164842606,1
1777498118132985344,-0.001788649708032608,1,-0.09893357753753662,1,-0.1902253478765488,1
1777498118143074048,-0.05044899880886078,1,-0.08294644206762314,1,-0.1026009023189545,1
1777498118153143040,-0.06292453408241272,1,-0.07825702428817749,1,-0.2638010084629059,1
1777498118163192064,0.01636281982064247,1,0.0559118464589119,1,-0.1747844964265823,1
1777498118173221376,0.08440450578927994,1,0.1567796170711517,1,-0.3982475697994232,1
1777498118183230720,0.1082860678434372,1,0.09256920963525772,1,-0.2025624364614487,1
1777498118193220096,0.02092883735895157,1,0.1461383998394012,1,-0.5313098430633545,1
1777498118203190016,0.09826437383890152,1,0.233055591583252,1,-0.44903564453125,1
1777498118213140224,0.187562569975853,1,0.3640170991420746,1,-0.7438663244247437,1
1777498118223070720,0.2868393957614899,1,0.3881460428237915,1,-0.4835847914218903,1
1777498118232983040,0.2919666469097137,1,0.3222677111625671,1,-0.1427623182535172,1
1777498118242876160,0.3570683598518372,1,-0.1680191159248352,1,0.4993964731693268,1
1777498118252749824,0.3477365374565125,1,0.02579423040151596,1,0.8535147309303284,1
1777498118262603776,0.1196786612272263,1,-0.6295097470283508,1,1.144701242446899,1
1777498118272438528,0.3533834517002106,1,-0.7276835441589355,1,0.2026333212852478,1
1777498118282253824,0.3740351796150208,1,-0.1161873117089272,1,-3.138407707214355,1
1777498118292049664,-1.619116544723511,1,-0.5690425038337708,1,-1.429439783096313,1
1777498118301826048,-0.2073282301425934,1,-0.4207392334938049,1,-1.805882453918457,1
1777498118311583488,0.5255694985389709,1,0.8621662855148315,1,-1.113563776016235,1
1777498118321321472,0.9213595986366272,1,0.04185845330357552,1,0.2960449457168579,1
1777498118331040256,0.2299519330263138,1,0.2912189662456512,1,0.6043118238449097,1
1777498118341212672,-0.1137131899595261,1,0.5396324992179871,1,1.839900016784668,1
1777498118351364864,-0.1146748811006546,1,0.3268091380596161,1,0.9632787704467773,1
1777498118361497600,0.4117757380008698,1,0.5843802094459534,1,-1.936673045158386,1
1777498118371610624,-0.1888487637042999,1,0.1801042705774307,1,-0.01407235860824585,1
1777498118381703936,-0.1490283757448196,1,0.3762738406658173,1,-1.601904392242432,1
1777498118391777024,-0.3769766390323639,1,0.4236134886741638,1,0.3925700187683105,1
1777498118401830656,0.02344686165452003,1,-0.1235787719488144,1,-0.4868562519550323,1
1777498118411864320,0.09265662729740143,1,-0.3261530995368958,1,0.1135808229446411,1
1777498118421878272,0.1313494741916656,1,-0.1694998443126678,1,-0.2960397005081177,1
1777498118431872256,0.06219396740198135,1,-0.199410155415535,1,-0.2676405906677246,1
1777498118441846528,-0.06020244583487511,1,-0.09303902089595795,1,-0.7928440570831299,1
1777498118451802368,-0.03388959914445877,1,0.1267313808202744,1,-0.3821271359920502,1
1777498118461739264,0.2073512375354767,1,0.1580792218446732,1,-0.3427122533321381,1
1777498118471656448,0.2229411602020264,1,0.3096410036087036,1,0.1623565256595612,1
1777498118481554432,0.07004962116479874,1,0.5997424125671387,1,0.4065386950969696,1
1777498118491432960,0.3576371073722839,1,0.5828489065170288,1,0.6820707321166992,1
1777498118501291776,0.4520094096660614,1,0.5046958923339844,1,0.3423255085945129,1
1777498118511131648,0.2345113158226013,1,0.4236488938331604,1,0.946516752243042,1
1777498118520951552,0.1005346924066544,1,0.524095356464386,1,0.4531196653842926,1
1777498118530752512,-0.1135465353727341,1,0.345093846321106,1,1.081055998802185,1
1777498118540534528,0.09880334883928299,1,0.3236984312534332,1,0.4593740999698639,1
1777498118550296576,0.1030922159552574,1,0.1935698539018631,1,1.005487680435181,1
1777498118560039680,0.1804657876491547,1,0.1824537515640259,1,0.4518712759017944,1
1777498118569763328,0.0540887638926506,1,0.1526255160570145,1,1.221758127212524,1
1777498118579947264,0.05372423678636551,1,0.281897246837616,1,0.6181828379631042,1
1777498118590111744,0.09266897290945053,1,0.1636532098054886,1,1.242618560791016,1
1777498118600256000,0.1229696050286293,1,0.2603656351566315,1,0.4831055700778961,1
1777498118610380288,-0.08588630706071854,1,0.1863226294517517,1,0.9395992159843445,1
1777498118620484608,-0.1882211267948151,1,0.3495549559593201,1,0.3482193350791931,1
1777498118630568704,0.02020550519227982,1,0.2398220002651215,1,0.4967716336250305,1
1777498118640634112,0.1930516362190247,1,0.08462389558553696,1,-0.5718515515327454,1
1777498118650679296,0.06712838262319565,1,0.1931897103786469,1,0.3753028213977814,1
1777498118660705024,-0.01877097599208355,1,0.2152920067310333,1,-0.2953522801399231,1
1777498118670710784,-0.1587409228086472,1,0.1568438112735748,1,0.0447419211268425,1
1777498118680696832,0.1318526566028595,1,-0.09512814879417419,1,-0.7321793437004089,1
1777498118690663168,-0.04066423326730728,1,-0.04627295583486557,1,-0.2608097791671753,1
1777498118700610048,-0.04545727744698524,1,-0.03569874167442322,1,-0.3071220517158508,1
1777498118710536960,-0.1964097768068314,1,-0.03682169318199158,1,-0.226029247045517,1
1777498118720444416,-0.05781847983598709,1,-0.1905242055654526,1,-0.3100685179233551,1
1777498118730332160,-0.09541879594326019,1,-0.1540509760379791,1,-0.2704937756061554,1
1777498118740200448,-0.1670369356870651,1,-0.006852518301457167,1,-0.4096710383892059,1
1777498118750049280,-0.0907360315322876,1,0.08801046758890152,1,-0.7682805061340332,1
1777498118759878400,-0.05644519627094269,1,0.1031295657157898,1,-0.5426680445671082,1
1777498118769688576,-0.0283731147646904,1,0.0235031470656395,1,-0.5240765810012817,1
1777498118779478784,-0.2775013744831085,1,0.2522957623004913,1,-0.6063306927680969,1
1777498118789249792,-0.296312540769577,1,0.0654090940952301,1,-1.283601403236389,1
1777498118799003648,-0.5456377863883972,1,-0.0561479926109314,1,-0.1756093353033066,1
1777498118808739584,-0.4201561212539673,1,0.081154465675354,1,-0.7014760375022888,1
1777498118818691328,-0.1449605971574783,1,0.4743607640266418,1,-0.08977317065000534,1
1777498118828858880,0.09005960822105408,1,0.4012481272220612,1,0.01481755450367928,1
1777498118839006720,-0.03722043335437775,1,0.5004323720932007,1,0.3297611474990845,1
1777498118849134592,-0.2506100833415985,1,0.6504737734794617,1,-0.09712802618741989,1
1777498118859242496,-0.3087716400623322,1,0.3070083260536194,1,0.2238700687885284,1
1777498118869332224,-0.1743321269750595,1,0.006282655522227287,1,-0.2315760403871536,1
1777498118879401984,-0.3095309138298035,1,0.04442398995161057,1,-0.4794210195541382,1
1777498118889452032,-0.5708919167518616,1,-0.1056640967726707,1,-0.2031531631946564,1
1777498118899482112,-0.6086313724517822,1,-0.001513954717665911,1,-0.1256663650274277,1
1777498118909492480,-0.5003179907798767,1,-0.0431349091231823,1,-0.07119317352771759,1
1777498118919482880,-0.3334049582481384,1,-0.1915371716022491,1,-0.07478072494268417,1
1777498118929453824,-0.3023110032081604,1,-0.2698391079902649,1,0.3181250691413879,1
1777498118939404800,-0.3988246321678162,1,-0.06996384263038635,1,0.2934537529945374,1
1777498118949336832,-0.3782100081443787,1,-0.06696920841932297,1,0.6271679997444153,1
1777498118959249920,-0.30833700299263,1,-0.2662397623062134,1,0.3786443173885345,1
1777498118969143552,-0.2538142502307892,1,-0.3771153688430786,1,0.8006426095962524,1
1777498118979017984,-0.4601846039295197,1,-0.3866296112537384,1,0.398458331823349,1
1777498118988875776,-0.4823896288871765,1,-0.383995532989502,1,0.7622091770172119,1
1777498118998714624,-0.3685389757156372,1,-0.3402843177318573,1,0.2768356800079346,1
1777498119008534272,-0.147013857960701,1,-0.4404817819595337,1,0.02102591097354889,1
1777498119018334208,-0.2587787806987762,1,-0.2798853814601898,1,0.4800456762313843,1
1777498119028115200,-0.3906256854534149,1,-0.2115837633609772,1,0.1762348413467407,1
1777498119037876736,-0.3418983817100525,1,-0.3525129854679108,1,0.7216218113899231,1
1777498119047619328,-0.3958958685398102,1,-0.4038659632205963,1,0.2396287769079208,1
1777498119057576448,-0.3760147094726562,1,-0.3756384253501892,1,0.698101818561554,1
1777498119067747840,-0.3200435042381287,1,-0.2268199920654297,1,0.2391583472490311,1
1777498119077899264,-0.3418353796005249,1,-0.3084869384765625,1,0.6435697674751282,1
1777498119088030464,-0.2445248961448669,1,-0.351809948682785,1,0.4028836190700531,1
1777498119098141952,-0.3236140310764313,1,-0.3168813586235046,1,0.4925872981548309,1
1777498119108234240,-0.1242825612425804,1,-0.2700558304786682,1,0.07896126061677933,1
1777498119118306816,-0.2446431219577789,1,-0.0957949310541153,1,0.3322400748729706,1
1777498119128359936,-0.1423042714595795,1,-0.1728876680135727,1,0.3378600180149078,1
1777498119138392832,-0.122452400624752,1,-0.02612654864788055,1,0.5935896039009094,1
1777498119148406272,-0.09818262606859207,1,-0.06678837537765503,1,0.4910619854927063,1
1777498119158399744,-0.1515298932790756,1,-0.156149610877037,1,0.7227096557617188,1
1777498119168373504,-0.2287865728139877,1,-0.06475730985403061,1,0.3791262209415436,1
1777498119178328064,-0.2677720189094543,1,-0.01565335504710674,1,0.1294486969709396,1
1777498119188262912,-0.1348146200180054,1,-0.07305349409580231,1,-0.653139591217041,1
1777498119198178048,-0.2720085084438324,1,-0.08344459533691406,1,-0.09529916942119598,1
1777498119208073728,-0.1675039827823639,1,-0.1095646917819977,1,-0.3374259769916534,1
1777498119217949952,0.01627688854932785,1,-0.2330370098352432,1,-0.2754014730453491,1
1777498119227806720,0.08954239636659622,1,-0.171675518155098,1,-0.1014574691653252,1
1777498119237644032,0.04282104969024658,1,-0.110872857272625,1,-0.2420695722103119,1
1777498119247461888,-0.08345820754766464,1,-0.005863392725586891,1,-0.3929089307785034,1
1777498119257260288,-0.1280612498521805,1,-0.1245637759566307,1,-0.4358417689800262,1
1777498119267040000,0.07289865612983704,1,-0.1547623127698898,1,-0.8205149173736572,1
1777498119276800512,0.06924381107091904,1,-0.1090881377458572,1,-0.7966566681861877,1
1777498119286544896,0.1332376301288605,1,0.07198582589626312,1,-0.5700824856758118,1
1777498119296504576,0.1611567586660385,1,0.1655774116516113,1,-0.5756157636642456,1
1777498119306679040,0.2307756990194321,1,0.3931785821914673,1,-0.07972796261310577,1
1777498119316833536,0.3317151367664337,1,0.4710448980331421,1,-0.08515986800193787,1
1777498119326968064,0.2854028046131134,1,0.458403468132019,1,0.3619922995567322,1
1777498119337082368,0.3736825287342072,1,0.6154346466064453,1,0.3092396855354309,1
1777498119347176960,0.2359033972024918,1,0.7660337090492249,1,0.4496937990188599,1
1777498119357252608,0.2463789135217667,1,0.6123681664466858,1,0.4009232223033905,1
1777498119367308544,0.2526098787784576,1,0.6768454313278198,1,0.3073743879795074,1
1777498119377344256,0.1885787844657898,1,0.5311026573181152,1,0.1012237966060638,1
1777498119387360512,0.1627210676670074,1,0.4794996976852417,1,-0.2268340885639191,1
1777498119397356800,0.02549242228269577,1,0.3520117998123169,1,-0.4931148886680603,1
1777498119407333632,-0.01084836199879646,1,0.0578065998852253,1,-0.8619461059570312,1
1777498119417290752,-0.02942029759287834,1,-0.006670039147138596,1,-0.8406067490577698,1
1777498119427228160,0.1045689359307289,1,-0.09919182956218719,1,-0.8629206418991089,1
1777498119437146112,0.1327113062143326,1,-0.08996798098087311,1,-0.5884855389595032,1
1777498119447044352,0.1600378900766373,1,-0.0278254896402359,1,-0.4306799471378326,1
1777498119456922880,0.2141625136137009,1,0.09931053966283798,1,-0.4221512973308563,1
1777498119466782208,0.2790549993515015,1,0.1514580398797989,1,-0.1445856392383575,1
1777498119476621568,0.2186600565910339,1,0.1795719414949417,1,-0.180653303861618,1
1777498119486441984,0.1693563610315323,1,0.192328929901123,1,0.06118029356002808,1
1777498119496242688,0.1808712631464005,1,0.3578891158103943,1,-0.03271561488509178,1
1777498119506024192,0.1516723483800888,1,0.3051071763038635,1,0.2183917015790939,1
1777498119515786752,0.1988401263952255,1,0.2946595847606659,1,0.2068235129117966,1
1777498119525530112,0.1046013981103897,1,0.1343799382448196,1,0.4046971201896667,1
1777498119535493376,0.007786461152136326,1,0.03429930284619331,1,0.5251041650772095,1
1777498119545675776,0.0317232571542263,1,0.0964246466755867,1,0.512840747833252,1
1777498119555837952,0.09606317430734634,1,0.03493858501315117,1,0.6384869813919067,1
1777498119565980416,0.1295596957206726,1,0.2133356332778931,1,0.4813814461231232,1
1777498119576102656,0.006675970274955034,1,0.1934242993593216,1,0.7055037021636963,1
1777498119586205440,-0.01526745595037937,1,0.1479458659887314,1,0.5023894906044006,1
1777498119596288512,-0.02947807125747204,1,0.1473445892333984,1,0.6934477686882019,1
1777498119606351616,0.1212776005268097,1,0.1183462962508202,1,0.5485010147094727,1
1777498119616395264,0.2293709814548492,1,0.2067098617553711,1,0.5736668705940247,1
1777498119626418688,0.209870234131813,1,0.1836299896240234,1,0.8713998794555664,1
1777498119636422656,0.2538084089756012,1,0.2696893215179443,1,0.8174297213554382,1
1777498119646406656,0.1909540295600891,1,0.203192874789238,1,1.019238114356995,1
1777498119656370688,0.1232612282037735,1,0.3722244799137115,1,0.7372418642044067,1
1777498119666315264,0.06173968315124512,1,0.2347147464752197,1,0.9800509810447693,1
1777498119676240640,0.06435757875442505,1,0.2885549068450928,1,0.6082087755203247,1
1777498119686146048,0.173151046037674,1,0.1600284278392792,1,0.920396625995636,1
1777498119696031744,0.1742259114980698,1,0.03903035819530487,1,0.5489017367362976,1
1777498119705898240,0.1926177442073822,1,0.04904963821172714,1,0.9593985080718994,1
1777498119715744768,0.2065602988004684,1,0.1560987681150436,1,0.4649218320846558,1
1777498119725572096,0.1426967531442642,1,0.1611436158418655,1,0.6950037479400635,1
1777498119735379712,0.1599817872047424,1,0.254896491765976,1,0.2195234596729279,1
1777498119745169664,0.1164525523781776,1,0.3185674548149109,1,0.2527046501636505,1
1777498119754942464,0.1783453524112701,1,0.387629896402359,1,0.04005331546068192,1
1777498119764696064,0.1450425386428833,1,0.3742201924324036,1,-0.07643596827983856,1
1777498119774430464,0.2409454137086868,1,0.3584086000919342,1,-0.1805357784032822,1
1777498119784615424,0.1454684138298035,1,0.2401476502418518,1,-0.4677235186100006,1
1777498119794780416,0.1182864084839821,1,0.1412599682807922,1,-0.6749593615531921,1
1777498119804925184,0.1329227536916733,1,0.02980572730302811,1,-1.059980034828186,1
1777498119815050240,0.09766244143247604,1,-0.09223641455173492,1,-1.256555199623108,1
1777498119825155072,0.1426808834075928,1,-0.06967030465602875,1,-1.304803848266602,1
1777498119835240704,0.09392490237951279,1,-0.02973268553614616,1,-1.625293016433716,1
1777498119845306880,0.2390194833278656,1,0.002427282743155956,1,-1.483903288841248,1
1777498119855353344,0.2218160778284073,1,0.07045421749353409,1,-1.721749186515808,1
1777498119865380096,0.2497953772544861,1,-0.1227657496929169,1,-1.198458671569824,1
1777498119875386880,0.2831255197525024,1,0.1216241419315338,1,-1.472648859024048,1
1777498119885374208,0.2666926980018616,1,0.1024647578597069,1,-1.135335206985474,1
1777498119895341824,0.3468712270259857,1,0.1466525942087173,1,-0.9296035170555115,1
1777498119905289728,0.2087758332490921,1,0.1766874045133591,1,-0.7440746426582336,1
1777498119915217920,0.3019648194313049,1,0.3382868468761444,1,-0.4474600553512573,1
1777498119925126656,0.1591476798057556,1,0.5470888614654541,1,-0.3689154088497162,1
1777498119935016192,0.3159936666488647,1,0.4917116165161133,1,-0.02050822973251343,1
1777498119944885760,0.2452846467494965,1,0.758612334728241,1,0.1339847445487976,1
1777498119954736384,0.290979415178299,1,0.7242255210876465,1,-0.002351799048483372,1
1777498119964567040,0.1460308432579041,1,0.7513282895088196,1,0.1445846110582352,1
1777498119974378752,0.1037999764084816,1,0.4582071304321289,1,0.168608158826828,1
1777498119984170752,0.05858626216650009,1,0.3040547966957092,1,0.3355636894702911,1
1777498119993943552,0.1945874392986298,1,0.05539477616548538,1,0.3224044442176819,1
1777498120003697408,0.2760295271873474,1,-0.2097917646169662,1,0.5245888233184814,1
1777498120013431808,0.3003451228141785,1,-0.2399420291185379,1,0.2723489999771118,1
1777498120023628032,0.1349855959415436,1,-0.1188431233167648,1,0.4768439531326294,1
1777498120033804800,0.08263518661260605,1,-0.0819915235042572,1,0.337774395942688,1
1777498120043962112,0.2568461894989014,1,-0.2549625635147095,1,0.3529540002346039,1
1777498120054099712,0.2834153175354004,1,-0.391598254442215,1,0.4051889479160309,1
1777498120064217344,0.2642653286457062,1,-0.4645070135593414,1,0.6227712035179138,1
1777498120074316544,0.08569023013114929,1,-0.3575894236564636,1,0.851294219493866,1
1777498120084396800,0.1018111482262611,1,-0.4418748021125793,1,0.8562823534011841,1
1777498120094457600,0.06536239385604858,1,-0.6361445784568787,1,1.02532958984375,1
1777498120104498688,0.1443464905023575,1,-0.568541944026947,1,0.8593021631240845,1
1777498120114520576,-0.07347604632377625,1,-0.4417977333068848,1,1.125698804855347,1
1777498120124523008,0.05492033809423447,1,-0.4403195381164551,1,1.114630579948425,1
1777498120134505984,0.1359383463859558,1,-0.5337362289428711,1,1.344027042388916,1
1777498120144469504,0.3698523938655853,1,-0.4606150388717651,1,1.075820207595825,1
1777498120154414080,0.2253823280334473,1,-0.3679708540439606,1,1.126841902732849,1
1777498120164338944,0.1087792217731476,1,-0.5182420611381531,1,0.7036585807800293,1
1777498120174244096,0.02809353731572628,1,-0.4633899331092834,1,0.7766037583351135,1
1777498120184130048,0.04557705298066139,1,-0.6100431680679321,1,0.3480280041694641,1
1777498120193996032,0.1298662722110748,1,-0.7354520559310913,1,0.504277765750885,1
1777498120203842816,0.191916897892952,1,-0.7167602777481079,1,-0.2671004831790924,1
1777498120213670400,0.07798992842435837,1,-0.7101186513900757,1,0.521393895149231,1
1777498120223478528,0.08446294814348221,1,-0.7076269388198853,1,0.03397933021187782,1
1777498120233267712,0.1696901172399521,1,-0.54933100938797,1,0.4481083154678345,1
1777498120243037952,0.1361897885799408,1,-0.4853185415267944,1,0.1119633093476295,1
1777498120252788992,0.1295928657054901,1,-0.4075201451778412,1,0.1469113379716873,1
1777498120262754560,0.02399534918367863,1,-0.2268315851688385,1,0.001703299582004547,1
1777498120272933888,-0.02536122873425484,1,-0.3143194615840912,1,-0.1728276163339615,1
1777498120283092992,0.3601970672607422,1,-0.321086585521698,1,-0.8794640898704529,1
1777498120293232896,0.09698935598134995,1,-0.174650639295578,1,-0.6809775233268738,1
1777498120303352576,0.05106911808252335,1,-0.1047191545367241,1,-0.6961673498153687,1
1777498120313452544,0.2228657305240631,1,0.009843241423368454,1,-0.8322066068649292,1
1777498120323532288,0.2736506164073944,1,-0.02763672173023224,1,-0.3961204588413239,1
1777498120333592320,0.3190841376781464,1,0.04056840762495995,1,-0.4770294427871704,1
1777498120343632384,0.1490550488233566,1,-0.1632366180419922,1,-0.1931231915950775,1
1777498120353652992,0.2827508747577667,1,-0.1878423690795898,1,-0.6849130988121033,1
1777498120363653376,0.1877023577690125,1,-0.1547721922397614,1,-0.4362039566040039,1
1777498120373634048,0.2201733738183975,1,0.0189319159835577,1,-0.5819262862205505,1
1777498120383595008,0.320725679397583,1,0.04026690497994423,1,-0.3111893534660339,1
1777498120393537024,0.3889073729515076,1,0.3189175724983215,1,-0.5208894014358521,1
1777498120403460352,0.3822963833808899,1,0.3421161770820618,1,0.180428221821785,1
1777498120413363968,0.4280578792095184,1,0.5159781575202942,1,-0.1328891217708588,1
1777498120423248128,0.4610753953456879,1,0.59986412525177,1,0.4585203230381012,1
1777498120433112832,0.3784569501876831,1,0.6109079122543335,1,0.16273233294487,1
1777498120442958080,0.390175074338913,1,0.6085548400878906,1,0.09739053249359131,1
1777498120452783616,0.3183409571647644,1,0.748069703578949,1,0.01475772261619568,1
1777498120462590208,0.3293032348155975,1,0.6651784181594849,1,-0.3545868694782257,1
1777498120472377088,0.2441242933273315,1,0.7982063293457031,1,-0.365244448184967,1
1777498120482144768,0.3455515205860138,1,0.9611185193061829,1,-0.9285873770713806,1
1777498120491893248,0.256276547908783,1,0.9008773565292358,1,-0.5412553548812866,1
1777498120501859072,0.4058586955070496,1,0.7079131007194519,1,-0.5694393515586853,1
1777498120512041728,0.18376225233078,1,0.3299131393432617,1,-0.1939727962017059,1
1777498120522203904,0.3579022884368896,1,-0.009537070989608765,1,-0.6810348629951477,1
1777498120532346880,0.1708005219697952,1,-0.1700712144374847,1,-1.182521224021912,1
1777498120542469888,0.1219990998506546,1,-0.287347286939621,1,-0.5426213145256042,1
1777498120552572928,0.05815403908491135,1,-0.1266028881072998,1,-0.6932558417320251,1
1777498120562656000,0.2485336661338806,1,-0.2413989007472992,1,-0.5536720752716064,1
1777498120572719360,0.3099918961524963,1,-0.1273513734340668,1,-0.1459808647632599,1
1777498120582762496,0.3038840293884277,1,-0.3846766948699951,1,0.2892760932445526,1
1777498120592785920,0.2532749772071838,1,0.1249353438615799,1,0.4457217752933502,1
1777498120602789376,0.01876343972980976,1,0.1690241992473602,1,0.6505914330482483,1
1777498120612773376,0.1714173704385757,1,0.175848975777626,1,0.5018010139465332,1
1777498120622737920,0.1430947929620743,1,0.1313594728708267,1,0.5995503664016724,1
1777498120632682496,0.2233290374279022,1,0.1092265993356705,1,0.2797936201095581,1
1777498120642607360,0.153934970498085,1,-0.09831271320581436,1,0.3806803226470947,1
1777498120652512768,0.1619193553924561,1,-0.01770862191915512,1,0.586760401725769,1
1777498120662398464,0.2246751934289932,1,-0.1613271087408066,1,0.6272328495979309,1
1777498120672264704,0.2149674594402313,1,-0.1500562429428101,1,0.605280876159668,1
1777498120682112512,-0.09125812351703644,1,-0.0831276923418045,1,0.7303073406219482,1
1777498120691942400,-0.09466592967510223,1,0.003027180209755898,1,0.48305344581604,1
1777498120701752832,0.009990690276026726,1,-0.1231435984373093,1,0.7144197821617126,1
1777498120711544064,0.2268945872783661,1,-0.1598149985074997,1,0.655497133731842,1
1777498120721315840,0.2431039661169052,1,-0.07484947144985199,1,0.9021291732788086,1
1777498120731068416,0.1802546679973602,1,-0.1072125509381294,1,0.9257311224937439,1
1777498120741037312,0.1242464780807495,1,0.0989062488079071,1,1.10617470741272,1
1777498120751222016,0.1572080552577972,1,0.09356361627578735,1,0.8161280155181885,1
1777498120761386752,0.06085629761219025,1,0.1608911901712418,1,0.9434766173362732,1
1777498120771531008,-0.0168895535171032,1,0.1860571503639221,1,0.4039667844772339,1
1777498120781655808,-0.05051453784108162,1,0.3880110681056976,1,0.5314022898674011,1
1777498120791760128,0.1285297572612762,1,0.3009026348590851,1,-0.481137752532959,1
1777498120801844992,0.01714359037578106,1,0.3805434703826904,1,0.3046378493309021,1
1777498120811910912,0.1164670661091805,1,0.3360598683357239,1,-0.04397190362215042,1
1777498120821957376,0.0266366470605135,1,0.357483446598053,1,0.3358444571495056,1
1777498120831984896,0.06828910112380981,1,0.2913649678230286,1,0.03740601614117622,1
1777498120841992704,0.02827388234436512,1,0.3856230974197388,1,-0.05106901749968529,1
1777498120851981056,-0.01513870153576136,1,0.02683378383517265,1,-0.2464644610881805,1
1777498120861950208,-0.08629651367664337,1,0.1025202348828316,1,-0.2596410512924194,1
1777498120871899904,-0.150815486907959,1,-0.06980834901332855,1,-0.5187200307846069,1
1777498120881830656,-0.1459112763404846,1,-0.0846654549241066,1,-0.9054766893386841,1
1777498120891743744,-0.1324429661035538,1,-0.03312063962221146,1,-0.529433012008667,1
1777498120901637376,-0.06191743537783623,1,0.09277105331420898,1,-0.8457685112953186,1
1777498120911511552,-0.07492566108703613,1,0.2333332002162933,1,-0.3093851804733276,1
1777498120921366272,0.07205875217914581,1,0.2653960585594177,1,-0.6268296837806702,1
1777498120931201536,-0.04778414964675903,1,0.2030160129070282,1,-0.2455012053251266,1
1777498120941017600,-0.06228886172175407,1,0.3254808783531189,1,-0.5014123320579529,1
1777498120950814208,-0.146012544631958,1,0.2970831990242004,1,-0.4346955120563507,1
1777498120960591104,-0.1872959136962891,1,0.2126320004463196,1,-0.5461323261260986,1
1777498120970349056,-0.1584249287843704,1,0.4177985787391663,1,-0.4990799725055695,1
1777498120980322048,-0.1371372938156128,1,0.4178756177425385,1,-0.4964324831962585,1
1777498120990510080,-0.1680775284767151,1,0.1213245093822479,1,0.09921963512897491,1
1777498121000678144,-0.2686105668544769,1,-0.001595184206962585,1,-0.3051449656486511,1
1777498121010827008,-0.3209528028964996,1,-0.3388400077819824,1,-0.2749144732952118,1
1777498121020955904,-0.320657342672348,1,-0.5777344703674316,1,-0.9517964124679565,1
1777498121031065088,-0.5208590030670166,1,-0.2518814206123352,1,0.03862102329730988,1
1777498121041154560,-0.3199779391288757,1,-0.1644257009029388,1,-0.1051168069243431,1
1777498121051224576,-0.2028631716966629,1,-0.007710528559982777,1,0.31843101978302,1
1777498121061274880,0.06248296052217484,1,-0.06211253255605698,1,0.2357282638549805,1
1777498121071309312,-0.05213281139731407,1,-0.2645499408245087,1,0.945041835308075,1
1777498121081324288,-0.2347678244113922,1,-0.01914229989051819,1,0.4989704787731171,1
1777498121091320064,-0.3422350287437439,1,0.06037804484367371,1,0.8352996706962585,1
1777498121101296128,-0.1815920919179916,1,-0.1184355169534683,1,0.713404655456543,1
1777498121111253248,-0.05774685367941856,1,-0.3228801190853119,1,0.8209462761878967,1
1777498121121191424,-0.2019224911928177,1,-0.03710524365305901,1,0.4871201515197754,1
1777498121131110144,-0.2359479367733002,1,-0.07883977890014648,1,0.6560750007629395,1
1777498121141009408,-0.1005687564611435,1,-0.04456216469407082,1,0.4642020761966705,1
1777498121150889984,-0.1616856604814529,1,-0.4505930244922638,1,0.4496191740036011,1
1777498121160751360,-0.1475996971130371,1,-0.4458563625812531,1,0.16730135679245,1
1777498121170593280,-0.3502944707870483,1,-0.243528887629509,1,0.2128140926361084,1
1777498121180416256,-0.2041356414556503,1,-0.4015076756477356,1,0.08460493385791779,1
1777498121190220032,-0.2905921041965485,1,-0.3799249231815338,1,0.06641683727502823,1
1777498121200004864,-0.1276085078716278,1,-0.4268333613872528,1,0.2038998603820801,1
1777498121209770752,-0.3258373141288757,1,-0.3897684216499329,1,0.2022172063589096,1
1777498121219751424,-0.1322356164455414,1,-0.3409907817840576,1,0.02214224636554718,1
1777498121229946112,-0.2709538638591766,1,-0.3798764050006866,1,0.3561237752437592,1
1777498121240121088,-0.1265817731618881,1,-0.2290127873420715,1,0.1227238997817039,1
1777498121250275584,-0.0796864777803421,1,-0.1435118168592453,1,0.3532670736312866,1
1777498121260410624,0.01769459247589111,1,-0.1360950618982315,1,-0.0614350289106369,1
1777498121270525696,-0.006996404379606247,1,0.07035719603300095,1,0.2053565680980682,1
1777498121280621568,0.02496204897761345,1,-0.0264279842376709,1,-0.0405019149184227,1
1777498121290697728,-0.2116904556751251,1,0.0170794203877449,1,0.26685631275177,1
1777498121300754432,-0.4115528762340546,1,-0.06513365358114243,1,-0.443743109703064,1
1777498121310791680,-0.08792699873447418,1,0.142512708902359,1,-1.418399095535278,1
1777498121320809216,-0.2724530398845673,1,-0.4093140661716461,1,-0.5581223964691162,1
1777498121330806784,0.03772544860839844,1,-0.8495492339134216,1,-0.9015350341796875,1
1777498121340784896,-0.4702319502830505,1,-0.5112378001213074,1,-0.01289176195859909,1
1777498121350743296,0.07813645899295807,1,-0.6595409512519836,1,-0.871640145778656,1
1777498121360681984,0.34082892537117,1,0.1978544890880585,1,-0.5389409065246582,1
1777498121370600704,-0.2263445258140564,1,-0.2948013246059418,1,0.2241081148386002,1
1777498121380499968,-0.1361193060874939,1,0.1183890998363495,1,-1.413064241409302,1
1777498121390379776,0.4492224454879761,1,-0.2149253338575363,1,0.475822925567627,1
1777498121400239616,0.00810648500919342,1,-0.1418957859277725,1,-0.7049367427825928,1
1777498121410080512,0.1358878761529922,1,0.310886561870575,1,1.125664114952087,1
1777498121419901440,0.2403831481933594,1,0.2860414385795593,1,0.1422835886478424,1
1777498121429703424,0.1822138279676437,1,-0.1909960955381393,1,0.217158630490303,1
1777498121439489792,0.1193983405828476,1,-0.4170818328857422,1,0.2814409136772156,1
1777498121449256960,0.03665336593985558,1,-0.1492885649204254,1,0.3847990930080414,1
1777498121459005184,0.08932922780513763,1,-0.06980189681053162,1,-0.3368065357208252,1
1777498121469211136,0.2036188691854477,1,0.01469271630048752,1,-0.2492886483669281,1
1777498121479397120,0.03630995750427246,1,0.02165120095014572,1,-0.2931696176528931,1
1777498121489564416,-0.09915992617607117,1,-0.09133052825927734,1,-0.9360582828521729,1
1777498121499711744,-0.002213673666119576,1,-0.1141810864210129,1,-1.025040030479431,1
1777498121509839104,-0.1679413318634033,1,-0.1775818467140198,1,-0.7182573676109314,1
1777498121519946752,0.09412328898906708,1,0.07713976502418518,1,-0.754951536655426,1
1777498121530034688,0.2894991040229797,1,-0.2975573539733887,1,-0.9900276660919189,1
1777498121540103168,0.08947765082120895,1,-0.2947855889797211,1,-0.5229780673980713,1
1777498121550151936,-0.1259414702653885,1,-0.4079978764057159,1,-0.7504328489303589,1
1777498121560180992,-0.2452065795660019,1,-0.1524076461791992,1,-0.6254401206970215,1
1777498121570194432,-0.05506167188286781,1,0.0354495495557785,1,-0.3901431262493134,1
1777498121580188672,-0.04703495651483536,1,-0.2638883292675018,1,-0.4970507323741913,1
1777498121590163456,0.06863505393266678,1,-0.1852533966302872,1,0.2123113870620728,1
1777498121600118784,-0.03411838412284851,1,0.187040850520134,1,0.2861129641532898,1
1777498121610054912,-0.02214695513248444,1,0.2237007915973663,1,0.8624040484428406,1
1777498121619971584,-0.05009714141488075,1,0.3662639856338501,1,0.8309756517410278,1
1777498121629868800,0.01087730936706066,1,0.528695285320282,1,0.9906776547431946,1
1777498121639746816,-0.09741978347301483,1,0.6387912631034851,1,1.108158588409424,1
1777498121649606144,-0.05304602533578873,1,0.6758026480674744,1,1.156142115592957,1
1777498121659446272,-0.03199519962072372,1,0.5313196182250977,1,1.327668190002441,1
1777498121669267200,0.03038774430751801,1,0.2474533021450043,1,0.8796849250793457,1
1777498121679068928,-0.09889999777078629,1,0.01641433872282505,1,0.8546963334083557,1
1777498121688851200,-0.2410185039043427,1,-0.05600179359316826,1,0.6647511124610901,1
1777498121698613760,-0.301766961812973,1,0.05066194757819176,1,0.6135303378105164,1
1777498121708589312,-0.06266738474369049,1,0.07007260620594025,1,0.4357539117336273,1
1777498121718777344,-0.08247654139995575,1,0.0624535083770752,1,0.473692923784256,1
1777498121728946176,-0.06871567666530609,1,-0.04633051156997681,1,0.7419531345367432,1
1777498121739095040,-0.1434594094753265,1,0.08910141140222549,1,0.3703306317329407,1
1777498121749223936,-0.1440573185682297,1,-0.04624569416046143,1,0.6075412631034851,1
1777498121759333376,-0.1590516567230225,1,-0.246025562286377,1,0.2247089594602585,1
1777498121769423104,-0.1919921636581421,1,-0.1161387413740158,1,-0.02028054744005203,1
1777498121779493120,-0.2806960046291351,1,-0.03557506948709488,1,-0.4968758523464203,1
1777498121789543424,-0.02422976493835449,1,-0.2058399617671967,1,-0.6873606443405151,1
1777498121799573504,-0.05847959220409393,1,-0.04453498870134354,1,-1.574066042900085,1
1777498121809586432,-0.08632266521453857,1,0.1527034491300583,1,-0.4224525392055511,1
1777498121819579904,-0.008681925944983959,1,0.4938112795352936,1,-0.7232632637023926,1
1777498121829553920,0.04383010789752007,1,0.6519862413406372,1,0.09737721830606461,1
1777498121839508480,-0.04448837414383888,1,0.6210171580314636,1,-0.2987683415412903,1
1777498121849444096,0.09964844584465027,1,0.4884787201881409,1,0.01482324115931988,1
1777498121859360256,-0.0608481839299202,1,0.4886388778686523,1,-0.472188413143158,1
1777498121869256960,-0.1243860721588135,1,0.5403096079826355,1,-0.1042132452130318,1
1777498121879134720,-0.1520377546548843,1,0.5228778719902039,1,-0.3917388617992401,1
1777498121888993792,-0.04997514560818672,1,0.2076643854379654,1,-0.5812345743179321,1
1777498121898833408,-0.139802947640419,1,0.3360579907894135,1,-0.7235171794891357,1
1777498121908653824,-0.02718535810709,1,0.1895895153284073,1,-0.9934471249580383,1
1777498121918455552,-0.1256805509328842,1,0.2108067274093628,1,-0.7067036628723145,1
1777498121928237568,-0.09975497424602509,1,0.2380519509315491,1,-0.4513874650001526,1
1777498121938000640,-0.1556597501039505,1,0.2280455827713013,1,-0.2109477967023849,1
1777498121947977728,0.02910395711660385,1,0.05749505013227463,1,-0.0872129425406456,1
1777498121958167808,-0.083454430103302,1,0.1103890314698219,1,0.06510417908430099,1
1777498121968337664,-0.1153706684708595,1,0.01046616956591606,1,0.2995195388793945,1
1777498121978489344,-0.1749012917280197,1,0.08037576079368591,1,0.3273349404335022,1
1777498121988621056,-0.04606315493583679,1,0.1287341564893723,1,0.6954598426818848,1
1777498121998733056,0.03800702095031738,1,0.1776096820831299,1,0.4002750515937805,1
1777498122008825344,0.05272167921066284,1,0.1842233389616013,1,0.5128566026687622,1
1777498122018898176,-0.1536506861448288,1,0.1248411908745766,1,0.3344133496284485,1
1777498122028951040,-0.231465220451355,1,0.1378688216209412,1,0.4678995311260223,1
1777498122038984704,-0.09174159169197083,1,0.1011947095394135,1,0.5821002125740051,1
1777498122048998912,0.06547456979751587,1,0.01943165436387062,1,0.7461502552032471,1
1777498122058994176,0.1021326333284378,1,0.002053054980933666,1,0.8654578328132629,1
1777498122068969984,0.08349188417196274,1,0.03823433071374893,1,0.9172082543373108,1
1777498122078926336,-0.1492901295423508,1,0.009796144440770149,1,1.300124764442444,1
1777498122088862976,-0.1672748774290085,1,-0.07611725479364395,1,1.124300599098206,1
1777498122098782208,-0.1944945156574249,1,-0.2942640483379364,1,0.8405770063400269,1
1777498122108683776,-0.1421056538820267,1,-0.4687149524688721,1,0.619294285774231,1
1777498122118566400,0.07312659919261932,1,-0.6235442161560059,1,-0.06325448304414749,1
1777498122128430080,0.01083670184016228,1,-0.5143003463745117,1,0.1777723580598831,1
1777498122138274304,-0.08771128952503204,1,-0.440619558095932,1,0.04997076839208603,1
1777498122148099840,-0.0567680150270462,1,-0.3786886632442474,1,0.3082367479801178,1
1777498122157905920,-0.1694315671920776,1,-0.208048090338707,1,0.5377447605133057,1
1777498122167693056,-0.1733642071485519,1,-0.06105900555849075,1,0.3839951157569885,1
1777498122177461248,-0.1447526067495346,1,-0.1914360374212265,1,0.672122061252594,1
1777498122187442176,-0.1675357967615128,1,-0.06139145791530609,1,0.1608661115169525,1
1777498122197635072,-0.2869981527328491,1,-0.1748175173997879,1,0.2577854692935944,1
1777498122207808000,-0.3770259022712708,1,-0.0707334578037262,1,-0.01514402776956558,1
1777498122217960960,-0.06736958771944046,1,-0.002962797880172729,1,-0.9480834007263184,1
1777498122228094976,0.02819959819316864,1,0.1118534952402115,1,-0.2091473340988159,1
1777498122238209280,0.02089345082640648,1,0.01233444362878799,1,-0.109489306807518,1
1777498122248304384,-0.2295317053794861,1,0.2471250593662262,1,0.4419617056846619,1
1777498122258379776,-0.0002650227397680283,1,0.3966873288154602,1,0.3339796662330627,1
1777498122268435712,0.08880852162837982,1,0.5022757053375244,1,0.4545026123523712,1
1777498122278472192,0.06758000701665878,1,0.06731056421995163,1,0.351096510887146,1
1777498122288489216,-0.01072378363460302,1,0.2237965911626816,1,0.1148194521665573,1
1777498122298486784,-0.01457688026130199,1,0.1410662680864334,1,-0.2198006808757782,1
1777498122308465408,0.01873139105737209,1,-0.05466280877590179,1,-0.1065637618303299,1
1777498122318424832,0.1070948764681816,1,-0.1536540687084198,1,-0.2226403951644897,1
1777498122328365056,-0.01240018010139465,1,-0.2328811883926392,1,0.02239737659692764,1
1777498122338285824,-0.04545598477125168,1,-0.1745656132698059,1,-0.2857965528964996,1
1777498122348187136,-0.010049719363451,1,-0.104766771197319,1,-0.1502222120761871,1
1777498122358069248,0.08091924339532852,1,-0.2999195456504822,1,-0.5251172780990601,1
1777498122367936512,-0.008278153836727142,1,-0.3834773898124695,1,-0.3836705982685089,1
1777498122377784576,-0.1472920775413513,1,-0.1358043700456619,1,-0.6231825947761536,1
1777498122387613696,-0.01004732120782137,1,-0.2552021443843842,1,-0.7944414615631104,1
1777498122397424128,0.1282141804695129,1,-0.1041200160980225,1,-0.392169177532196,1
1777498122407215616,0.3224973082542419,1,0.09173183143138885,1,-0.206074520945549,1
1777498122416987904,0.2584002315998077,1,0.3232182562351227,1,0.1331258416175842,1
1777498122426973952,0.2774874269962311,1,0.3533715009689331,1,0.3316169381141663,1
1777498122437173248,0.2748882174491882,1,0.233283057808876,1,0.6312112808227539,1
1777498122447352832,0.3791000545024872,1,0.1532634496688843,1,0.4848735928535461,1
1777498122457512704,0.3290064036846161,1,0.1317600011825562,1,0.3075317442417145,1
1777498122467653888,0.1105284839868546,1,-0.02707168273627758,1,0.2589890658855438,1
1777498122477775104,-0.05086573213338852,1,-0.04769782721996307,1,0.06457170844078064,1
1777498122487876864,0.05918852612376213,1,0.001802047714591026,1,-0.03918259590864182,1
1777498122497958656,0.0183735080063343,1,0.09145000576972961,1,-0.3818426132202148,1
1777498122508021248,-0.03840397670865059,1,0.09956450015306473,1,-0.3782349526882172,1
1777498122518064384,-0.1061453819274902,1,0.1923117935657501,1,-0.6001369953155518,1
1777498122528087808,-0.149594247341156,1,0.1491367965936661,1,-0.1315597742795944,1
1777498122538091520,-0.07313738763332367,1,0.0462721586227417,1,-0.1405712068080902,1
1777498122548076544,0.2253763973712921,1,-0.08866837620735168,1,-0.04557980597019196,1
1777498122558041856,0.1181051135063171,1,-0.3339647948741913,1,0.1223054602742195,1
1777498122567987968,-0.008821358904242516,1,-0.4371527433395386,1,-0.0557275265455246,1
1777498122577914880,0.03097214363515377,1,-0.3330338001251221,1,-0.3572462499141693,1
1777498122587822080,0.05025486648082733,1,-0.187198743224144,1,-0.3896629214286804,1
1777498122597710080,0.06403326988220215,1,-0.3160107433795929,1,-0.1878613531589508,1
1777498122607578880,0.02916915342211723,1,-0.1525970548391342,1,-0.2019802778959274,1
1777498122617432064,-0.09543298184871674,1,-0.04101778194308281,1,0.1154602915048599,1
1777498122627269376,-0.07330366969108582,1,-0.07398723065853119,1,-0.2332795858383179,1
1777498122637088000,-0.1070845723152161,1,-0.1493102610111237,1,0.08424577862024307,1
1777498122646887168,0.1229139789938927,1,-0.09959826618432999,1,-0.6018526554107666,1
1777498122656667392,-0.09620841592550278,1,-0.1159750744700432,1,-0.03359391167759895,1
1777498122666428928,-0.1347446441650391,1,-0.1562485247850418,1,-0.4394136667251587,1
1777498122676629760,-0.132258340716362,1,-0.1804179400205612,1,0.1797905266284943,1
1777498122686810880,0.05176912248134613,1,-0.08435413241386414,1,-0.2842416167259216,1
1777498122696972288,0.1476566642522812,1,-0.134043887257576,1,0.3057075142860413,1
1777498122707113984,0.07357484847307205,1,0.02389679849147797,1,0.09140472114086151,1
1777498122717235712,-0.05810190364718437,1,0.07422633469104767,1,0.5204885005950928,1
1777498122727338496,0.02615681663155556,1,0.1626611351966858,1,0.1953346133232117,1
1777498122737422592,0.1469607204198837,1,-0.07706320285797119,1,0.4841687083244324,1
1777498122747486976,0.2797044515609741,1,0.1505840271711349,1,0.3701988160610199,1
1777498122757531904,0.1628199219703674,1,0.210803896188736,1,0.5881117582321167,1
1777498122767557888,0.1188071370124817,1,0.3259839415550232,1,0.5862698554992676,1
1777498122777564928,0.1764668077230453,1,0.4487699568271637,1,0.7303230166435242,1
1777498122787552256,0.2178334146738052,1,0.4195561707019806,1,0.8090125322341919,1
1777498122797520128,0.2190032601356506,1,0.5273712277412415,1,0.8036169409751892,1
1777498122807468800,0.1118772551417351,1,0.5847422480583191,1,0.8471296429634094,1
1777498122817398272,0.09759345650672913,1,0.4721634387969971,1,0.6473290324211121,1
1777498122827308544,0.1298620402812958,1,0.4854373037815094,1,0.4165686368942261,1
1777498122837199104,0.1018166989088058,1,0.255029022693634,1,0.4403791427612305,1
1777498122847070464,0.06185859441757202,1,0.3010320067405701,1,-0.03257500752806664,1
1777498122856922624,0.003119708970189095,1,0.1255434900522232,1,0.6558763980865479,1
1777498122866755328,0.1322271972894669,1,0.08414452522993088,1,0.1334431171417236,1
1777498122876568832,0.1763009279966354,1,0.09699947386980057,1,0.5031667351722717,1
1777498122886363904,0.09133829176425934,1,0.2102961242198944,1,-0.1139955818653107,1
1777498122896140288,-0.1116627231240273,1,-0.02491801232099533,1,0.1098213344812393,1
1777498122905897472,-0.1403219103813171,1,-0.03123935125768185,1,-0.4001463949680328,1
1777498122916108800,-0.1840919256210327,1,-0.1200218349695206,1,-0.3147400915622711,1
1777498122926300416,-0.09317000955343246,1,-0.1235702559351921,1,-0.7563976049423218,1
1777498122936472832,-0.05727467685937881,1,-0.05411330610513687,1,-0.3667050004005432,1
1777498122946625280,-0.03793308511376381,1,-0.03744136542081833,1,-0.3923299014568329,1
1777498122956757760,0.1009519696235657,1,0.3026438057422638,1,-0.2762367427349091,1
1777498122966870784,0.2006352990865707,1,0.3686012625694275,1,-0.3220022618770599,1
1777498122976965632,0.03466456383466721,1,0.1901669651269913,1,0.1294872611761093,1
1777498122987041024,0.04774055629968643,1,0.2734884023666382,1,-0.3003278970718384,1
1777498122997096960,0.02122045122087002,1,0.139074519276619,1,-0.1251302808523178,1
1777498123007132928,-0.08192344754934311,1,-0.08529745042324066,1,-0.233000248670578,1
1777498123017149952,0.02051225304603577,1,-0.160562589764595,1,-0.2146749347448349,1
1777498123027147264,-0.1294025033712387,1,-0.02161520719528198,1,-0.09048958867788315,1
1777498123037125120,-0.04737678542733192,1,-0.09161008149385452,1,-0.1215356141328812,1
1777498123047083520,0.1545838713645935,1,0.06247362866997719,1,-0.5482021570205688,1
1777498123057023232,0.07107935845851898,1,-0.1305402368307114,1,-0.4900529384613037,1
1777498123066943744,-0.1468019038438797,1,-0.2285191565752029,1,-0.7819815278053284,1
1777498123076844544,-0.283639520406723,1,-0.3283075094223022,1,-1.415801882743835,1
1777498123086726144,-0.2208473533391953,1,-0.5292640924453735,1,-0.8361959457397461,1
1777498123096588544,-0.1101771295070648,1,-0.634534478187561,1,-0.7436927556991577,1
1777498123106431232,0.0733010545372963,1,-0.5453912615776062,1,-0.2767618894577026,1
1777498123116254720,-0.06718843430280685,1,-0.3845141530036926,1,-0.09669618308544159,1
1777498123126059264,-0.06121004372835159,1,-0.2421035915613174,1,0.5198714733123779,1
1777498123135845888,-0.06525395810604095,1,-0.1665880233049393,1,0.3137006461620331,1
1777498123145613568,-0.09258118271827698,1,-0.1961441040039062,1,0.5299088358879089,1
1777498123155594752,-0.04140498489141464,1,-0.1035741344094276,1,0.4415529072284698,1
1777498123165789440,-0.1690751761198044,1,-0.08928124606609344,1,0.6422151923179626,1
1777498123175964672,-0.1019474342465401,1,-0.2235215902328491,1,0.6621780395507812,1
1777498123186120448,-0.1357205808162689,1,-0.2420825660228729,1,0.6150974631309509,1
1777498123196256512,-0.04930934682488441,1,-0.2416767179965973,1,0.5215488076210022,1
1777498123206372352,-0.141478955745697,1,-0.1425609588623047,1,0.6666929721832275,1
1777498123216469248,-0.1091933399438858,1,-0.1537272185087204,1,0.5821035504341125,1
1777498123226545920,-0.08805163204669952,1,-0.0999816358089447,1,0.7738851308822632,1
1777498123236603136,-0.09085994958877563,1,-0.03270645439624786,1,0.4348220825195312,1
1777498123246640640,-0.07891615480184555,1,-0.2193405032157898,1,0.7722577452659607,1
1777498123256660480,-0.0865660235285759,1,-0.112298808991909,1,0.2750431895256042,1
1777498123266661888,-0.06789657473564148,1,-0.2467265576124191,1,0.434398889541626,1
1777498123276644096,-0.05504228174686432,1,-0.1819884479045868,1,-0.1137531250715256,1
1777498123286606848,-0.08458246290683746,1,-0.4715270698070526,1,0.2029150426387787,1
1777498123296549888,-0.03786616772413254,1,-0.3891469240188599,1,-0.2166154831647873,1
1777498123306473472,-0.04065218567848206,1,-0.3835778832435608,1,0.2053752839565277,1
1777498123316377856,0.03521110489964485,1,-0.3715590536594391,1,0.05718095228075981,1
1777498123326263040,0.0254181157797575,1,-0.346874862909317,1,0.5115711092948914,1
1777498123336128768,0.08840488642454147,1,-0.1736489832401276,1,0.1918288469314575,1
1777498123345975808,-0.01250799372792244,1,-0.1868004947900772,1,0.7195385098457336,1
1777498123355803648,-0.03832938149571419,1,-0.08103072643280029,1,0.4685118198394775,1
1777498123365612544,-0.05952189117670059,1,-0.1610402464866638,1,0.8180388808250427,1
1777498123375402240,-0.07569774240255356,1,-0.2412225604057312,1,0.7467264533042908,1
1777498123385172736,-0.04752462357282639,1,-0.2521854639053345,1,1.074941754341125,1
1777498123395156736,0.05444972217082977,1,0.05461912602186203,1,0.65514075756073,1
1777498123405353472,0.261026918888092,1,-0.09215639531612396,1,0.4501178860664368,1
1777498123415530752,0.1535694003105164,1,0.4765939712524414,1,0.422431081533432,1
1777498123425688832,0.3145929574966431,1,0.6211278438568115,1,-0.1667555123567581,1
1777498123435827200,0.1494107991456985,1,0.3117486834526062,1,0.2523945271968842,1
1777498123445945600,0.0323200523853302,1,0.02785048820078373,1,0.2210589051246643,1
1777498123456044544,-0.1032785773277283,1,0.1242920979857445,1,-0.1802618652582169,1
1777498123466124032,0.2478733956813812,1,-0.01007053442299366,1,-1.133460402488708,1
1777498123476183552,0.2410076409578323,1,-0.5341300368309021,1,-0.4826219975948334,1
1777498123486223616,0.01656110771000385,1,-0.2582837343215942,1,-1.290485978126526,1
1777498123496244224,-0.1149445176124573,1,-0.2823707163333893,1,-0.9217976331710815,1
1777498123506248704,0.2059478163719177,1,-0.6116519570350647,1,-1.471082329750061,1
1777498123516233728,0.2881755828857422,1,-0.5764425992965698,1,-0.7516396641731262,1
1777498123526199296,0.3812052607536316,1,-0.5468149781227112,1,-1.278680205345154,1
1777498123536145408,0.006939645856618881,1,-0.401162713766098,1,-0.7104015946388245,1
1777498123546072320,0.04134856909513474,1,-0.1612618118524551,1,-0.8478217720985413,1
1777498123555980288,0.05548612773418427,1,0.2198883146047592,1,-0.7412760853767395,1
1777498123565869312,0.4261020720005035,1,0.1068763807415962,1,-1.37313187122345,1
1777498123575738880,0.154196709394455,1,0.3993237614631653,1,-0.3312113285064697,1
1777498123585590016,0.3631862998008728,1,0.6125766634941101,1,-0.9912416934967041,1
1777498123595421696,0.2221476137638092,1,0.4237303137779236,1,-0.4239531457424164,1
1777498123605234432,0.352209597826004,1,0.6211916208267212,1,-0.4790277481079102,1
1777498123615027968,0.3662893176078796,1,0.6398348808288574,1,-0.01197244226932526,1
1777498123624802304,0.3376851677894592,1,0.5190004706382751,1,-0.05890724062919617,1
1777498123634788608,0.2703315317630768,1,0.465474396944046,1,0.4265062808990479,1
1777498123644986368,0.2703491747379303,1,0.3451172113418579,1,0.2510758340358734,1
1777498123655164160,0.1508322507143021,1,0.1449743211269379,1,0.7008090019226074,1
1777498123665323008,0.1891422420740128,1,-0.013429906219244,1,0.461340606212616,1
1777498123675462400,0.104035273194313,1,0.0179462693631649,1,0.6968961954116821,1
1777498123685582336,0.07502087950706482,1,0.0197460763156414,1,0.4911858737468719,1
1777498123695682816,-0.008027227595448494,1,-0.06656242161989212,1,0.6497239470481873,1
1777498123705763584,0.153161957859993,1,-0.06979766488075256,1,0.5047082901000977,1
1777498123715824896,0.1445763111114502,1,-0.06717322021722794,1,0.8501534461975098,1
1777498123725866752,0.2014667093753815,1,-0.08406229317188263,1,0.7364826798439026,1
1777498123735888896,0.1462322771549225,1,0.04069729149341583,1,0.7440456748008728,1
1777498123745893632,0.08673279732465744,1,-0.08442136645317078,1,0.5434353351593018,1
1777498123755880704,-0.02094669826328754,1,-0.0838615894317627,1,0.509740948677063,1
1777498123765848576,0.3060197830200195,1,-0.1550064384937286,1,0.1502100229263306,1
1777498123775796992,0.2046775966882706,1,-0.07377137988805771,1,0.3270327746868134,1
1777498123785726208,0.2728876173496246,1,-0.04395100474357605,1,0.5432648062705994,1
1777498123795635968,0.2668609917163849,1,0.09015492349863052,1,0.5855985879898071,1
1777498123805526272,0.2018425315618515,1,-0.004466388374567032,1,0.7936927080154419,1
1777498123815397376,0.03459533676505089,1,0.06670256704092026,1,0.8063481450080872,1
1777498123825249792,0.05301326513290405,1,-0.02957790344953537,1,0.8572686910629272,1
1777498123835083008,0.05153967440128326,1,-0.001168345101177692,1,0.8117096424102783,1
1777498123844897024,0.06122923269867897,1,0.08370768278837204,1,0.7956817150115967,1
1777498123854691840,0.1348628401756287,1,0.1901416480541229,1,0.7731061577796936,1
1777498123864467712,0.3429857194423676,1,0.2491730153560638,1,0.5033114552497864,1
1777498123874455296,0.3057239949703217,1,0.3764892220497131,1,0.11879563331604,1
1777498123884654592,0.1486496925354004,1,0.5126746892929077,1,0.3044022917747498,1
1777498123894834176,0.08191636949777603,1,0.3065522611141205,1,0.3654279112815857,1
1777498123904994304,-0.09298692643642426,1,0.2828005850315094,1,0.3723603487014771,1
1777498123915135744,-0.007762648165225983,1,-0.01561622135341167,1,0.1726105660200119,1
1777498123925257216,0.1347957998514175,1,-0.1778706461191177,1,0.2899748384952545,1
1777498123935358976,0.4347744584083557,1,0.4027406573295593,1,0.2790326178073883,1
1777498123945441024,0.3831870555877686,1,0.7703500986099243,1,-0.7308086156845093,1
1777498123955503872,0.2045572400093079,1,0.2505706548690796,1,-0.2480927556753159,1
1777498123965547008,-0.9252154231071472,1,0.1040302291512489,1,-0.6010652780532837,1
1777498123975570688,0.08333286643028259,1,-0.3008929193019867,1,-0.8158459067344666,1
1777498123985575168,-0.1614895761013031,1,-0.07271724939346313,1,-0.9019942283630371,1
1777498123995563264,0.2291079461574554,1,-0.4010439515113831,1,-0.700048565864563,1
1777498124005532160,-0.08371023833751678,1,-0.2017895579338074,1,-0.5889472961425781,1
1777498124015481600,-0.7397869825363159,1,0.1487870663404465,1,0.0182768777012825,1
1777498124025411840,-0.5250895619392395,1,0.1525940895080566,1,-0.5803554058074951,1
1777498124035322624,0.03937098383903503,1,-0.05672661960124969,1,-2.393138408660889,1
1777498124045213696,0.0614943765103817,1,-0.1176092475652695,1,-0.8675247430801392,1
1777498124055085824,-0.1742780357599258,1,0.2629153728485107,1,-1.246606469154358,1
1777498124064938240,-0.6833094954490662,1,0.007936842739582062,1,0.5100486278533936,1
1777498124074772224,-0.3132285177707672,1,-0.2492296099662781,1,-0.3630388677120209,1
1777498124084586496,0.3013555109500885,1,-0.2500077486038208,1,-1.926713228225708,1
1777498124094381824,-0.151584193110466,1,-0.4638184309005737,1,-0.5655532479286194,1
1777498124104157952,-0.6882568597793579,1,-0.4272778630256653,1,-1.193922162055969,1
1777498124114149632,-0.7212375998497009,1,-0.009193781763315201,1,0.06830435991287231,1
1777498124124356096,-0.1839242875576019,1,0.1751689016819,1,-0.6785255670547485,1
1777498124134542592,0.3604491949081421,1,-0.2544482052326202,1,-0.0710286870598793,1
1777498124144709120,0.1044552251696587,1,-0.1401610821485519,1,0.1290780156850815,1
1777498124154855936,-0.1904075592756271,1,0.2333560436964035,1,0.5874246954917908,1
1777498124164984064,-0.2866048812866211,1,0.2458068281412125,1,0.6095671653747559,1
1777498124175092736,-0.09858161211013794,1,0.3752533197402954,1,0.6634749174118042,1
1777498124185182208,0.2671398818492889,1,0.2989032566547394,1,0.3600395619869232,1
1777498124195251712,-0.0410660095512867,1,0.5068773627281189,1,0.4439207911491394,1
1777498124205302016,-0.1978549361228943,1,0.565092146396637,1,0.8421471118927002,1
1777498124215333120,-0.1083762794733047,1,0.5871056318283081,1,0.8064184188842773,1
1777498124225344512,0.1251007169485092,1,0.2542111873626709,1,0.7717865109443665,1
1777498124235336960,-0.05619566142559052,1,0.08271960914134979,1,0.792621910572052,1
1777498124245310464,-0.2009891867637634,1,0.2179339826107025,1,0.925129771232605,1
1777498124255264768,-0.3968404829502106,1,0.0688093900680542,1,0.8790194988250732,1
1777498124265199872,-0.1814793050289154,1,-0.06382216513156891,1,0.7445700168609619,1
1777498124275115776,-0.1769870817661285,1,-0.08560136705636978,1,0.6930193901062012,1
1777498124285012224,-0.0774402916431427,1,-0.1372193843126297,1,0.4391932189464569,1
1777498124294889728,-0.2711887955665588,1,-0.0677744597196579,1,0.702087938785553,1
1777498124304748032,-0.0864630714058876,1,-0.2171032130718231,1,0.5803685784339905,1
1777498124314591744,0.03297465667128563,1,-0.3793670833110809,1,0.1498588621616364,1
1777498124324416512,0.04013317823410034,1,-0.4525452554225922,1,0.3969738185405731,1
1777498124334222080,-0.2630381882190704,1,-0.3857864439487457,1,0.3297503292560577,1
1777498124344008448,-0.3237754702568054,1,-0.2784276306629181,1,0.2028217017650604,1
1777498124353776128,-0.2377507835626602,1,-0.1733918040990829,1,0.08250690996646881,1
1777498124363992064,-0.09030482918024063,1,-0.3232914209365845,1,0.1529067307710648,1
1777498124374188288,-0.09749612957239151,1,-0.3421504497528076,1,0.2040764093399048,1
1777498124384364800,-0.09691015630960464,1,-0.2606595456600189,1,0.3662177920341492,1
1777498124394521088,-0.1334208101034164,1,-0.1547561883926392,1,0.2959733903408051,1
1777498124404657920,-0.149589404463768,1,-0.1747534424066544,1,0.1426988244056702,1
1777498124414774784,-0.08812616020441055,1,-0.2414624691009521,1,-0.08608049154281616,1
1777498124424872192,-0.06126312166452408,1,0.09823403507471085,1,-0.2734931409358978,1
1777498124434951680,-0.2261090874671936,1,0.05549286678433418,1,0.1980882883071899,1
1777498124445011456,-0.00147272739559412,1,0.1033700481057167,1,0.1024095937609673,1
1777498124455052032,0.02010097727179527,1,0.1279720366001129,1,0.3092222511768341,1
1777498124465072640,0.08427005261182785,1,0.03271367028355598,1,0.07147882878780365,1
1777498124475074304,-0.08536951243877411,1,0.1155275702476501,1,0.251560777425766,1
1777498124485056512,-0.06034579500555992,1,0.08070497214794159,1,-0.1647473871707916,1
1777498124495019008,-0.04655703157186508,1,-0.01961902901530266,1,-0.2477971315383911,1
1777498124504962048,0.07106471806764603,1,0.05745062977075577,1,-0.1785068213939667,1
1777498124514886144,0.01255711354315281,1,-0.08343113213777542,1,0.004873696714639664,1
1777498124524790784,-0.06380574405193329,1,-0.2158059030771255,1,0.2893306016921997,1
1777498124534675712,-0.05425610020756721,1,0.002828799188137054,1,0.07311657816171646,1
1777498124544541696,0.07541684806346893,1,0.161916509270668,1,-0.01143954135477543,1
1777498124554387968,0.09577596187591553,1,0.1913261562585831,1,0.3088333904743195,1
1777498124564215296,0.2401210367679596,1,0.3425506353378296,1,0.323333352804184,1
1777498124574022912,0.02904444560408592,1,0.2443609237670898,1,0.7638458609580994,1
1777498124583811584,0.1976699680089951,1,0.1550743877887726,1,0.6737408638000488,1
1777498124593582336,-0.07834749668836594,1,0.07244878262281418,1,0.473043829202652,1
1777498124603566848,-0.02896720170974731,1,-0.03014591336250305,1,-0.03044484183192253,1
1777498124613764096,-0.02649367600679398,1,0.2354872524738312,1,-0.3161868751049042,1
1777498124623941376,0.0818631649017334,1,0.2170922309160233,1,-0.7310701012611389,1
1777498124634098432,-0.04195790737867355,1,0.1506698727607727,1,-1.152666926383972,1
1777498124644237056,-0.1093982383608818,1,-0.1231022477149963,1,-0.8331578969955444,1
1777498124654355968,-0.3026564419269562,1,-0.09420882910490036,1,-1.154221415519714,1
1777498124664455424,-0.1057426184415817,1,-0.0376722440123558,1,-1.802433848381042,1
1777498124674535424,-0.1884027421474457,1,-0.0889749750494957,1,-1.029162049293518,1
1777498124684596736,-0.003014732152223587,1,-0.02845710888504982,1,-1.894378304481506,1
1777498124694638336,-0.03398865461349487,1,0.08700998872518539,1,-1.269478917121887,1
1777498124704660224,0.01269710808992386,1,0.05029641091823578,1,-1.14440655708313,1
1777498124714662656,0.04852741956710815,1,-0.09197296947240829,1,-0.8107624053955078,1
1777498124724646400,0.04650485515594482,1,0.145839661359787,1,-0.7791727781295776,1
1777498124734610688,0.002684761770069599,1,0.0440080389380455,1,-0.5281834602355957,1
1777498124744558848,-0.03115042485296726,1,0.1031177490949631,1,-0.4009110331535339,1
1777498124754488064,-0.2023065239191055,1,0.3666326999664307,1,-0.1324125528335571,1
1777498124764397824,-0.0739770382642746,1,0.2586685717105865,1,-0.1005079969763756,1
1777498124774288640,0.01771990209817886,1,0.2735722959041595,1,0.361807107925415,1
1777498124784160768,0.03351117670536041,1,0.4061224460601807,1,0.6109862923622131,1
1777498124794013952,-0.1008374691009521,1,0.4104351103305817,1,0.8077036738395691,1
1777498124803848192,-0.1219385638833046,1,0.3389827907085419,1,1.076195955276489,1
1777498124813662720,-0.2158993929624557,1,0.2720544338226318,1,1.268574833869934,1
1777498124823459328,-0.150172084569931,1,0.3483368158340454,1,1.079352855682373,1
1777498124833236736,-0.1994191259145737,1,0.1929343044757843,1,1.315683603286743,1
1777498124843225856,-0.1969662457704544,1,0.2258714437484741,1,1.351625442504883,1
1777498124853425664,-0.1877277344465256,1,0.2724530696868896,1,1.165266633033752,1
