Time,GPS_ts,fGPS_ts,scaledAccelX,scaledAccelY,scaledAccelZ,deltaVelX,deltaVelY,deltaVelZ,estLinearAccelX,estLinearAccelY,estLinearAccelZ,estLinearAccel:valid,estAngularRateX,estAngularRateY,estAngularRateZ,estAngularRate:valid,estGravityX,estGravityY,estGravityZ,estGravity:valid,flag
1778109209149,  1220.707,  1220.707, 0.014362,-0.016865,-0.995144, 0.000029,-0.000034,-0.001990, 0.004496,-0.001114, 0.045297,1,-0.000717,-0.000663, 0.000208,1,-0.136347, 0.164269, 9.804326,1,0
1778109209149,  1220.712,  1220.711, 0.013787,-0.017084,-0.995506, 0.000028,-0.000034,-0.001991,-0.000704,-0.002514, 0.048477,1, 0.000823,-0.000202, 0.000672,1,-0.136325, 0.164287, 9.804326,1,0
1778109209149,  1220.717,  1220.717, 0.013518,-0.016558,-0.996886, 0.000027,-0.000033,-0.001994,-0.003784, 0.001990, 0.028207,1, 0.000923, 0.000951,-0.000035,1,-0.136352, 0.164379, 9.804324,1,0
1778109209149,  1220.722,  1220.721, 0.013020,-0.017520,-0.996176, 0.000026,-0.000035,-0.001992,-0.010873,-0.010216, 0.028288,1, 0.000373, 0.000592,-0.000736,1,-0.136367, 0.164417, 9.804323,1,0
1778109209149,  1220.727,  1220.726, 0.013846,-0.016744,-0.995181, 0.000028,-0.000033,-0.001990,-0.000605, 0.000230, 0.044932,1, 0.000405, 0.000003, 0.000318,1,-0.136388, 0.164439, 9.804322,1,0
1778109209149,  1220.732,  1220.731, 0.013516,-0.016400,-0.996333, 0.000027,-0.000033,-0.001993,-0.002527, 0.001654, 0.033951,1,-0.000077,-0.000801,-0.000650,1,-0.136361, 0.164425, 9.804323,1,0
1778109209150,  1220.736,  1220.736, 0.013688,-0.016039,-0.996636, 0.000027,-0.000032,-0.001993,-0.002082, 0.007152, 0.030665,1, 0.001799,-0.001102, 0.000153,1,-0.136305, 0.164454, 9.804323,1,0
1778109209150,  1220.741,  1220.741, 0.013715,-0.016956,-0.995701, 0.000027,-0.000034,-0.001991,-0.001785,-0.001804, 0.039829,1, 0.001088, 0.000067, 0.000473,1,-0.136285, 0.164488, 9.804323,1,0
1778109209150,  1220.746,  1220.745, 0.014079,-0.016831,-0.995359, 0.000028,-0.000034,-0.001991,-0.004296,-0.001308, 0.049643,1, 0.000068,-0.000715, 0.000369,1,-0.136270, 0.164503, 9.804323,1,0
1778109209150,  1220.751,  1220.751, 0.013749,-0.016076,-0.996310, 0.000028,-0.000032,-0.001993,-0.001442, 0.006791, 0.033862,1,-0.001601, 0.000474, 0.000044,1,-0.136273, 0.164431, 9.804324,1,0
1778109209150,  1220.754,  1220.753, 0.014025,-0.016598,-0.996333, 0.000028,-0.000033,-0.001993,-0.004225, 0.003213, 0.032342,1,-0.001337, 0.000210,-0.000227,1,-0.136278, 0.164401, 9.804325,1,0
1778109209155,  1236.778,  1236.777, 0.014182,-0.017842,-0.997067, 0.000028,-0.000036,-0.001994,-0.001636, 0.000918, 0.036681,1, 0.000792,-0.000212, 0.000213,1,-0.136282, 0.164427, 9.804324,1,0
1778109209166,  1236.783,  1236.782, 0.013989,-0.018080,-0.994963, 0.000028,-0.000036,-0.001990, 0.002025,-0.011583, 0.047061,1,-0.001270, 0.000166,-0.000740,1,-0.135162, 0.165715, 9.804318,1,0
1778109209177,  1236.787,  1236.787, 0.014097,-0.017742,-0.995046, 0.000028,-0.000036,-0.001990, 0.003051,-0.008273, 0.046250,1, 0.000140,-0.000035, 0.001167,1,-0.135188, 0.165719, 9.804317,1,0
1778109209187,  1236.792,  1236.791, 0.014846,-0.015751,-0.996505, 0.000030,-0.000031,-0.001993, 0.003723, 0.004924, 0.030937,1, 0.000512, 0.000138, 0.000583,1,-0.135186, 0.165710, 9.804317,1,0
1778109209198,  1236.797,  1236.796, 0.013732,-0.016060,-0.995392, 0.000027,-0.000032,-0.001991,-0.000537, 0.008340, 0.042856,1,-0.000710, 0.000259, 0.000782,1,-0.135206, 0.165826, 9.804316,1,0
1778109209209,  1236.801,  1236.801, 0.014218,-0.016084,-0.993527, 0.000029,-0.000032,-0.001987, 0.004247, 0.008118, 0.061146,1, 0.001330,-0.001124, 0.000840,1,-0.135173, 0.165861, 9.804316,1,0
1778109209220,  1236.806,  1236.805, 0.014800,-0.014699,-0.996434, 0.000030,-0.000029,-0.001993, 0.008528, 0.015896, 0.043368,1, 0.000162,-0.000458, 0.000167,1,-0.135163, 0.165896, 9.804315,1,0
1778109209230,  1236.811,  1236.810, 0.014512,-0.015020,-0.997286, 0.000029,-0.000030,-0.001995, 0.007170, 0.018613, 0.024283,1, 0.000956,-0.000153,-0.000134,1,-0.135139, 0.165917, 9.804315,1,0
1778109209241,  1236.815,  1236.815, 0.015183,-0.014861,-0.995512, 0.000030,-0.000030,-0.001991, 0.013757, 0.020207, 0.041682,1, 0.000462,-0.000445, 0.000271,1,-0.135135, 0.165944, 9.804315,1,0
1778109209252,  1236.820,  1236.819, 0.015113,-0.014010,-0.994769, 0.000030,-0.000028,-0.001989, 0.016619, 0.022246, 0.050467,1, 0.000272, 0.000148,-0.000114,1,-0.135132, 0.165978, 9.804314,1,0
1778109209263,  1236.871,  1236.871, 0.010758,-0.020926,-0.994781, 0.000022,-0.000042,-0.001989,-0.029333,-0.039174, 0.048849,1,-0.001187,-0.001114, 0.000314,1,-0.134824, 0.166028, 9.804317,1,0
1778109209273,  1236.876,  1236.875, 0.009956,-0.018859,-0.995004, 0.000020,-0.000038,-0.001990,-0.033052,-0.025837, 0.051870,1,-0.000132,-0.001383, 0.000956,1,-0.134776, 0.166029, 9.804318,1,0
1778109209284,  1236.880,  1236.879, 0.010731,-0.018385,-0.994995, 0.000021,-0.000036,-0.001990,-0.038838,-0.015141, 0.038398,1,-0.001311,-0.000239, 0.002060,1,-0.134749, 0.165989, 9.804319,1,0
1778109209295,  1236.885,  1236.885, 0.011847,-0.016053,-0.995049, 0.000024,-0.000032,-0.001990,-0.018585, 0.008547, 0.046222,1,-0.000844, 0.000434, 0.000559,1,-0.134764, 0.165973, 9.804319,1,0
1778109209306,  1236.889,  1236.889, 0.011873,-0.015479,-0.993798, 0.000024,-0.000031,-0.001987,-0.018413, 0.014171, 0.058492,1, 0.000237, 0.002542, 0.000651,1,-0.134859, 0.165967, 9.804318,1,0
1778109209316,  1236.894,  1236.893, 0.013306,-0.012983,-0.995478, 0.000027,-0.000026,-0.001991,-0.007023, 0.032181, 0.048769,1,-0.000968, 0.001758, 0.000555,1,-0.134947, 0.165953, 9.804317,1,0
1778109209327,  1236.899,  1236.899, 0.012662,-0.013609,-0.997496, 0.000025,-0.000027,-0.001995,-0.010784, 0.032546, 0.022218,1, 0.002084, 0.001136,-0.000233,1,-0.134965, 0.166018, 9.804316,1,0
1778109209338,  1236.904,  1236.903, 0.014267,-0.013583,-0.995877, 0.000029,-0.000027,-0.001992, 0.009033, 0.036199, 0.029672,1, 0.000027, 0.000810,-0.000689,1,-0.135019, 0.166038, 9.804315,1,0
1778109209349,  1236.908,  1236.907, 0.014103,-0.013288,-0.997311, 0.000028,-0.000026,-0.001995, 0.000266, 0.037894, 0.031500,1, 0.000014,-0.000925,-0.000521,1,-0.134975, 0.166030, 9.804316,1,0
1778109209360,  1236.913,  1236.913, 0.013958,-0.012645,-0.997030, 0.000028,-0.000025,-0.001994, 0.001898, 0.041973, 0.026786,1,-0.001475,-0.000491,-0.001615,1,-0.134985, 0.165972, 9.804317,1,0
1778109209370,  1236.918,  1236.917, 0.015256,-0.014271,-0.995627, 0.000030,-0.000028,-0.001991,-0.015445, 0.019802, 0.052688,1,-0.000863, 0.000463,-0.000587,1,-0.134975, 0.165911, 9.804317,1,0
1778109209381,  1236.922,  1236.921, 0.014641,-0.014892,-0.992898, 0.000029,-0.000030,-0.001986, 0.022000, 0.013026, 0.065800,1,-0.000434,-0.000102,-0.001114,1,-0.134975, 0.165889, 9.804317,1,0
1778109209392,  1236.927,  1236.927, 0.015027,-0.013725,-0.995678, 0.000030,-0.000027,-0.001991, 0.012441, 0.031251, 0.040051,1,-0.000507,-0.001056,-0.001474,1,-0.134914, 0.165845, 9.804319,1,0
1778109209403,  1236.932,  1236.931, 0.013956,-0.018478,-0.994433, 0.000028,-0.000037,-0.001989, 0.015277,-0.006407, 0.037270,1, 0.001106,-0.000430,-0.000761,1,-0.134914, 0.165876, 9.804318,1,0
1778109209413,  1236.936,  1236.935, 0.015943,-0.019153,-0.993236, 0.000032,-0.000038,-0.001986, 0.019446,-0.022312, 0.061920,1, 0.000263, 0.000170,-0.001018,1,-0.134919, 0.165901, 9.804318,1,0
1778109209424,  1236.941,  1236.941, 0.016199,-0.019582,-0.996688, 0.000033,-0.000039,-0.001993, 0.023941,-0.026071, 0.030145,1, 0.000268, 0.000269,-0.000724,1,-0.134920, 0.165960, 9.804317,1,0
1778109209435,  1236.946,  1236.945, 0.016096,-0.020563,-0.997679, 0.000032,-0.000041,-0.001995, 0.027378,-0.033957, 0.008610,1,-0.000540,-0.000359,-0.001654,1,-0.134918, 0.165945, 9.804317,1,0
1778109209446,  1236.950,  1236.949, 0.018074,-0.020256,-0.995689, 0.000037,-0.000041,-0.001991, 0.032242,-0.041064, 0.029332,1,-0.000439,-0.000642,-0.000698,1,-0.134893, 0.165945, 9.804318,1,0
1778109209456,  1236.955,  1236.955, 0.016290,-0.020377,-0.995970, 0.000032,-0.000041,-0.001992, 0.024902,-0.033902, 0.037186,1,-0.000295,-0.000738, 0.000344,1,-0.134846, 0.165931, 9.804318,1,0
1778109209467,  1236.960,  1236.959, 0.016694,-0.020031,-0.995380, 0.000034,-0.000040,-0.001991, 0.042198,-0.025832, 0.026814,1, 0.000359,-0.000776, 0.000259,1,-0.134845, 0.165944, 9.804318,1,0
1778109209478,  1237.270,  1237.269, 0.015888,-0.016903,-0.995416, 0.000032,-0.000034,-0.001991, 0.024447,-0.033347, 0.056814,1, 0.000039, 0.000401, 0.000663,1,-0.134853, 0.165948, 9.804318,1,0
1778109209489,  1237.274,  1237.274, 0.016073,-0.017137,-0.995298, 0.000032,-0.000034,-0.001991, 0.022482,-0.002230, 0.043781,1,-0.000150,-0.000921,-0.000425,1,-0.135133, 0.165825, 9.804317,1,0
1778109209499,  1237.279,  1237.279, 0.015603,-0.017242,-0.995143, 0.000031,-0.000034,-0.001990, 0.017904,-0.003262, 0.045299,1, 0.000593,-0.000728,-0.001048,1,-0.135110, 0.165828, 9.804317,1,0
1778109209510,  1237.284,  1237.283, 0.015433,-0.019261,-0.993219, 0.000031,-0.000039,-0.001986, 0.018269,-0.014348, 0.058524,1, 0.000928, 0.000826,-0.002437,1,-0.135141, 0.165866, 9.804316,1,0
1778109209521,  1237.289,  1237.288, 0.015491,-0.019199,-0.994023, 0.000031,-0.000038,-0.001988, 0.016735,-0.022391, 0.056283,1, 0.000502, 0.000579,-0.000566,1,-0.135179, 0.165888, 9.804315,1,0
1778109209532,  1237.293,  1237.293, 0.015620,-0.020147,-0.995615, 0.000031,-0.000040,-0.001991, 0.017962,-0.031686, 0.040668,1, 0.000337, 0.000845,-0.000229,1,-0.135219, 0.165895, 9.804315,1,0
1778109209543,  1237.298,  1237.297, 0.015456,-0.020971,-0.996625, 0.000031,-0.000042,-0.001993, 0.016539,-0.038627, 0.030133,1, 0.000174, 0.001333,-0.001413,1,-0.135256, 0.165895, 9.804314,1,0
1778109209553,  1237.303,  1237.302, 0.015393,-0.019923,-0.996819, 0.000031,-0.000040,-0.001994, 0.015680,-0.029478, 0.028856,1,-0.000561, 0.000163, 0.000137,1,-0.135272, 0.165897, 9.804314,1,0
1778109209564,  1237.307,  1237.307, 0.015236,-0.020750,-0.997435, 0.000031,-0.000042,-0.001995, 0.014146,-0.037607, 0.022820,1,-0.000223,-0.000474,-0.000137,1,-0.135261, 0.165880, 9.804314,1,0
1778109209575,  1237.312,  1237.311, 0.013866,-0.018781,-0.996813, 0.000028,-0.000037,-0.001994, 0.003569,-0.021377, 0.023440,1,-0.001138,-0.000712, 0.000553,1,-0.135242, 0.165840, 9.804315,1,0
1778109209586,  1237.317,  1237.316, 0.014180,-0.018416,-0.994932, 0.000029,-0.000037,-0.001990, 0.003789,-0.014839, 0.047370,1,-0.001816, 0.000090, 0.000155,1,-0.135267, 0.165744, 9.804317,1,0
1778109209596,  1237.321,  1237.321, 0.014448,-0.017346,-0.993638, 0.000029,-0.000035,-0.001987, 0.006441,-0.004383, 0.060057,1, 0.000121,-0.000810, 0.000480,1,-0.135244, 0.165720, 9.804317,1,0
1778109209607,  1237.326,  1237.325, 0.014844,-0.016145,-0.994437, 0.000030,-0.000032,-0.001989, 0.009534, 0.001336, 0.054623,1,-0.001145,-0.000157, 0.000695,1,-0.135241, 0.165686, 9.804317,1,0
1778109209618,  1237.331,  1237.330, 0.013904,-0.016699,-0.995572, 0.000028,-0.000033,-0.001991, 0.001072, 0.001964, 0.041094,1, 0.000955, 0.000953, 0.000018,1,-0.135282, 0.165726, 9.804317,1,0
1778109209629,  1237.335,  1237.335, 0.015196,-0.016929,-0.995259, 0.000031,-0.000034,-0.001990, 0.013727,-0.000246, 0.044162,1, 0.000882, 0.001169, 0.000697,1,-0.135302, 0.165774, 9.804316,1,0
1778109209639,  1237.340,  1237.339, 0.014666,-0.016427,-0.996512, 0.000029,-0.000033,-0.001993, 0.008642, 0.005661, 0.038706,1,-0.000829, 0.000226, 0.001564,1,-0.135306, 0.165744, 9.804316,1,0
1778109209650,  1237.345,  1237.344, 0.014904,-0.015268,-0.997221, 0.000030,-0.000030,-0.001994, 0.010817, 0.016007, 0.024914,1,-0.000560, 0.000134, 0.001251,1,-0.135342, 0.165728, 9.804316,1,0
1778109209661,  1237.349,  1237.349, 0.014564,-0.015133,-0.996785, 0.000029,-0.000030,-0.001993, 0.007491, 0.017327, 0.029193,1, 0.000496,-0.000153, 0.000687,1,-0.135334, 0.165739, 9.804316,1,0
1778109209672,  1237.354,  1237.353, 0.015078,-0.015866,-0.997134, 0.000030,-0.000032,-0.001994, 0.014640, 0.006282, 0.023274,1, 0.001019, 0.000321, 0.000765,1,-0.135348, 0.165772, 9.804315,1,0
1778109209682,  1237.359,  1237.359, 0.014589,-0.015915,-0.995482, 0.000029,-0.000032,-0.001991, 0.007737, 0.009607, 0.041969,1,-0.001633,-0.000108, 0.001034,1,-0.135327, 0.165675, 9.804317,1,0
1778109209693,  1237.363,  1237.363, 0.014908,-0.014963,-0.995051, 0.000030,-0.000030,-0.001990, 0.010879, 0.018913, 0.046204,1,-0.001101,-0.000453, 0.000094,1,-0.135316, 0.165639, 9.804317,1,0
1778109209704,  1237.368,  1237.367, 0.014437,-0.015237,-0.994226, 0.000029,-0.000030,-0.001989, 0.006006, 0.016704, 0.045649,1,-0.000168,-0.001088, 0.000886,1,-0.135271, 0.165623, 9.804318,1,0
1778109209715,  1237.373,  1237.373, 0.014194,-0.015804,-0.994484, 0.000028,-0.000032,-0.001989, 0.003921, 0.010664, 0.051758,1,-0.000321, 0.000359,-0.000042,1,-0.135273, 0.165642, 9.804317,1,0
1778109209726,  1237.378,  1237.377, 0.013260,-0.015968,-0.996143, 0.000026,-0.000032,-0.001993,-0.003667, 0.007488, 0.046150,1, 0.000507, 0.001327,-0.000342,1,-0.135307, 0.165654, 9.804317,1,0
1778109209736,  1237.382,  1237.381, 0.013723,-0.015997,-0.996545, 0.000027,-0.000032,-0.001993,-0.002599, 0.006395, 0.031475,1,-0.000180, 0.000980, 0.001042,1,-0.135351, 0.165668, 9.804317,1,0
1778109209747,  1237.387,  1237.387, 0.013611,-0.016523,-0.995762, 0.000027,-0.000033,-0.001991,-0.001889, 0.003676, 0.039223,1, 0.001491,-0.000212, 0.000115,1,-0.135367, 0.165720, 9.804316,1,0
1778109209758,  1237.392,  1237.391, 0.013872,-0.017050,-0.997003, 0.000028,-0.000034,-0.001994, 0.005539,-0.001962, 0.029431,1,-0.000127, 0.000140,-0.000085,1,-0.135382, 0.165727, 9.804315,1,0
1778109209769,  1237.396,  1237.395, 0.012759,-0.017495,-0.997212, 0.000025,-0.000035,-0.001995,-0.010117,-0.000685, 0.031628,1,-0.000237,-0.000858, 0.000081,1,-0.135288, 0.165606, 9.804318,1,0
1778109209779,  1237.401,  1237.401, 0.012957,-0.016892,-0.996134, 0.000026,-0.000034,-0.001992,-0.008179,-0.000077, 0.035579,1,-0.000784,-0.001212,-0.000094,1,-0.135233, 0.165570, 9.804319,1,0
1778109209790,  1237.406,  1237.405, 0.012399,-0.017333,-0.995256, 0.000025,-0.000035,-0.001990,-0.017346,-0.005676, 0.043411,1,-0.000985, 0.000294, 0.000590,1,-0.135227, 0.165566, 9.804319,1,0
1778109209801,  1237.410,  1237.409, 0.012428,-0.018037,-0.995474, 0.000025,-0.000036,-0.001991,-0.011542,-0.006963, 0.034723,1,-0.000896,-0.000433, 0.000205,1,-0.135217, 0.165540, 9.804320,1,0
1778109209812,  1237.415,  1237.415, 0.012167,-0.017622,-0.994963, 0.000025,-0.000035,-0.001990,-0.015901,-0.007298, 0.047068,1,-0.001251, 0.000167, 0.000584,1,-0.135222, 0.165508, 9.804320,1,0
1778109209822,  1237.420,  1237.419, 0.011591,-0.017721,-0.994941, 0.000023,-0.000035,-0.001990,-0.023558,-0.009273, 0.050385,1, 0.000555, 0.000193, 0.000193,1,-0.135224, 0.165524, 9.804320,1,0
1778109209833,  1237.424,  1237.423, 0.011497,-0.017365,-0.995020, 0.000023,-0.000035,-0.001990,-0.022346,-0.000922, 0.051429,1,-0.000325, 0.001270,-0.000102,1,-0.135242, 0.165497, 9.804320,1,0
1778109209844,  1237.429,  1237.429, 0.012188,-0.017703,-0.996482, 0.000024,-0.000035,-0.001993,-0.015702,-0.008087, 0.032173,1, 0.001547, 0.000113, 0.000162,1,-0.135226, 0.165534, 9.804320,1,0
1778109209855,  1237.434,  1237.433, 0.012339,-0.017474,-0.996538, 0.000024,-0.000035,-0.001993,-0.010843,-0.004636, 0.025316,1, 0.000656, 0.000472,-0.000138,1,-0.135247, 0.165563, 9.804319,1,0
1778109209865,  1237.438,  1237.437, 0.012730,-0.018364,-0.995579, 0.000026,-0.000037,-0.001991,-0.009298,-0.005693, 0.036172,1, 0.000992, 0.000181, 0.000378,1,-0.135262, 0.165609, 9.804318,1,0
1778109209876,  1237.443,  1237.442, 0.012786,-0.016958,-0.996316, 0.000026,-0.000034,-0.001993,-0.009863,-0.000714, 0.033800,1,-0.000592, 0.000218, 0.000028,1,-0.135253, 0.165579, 9.804319,1,0
1778109209887,  1237.494,  1237.494, 0.014899,-0.015114,-0.995645, 0.000030,-0.000030,-0.001991, 0.010739, 0.017196, 0.040375,1, 0.000189,-0.000408,-0.000901,1,-0.135369, 0.165412, 9.804320,1,0
1778109209898,  1237.499,  1237.499, 0.015300,-0.016074,-0.996024, 0.000031,-0.000032,-0.001992, 0.014662, 0.007791, 0.036660,1, 0.000371, 0.000615,-0.000374,1,-0.135381, 0.165425, 9.804320,1,0
1778109209908,  1237.504,  1237.503, 0.015384,-0.016748,-0.995051, 0.000031,-0.000034,-0.001990, 0.011696, 0.011086, 0.040705,1,-0.000126, 0.000258,-0.001101,1,-0.135392, 0.165430, 9.804319,1,0
1778109209919,  1237.508,  1237.508, 0.015037,-0.016503,-0.994810, 0.000030,-0.000033,-0.001990, 0.012109, 0.003598, 0.048561,1,-0.000430,-0.001422,-0.000512,1,-0.135344, 0.165435, 9.804320,1,0
1778109209930,  1237.513,  1237.513, 0.015037,-0.016786,-0.996164, 0.000030,-0.000033,-0.001993, 0.012120, 0.000787, 0.035291,1,-0.000224, 0.000474,-0.000277,1,-0.135349, 0.165402, 9.804321,1,0
1778109209941,  1237.518,  1237.517, 0.014762,-0.017989,-0.995167, 0.000029,-0.000036,-0.001990, 0.014042,-0.013046, 0.044059,1, 0.000473, 0.000794, 0.000076,1,-0.135380, 0.165412, 9.804320,1,0
1778109209952,  1237.522,  1237.522, 0.014296,-0.017343,-0.995731, 0.000029,-0.000035,-0.001992, 0.004805,-0.004633, 0.039529,1, 0.000870, 0.000929,-0.000158,1,-0.135397, 0.165453, 9.804319,1,0
1778109209962,  1237.527,  1237.527, 0.013512,-0.018049,-0.996963, 0.000027,-0.000036,-0.001994,-0.002883,-0.011575, 0.027455,1,-0.000340,-0.000814,-0.000725,1,-0.135385, 0.165424, 9.804320,1,0
1778109209973,  1237.532,  1237.531, 0.014346,-0.019392,-0.996604, 0.000029,-0.000039,-0.001993, 0.007728,-0.019360, 0.031037,1, 0.000738,-0.000636,-0.000790,1,-0.135351, 0.165452, 9.804320,1,0
1778109209984,  1237.537,  1237.536, 0.014434,-0.019542,-0.996520, 0.000029,-0.000039,-0.001993, 0.006207,-0.026187, 0.031800,1, 0.000167,-0.000902,-0.000450,1,-0.135336, 0.165457, 9.804320,1,0
1778109209995,  1237.541,  1237.541, 0.014186,-0.020368,-0.994486, 0.000028,-0.000041,-0.001989, 0.003803,-0.034313, 0.051739,1,-0.000763,-0.000232, 0.000332,1,-0.135317, 0.165427, 9.804321,1,0
1778109210005,  1237.546,  1237.545, 0.014036,-0.020397,-0.994673, 0.000028,-0.000041,-0.001989, 0.005881,-0.032974, 0.046409,1,-0.000057,-0.000254, 0.000212,1,-0.135314, 0.165403, 9.804321,1,0
1778109210016,  1237.551,  1237.550, 0.015525,-0.020445,-0.996240, 0.000031,-0.000041,-0.001993, 0.016968,-0.035088, 0.034540,1, 0.001070,-0.000697, 0.000476,1,-0.135278, 0.165419, 9.804321,1,0
1778109210027,  1237.555,  1237.555, 0.015272,-0.020998,-0.995471, 0.000030,-0.000042,-0.001991, 0.014526,-0.040493, 0.042085,1, 0.000475,-0.001633, 0.001704,1,-0.135231, 0.165426, 9.804322,1,0
1778109210038,  1237.560,  1237.559, 0.015908,-0.018241,-0.994773, 0.000032,-0.000036,-0.001990, 0.019358,-0.012302, 0.061689,1, 0.000739,-0.000650, 0.001287,1,-0.135193, 0.165458, 9.804322,1,0
1778109210048,  1237.565,  1237.564, 0.014379,-0.017880,-0.996432, 0.000029,-0.000036,-0.001993, 0.005821,-0.009868, 0.032656,1,-0.000277, 0.000130, 0.000789,1,-0.135189, 0.165469, 9.804322,1,0
1778109210059,  1237.569,  1237.569, 0.015293,-0.016458,-0.996512, 0.000031,-0.000033,-0.001993, 0.014769, 0.004100, 0.031876,1, 0.001437,-0.000138, 0.000845,1,-0.135206, 0.165509, 9.804321,1,0
1778109210070,  1237.574,  1237.573, 0.013105,-0.014799,-0.996738, 0.000026,-0.000030,-0.001993, 0.007485, 0.002628, 0.043715,1, 0.000614, 0.000025, 0.001767,1,-0.135193, 0.165543, 9.804320,1,0
1778109210081,  1237.579,  1237.578, 0.013334,-0.014947,-0.998601, 0.000027,-0.000030,-0.001997,-0.004496, 0.018948, 0.011384,1,-0.000509, 0.000868, 0.001107,1,-0.135261, 0.165525, 9.804320,1,0
1778109210091,  1237.583,  1237.583, 0.013614,-0.014939,-0.997919, 0.000027,-0.000030,-0.001996,-0.001751, 0.019026, 0.018078,1, 0.000441,-0.000588, 0.001568,1,-0.135251, 0.165528, 9.804320,1,0
1778109210102,  1237.893,  1237.893, 0.011674,-0.018293,-0.994028, 0.000023,-0.000036,-0.001988,-0.020855,-0.013639, 0.056233,1,-0.000003, 0.001445, 0.001341,1,-0.135348, 0.165756, 9.804315,1,0
1778109210113,  1237.898,  1237.897, 0.012061,-0.018408,-0.997814, 0.000024,-0.000037,-0.001996,-0.016487,-0.020438, 0.029940,1, 0.000799, 0.002169, 0.000209,1,-0.135437, 0.165777, 9.804314,1,0
1778109210124,  1237.902,  1237.901, 0.012560,-0.018108,-0.999236, 0.000025,-0.000036,-0.001999,-0.015790,-0.015209, 0.008799,1, 0.000168, 0.001400, 0.001540,1,-0.135475, 0.165790, 9.804313,1,0
1778109210135,  1237.907,  1237.907, 0.012982,-0.017323,-0.998202, 0.000026,-0.000034,-0.001997,-0.008198,-0.004077, 0.015290,1,-0.000497,-0.000066, 0.000816,1,-0.135506, 0.165801, 9.804312,1,0
1778109210145,  1237.912,  1237.911, 0.012544,-0.015389,-0.996418, 0.000025,-0.000031,-0.001993,-0.011821, 0.016171, 0.035904,1,-0.001782, 0.000723, 0.001438,1,-0.135529, 0.165755, 9.804313,1,0
1778109210156,  1237.916,  1237.915, 0.012379,-0.014111,-0.994789, 0.000025,-0.000028,-0.001990,-0.011553, 0.019457, 0.040723,1,-0.001203,-0.000073, 0.001413,1,-0.135526, 0.165721, 9.804313,1,0
1778109210167,  1237.921,  1237.921, 0.013676,-0.013190,-0.993712, 0.000028,-0.000026,-0.001987,-0.001387, 0.036327, 0.059323,1,-0.001014,-0.000126, 0.001139,1,-0.135505, 0.165670, 9.804315,1,0
1778109210178,  1237.926,  1237.925, 0.013597,-0.013076,-0.992477, 0.000027,-0.000026,-0.001985,-0.004207, 0.040656, 0.063974,1,-0.000427,-0.000776, 0.000912,1,-0.135480, 0.165642, 9.804315,1,0
1778109210188,  1237.930,  1237.930, 0.013662,-0.014470,-0.994209, 0.000027,-0.000029,-0.001988,-0.001527, 0.023720, 0.054453,1,-0.000715,-0.000123,-0.000017,1,-0.135500, 0.165621, 9.804315,1,0
1778109210199,  1237.935,  1237.935, 0.014030,-0.014004,-0.995355, 0.000028,-0.000028,-0.001991, 0.002063, 0.028264, 0.043220,1, 0.000154, 0.000698, 0.000535,1,-0.135529, 0.165602, 9.804315,1,0
1778109210210,  1237.940,  1237.939, 0.015708,-0.014262,-0.997145, 0.000031,-0.000029,-0.001994, 0.021324, 0.027492, 0.034210,1, 0.000179, 0.000684,-0.001148,1,-0.135572, 0.165636, 9.804314,1,0
1778109210221,  1237.944,  1237.944, 0.015012,-0.014867,-0.998474, 0.000030,-0.000030,-0.001997, 0.011617, 0.019893, 0.012631,1, 0.001154, 0.001390,-0.000080,1,-0.135610, 0.165694, 9.804313,1,0
1778109210231,  1237.949,  1237.949, 0.015660,-0.014742,-0.997491, 0.000031,-0.000029,-0.001995, 0.017935, 0.021124, 0.022261,1, 0.000547, 0.000402,-0.000608,1,-0.135637, 0.165701, 9.804312,1,0
1778109210242,  1237.954,  1237.953, 0.015221,-0.013869,-0.996442, 0.000030,-0.000027,-0.001993, 0.018869, 0.025464, 0.029578,1, 0.001526,-0.000116,-0.000553,1,-0.135653, 0.165768, 9.804311,1,0
1778109210253,  1237.958,  1237.958, 0.015667,-0.014510,-0.995569, 0.000031,-0.000029,-0.001991, 0.018027, 0.023514, 0.041114,1, 0.001427,-0.000129,-0.000994,1,-0.135613, 0.165822, 9.804310,1,0
1778109210264,  1237.963,  1237.963, 0.014798,-0.014718,-0.995026, 0.000030,-0.000030,-0.001990, 0.009535, 0.021460, 0.046439,1,-0.001105,-0.001420,-0.001424,1,-0.135571, 0.165783, 9.804312,1,0
1778109210274,  1237.968,  1237.967, 0.015419,-0.015815,-0.995246, 0.000031,-0.000032,-0.001991, 0.013007, 0.019390, 0.045649,1,-0.000552,-0.000437,-0.001399,1,-0.135562, 0.165765, 9.804312,1,0
1778109210285,  1237.972,  1237.972, 0.014305,-0.016489,-0.995114, 0.000029,-0.000033,-0.001990, 0.004758, 0.004029, 0.045579,1,-0.000932,-0.000013,-0.001537,1,-0.135531, 0.165725, 9.804313,1,0
1778109210296,  1237.977,  1237.977, 0.014315,-0.017425,-0.995421, 0.000029,-0.000035,-0.001991, 0.004879,-0.005153, 0.042568,1, 0.000300,-0.001261,-0.000570,1,-0.135497, 0.165726, 9.804314,1,0
1778109210307,  1237.982,  1237.981, 0.015190,-0.018489,-0.995541, 0.000030,-0.000037,-0.001991, 0.009488,-0.011136, 0.042679,1,-0.000050,-0.000068,-0.001085,1,-0.135489, 0.165736, 9.804314,1,0
1778109210317,  1237.986,  1237.986, 0.013686,-0.019449,-0.996299, 0.000027,-0.000039,-0.001993,-0.001283,-0.024943, 0.033951,1, 0.001140,-0.000428,-0.000513,1,-0.135491, 0.165796, 9.804312,1,0
1778109210328,  1237.991,  1237.991, 0.013996,-0.019348,-0.995802, 0.000028,-0.000039,-0.001991, 0.001752,-0.023902, 0.038830,1, 0.001774, 0.000629,-0.000921,1,-0.135505, 0.165847, 9.804311,1,0
1778109210339,  1237.996,  1237.995, 0.013249,-0.020254,-0.995735, 0.000027,-0.000041,-0.001992,-0.003118,-0.028467, 0.040196,1, 0.000652,-0.000310,-0.000292,1,-0.135672, 0.165700, 9.804312,1,0
1778109210350,  1238.001,  1238.000, 0.013333,-0.020208,-0.995801, 0.000027,-0.000040,-0.001992,-0.004922,-0.032471, 0.038841,1, 0.000849, 0.000081,-0.001823,1,-0.135677, 0.165712, 9.804311,1,0
1778109210361,  1238.005,  1238.005, 0.012672,-0.020938,-0.995034, 0.000025,-0.000042,-0.001990,-0.011405,-0.039626, 0.046359,1,-0.000381,-0.000462,-0.000592,1,-0.135667, 0.165704, 9.804312,1,0
1778109210371,  1238.010,  1238.009, 0.013611,-0.020714,-0.995856, 0.000027,-0.000041,-0.001992, 0.003755,-0.034703, 0.037977,1, 0.000594, 0.000176,-0.000432,1,-0.135673, 0.165733, 9.804311,1,0
1778109210382,  1238.015,  1238.014, 0.013433,-0.020692,-0.996238, 0.000027,-0.000041,-0.001993,-0.003904,-0.037195, 0.034551,1,-0.000560,-0.000668, 0.000386,1,-0.135632, 0.165724, 9.804312,1,0
1778109210393,  1238.019,  1238.019, 0.012871,-0.020168,-0.996180, 0.000026,-0.000040,-0.001993,-0.009392,-0.032063, 0.035125,1, 0.000126,-0.001006,-0.000246,1,-0.135612, 0.165717, 9.804312,1,0
1778109210404,  1238.024,  1238.023, 0.013152,-0.020561,-0.995649, 0.000026,-0.000041,-0.001991,-0.003592,-0.034353, 0.040110,1, 0.001546,-0.000730, 0.000907,1,-0.135563, 0.165743, 9.804312,1,0
1778109210414,  1238.029,  1238.028, 0.013051,-0.019799,-0.994872, 0.000026,-0.000040,-0.001990,-0.007588,-0.028430, 0.047948,1,-0.000976, 0.001204, 0.000110,1,-0.135581, 0.165726, 9.804312,1,0
1778109210425,  1238.033,  1238.033, 0.012908,-0.019064,-0.994861, 0.000026,-0.000038,-0.001990,-0.009006,-0.021247, 0.048061,1,-0.000799, 0.000363, 0.000845,1,-0.135589, 0.165704, 9.804313,1,0
1778109210436,  1238.038,  1238.037, 0.013034,-0.018565,-0.995203, 0.000026,-0.000037,-0.001990,-0.002378,-0.017401, 0.038482,1, 0.001155, 0.000464, 0.001875,1,-0.135590, 0.165754, 9.804312,1,0
1778109210447,  1238.043,  1238.042, 0.013454,-0.017234,-0.995559, 0.000027,-0.000034,-0.001991,-0.003691,-0.003250, 0.041215,1, 0.000741, 0.000184, 0.002003,1,-0.135633, 0.165761, 9.804311,1,0
1778109210457,  1238.047,  1238.047, 0.013668,-0.016332,-0.995388, 0.000027,-0.000033,-0.001991,-0.001600, 0.005598, 0.042886,1, 0.000264, 0.000653, 0.000959,1,-0.135641, 0.165760, 9.804311,1,0
1778109210468,  1238.052,  1238.051, 0.013740,-0.015527,-0.996286, 0.000028,-0.000031,-0.001992, 0.002092, 0.006411, 0.034526,1,-0.000394,-0.001128, 0.001812,1,-0.135610, 0.165763, 9.804311,1,0
1778109210479,  1238.057,  1238.055, 0.013995,-0.014713,-0.995583, 0.000028,-0.000029,-0.001991, 0.001137, 0.020822, 0.033418,1, 0.000667,-0.000170, 0.000409,1,-0.135615, 0.165787, 9.804311,1,0
1778109210490,  1238.061,  1238.061, 0.014716,-0.014627,-0.995617, 0.000030,-0.000029,-0.001991, 0.008679, 0.022315, 0.040639,1,-0.000319, 0.000476, 0.000651,1,-0.135639, 0.165751, 9.804311,1,0
1778109210500,  1238.114,  1238.113, 0.013256,-0.017190,-0.993438, 0.000027,-0.000035,-0.001987, 0.006435, 0.030491, 0.045065,1,-0.001608, 0.000377, 0.000820,1,-0.135640, 0.165700, 9.804312,1,0
1778109210511,  1238.118,  1238.117, 0.012978,-0.016753,-0.996186, 0.000026,-0.000034,-0.001993,-0.006187,-0.001119, 0.046303,1, 0.000880, 0.001310,-0.000178,1,-0.135688, 0.165765, 9.804310,1,0
1778109210522,  1238.123,  1238.123, 0.014180,-0.017679,-0.995893, 0.000029,-0.000035,-0.001992, 0.003336,-0.007587, 0.037937,1, 0.000735,-0.000434,-0.001624,1,-0.135721, 0.165794, 9.804309,1,0
1778109210533,  1238.128,  1238.127, 0.013156,-0.018440,-0.995494, 0.000026,-0.000037,-0.001991,-0.003050,-0.013523, 0.036036,1,-0.000467,-0.000189,-0.001571,1,-0.135707, 0.165832, 9.804309,1,0
1778109210544,  1238.132,  1238.131, 0.013832,-0.019405,-0.997484, 0.000028,-0.000039,-0.001995,-0.005741,-0.016741, 0.036952,1, 0.000763,-0.000445,-0.000581,1,-0.135705, 0.165856, 9.804308,1,0
1778109210554,  1238.137,  1238.137, 0.014960,-0.018567,-0.997020, 0.000030,-0.000037,-0.001994, 0.011041,-0.016177, 0.026882,1, 0.001190,-0.000380,-0.000694,1,-0.135665, 0.165907, 9.804308,1,0
1778109210565,  1238.142,  1238.141, 0.014806,-0.019754,-0.995034, 0.000030,-0.000040,-0.001990, 0.006884,-0.023002, 0.044133,1, 0.000497, 0.000418,-0.000262,1,-0.135680, 0.165904, 9.804308,1,0
1778109210576,  1238.146,  1238.145, 0.015048,-0.019589,-0.995012, 0.000030,-0.000039,-0.001990, 0.012743,-0.025234, 0.046340,1,-0.000614,-0.000674, 0.000320,1,-0.135644, 0.165912, 9.804308,1,0
1778109210587,  1238.151,  1238.151, 0.015201,-0.019453,-0.996301, 0.000031,-0.000039,-0.001993, 0.013431,-0.024858, 0.033933,1, 0.000896, 0.000260,-0.000527,1,-0.135644, 0.165920, 9.804308,1,0
1778109210597,  1238.155,  1238.155, 0.015710,-0.018693,-0.995365, 0.000031,-0.000037,-0.001991, 0.018393,-0.017363, 0.043113,1, 0.000968, 0.000636,-0.000484,1,-0.135673, 0.165954, 9.804307,1,0
1778109210608,  1238.160,  1238.160, 0.015980,-0.019694,-0.995833, 0.000032,-0.000039,-0.001992, 0.021075,-0.027166, 0.038517,1, 0.000617,-0.000591, 0.000074,1,-0.135630, 0.165973, 9.804307,1,0
1778109210619,  1238.165,  1238.165, 0.016047,-0.019816,-0.996531, 0.000032,-0.000040,-0.001993, 0.021772,-0.028360, 0.031673,1,-0.001219, 0.000397, 0.000449,1,-0.135595, 0.165961, 9.804308,1,0
1778109210630,  1238.170,  1238.169, 0.016315,-0.019541,-0.996134, 0.000033,-0.000039,-0.001992, 0.017472,-0.025585, 0.036167,1,-0.001149, 0.000318, 0.001386,1,-0.135618, 0.165919, 9.804308,1,0
1778109210640,  1238.174,  1238.174, 0.017268,-0.019441,-0.996629, 0.000035,-0.000039,-0.001993, 0.033752,-0.024736, 0.030713,1, 0.000010,-0.000326, 0.000357,1,-0.135590, 0.165916, 9.804309,1,0
1778109210651,  1238.179,  1238.179, 0.016581,-0.019101,-0.996812, 0.000033,-0.000038,-0.001994, 0.026997,-0.021384, 0.028926,1, 0.000162, 0.000697, 0.000900,1,-0.135608, 0.165937, 9.804308,1,0
1778109210662,  1238.184,  1238.183, 0.016562,-0.017968,-0.995993, 0.000033,-0.000036,-0.001992, 0.024727,-0.008195, 0.039246,1,-0.000753,-0.000576, 0.001444,1,-0.135592, 0.165910, 9.804309,1,0
1778109210673,  1238.188,  1238.188, 0.016326,-0.017414,-0.996630, 0.000033,-0.000035,-0.001993, 0.024525,-0.004918, 0.030709,1,-0.000249, 0.000372, 0.002032,1,-0.135585, 0.165855, 9.804310,1,0
1778109210683,  1238.193,  1238.193, 0.015722,-0.016800,-0.994779, 0.000031,-0.000033,-0.001989, 0.018528, 0.001230, 0.048858,1,-0.000949, 0.000027,-0.000138,1,-0.135688, 0.166086, 9.804304,1,0
1778109210694,  1238.198,  1238.197, 0.015886,-0.015998,-0.994889, 0.000032,-0.000032,-0.001990, 0.019822, 0.000736, 0.037960,1, 0.000375, 0.000055,-0.000008,1,-0.135687, 0.166086, 9.804304,1,0
1778109210705,  1238.202,  1238.202, 0.015103,-0.015948,-0.995463, 0.000030,-0.000032,-0.001991, 0.012455, 0.009678, 0.042147,1,-0.000149, 0.000573, 0.001344,1,-0.135662, 0.166071, 9.804305,1,0
1778109210716,  1238.207,  1238.207, 0.014671,-0.016059,-0.995492, 0.000029,-0.000032,-0.001991, 0.008223, 0.008569, 0.041862,1, 0.000047,-0.000651, 0.001209,1,-0.135643, 0.166053, 9.804306,1,0
1778109210726,  1238.516,  1238.515, 0.013742,-0.019110,-0.996933, 0.000028,-0.000038,-0.001994,-0.004200,-0.020023, 0.009437,1,-0.002447,-0.000724, 0.001171,1,-0.135778, 0.165747, 9.804309,1,0
1778109210737,  1238.520,  1238.520, 0.011684,-0.019263,-0.993859, 0.000023,-0.000039,-0.001988,-0.021110,-0.023252, 0.057884,1,-0.001652,-0.001826, 0.000098,1,-0.135679, 0.165639, 9.804313,1,0
1778109210748,  1238.525,  1238.525, 0.011581,-0.019807,-0.992266, 0.000023,-0.000040,-0.001985,-0.022077,-0.028674, 0.073513,1,-0.001402, 0.000064, 0.001040,1,-0.135650, 0.165558, 9.804314,1,0
1778109210759,  1238.530,  1238.529, 0.011464,-0.016752,-0.992130, 0.000023,-0.000033,-0.001984,-0.021658,-0.005868, 0.071496,1, 0.000350, 0.000196, 0.000175,1,-0.135676, 0.165556, 9.804314,1,0
1778109210770,  1238.535,  1238.534, 0.011649,-0.016490,-0.993029, 0.000023,-0.000033,-0.001986,-0.021456, 0.003907, 0.066019,1, 0.001600, 0.000174, 0.000404,1,-0.135690, 0.165627, 9.804313,1,0
1778109210780,  1238.539,  1238.539, 0.012999,-0.016639,-0.993726, 0.000026,-0.000033,-0.001987,-0.008222, 0.002484, 0.059186,1, 0.001070, 0.000160,-0.000174,1,-0.135700, 0.165665, 9.804312,1,0
1778109210791,  1238.544,  1238.543, 0.012484,-0.014918,-0.997335, 0.000025,-0.000030,-0.001995,-0.017756, 0.021176, 0.039563,1, 0.001018, 0.001374, 0.000547,1,-0.135733, 0.165698, 9.804311,1,0
1778109210802,  1238.549,  1238.548, 0.013533,-0.014007,-0.997360, 0.000027,-0.000028,-0.001995,-0.003094, 0.028383, 0.023543,1, 0.001233, 0.001767, 0.000134,1,-0.135817, 0.165753, 9.804309,1,0
1778109210813,  1238.553,  1238.553, 0.014450,-0.014110,-0.998637, 0.000029,-0.000028,-0.001997, 0.005867, 0.027416, 0.011023,1, 0.000651, 0.001152,-0.000576,1,-0.135850, 0.165787, 9.804307,1,0
1778109210823,  1238.558,  1238.557, 0.014698,-0.014003,-0.997919, 0.000029,-0.000028,-0.001996, 0.007977, 0.023217, 0.018404,1, 0.000428, 0.000291,-0.000874,1,-0.135859, 0.165799, 9.804307,1,0
1778109210834,  1238.563,  1238.562, 0.014501,-0.014067,-0.997156, 0.000029,-0.000028,-0.001995, 0.006388, 0.027799, 0.025547,1,-0.002122,-0.001022,-0.000454,1,-0.135814, 0.165736, 9.804309,1,0
1778109210845,  1238.567,  1238.567, 0.014879,-0.014063,-0.995358, 0.000030,-0.000028,-0.001991, 0.010164, 0.027795, 0.043186,1,-0.000599,-0.001524,-0.001343,1,-0.135740, 0.165697, 9.804311,1,0
1778109210856,  1238.572,  1238.571, 0.013688,-0.016411,-0.993886, 0.000027,-0.000033,-0.001988,-0.001575, 0.006154, 0.065177,1, 0.000072,-0.001379, 0.000205,1,-0.135684, 0.165684, 9.804312,1,0
1778109210866,  1238.577,  1238.576, 0.013802,-0.016965,-0.994690, 0.000028,-0.000034,-0.001989,-0.000306,-0.000702, 0.049738,1,-0.001229,-0.000698,-0.000612,1,-0.135657, 0.165656, 9.804313,1,0
1778109210877,  1238.581,  1238.581, 0.013440,-0.017707,-0.994971, 0.000027,-0.000036,-0.001990,-0.003876,-0.008018, 0.046979,1,-0.000601, 0.001030,-0.000894,1,-0.135683, 0.165622, 9.804313,1,0
1778109210888,  1238.586,  1238.585, 0.013131,-0.018336,-0.993996, 0.000026,-0.000037,-0.001988,-0.005352,-0.017184, 0.062460,1, 0.000736, 0.000560,-0.000805,1,-0.135698, 0.165635, 9.804312,1,0
1778109210899,  1238.591,  1238.590, 0.012579,-0.020292,-0.995015, 0.000025,-0.000041,-0.001990,-0.012331,-0.033315, 0.046551,1, 0.001518, 0.000229,-0.000171,1,-0.135693, 0.165690, 9.804311,1,0
1778109210909,  1238.595,  1238.595, 0.012523,-0.019640,-0.996769, 0.000025,-0.000039,-0.001994,-0.012951,-0.026860, 0.029347,1, 0.001412, 0.001001,-0.000134,1,-0.135768, 0.165750, 9.804309,1,0
1778109210920,  1238.600,  1238.599, 0.012359,-0.017806,-0.997165, 0.000024,-0.000036,-0.001995,-0.015028,-0.009900, 0.031067,1, 0.000041,-0.000442,-0.000945,1,-0.135777, 0.165770, 9.804309,1,0
1778109210931,  1238.605,  1238.605, 0.012634,-0.018540,-0.996954, 0.000025,-0.000037,-0.001994,-0.011920,-0.016037, 0.027524,1, 0.000544, 0.001374,-0.000346,1,-0.135830, 0.165777, 9.804308,1,0
1778109210942,  1238.609,  1238.609, 0.012614,-0.018051,-0.996342, 0.000025,-0.000036,-0.001993,-0.012135,-0.011241, 0.033525,1,-0.000454,-0.000775, 0.000784,1,-0.135835, 0.165780, 9.804308,1,0
1778109210953,  1238.614,  1238.613, 0.012378,-0.017337,-0.995997, 0.000025,-0.000035,-0.001992,-0.014078,-0.008057, 0.040230,1, 0.000004,-0.000669, 0.001149,1,-0.135797, 0.165771, 9.804309,1,0
1778109210963,  1238.619,  1238.619, 0.012101,-0.016177,-0.995155, 0.000024,-0.000032,-0.001990,-0.017096, 0.007093, 0.045168,1,-0.000731,-0.000126,-0.000326,1,-0.135769, 0.165728, 9.804310,1,0
1778109210974,  1238.624,  1238.623, 0.013043,-0.016428,-0.993201, 0.000026,-0.000033,-0.001986,-0.014444, 0.005769, 0.060028,1, 0.000498, 0.000068, 0.000203,1,-0.135757, 0.165739, 9.804310,1,0
1778109210985,  1238.628,  1238.627, 0.012434,-0.016389,-0.993903, 0.000025,-0.000033,-0.001988,-0.007645, 0.004317, 0.064179,1,-0.000859, 0.000701, 0.000633,1,-0.135788, 0.165699, 9.804310,1,0
1778109210996,  1238.633,  1238.633, 0.012353,-0.016368,-0.995255, 0.000025,-0.000033,-0.001991,-0.014687, 0.005206, 0.044189,1, 0.000891, 0.001784, 0.000237,1,-0.135836, 0.165725, 9.804309,1,0
1778109211006,  1238.638,  1238.637, 0.012918,-0.014689,-0.996191, 0.000026,-0.000029,-0.001992,-0.009753, 0.018268, 0.040808,1, 0.000705, 0.001781,-0.000642,1,-0.135898, 0.165762, 9.804307,1,0
1778109211017,  1238.642,  1238.641, 0.013834,-0.015835,-0.996949, 0.000028,-0.000032,-0.001994,-0.007424, 0.013107, 0.028204,1, 0.001019, 0.000564, 0.000856,1,-0.135914, 0.165794, 9.804306,1,0
1778109211028,  1238.647,  1238.647, 0.013998,-0.016417,-0.997110, 0.000028,-0.000033,-0.001994, 0.001326, 0.004857, 0.025992,1, 0.001084, 0.000397,-0.000443,1,-0.135947, 0.165858, 9.804305,1,0
1778109211039,  1238.652,  1238.651, 0.014087,-0.015188,-0.997507, 0.000028,-0.000030,-0.001995, 0.004945, 0.011391, 0.019129,1,-0.000518,-0.000263, 0.000260,1,-0.135953, 0.165843, 9.804305,1,0
1778109211049,  1238.656,  1238.655, 0.014671,-0.016482,-0.996670, 0.000029,-0.000033,-0.001993, 0.004543, 0.012581, 0.032633,1,-0.000578, 0.000064,-0.000218,1,-0.135962, 0.165785, 9.804306,1,0
1778109211060,  1238.661,  1238.661, 0.014168,-0.015701,-0.995832, 0.000028,-0.000031,-0.001992, 0.002963, 0.011771, 0.038526,1,-0.000126, 0.000507,-0.000582,1,-0.135984, 0.165745, 9.804306,1,0
1778109211071,  1238.666,  1238.665, 0.014728,-0.016167,-0.994050, 0.000029,-0.000032,-0.001988, 0.008729, 0.003907, 0.041634,1,-0.000764,-0.001428, 0.000218,1,-0.135950, 0.165738, 9.804307,1,0
1778109211082,  1238.670,  1238.669, 0.014657,-0.016135,-0.993234, 0.000029,-0.000032,-0.001986, 0.011591, 0.009077, 0.066820,1,-0.000571, 0.000535, 0.000354,1,-0.135975, 0.165710, 9.804307,1,0
1778109211092,  1238.675,  1238.675, 0.015140,-0.016827,-0.993759, 0.000030,-0.000034,-0.001988, 0.012535, 0.000652, 0.058859,1, 0.000181,-0.000306,-0.000470,1,-0.135933, 0.165670, 9.804308,1,0
1778109211103,  1238.680,  1238.679, 0.015898,-0.016337,-0.995235, 0.000032,-0.000033,-0.001990, 0.015654, 0.003877, 0.049834,1, 0.000365, 0.000532, 0.000440,1,-0.135949, 0.165694, 9.804308,1,0
1778109211114,  1238.684,  1238.683, 0.015714,-0.016809,-0.996630, 0.000032,-0.000034,-0.001993, 0.013246, 0.008162, 0.035853,1, 0.000144, 0.001204, 0.000481,1,-0.135990, 0.165685, 9.804307,1,0
1778109211125,  1238.736,  1238.736, 0.013983,-0.018926,-0.996440, 0.000028,-0.000038,-0.001993, 0.001095,-0.019993, 0.032570,1, 0.000706, 0.000096, 0.000204,1,-0.136033, 0.165612, 9.804308,1,0
1778109211136,  1238.741,  1238.741, 0.013775,-0.018655,-0.996459, 0.000028,-0.000037,-0.001993,-0.000945,-0.017316, 0.032379,1,-0.000205,-0.000629, 0.000579,1,-0.136022, 0.165621, 9.804308,1,0
1778109211146,  1238.746,  1238.745, 0.013216,-0.018284,-0.995728, 0.000027,-0.000037,-0.001991,-0.003310,-0.008645, 0.032372,1,-0.000925,-0.000027, 0.000963,1,-0.135991, 0.165576, 9.804309,1,0
1778109211157,  1238.750,  1238.750, 0.013455,-0.017492,-0.994794, 0.000027,-0.000035,-0.001989,-0.004056,-0.005958, 0.048707,1,-0.000188,-0.000585, 0.000259,1,-0.135998, 0.165581, 9.804309,1,0
1778109211168,  1238.755,  1238.755, 0.012813,-0.017038,-0.995211, 0.000026,-0.000034,-0.001991,-0.010358,-0.001511, 0.044622,1,-0.000052, 0.000515, 0.001104,1,-0.136010, 0.165570, 9.804309,1,0
1778109211179,  1238.760,  1238.759, 0.012356,-0.016848,-0.994262, 0.000025,-0.000033,-0.001988,-0.014011,-0.001308, 0.061330,1, 0.000916, 0.000132, 0.001220,1,-0.136025, 0.165597, 9.804308,1,0
1778109211189,  1238.765,  1238.764, 0.013204,-0.015950,-0.994460, 0.000026,-0.000032,-0.001989,-0.006537, 0.009126, 0.051989,1,-0.001019, 0.000091, 0.000933,1,-0.136022, 0.165537, 9.804309,1,0
1778109211200,  1238.769,  1238.769, 0.013114,-0.015100,-0.995139, 0.000026,-0.000030,-0.001990,-0.007424, 0.017459, 0.045324,1, 0.000324, 0.000360, 0.001604,1,-0.136034, 0.165544, 9.804309,1,0
1778109211211,  1238.774,  1238.773, 0.013765,-0.014772,-0.994853, 0.000028,-0.000029,-0.001990,-0.009406, 0.018568, 0.047996,1, 0.001075, 0.000710, 0.000337,1,-0.136052, 0.165596, 9.804308,1,0
1778109211222,  1238.779,  1238.778, 0.013754,-0.014989,-0.995685, 0.000028,-0.000030,-0.001991,-0.001183, 0.018608, 0.039972,1, 0.000116, 0.000199, 0.000581,1,-0.136061, 0.165596, 9.804308,1,0
1778109211232,  1238.783,  1238.783, 0.014525,-0.014472,-0.996488, 0.000029,-0.000029,-0.001993, 0.006414, 0.023693, 0.032094,1, 0.000559,-0.001028,-0.000380,1,-0.136022, 0.165617, 9.804308,1,0
1778109211243,  1238.788,  1238.787, 0.015047,-0.014791,-0.996328, 0.000030,-0.000030,-0.001993, 0.004537, 0.024462, 0.037111,1,-0.000128,-0.000649, 0.000006,1,-0.136012, 0.165597, 9.804308,1,0
1778109211254,  1238.793,  1238.792, 0.014106,-0.014905,-0.997401, 0.000028,-0.000030,-0.001995, 0.002342, 0.019461, 0.023150,1, 0.000060,-0.000780,-0.000225,1,-0.135987, 0.165647, 9.804308,1,0
1778109211265,  1238.797,  1238.797, 0.014825,-0.015271,-0.997712, 0.000030,-0.000031,-0.001995, 0.009423, 0.015845, 0.020095,1,-0.001324,-0.000111,-0.000097,1,-0.135962, 0.165595, 9.804309,1,0
1778109211275,  1238.802,  1238.801, 0.013850,-0.015790,-0.995004, 0.000028,-0.000031,-0.001990, 0.005429, 0.010890, 0.045076,1,-0.001017, 0.000580, 0.000638,1,-0.135978, 0.165550, 9.804310,1,0
1778109211286,  1238.807,  1238.806, 0.014400,-0.016776,-0.994736, 0.000029,-0.000034,-0.001989, 0.005238, 0.001004, 0.049283,1,-0.000539, 0.000363, 0.001233,1,-0.135979, 0.165518, 9.804310,1,0
1778109211297,  1238.811,  1238.811, 0.013039,-0.016187,-0.994134, 0.000026,-0.000032,-0.001988,-0.008092, 0.006762, 0.055186,1,-0.000036,-0.000735,-0.000941,1,-0.135956, 0.165499, 9.804311,1,0
1778109211308,  1238.816,  1238.815, 0.012506,-0.016695,-0.994160, 0.000025,-0.000033,-0.001988,-0.012003, 0.002890, 0.056084,1, 0.000183, 0.000671,-0.000493,1,-0.135977, 0.165518, 9.804310,1,0
1778109211318,  1238.821,  1238.820, 0.012309,-0.016835,-0.995246, 0.000025,-0.000034,-0.001990,-0.015301, 0.000440, 0.044279,1, 0.000460, 0.000235, 0.000483,1,-0.136012, 0.165540, 9.804309,1,0
1778109211329,  1238.825,  1238.825, 0.012071,-0.016400,-0.995818, 0.000024,-0.000033,-0.001992,-0.017634, 0.004703, 0.038671,1,-0.000013, 0.000702, 0.000325,1,-0.136015, 0.165533, 9.804310,1,1
1778109211340,  1238.830,  1238.829, 0.012424,-0.016961,-0.995668, 0.000025,-0.000034,-0.001991,-0.014842,-0.000817, 0.043535,1, 0.000797,-0.001180, 0.000348,1,-0.136006, 0.165563, 9.804309,1,1
1778109211351,  1239.139,  1239.139, 0.014026,-0.016620,-0.996329, 0.000028,-0.000033,-0.001993, 0.001475, 0.002326, 0.033658,1,-0.001108,-0.000861,-0.000193,1,-0.136071, 0.165303, 9.804313,1,1
1778109211362,  1239.144,  1239.143, 0.014870,-0.016195,-0.995920, 0.000030,-0.000032,-0.001992, 0.009180, 0.006891, 0.031924,1, 0.000378, 0.000274,-0.000636,1,-0.136068, 0.165302, 9.804313,1,1
1778109211372,  1239.148,  1239.147, 0.014592,-0.015986,-0.996490, 0.000029,-0.000032,-0.001993, 0.008266, 0.012271, 0.035062,1, 0.000252, 0.000659,-0.000116,1,-0.136077, 0.165303, 9.804313,1,1
1778109211383,  1239.153,  1239.153, 0.015901,-0.017049,-0.996253, 0.000032,-0.000034,-0.001992, 0.019832,-0.001862, 0.034405,1,-0.000963,-0.000646,-0.000617,1,-0.136100, 0.165321, 9.804312,1,1
1778109211394,  1239.158,  1239.157, 0.014233,-0.017243,-0.995276, 0.000028,-0.000034,-0.001991, 0.009535, 0.000314, 0.040310,1,-0.000739,-0.000334,-0.000070,1,-0.136066, 0.165295, 9.804313,1,1
1778109211405,  1239.162,  1239.161, 0.014661,-0.017395,-0.995007, 0.000029,-0.000035,-0.001990, 0.010136,-0.004115, 0.052877,1,-0.000426,-0.000469,-0.001185,1,-0.136049, 0.165267, 9.804314,1,1
1778109211415,  1239.167,  1239.167, 0.014029,-0.017150,-0.996512, 0.000028,-0.000034,-0.001993, 0.001551,-0.002888, 0.031868,1, 0.000721,-0.000369, 0.000183,1,-0.136024, 0.165304, 9.804313,1,1
1778109211426,  1239.172,  1239.171, 0.014761,-0.017518,-0.996203, 0.000030,-0.000035,-0.001993, 0.004977,-0.015675, 0.030334,1,-0.000380, 0.000137,-0.000218,1,-0.136036, 0.165287, 9.804314,1,1
1778109211437,  1239.176,  1239.176, 0.014708,-0.017488,-0.995503, 0.000029,-0.000035,-0.001991, 0.008197,-0.006177, 0.041757,1, 0.000001,-0.000195,-0.000420,1,-0.136040, 0.165319, 9.804313,1,1
1778109211448,  1239.181,  1239.181, 0.015410,-0.017180,-0.995399, 0.000031,-0.000034,-0.001991, 0.015065,-0.003132, 0.042780,1, 0.000599, 0.000636, 0.000336,1,-0.136064, 0.165349, 9.804312,1,1
1778109211458,  1239.186,  1239.185, 0.014017,-0.016545,-0.995659, 0.000028,-0.000033,-0.001991, 0.003290,-0.004151, 0.040183,1, 0.000682, 0.001414, 0.000912,1,-0.136096, 0.165358, 9.804311,1,1
1778109211469,  1239.190,  1239.190, 0.013485,-0.017000,-0.996147, 0.000027,-0.000034,-0.001992,-0.003849,-0.001358, 0.035447,1,-0.000117,-0.001079,-0.000106,1,-0.136083, 0.165356, 9.804312,1,1
1778109211480,  1239.195,  1239.195, 0.013687,-0.017380,-0.995804, 0.000027,-0.000035,-0.001991,-0.001946,-0.005001, 0.038805,1, 0.000405,-0.000376,-0.000324,1,-0.136170, 0.165446, 9.804309,1,1
1778109211491,  1239.200,  1239.199, 0.013510,-0.017778,-0.996244, 0.000027,-0.000035,-0.001993,-0.007562,-0.007596, 0.039806,1, 0.000773,-0.000929,-0.000183,1,-0.136117, 0.165453, 9.804309,1,1
1778109211501,  1239.204,  1239.204, 0.013179,-0.017084,-0.996210, 0.000026,-0.000034,-0.001992,-0.006871,-0.002122, 0.034825,1,-0.000388, 0.000262,-0.000963,1,-0.136117, 0.165412, 9.804310,1,1
1778109211512,  1239.209,  1239.209, 0.013222,-0.017525,-0.995758, 0.000026,-0.000035,-0.001991,-0.006449,-0.006444, 0.039258,1, 0.000016,-0.000027, 0.000685,1,-0.136111, 0.165418, 9.804310,1,1
1778109211523,  1239.214,  1239.213, 0.012086,-0.017379,-0.994885, 0.000024,-0.000035,-0.001990,-0.016119,-0.004981, 0.048934,1,-0.000589,-0.000051, 0.000266,1,-0.136124, 0.165386, 9.804311,1,1
1778109211534,  1239.218,  1239.218, 0.012368,-0.017251,-0.995159, 0.000025,-0.000034,-0.001990,-0.014780,-0.003841, 0.045132,1,-0.000262, 0.000831, 0.000323,1,-0.136077, 0.165334, 9.804312,1,1
1778109211545,  1239.223,  1239.223, 0.011825,-0.017340,-0.996131, 0.000024,-0.000035,-0.001992,-0.020145,-0.004742, 0.035605,1,-0.001086, 0.000667, 0.000520,1,-0.136110, 0.165301, 9.804312,1,1
1778109211555,  1239.228,  1239.227, 0.012074,-0.017293,-0.994837, 0.000024,-0.000035,-0.001990,-0.018956,-0.009359, 0.043668,1,-0.000632,-0.000356,-0.000100,1,-0.136117, 0.165270, 9.804313,1,1
1778109211566,  1239.232,  1239.232, 0.012745,-0.016549,-0.995276, 0.000026,-0.000033,-0.001991,-0.011170, 0.002987, 0.043991,1, 0.000321, 0.000578,-0.000052,1,-0.136159, 0.165281, 9.804312,1,1
1778109211577,  1239.237,  1239.237, 0.012634,-0.016278,-0.995435, 0.000025,-0.000032,-0.001991,-0.012275, 0.005642, 0.042424,1,-0.000057,-0.000111,-0.000434,1,-0.136167, 0.165269, 9.804312,1,1
1778109211588,  1239.242,  1239.241, 0.012941,-0.016179,-0.996748, 0.000026,-0.000032,-0.001994,-0.006883, 0.003450, 0.027817,1, 0.000262,-0.000329, 0.000103,1,-0.136163, 0.165271, 9.804312,1,1
1778109211598,  1239.247,  1239.246, 0.013251,-0.015587,-0.996199, 0.000026,-0.000031,-0.001992,-0.006189, 0.012442, 0.034940,1, 0.000119,-0.000289,-0.000088,1,-0.136137, 0.165300, 9.804312,1,1
1778109211609,  1239.251,  1239.251, 0.014303,-0.015382,-0.995649, 0.000029,-0.000031,-0.001991, 0.004117, 0.014415, 0.040329,1,-0.001844,-0.000269, 0.000014,1,-0.136144, 0.165250, 9.804313,1,1
1778109211620,  1239.256,  1239.255, 0.013877,-0.014682,-0.995654, 0.000028,-0.000029,-0.001991, 0.002848, 0.022344, 0.039673,1,-0.000206,-0.000583,-0.000080,1,-0.136141, 0.165229, 9.804313,1,1
1778109211631,  1239.261,  1239.260, 0.014191,-0.016165,-0.995755, 0.000028,-0.000032,-0.001992, 0.003028, 0.006631, 0.039295,1,-0.001711,-0.000066,-0.000556,1,-0.136139, 0.165142, 9.804315,1,1
1778109211641,  1239.265,  1239.265, 0.015030,-0.016642,-0.994246, 0.000030,-0.000033,-0.001988, 0.011256, 0.001914, 0.054093,1,-0.000171,-0.000159,-0.000430,1,-0.136133, 0.165113, 9.804315,1,1
1778109211652,  1239.270,  1239.269, 0.014968,-0.017035,-0.996640, 0.000030,-0.000034,-0.001994, 0.011314, 0.001604, 0.034487,1,-0.000042,-0.000148,-0.000455,1,-0.136128, 0.165111, 9.804315,1,1
1778109211663,  1239.275,  1239.274, 0.014865,-0.017012,-0.996745, 0.000030,-0.000034,-0.001994, 0.009674,-0.001651, 0.029581,1, 0.001793,-0.000070,-0.000418,1,-0.136100, 0.165187, 9.804314,1,1
1778109211674,  1239.279,  1239.279, 0.015101,-0.016925,-0.995474, 0.000030,-0.000034,-0.001991, 0.011959,-0.000779, 0.042043,1,-0.000240,-0.000056, 0.000416,1,-0.136128, 0.165201, 9.804314,1,1
1778109211684,  1239.284,  1239.283, 0.015143,-0.017424,-0.996538, 0.000030,-0.000035,-0.001993, 0.013108,-0.006688, 0.030865,1, 0.000714,-0.000111, 0.000024,1,-0.136118, 0.165227, 9.804313,1,1
1778109211695,  1239.289,  1239.288, 0.015595,-0.017295,-0.995825, 0.000031,-0.000035,-0.001992, 0.016800,-0.004381, 0.038604,1,-0.000515, 0.000235,-0.000562,1,-0.136137, 0.165226, 9.804313,1,1
1778109211706,  1239.293,  1239.293, 0.014863,-0.017359,-0.996028, 0.000030,-0.000035,-0.001992, 0.009611,-0.004985, 0.036617,1, 0.000996, 0.000043,-0.001202,1,-0.136145, 0.165257, 9.804313,1,1
1778109211717,  1239.298,  1239.297, 0.014579,-0.017111,-0.995181, 0.000029,-0.000034,-0.001991, 0.012568,-0.009535, 0.040951,1,-0.000414,-0.001344, 0.000242,1,-0.136116, 0.165238, 9.804313,1,1
1778109211727,  1239.303,  1239.302, 0.015455,-0.016341,-0.996777, 0.000031,-0.000033,-0.001994, 0.015483, 0.005013, 0.029269,1, 0.000926,-0.000122,-0.000431,1,-0.136079, 0.165265, 9.804313,1,1
1778109211738,  1239.307,  1239.307, 0.014524,-0.017101,-0.996695, 0.000029,-0.000034,-0.001993, 0.006359,-0.002443, 0.030077,1,-0.000317,-0.000103,-0.000274,1,-0.136069, 0.165263, 9.804314,1,1
1778109211749,  1239.359,  1239.359, 0.012798,-0.016675,-0.995949, 0.000026,-0.000033,-0.001992,-0.010574, 0.001900, 0.037386,1, 0.000917, 0.000352, 0.000509,1,-0.136086, 0.165434, 9.804310,1,1
1778109211760,  1239.364,  1239.363, 0.013494,-0.016892,-0.995880, 0.000027,-0.000033,-0.001992,-0.008308,-0.002236, 0.035377,1,-0.000901, 0.000454,-0.000110,1,-0.136104, 0.165406, 9.804311,1,1
1778109211771,  1239.369,  1239.369, 0.012643,-0.016378,-0.994647, 0.000025,-0.000033,-0.001989,-0.012139, 0.004751, 0.050160,1, 0.000012, 0.000322, 0.000819,1,-0.136124, 0.165361, 9.804311,1,1
1778109211781,  1239.373,  1239.373, 0.012780,-0.016619,-0.995042, 0.000025,-0.000033,-0.001990,-0.010796, 0.002386, 0.046286,1,-0.000503, 0.000051, 0.000522,1,-0.136122, 0.165361, 9.804311,1,1
1778109211792,  1239.378,  1239.377, 0.013194,-0.016178,-0.995744, 0.000026,-0.000032,-0.001991,-0.006430, 0.009088, 0.039052,1, 0.001229,-0.000668,-0.000050,1,-0.136102, 0.165388, 9.804311,1,1
1778109211803,  1239.383,  1239.383, 0.013028,-0.016219,-0.995776, 0.000026,-0.000032,-0.001992,-0.008337, 0.006369, 0.039081,1,-0.000600,-0.000932,-0.000159,1,-0.136090, 0.165424, 9.804310,1,1
1778109211814,  1239.388,  1239.387, 0.013844,-0.016375,-0.995861, 0.000028,-0.000033,-0.001992,-0.004698, 0.000106, 0.039422,1, 0.000191, 0.000056,-0.000559,1,-0.136086, 0.165434, 9.804310,1,1
1778109211824,  1239.392,  1239.391, 0.014275,-0.015913,-0.996171, 0.000029,-0.000032,-0.001992, 0.002309, 0.008211, 0.033278,1,-0.000197, 0.000782, 0.000207,1,-0.136117, 0.165432, 9.804310,1,1
1778109211835,  1239.397,  1239.397, 0.014069,-0.016963,-0.995588, 0.000028,-0.000034,-0.001991, 0.001918,-0.000912, 0.040925,1,-0.000336, 0.000386,-0.000438,1,-0.136052, 0.165439, 9.804311,1,1
1778109211846,  1239.402,  1239.401, 0.014353,-0.017310,-0.996301, 0.000029,-0.000035,-0.001993, 0.003264, 0.000942, 0.039269,1, 0.000024,-0.000748,-0.000693,1,-0.136047, 0.165443, 9.804311,1,1
1778109211857,  1239.406,  1239.405, 0.014276,-0.016434,-0.996595, 0.000029,-0.000033,-0.001993, 0.003117,-0.001063, 0.036333,1, 0.000461,-0.000531,-0.000351,1,-0.136002, 0.165453, 9.804311,1,1
1778109211867,  1239.411,  1239.411, 0.014586,-0.016738,-0.995150, 0.000029,-0.000034,-0.001990, 0.007039, 0.001294, 0.045219,1, 0.000483, 0.000182, 0.000688,1,-0.135999, 0.165442, 9.804311,1,1
1778109211878,  1239.416,  1239.415, 0.015712,-0.016188,-0.995202, 0.000032,-0.000032,-0.001990, 0.007710, 0.004238, 0.047126,1,-0.001527, 0.000583, 0.000498,1,-0.136016, 0.165400, 9.804312,1,1
1778109211889,  1239.420,  1239.419, 0.014952,-0.017137,-0.995074, 0.000030,-0.000034,-0.001990, 0.010659, 0.007688, 0.047104,1, 0.001321,-0.000488, 0.000340,1,-0.136012, 0.165399, 9.804312,1,1
1778109211900,  1239.425,  1239.425, 0.014712,-0.017821,-0.995484, 0.000029,-0.000036,-0.001991, 0.008258,-0.009327, 0.041952,1, 0.000297, 0.000350,-0.000720,1,-0.136015, 0.165435, 9.804311,1,1
1778109211911,  1239.430,  1239.429, 0.014604,-0.017153,-0.996640, 0.000029,-0.000034,-0.001993, 0.006450,-0.002117, 0.032138,1,-0.000248, 0.001064,-0.001284,1,-0.136043, 0.165436, 9.804311,1,1
1778109211921,  1239.434,  1239.433, 0.014578,-0.017840,-0.996297, 0.000029,-0.000036,-0.001993, 0.008684,-0.010456, 0.032176,1, 0.000131,-0.000082,-0.000713,1,-0.136070, 0.165450, 9.804310,1,1
1778109211932,  1239.439,  1239.439, 0.014255,-0.018432,-0.995866, 0.000028,-0.000037,-0.001991, 0.003788,-0.015298, 0.038200,1,-0.000656,-0.000922,-0.000443,1,-0.136001, 0.165458, 9.804311,1,1
1778109211943,  1239.444,  1239.443, 0.013616,-0.017284,-0.995902, 0.000027,-0.000034,-0.001992, 0.000609,-0.008347, 0.037350,1,-0.000258,-0.000648, 0.000288,1,-0.135984, 0.165429, 9.804312,1,1
1778109211954,  1239.448,  1239.447, 0.012694,-0.017529,-0.995010, 0.000025,-0.000035,-0.001990,-0.002077,-0.008478, 0.042274,1, 0.000034, 0.000450,-0.000168,1,-0.135996, 0.165411, 9.804312,1,1
1778109211964,  1239.453,  1239.452, 0.013880,-0.016466,-0.995131, 0.000028,-0.000033,-0.001990, 0.000123, 0.003929, 0.045409,1,-0.000324, 0.000603,-0.000010,1,-0.135998, 0.165400, 9.804312,1,1
1778109211975,  1239.762,  1239.761, 0.013180,-0.016792,-0.997995, 0.000026,-0.000034,-0.001996, 0.008913,-0.001336, 0.034268,1,-0.000786, 0.000268, 0.000192,1,-0.135893, 0.165848, 9.804306,1,1
1778109211986,  1239.766,  1239.766, 0.015857,-0.017314,-0.998589, 0.000032,-0.000035,-0.001997, 0.019589,-0.003902, 0.011491,1, 0.001487, 0.000911,-0.000375,1,-0.135924, 0.165896, 9.804304,1,1
1778109211997,  1239.771,  1239.771, 0.012850,-0.017155,-0.994283, 0.000025,-0.000034,-0.001988,-0.009873,-0.002337, 0.053718,1,-0.000730,-0.000816, 0.000691,1,-0.135881, 0.165891, 9.804305,1,1
1778109212007,  1239.776,  1239.775, 0.014702,-0.017237,-0.994590, 0.000029,-0.000034,-0.001989, 0.002446,-0.002710, 0.053461,1, 0.001433,-0.000061,-0.000230,1,-0.135867, 0.165920, 9.804305,1,1
1778109212018,  1239.781,  1239.780, 0.013568,-0.016997,-0.996393, 0.000027,-0.000034,-0.001993,-0.002791,-0.000819, 0.033032,1,-0.000761,-0.001203,-0.001037,1,-0.135836, 0.165862, 9.804306,1,1
1778109212029,  1239.785,  1239.785, 0.013617,-0.016306,-0.995968, 0.000027,-0.000033,-0.001992,-0.002272, 0.005930, 0.037195,1, 0.000347,-0.000606, 0.000302,1,-0.135802, 0.165838, 9.804307,1,1
1778109212040,  1239.790,  1239.789, 0.014595,-0.016954,-0.994869, 0.000029,-0.000034,-0.001990, 0.003549, 0.006041, 0.044192,1, 0.001186, 0.000760, 0.000566,1,-0.135818, 0.165866, 9.804306,1,1
1778109212050,  1239.795,  1239.794, 0.013908,-0.017784,-0.997365, 0.000028,-0.000036,-0.001995, 0.000552,-0.008470, 0.023500,1,-0.000280, 0.000200,-0.000136,1,-0.135843, 0.165930, 9.804305,1,1
1778109212061,  1239.799,  1239.799, 0.013692,-0.016184,-0.997691, 0.000027,-0.000032,-0.001996,-0.001548, 0.007248, 0.020295,1, 0.000440,-0.000528, 0.000442,1,-0.135820, 0.165957, 9.804305,1,1
1778109212072,  1239.804,  1239.803, 0.014387,-0.017504,-0.995864, 0.000029,-0.000035,-0.001992,-0.001096, 0.000620, 0.037860,1, 0.000107, 0.000200, 0.000133,1,-0.135826, 0.165959, 9.804305,1,1
1778109212083,  1239.809,  1239.808, 0.013759,-0.017255,-0.995903, 0.000027,-0.000035,-0.001992,-0.000891,-0.003261, 0.037831,1,-0.000800,-0.000294, 0.000473,1,-0.135817, 0.165947, 9.804305,1,1
1778109212093,  1239.813,  1239.813, 0.012872,-0.016372,-0.996850, 0.000025,-0.000033,-0.001994,-0.009589, 0.005385, 0.028549,1,-0.000256,-0.000173,-0.000106,1,-0.135820, 0.165937, 9.804305,1,1
1778109212104,  1239.818,  1239.817, 0.013494,-0.016666,-0.995802, 0.000027,-0.000033,-0.001992,-0.005742, 0.000508, 0.031485,1,-0.000872,-0.000352, 0.000417,1,-0.135806, 0.165916, 9.804306,1,1
1778109212115,  1239.823,  1239.822, 0.011858,-0.016891,-0.994735, 0.000024,-0.000034,-0.001989,-0.019472, 0.000258, 0.049289,1, 0.000049,-0.000372, 0.000521,1,-0.135761, 0.165907, 9.804307,1,1
1778109212126,  1239.827,  1239.827, 0.011767,-0.017667,-0.995529, 0.000024,-0.000035,-0.001991,-0.020354,-0.007333, 0.041497,1,-0.000058,-0.000295, 0.000134,1,-0.135744, 0.165925, 9.804307,1,1
1778109212137,  1239.832,  1239.831, 0.012301,-0.018471,-0.995417, 0.000025,-0.000037,-0.001991,-0.022403,-0.018729, 0.040962,1,-0.001131, 0.000930, 0.000020,1,-0.135777, 0.165883, 9.804307,1,1
1778109212147,  1239.837,  1239.836, 0.011584,-0.018477,-0.995310, 0.000023,-0.000037,-0.001991,-0.022203,-0.015301, 0.043647,1, 0.000794, 0.000029, 0.000569,1,-0.135805, 0.165898, 9.804306,1,1
1778109212158,  1239.841,  1239.841, 0.011491,-0.019598,-0.995437, 0.000023,-0.000039,-0.001991,-0.023108,-0.026290, 0.042401,1,-0.000296, 0.000170, 0.000638,1,-0.135795, 0.165902, 9.804306,1,1
1778109212169,  1239.846,  1239.845, 0.011678,-0.018595,-0.995049, 0.000023,-0.000037,-0.001990,-0.013231,-0.015586, 0.045620,1,-0.000174,-0.001687, 0.001093,1,-0.135755, 0.165885, 9.804307,1,1
1778109212180,  1239.851,  1239.851, 0.012252,-0.018282,-0.996684, 0.000024,-0.000036,-0.001993,-0.015593,-0.013406, 0.030175,1,-0.000822, 0.000766, 0.000491,1,-0.135745, 0.165870, 9.804307,1,1
1778109212190,  1239.855,  1239.855, 0.012669,-0.018833,-0.996501, 0.000025,-0.000038,-0.001993,-0.011490,-0.018816, 0.031970,1, 0.000559, 0.000151, 0.000399,1,-0.135733, 0.165877, 9.804308,1,1
1778109212201,  1239.860,  1239.859, 0.013111,-0.018927,-0.994745, 0.000026,-0.000038,-0.001989,-0.015298,-0.025432, 0.044617,1,-0.000560, 0.000283, 0.001039,1,-0.135739, 0.165871, 9.804308,1,1
1778109212212,  1239.865,  1239.865, 0.012888,-0.017928,-0.995706, 0.000026,-0.000036,-0.001991,-0.009393,-0.010032, 0.039769,1,-0.001435, 0.001205, 0.001054,1,-0.135792, 0.165775, 9.804308,1,1
1778109212223,  1239.870,  1239.869, 0.013509,-0.017149,-0.996232, 0.000027,-0.000034,-0.001992,-0.010617,-0.000360, 0.024694,1,-0.000465, 0.000426, 0.001038,1,-0.135845, 0.165769, 9.804308,1,1
1778109212233,  1239.874,  1239.873, 0.013565,-0.015885,-0.995416, 0.000027,-0.000032,-0.001991,-0.002173, 0.001860, 0.036806,1,-0.000140, 0.001420, 0.000935,1,-0.135921, 0.165761, 9.804307,1,1
1778109212244,  1239.879,  1239.879, 0.013506,-0.014807,-0.994003, 0.000027,-0.000029,-0.001988,-0.003502, 0.020553, 0.056471,1, 0.000270, 0.000269, 0.001942,1,-0.135947, 0.165760, 9.804307,1,1
1778109212255,  1239.884,  1239.883, 0.014165,-0.013762,-0.995004, 0.000028,-0.000028,-0.001990, 0.005726, 0.030382, 0.045341,1,-0.000688, 0.000884, 0.000511,1,-0.135997, 0.165752, 9.804306,1,1
1778109212266,  1239.888,  1239.887, 0.014513,-0.013417,-0.994599, 0.000029,-0.000027,-0.001989, 0.001019, 0.039074, 0.047644,1, 0.000440, 0.000484, 0.000697,1,-0.136008, 0.165770, 9.804305,1,1
1778109212276,  1239.893,  1239.893, 0.015573,-0.012622,-0.995057, 0.000031,-0.000025,-0.001990, 0.016663, 0.042007, 0.046124,1, 0.000996, 0.000776, 0.001257,1,-0.136063, 0.165792, 9.804304,1,1
1778109212287,  1239.898,  1239.897, 0.015825,-0.011945,-0.996895, 0.000032,-0.000024,-0.001994, 0.016110, 0.045276, 0.041066,1,-0.000863,-0.000408,-0.000369,1,-0.136061, 0.165789, 9.804304,1,1
1778109212298,  1239.902,  1239.901, 0.017226,-0.011739,-0.997320, 0.000035,-0.000023,-0.001995, 0.025984, 0.055306, 0.020239,1,-0.000906,-0.000531,-0.000224,1,-0.136041, 0.165776, 9.804305,1,1
1778109212309,  1239.907,  1239.907, 0.016238,-0.012389,-0.997005, 0.000032,-0.000025,-0.001994, 0.023199, 0.044262, 0.027022,1, 0.000414, 0.000364,-0.000534,1,-0.136045, 0.165756, 9.804305,1,1
1778109212319,  1239.912,  1239.911, 0.017006,-0.013217,-0.995985, 0.000034,-0.000026,-0.001992, 0.025964, 0.038570, 0.039976,1,-0.000201, 0.000482,-0.000270,1,-0.136058, 0.165762, 9.804305,1,1
1778109212330,  1239.916,  1239.915, 0.015134,-0.013607,-0.996131, 0.000030,-0.000027,-0.001992, 0.023726, 0.031747, 0.038519,1,-0.000154,-0.000724,-0.000440,1,-0.136025, 0.165757, 9.804305,1,1
1778109212341,  1239.921,  1239.921, 0.016404,-0.013625,-0.996668, 0.000033,-0.000027,-0.001993, 0.024843, 0.032138, 0.030329,1, 0.000555, 0.000070,-0.001802,1,-0.136027, 0.165757, 9.804305,1,1
1778109212352,  1239.926,  1239.925, 0.014657,-0.015307,-0.995607, 0.000029,-0.000031,-0.001991, 0.013280, 0.021949, 0.039387,1, 0.000924,-0.000466, 0.000025,1,-0.136009, 0.165802, 9.804305,1,1
1778109212363,  1239.930,  1239.929, 0.014417,-0.015910,-0.994370, 0.000029,-0.000032,-0.001988, 0.009040, 0.012419, 0.043742,1, 0.001857, 0.000699,-0.002121,1,-0.136035, 0.165838, 9.804304,1,1
1778109212373,  1239.982,  1239.981, 0.012111,-0.019914,-0.995003, 0.000024,-0.000040,-0.001990,-0.020125,-0.033019, 0.044744,1, 0.001140, 0.000985, 0.000452,1,-0.135973, 0.166077, 9.804301,1,1
1778109212384,  1239.987,  1239.987, 0.012571,-0.019014,-0.994945, 0.000025,-0.000038,-0.001990,-0.012742,-0.020367, 0.047226,1, 0.000656, 0.000106, 0.001083,1,-0.136021, 0.166102, 9.804299,1,1
1778109212395,  1239.992,  1239.991, 0.012096,-0.017715,-0.994538, 0.000024,-0.000035,-0.001989,-0.016132,-0.009650, 0.045753,1, 0.000356, 0.002342, 0.001602,1,-0.136089, 0.166133, 9.804298,1,1
1778109212406,  1239.996,  1239.996, 0.013182,-0.016845,-0.996124, 0.000026,-0.000034,-0.001992,-0.006741, 0.001107, 0.035660,1,-0.000099,-0.000288, 0.001856,1,-0.136014, 0.166298, 9.804296,1,1
1778109212416,  1240.001,  1240.001, 0.012580,-0.016229,-0.996808, 0.000025,-0.000033,-0.001994,-0.012641, 0.007102, 0.028952,1,-0.000877, 0.000001, 0.001733,1,-0.136013, 0.166249, 9.804297,1,1
1778109212427,  1240.006,  1240.005, 0.012674,-0.015470,-0.998116, 0.000025,-0.000031,-0.001997,-0.005851, 0.010832, 0.023948,1,-0.000652, 0.001439, 0.000304,1,-0.136069, 0.166246, 9.804296,1,1
1778109212438,  1240.010,  1240.010, 0.013841,-0.015583,-0.995343, 0.000028,-0.000031,-0.001990,-0.000303, 0.013360, 0.043315,1,-0.002313, 0.000143, 0.001135,1,-0.136035, 0.166164, 9.804298,1,1
1778109212449,  1240.015,  1240.015, 0.014913,-0.013293,-0.995113, 0.000030,-0.000026,-0.001990, 0.010211, 0.035715, 0.045577,1,-0.002754,-0.000124, 0.000958,1,-0.136038, 0.166056, 9.804300,1,1
1778109212459,  1240.020,  1240.019, 0.014691,-0.012854,-0.994715, 0.000029,-0.000026,-0.001989, 0.001436, 0.038090, 0.044434,1, 0.000065, 0.000728, 0.000854,1,-0.136050, 0.166024, 9.804300,1,1
1778109212470,  1240.024,  1240.024, 0.015397,-0.012849,-0.992639, 0.000031,-0.000026,-0.001985, 0.014936, 0.040034, 0.069839,1, 0.000197, 0.000433, 0.000732,1,-0.136063, 0.166038, 9.804300,1,1
1778109212481,  1240.029,  1240.029, 0.015234,-0.011711,-0.993249, 0.000030,-0.000023,-0.001986, 0.013329, 0.051186, 0.063857,1, 0.000668, 0.000118, 0.000841,1,-0.136068, 0.166038, 9.804300,1,1
1778109212492,  1240.034,  1240.033, 0.015473,-0.011527,-0.996628, 0.000031,-0.000023,-0.001993, 0.012647, 0.057442, 0.039116,1, 0.001379, 0.001826, 0.000748,1,-0.136143, 0.166069, 9.804298,1,1
1778109212502,  1240.038,  1240.038, 0.015244,-0.012650,-0.997156, 0.000030,-0.000025,-0.001994, 0.013252, 0.042105, 0.025540,1, 0.002452, 0.001989,-0.000687,1,-0.136255, 0.166179, 9.804296,1,1
1778109212513,  1240.043,  1240.043, 0.015592,-0.013950,-0.998153, 0.000031,-0.000028,-0.001996, 0.016637, 0.029420, 0.015760,1, 0.000355, 0.000297,-0.000845,1,-0.136271, 0.166220, 9.804295,1,1
1778109212524,  1240.048,  1240.047, 0.013983,-0.015388,-0.999609, 0.000028,-0.000031,-0.001999, 0.018774, 0.019118, 0.003397,1,-0.000462,-0.001295,-0.000753,1,-0.136240, 0.166203, 9.804295,1,1
1778109212535,  1240.052,  1240.052, 0.014473,-0.015033,-0.999621, 0.000029,-0.000030,-0.001999, 0.005732, 0.018767, 0.001360,1,-0.000043,-0.000847,-0.001023,1,-0.136196, 0.166185, 9.804296,1,1
1778109212545,  1240.057,  1240.057, 0.014365,-0.015395,-0.995665, 0.000029,-0.000031,-0.001991, 0.004771, 0.015188, 0.040158,1,-0.001092,-0.002688,-0.001866,1,-0.136086, 0.166154, 9.804298,1,1
1778109212556,  1240.062,  1240.061, 0.012988,-0.016720,-0.992394, 0.000026,-0.000034,-0.001985,-0.008491, 0.007042, 0.067893,1,-0.001091,-0.000014,-0.000832,1,-0.136051, 0.166119, 9.804299,1,1
1778109212567,  1240.067,  1240.066, 0.012852,-0.016821,-0.992442, 0.000026,-0.000034,-0.001985,-0.010036, 0.001149, 0.071766,1, 0.000611,-0.000616,-0.000852,1,-0.136070, 0.166111, 9.804299,1,1
1778109212578,  1240.071,  1240.071, 0.012376,-0.016775,-0.991891, 0.000025,-0.000033,-0.001984,-0.014740, 0.001645, 0.077170,1, 0.001346, 0.000872,-0.001084,1,-0.136117, 0.166157, 9.804297,1,1
1778109212589,  1240.380,  1240.074, 0.014834,-0.017432,-0.994799, 0.000030,-0.000035,-0.001990,-0.007983,-0.003121, 0.075936,1, 0.002057, 0.000591,-0.001391,1,-0.136135, 0.166237, 9.804296,1,1
1778109212599,  1240.385,  1240.385, 0.014121,-0.017385,-0.995334, 0.000028,-0.000035,-0.001991, 0.002498,-0.004297, 0.043409,1, 0.000015, 0.001236, 0.000627,1,-0.135992, 0.166195, 9.804298,1,1
1778109212610,  1240.389,  1240.389, 0.015011,-0.017986,-0.996129, 0.000030,-0.000036,-0.001992, 0.011199,-0.010163, 0.035609,1, 0.000485,-0.000452, 0.000327,1,-0.136004, 0.166224, 9.804297,1,1
1778109212621,  1240.394,  1240.393, 0.014452,-0.017894,-0.997815, 0.000029,-0.000036,-0.001996, 0.004963,-0.010853, 0.020735,1,-0.001175, 0.000231, 0.000948,1,-0.136006, 0.166221, 9.804297,1,1
1778109212632,  1240.399,  1240.399, 0.013994,-0.017486,-0.996910, 0.000028,-0.000035,-0.001994, 0.001206,-0.005292, 0.027945,1,-0.000910, 0.000057, 0.001294,1,-0.136027, 0.166184, 9.804298,1,1
1778109212642,  1240.404,  1240.403, 0.013544,-0.016239,-0.997014, 0.000027,-0.000032,-0.001994,-0.006118, 0.000210, 0.031223,1, 0.000351, 0.000119, 0.000292,1,-0.136035, 0.166177, 9.804298,1,1
1778109212653,  1240.408,  1240.407, 0.012958,-0.015752,-0.995156, 0.000026,-0.000031,-0.001990,-0.003809, 0.006414, 0.037138,1, 0.000758, 0.000006, 0.001082,1,-0.136032, 0.166189, 9.804298,1,1
1778109212664,  1240.413,  1240.413, 0.012177,-0.015125,-0.994483, 0.000024,-0.000030,-0.001989,-0.016653, 0.017860, 0.051749,1,-0.000038, 0.000858, 0.000550,1,-0.136070, 0.166190, 9.804297,1,1
1778109212675,  1240.418,  1240.417, 0.011530,-0.014102,-0.993986, 0.000023,-0.000028,-0.001988,-0.019061, 0.035379, 0.056453,1,-0.000374,-0.000066, 0.000765,1,-0.136070, 0.166177, 9.804297,1,1
1778109212685,  1240.422,  1240.421, 0.011792,-0.014020,-0.994756, 0.000024,-0.000028,-0.001989,-0.020994, 0.032788, 0.056235,1, 0.001385,-0.001503, 0.000961,1,-0.136034, 0.166202, 9.804297,1,1
1778109212696,  1240.427,  1240.427, 0.012318,-0.014204,-0.994820, 0.000025,-0.000028,-0.001989,-0.015229, 0.026893, 0.048450,1, 0.000649,-0.000002, 0.001348,1,-0.136030, 0.166195, 9.804298,1,1
1778109212707,  1240.432,  1240.431, 0.012096,-0.013794,-0.997164, 0.000024,-0.000028,-0.001994,-0.023619, 0.031116, 0.032078,1, 0.000810, 0.000527,-0.000554,1,-0.136052, 0.166238, 9.804296,1,1
1778109212718,  1240.436,  1240.435, 0.011551,-0.014613,-0.997320, 0.000023,-0.000029,-0.001994,-0.018268, 0.024173, 0.029290,1, 0.000749, 0.000987,-0.000013,1,-0.136086, 0.166276, 9.804296,1,1
1778109212728,  1240.441,  1240.441, 0.011748,-0.015041,-0.997260, 0.000023,-0.000030,-0.001994,-0.020872, 0.018750, 0.024513,1,-0.000594,-0.000466,-0.000721,1,-0.136077, 0.166246, 9.804296,1,1
1778109212739,  1240.446,  1240.445, 0.012174,-0.015201,-0.995189, 0.000024,-0.000030,-0.001990,-0.015800, 0.017337, 0.041377,1, 0.000452,-0.001431,-0.001221,1,-0.136057, 0.166258, 9.804296,1,1
1778109212750,  1240.450,  1240.449, 0.012504,-0.014874,-0.995263, 0.000025,-0.000030,-0.001991,-0.008492, 0.021308, 0.039761,1,-0.000329,-0.000924,-0.000558,1,-0.136034, 0.166244, 9.804297,1,1
1778109212761,  1240.455,  1240.455, 0.011872,-0.016383,-0.995186, 0.000024,-0.000033,-0.001991,-0.019555, 0.005566, 0.044855,1,-0.001122,-0.000400,-0.000581,1,-0.135978, 0.166226, 9.804298,1,1
1778109212772,  1240.460,  1240.459, 0.013276,-0.016215,-0.994759, 0.000027,-0.000033,-0.001990,-0.005833, 0.013452, 0.047719,1,-0.000280,-0.000227,-0.000641,1,-0.135964, 0.166224, 9.804298,1,1
1778109212782,  1240.464,  1240.463, 0.013393,-0.017691,-0.994728, 0.000027,-0.000035,-0.001989,-0.001942, 0.000427, 0.052539,1, 0.000261, 0.000513,-0.000178,1,-0.135972, 0.166217, 9.804298,1,1
1778109212793,  1240.469,  1240.469, 0.014111,-0.018063,-0.995501, 0.000028,-0.000036,-0.001991, 0.002415,-0.010910, 0.041767,1,-0.000086,-0.001118,-0.000452,1,-0.135955, 0.166231, 9.804298,1,1
1778109212804,  1240.474,  1240.473, 0.014958,-0.019310,-0.996532, 0.000030,-0.000039,-0.001993, 0.004678,-0.023157, 0.037645,1, 0.000488,-0.000382,-0.000725,1,-0.135941, 0.166259, 9.804298,1,1
1778109212815,  1240.478,  1240.477, 0.013887,-0.019472,-0.996786, 0.000028,-0.000039,-0.001994, 0.002745,-0.028950, 0.022856,1,-0.000363,-0.000297,-0.000320,1,-0.135945, 0.166251, 9.804298,1,1
1778109212825,  1240.483,  1240.483, 0.014698,-0.019004,-0.996573, 0.000030,-0.000038,-0.001993, 0.008221,-0.020120, 0.031253,1, 0.000321, 0.000289, 0.000140,1,-0.135921, 0.166243, 9.804298,1,1
1778109212836,  1240.488,  1240.487, 0.014233,-0.018595,-0.995355, 0.000028,-0.000037,-0.001990, 0.007899,-0.022175, 0.036318,1,-0.000342,-0.000213, 0.000268,1,-0.135913, 0.166234, 9.804299,1,1
1778109212847,  1240.492,  1240.492, 0.014909,-0.018823,-0.995396, 0.000030,-0.000038,-0.001991, 0.010289,-0.018368, 0.042795,1,-0.000579,-0.001333,-0.000315,1,-0.135913, 0.166216, 9.804299,1,1
1778109212858,  1240.497,  1240.497, 0.014909,-0.018613,-0.994818, 0.000030,-0.000037,-0.001990, 0.010317,-0.016342, 0.048469,1,-0.000293,-0.000050,-0.000127,1,-0.135890, 0.166185, 9.804300,1,1
1778109212868,  1240.502,  1240.501, 0.014897,-0.017578,-0.994896, 0.000030,-0.000035,-0.001990, 0.006671,-0.013655, 0.045596,1,-0.000405,-0.000181,-0.000043,1,-0.135883, 0.166169, 9.804300,1,1
1778109212879,  1240.506,  1240.506, 0.015324,-0.018420,-0.996002, 0.000031,-0.000037,-0.001992, 0.014414,-0.014439, 0.036854,1, 0.001000, 0.000533, 0.000312,1,-0.135866, 0.166203, 9.804300,1,1
1778109212890,  1240.511,  1240.511, 0.015102,-0.018610,-0.995808, 0.000030,-0.000037,-0.001991, 0.012207,-0.016294, 0.038755,1, 0.000391, 0.000348,-0.000034,1,-0.135891, 0.166211, 9.804299,1,1
1778109212901,  1240.516,  1240.515, 0.014496,-0.017241,-0.997739, 0.000029,-0.000034,-0.001996, 0.003706,-0.009291, 0.024598,1, 0.000148, 0.000462,-0.000009,1,-0.135915, 0.166199, 9.804299,1,1
1778109212911,  1240.520,  1240.520, 0.014562,-0.016832,-0.997177, 0.000029,-0.000034,-0.001994, 0.006922, 0.001102, 0.025339,1,-0.000586,-0.000875,-0.000161,1,-0.135874, 0.166165, 9.804300,1,1
1778109212922,  1240.525,  1240.525, 0.014318,-0.016171,-0.996004, 0.000029,-0.000032,-0.001992, 0.004549, 0.007610, 0.036837,1, 0.000928,-0.000199, 0.000684,1,-0.135858, 0.166195, 9.804300,1,1
1778109212933,  1240.530,  1240.529, 0.014227,-0.015162,-0.995657, 0.000028,-0.000030,-0.001991, 0.006354, 0.012929, 0.040347,1,-0.000989,-0.000744, 0.000321,1,-0.135837, 0.166180, 9.804301,1,1
1778109212944,  1240.534,  1240.534, 0.014855,-0.015369,-0.995826, 0.000030,-0.000031,-0.001992, 0.009827, 0.015406, 0.038586,1,-0.001341,-0.000193, 0.000232,1,-0.135854, 0.166115, 9.804302,1,1
1778109212955,  1240.539,  1240.539, 0.014217,-0.015769,-0.994371, 0.000028,-0.000032,-0.001988, 0.003587, 0.011429, 0.052855,1,-0.001591,-0.001059, 0.000241,1,-0.135827, 0.166056, 9.804303,1,1
1778109212965,  1240.544,  1240.543, 0.013874,-0.014832,-0.995442, 0.000028,-0.000030,-0.001991, 0.003673, 0.020655, 0.044027,1, 0.000306, 0.000468, 0.000159,1,-0.135839, 0.166044, 9.804303,1,1
1778109212976,  1240.548,  1240.548, 0.014236,-0.015113,-0.995788, 0.000028,-0.000030,-0.001991, 0.003774, 0.017844, 0.038959,1, 0.000821, 0.000093,-0.000627,1,-0.135831, 0.166058, 9.804303,1,1
1778109212987,  1240.553,  1240.553, 0.013899,-0.015615,-0.995813, 0.000028,-0.000031,-0.001991, 0.000486, 0.012946, 0.038709,1, 0.000136,-0.000889,-0.000056,1,-0.135807, 0.166075, 9.804303,1,1
1778109212995,  1240.601,  1240.553, 0.013899,-0.015615,-0.995813, 0.000028,-0.000031,-0.001991, 0.000486, 0.012946, 0.038709,1, 0.000136,-0.000889,-0.000056,1,-0.135807, 0.166075, 9.804303,1,1
1778109212998,  1240.605,  1240.605, 0.014439,-0.017248,-0.995761, 0.000029,-0.000035,-0.001992, 0.005878,-0.003020, 0.039219,1, 0.000294, 0.001866,-0.000525,1,-0.135736, 0.166130, 9.804303,1,1
1778109213008,  1240.610,  1240.609, 0.015622,-0.015752,-0.995079, 0.000032,-0.000031,-0.001990, 0.017278, 0.007291, 0.043837,1, 0.000315, 0.000786, 0.000166,1,-0.135777, 0.166134, 9.804302,1,1
1778109213019,  1240.615,  1240.614, 0.014979,-0.014156,-0.998168, 0.000030,-0.000028,-0.001996, 0.011134, 0.027346, 0.015616,1,-0.000370,-0.001060,-0.000934,1,-0.135756, 0.166168, 9.804302,1,1
1778109213030,  1240.619,  1240.619, 0.013906,-0.016613,-0.994917, 0.000027,-0.000034,-0.001989, 0.000606, 0.003253, 0.047502,1, 0.000579, 0.000613, 0.000229,1,-0.135773, 0.166173, 9.804302,1,1
1778109213041,  1240.624,  1240.623, 0.013810,-0.016343,-0.993269, 0.000027,-0.000033,-0.001986, 0.031980, 0.002792, 0.058083,1,-0.000885,-0.002591,-0.000942,1,-0.135718, 0.166128, 9.804303,1,1
1778109213051,  1240.629,  1240.628, 0.016008,-0.018546,-0.999914, 0.000033,-0.000037,-0.002001, 0.021330,-0.015734,-0.001505,1, 0.000166,-0.000649,-0.000628,1,-0.135655, 0.166138, 9.804304,1,1
1778109213062,  1240.633,  1240.633, 0.013251,-0.021766,-0.998420, 0.000026,-0.000044,-0.001997,-0.005682,-0.047321, 0.013151,1,-0.000704,-0.001618,-0.000151,1,-0.135617, 0.166122, 9.804305,1,1
1778109213073,  1240.638,  1240.637, 0.016457,-0.020825,-0.994875, 0.000033,-0.000042,-0.001990, 0.022980,-0.049939, 0.048422,1,-0.002048,-0.001309, 0.000261,1,-0.135577, 0.166065, 9.804306,1,1
1778109213084,  1240.643,  1240.642, 0.012571,-0.020344,-0.996238, 0.000025,-0.000041,-0.001993,-0.012189,-0.033582, 0.034553,1,-0.001092,-0.001449, 0.000601,1,-0.135461, 0.165922, 9.804311,1,1
1778109213094,  1240.647,  1240.647, 0.015448,-0.020437,-0.994270, 0.000031,-0.000041,-0.001988, 0.015990,-0.034496, 0.053852,1, 0.000314, 0.001168, 0.001502,1,-0.135507, 0.165923, 9.804310,1,1
1778109213105,  1240.652,  1240.651, 0.013998,-0.017578,-0.990475, 0.000028,-0.000035,-0.001981, 0.003991,-0.014914, 0.108524,1, 0.001499, 0.000950, 0.001072,1,-0.135521, 0.165992, 9.804309,1,1
1778109213116,  1240.657,  1240.656, 0.013922,-0.015954,-0.994841, 0.000028,-0.000032,-0.001990, 0.000907, 0.009558, 0.048245,1, 0.001364, 0.003413, 0.001815,1,-0.135644, 0.166021, 9.804306,1,1
1778109213127,  1240.661,  1240.661, 0.015541,-0.015836,-0.997998, 0.000031,-0.000032,-0.001997, 0.016706, 0.010749, 0.017290,1, 0.000684, 0.000931, 0.000222,1,-0.135701, 0.166052, 9.804305,1,1
1778109213137,  1240.666,  1240.665, 0.015315,-0.016880,-0.995793, 0.000031,-0.000034,-0.001991,-0.001975,-0.000007, 0.043284,1, 0.001796, 0.001642, 0.000889,1,-0.135732, 0.166144, 9.804303,1,1
1778109213148,  1240.671,  1240.671, 0.014805,-0.014585,-0.998606, 0.000030,-0.000029,-0.001998,-0.001975,-0.000007, 0.043284,1, 0.001796, 0.001642, 0.000889,1,-0.135732, 0.166144, 9.804303,1,1
1778109213159,  1240.675,  1240.675, 0.013867,-0.015485,-1.002361, 0.000027,-0.000031,-0.002005, 0.000257, 0.014302,-0.025504,1, 0.000008,-0.001500, 0.000894,1,-0.135726, 0.166153, 9.804303,1,1
1778109213170,  1240.680,  1240.679, 0.014769,-0.014479,-0.996806, 0.000030,-0.000029,-0.001993, 0.011454, 0.018031, 0.001295,1,-0.000553,-0.001580, 0.000699,1,-0.135695, 0.166147, 9.804303,1,1
1778109213181,  1240.685,  1240.685, 0.012104,-0.012506,-0.993311, 0.000024,-0.000025,-0.001986,-0.016882, 0.043447, 0.063255,1,-0.001520,-0.002108, 0.000380,1,-0.135573, 0.166081, 9.804306,1,1
1778109213191,  1240.690,  1240.689, 0.012804,-0.012931,-0.994172, 0.000026,-0.000026,-0.001988,-0.008569, 0.028334, 0.058835,1,-0.001010,-0.001123, 0.000243,1,-0.135524, 0.166041, 9.804308,1,1
1778109213202,  1240.694,  1240.693, 0.011557,-0.011766,-0.990675, 0.000023,-0.000023,-0.001981,-0.018610, 0.047790, 0.070579,1, 0.000035,-0.000716, 0.000318,1,-0.135482, 0.166007, 9.804309,1,1
1778109213213,  1241.003,  1241.003, 0.014286,-0.014852,-0.994929, 0.000029,-0.000030,-0.001990, 0.004626, 0.020677, 0.047380,1, 0.000227,-0.000432,-0.000572,1,-0.135473, 0.166325, 9.804303,1,1
1778109213224,  1241.008,  1241.007, 0.013723,-0.015478,-0.993874, 0.000028,-0.000031,-0.001987, 0.007721, 0.019881, 0.061332,1,-0.000537,-0.000667,-0.000005,1,-0.135458, 0.166334, 9.804303,1,1
1778109213234,  1241.012,  1241.011, 0.014185,-0.015798,-0.995788, 0.000029,-0.000032,-0.001992,-0.003407, 0.011845, 0.040634,1, 0.001203, 0.000328, 0.000031,1,-0.135449, 0.166355, 9.804303,1,1
1778109213245,  1241.017,  1241.017, 0.014144,-0.016240,-0.995476, 0.000028,-0.000033,-0.001991, 0.005545, 0.002063, 0.047407,1, 0.000243,-0.000253,-0.001059,1,-0.135446, 0.166409, 9.804302,1,1
1778109213256,  1241.022,  1241.021, 0.014080,-0.018196,-0.996777, 0.000028,-0.000037,-0.001994, 0.004114,-0.007879, 0.029210,1,-0.000305,-0.001533,-0.000763,1,-0.135409, 0.166398, 9.804303,1,1
1778109213267,  1241.026,  1241.026, 0.014133,-0.018225,-0.997558, 0.000028,-0.000036,-0.001995, 0.003181,-0.012280, 0.021596,1, 0.000669, 0.000096,-0.000761,1,-0.135418, 0.166455, 9.804302,1,1
1778109213277,  1241.031,  1241.031, 0.014853,-0.019383,-0.997718, 0.000030,-0.000039,-0.001995, 0.010215,-0.023618, 0.020027,1, 0.000316, 0.000996, 0.000226,1,-0.135447, 0.166470, 9.804301,1,1
1778109213288,  1241.036,  1241.035, 0.014044,-0.018498,-0.995796, 0.000028,-0.000037,-0.001992, 0.010159,-0.023095, 0.036276,1,-0.000894,-0.000829,-0.001090,1,-0.135418, 0.166455, 9.804302,1,1
1778109213299,  1241.040,  1241.040, 0.014364,-0.018964,-0.995285, 0.000029,-0.000038,-0.001991, 0.005444,-0.019520, 0.043887,1, 0.000239, 0.000645, 0.000203,1,-0.135426, 0.166451, 9.804302,1,1
1778109213310,  1241.045,  1241.045, 0.014126,-0.018511,-0.994678, 0.000028,-0.000037,-0.001989, 0.003128,-0.015061, 0.049846,1, 0.000814,-0.000315, 0.000585,1,-0.135403, 0.166477, 9.804302,1,1
1778109213320,  1241.050,  1241.049, 0.014887,-0.019235,-0.994938, 0.000030,-0.000039,-0.001990, 0.005331,-0.019344, 0.055526,1, 0.000167, 0.000303, 0.000582,1,-0.135390, 0.166496, 9.804302,1,1
1778109213331,  1241.054,  1241.054, 0.014966,-0.018243,-0.995202, 0.000030,-0.000036,-0.001990, 0.011304,-0.012340, 0.044703,1, 0.001352,-0.000002,-0.000339,1,-0.135462, 0.166567, 9.804299,1,1
1778109213342,  1241.059,  1241.059, 0.015174,-0.019146,-0.996516, 0.000030,-0.000039,-0.001993, 0.013340,-0.021156, 0.031817,1, 0.001374, 0.000581, 0.000413,1,-0.135475, 0.166609, 9.804298,1,1
1778109213353,  1241.064,  1241.063, 0.015127,-0.018978,-0.997608, 0.000030,-0.000038,-0.001996, 0.007909,-0.010431, 0.026998,1, 0.000313, 0.000477,-0.000519,1,-0.135508, 0.166636, 9.804297,1,1
1778109213364,  1241.068,  1241.068, 0.015592,-0.019366,-0.997425, 0.000031,-0.000039,-0.001995, 0.017361,-0.023273, 0.022898,1,-0.000009,-0.000032, 0.000833,1,-0.135542, 0.166640, 9.804297,1,1
1778109213374,  1241.073,  1241.073, 0.015267,-0.018063,-0.997459, 0.000030,-0.000036,-0.001995, 0.014156,-0.010492, 0.022562,1,-0.000024, 0.000512, 0.000795,1,-0.135563, 0.166643, 9.804296,1,1
1778109213385,  1241.078,  1241.077, 0.014286,-0.017458,-0.996777, 0.000028,-0.000035,-0.001993, 0.002903,-0.009554, 0.031242,1,-0.000517,-0.000499, 0.000451,1,-0.135544, 0.166613, 9.804297,1,1
1778109213396,  1241.082,  1241.082, 0.014311,-0.016788,-0.994785, 0.000029,-0.000034,-0.001990, 0.004827, 0.001942, 0.048793,1,-0.001273,-0.000924, 0.000994,1,-0.135514, 0.166571, 9.804298,1,1
1778109213407,  1241.087,  1241.087, 0.013837,-0.016429,-0.994344, 0.000028,-0.000033,-0.001989, 0.000184, 0.005417, 0.053118,1,-0.000766,-0.000184, 0.000636,1,-0.135509, 0.166528, 9.804299,1,1
1778109213417,  1241.092,  1241.091, 0.012518,-0.015239,-0.994098, 0.000025,-0.000030,-0.001988,-0.008909, 0.012880, 0.057494,1, 0.000125,-0.000127, 0.000799,1,-0.135502, 0.166535, 9.804299,1,1
1778109213428,  1241.097,  1241.096, 0.013420,-0.015028,-0.994205, 0.000027,-0.000030,-0.001988,-0.003904, 0.019177, 0.054474,1,-0.000149, 0.000694, 0.000908,1,-0.135517, 0.166551, 9.804299,1,1
1778109213439,  1241.101,  1241.101, 0.012958,-0.015102,-0.995074, 0.000026,-0.000030,-0.001990,-0.008496, 0.018458, 0.045951,1,-0.000154, 0.001294, 0.001292,1,-0.135575, 0.166561, 9.804298,1,1
1778109213450,  1241.106,  1241.105, 0.011896,-0.015246,-0.997433, 0.000024,-0.000031,-0.001995,-0.021784, 0.019408, 0.027242,1, 0.000613, 0.000976, 0.000388,1,-0.135616, 0.166586, 9.804297,1,1
1778109213460,  1241.111,  1241.110, 0.012737,-0.015807,-0.997921, 0.000025,-0.000032,-0.001996,-0.010751, 0.011617, 0.018032,1, 0.000220, 0.000743, 0.000329,1,-0.135659, 0.166631, 9.804296,1,1
1778109213471,  1241.115,  1241.115, 0.012127,-0.014379,-0.996987, 0.000024,-0.000029,-0.001994,-0.016733, 0.025632, 0.027197,1,-0.000025,-0.000005, 0.000016,1,-0.135660, 0.166637, 9.804296,1,1
1778109213482,  1241.120,  1241.119, 0.012312,-0.014836,-0.996574, 0.000025,-0.000030,-0.001993,-0.019257, 0.019837, 0.027118,1, 0.000256,-0.000920,-0.000165,1,-0.135611, 0.166661, 9.804296,1,1
1778109213493,  1241.125,  1241.124, 0.011576,-0.014960,-0.996491, 0.000023,-0.000030,-0.001993,-0.022014, 0.019918, 0.032058,1,-0.000731,-0.002220,-0.000396,1,-0.135522, 0.166621, 9.804297,1,1
1778109213503,  1241.129,  1241.129, 0.012667,-0.014538,-0.994990, 0.000025,-0.000029,-0.001990,-0.011274, 0.024040, 0.046777,1,-0.000371,-0.000706,-0.000305,1,-0.135493, 0.166609, 9.804298,1,1
1778109213514,  1241.134,  1241.133, 0.012510,-0.014818,-0.993604, 0.000025,-0.000030,-0.001987,-0.015114, 0.024372, 0.062850,1,-0.000617,-0.000459,-0.001069,1,-0.135452, 0.166571, 9.804299,1,1
1778109213525,  1241.139,  1241.138, 0.012955,-0.015001,-0.993687, 0.000026,-0.000030,-0.001987,-0.008398, 0.019487, 0.059559,1, 0.001056,-0.000473,-0.000925,1,-0.135438, 0.166601, 9.804299,1,0
1778109213536,  1241.143,  1241.143, 0.013361,-0.014845,-0.994334, 0.000027,-0.000030,-0.001989,-0.004400, 0.021076, 0.053208,1, 0.001064,-0.000719,-0.001158,1,-0.135419, 0.166661, 9.804298,1,0
1778109213546,  1241.148,  1241.147, 0.013831,-0.015642,-0.996544, 0.000028,-0.000031,-0.001993,-0.006132, 0.015513, 0.035026,1, 0.001183, 0.001194,-0.000704,1,-0.135458, 0.166691, 9.804297,1,0
1778109213557,  1241.153,  1241.152, 0.013619,-0.016806,-0.996984, 0.000027,-0.000034,-0.001994,-0.001932, 0.001978, 0.027219,1, 0.002507, 0.001069,-0.001668,1,-0.135499, 0.166800, 9.804296,1,0
1778109213568,  1241.157,  1241.157, 0.014594,-0.016229,-0.997878, 0.000029,-0.000032,-0.001996, 0.007623, 0.007688, 0.018453,1, 0.001095,-0.000268,-0.001541,1,-0.135489, 0.166850, 9.804295,1,0
1778109213579,  1241.162,  1241.161, 0.014945,-0.017745,-0.997177, 0.000030,-0.000036,-0.001994, 0.011546,-0.007549, 0.018835,1,-0.000017,-0.000176,-0.000815,1,-0.135492, 0.166839, 9.804295,1,0
1778109213590,  1241.167,  1241.167, 0.014731,-0.017775,-0.996029, 0.000029,-0.000036,-0.001992, 0.008988,-0.007482, 0.036583,1, 0.000471,-0.001656,-0.001636,1,-0.135460, 0.166838, 9.804295,1,0
1778109213600,  1241.171,  1241.171, 0.014649,-0.017557,-0.995511, 0.000029,-0.000035,-0.001991, 0.008205,-0.005330, 0.041669,1,-0.000556, 0.000097,-0.000854,1,-0.135457, 0.166846, 9.804295,1,0
1778109213611,  1241.224,  1241.223, 0.014004,-0.016633,-0.994923, 0.000028,-0.000033,-0.001990, 0.011635,-0.013407, 0.047784,1, 0.000236,-0.000769,-0.000698,1,-0.135443, 0.166814, 9.804296,1,0
1778109213622,  1241.228,  1241.227, 0.013345,-0.017045,-0.994755, 0.000027,-0.000034,-0.001989,-0.003146, 0.000698, 0.048202,1,-0.001515, 0.000920, 0.000707,1,-0.135729, 0.166627, 9.804295,1,0
1778109213633,  1241.233,  1241.233, 0.013510,-0.016774,-0.994576, 0.000027,-0.000034,-0.001989,-0.003261, 0.002119, 0.050834,1, 0.000320, 0.001220, 0.000601,1,-0.135752, 0.166621, 9.804295,1,0
1778109213643,  1241.238,  1241.237, 0.013231,-0.015480,-0.995421, 0.000026,-0.000031,-0.001991,-0.003179, 0.010602, 0.040354,1, 0.000466, 0.000598, 0.001429,1,-0.135778, 0.166647, 9.804294,1,0
1778109213654,  1241.242,  1241.242, 0.013917,-0.015309,-0.996860, 0.000028,-0.000031,-0.001994, 0.000699, 0.016522, 0.028438,1,-0.000291,-0.000716, 0.000378,1,-0.135771, 0.166647, 9.804294,1,0
1778109213665,  1241.247,  1241.247, 0.012707,-0.014355,-0.997304, 0.000025,-0.000029,-0.001995,-0.011161, 0.025842, 0.024077,1,-0.000716, 0.000172, 0.001171,1,-0.135775, 0.166607, 9.804295,1,0
1778109213676,  1241.252,  1241.251, 0.013817,-0.015191,-0.996200, 0.000028,-0.000030,-0.001992, 0.003574, 0.021878, 0.033963,1, 0.000853, 0.000120, 0.000258,1,-0.135791, 0.166657, 9.804294,1,0
1778109213686,  1241.256,  1241.256, 0.013307,-0.014698,-0.996786, 0.000027,-0.000029,-0.001994,-0.005289, 0.022520, 0.029159,1, 0.000412,-0.000379, 0.000176,1,-0.135787, 0.166665, 9.804294,1,0
1778109213697,  1241.261,  1241.261, 0.012667,-0.014357,-0.995776, 0.000025,-0.000029,-0.001991,-0.011543, 0.025855, 0.039067,1,-0.000724,-0.000079, 0.000027,1,-0.135765, 0.166646, 9.804294,1,0
1778109213708,  1241.266,  1241.265, 0.013287,-0.014717,-0.995329, 0.000027,-0.000029,-0.001991,-0.005747, 0.025671, 0.040779,1,-0.000201,-0.001112,-0.000199,1,-0.135719, 0.166635, 9.804295,1,0
1778109213719,  1241.270,  1241.270, 0.013332,-0.014969,-0.994695, 0.000027,-0.000030,-0.001989,-0.004972, 0.019807, 0.049673,1,-0.000061, 0.000927,-0.000414,1,-0.135723, 0.166604, 9.804296,1,0
1778109213729,  1241.275,  1241.275, 0.012964,-0.015240,-0.995125, 0.000026,-0.000031,-0.001990,-0.008595, 0.017143, 0.045454,1, 0.000046,-0.000052, 0.000281,1,-0.135727, 0.166601, 9.804296,1,0
1778109213740,  1241.280,  1241.279, 0.012383,-0.015442,-0.993880, 0.000025,-0.000031,-0.001988,-0.017905, 0.015429, 0.055427,1, 0.000878, 0.000081,-0.000761,1,-0.135723, 0.166616, 9.804296,1,0
1778109213751,  1241.284,  1241.284, 0.012972,-0.016880,-0.995320, 0.000026,-0.000034,-0.001991,-0.008526, 0.001111, 0.043540,1, 0.000511, 0.000921,-0.000995,1,-0.135740, 0.166651, 9.804295,1,0
1778109213762,  1241.289,  1241.289, 0.012522,-0.016183,-0.995991, 0.000025,-0.000032,-0.001992,-0.012977, 0.007979, 0.036962,1, 0.001054, 0.000934,-0.000348,1,-0.135780, 0.166684, 9.804294,1,0
1778109213773,  1241.294,  1241.293, 0.012487,-0.015716,-0.996561, 0.000025,-0.000032,-0.001993,-0.015626, 0.010416, 0.029964,1, 0.000239, 0.000675,-0.000010,1,-0.135818, 0.166692, 9.804293,1,0
1778109213783,  1241.298,  1241.298, 0.012500,-0.016346,-0.996743, 0.000025,-0.000033,-0.001993,-0.013258, 0.006343, 0.029583,1,-0.001085,-0.000226,-0.000749,1,-0.135842, 0.166636, 9.804293,1,0
1778109213794,  1241.303,  1241.303, 0.012739,-0.015896,-0.996418, 0.000026,-0.000032,-0.001993,-0.010905, 0.010768, 0.032775,1, 0.000703,-0.000805,-0.001080,1,-0.135826, 0.166663, 9.804293,1,0
1778109213805,  1241.308,  1241.307, 0.013016,-0.017035,-0.994767, 0.000026,-0.000034,-0.001990,-0.008016, 0.007561, 0.047229,1, 0.000166, 0.000655,-0.000179,1,-0.135864, 0.166647, 9.804293,1,0
1778109213816,  1241.313,  1241.312, 0.012864,-0.016221,-0.994737, 0.000026,-0.000032,-0.001989,-0.009734, 0.007568, 0.049253,1, 0.000914, 0.000127,-0.002060,1,-0.135888, 0.166643, 9.804293,1,0
1778109213826,  1241.317,  1241.317, 0.013122,-0.016748,-0.995728, 0.000026,-0.000034,-0.001992,-0.007199, 0.002439, 0.039536,1, 0.001131,-0.000373,-0.001286,1,-0.135885, 0.166687, 9.804292,1,0
1778109213837,  1241.626,  1241.625, 0.014020,-0.015654,-0.996849, 0.000028,-0.000031,-0.001994, 0.008469, 0.014107, 0.029998,1,-0.000926,-0.000757, 0.000857,1,-0.135945, 0.166737, 9.804290,1,0
1778109213848,  1241.631,  1241.630, 0.014732,-0.014807,-0.996376, 0.000029,-0.000030,-0.001993, 0.008546, 0.021509, 0.033183,1,-0.000045, 0.000481, 0.001277,1,-0.135932, 0.166718, 9.804291,1,0
1778109213859,  1241.635,  1241.635, 0.015072,-0.015131,-0.995419, 0.000030,-0.000030,-0.001991, 0.011874, 0.018354, 0.042561,1, 0.000074,-0.000051, 0.000030,1,-0.135928, 0.166740, 9.804290,1,0
1778109213869,  1241.640,  1241.639, 0.014713,-0.015539,-0.995669, 0.000029,-0.000031,-0.001991, 0.008244, 0.013238, 0.043310,1,-0.000666,-0.000942,-0.000309,1,-0.135894, 0.166730, 9.804291,1,0
1778109213880,  1241.645,  1241.644, 0.014313,-0.016134,-0.995472, 0.000028,-0.000032,-0.001991, 0.004474, 0.008499, 0.042042,1, 0.000525, 0.000372,-0.000147,1,-0.135888, 0.166720, 9.804291,1,0
1778109213891,  1241.649,  1241.649, 0.013723,-0.016045,-0.995138, 0.000027,-0.000032,-0.001990,-0.001297, 0.009369, 0.045321,1, 0.000184,-0.000366, 0.000052,1,-0.135871, 0.166718, 9.804292,1,0
1778109213902,  1241.654,  1241.653, 0.013784,-0.016063,-0.995717, 0.000028,-0.000032,-0.001991, 0.000331, 0.010074, 0.041178,1, 0.000954,-0.000683, 0.000337,1,-0.135860, 0.166751, 9.804291,1,0
1778109213912,  1241.659,  1241.658, 0.013243,-0.017065,-0.995991, 0.000027,-0.000034,-0.001992,-0.005981,-0.000613, 0.036951,1,-0.000111,-0.000197,-0.000369,1,-0.135848, 0.166732, 9.804292,1,0
1778109213923,  1241.663,  1241.663, 0.012585,-0.017864,-0.996683, 0.000025,-0.000036,-0.001993,-0.012450,-0.008445, 0.030165,1, 0.000300, 0.001315, 0.000512,1,-0.135871, 0.166739, 9.804291,1,0
1778109213934,  1241.668,  1241.667, 0.011845,-0.018185,-0.996246, 0.000023,-0.000036,-0.001992,-0.016401,-0.008483, 0.033622,1, 0.000628, 0.000388,-0.000011,1,-0.135889, 0.166778, 9.804290,1,0
1778109213945,  1241.673,  1241.672, 0.012931,-0.018214,-0.995547, 0.000026,-0.000036,-0.001991,-0.009047,-0.011836, 0.041308,1,-0.000619,-0.000240,-0.000406,1,-0.135857, 0.166781, 9.804291,1,0
1778109213955,  1241.677,  1241.677, 0.012129,-0.017846,-0.995621, 0.000024,-0.000036,-0.001991,-0.016909,-0.008253, 0.040585,1,-0.001382,-0.000347, 0.000553,1,-0.135852, 0.166743, 9.804291,1,0
1778109213966,  1241.682,  1241.681, 0.012126,-0.016835,-0.994809, 0.000024,-0.000034,-0.001989,-0.012531,-0.008075, 0.046035,1, 0.000745,-0.001083, 0.000023,1,-0.135821, 0.166785, 9.804291,1,0
1778109213977,  1241.687,  1241.686, 0.012358,-0.017183,-0.995522, 0.000025,-0.000034,-0.001991,-0.014666,-0.001715, 0.041550,1,-0.000798,-0.000829,-0.000675,1,-0.135848, 0.166784, 9.804291,1,0
1778109213988,  1241.691,  1241.691, 0.011915,-0.017053,-0.995491, 0.000024,-0.000034,-0.001991,-0.019004,-0.000457, 0.041863,1, 0.000096, 0.000590,-0.000153,1,-0.135850, 0.166773, 9.804291,1,0
1778109213999,  1241.696,  1241.695, 0.013085,-0.016410,-0.996286, 0.000026,-0.000033,-0.001993,-0.004583, 0.006602, 0.037886,1,-0.000267, 0.001064, 0.000116,1,-0.135883, 0.166758, 9.804291,1,0
1778109214009,  1241.701,  1241.701, 0.012858,-0.017003,-0.996610, 0.000026,-0.000034,-0.001994,-0.009825, 0.000016, 0.030883,1,-0.000112, 0.001120, 0.000039,1,-0.135927, 0.166759, 9.804290,1,0
1778109214020,  1241.705,  1241.705, 0.013711,-0.016532,-0.996584, 0.000028,-0.000033,-0.001993,-0.001470, 0.004639, 0.031135,1, 0.000414, 0.000163, 0.000189,1,-0.135933, 0.166763, 9.804290,1,0
1778109214031,  1241.710,  1241.709, 0.014630,-0.016383,-0.995971, 0.000029,-0.000033,-0.001992, 0.010655, 0.001490, 0.041189,1,-0.000339,-0.000253, 0.000250,1,-0.135937, 0.166747, 9.804290,1,0
1778109214042,  1241.715,  1241.715, 0.013916,-0.016298,-0.996260, 0.000028,-0.000033,-0.001992, 0.000572, 0.006938, 0.034313,1,-0.000313,-0.000234,-0.000273,1,-0.135896, 0.166763, 9.804290,1,0
1778109214052,  1241.720,  1241.719, 0.014305,-0.016040,-0.995594, 0.000029,-0.000032,-0.001991, 0.000786, 0.006570, 0.041262,1, 0.000457, 0.000250,-0.000382,1,-0.135911, 0.166779, 9.804290,1,0
1778109214063,  1241.724,  1241.723, 0.014910,-0.016478,-0.996092, 0.000030,-0.000033,-0.001992, 0.005010, 0.004284, 0.044392,1,-0.000875, 0.000319,-0.000200,1,-0.135898, 0.166757, 9.804290,1,0
1778109214074,  1241.729,  1241.729, 0.015161,-0.015895,-0.995782, 0.000030,-0.000032,-0.001991, 0.012765, 0.010896, 0.038999,1, 0.000550,-0.000093,-0.000416,1,-0.135908, 0.166779, 9.804290,1,0
1778109214085,  1241.734,  1241.733, 0.014807,-0.017019,-0.996230, 0.000030,-0.000034,-0.001993, 0.006802,-0.000746, 0.039492,1, 0.000522, 0.000293, 0.000310,1,-0.135929, 0.166813, 9.804289,1,0
1778109214095,  1241.738,  1241.737, 0.014533,-0.017350,-0.996007, 0.000029,-0.000035,-0.001992, 0.006413, 0.001072, 0.036850,1,-0.000451,-0.000289,-0.000061,1,-0.135915, 0.166805, 9.804289,1,0
1778109214106,  1241.743,  1241.743, 0.014901,-0.017146,-0.995569, 0.000030,-0.000034,-0.001991, 0.010227,-0.001331, 0.041089,1,-0.000245,-0.000322,-0.000325,1,-0.135905, 0.166810, 9.804289,1,0
1778109214117,  1241.748,  1241.747, 0.014143,-0.017289,-0.995848, 0.000028,-0.000034,-0.001992, 0.005759, 0.002177, 0.043937,1, 0.000392,-0.000404, 0.000387,1,-0.135887, 0.166811, 9.804290,1,0
1778109214128,  1241.752,  1241.751, 0.013969,-0.017173,-0.995556, 0.000028,-0.000034,-0.001991, 0.002815,-0.001633, 0.043050,1, 0.000243,-0.000369,-0.000430,1,-0.135867, 0.166828, 9.804290,1,0
1778109214138,  1241.757,  1241.757, 0.013910,-0.017679,-0.996353, 0.000028,-0.000035,-0.001993, 0.000588,-0.006556, 0.033404,1,-0.000294,-0.000837, 0.000207,1,-0.135813, 0.166817, 9.804291,1,0
1778109214149,  1241.762,  1241.761, 0.013365,-0.016857,-0.995210, 0.000027,-0.000034,-0.001990, 0.003006,-0.005786, 0.034079,1,-0.001142,-0.000339,-0.000278,1,-0.135805, 0.166782, 9.804291,1,0
1778109214160,  1241.766,  1241.765, 0.013972,-0.017238,-0.995180, 0.000028,-0.000035,-0.001990,-0.003575, 0.002706, 0.045342,1, 0.000297, 0.000344, 0.000042,1,-0.135802, 0.166784, 9.804291,1,0
1778109214171,  1241.771,  1241.771, 0.013755,-0.018023,-0.995125, 0.000028,-0.000036,-0.001990,-0.000921,-0.009943, 0.045449,1, 0.000742,-0.000204,-0.000199,1,-0.135810, 0.166802, 9.804291,1,0
1778109214182,  1241.776,  1241.775, 0.013599,-0.017382,-0.995613, 0.000027,-0.000035,-0.001991,-0.003753,-0.010835, 0.044379,1, 0.001053, 0.000720,-0.000237,1,-0.135835, 0.166856, 9.804290,1,0
1778109214192,  1241.780,  1241.779, 0.013084,-0.017334,-0.995983, 0.000026,-0.000035,-0.001992,-0.004894, 0.003924, 0.034643,1,-0.000106, 0.000444,-0.000437,1,-0.135862, 0.166841, 9.804290,1,0
1778109214203,  1241.785,  1241.785, 0.013395,-0.017853,-0.995884, 0.000027,-0.000036,-0.001992,-0.004486,-0.008251, 0.038004,1,-0.000422,-0.000092, 0.000025,1,-0.135844, 0.166824, 9.804290,1,0
1778109214214,  1241.790,  1241.789, 0.013715,-0.016997,-0.996360, 0.000027,-0.000034,-0.001993,-0.003647,-0.000898, 0.035586,1,-0.000044, 0.000505, 0.000279,1,-0.135859, 0.166811, 9.804290,1,0
1778109214225,  1241.794,  1241.793, 0.014449,-0.016741,-0.996186, 0.000029,-0.000033,-0.001992, 0.011183, 0.000681, 0.034269,1,-0.000033,-0.000421,-0.000181,1,-0.135872, 0.166783, 9.804290,1,0
1778109214235,  1241.847,  1241.847, 0.013691,-0.015936,-0.996256, 0.000027,-0.000032,-0.001992,-0.001500, 0.010530, 0.034360,1, 0.000368, 0.000607, 0.000009,1,-0.135767, 0.166807, 9.804292,1,0
1778109214246,  1241.851,  1241.851, 0.013887,-0.016018,-0.995826, 0.000028,-0.000032,-0.001991, 0.000442, 0.009723, 0.038571,1,-0.000805,-0.000884,-0.000386,1,-0.135741, 0.166802, 9.804292,1,0
1778109214257,  1241.856,  1241.855, 0.012799,-0.016425,-0.996118, 0.000026,-0.000033,-0.001993,-0.006489, 0.019049, 0.040001,1, 0.000833,-0.000858, 0.000250,1,-0.135708, 0.166805, 9.804292,1,0
1778109214268,  1241.861,  1241.861, 0.013180,-0.015862,-0.996012, 0.000027,-0.000032,-0.001992,-0.006431, 0.011301, 0.036752,1, 0.000217, 0.000103, 0.000074,1,-0.135683, 0.166852, 9.804292,1,0
1778109214278,  1241.866,  1241.865, 0.013069,-0.016585,-0.995880, 0.000026,-0.000033,-0.001992,-0.010203, 0.003977, 0.037674,1,-0.000101,-0.001030,-0.000392,1,-0.135681, 0.166854, 9.804292,1,0
1778109214289,  1241.870,  1241.869, 0.012622,-0.017657,-0.995584, 0.000025,-0.000035,-0.001991,-0.010897,-0.004387, 0.037707,1,-0.000203,-0.000051,-0.000300,1,-0.135661, 0.166845, 9.804292,1,0
1778109214300,  1241.875,  1241.875, 0.012651,-0.018478,-0.994767, 0.000025,-0.000037,-0.001989,-0.011607,-0.014330, 0.048957,1,-0.000286,-0.000375,-0.000877,1,-0.135669, 0.166877, 9.804292,1,0
1778109214311,  1241.880,  1241.879, 0.012832,-0.017696,-0.995997, 0.000026,-0.000035,-0.001992,-0.010693,-0.009255, 0.038259,1, 0.000093, 0.000412,-0.000668,1,-0.135676, 0.166876, 9.804292,1,0
1778109214321,  1241.884,  1241.883, 0.013360,-0.018272,-0.995784, 0.000027,-0.000037,-0.001992,-0.008204,-0.011887, 0.034819,1,-0.000449, 0.000771, 0.000682,1,-0.135705, 0.166874, 9.804291,1,0
1778109214332,  1241.889,  1241.889, 0.012948,-0.018572,-0.995687, 0.000026,-0.000037,-0.001991,-0.008717,-0.015245, 0.039933,1, 0.000495,-0.000885,-0.000066,1,-0.135687, 0.166885, 9.804291,1,0
1778109214343,  1241.894,  1241.893, 0.012969,-0.018406,-0.995610, 0.000026,-0.000037,-0.001991,-0.009965,-0.016921, 0.033197,1,-0.000019, 0.000367,-0.000688,1,-0.135697, 0.166901, 9.804291,1,0
1778109214354,  1241.898,  1241.897, 0.013075,-0.017857,-0.995223, 0.000026,-0.000036,-0.001990,-0.008384,-0.007083, 0.047701,1,-0.001057, 0.000203, 0.001105,1,-0.135709, 0.166864, 9.804291,1,0
1778109214365,  1241.903,  1241.903, 0.014214,-0.017578,-0.995286, 0.000028,-0.000035,-0.001990, 0.003669,-0.005533, 0.043870,1,-0.000201, 0.000356, 0.000036,1,-0.135723, 0.166846, 9.804291,1,0
1778109214375,  1241.908,  1241.907, 0.013825,-0.017117,-0.996134, 0.000028,-0.000034,-0.001993,-0.001718,-0.002178, 0.037758,1,-0.000712, 0.000027,-0.000203,1,-0.135712, 0.166828, 9.804292,1,0
1778109214386,  1241.912,  1241.911, 0.013937,-0.016589,-0.996461, 0.000028,-0.000033,-0.001993, 0.002730, 0.000302, 0.036685,1,-0.000391, 0.001303, 0.000920,1,-0.135735, 0.166818, 9.804292,1,0
1778109214397,  1241.917,  1241.917, 0.014819,-0.016607,-0.996928, 0.000030,-0.000033,-0.001994, 0.009630, 0.003950, 0.027765,1, 0.000189,-0.000759, 0.000361,1,-0.135692, 0.166807, 9.804293,1,0
1778109214408,  1241.922,  1241.921, 0.016088,-0.016618,-0.995809, 0.000032,-0.000033,-0.001992, 0.014423, 0.000142, 0.036707,1, 0.000272,-0.000009,-0.000026,1,-0.135684, 0.166816, 9.804293,1,0
1778109214418,  1241.926,  1241.925, 0.014840,-0.016434,-0.995673, 0.000030,-0.000033,-0.001991, 0.012357, 0.006606, 0.040131,1,-0.000349,-0.000100, 0.000009,1,-0.135693, 0.166821, 9.804292,1,0
1778109214429,  1241.931,  1241.931, 0.015095,-0.015463,-0.994189, 0.000030,-0.000031,-0.001988, 0.012311, 0.015184, 0.054626,1, 0.001315, 0.000709,-0.000141,1,-0.135728, 0.166831, 9.804292,1,0
1778109214440,  1241.936,  1241.935, 0.015913,-0.015275,-0.996433, 0.000032,-0.000031,-0.001993, 0.021372, 0.022169, 0.041024,1, 0.000713, 0.000663, 0.001125,1,-0.135755, 0.166862, 9.804291,1,0
1778109214451,  1241.940,  1241.939, 0.015684,-0.014463,-0.996696, 0.000031,-0.000029,-0.001994, 0.010544, 0.023097, 0.026108,1, 0.000139, 0.000186, 0.000522,1,-0.135776, 0.166865, 9.804290,1,0
1778109214461,  1242.250,  1242.249, 0.012802,-0.015870,-0.995975, 0.000026,-0.000032,-0.001992,-0.009461, 0.011501, 0.045033,1, 0.000310,-0.000946,-0.000435,1,-0.135806, 0.166742, 9.804292,1,0
1778109214472,  1242.254,  1242.253, 0.013001,-0.017255,-0.995268, 0.000026,-0.000035,-0.001990,-0.003619, 0.003766, 0.036109,1, 0.000109, 0.000524,-0.000139,1,-0.135821, 0.166748, 9.804292,1,0
1778109214483,  1242.259,  1242.259, 0.011630,-0.017596,-0.995398, 0.000023,-0.000035,-0.001991,-0.021800,-0.005797, 0.042767,1,-0.000543,-0.000241,-0.000401,1,-0.135847, 0.166755, 9.804291,1,0
1778109214494,  1242.264,  1242.263, 0.011650,-0.018672,-0.996402, 0.000023,-0.000038,-0.001993,-0.017076,-0.012780, 0.034683,1,-0.000546,-0.000548,-0.001029,1,-0.135833, 0.166741, 9.804292,1,0
1778109214504,  1242.268,  1242.267, 0.010805,-0.019040,-0.995759, 0.000021,-0.000038,-0.001991,-0.027734,-0.013917, 0.039002,1, 0.000707,-0.000955, 0.000074,1,-0.135787, 0.166762, 9.804292,1,0
1778109214515,  1242.273,  1242.273, 0.012062,-0.018593,-0.995503, 0.000024,-0.000037,-0.001991,-0.017500,-0.015570, 0.041740,1, 0.000408, 0.000398,-0.000478,1,-0.135792, 0.166770, 9.804292,1,0
1778109214526,  1242.278,  1242.277, 0.012543,-0.018971,-0.994809, 0.000025,-0.000038,-0.001990,-0.016701,-0.015592, 0.049903,1, 0.000159,-0.001201,-0.000001,1,-0.135748, 0.166781, 9.804292,1,0
1778109214537,  1242.282,  1242.281, 0.011542,-0.018832,-0.995019, 0.000023,-0.000037,-0.001990,-0.017191,-0.022442, 0.050656,1,-0.000090, 0.000408, 0.000519,1,-0.135746, 0.166788, 9.804292,1,0
1778109214547,  1242.287,  1242.287, 0.012851,-0.017824,-0.995020, 0.000026,-0.000035,-0.001990,-0.009742,-0.007938, 0.046481,1, 0.001149, 0.000952, 0.000419,1,-0.135772, 0.166859, 9.804291,1,0
1778109214558,  1242.292,  1242.291, 0.013060,-0.017436,-0.996309, 0.000026,-0.000035,-0.001993,-0.005069,-0.015025, 0.037879,1, 0.000633,-0.000168, 0.001065,1,-0.135757, 0.166900, 9.804290,1,0
1778109214569,  1242.296,  1242.295, 0.013248,-0.017576,-0.995920, 0.000027,-0.000035,-0.001992,-0.007088,-0.000137, 0.039342,1, 0.000404, 0.001315, 0.001034,1,-0.135809, 0.166927, 9.804289,1,0
1778109214580,  1242.301,  1242.301, 0.013880,-0.017772,-0.996695, 0.000028,-0.000036,-0.001993, 0.000276,-0.007322, 0.030047,1, 0.000165, 0.000507, 0.001190,1,-0.135839, 0.166967, 9.804288,1,0
1778109214591,  1242.306,  1242.305, 0.014472,-0.016180,-0.996246, 0.000029,-0.000032,-0.001992, 0.003455, 0.002991, 0.038053,1, 0.000108, 0.000544, 0.001124,1,-0.135864, 0.166974, 9.804287,1,0
1778109214601,  1242.310,  1242.309, 0.014571,-0.016500,-0.996826, 0.000029,-0.000033,-0.001994, 0.006477, 0.009271, 0.030027,1,-0.001028, 0.000611, 0.000092,1,-0.135892, 0.166947, 9.804287,1,0
1778109214612,  1242.315,  1242.315, 0.014778,-0.016591,-0.995806, 0.000030,-0.000033,-0.001991, 0.009003, 0.004245, 0.038763,1, 0.000960, 0.001008,-0.000116,1,-0.135931, 0.166950, 9.804287,1,0
1778109214623,  1242.320,  1242.319, 0.014653,-0.016294,-0.995485, 0.000029,-0.000032,-0.001991, 0.011984, 0.005527, 0.047356,1,-0.000432, 0.000579, 0.001089,1,-0.135950, 0.166943, 9.804286,1,0
1778109214634,  1242.324,  1242.324, 0.016009,-0.016888,-0.995968, 0.000032,-0.000034,-0.001992, 0.021036, 0.001307, 0.037172,1, 0.000909,-0.000049, 0.000618,1,-0.135958, 0.166924, 9.804287,1,0
1778109214644,  1242.329,  1242.329, 0.015879,-0.016431,-0.995831, 0.000032,-0.000033,-0.001992, 0.019819, 0.005765, 0.038521,1,-0.000692,-0.001799,-0.000327,1,-0.135891, 0.166891, 9.804288,1,0
1778109214655,  1242.334,  1242.333, 0.015476,-0.016430,-0.996465, 0.000031,-0.000033,-0.001993, 0.006893, 0.001736, 0.039146,1,-0.001231,-0.000102, 0.000215,1,-0.135864, 0.166865, 9.804289,1,0
1778109214666,  1242.338,  1242.338, 0.014263,-0.016192,-0.995992, 0.000028,-0.000033,-0.001992, 0.004002, 0.008085, 0.036946,1, 0.000321, 0.000496, 0.000906,1,-0.135871, 0.166873, 9.804289,1,0
1778109214677,  1242.343,  1242.343, 0.015089,-0.016925,-0.995534, 0.000030,-0.000034,-0.001991, 0.012051, 0.000908, 0.041434,1,-0.000471, 0.001634,-0.000087,1,-0.135930, 0.166886, 9.804288,1,0
1778109214687,  1242.348,  1242.347, 0.013369,-0.016635,-0.996431, 0.000027,-0.000033,-0.001993, 0.006890,-0.000480, 0.030257,1, 0.000228, 0.001814, 0.000204,1,-0.135993, 0.166884, 9.804287,1,0
1778109214698,  1242.352,  1242.352, 0.013797,-0.017411,-0.996031, 0.000028,-0.000035,-0.001992,-0.000688,-0.003899, 0.036555,1,-0.000226,-0.000201,-0.000077,1,-0.135991, 0.166844, 9.804288,1,0
1778109214709,  1242.357,  1242.357, 0.012872,-0.017888,-0.995292, 0.000026,-0.000036,-0.001991,-0.009765,-0.008604, 0.043809,1,-0.000765,-0.000762, 0.000482,1,-0.135987, 0.166817, 9.804288,1,0
1778109214720,  1242.362,  1242.361, 0.012124,-0.019184,-0.994951, 0.000024,-0.000038,-0.001990,-0.013403,-0.020235, 0.052467,1,-0.000960, 0.000366,-0.000528,1,-0.136005, 0.166804, 9.804288,1,0
1778109214730,  1242.366,  1242.366, 0.011835,-0.020394,-0.995416, 0.000024,-0.000041,-0.001991,-0.019901,-0.033251, 0.042591,1,-0.001622,-0.000296, 0.000120,1,-0.135965, 0.166740, 9.804290,1,0
1778109214741,  1242.371,  1242.371, 0.011007,-0.022761,-0.996237, 0.000022,-0.000046,-0.001993,-0.028070,-0.056530, 0.034543,1,-0.001504, 0.000533, 0.000400,1,-0.136012, 0.166670, 9.804290,1,0
1778109214752,  1242.376,  1242.375, 0.010684,-0.024986,-0.995308, 0.000021,-0.000050,-0.001990,-0.033130,-0.071923, 0.036112,1,-0.002218, 0.000546, 0.000308,1,-0.135991, 0.166612, 9.804292,1,0
1778109214763,  1242.380,  1242.380, 0.011534,-0.026794,-0.996832, 0.000023,-0.000054,-0.001994,-0.022929,-0.096291, 0.028705,1,-0.002386, 0.000599, 0.001457,1,-0.136040, 0.166452, 9.804294,1,0
1778109214774,  1242.385,  1242.385, 0.011910,-0.028065,-0.995378, 0.000024,-0.000056,-0.001991,-0.019253,-0.108822, 0.042970,1,-0.001027, 0.000139, 0.002135,1,-0.136054, 0.166394, 9.804295,1,0
1778109214784,  1242.390,  1242.389, 0.013771,-0.029691,-0.995559, 0.000027,-0.000059,-0.001991, 0.001518,-0.134480, 0.042406,1,-0.000559, 0.000129, 0.003530,1,-0.136060, 0.166371, 9.804295,1,0
1778109214795,  1242.395,  1242.394, 0.014013,-0.032556,-0.997861, 0.000028,-0.000066,-0.001996, 0.001416,-0.152676, 0.018620,1,-0.000643,-0.000294, 0.004194,1,-0.136002, 0.166606, 9.804292,1,0
1778109214806,  1242.399,  1242.399, 0.017237,-0.032800,-0.996212, 0.000035,-0.000066,-0.001992, 0.033037,-0.155072, 0.034793,1,-0.001575, 0.000221, 0.004522,1,-0.136001, 0.166575, 9.804292,1,0
1778109214817,  1242.404,  1242.403, 0.021901,-0.027461,-0.989995, 0.000044,-0.000055,-0.001980, 0.067647,-0.141002, 0.098196,1,-0.002453,-0.000411, 0.004979,1,-0.135973, 0.166453, 9.804295,1,0
1778109214827,  1242.409,  1242.408, 0.022562,-0.021186,-0.996106, 0.000045,-0.000042,-0.001993, 0.085341,-0.041443, 0.035833,1,-0.001379,-0.001332, 0.006531,1,-0.135909, 0.166316, 9.804297,1,0
1778109214838,  1242.413,  1242.413, 0.020549,-0.021649,-0.994634, 0.000041,-0.000044,-0.001989, 0.065597,-0.045957, 0.050272,1, 0.001837, 0.001630, 0.006698,1,-0.135930, 0.166356, 9.804296,1,0
1778109214849,  1242.418,  1242.417, 0.024772,-0.017952,-0.991890, 0.000050,-0.000036,-0.001983, 0.134538,-0.017685, 0.069167,1, 0.000315, 0.002418, 0.006434,1,-0.136036, 0.166398, 9.804295,1,0
1778109214860,  1242.470,  1242.469, 0.008357,-0.011397,-1.004975, 0.000016,-0.000023,-0.002010,-0.047531, 0.072663,-0.032529,1, 0.001775,-0.002444,-0.001547,1,-0.136163, 0.165686, 9.804305,1,0
1778109214870,  1242.474,  1242.474, 0.009751,-0.016533,-1.004768, 0.000020,-0.000033,-0.002009,-0.040371, 0.003624,-0.049105,1, 0.002187,-0.001709,-0.001426,1,-0.135982, 0.165767, 9.804306,1,0
1778109214881,  1242.479,  1242.479, 0.011209,-0.020525,-0.999254, 0.000023,-0.000041,-0.001997,-0.025991,-0.035499, 0.004967,1,-0.000265,-0.003066,-0.001896,1,-0.135890, 0.165783, 9.804307,1,0
1778109214892,  1242.484,  1242.483, 0.011883,-0.019378,-0.995915, 0.000023,-0.000039,-0.001992,-0.022521,-0.040924, 0.032658,1,-0.001610,-0.002361,-0.001122,1,-0.135798, 0.165696, 9.804310,1,0
1778109214903,  1242.488,  1242.488, 0.012815,-0.018480,-0.996920, 0.000025,-0.000037,-0.001994,-0.009980,-0.015689, 0.027870,1,-0.001792,-0.003507,-0.000025,1,-0.135631, 0.165528, 9.804315,1,0
1778109214913,  1242.493,  1242.493, 0.008412,-0.015808,-0.997035, 0.000017,-0.000031,-0.001996,-0.053032, 0.010520, 0.026744,1, 0.001938,-0.003937, 0.000010,1,-0.135501, 0.165558, 9.804317,1,0
1778109214924,  1242.498,  1242.497, 0.012251,-0.021067,-0.984176, 0.000026,-0.000043,-0.001968,-0.067601,-0.041859, 0.162215,1, 0.003204, 0.000748,-0.000049,1,-0.135475, 0.165670, 9.804315,1,0
1778109214935,  1242.502,  1242.502, 0.004276,-0.012674,-0.981284, 0.000008,-0.000024,-0.001961,-0.093601, 0.041433, 0.181200,1,-0.001479,-0.000850, 0.000106,1,-0.135524, 0.165718, 9.804313,1,0
1778109214946,  1242.507,  1242.507, 0.001161,-0.010203,-0.998602, 0.000002,-0.000019,-0.001999,-0.124260, 0.065786, 0.011369,1, 0.004324, 0.006483, 0.000982,1,-0.135688, 0.165873, 9.804308,1,0
1778109214956,  1242.512,  1242.511,-0.002385,-0.027964,-1.001929,-0.000006,-0.000057,-0.002003,-0.140536,-0.074067,-0.048288,1, 0.006670, 0.004808,-0.000774,1,-0.135937, 0.166129, 9.804300,1,0
1778109214967,  1242.516,  1242.516, 0.004207,-0.021791,-0.998355, 0.000009,-0.000044,-0.001996,-0.094974,-0.047673, 0.013776,1,-0.006392, 0.004398,-0.001327,1,-0.136255, 0.165984, 9.804298,1,0
1778109214978,  1242.521,  1242.521, 0.000699,-0.017121,-1.010062, 0.000001,-0.000034,-0.002021,-0.129317,-0.002161,-0.101027,1,-0.005893,-0.002879,-0.000558,1,-0.136156, 0.165703, 9.804304,1,0
1778109214989,  1242.526,  1242.525, 0.003746,-0.009187,-0.994054, 0.000009,-0.000018,-0.001987,-0.116672, 0.044791,-0.103975,1,-0.003613,-0.001861,-0.001128,1,-0.136073, 0.165581, 9.804308,1,0
1778109215000,  1242.530,  1242.530,-0.000952,-0.018268,-0.973061,-0.000002,-0.000037,-0.001945,-0.145081,-0.013393, 0.261839,1, 0.008727,-0.006946,-0.000571,1,-0.135698, 0.165814, 9.804309,1,0
1778109215010,  1242.535,  1242.535, 0.001156,-0.031292,-0.980132, 0.000002,-0.000064,-0.001961,-0.124342,-0.140915, 0.192498,1, 0.000458, 0.001636,-0.000722,1,-0.135693, 0.165958, 9.804307,1,0
1778109215021,  1242.540,  1242.539, 0.011323,-0.023009,-0.998178, 0.000023,-0.000045,-0.001997,-0.047672,-0.118911, 0.069096,1,-0.010942, 0.001392,-0.001521,1,-0.135782, 0.165593, 9.804312,1,0
1778109215032,  1242.545,  1242.544, 0.012722,-0.023811,-1.007788, 0.000026,-0.000048,-0.002017,-0.011106,-0.068384,-0.078707,1,-0.003510, 0.001120,-0.000970,1,-0.135872, 0.165102, 9.804318,1,0
1778109215043,  1242.549,  1242.549, 0.018264,-0.026332,-1.002290, 0.000037,-0.000053,-0.002004, 0.043161,-0.093048,-0.024788,1, 0.001566, 0.002011, 0.000847,1,-0.135958, 0.165189, 9.804316,1,0
1778109215053,  1242.554,  1242.553, 0.014826,-0.018379,-0.984980, 0.000029,-0.000037,-0.001969, 0.021615,-0.033383, 0.130011,1, 0.003410,-0.002403, 0.001886,1,-0.135884, 0.165296, 9.804316,1,0
1778109215064,  1242.559,  1242.558, 0.020992,-0.013305,-0.999846, 0.000043,-0.000026,-0.002002, 0.069811, 0.035249,-0.000839,1, 0.007099, 0.005763, 0.002161,1,-0.136085, 0.165768, 9.804304,1,0
1778109215075,  1242.563,  1242.563, 0.020727,-0.005524,-0.994951, 0.000041,-0.000011,-0.001990, 0.066928, 0.111736, 0.047158,1, 0.003517, 0.008094, 0.001108,1,-0.136387, 0.165928, 9.804297,1,0
1778109215083,  1242.869,  1242.563, 0.020727,-0.005524,-0.994951, 0.000041,-0.000011,-0.001990, 0.066928, 0.111736, 0.047158,1, 0.003517, 0.008094, 0.001108,1,-0.136387, 0.165928, 9.804297,1,0
1778109215086,  1242.873,  1242.873, 0.009042, 0.051479,-0.983639, 0.000013, 0.000105,-0.001969,-0.046676, 0.667011, 0.158174,1, 0.017506, 0.035155, 0.005328,1,-0.135570, 0.162289, 9.804370,1,0
1778109215096,  1242.878,  1242.877, 0.047857,-0.022021,-1.004011, 0.000098,-0.000048,-0.002007, 0.439292, 0.026810, 0.159288,1, 0.049131, 0.028708, 0.002871,1,-0.136928, 0.164091, 9.804321,1,0
1778109215107,  1242.883,  1242.882, 0.008053, 0.010240,-1.057513, 0.000010, 0.000020,-0.002118,-0.058855, 0.265415,-0.566370,1,-0.004879, 0.026245, 0.005688,1,-0.137995, 0.164965, 9.804292,1,0
1778109215118,  1242.887,  1242.887, 0.059551, 0.029760,-1.111058, 0.000130, 0.000067,-0.002229, 0.445315, 0.456831,-1.091478,1, 0.009813, 0.008090,-0.002950,1,-0.138729, 0.165043, 9.804279,1,0
1778109215129,  1242.892,  1242.891, 0.051105,-0.027597,-1.043410, 0.000108,-0.000055,-0.002087, 0.115673,-0.322107,-0.868785,1, 0.008886,-0.009007,-0.002059,1,-0.138357, 0.165764, 9.804273,1,0
1778109215139,  1242.897,  1242.896, 0.032652, 0.026868,-0.959232, 0.000065, 0.000060,-0.001911, 0.183429, 0.426962, 0.397482,1,-0.044652,-0.044092,-0.005501,1,-0.136504, 0.163201, 9.804341,1,0
1778109215150,  1242.900,  1242.901, 0.013259, 0.007694,-1.018150, 0.000025, 0.000014,-0.002044,-0.005315, 0.237988,-0.180271,1,-0.016801,-0.029870,-0.006657,1,-0.135151, 0.162431, 9.804373,1,0
1778109215161,  1242.906,  1242.905, 0.018696, 0.035133,-0.885992, 0.000037, 0.000074,-0.001760,-0.048080, 0.385865, 0.347227,1,-0.021946,-0.015447,-0.006264,1,-0.134464, 0.161567, 9.804397,1,0
1778109215172,  1242.911,  1242.911, 0.016352, 0.001519,-0.870664, 0.000035, 0.000002,-0.001739, 0.026385, 0.177272, 1.266093,1, 0.037511,-0.009473,-0.003810,1,-0.133915, 0.162613, 9.804387,1,0
1778109215183,  1242.915,  1242.915,-0.011836,-0.025596,-0.944910,-0.000029,-0.000054,-0.001895,-0.250333,-0.087611, 0.537967,1, 0.008319, 0.024723,-0.001868,1,-0.134416, 0.163452, 9.804366,1,0
1778109215193,  1242.920,  1242.919, 0.014011, 0.001242,-1.051207, 0.000027, 0.000004,-0.002106, 0.285984, 0.288310,-0.335655,1,-0.006003, 0.028344,-0.010958,1,-0.135816, 0.163030, 9.804354,1,0
1778109215204,  1242.925,  1242.925, 0.003799,-0.060934,-1.039071, 0.000002,-0.000128,-0.002076,-0.099484,-0.432817,-0.385491,1, 0.042705, 0.027897,-0.007814,1,-0.136918, 0.165009, 9.804306,1,0
1778109215215,  1242.930,  1242.929,-0.000227,-0.047491,-1.020813,-0.000004,-0.000092,-0.002040, 0.223417,-0.430026,-0.150747,1, 0.014463,-0.001000,-0.006683,1,-0.137325, 0.165895, 9.804285,1,0
1778109215226,  1242.934,  1242.933, 0.004224,-0.043287,-1.077173, 0.000009,-0.000086,-0.002160,-0.320698,-0.267482,-0.438773,1,-0.008473,-0.005081,-0.001192,1,-0.136891, 0.165680, 9.804295,1,0
1778109215236,  1242.939,  1242.939, 0.014881,-0.030206,-1.066571, 0.000033,-0.000059,-0.002134, 0.009448,-0.131180,-0.655181,1,-0.014467,-0.025268,-0.003600,1,-0.136327, 0.164952, 9.804315,1,0
1778109215247,  1242.944,  1242.943,-0.016613, 0.002832,-0.946832,-0.000035, 0.000008,-0.001887,-0.369485, 0.117863, 0.186830,1,-0.014215,-0.024852, 0.001225,1,-0.135205, 0.164396, 9.804339,1,0
1778109215258,  1242.948,  1242.947,-0.004330,-0.002502,-0.927582,-0.000008,-0.000006,-0.001854,-0.190581, 0.169496, 0.668287,1,-0.015193,-0.015462,-0.001108,1,-0.134606, 0.163792, 9.804358,1,0
1778109215269,  1242.953,  1242.953,-0.010128, 0.026328,-0.948353,-0.000020, 0.000054,-0.001899,-0.233246, 0.421221, 0.504209,1,-0.010203,-0.007788,-0.005419,1,-0.133873, 0.162970, 9.804381,1,0
1778109215279,  1242.958,  1242.957,-0.012083, 0.012216,-0.926753,-0.000025, 0.000023,-0.001850,-0.423412, 0.553223, 0.653556,1, 0.021376, 0.005750,-0.006772,1,-0.134005, 0.163391, 9.804373,1,0
1778109215290,  1242.962,  1242.961, 0.009226,-0.037559,-0.959571, 0.000021,-0.000078,-0.001925,-0.061873,-0.000772, 0.543853,1, 0.052813, 0.019050,-0.009549,1,-0.134657, 0.165376, 9.804331,1,0
1778109215301,  1242.967,  1242.967, 0.000273,-0.040273,-0.995067,-0.000002,-0.000080,-0.001989,-0.132942,-0.228490, 0.046027,1, 0.008051, 0.019815,-0.006260,1,-0.135742, 0.166500, 9.804296,1,0
1778109215312,  1242.972,  1242.971,-0.006598,-0.062406,-1.135036,-0.000015,-0.000127,-0.002278,-0.140271,-0.378155,-1.103743,1,-0.000314, 0.008229,-0.008046,1,-0.136221, 0.166622, 9.804288,1,0
1778109215322,  1242.976,  1242.975, 0.025434,-0.098389,-1.060570, 0.000055,-0.000198,-0.002118,-0.050821,-0.509801,-1.183402,1,-0.016532, 0.006850,-0.007326,1,-0.136449, 0.166038, 9.804295,1,0
1778109215333,  1242.981,  1242.981, 0.018535,-0.134766,-0.995352, 0.000038,-0.000273,-0.001983, 0.046297,-1.156237, 0.043250,1,-0.020283,-0.038493, 0.000298,1,-0.135231, 0.165244, 9.804325,1,0
1778109215344,  1242.986,  1242.985,-0.031346,-0.123594,-1.075281,-0.000068,-0.000247,-0.002157,-0.565399,-1.014498,-0.797040,1,-0.062181,-0.040397, 0.012904,1,-0.133505, 0.163161, 9.804383,1,0
1778109215355,  1242.990,  1242.989, 0.063442,-0.119392,-0.948810, 0.000140,-0.000238,-0.001894, 0.117632,-1.019580,-0.364165,1,-0.059540,-0.008961, 0.009515,1,-0.132946, 0.160617, 9.804433,1,0
1778109215366,  1242.995,  1242.995, 0.018107,-0.106465,-0.800500, 0.000030,-0.000213,-0.001587, 0.046967,-0.884197, 1.954257,1,-0.012041,-0.038068, 0.029215,1,-0.130333, 0.159853, 9.804481,1,0
1778109215376,  1243.000,  1242.999, 0.026315,-0.043611,-0.962665, 0.000058,-0.000081,-0.001940, 0.156287,-0.467679, 1.029476,1,-0.020004,-0.012888, 0.037496,1,-0.129576, 0.159338, 9.804500,1,0
1778109215387,  1243.004,  1243.003, 0.062801,-0.084269,-0.951840, 0.000125,-0.000174,-0.001898,-0.044058,-0.449809, 0.337111,1,-0.015146, 0.023796, 0.035901,1,-0.129991, 0.158477, 9.804507,1,0
1778109215398,  1243.009,  1243.009, 0.105773,-0.060400,-0.948519, 0.000222,-0.000118,-0.001896, 0.905376,-0.433270, 0.502682,1,-0.000834, 0.007266, 0.032501,1,-0.131948, 0.159051, 9.804472,1,0
1778109215409,  1243.014,  1243.013, 0.182037,-0.279943,-1.208962, 0.000363,-0.000588,-0.002428, 0.033520,-1.663447,-0.436672,1,-0.021877, 0.053086, 0.039865,1,-0.132892, 0.158412, 9.804470,1,0
1778109215419,  1243.018,  1243.018, 0.174630,-0.089164,-1.361591, 0.000363,-0.000163,-0.002747, 1.579464,-0.721839,-3.548083,1,-0.163719,-0.117747, 0.048532,1,-0.132333, 0.151545, 9.804586,1,0
1778109215430,  1243.023,  1243.023, 0.065393, 0.036370,-1.128786, 0.000115, 0.000090,-0.002233, 0.510591, 0.505253,-1.264955,1,-0.029858,-0.001612, 0.058535,1,-0.130684, 0.148400, 9.804656,1,0
1778109215441,  1243.028,  1243.027, 0.055417,-0.102143,-1.004506, 0.000096,-0.000214,-0.001994, 1.281653,-1.115857,-0.260491,1, 0.039640,-0.067237, 0.052539,1,-0.129079, 0.150363, 9.804647,1,0
1778109215452,  1243.032,  1243.032, 0.092359, 0.014602,-0.947211, 0.000191, 0.000040,-0.001897, 0.779245, 0.290480, 0.515764,1,-0.091305,-0.019295, 0.069881,1,-0.126365, 0.146717, 9.804738,1,0
1778109215462,  1243.037,  1243.037, 0.156851,-0.006776,-0.900160, 0.000324,-0.000008,-0.001794, 1.412675, 0.077651, 0.977237,1,-0.062894,-0.041448, 0.059729,1,-0.125241, 0.143717, 9.804797,1,0
1778109215473,  1243.042,  1243.041, 0.120871,-0.078706,-1.104801, 0.000241,-0.000165,-0.002227, 0.922475,-1.162285,-0.565207,1,-0.045921,-0.042599, 0.062060,1,-0.123266, 0.142182, 9.804845,1,0
1778109215484,  1243.093,  1243.092, 0.154490, 0.316722,-0.531532, 0.000319, 0.000648,-0.001070, 1.435305, 3.279876, 4.592240,1, 0.094293,-0.190226,-0.003792,1,-0.078540, 0.174485, 9.804783,1,0
1778109215495,  1243.097,  1243.097, 0.013740,-0.023523,-1.009068, 0.000009,-0.000080,-0.002062, 0.058011,-0.050948,-0.090880,1, 0.150888, 0.004145,-0.002062,1,-0.076761, 0.180678, 9.804685,1,0
1778109215505,  1243.102,  1243.101, 0.248404,-0.041105,-1.119683, 0.000492,-0.000079,-0.002205, 2.678839,-1.023406,-2.898366,1, 0.060975, 0.005247,-0.024877,1,-0.078230, 0.184028, 9.804611,1,0
1778109215516,  1243.107,  1243.106, 0.088274,-0.036278,-1.048850, 0.000138,-0.000077,-0.002074, 0.791572,-0.169849,-0.481099,1, 0.071650,-0.077452,-0.012677,1,-0.073614, 0.186365, 9.804603,1,0
1778109215527,  1243.111,  1243.111, 0.203175, 0.009916,-1.103378, 0.000404, 0.000015,-0.002206, 1.919897, 0.284913,-1.015859,1, 0.027459,-0.029741,-0.010563,1,-0.072385, 0.187838, 9.804584,1,0
1778109215538,  1243.116,  1243.115, 0.066332, 0.145225,-0.956149, 0.000109, 0.000292,-0.001909, 2.627427, 1.173995,-0.796316,1, 0.026080,-0.082183,-0.011367,1,-0.070783, 0.188337, 9.804585,1,0
1778109215548,  1243.121,  1243.120, 0.177932, 0.092320,-0.874338, 0.000372, 0.000185,-0.001745, 1.681510, 1.095949, 1.230262,1, 0.028493,-0.047924,-0.031017,1,-0.063114, 0.190777, 9.804591,1,0
1778109215559,  1243.125,  1243.125, 0.163783, 0.005813,-1.078672, 0.000329,-0.000004,-0.002182, 1.546018, 0.247037,-0.773534,1,-0.051081,-0.109239,-0.037357,1,-0.059464, 0.189712, 9.804634,1,0
1778109215570,  1243.130,  1243.129, 0.126456, 0.213862,-1.054525, 0.000249, 0.000441,-0.002096, 1.160315, 2.279984,-1.305580,1,-0.115642,-0.097653,-0.045413,1,-0.055466, 0.185059, 9.804747,1,0
1778109215581,  1243.135,  1243.134, 0.152482, 0.030652,-0.933084, 0.000305, 0.000042,-0.001855, 1.445216, 0.485555, 0.654344,1, 0.027917,-0.115505,-0.066307,1,-0.049412, 0.185137, 9.804778,1,0
1778109215592,  1243.139,  1243.139, 0.110477, 0.010307,-0.925618, 0.000208, 0.000015,-0.001851, 1.037803, 0.285352, 0.727604,1,-0.048653,-0.105930,-0.068807,1,-0.044954, 0.183972, 9.804821,1,0
1778109215602,  1243.144,  1243.143, 0.131488, 0.057585,-0.992000, 0.000266, 0.000120,-0.001986, 1.617690, 0.889650, 0.501207,1,-0.069150,-0.085677,-0.075922,1,-0.041733, 0.181136, 9.804888,1,0
1778109215613,  1243.149,  1243.149, 0.133425,-0.032280,-1.103619, 0.000264,-0.000074,-0.002216, 0.826986, 0.272322,-0.361601,1,-0.061394,-0.070743,-0.078743,1,-0.038529, 0.178835, 9.804943,1,0
1778109215624,  1243.153,  1243.153, 0.183673,-0.009296,-1.187535, 0.000378,-0.000017,-0.002390, 1.765573, 0.082779,-1.840698,1,-0.095241,-0.092484,-0.089190,1,-0.035074, 0.173343, 9.805055,1,0
1778109215635,  1243.158,  1243.157, 0.164868,-0.040727,-1.076248, 0.000331,-0.000084,-0.002139, 1.416149, 0.196054,-1.051566,1,-0.055260,-0.091622,-0.089360,1,-0.031404, 0.170661, 9.805115,1,0
1778109215645,  1243.163,  1243.163, 0.151341,-0.087782,-1.067943, 0.000301,-0.000182,-0.002135, 1.458498,-0.692039,-0.667781,1,-0.053057,-0.127238,-0.086647,1,-0.024869, 0.168478, 9.805171,1,0
