Time,GPS_ts,fGPS_ts,scaledAccelX,scaledAccelY,scaledAccelZ,deltaVelX,deltaVelY,deltaVelZ,estLinearAccelX,estLinearAccelY,estLinearAccelZ,estLinearAccel:valid,estAngularRateX,estAngularRateY,estAngularRateZ,estAngularRate:valid,estGravityX,estGravityY,estGravityZ,estGravity:valid,flag
1778258699772,  3610.904,  3610.904,-0.032849, 0.020694,-0.996227,-0.000321, 0.000198,-0.009970,-0.007326,-0.006501, 0.029708,1, 0.004204, 0.002415, 0.002597,1, 0.314732,-0.209310, 9.799363,1,0
1778258699772,  3610.929,  3610.924,-0.044586, 0.024415,-0.992328,-0.000446, 0.000247,-0.009925,-0.094440, 0.038569, 0.082562,1, 0.001655, 0.000805, 0.001234,1, 0.314430,-0.208674, 9.799386,1,0
1778258699772,  3610.954,  3610.954,-0.044216, 0.020870,-0.996179,-0.000442, 0.000210,-0.009961,-0.119251,-0.004234, 0.030204,1,-0.000887,-0.000530,-0.000599,1, 0.314382,-0.208927, 9.799382,1,0
1778258699772,  3610.979,  3610.974,-0.039516, 0.021846,-0.995954,-0.000398, 0.000216,-0.009964,-0.084463, 0.009124, 0.034637,1, 0.000272,-0.000193, 0.000442,1, 0.313917,-0.209030, 9.799396,1,0
1778258699772,  3611.004,  3610.999,-0.037310, 0.021739,-0.994926,-0.000373, 0.000215,-0.009946,-0.051962, 0.004734, 0.042516,1, 0.001918,-0.000350, 0.000585,1, 0.313934,-0.208397, 9.799408,1,0
1778258699773,  3611.029,  3611.024,-0.033640, 0.021477,-0.994169,-0.000338, 0.000213,-0.009946,-0.029356,-0.001627, 0.052285,1, 0.001438,-0.000836, 0.000121,1, 0.314056,-0.207965, 9.799414,1,0
1778258699773,  3611.049,  3611.049,-0.030418, 0.021121,-0.995997,-0.000303, 0.000215,-0.009956, 0.015905,-0.000668, 0.032018,1, 0.000661,-0.001374, 0.000103,1, 0.314245,-0.207772, 9.799412,1,0
1778258699773,  3611.074,  3611.074,-0.027732, 0.019641,-0.995109,-0.000283, 0.000196,-0.009956, 0.042363,-0.014881, 0.040724,1, 0.001833,-0.000765, 0.000047,1, 0.314344,-0.207439, 9.799416,1,0
1778258699773,  3611.099,  3611.094,-0.026511, 0.020080,-0.995502,-0.000264, 0.000200,-0.009951, 0.052652,-0.008089, 0.047900,1, 0.001050, 0.000607, 0.000409,1, 0.314276,-0.207044, 9.799426,1,0
1778258699773,  3611.124,  3611.124,-0.026054, 0.020727,-0.994592,-0.000261, 0.000206,-0.009947, 0.058854,-0.003555, 0.045813,1,-0.000875,-0.000762,-0.000485,1, 0.314381,-0.206842, 9.799427,1,0
1778258699773,  3611.139,  3611.134,-0.024869, 0.020324,-0.995062,-0.000249, 0.000204,-0.009947, 0.067397,-0.001367, 0.043043,1,-0.000000, 0.000279,-0.000268,1, 0.314367,-0.206844, 9.799427,1,0
1778258699784,  3635.974,  3635.974,-0.032224, 0.021683,-0.995508,-0.000320, 0.000214,-0.009955, 0.067397,-0.001367, 0.043043,1,-0.000000, 0.000279,-0.000268,1, 0.314367,-0.206844, 9.799427,1,0
1778258699806,  3635.999,  3635.994,-0.032038, 0.021972,-0.994650,-0.000320, 0.000220,-0.009949, 0.001701,-0.001043, 0.040674,1,-0.000143,-0.000259, 0.000377,1, 0.314169,-0.211953, 9.799324,1,0
1778258699827,  3636.019,  3636.014,-0.031821, 0.020939,-0.995568,-0.000322, 0.000211,-0.009953,-0.000209,-0.005265, 0.039733,1,-0.000766,-0.000219, 0.000162,1, 0.314246,-0.212090, 9.799319,1,0
1778258699854,  3636.044,  3636.044,-0.031723, 0.021242,-0.995696,-0.000319, 0.000211,-0.009957, 0.003092,-0.003771, 0.034876,1, 0.000328, 0.000613, 0.000237,1, 0.314164,-0.212070, 9.799322,1,0
1778258699876,  3636.069,  3636.064,-0.032020, 0.022617,-0.994613,-0.000318, 0.000230,-0.009945, 0.003361,-0.000782, 0.041721,1,-0.000242,-0.000181, 0.000664,1, 0.314170,-0.212167, 9.799319,1,0
1778258699898,  3636.089,  3636.089,-0.031916, 0.020775,-0.995103,-0.000317, 0.000211,-0.009949, 0.001160,-0.008528, 0.040690,1, 0.000403,-0.000323,-0.000210,1, 0.314163,-0.212250, 9.799318,1,0
1778258699924,  3636.114,  3636.114,-0.031557, 0.021515,-0.995351,-0.000317, 0.000215,-0.009952, 0.004584,-0.001161, 0.038266,1, 0.000644, 0.000312, 0.000254,1, 0.314047,-0.212135, 9.799324,1,0
1778258699946,  3636.139,  3636.134,-0.032083, 0.021536,-0.995256,-0.000323, 0.000214,-0.009953, 0.002576,-0.003671, 0.037417,1, 0.000151, 0.000248, 0.000322,1, 0.313990,-0.212122, 9.799327,1,0
1778258699969,  3636.159,  3636.159,-0.032144, 0.021852,-0.995034,-0.000321, 0.000220,-0.009951,-0.001114, 0.002210, 0.041376,1,-0.000346,-0.000599,-0.000426,1, 0.314132,-0.212094, 9.799322,1,0
1778258699994,  3636.184,  3636.184,-0.032019, 0.021854,-0.995927,-0.000319, 0.000218,-0.009959, 0.000218, 0.002190, 0.032614,1,-0.000322,-0.000531, 0.000306,1, 0.314229,-0.212137, 9.799318,1,0
1778258700016,  3636.209,  3636.204,-0.031446, 0.021431,-0.995215,-0.000315, 0.000215,-0.009952, 0.005918, 0.001079, 0.041627,1,-0.000064,-0.000074,-0.000510,1, 0.314279,-0.212183, 9.799315,1,0
1778258700039,  3636.229,  3636.229,-0.031543, 0.022022,-0.995870,-0.000316, 0.000219,-0.009960, 0.004961, 0.003910, 0.033172,1, 0.000154,-0.000315, 0.000128,1, 0.314297,-0.212050, 9.799318,1,0
1778258700064,  3636.254,  3636.254,-0.031710, 0.021695,-0.995132,-0.000316, 0.000217,-0.009952, 0.003322, 0.000595, 0.040406,1,-0.000683, 0.000268, 0.000204,1, 0.314285,-0.212180, 9.799315,1,0
1778258700086,  3636.279,  3636.274,-0.032190, 0.021492,-0.995140,-0.000322, 0.000213,-0.009954, 0.001798, 0.000384, 0.037301,1, 0.000278, 0.000165, 0.000734,1, 0.314304,-0.212163, 9.799315,1,0
1778258700109,  3636.299,  3636.299,-0.032149, 0.021910,-0.995093,-0.000322, 0.000220,-0.009953,-0.001005, 0.002601, 0.040783,1,-0.000259,-0.000489, 0.000045,1, 0.314280,-0.212275, 9.799314,1,0
1778258700134,  3636.324,  3636.324,-0.032244, 0.021908,-0.995396,-0.000323, 0.000218,-0.009952,-0.001952, 0.002534, 0.037812,1,-0.000025,-0.000190, 0.000200,1, 0.314262,-0.212315, 9.799314,1,0
1778258700156,  3636.349,  3636.344,-0.032084, 0.021513,-0.995430,-0.000319, 0.000214,-0.009957, 0.004426,-0.005334, 0.043919,1,-0.000725, 0.000344, 0.000109,1, 0.314243,-0.212332, 9.799314,1,0
1778258700179,  3636.369,  3636.369,-0.031834, 0.022043,-0.995043,-0.000320, 0.000221,-0.009949, 0.002087, 0.003768, 0.041273,1, 0.000309, 0.000540,-0.000579,1, 0.314255,-0.212388, 9.799313,1,0
1778258700205,  3636.394,  3636.394,-0.031777, 0.021824,-0.995443,-0.000317, 0.000223,-0.009955, 0.002583, 0.001525, 0.037351,1, 0.000086, 0.000068,-0.000340,1, 0.314209,-0.212489, 9.799312,1,0
1778258700226,  3636.419,  3636.414,-0.030974, 0.020812,-0.995428,-0.000310, 0.000207,-0.009954, 0.006315, 0.001443, 0.043008,1,-0.000441, 0.000622,-0.000625,1, 0.314089,-0.212435, 9.799316,1,0
1778258700249,  3636.444,  3636.439,-0.031536, 0.021002,-0.995108,-0.000314, 0.000211,-0.009951, 0.004818,-0.006533, 0.040636,1,-0.000026,-0.000460, 0.000146,1, 0.314091,-0.212489, 9.799315,1,0
1778258700275,  3636.464,  3636.464,-0.031024, 0.021738,-0.995610,-0.000311, 0.000220,-0.009955,-0.000291,-0.000431, 0.038815,1,-0.000364, 0.000322, 0.000300,1, 0.314101,-0.212462, 9.799315,1,0
1778258700296,  3636.489,  3636.484,-0.032221, 0.021688,-0.995633,-0.000322, 0.000220,-0.009957,-0.000668, 0.001595, 0.046271,1,-0.000531, 0.000131, 0.000574,1, 0.314086,-0.212479, 9.799315,1,0
1778258700319,  3636.514,  3636.509,-0.031838, 0.021654,-0.995589,-0.000318, 0.000216,-0.009956, 0.001905,-0.000128, 0.035924,1, 0.000216,-0.000140,-0.000015,1, 0.314137,-0.212474, 9.799314,1,0
1778258700345,  3636.534,  3636.534,-0.031731, 0.021991,-0.995143,-0.000318, 0.000218,-0.009951, 0.002943, 0.003174, 0.040291,1, 0.000602, 0.000248, 0.000390,1, 0.314114,-0.212465, 9.799315,1,0
1778258700366,  3636.559,  3636.554,-0.031534, 0.021308,-0.995049,-0.000316, 0.000214,-0.009950, 0.009116, 0.003827, 0.038460,1, 0.000424, 0.000426, 0.000490,1, 0.314106,-0.212417, 9.799316,1,0
1778258700389,  3636.584,  3636.579,-0.031942, 0.020799,-0.995579,-0.000317, 0.000210,-0.009956, 0.000900,-0.008303, 0.036020,1, 0.000500,-0.000721,-0.000260,1, 0.314169,-0.212251, 9.799318,1,0
1778258700415,  3636.604,  3636.604,-0.031171, 0.021876,-0.995262,-0.000314, 0.000218,-0.009953, 0.008509, 0.002285, 0.039132,1, 0.000232, 0.000221, 0.000029,1, 0.314182,-0.212240, 9.799317,1,0
1778258700436,  3636.629,  3636.624,-0.032020, 0.021872,-0.995042,-0.000320, 0.000219,-0.009948, 0.000647,-0.000030, 0.038405,1,-0.000475, 0.001088,-0.000280,1, 0.314074,-0.212238, 9.799321,1,0
1778258700459,  3636.654,  3636.649,-0.032000, 0.021696,-0.995344,-0.000321, 0.000217,-0.009952, 0.000311, 0.000455, 0.038326,1,-0.001434, 0.000785, 0.000338,1, 0.314094,-0.212354, 9.799318,1,0
1778258700485,  3636.674,  3636.674,-0.031837, 0.022107,-0.995371,-0.000319, 0.000220,-0.009953, 0.001801, 0.004378, 0.038061,1,-0.000593,-0.000288,-0.000265,1, 0.314028,-0.212436, 9.799318,1,0
1778258700506,  3636.699,  3636.694,-0.031747, 0.021647,-0.994819,-0.000318, 0.000218,-0.009948, 0.000130, 0.004385, 0.039620,1, 0.000104, 0.000297,-0.000030,1, 0.314005,-0.212510, 9.799317,1,0
1778258700529,  3636.724,  3636.719,-0.031570, 0.021090,-0.995023,-0.000318, 0.000211,-0.009950, 0.004354,-0.005697, 0.041476,1,-0.000311, 0.001119, 0.000262,1, 0.313911,-0.212529, 9.799320,1,0
1778258700555,  3636.744,  3636.744,-0.032122, 0.022601,-0.995182,-0.000318, 0.000223,-0.009951,-0.001073, 0.009083, 0.039917,1, 0.000138,-0.000719, 0.000188,1, 0.313962,-0.212553, 9.799318,1,0
1778258700577,  3636.769,  3636.764,-0.031876, 0.021640,-0.995149,-0.000319, 0.000216,-0.009951, 0.003833, 0.000053, 0.041252,1, 0.000336, 0.000183, 0.000353,1, 0.313903,-0.212558, 9.799320,1,0
1778258700604,  3636.794,  3636.794,-0.031676, 0.021783,-0.995413,-0.000319, 0.000217,-0.009955, 0.003221, 0.001037, 0.037653,1,-0.000719, 0.000058, 0.000069,1, 0.313856,-0.212601, 9.799320,1,0
1778258700625,  3636.814,  3636.814,-0.031717, 0.021627,-0.994960,-0.000317, 0.000221,-0.009948, 0.002655,-0.000530, 0.042102,1, 0.000257, 0.000140, 0.000291,1, 0.313691,-0.212614, 9.799325,1,0
1778258700647,  3636.839,  3636.834,-0.031746, 0.021738,-0.994840,-0.000317, 0.000214,-0.009950, 0.001402,-0.003041, 0.041295,1, 0.000672, 0.000398,-0.000189,1, 0.313663,-0.212597, 9.799327,1,0
1778258700674,  3636.864,  3636.864,-0.032031, 0.021947,-0.995046,-0.000321, 0.000218,-0.009950,-0.000415, 0.002634, 0.041256,1,-0.000043, 0.000156, 0.000473,1, 0.313701,-0.212597, 9.799325,1,0
1778258700695,  3636.889,  3636.884,-0.031530, 0.020825,-0.995926,-0.000316, 0.000209,-0.009956, 0.001257,-0.006090, 0.040527,1, 0.000337, 0.000071,-0.000041,1, 0.313759,-0.212513, 9.799325,1,0
1778258700717,  3636.909,  3636.904,-0.032174, 0.021721,-0.994603,-0.000322, 0.000217,-0.009948, 0.003099,-0.002018, 0.039500,1,-0.000210, 0.000105,-0.000228,1, 0.313683,-0.212534, 9.799327,1,0
1778258700744,  3636.934,  3636.934,-0.031764, 0.021400,-0.995768,-0.000318, 0.000217,-0.009958, 0.002136,-0.002729, 0.034183,1,-0.000697,-0.000204,-0.000103,1, 0.313638,-0.212615, 9.799327,1,0
1778258700765,  3636.959,  3636.954,-0.031874, 0.021533,-0.995485,-0.000318, 0.000214,-0.009953, 0.001758, 0.001665, 0.044247,1,-0.000003,-0.000468,-0.000519,1, 0.313720,-0.212600, 9.799325,1,0
1778258700787,  3636.979,  3636.974,-0.032111, 0.021196,-0.994278,-0.000320, 0.000209,-0.009943, 0.000246,-0.001632, 0.048483,1,-0.000548, 0.000268,-0.000342,1, 0.313686,-0.212605, 9.799326,1,0
1778258700814,  3637.004,  3637.004,-0.032103, 0.022256,-0.995253,-0.000322, 0.000219,-0.009953,-0.001210, 0.005691, 0.039227,1,-0.000289, 0.000574, 0.000219,1, 0.313594,-0.212573, 9.799330,1,0
1778258700835,  3637.029,  3637.024,-0.031667, 0.021501,-0.995569,-0.000314, 0.000215,-0.009954, 0.004291, 0.001006, 0.039784,1, 0.000492,-0.000150,-0.000683,1, 0.313645,-0.212474, 9.799330,1,0
1778258700857,  3637.049,  3637.044,-0.031929, 0.021585,-0.994385,-0.000319, 0.000214,-0.009946, 0.006051,-0.004645, 0.036825,1, 0.000008, 0.000291,-0.000454,1, 0.313623,-0.212513, 9.799330,1,0
1778258700884,  3637.074,  3637.074,-0.032547, 0.021556,-0.995603,-0.000327, 0.000216,-0.009954,-0.005495,-0.001114, 0.035801,1,-0.000440,-0.000578, 0.000110,1, 0.313704,-0.212518, 9.799327,1,0
1778258700905,  3637.099,  3637.094,-0.032129, 0.022146,-0.995130,-0.000323, 0.000220,-0.009952, 0.000025, 0.004705, 0.040853,1,-0.000046,-0.000266,-0.000059,1, 0.313709,-0.212529, 9.799327,1,0
1778258700927,  3637.119,  3637.114,-0.031753, 0.022098,-0.994361,-0.000318, 0.000221,-0.009946,-0.004519,-0.003080, 0.045319,1, 0.000813,-0.000446, 0.000463,1, 0.313795,-0.212443, 9.799326,1,0
1778258700954,  3637.144,  3637.144,-0.031826, 0.021138,-0.995570,-0.000319, 0.000215,-0.009952, 0.001668,-0.005253, 0.036122,1,-0.000042,-0.000041,-0.000069,1, 0.313779,-0.212546, 9.799324,1,0
1778258700975,  3637.169,  3637.164,-0.031512, 0.022225,-0.995123,-0.000316, 0.000221,-0.009953, 0.012872, 0.005392, 0.041892,1, 0.000085,-0.000803, 0.000159,1, 0.313877,-0.212658, 9.799318,1,0
1778258700997,  3637.189,  3637.184,-0.031011, 0.022015,-0.995462,-0.000308, 0.000221,-0.009951, 0.006653,-0.003909, 0.042350,1, 0.001249,-0.000087, 0.000012,1, 0.313872,-0.212629, 9.799319,1,0
1778258701024,  3637.214,  3637.214,-0.030768, 0.021176,-0.995232,-0.000308, 0.000210,-0.009953, 0.012238,-0.004970, 0.039420,1, 0.000219,-0.000600, 0.000179,1, 0.313988,-0.212628, 9.799315,1,0
1778258701046,  3637.239,  3637.234,-0.032256, 0.021905,-0.994946,-0.000321, 0.000218,-0.009947, 0.000430, 0.001486, 0.037647,1,-0.000062, 0.000063,-0.000351,1, 0.313980,-0.212626, 9.799315,1,0
1778258701067,  3637.259,  3637.254,-0.032682, 0.021825,-0.995196,-0.000328, 0.000218,-0.009953, 0.000484, 0.000334, 0.035813,1,-0.000118,-0.001186, 0.000081,1, 0.314095,-0.212711, 9.799311,1,0
1778258701094,  3637.284,  3637.284,-0.033210, 0.021187,-0.995264,-0.000331, 0.000215,-0.009955,-0.011533,-0.004941, 0.039103,1,-0.000295, 0.000073,-0.000054,1, 0.314140,-0.212719, 9.799309,1,0
1778258701116,  3637.309,  3637.304,-0.032350, 0.021979,-0.995169,-0.000325, 0.000218,-0.009950,-0.009882, 0.000183, 0.044206,1,-0.000520,-0.000431, 0.000276,1, 0.314195,-0.212719, 9.799307,1,0
1778258701138,  3637.329,  3637.329,-0.032072, 0.021802,-0.995318,-0.000324, 0.000218,-0.009954,-0.000410, 0.001074, 0.038573,1,-0.000404, 0.000450,-0.000339,1, 0.314092,-0.212747, 9.799310,1,0
1778258701164,  3637.354,  3637.354,-0.031841, 0.021065,-0.995945,-0.000318, 0.000212,-0.009958, 0.001786,-0.006242, 0.032426,1,-0.000363, 0.000494, 0.000181,1, 0.314023,-0.212826, 9.799310,1,0
1778258701186,  3637.379,  3637.374,-0.031959, 0.021577,-0.994802,-0.000317, 0.000216,-0.009950, 0.003133, 0.004600, 0.045552,1, 0.000143, 0.000812, 0.000112,1, 0.313941,-0.212727, 9.799314,1,0
1778258701209,  3637.399,  3637.399,-0.032197, 0.022159,-0.995182,-0.000322, 0.000223,-0.009952,-0.001831, 0.004681, 0.039913,1, 0.000591, 0.000526, 0.000408,1, 0.313898,-0.212611, 9.799318,1,0
1778258701234,  3637.424,  3637.424,-0.032312, 0.021426,-0.994699,-0.000323, 0.000213,-0.009948,-0.002976,-0.002471, 0.044658,1, 0.000390, 0.000372, 0.000260,1, 0.313884,-0.212574, 9.799320,1,0
1778258701256,  3637.449,  3637.444,-0.031269, 0.021865,-0.995730,-0.000310, 0.000219,-0.009957, 0.003341,-0.003924, 0.036668,1, 0.000004, 0.000018, 0.000047,1, 0.313889,-0.212580, 9.799320,1,0
1778258701279,  3637.469,  3637.469,-0.030833, 0.021731,-0.995077,-0.000308, 0.000218,-0.009950, 0.011575, 0.000409, 0.040946,1, 0.000034, 0.000120, 0.000678,1, 0.313937,-0.212701, 9.799315,1,0
1778258701304,  3637.494,  3637.494,-0.030753, 0.021391,-0.995956,-0.000306, 0.000216,-0.009958, 0.012386,-0.002882, 0.032326,1, 0.000737,-0.000007,-0.000224,1, 0.313968,-0.212628, 9.799316,1,0
1778258701326,  3637.519,  3637.514,-0.030663, 0.021877,-0.994383,-0.000308, 0.000217,-0.009947, 0.014569, 0.003573, 0.044447,1, 0.000314,-0.001068,-0.000532,1, 0.313981,-0.212577, 9.799316,1,0
1778258701349,  3637.539,  3637.539,-0.030847, 0.021780,-0.995548,-0.000309, 0.000220,-0.009954, 0.011568, 0.000952, 0.036324,1, 0.000156,-0.000308,-0.000051,1, 0.314088,-0.212633, 9.799313,1,0
1778258701374,  3637.564,  3637.564,-0.030709, 0.021567,-0.995046,-0.000310, 0.000216,-0.009954, 0.012852,-0.001168, 0.041249,1, 0.000112, 0.000497,-0.000150,1, 0.313980,-0.212664, 9.799315,1,0
1778258701396,  3637.589,  3637.584,-0.031528, 0.020704,-0.995443,-0.000318, 0.000208,-0.009953, 0.015961,-0.006503, 0.033475,1,-0.000911,-0.000395,-0.000327,1, 0.314019,-0.212738, 9.799313,1,0
1778258701419,  3637.609,  3637.609,-0.031262, 0.021844,-0.994374,-0.000312, 0.000217,-0.009943, 0.007444, 0.001478, 0.047838,1,-0.000042, 0.000262,-0.000189,1, 0.314006,-0.212741, 9.799313,1,0
1778258701444,  3637.634,  3637.634,-0.032228, 0.021570,-0.995634,-0.000322, 0.000217,-0.009955,-0.002032,-0.001208, 0.035476,1, 0.000348, 0.000151,-0.000007,1, 0.314015,-0.212725, 9.799313,1,0
1778258701466,  3637.659,  3637.654,-0.033069, 0.021524,-0.994923,-0.000332, 0.000213,-0.009949,-0.011203, 0.001559, 0.041110,1, 0.000078,-0.000149,-0.000067,1, 0.313943,-0.212766, 9.799314,1,0
1778258701489,  3637.684,  3637.679,-0.033802, 0.022377,-0.995144,-0.000342, 0.000222,-0.009949,-0.017659, 0.006606, 0.040291,1,-0.000361, 0.000054,-0.000226,1, 0.313820,-0.212845, 9.799316,1,0
1778258701515,  3637.704,  3637.704,-0.033243, 0.021869,-0.995532,-0.000330, 0.000219,-0.009952,-0.012156, 0.001609, 0.036481,1, 0.000082,-0.000279, 0.000769,1, 0.313856,-0.212848, 9.799315,1,0
1778258701536,  3637.729,  3637.724,-0.032905, 0.021104,-0.995796,-0.000327, 0.000213,-0.009956,-0.010530,-0.003541, 0.036649,1,-0.000443,-0.000164, 0.000408,1, 0.313895,-0.212883, 9.799313,1,0
1778258701559,  3637.754,  3637.749,-0.032279, 0.021886,-0.994999,-0.000324, 0.000219,-0.009952,-0.002667, 0.001738, 0.041703,1, 0.000131,-0.000501, 0.000253,1, 0.313898,-0.212882, 9.799313,1,0
1778258701585,  3637.774,  3637.774,-0.031219, 0.021751,-0.995269,-0.000312, 0.000220,-0.009947, 0.008007, 0.000424, 0.039045,1,-0.000377,-0.000646,-0.000152,1, 0.314185,-0.212895, 9.799303,1,0
1778258701606,  3637.799,  3637.794,-0.030203, 0.021455,-0.995369,-0.000304, 0.000219,-0.009949, 0.013859,-0.009830, 0.032005,1, 0.000555, 0.000391,-0.000253,1, 0.314233,-0.212846, 9.799303,1,0
1778258701629,  3637.824,  3637.819,-0.030273, 0.021446,-0.995514,-0.000300, 0.000214,-0.009956, 0.017326,-0.002583, 0.036648,1, 0.000436, 0.000270, 0.000189,1, 0.314193,-0.212882, 9.799303,1,0
1778258701655,  3637.844,  3637.844,-0.031186, 0.021884,-0.994700,-0.000311, 0.000221,-0.009945, 0.008301, 0.001731, 0.044628,1, 0.000199, 0.000527,-0.000321,1, 0.314115,-0.212869, 9.799306,1,0
1778258701676,  3637.869,  3637.864,-0.032351, 0.021603,-0.995739,-0.000322, 0.000219,-0.009955, 0.002561,-0.001180, 0.038359,1,-0.000222, 0.000336, 0.000158,1, 0.314105,-0.212876, 9.799307,1,0
1778258701699,  3637.894,  3637.889,-0.032327, 0.021252,-0.995392,-0.000322, 0.000214,-0.009951,-0.002987,-0.004528, 0.037848,1,-0.000072, 0.000240,-0.000066,1, 0.314026,-0.212937, 9.799308,1,0
1778258701725,  3637.914,  3637.914,-0.033161, 0.021446,-0.995899,-0.000331, 0.000215,-0.009961,-0.011190,-0.002686, 0.032876,1, 0.000026,-0.000128, 0.000143,1, 0.314011,-0.212996, 9.799307,1,0
1778258701746,  3637.939,  3637.934,-0.032078, 0.021818,-0.994807,-0.000321, 0.000221,-0.009947,-0.007048, 0.008166, 0.043019,1,-0.000274,-0.000191,-0.000292,1, 0.314023,-0.213003, 9.799306,1,0
1778258701769,  3637.964,  3637.959,-0.032121, 0.021106,-0.996323,-0.000321, 0.000211,-0.009963,-0.000954,-0.005957, 0.028718,1, 0.000292, 0.000783, 0.000061,1, 0.314016,-0.212932, 9.799308,1,0
1778258701795,  3637.984,  3637.984,-0.031186, 0.021804,-0.995937,-0.000314, 0.000219,-0.009960, 0.008207, 0.000897, 0.032497,1, 0.000419,-0.000058, 0.000358,1, 0.314041,-0.212915, 9.799308,1,0
1778258701816,  3638.009,  3638.004,-0.031741, 0.021819,-0.995427,-0.000319, 0.000221,-0.009954, 0.001038, 0.001218, 0.039898,1,-0.000094, 0.000447,-0.000384,1, 0.313982,-0.213003, 9.799308,1,0
1778258701843,  3638.034,  3638.034,-0.031331, 0.021381,-0.994604,-0.000313, 0.000215,-0.009949, 0.006711,-0.003317, 0.045576,1,-0.000068,-0.000765, 0.000009,1, 0.313984,-0.212994, 9.799308,1,0
1778258701865,  3638.054,  3638.054,-0.031338, 0.021707,-0.995409,-0.000309, 0.000217,-0.009951, 0.006601,-0.000168, 0.037680,1,-0.000283, 0.000624, 0.000111,1, 0.313898,-0.213049, 9.799310,1,0
1778258701886,  3638.079,  3638.074,-0.032045, 0.022257,-0.995244,-0.000322, 0.000220,-0.009952, 0.000279,-0.000457, 0.039206,1,-0.000439, 0.000996, 0.000241,1, 0.313738,-0.213179, 9.799312,1,0
1778258701913,  3638.104,  3638.104,-0.032412, 0.021948,-0.995562,-0.000324, 0.000219,-0.009958,-0.004211, 0.002069, 0.036182,1,-0.000734, 0.000468, 0.000025,1, 0.313627,-0.213193, 9.799314,1,0
1778258701935,  3638.129,  3638.124,-0.032488, 0.021316,-0.995158,-0.000326, 0.000215,-0.009950,-0.001931,-0.004808, 0.041809,1, 0.000216, 0.000198, 0.000245,1, 0.313591,-0.213146, 9.799317,1,0
1778258701957,  3638.149,  3638.144,-0.032515, 0.021613,-0.994770,-0.000327, 0.000217,-0.009950,-0.005066, 0.002052, 0.041890,1, 0.000066, 0.000108,-0.000468,1, 0.313596,-0.213138, 9.799317,1,0
1778258701984,  3638.174,  3638.174,-0.031709, 0.021216,-0.996091,-0.000317, 0.000214,-0.009960, 0.002611,-0.005143, 0.031000,1, 0.000410,-0.000162, 0.000092,1, 0.313571,-0.213187, 9.799316,1,0
1778258702005,  3638.199,  3638.194,-0.031583, 0.021112,-0.994910,-0.000318, 0.000209,-0.009952, 0.002493,-0.002808, 0.044091,1,-0.000319,-0.000226,-0.000130,1, 0.313676,-0.213259, 9.799312,1,0
1778258702027,  3638.219,  3638.214,-0.032074, 0.021529,-0.994740,-0.000320, 0.000217,-0.009947,-0.002419,-0.001127, 0.042604,1,-0.000153, 0.000139, 0.000532,1, 0.313721,-0.213278, 9.799310,1,0
1778258702054,  3638.244,  3638.244,-0.031936, 0.021938,-0.995013,-0.000318, 0.000219,-0.009950, 0.000514, 0.001891, 0.041570,1, 0.001298, 0.000123,-0.000067,1, 0.313698,-0.213210, 9.799313,1,0
1778258702075,  3638.269,  3638.264,-0.031225, 0.021952,-0.994749,-0.000313, 0.000221,-0.009949,-0.001005,-0.004841, 0.038822,1, 0.000105,-0.000148, 0.000490,1, 0.313696,-0.213197, 9.799313,1,0
1778258702097,  3638.289,  3638.284,-0.031736, 0.021735,-0.994942,-0.000317, 0.000218,-0.009949, 0.005496,-0.000523, 0.043215,1,-0.000534, 0.000452, 0.000241,1, 0.313600,-0.213215, 9.799315,1,0
1778258702124,  3638.314,  3638.314,-0.031935, 0.021724,-0.995284,-0.000320, 0.000218,-0.009951, 0.000370,-0.000132, 0.038912,1,-0.000091, 0.000786, 0.000107,1, 0.313525,-0.213172, 9.799318,1,0
1778258702145,  3638.339,  3638.334,-0.031857, 0.022094,-0.995206,-0.000320, 0.000220,-0.009953, 0.000404,-0.000989, 0.041974,1, 0.000503,-0.000287, 0.000022,1, 0.313579,-0.213132, 9.799317,1,0
1778258702167,  3638.359,  3638.354,-0.031670, 0.021542,-0.996107,-0.000316, 0.000213,-0.009960, 0.007060,-0.003945, 0.039108,1, 0.000623,-0.000333,-0.000385,1, 0.313648,-0.213102, 9.799316,1,0
1778258702194,  3638.384,  3638.384,-0.031375, 0.022590,-0.994674,-0.000315, 0.000222,-0.009947, 0.005783, 0.008413, 0.044898,1, 0.000034, 0.000502, 0.000291,1, 0.313450,-0.213120, 9.799322,1,0
1778258702215,  3638.409,  3638.404,-0.031689, 0.021806,-0.995336,-0.000317, 0.000218,-0.009953,-0.001815,-0.002018, 0.041673,1,-0.000194,-0.001294, 0.000057,1, 0.313501,-0.213166, 9.799319,1,0
1778258702237,  3638.429,  3638.424,-0.031734, 0.021613,-0.995327,-0.000318, 0.000216,-0.009951, 0.002648, 0.002266, 0.044888,1,-0.000110, 0.000466, 0.000717,1, 0.313544,-0.213278, 9.799315,1,0
1778258702264,  3638.454,  3638.454,-0.031698, 0.021917,-0.995131,-0.000316, 0.000219,-0.009952, 0.002615, 0.001635, 0.040419,1, 0.000612, 0.000539,-0.000035,1, 0.313446,-0.213281, 9.799318,1,0
1778258702285,  3638.479,  3638.474,-0.031746, 0.021497,-0.995429,-0.000318, 0.000219,-0.009954, 0.004728, 0.001511, 0.040750,1,-0.000810,-0.000213, 0.000220,1, 0.313409,-0.213400, 9.799317,1,1
1778258702307,  3638.499,  3638.494,-0.031795, 0.021136,-0.995687,-0.000317, 0.000211,-0.009957, 0.000121,-0.005939, 0.034861,1,-0.000784, 0.000291, 0.000294,1, 0.313407,-0.213505, 9.799315,1,1
1778258702334,  3638.524,  3638.524,-0.031917, 0.022096,-0.995181,-0.000318, 0.000220,-0.009950, 0.000419, 0.003149, 0.039924,1, 0.000084, 0.000031, 0.000221,1, 0.313415,-0.213532, 9.799314,1,1
1778258702355,  3638.549,  3638.544,-0.032396, 0.021398,-0.996064,-0.000324, 0.000217,-0.009957,-0.001914, 0.000066, 0.038602,1, 0.000863,-0.000288, 0.000172,1, 0.313443,-0.213492, 9.799314,1,1
1778258702378,  3638.569,  3638.569,-0.031536, 0.021609,-0.994862,-0.000317, 0.000215,-0.009949, 0.004191,-0.001534, 0.043054,1,-0.000483, 0.000727, 0.000380,1, 0.313432,-0.213463, 9.799315,1,1
1778258702404,  3638.594,  3638.594,-0.032323, 0.022002,-0.995452,-0.000323, 0.000223,-0.009952,-0.003632, 0.002227, 0.037267,1,-0.000512, 0.000324, 0.000195,1, 0.313342,-0.213555, 9.799316,1,1
1778258702426,  3638.619,  3638.614,-0.031209, 0.021100,-0.995261,-0.000313, 0.000210,-0.009954,-0.000778, 0.003653, 0.039045,1, 0.000052,-0.000216,-0.000435,1, 0.313334,-0.213565, 9.799316,1,1
1778258702448,  3638.639,  3638.639,-0.031360, 0.020807,-0.995472,-0.000313, 0.000210,-0.009957, 0.005804,-0.009404, 0.037074,1, 0.000781,-0.000097, 0.000441,1, 0.313346,-0.213428, 9.799318,1,1
1778258702474,  3638.664,  3638.664,-0.032096, 0.021581,-0.995278,-0.000321, 0.000216,-0.009954,-0.001423,-0.001821, 0.038974,1,-0.000535, 0.000922,-0.000183,1, 0.313300,-0.213473, 9.799319,1,1
1778258702496,  3638.689,  3638.684,-0.032101, 0.022003,-0.995473,-0.000320, 0.000219,-0.009954,-0.001613, 0.002987, 0.036524,1, 0.000420, 0.000150, 0.000204,1, 0.313299,-0.213463, 9.799319,1,1
1778258702518,  3638.709,  3638.709,-0.031627, 0.022041,-0.995129,-0.000318, 0.000218,-0.009949, 0.003184, 0.002672, 0.040435,1, 0.000141,-0.001027,-0.000791,1, 0.313375,-0.213473, 9.799316,1,1
1778258702544,  3638.734,  3638.734,-0.031970, 0.022185,-0.994875,-0.000318, 0.000221,-0.009948,-0.000216, 0.004095, 0.042929,1,-0.000710, 0.000150, 0.000136,1, 0.313295,-0.213490, 9.799319,1,1
1778258702566,  3638.759,  3638.754,-0.031510, 0.021156,-0.995439,-0.000316, 0.000213,-0.009958, 0.002775, 0.004268, 0.039113,1,-0.000192, 0.000740,-0.000449,1, 0.313304,-0.213587, 9.799316,1,1
1778258702589,  3638.779,  3638.779,-0.031954, 0.021625,-0.995515,-0.000318, 0.000214,-0.009954,-0.000129,-0.001578, 0.036650,1,-0.000305, 0.000362,-0.000240,1, 0.313223,-0.213659, 9.799317,1,1
1778258702614,  3638.804,  3638.804,-0.031824, 0.022055,-0.995325,-0.000320, 0.000218,-0.009953, 0.001128, 0.002596, 0.038510,1,-0.000083,-0.000021, 0.000121,1, 0.313216,-0.213688, 9.799317,1,1
1778258702636,  3638.829,  3638.824,-0.031145, 0.021605,-0.995732,-0.000310, 0.000217,-0.009957, 0.005509, 0.004247, 0.043040,1, 0.000132, 0.000081, 0.000335,1, 0.313221,-0.213722, 9.799316,1,1
1778258702659,  3638.849,  3638.849,-0.031811, 0.021682,-0.995543,-0.000316, 0.000218,-0.009951, 0.001303,-0.001058, 0.036369,1,-0.000245,-0.000307,-0.000080,1, 0.313269,-0.213690, 9.799315,1,1
1778258702684,  3638.874,  3638.874,-0.032167, 0.021845,-0.995878,-0.000319, 0.000217,-0.009957,-0.002151, 0.000551, 0.033084,1,-0.000279,-0.000211, 0.000289,1, 0.313308,-0.213689, 9.799314,1,1
1778258702706,  3638.899,  3638.894,-0.032025, 0.021990,-0.994415,-0.000320, 0.000219,-0.009945,-0.001859, 0.004967, 0.051508,1,-0.000343, 0.000913, 0.000206,1, 0.313171,-0.213648, 9.799319,1,1
1778258702729,  3638.924,  3638.919,-0.031714, 0.021292,-0.995778,-0.000317, 0.000214,-0.009957, 0.002087,-0.004768, 0.034073,1, 0.000280, 0.000455, 0.000228,1, 0.313082,-0.213565, 9.799324,1,1
1778258702754,  3638.944,  3638.944,-0.031739, 0.021532,-0.995864,-0.000317, 0.000214,-0.009955, 0.001796,-0.002435, 0.033238,1, 0.000663,-0.000056,-0.000372,1, 0.313049,-0.213568, 9.799325,1,1
1778258702776,  3638.969,  3638.964,-0.030932, 0.021541,-0.995467,-0.000310, 0.000217,-0.009953, 0.004737,-0.002544, 0.039026,1,-0.000188, 0.000810,-0.000028,1, 0.313019,-0.213598, 9.799325,1,1
1778258702799,  3638.994,  3638.989,-0.031626, 0.021600,-0.995046,-0.000317, 0.000220,-0.009951, 0.002918,-0.001795, 0.041257,1,-0.000069,-0.000201, 0.000360,1, 0.313065,-0.213618, 9.799323,1,1
1778258702824,  3639.014,  3639.014,-0.032185, 0.022033,-0.995614,-0.000322, 0.000222,-0.009958,-0.002580, 0.002445, 0.035685,1,-0.000368, 0.000117, 0.000232,1, 0.313042,-0.213638, 9.799324,1,1
1778258702846,  3639.039,  3639.034,-0.032015, 0.022024,-0.994227,-0.000322, 0.000220,-0.009947,-0.000135,-0.001317, 0.041403,1,-0.000087,-0.000661, 0.000140,1, 0.313123,-0.213642, 9.799321,1,1
1778258702869,  3639.064,  3639.059,-0.032321, 0.021779,-0.994660,-0.000323, 0.000216,-0.009947,-0.003837,-0.000026, 0.045036,1, 0.000197,-0.000019, 0.000025,1, 0.313123,-0.213602, 9.799322,1,1
1778258702895,  3639.084,  3639.084,-0.031929, 0.021288,-0.995581,-0.000321, 0.000211,-0.009958, 0.000011,-0.004826, 0.036005,1, 0.000883, 0.000487, 0.000291,1, 0.313116,-0.213566, 9.799323,1,1
1778258702916,  3639.109,  3639.104,-0.032017, 0.021682,-0.994829,-0.000323, 0.000218,-0.009947, 0.000602, 0.000023, 0.035138,1,-0.000030, 0.000444, 0.000256,1, 0.313061,-0.213496, 9.799326,1,1
1778258702939,  3639.134,  3639.129,-0.031556, 0.022286,-0.995376,-0.000317, 0.000225,-0.009952, 0.003536, 0.005080, 0.038021,1, 0.000530,-0.000289, 0.000051,1, 0.313002,-0.213456, 9.799329,1,1
1778258702965,  3639.154,  3639.154,-0.031882, 0.022428,-0.995711,-0.000319, 0.000222,-0.009958, 0.000282, 0.006503, 0.034743,1,-0.000583, 0.000505, 0.000449,1, 0.312922,-0.213455, 9.799332,1,1
1778258702986,  3639.179,  3639.174,-0.031501, 0.021599,-0.994530,-0.000316, 0.000213,-0.009946,-0.001265,-0.001441, 0.044439,1, 0.000335, 0.000931,-0.000048,1, 0.312823,-0.213443, 9.799335,1,1
1778258703009,  3639.204,  3639.199,-0.031289, 0.021817,-0.995672,-0.000313, 0.000216,-0.009959, 0.006051, 0.000459, 0.035120,1,-0.000118,-0.000028, 0.000699,1, 0.312891,-0.213492, 9.799332,1,1
1778258703035,  3639.224,  3639.224,-0.031532, 0.022178,-0.995664,-0.000314, 0.000220,-0.009958, 0.003651, 0.003932, 0.035204,1,-0.000390, 0.000824, 0.000436,1, 0.312850,-0.213569, 9.799332,1,1
1778258703056,  3639.249,  3639.244,-0.032599, 0.020884,-0.994864,-0.000321, 0.000211,-0.009948, 0.003301,-0.005213, 0.044476,1, 0.000116,-0.000154,-0.000508,1, 0.312966,-0.213603, 9.799327,1,1
1778258703083,  3639.274,  3639.274,-0.031860, 0.022343,-0.995191,-0.000320, 0.000224,-0.009950, 0.000415, 0.005577, 0.039840,1,-0.000597, 0.000884,-0.000088,1, 0.312829,-0.213548, 9.799333,1,1
1778258703105,  3639.294,  3639.294,-0.031344, 0.022080,-0.995619,-0.000315, 0.000226,-0.009954, 0.005517, 0.002952, 0.035646,1, 0.000296,-0.000410,-0.000291,1, 0.312908,-0.213567, 9.799330,1,1
1778258703126,  3639.319,  3639.314,-0.032096, 0.020655,-0.995066,-0.000321, 0.000204,-0.009950, 0.000567, 0.004846, 0.044503,1, 0.000035, 0.000125,-0.000086,1, 0.312843,-0.213518, 9.799333,1,1
1778258703153,  3639.344,  3639.344,-0.031833, 0.021974,-0.995043,-0.000317, 0.000219,-0.009951, 0.000577, 0.002059, 0.041302,1, 0.000329, 0.000390, 0.000393,1, 0.312742,-0.213419, 9.799338,1,1
1778258703175,  3639.369,  3639.364,-0.031649, 0.021996,-0.995148,-0.000316, 0.000224,-0.009950,-0.003397, 0.002382, 0.041754,1, 0.000359, 0.000360, 0.000227,1, 0.312653,-0.213430, 9.799341,1,1
1778258703196,  3639.389,  3639.384,-0.031930, 0.021213,-0.995702,-0.000323, 0.000210,-0.009961, 0.001017, 0.003126, 0.043638,1,-0.000681, 0.000710,-0.000210,1, 0.312661,-0.213414, 9.799341,1,1
1778258703223,  3639.414,  3639.414,-0.032194, 0.021426,-0.994980,-0.000320, 0.000212,-0.009947,-0.003104,-0.003317, 0.041919,1, 0.000468, 0.000494, 0.000060,1, 0.312594,-0.213416, 9.799343,1,1
1778258703245,  3639.439,  3639.434,-0.032101, 0.022492,-0.995200,-0.000323, 0.000224,-0.009953, 0.002862, 0.000695, 0.044647,1, 0.000188,-0.000216,-0.000620,1, 0.312691,-0.213416, 9.799340,1,1
1778258703267,  3639.459,  3639.454,-0.031309, 0.021044,-0.995838,-0.000315, 0.000212,-0.009958, 0.000444, 0.004182, 0.040252,1,-0.000181,-0.000668, 0.000107,1, 0.312774,-0.213382, 9.799338,1,1
1778258703294,  3639.484,  3639.484,-0.031998, 0.021028,-0.995820,-0.000319, 0.000209,-0.009956,-0.000906,-0.007146, 0.033675,1, 0.000247,-0.000169,-0.000370,1, 0.312897,-0.213351, 9.799335,1,1
1778258703315,  3639.509,  3639.504,-0.031635, 0.022677,-0.994542,-0.000316, 0.000227,-0.009948, 0.002785, 0.003580, 0.045949,1, 0.000661, 0.000596, 0.000046,1, 0.312823,-0.213311, 9.799338,1,1
1778258703337,  3639.529,  3639.524,-0.031965, 0.020799,-0.995425,-0.000321, 0.000211,-0.009953,-0.000630, 0.007747, 0.041976,1, 0.000676, 0.000231, 0.000263,1, 0.312788,-0.213191, 9.799342,1,1
1778258703364,  3639.554,  3639.554,-0.031747, 0.020448,-0.994777,-0.000316, 0.000208,-0.009944, 0.001403,-0.012552, 0.043919,1,-0.000593, 0.000132, 0.000075,1, 0.312731,-0.213096, 9.799346,1,1
1778258703385,  3639.579,  3639.574,-0.031683, 0.022553,-0.995505,-0.000315, 0.000223,-0.009954, 0.002087,-0.005110, 0.034320,1, 0.000715, 0.000006, 0.000167,1, 0.312743,-0.213033, 9.799347,1,1
1778258703407,  3639.599,  3639.594,-0.031606, 0.022611,-0.995335,-0.000320, 0.000222,-0.009954, 0.004901, 0.005178, 0.040054,1,-0.000228,-0.000302, 0.000124,1, 0.312753,-0.213089, 9.799345,1,1
1778258703434,  3639.624,  3639.624,-0.031966, 0.021376,-0.994134,-0.000317, 0.000214,-0.009942,-0.000682,-0.003457, 0.050222,1,-0.000212, 0.000363, 0.000308,1, 0.312790,-0.213086, 9.799344,1,1
1778258703455,  3639.649,  3639.644,-0.031812, 0.022100,-0.995091,-0.000318, 0.000218,-0.009957, 0.003321,-0.003671, 0.039723,1,-0.001038,-0.000309,-0.000009,1, 0.312769,-0.213181, 9.799342,1,1
1778258703477,  3639.669,  3639.664,-0.031993, 0.022192,-0.996172,-0.000320, 0.000225,-0.009961,-0.000523, 0.003349, 0.031827,1, 0.000200,-0.000368,-0.000332,1, 0.312770,-0.213197, 9.799342,1,1
1778258703504,  3639.694,  3639.694,-0.032789, 0.022045,-0.994349,-0.000325, 0.000220,-0.009947,-0.008803, 0.003011, 0.048109,1, 0.000579, 0.000496, 0.000464,1, 0.312734,-0.213158, 9.799344,1,1
1778258703525,  3639.719,  3639.714,-0.031814, 0.021921,-0.994191,-0.000319, 0.000212,-0.009949,-0.002576,-0.000153, 0.038641,1,-0.000172,-0.000797,-0.000024,1, 0.312808,-0.213194, 9.799341,1,1
1778258703547,  3639.739,  3639.734,-0.031389, 0.021800,-0.996527,-0.000313, 0.000221,-0.009960, 0.006900,-0.001096, 0.037187,1,-0.000252,-0.000747, 0.000260,1, 0.312870,-0.213329, 9.799336,1,1
1778258703574,  3639.764,  3639.764,-0.031509, 0.021530,-0.995499,-0.000314, 0.000214,-0.009956, 0.004047,-0.002206, 0.036817,1,-0.000119,-0.000311,-0.000273,1, 0.313053,-0.213351, 9.799330,1,1
1778258703595,  3639.789,  3639.784,-0.031569, 0.021947,-0.994581,-0.000316, 0.000219,-0.009946,-0.000915,-0.007780, 0.041144,1, 0.000467,-0.000263, 0.000521,1, 0.313062,-0.213290, 9.799331,1,1
1778258703618,  3639.809,  3639.809,-0.032025, 0.022175,-0.995499,-0.000319, 0.000222,-0.009954,-0.000947, 0.004217, 0.036823,1,-0.000089,-0.001098,-0.000005,1, 0.313141,-0.213245, 9.799329,1,1
1778258703644,  3639.834,  3639.834,-0.032355, 0.021431,-0.995614,-0.000323, 0.000215,-0.009960,-0.004082,-0.003111, 0.035690,1, 0.000201,-0.000408, 0.000099,1, 0.313222,-0.213276, 9.799326,1,1
1778258703665,  3639.859,  3639.854,-0.031737, 0.022088,-0.996482,-0.000318, 0.000217,-0.009967, 0.003403,-0.002736, 0.028335,1, 0.000364,-0.000156,-0.000308,1, 0.313320,-0.213214, 9.799324,1,1
1778258703688,  3639.879,  3639.879,-0.031525, 0.023064,-0.995584,-0.000315, 0.000229,-0.009956, 0.004246, 0.013027, 0.035978,1, 0.000324,-0.000098, 0.000423,1, 0.313406,-0.213143, 9.799323,1,1
1778258703714,  3639.904,  3639.904,-0.032185, 0.021500,-0.995712,-0.000321, 0.000215,-0.009957,-0.002163,-0.002156, 0.034727,1, 0.000866, 0.000341, 0.000258,1, 0.313455,-0.212972, 9.799325,1,1
1778258703736,  3639.929,  3639.924,-0.032205, 0.021239,-0.995394,-0.000325, 0.000212,-0.009948,-0.003351,-0.008535, 0.036061,1, 0.000377,-0.000479, 0.000755,1, 0.313541,-0.212827, 9.799326,1,1
1778258703758,  3639.949,  3639.949,-0.032656, 0.027077,-0.990618,-0.000340, 0.000217,-0.009965,-0.006204, 0.052703, 0.084664,1, 0.008023,-0.001986, 0.003403,1, 0.314104,-0.212583, 9.799313,1,1
1778258703784,  3639.974,  3639.974,-0.025634, 0.035438,-0.976791,-0.000282, 0.000290,-0.009818, 0.062938, 0.134844, 0.220257,1,-0.000722, 0.002847,-0.000786,1, 0.314232,-0.212703, 9.799306,1,1
1778258703806,  3639.999,  3639.994,-0.033867, 0.016003,-1.005142,-0.000319, 0.000181,-0.010030,-0.002499,-0.044348, 0.000483,1, 0.000319,-0.001796, 0.000946,1, 0.314619,-0.212676, 9.799294,1,1
1778258703828,  3640.019,  3640.019,-0.027763, 0.026506,-0.986860,-0.000308, 0.000236,-0.009913, 0.042454, 0.047241, 0.121501,1, 0.000009,-0.001031,-0.000062,1, 0.314746,-0.212694, 9.799290,1,1
1778258703854,  3640.044,  3640.044,-0.029667, 0.025528,-0.988703,-0.000305, 0.000248,-0.009850, 0.024016, 0.037441, 0.103416,1,-0.004050, 0.000648,-0.002109,1, 0.314936,-0.213026, 9.799276,1,1
1778258703876,  3640.069,  3640.064,-0.024973, 0.023036,-1.003911,-0.000274, 0.000255,-0.010013,-0.009795, 0.007987,-0.047222,1, 0.000876,-0.000129, 0.002209,1, 0.315006,-0.213309, 9.799268,1,1
1778258703899,  3640.089,  3640.089,-0.022484, 0.019804,-0.990476,-0.000231, 0.000184,-0.009875, 0.094998,-0.019299, 0.085992,1,-0.000041,-0.001672,-0.002908,1, 0.315549,-0.213508, 9.799246,1,1
1778258703924,  3640.114,  3640.114,-0.025480, 0.024687,-0.996221,-0.000282, 0.000221,-0.009980, 0.065465, 0.028113, 0.029654,1, 0.000037, 0.002392,-0.000663,1, 0.315263,-0.213979, 9.799245,1,1
1778258703946,  3640.139,  3640.134,-0.032511, 0.028185,-0.989722,-0.000306, 0.000308,-0.009875,-0.033010, 0.088918,-0.022719,1, 0.002379, 0.000240, 0.002172,1, 0.315152,-0.213821, 9.799253,1,1
1778258703969,  3640.164,  3640.159,-0.028407, 0.016880,-0.990379,-0.000310, 0.000155,-0.009936, 0.036327,-0.049066, 0.086942,1,-0.003675,-0.001359,-0.002356,1, 0.314912,-0.214740, 9.799240,1,1
1778258703994,  3640.184,  3640.184,-0.029789, 0.023654,-0.998605,-0.000310, 0.000225,-0.009993, 0.022970, 0.016682, 0.006252,1,-0.002865, 0.000862, 0.000730,1, 0.315075,-0.215371, 9.799221,1,1
1778258704016,  3640.209,  3640.204,-0.029720, 0.022020,-0.996153,-0.000291, 0.000234,-0.009962, 0.054381, 0.073562, 0.058419,1,-0.001817,-0.000568,-0.001193,1, 0.314997,-0.215838, 9.799213,1,1
1778258704039,  3640.234,  3640.229,-0.031801, 0.017468,-0.995003,-0.000326, 0.000167,-0.009963, 0.003163,-0.044658, 0.041558,1,-0.000827, 0.000984, 0.001293,1, 0.314988,-0.215983, 9.799210,1,1
1778258704064,  3640.254,  3640.254,-0.034883, 0.027431,-0.996604,-0.000364, 0.000192,-0.010061,-0.027006, 0.052442, 0.025843,1,-0.007302,-0.000506, 0.001327,1, 0.315099,-0.216796, 9.799189,1,1
1778258704086,  3640.279,  3640.274,-0.035719, 0.032866,-0.986629,-0.000348, 0.000271,-0.009859,-0.036040, 0.026860, 0.125819,1,-0.004026, 0.000162,-0.000370,1, 0.315147,-0.216745, 9.799188,1,1
1778258704109,  3640.304,  3640.299,-0.042364, 0.018013,-1.001104,-0.000434, 0.000146,-0.010019,-0.100445,-0.039749,-0.018277,1, 0.003169, 0.000633, 0.003383,1, 0.314978,-0.216302, 9.799203,1,1
1778258704134,  3640.324,  3640.324,-0.041598, 0.024230,-0.990282,-0.000431, 0.000224,-0.009902,-0.093271, 0.021473, 0.087868,1,-0.002609, 0.002749,-0.000589,1, 0.314578,-0.216224, 9.799218,1,1
1778258704156,  3640.349,  3640.344,-0.043778, 0.024896,-0.998725,-0.000449, 0.000237,-0.009977,-0.126160,-0.033932, 0.048358,1, 0.001341,-0.001523,-0.001095,1, 0.314757,-0.215788, 9.799222,1,1
1778258704179,  3640.374,  3640.369,-0.040206, 0.025167,-0.995182,-0.000413, 0.000235,-0.009958,-0.079016, 0.031571, 0.039812,1, 0.003887, 0.001230, 0.002061,1, 0.315233,-0.215112, 9.799221,1,1
1778258704205,  3640.394,  3640.394,-0.040211, 0.018231,-0.992941,-0.000405, 0.000188,-0.009920,-0.079038,-0.035743, 0.061803,1, 0.001394,-0.000040,-0.001703,1, 0.315303,-0.214480, 9.799233,1,1
1778258704226,  3640.419,  3640.414,-0.036185, 0.027188,-0.993653,-0.000369, 0.000263,-0.009937,-0.063888,-0.035166, 0.023169,1, 0.003320,-0.000150, 0.001631,1, 0.315302,-0.213784, 9.799248,1,1
1778258704249,  3640.444,  3640.439,-0.035221, 0.023593,-0.995409,-0.000353, 0.000230,-0.009951,-0.030043, 0.018652, 0.037640,1, 0.003474,-0.000038, 0.000291,1, 0.315358,-0.212604, 9.799272,1,1
1778258704275,  3640.464,  3640.464,-0.032905, 0.016296,-0.994574,-0.000332, 0.000156,-0.009947,-0.007104,-0.052153, 0.045836,1, 0.003538,-0.001092,-0.000295,1, 0.315620,-0.211849, 9.799280,1,1
1778258704296,  3640.489,  3640.484,-0.033396, 0.030843,-0.981324,-0.000304, 0.000278,-0.009877, 0.039481,-0.000513, 0.064842,1, 0.001852,-0.000517, 0.001008,1, 0.315730,-0.211225, 9.799290,1,1
1778258704323,  3640.514,  3640.514,-0.032077, 0.019660,-1.002389,-0.000248, 0.000211,-0.009966, 0.001052,-0.017682,-0.030771,1, 0.002612, 0.001840,-0.000607,1, 0.315568,-0.210397, 9.799313,1,1
1778258704345,  3640.534,  3640.534,-0.026120, 0.015007,-1.000344,-0.000252, 0.000141,-0.010022, 0.059599,-0.062563,-0.010704,1, 0.004596,-0.001838, 0.001708,1, 0.315804,-0.209594, 9.799322,1,1
1778258704366,  3640.559,  3640.554,-0.020782, 0.024728,-0.988728,-0.000196, 0.000233,-0.009882, 0.096028, 0.026639, 0.080977,1, 0.002563, 0.000077,-0.000163,1, 0.315735,-0.209198, 9.799334,1,1
1778258704393,  3640.584,  3640.584,-0.021198, 0.019718,-0.997986,-0.000195, 0.000203,-0.009954, 0.108367,-0.015794, 0.012421,1,-0.000232,-0.000195, 0.000349,1, 0.316257,-0.209167, 9.799317,1,1
1778258704415,  3640.609,  3640.604,-0.020396, 0.018790,-0.992762,-0.000204, 0.000186,-0.009956, 0.119605,-0.019255, 0.006594,1, 0.001707,-0.001290, 0.000909,1, 0.316173,-0.209062, 9.799322,1,1
1778258704436,  3640.629,  3640.624,-0.020891, 0.016325,-0.997207,-0.000207, 0.000173,-0.009961, 0.118855,-0.026692, 0.050444,1,-0.001398, 0.000713,-0.000848,1, 0.316085,-0.209319, 9.799319,1,1
1778258704463,  3640.654,  3640.654,-0.016651, 0.005557,-0.966273,-0.000183, 0.000125,-0.009718, 0.153112,-0.154953, 0.323406,1, 0.006646,-0.004030, 0.002717,1, 0.316521,-0.209249, 9.799307,1,1
1778258704485,  3640.679,  3640.674,-0.023081, 0.026313,-1.034790,-0.000170, 0.000230,-0.010284, 0.140946, 0.101166,-0.111828,1,-0.015732, 0.005225, 0.000448,1, 0.316007,-0.210816, 9.799290,1,1
1778258704506,  3640.699,  3640.694,-0.021517, 0.003526,-0.978254,-0.000224, 0.000063,-0.009821, 0.118401, 0.060214,-0.059281,1, 0.003129,-0.002088,-0.004481,1, 0.316770,-0.211948, 9.799241,1,1
1778258704533,  3640.724,  3640.724,-0.022719, 0.004446,-0.980107,-0.000239, 0.000047,-0.009839, 0.093731,-0.167935, 0.187686,1,-0.007142, 0.003230, 0.006315,1, 0.316425,-0.211761, 9.799256,1,1
1778258704555,  3640.749,  3640.744,-0.031439, 0.033333,-1.022289,-0.000254, 0.000381,-0.010165,-0.008886, 0.040763,-0.330769,1,-0.008161,-0.001596,-0.003887,1, 0.316853,-0.213536, 9.799204,1,1
1778258704577,  3640.769,  3640.764,-0.030690, 0.010934,-0.976354,-0.000282, 0.000108,-0.009730, 0.044980,-0.038720, 0.104477,1,-0.006686,-0.000690,-0.005011,1, 0.316120,-0.215207, 9.799191,1,1
1778258704603,  3640.794,  3640.794,-0.024824, 0.026828,-1.004857,-0.000237, 0.000315,-0.009999, 0.072539, 0.043772,-0.055176,1,-0.020013,-0.002439,-0.004013,1, 0.316056,-0.219942, 9.799088,1,1
1778258704625,  3640.819,  3640.814,-0.026636, 0.028849,-0.983672,-0.000276, 0.000261,-0.009894,-0.000177,-0.023115,-0.012201,1,-0.012231, 0.001484,-0.009239,1, 0.315964,-0.221924, 9.799046,1,1
1778258704647,  3640.839,  3640.834,-0.000940, 0.050228,-0.978688,-0.000033, 0.000446,-0.009786, 0.254094, 0.159046, 0.305680,1,-0.077551,-0.001502,-0.019394,1, 0.315888,-0.231590, 9.798824,1,1
1778258704674,  3640.864,  3640.864,-0.023826, 0.019495,-1.018492,-0.000211, 0.000175,-0.010155, 0.081765,-0.066281,-0.189797,1,-0.089840, 0.013757,-0.048816,1, 0.315031,-0.260217, 9.798134,1,1
1778258704695,  3640.889,  3640.884,-0.054637, 0.005548,-0.972079,-0.000590, 0.000059,-0.009835,-0.144445,-0.141653, 0.014369,1,-0.076952, 0.012545,-0.023917,1, 0.312170,-0.276164, 9.797789,1,1
1778258704717,  3640.909,  3640.904,-0.039646, 0.042063,-0.970350,-0.000457, 0.000264,-0.009785,-0.158458,-0.171830, 0.364168,1,-0.065690, 0.009179,-0.013130,1, 0.310826,-0.287664, 9.797501,1,1
1778258704744,  3640.934,  3640.934,-0.030283, 0.054358,-0.997056,-0.000266, 0.000449,-0.009940, 0.015791, 0.230183, 0.019204,1,-0.067126,-0.001187,-0.028229,1, 0.312833,-0.304957, 9.796914,1,1
1778258704765,  3640.959,  3640.954,-0.041904, 0.059512,-1.013034,-0.000352, 0.000597,-0.010115, 0.007536, 0.080406,-0.174638,1,-0.066415, 0.015539,-0.021576,1, 0.311379,-0.319080, 9.796511,1,1
1778258704787,  3640.979,  3640.974,-0.062503, 0.056619,-0.988042,-0.000574, 0.000620,-0.009820,-0.256315, 0.114068,-0.069741,1,-0.064624, 0.013428,-0.029826,1, 0.308580,-0.332659, 9.796147,1,1
1778258704814,  3641.004,  3641.004,-0.053865, 0.034992,-0.979252,-0.000498, 0.000370,-0.009697,-0.220818,-0.006408, 0.192408,1,-0.059333,-0.005598,-0.035995,1, 0.307629,-0.351373, 9.795524,1,1
1778258704835,  3641.029,  3641.024,-0.036492, 0.043425,-1.019358,-0.000381, 0.000466,-0.010199,-0.092370, 0.093848,-0.026288,1,-0.056521,-0.000397,-0.029555,1, 0.308180,-0.363329, 9.795071,1,1
1778258704858,  3641.049,  3641.049,-0.043344, 0.049382,-0.995347,-0.000421, 0.000519,-0.009978,-0.118188, 0.105580, 0.033513,1,-0.057364, 0.006384,-0.039917,1, 0.306722,-0.380441, 9.794466,1,1
1778258704884,  3641.074,  3641.074,-0.056193, 0.044063,-0.975668,-0.000570, 0.000455,-0.009764,-0.245805, 0.043910, 0.226168,1,-0.051665, 0.010632,-0.038323,1, 0.304973,-0.389771, 9.794154,1,1
1778258704905,  3641.099,  3641.094,-0.054128, 0.025440,-1.000876,-0.000552, 0.000244,-0.010003,-0.258050,-0.052764, 0.034377,1,-0.047113,-0.000001,-0.032679,1, 0.304550,-0.398897, 9.793799,1,1
1778258704928,  3641.119,  3641.119,-0.038150, 0.037806,-0.999896,-0.000392, 0.000365,-0.010013,-0.069409,-0.040404,-0.012348,1,-0.048542, 0.003849,-0.035048,1, 0.304636,-0.412633, 9.793228,1,1
1778258704954,  3641.144,  3641.144,-0.042429, 0.051621,-0.991167,-0.000414, 0.000525,-0.009912,-0.112239, 0.086813, 0.072935,1,-0.041465, 0.008563,-0.032871,1, 0.303622,-0.420673, 9.792917,1,1
1778258704975,  3641.169,  3641.164,-0.053582, 0.037264,-0.994486,-0.000537, 0.000368,-0.009942,-0.214728,-0.011875, 0.028927,1,-0.037580, 0.007651,-0.029923,1, 0.302621,-0.429019, 9.792586,1,1
1778258704998,  3641.189,  3641.189,-0.047351, 0.038044,-0.990627,-0.000488, 0.000353,-0.009910,-0.162010,-0.064569, 0.077485,1,-0.029220, 0.000342,-0.029895,1, 0.302381,-0.438532, 9.792172,1,1
1778258705024,  3641.214,  3641.214,-0.035532, 0.059272,-0.997097,-0.000355, 0.000575,-0.009958,-0.046049, 0.138643, 0.013805,1,-0.023009, 0.003307,-0.027260,1, 0.302337,-0.443311, 9.791959,1,1
1778258705046,  3641.239,  3641.234,-0.045163, 0.045404,-0.996441,-0.000445, 0.000485,-0.009971,-0.085438, 0.114674,-0.025341,1,-0.014049, 0.004986,-0.026439,1, 0.301702,-0.446586, 9.791829,1,1
1778258705068,  3641.259,  3641.259,-0.047885, 0.027972,-0.986870,-0.000482, 0.000275,-0.009870,-0.168427,-0.173686, 0.113897,1,-0.002435, 0.001007,-0.023632,1, 0.301171,-0.448046, 9.791779,1,1
1778258705094,  3641.284,  3641.284,-0.038655, 0.041205,-0.995596,-0.000394, 0.000397,-0.009949,-0.077681,-0.044106, 0.028305,1,-0.000301, 0.000421,-0.018482,1, 0.301408,-0.448182, 9.791765,1,1
1778258705116,  3641.309,  3641.304,-0.036440, 0.038486,-1.001631,-0.000358, 0.000395,-0.010008,-0.042521,-0.013319,-0.055243,1, 0.003007, 0.000372,-0.016112,1, 0.301543,-0.447804, 9.791779,1,1
1778258705138,  3641.329,  3641.329,-0.040576, 0.032258,-0.991879,-0.000403, 0.000323,-0.009912,-0.096796,-0.129414, 0.064875,1, 0.008773, 0.001769,-0.009047,1, 0.301073,-0.445479, 9.791899,1,1
1778258705164,  3641.354,  3641.354,-0.037336, 0.036813,-0.992701,-0.000388, 0.000350,-0.009932,-0.065208,-0.083256, 0.056884,1, 0.008494,-0.000142,-0.007172,1, 0.300952,-0.443994, 9.791970,1,1
1778258705186,  3641.379,  3641.374,-0.028345, 0.030485,-0.995609,-0.000290, 0.000304,-0.009957, 0.001334,-0.074283, 0.068849,1, 0.008160,-0.003873,-0.002580,1, 0.302279,-0.441165, 9.792057,1,1
1778258705209,  3641.404,  3641.399,-0.022846, 0.037492,-1.002816,-0.000225, 0.000364,-0.010031, 0.078683,-0.069815,-0.042053,1, 0.014457,-0.000374, 0.004367,1, 0.302729,-0.437037, 9.792229,1,1
1778258705234,  3641.424,  3641.424,-0.024720, 0.046224,-0.992403,-0.000243, 0.000469,-0.009927, 0.060224, 0.018834, 0.060199,1, 0.015660, 0.001031, 0.000969,1, 0.302613,-0.433977, 9.792368,1,1
1778258705256,  3641.449,  3641.444,-0.019830, 0.050258,-0.992857,-0.000197, 0.000499,-0.009912, 0.086651, 0.040297, 0.104831,1, 0.015767,-0.003251, 0.001963,1, 0.302945,-0.431124, 9.792484,1,1
1778258705279,  3641.474,  3641.469,-0.012584, 0.050358,-1.000100,-0.000126, 0.000507,-0.010001, 0.180381, 0.067490,-0.014966,1, 0.021123,-0.002984, 0.001376,1, 0.303883,-0.425693, 9.792692,1,1
1778258705304,  3641.494,  3641.494,-0.012470, 0.045174,-0.996649,-0.000118, 0.000466,-0.009971, 0.167293,-0.014622, 0.048477,1, 0.027551,-0.000361, 0.000395,1, 0.304091,-0.420810, 9.792897,1,1
1778258705326,  3641.519,  3641.514,-0.014904, 0.056655,-0.994175,-0.000150, 0.000570,-0.009947, 0.155999, 0.107607, 0.020573,1, 0.034209,-0.000144, 0.000723,1, 0.304011,-0.414455, 9.793171,1,1
1778258705349,  3641.544,  3641.539,-0.012517, 0.049877,-0.989776,-0.000127, 0.000513,-0.009891, 0.181829, 0.084955, 0.087190,1, 0.040973,-0.004396,-0.002093,1, 0.304722,-0.402893, 9.793631,1,1
1778258705374,  3641.564,  3641.564,-0.010517, 0.043936,-0.995101,-0.000107, 0.000440,-0.009952, 0.201449, 0.034681, 0.035297,1, 0.043801,-0.002505,-0.004681,1, 0.304606,-0.394844, 9.793962,1,1
1778258705396,  3641.589,  3641.584,-0.010640, 0.044574,-0.993985,-0.000103, 0.000453,-0.009946, 0.210311, 0.067272, 0.011781,1, 0.048152,-0.000230,-0.005848,1, 0.304751,-0.385755, 9.794320,1,1
1778258705419,  3641.614,  3641.609,-0.014380, 0.039393,-0.994232,-0.000144, 0.000395,-0.009936, 0.163977, 0.015212, 0.044797,1, 0.060314,-0.001780,-0.003227,1, 0.305052,-0.369216, 9.794948,1,1
1778258705444,  3641.634,  3641.634,-0.014571, 0.035623,-0.997883,-0.000145, 0.000356,-0.009980, 0.162526,-0.009585, 0.009425,1, 0.063959,-0.002605,-0.002113,1, 0.305504,-0.356930, 9.795389,1,1
1778258705466,  3641.659,  3641.654,-0.016351, 0.032985,-0.992073,-0.000164, 0.000334,-0.009922, 0.160412,-0.023273, 0.059076,1, 0.067881,-0.002455,-0.003293,1, 0.306006,-0.343931, 9.795838,1,1
1778258705489,  3641.684,  3641.679,-0.020803, 0.031506,-0.995086,-0.000204, 0.000318,-0.009942, 0.102623,-0.016012, 0.038008,1, 0.075854,-0.001331, 0.001837,1, 0.306668,-0.322620, 9.796543,1,1
1778258705515,  3641.704,  3641.704,-0.024812, 0.029950,-0.998774,-0.000247, 0.000306,-0.009991, 0.063724,-0.015954, 0.002323,1, 0.079990,-0.003054, 0.003697,1, 0.307142,-0.307173, 9.797025,1,1
1778258705536,  3641.729,  3641.724,-0.029032, 0.022363,-0.991610,-0.000289, 0.000230,-0.009910, 0.030589,-0.055661, 0.059603,1, 0.081641,-0.002713, 0.003618,1, 0.307725,-0.291244, 9.797493,1,1
1778258705563,  3641.754,  3641.754,-0.030291, 0.024475,-0.997536,-0.000305, 0.000242,-0.009969, 0.011336,-0.029830, 0.015601,1, 0.083624,-0.003197, 0.007817,1, 0.308480,-0.267245, 9.798153,1,1
1778258705585,  3641.774,  3641.774,-0.033198, 0.023359,-0.998783,-0.000327, 0.000239,-0.009988,-0.017208,-0.024209, 0.003810,1, 0.086242,-0.002652, 0.009230,1, 0.308421,-0.250599, 9.798594,1,1
1778258705606,  3641.799,  3641.794,-0.034555, 0.023067,-0.991165,-0.000345, 0.000228,-0.009912,-0.032177,-0.030012, 0.067882,1, 0.084333,-0.002546, 0.010154,1, 0.308890,-0.233842, 9.798994,1,1
1778258705633,  3641.824,  3641.824,-0.035022, 0.025131,-0.994846,-0.000348, 0.000255,-0.009949,-0.033925, 0.033487, 0.043339,1, 0.075487,-0.002825, 0.006726,1, 0.309605,-0.210613, 9.799499,1,1
1778258705655,  3641.849,  3641.844,-0.038837, 0.013972,-0.995358,-0.000388, 0.000146,-0.009963,-0.048307,-0.024337, 0.021925,1, 0.070227,-0.002066, 0.005651,1, 0.310077,-0.196411, 9.799779,1,1
1778258705676,  3641.869,  3641.864,-0.038670, 0.015847,-0.992951,-0.000387, 0.000158,-0.009929,-0.071423,-0.051215, 0.051305,1, 0.061828,-0.001369, 0.004305,1, 0.310333,-0.183944, 9.800013,1,1
1778258705703,  3641.894,  3641.894,-0.038586, 0.015938,-0.995303,-0.000389, 0.000170,-0.009950,-0.067488,-0.013816, 0.039657,1, 0.047322,-0.002340,-0.000632,1, 0.310984,-0.168638, 9.800267,1,1
1778258705725,  3641.919,  3641.914,-0.039203, 0.008175,-0.995101,-0.000397, 0.000080,-0.009959,-0.077167,-0.079099, 0.027223,1, 0.040489,-0.002076, 0.000801,1, 0.311357,-0.160219, 9.800397,1,1
1778258705746,  3641.939,  3641.934,-0.038316, 0.010518,-0.994761,-0.000383, 0.000104,-0.009946,-0.069984,-0.056931, 0.046151,1, 0.031788,-0.000961, 0.000737,1, 0.311603,-0.153340, 9.800499,1,1
1778258705773,  3641.964,  3641.964,-0.038740, 0.012212,-0.996223,-0.000389, 0.000120,-0.009963,-0.067005,-0.025703, 0.030966,1, 0.026243,-0.000849,-0.000592,1, 0.313044,-0.144584, 9.800586,1,1
1778258705795,  3641.989,  3641.984,-0.038014, 0.011130,-0.993786,-0.000378, 0.000116,-0.009938,-0.064543,-0.011402, 0.049965,1, 0.024254,-0.001058, 0.001966,1, 0.313282,-0.139760, 9.800649,1,1
1778258705816,  3642.009,  3642.004,-0.037337, 0.006110,-0.996238,-0.000370, 0.000063,-0.009957,-0.054890,-0.055970, 0.048517,1, 0.023589,-0.000231, 0.001480,1, 0.313459,-0.135077, 9.800708,1,1
1778258705843,  3642.034,  3642.034,-0.035792, 0.009432,-0.998386,-0.000361, 0.000089,-0.009985,-0.037365,-0.036319, 0.009961,1, 0.025200,-0.001227, 0.005303,1, 0.313675,-0.128032, 9.800796,1,1
1778258705865,  3642.059,  3642.054,-0.033541, 0.008996,-0.992625,-0.000338, 0.000093,-0.009928,-0.019626,-0.025255, 0.062058,1, 0.030059,-0.002369, 0.007743,1, 0.314028,-0.122558, 9.800855,1,1
1778258705886,  3642.079,  3642.074,-0.031694, 0.008828,-0.996406,-0.000315, 0.000087,-0.009961,-0.003163,-0.048287, 0.047053,1, 0.031996,-0.002086, 0.008574,1, 0.314502,-0.116464, 9.800914,1,1
1778258705913,  3642.104,  3642.104,-0.029809, 0.011530,-0.997488,-0.000299, 0.000113,-0.009975, 0.022649, 0.005340, 0.018978,1, 0.035764,-0.002109, 0.010875,1, 0.315040,-0.106628, 9.801008,1,1
1778258705935,  3642.129,  3642.124,-0.030387, 0.008473,-0.994805,-0.000301, 0.000089,-0.009948, 0.019582,-0.007357, 0.055023,1, 0.039785,-0.001853, 0.012458,1, 0.315397,-0.099154, 9.801075,1,1
1778258705957,  3642.149,  3642.144,-0.030205, 0.009651,-0.997031,-0.000305, 0.000098,-0.009970, 0.015417,-0.008449, 0.033326,1, 0.041207,-0.002471, 0.012777,1, 0.315740,-0.091284, 9.801141,1,1
1778258705984,  3642.174,  3642.174,-0.028475, 0.011818,-0.994456,-0.000282, 0.000121,-0.009945, 0.037802, 0.035867, 0.048916,1, 0.040156,-0.002252, 0.011644,1, 0.317115,-0.078785, 9.801205,1,1
1778258706005,  3642.199,  3642.194,-0.027881, 0.010177,-0.995103,-0.000276, 0.000097,-0.009954, 0.048422, 0.035534, 0.061439,1, 0.038880,-0.002460, 0.010658,1, 0.317573,-0.070899, 9.801250,1,1
1778258706027,  3642.219,  3642.214,-0.028951, 0.008530,-0.995862,-0.000286, 0.000087,-0.009959, 0.041329, 0.033347, 0.045699,1, 0.039626,-0.001396, 0.010225,1, 0.317844,-0.063152, 9.801294,1,1
1778258706054,  3642.244,  3642.244,-0.029744, 0.008056,-0.996521,-0.000292, 0.000087,-0.009959, 0.026543, 0.025489, 0.028810,1, 0.034816,-0.002026, 0.005934,1, 0.318295,-0.052432, 9.801343,1,1
1778258706075,  3642.269,  3642.264,-0.029903, 0.005953,-0.994736,-0.000303, 0.000054,-0.009953, 0.019070, 0.003211, 0.048035,1, 0.030193,-0.002013, 0.004168,1, 0.318496,-0.046273, 9.801368,1,1
1778258706098,  3642.289,  3642.289,-0.030332, 0.004877,-0.996021,-0.000303, 0.000046,-0.009958, 0.021442, 0.008907, 0.033756,1, 0.026321,-0.001516, 0.002519,1, 0.318942,-0.038099, 9.801388,1,1
1778258706124,  3642.314,  3642.314,-0.031078, 0.003439,-0.995211,-0.000306, 0.000038,-0.009948, 0.014328,-0.000163, 0.041713,1, 0.025463,-0.001733, 0.001952,1, 0.319157,-0.033093, 9.801399,1,1
1778258706145,  3642.339,  3642.334,-0.033496, 0.000806,-0.995942,-0.000336, 0.000010,-0.009962, 0.000374,-0.010914, 0.040344,1, 0.023326, 0.000104, 0.001496,1, 0.319257,-0.028322, 9.801411,1,1
1778258706168,  3642.359,  3642.359,-0.034725,-0.003078,-0.995762,-0.000343,-0.000031,-0.009954,-0.021761,-0.053220, 0.036354,1, 0.020506,-0.001089, 0.002235,1, 0.318750,-0.022435, 9.801443,1,1
1778258706194,  3642.384,  3642.384,-0.034214,-0.003159,-0.995249,-0.000344,-0.000030,-0.009956,-0.016523,-0.050217, 0.041380,1, 0.018985,-0.001747, 0.003350,1, 0.319054,-0.018650, 9.801441,1,1
1778258706215,  3642.409,  3642.404,-0.033562,-0.002839,-0.994641,-0.000341,-0.000034,-0.009952,-0.016270,-0.047890, 0.038174,1, 0.016553,-0.000800, 0.004767,1, 0.319196,-0.015305, 9.801442,1,1
1778258706238,  3642.429,  3642.429,-0.032780,-0.001363,-0.992716,-0.000330,-0.000013,-0.009938,-0.002122,-0.025388, 0.066226,1, 0.008436,-0.000619, 0.003659,1, 0.319360,-0.011761, 9.801441,1,1
1778258706264,  3642.454,  3642.454,-0.034750,-0.002605,-0.995827,-0.000346,-0.000032,-0.009965,-0.021363,-0.036603, 0.035708,1, 0.006599, 0.000178, 0.003877,1, 0.319412,-0.010852, 9.801441,1,1
1778258706285,  3642.479,  3642.474,-0.036797,-0.010113,-0.996395,-0.000363,-0.000082,-0.009962,-0.046590,-0.090108,-0.013024,1, 0.004806, 0.000453, 0.008232,1, 0.319347,-0.009875, 9.801444,1,1
1778258706308,  3642.499,  3642.494,-0.031421,-0.000694,-0.990996,-0.000313,-0.000004,-0.009900,-0.029878,-0.068969, 0.083356,1, 0.003805,-0.001015, 0.010218,1, 0.319604,-0.009101, 9.801436,1,1
1778258706334,  3642.524,  3642.524,-0.026743, 0.007402,-0.998169,-0.000275, 0.000067,-0.009986, 0.057583, 0.064039, 0.012738,1, 0.001823,-0.000896, 0.007968,1, 0.319872,-0.008499, 9.801428,1,1
1778258706356,  3642.549,  3642.544,-0.030304, 0.000962,-0.991733,-0.000300, 0.000016,-0.009928, 0.027368, 0.037022, 0.027896,1, 0.004821,-0.000893, 0.008534,1, 0.320072,-0.007837, 9.801422,1,1
1778258706378,  3642.569,  3642.569,-0.032127, 0.001394,-0.991767,-0.000323, 0.000010,-0.009932, 0.005166, 0.007736, 0.075510,1, 0.003357, 0.000973, 0.007057,1, 0.320191,-0.005830, 9.801419,1,1
1778258706404,  3642.594,  3642.594,-0.031526, 0.005204,-0.998440,-0.000296, 0.000052,-0.009968, 0.011195, 0.045928, 0.010063,1, 0.004402,-0.001660, 0.005531,1, 0.320416,-0.004975, 9.801413,1,1
1778258706426,  3642.619,  3642.614,-0.029195, 0.005260,-0.995586,-0.000294, 0.000048,-0.009947, 0.036755, 0.047695, 0.035833,1, 0.004582,-0.001070, 0.006019,1, 0.320671,-0.003971, 9.801405,1,1
1778258706448,  3642.644,  3642.639,-0.028229, 0.004110,-0.991541,-0.000288, 0.000052,-0.009915, 0.043888, 0.037213, 0.077711,1, 0.001398,-0.000550,-0.000123,1, 0.320737,-0.003053, 9.801403,1,1
1778258706474,  3642.664,  3642.664,-0.035026,-0.002706,-1.000376,-0.000353,-0.000020,-0.010013,-0.022791,-0.028954,-0.008937,1, 0.003205, 0.001637, 0.000353,1, 0.320647,-0.002318, 9.801406,1,1
1778258706496,  3642.689,  3642.684,-0.031362, 0.002098,-0.988468,-0.000311, 0.000014,-0.009890,-0.021662,-0.005097, 0.044019,1, 0.004340,-0.001538, 0.002996,1, 0.320805,-0.001500, 9.801401,1,1
1778258706518,  3642.714,  3642.709,-0.028740, 0.001115,-0.995678,-0.000284, 0.000006,-0.009939, 0.039292, 0.009477, 0.037125,1,-0.002447,-0.000291,-0.003019,1, 0.321149,-0.001528, 9.801390,1,1
1778258706544,  3642.734,  3642.734,-0.033695,-0.001353,-1.004256,-0.000331,-0.000017,-0.010045,-0.009288,-0.015251,-0.046998,1,-0.002714, 0.000806, 0.000247,1, 0.321117,-0.002066, 9.801391,1,1
1778258706566,  3642.759,  3642.754,-0.033504, 0.000099,-0.987981,-0.000330, 0.000007,-0.009880,-0.006770, 0.005356, 0.071479,1, 0.000418, 0.000135, 0.000371,1, 0.321005,-0.002020, 9.801394,1,1
1778258706589,  3642.784,  3642.779,-0.033259,-0.003635,-0.996750,-0.000331,-0.000039,-0.009953,-0.005243,-0.038106, 0.026615,1, 0.000758,-0.001269, 0.000337,1, 0.320955,-0.002432, 9.801396,1,1
1778258706614,  3642.804,  3642.804,-0.031305, 0.002019,-1.001797,-0.000314, 0.000014,-0.010021, 0.013986, 0.017669,-0.022883,1, 0.002957, 0.000037, 0.002744,1, 0.320978,-0.002041, 9.801395,1,1
1778258706636,  3642.829,  3642.824,-0.034901,-0.003836,-0.990686,-0.000350,-0.000038,-0.009908,-0.011047,-0.015742, 0.076043,1, 0.002179, 0.000257, 0.001261,1, 0.320935,-0.001627, 9.801397,1,1
1778258706659,  3642.854,  3642.849,-0.033827, 0.001614,-0.996229,-0.000341, 0.000017,-0.009955,-0.010722, 0.014499, 0.031726,1, 0.001066,-0.001591, 0.001880,1, 0.321053,-0.001302, 9.801394,1,1
1778258706684,  3642.874,  3642.874,-0.031858, 0.002061,-0.998515,-0.000319, 0.000028,-0.009986, 0.008800, 0.019019, 0.009295,1, 0.000395,-0.001270, 0.001713,1, 0.321259,-0.001181, 9.801387,1,1
1778258706706,  3642.899,  3642.894,-0.031558,-0.000199,-0.993324,-0.000318,-0.000004,-0.009935, 0.015479,-0.015844, 0.062281,1,-0.001818,-0.000423, 0.000777,1, 0.321273,-0.001380, 9.801386,1,1
1778258706729,  3642.924,  3642.919,-0.032550,-0.000312,-0.996522,-0.000325, 0.000003,-0.009956, 0.002045,-0.005541, 0.028848,1,-0.003948, 0.000787, 0.000273,1, 0.321227,-0.002605, 9.801387,1,1
1778258706754,  3642.944,  3642.944,-0.031870, 0.002072,-0.994938,-0.000321, 0.000018,-0.009959, 0.008815, 0.017440, 0.044378,1, 0.000159, 0.000002, 0.001299,1, 0.321352,-0.002881, 9.801383,1,1
1778258706776,  3642.969,  3642.964,-0.028693, 0.003367,-0.996369,-0.000285, 0.000041,-0.009960, 0.033278, 0.044334, 0.039871,1, 0.003072,-0.000894, 0.000906,1, 0.321564,-0.002499, 9.801376,1,1
1778258706803,  3642.994,  3642.994,-0.032532,-0.004566,-0.994250,-0.000328,-0.000050,-0.009939, 0.002682,-0.045810, 0.051110,1, 0.004597, 0.000441, 0.002110,1, 0.321696,-0.000888, 9.801373,1,1
1778258706825,  3643.014,  3643.014,-0.035676,-0.005333,-0.998429,-0.000351,-0.000053,-0.009985,-0.028164,-0.052620, 0.010125,1, 0.004192,-0.000425, 0.003782,1, 0.321716,-0.000196, 9.801372,1,1
1778258706846,  3643.039,  3643.034,-0.033244,-0.000936,-0.993407,-0.000331,-0.000024,-0.009937,-0.024399,-0.042358, 0.053076,1, 0.007737,-0.000433, 0.003882,1, 0.321791, 0.001125, 9.801369,1,1
1778258706873,  3643.064,  3643.064,-0.032886, 0.002498,-0.995933,-0.000329, 0.000028,-0.009955,-0.000351, 0.028770, 0.034592,1, 0.016433,-0.000746, 0.008855,1, 0.322171, 0.004775, 9.801355,1,1
1778258706895,  3643.089,  3643.084,-0.034469,-0.002455,-0.997982,-0.000340,-0.000020,-0.009969,-0.003313,-0.007059,-0.005856,1, 0.023482,-0.000782, 0.008504,1, 0.322273, 0.008760, 9.801350,1,1
1778258706916,  3643.109,  3643.104,-0.031945,-0.002699,-0.991306,-0.000334,-0.000029,-0.009916,-0.015405,-0.037600, 0.057552,1, 0.028603,-0.002182, 0.010995,1, 0.322624, 0.013970, 9.801332,1,1
1778258706943,  3643.134,  3643.134,-0.032548,-0.000199,-0.995588,-0.000329,-0.000002,-0.009963, 0.003959, 0.020193, 0.037917,1, 0.033720,-0.001904, 0.013293,1, 0.323205, 0.023184, 9.801295,1,1
1778258706965,  3643.159,  3643.154,-0.031321,-0.004433,-0.994986,-0.000312,-0.000042,-0.009954, 0.025290, 0.000653, 0.018120,1, 0.037496,-0.002499, 0.013300,1, 0.323658, 0.030184, 9.801261,1,1
1778258706986,  3643.179,  3643.174,-0.032364,-0.006021,-0.993569,-0.000330,-0.000066,-0.009944, 0.019862,-0.014807, 0.062283,1, 0.038221,-0.001809, 0.013665,1, 0.324134, 0.037702, 9.801219,1,1
1778258707013,  3643.204,  3643.204,-0.033775,-0.006112,-0.997575,-0.000334,-0.000058,-0.009968,-0.006594,-0.012266, 0.018294,1, 0.037562,-0.002521, 0.015334,1, 0.324708, 0.048824, 9.801151,1,1
1778258707035,  3643.229,  3643.224,-0.033433,-0.008012,-0.995249,-0.000330,-0.000086,-0.009959,-0.002677,-0.030436, 0.033884,1, 0.035810,-0.002472, 0.015274,1, 0.325141, 0.055901, 9.801099,1,1
1778258707056,  3643.249,  3643.244,-0.032243,-0.005030,-0.994839,-0.000321,-0.000051,-0.009946, 0.004664,-0.024789, 0.037316,1, 0.033226,-0.001583, 0.014829,1, 0.325472, 0.062447, 9.801048,1,1
1778258707083,  3643.274,  3643.274,-0.032651,-0.002892,-0.995163,-0.000319,-0.000025,-0.009957, 0.005731, 0.041925, 0.041763,1, 0.027665,-0.001106, 0.013448,1, 0.325966, 0.071134, 9.800973,1,1
1778258707105,  3643.299,  3643.294,-0.036070,-0.005605,-0.996575,-0.000346,-0.000052,-0.009962,-0.022639, 0.020558, 0.037809,1, 0.025860,-0.001044, 0.011070,1, 0.326230, 0.076296, 9.800925,1,1
1778258707126,  3643.319,  3643.314,-0.034911,-0.007817,-0.994874,-0.000337,-0.000078,-0.009946,-0.030734, 0.006329, 0.037453,1, 0.023016,-0.000757, 0.009953,1, 0.326473, 0.080972, 9.800879,1,1
1778258707153,  3643.344,  3643.344,-0.033149,-0.007662,-0.996122,-0.000326,-0.000073,-0.009942, 0.001720, 0.011276, 0.032199,1, 0.018440,-0.000454, 0.008042,1, 0.326820, 0.086976, 9.800817,1,1
1778258707175,  3643.369,  3643.364,-0.031411,-0.006542,-0.994508,-0.000327,-0.000066,-0.009957, 0.006955, 0.031965, 0.036508,1, 0.014910,-0.001241, 0.006663,1, 0.326873, 0.090101, 9.800787,1,1
1778258707196,  3643.389,  3643.384,-0.032731,-0.007850,-0.994862,-0.000324,-0.000075,-0.009942,-0.009913, 0.019765, 0.034124,1, 0.011915, 0.000232, 0.005317,1, 0.326872, 0.092636, 9.800763,1,1
1778258707223,  3643.414,  3643.414,-0.034862,-0.012214,-0.995446,-0.000345,-0.000115,-0.009947,-0.015086,-0.024963, 0.038758,1, 0.006901,-0.000226, 0.003032,1, 0.326800, 0.095028, 9.800742,1,1
1778258707245,  3643.439,  3643.434,-0.033441,-0.008483,-0.995774,-0.000336,-0.000089,-0.009962, 0.000684, 0.002346, 0.033398,1, 0.003224, 0.000140, 0.002452,1, 0.326762, 0.095748, 9.800736,1,1
1778258707267,  3643.459,  3643.454,-0.032927,-0.008867,-0.994729,-0.000326,-0.000084,-0.009945, 0.002577, 0.009586, 0.043728,1,-0.000447,-0.000235, 0.000915,1, 0.326764, 0.095848, 9.800735,1,1
1778258707294,  3643.484,  3643.484,-0.032437,-0.010861,-0.995268,-0.000324,-0.000107,-0.009953,-0.001939, 0.001960, 0.048042,1,-0.003187,-0.001419,-0.000146,1, 0.326923, 0.095408, 9.800735,1,1
1778258707315,  3643.509,  3643.504,-0.031796,-0.010896,-0.996374,-0.000321,-0.000110,-0.009963, 0.009706,-0.015923, 0.028153,1,-0.006749, 0.001025,-0.000468,1, 0.326834, 0.093738, 9.800754,1,1
1778258707338,  3643.529,  3643.529,-0.030266,-0.009803,-0.993872,-0.000303,-0.000101,-0.009938, 0.030162,-0.004765, 0.054216,1,-0.010256,-0.000121,-0.000800,1, 0.326973, 0.091048, 9.800775,1,1
1778258707364,  3643.554,  3643.554,-0.030306,-0.009609,-0.995493,-0.000303,-0.000099,-0.009953, 0.029751,-0.004834, 0.038338,1,-0.010287, 0.000291,-0.000590,1, 0.326939, 0.089077, 9.800794,1,1
1778258707385,  3643.579,  3643.574,-0.032293,-0.009741,-0.995001,-0.000323,-0.000097,-0.009953, 0.012388,-0.013782, 0.028765,1,-0.008993, 0.000243, 0.000347,1, 0.326709, 0.087226, 9.800818,1,1
1778258707408,  3643.599,  3643.599,-0.032691,-0.010060,-0.993722,-0.000326,-0.000102,-0.009937, 0.006190,-0.013734, 0.055754,1,-0.009512,-0.000425, 0.001175,1, 0.326788, 0.084626, 9.800838,1,1
1778258707434,  3643.624,  3643.624,-0.033542,-0.009751,-0.995846,-0.000334,-0.000098,-0.009955,-0.002164,-0.012577, 0.034939,1,-0.009659, 0.000092, 0.001198,1, 0.326772, 0.082743, 9.800855,1,1
1778258707455,  3643.649,  3643.644,-0.034484,-0.007895,-0.995668,-0.000344,-0.000078,-0.009958,-0.008445,-0.003740, 0.027366,1,-0.008563, 0.000682, 0.000815,1, 0.326653, 0.080870, 9.800875,1,1
1778258707478,  3643.669,  3643.669,-0.034973,-0.008458,-0.994303,-0.000351,-0.000082,-0.009938,-0.016544,-0.004288, 0.050115,1,-0.007796, 0.000686, 0.002133,1, 0.326401, 0.078416, 9.800903,1,1
1778258707504,  3643.694,  3643.694,-0.034815,-0.009156,-0.995576,-0.000348,-0.000090,-0.009953,-0.015027,-0.012742, 0.037652,1,-0.008624,-0.000458, 0.002508,1, 0.326402, 0.076777, 9.800916,1,1
1778258707525,  3643.719,  3643.714,-0.033035,-0.008317,-0.995334,-0.000335,-0.000082,-0.009953,-0.009708,-0.006665, 0.034056,1,-0.009708, 0.000713, 0.002551,1, 0.326321, 0.075008, 9.800932,1,1
1778258707548,  3643.739,  3643.739,-0.033664,-0.008018,-0.994255,-0.000339,-0.000085,-0.009946,-0.004022,-0.006340, 0.050652,1,-0.011595, 0.000758, 0.001730,1, 0.326086, 0.071929, 9.800963,1,1
1778258707574,  3643.764,  3643.764,-0.033058,-0.009732,-0.995380,-0.000332,-0.000095,-0.009951, 0.001915,-0.025457, 0.039631,1,-0.014545, 0.000693, 0.002295,1, 0.326094, 0.069545, 9.800980,1,1
1778258707595,  3643.789,  3643.784,-0.031518,-0.009441,-0.995946,-0.000316,-0.000092,-0.009960, 0.001625,-0.026708, 0.033677,1,-0.016767, 0.000535, 0.001058,1, 0.325990, 0.066487, 9.801004,1,1
1778258707618,  3643.809,  3643.809,-0.031447,-0.006592,-0.994499,-0.000308,-0.000069,-0.009939, 0.017456,-0.002965, 0.048339,1,-0.019926, 0.000822, 0.002097,1, 0.325824, 0.061060, 9.801045,1,1
1778258707644,  3643.834,  3643.834,-0.031480,-0.006231,-0.995172,-0.000317,-0.000063,-0.009958, 0.016946,-0.003650, 0.041772,1,-0.022335, 0.000476, 0.001578,1, 0.325641, 0.056754, 9.801078,1,1
1778258707665,  3643.859,  3643.854,-0.032412,-0.008087,-0.995710,-0.000317,-0.000080,-0.009954, 0.012731,-0.024155, 0.030002,1,-0.024821,-0.000190, 0.001372,1, 0.325523, 0.052038, 9.801107,1,1
1778258707688,  3643.884,  3643.879,-0.032128,-0.006857,-0.995063,-0.000321,-0.000071,-0.009958, 0.010129,-0.022136, 0.042917,1,-0.028053, 0.001721, 0.002030,1, 0.325146, 0.044232, 9.801159,1,1
1778258707714,  3643.904,  3643.904,-0.032531,-0.006283,-0.996349,-0.000316,-0.000062,-0.009944, 0.005950,-0.022054, 0.030340,1,-0.028821, 0.000680, 0.002471,1, 0.324946, 0.038655, 9.801188,1,1
1778258707736,  3643.929,  3643.924,-0.032012,-0.005173,-0.996224,-0.000322,-0.000051,-0.009958, 0.012039,-0.019658, 0.031549,1,-0.029091, 0.000909, 0.002973,1, 0.324732, 0.032930, 9.801217,1,1
1778258707758,  3643.954,  3643.949,-0.031281,-0.004409,-0.994352,-0.000314,-0.000039,-0.009947, 0.017679,-0.018434, 0.049987,1,-0.032176, 0.000678, 0.003070,1, 0.324425, 0.023794, 9.801253,1,1
1778258707784,  3643.974,  3643.974,-0.032759,-0.003035,-0.996123,-0.000329,-0.000026,-0.009962, 0.002675,-0.010925, 0.032654,1,-0.033377, 0.000920, 0.003672,1, 0.323900, 0.017791, 9.801284,1,1
1778258707806,  3643.999,  3643.994,-0.033797,-0.003027,-0.994948,-0.000337,-0.000039,-0.009956,-0.003395,-0.006642, 0.046092,1,-0.033115, 0.001306, 0.003285,1, 0.323690, 0.011208, 9.801300,1,1
1778258707828,  3644.024,  3644.019,-0.033795,-0.000734,-0.995548,-0.000337,-0.000020,-0.009958,-0.007959,-0.005079, 0.038322,1,-0.035742, 0.002287, 0.003184,1, 0.323386, 0.001005, 9.801316,1,1
1778258707854,  3644.044,  3644.044,-0.033982,-0.000504,-0.997482,-0.000336,-0.000006,-0.009961,-0.010033,-0.009766, 0.019361,1,-0.036131, 0.001675, 0.003249,1, 0.323167,-0.005953, 9.801322,1,1
1778258707876,  3644.069,  3644.064,-0.033561, 0.004740,-0.995631,-0.000339, 0.000044,-0.009955, 0.006953, 0.007552, 0.028083,1,-0.034834, 0.000407, 0.003249,1, 0.322936,-0.012758, 9.801323,1,1
1778258707899,  3644.094,  3644.089,-0.030768, 0.005046,-0.993758,-0.000320, 0.000051,-0.009940, 0.020830, 0.027805, 0.055883,1,-0.032867, 0.000956, 0.002578,1, 0.322530,-0.022710, 9.801318,1,1
1778258707924,  3644.114,  3644.114,-0.031258, 0.006141,-0.996459,-0.000319, 0.000052,-0.009958, 0.015844, 0.031969, 0.029379,1,-0.032421, 0.001445, 0.001464,1, 0.322340,-0.029263, 9.801308,1,1
1778258707946,  3644.139,  3644.134,-0.031532, 0.009556,-0.994869,-0.000320, 0.000095,-0.009956, 0.017066, 0.053983, 0.036686,1,-0.029720, 0.001732, 0.000806,1, 0.322121,-0.035393, 9.801294,1,1
1778258707969,  3644.164,  3644.159,-0.031721, 0.010757,-0.994404,-0.000321, 0.000103,-0.009939, 0.010787, 0.063111, 0.049503,1,-0.022298, 0.001347, 0.000785,1, 0.321818,-0.043098, 9.801273,1,1
1778258707994,  3644.184,  3644.179,-0.030643, 0.012481,-0.994684,-0.000311, 0.000123,-0.009952, 0.021208, 0.076196, 0.046747,1,-0.016249, 0.000106,-0.000096,1, 0.321711,-0.046711, 9.801260,1,1
1778258708016,  3644.209,  3644.204,-0.032411, 0.007303,-0.995876,-0.000322, 0.000077,-0.009957, 0.009052, 0.044951, 0.028851,1,-0.011367, 0.000061,-0.000051,1, 0.321715,-0.049264, 9.801248,1,1
1778258708043,  3644.234,  3644.234,-0.033317, 0.007244,-0.993905,-0.000333, 0.000074,-0.009944,-0.005111, 0.019883, 0.054358,1,-0.005295,-0.000629, 0.001154,1, 0.321636,-0.051325, 9.801240,1,1
1778258708064,  3644.254,  3644.254,-0.034222, 0.007551,-0.996226,-0.000344, 0.000078,-0.009962,-0.014038, 0.022344, 0.031604,1,-0.001498, 0.000347, 0.000848,1, 0.321552,-0.051755, 9.801240,1,1
1778258708086,  3644.279,  3644.274,-0.033790, 0.006081,-0.996255,-0.000337, 0.000058,-0.009962,-0.009015,-0.002984, 0.036836,1, 0.002225,-0.000294, 0.002234,1, 0.321626,-0.051540, 9.801239,1,1
1778258708113,  3644.304,  3644.304,-0.034318, 0.004599,-0.995679,-0.000341, 0.000052,-0.009954,-0.014888,-0.005201, 0.036969,1, 0.006673,-0.001158, 0.002867,1, 0.321690,-0.050098, 9.801245,1,1
1778258708134,  3644.329,  3644.324,-0.033271, 0.005045,-0.994788,-0.000332, 0.000053,-0.009942,-0.011290, 0.003927, 0.054807,1, 0.007864,-0.000781, 0.003082,1, 0.321737,-0.048648, 9.801250,1,1
1778258708156,  3644.349,  3644.344,-0.032967, 0.003858,-0.996295,-0.000328, 0.000042,-0.009954,-0.006416, 0.008566, 0.029647,1, 0.006761,-0.000445, 0.002839,1, 0.321746,-0.047278, 9.801256,1,1
1778258708183,  3644.374,  3644.374,-0.031142, 0.004682,-0.994819,-0.000320, 0.000044,-0.009963, 0.016568,-0.000323, 0.045412,1, 0.004820,-0.000097, 0.002033,1, 0.321965,-0.046092, 9.801255,1,1
1778258708205,  3644.399,  3644.394,-0.032693, 0.005318,-0.995361,-0.000316, 0.000053,-0.009940, 0.001448, 0.003909, 0.031334,1, 0.003781, 0.000481, 0.002141,1, 0.321869,-0.045163, 9.801263,1,1
1778258708226,  3644.419,  3644.414,-0.032110, 0.003262,-0.995721,-0.000327, 0.000025,-0.009964, 0.012947,-0.001940, 0.053496,1, 0.003380,-0.000013, 0.001856,1, 0.321846,-0.044567, 9.801266,1,1
1778258708253,  3644.444,  3644.444,-0.030891, 0.004778,-0.995980,-0.000307, 0.000049,-0.009953, 0.019026, 0.002717, 0.034039,1, 0.000297,-0.000449, 0.001704,1, 0.321974,-0.044133, 9.801264,1,1
1778258708275,  3644.469,  3644.464,-0.031061, 0.004669,-0.995174,-0.000313, 0.000041,-0.009954, 0.025459,-0.003517, 0.043902,1,-0.000738,-0.000085, 0.000777,1, 0.321880,-0.044208, 9.801267,1,1
1778258708296,  3644.489,  3644.484,-0.031763, 0.004602,-0.994721,-0.000316, 0.000046,-0.009944, 0.009462,-0.005444, 0.041420,1,-0.001835, 0.000933, 0.000761,1, 0.321830,-0.044553, 9.801267,1,1
1778258708323,  3644.514,  3644.514,-0.030756, 0.004170,-0.995436,-0.000311, 0.000040,-0.009956, 0.020200,-0.004575, 0.039371,1,-0.003478,-0.000221,-0.000159,1, 0.321819,-0.045573, 9.801262,1,1
1778258708345,  3644.539,  3644.534,-0.030982, 0.005066,-0.996168,-0.000308, 0.000049,-0.009960, 0.014959,-0.000906, 0.035008,1,-0.002929, 0.000066,-0.000010,1, 0.321835,-0.046303, 9.801258,1,1
1778258708366,  3644.559,  3644.554,-0.031615, 0.004690,-0.995464,-0.000318, 0.000049,-0.009957, 0.012213, 0.003780, 0.041226,1,-0.003328,-0.000408, 0.000221,1, 0.321868,-0.046979, 9.801254,1,1
1778258708393,  3644.584,  3644.584,-0.033175, 0.004535,-0.995894,-0.000330, 0.000043,-0.009957,-0.003876,-0.003349, 0.034882,1,-0.003105, 0.000041, 0.000862,1, 0.321457,-0.047920, 9.801263,1,1
1778258708415,  3644.609,  3644.604,-0.033671, 0.004348,-0.994879,-0.000339, 0.000043,-0.009951,-0.014589,-0.002386, 0.043180,1,-0.001817,-0.000022, 0.000958,1, 0.321480,-0.048344, 9.801260,1,1
1778258708436,  3644.629,  3644.624,-0.034890, 0.004192,-0.995879,-0.000347, 0.000041,-0.009960,-0.009618,-0.004523, 0.038928,1,-0.003269, 0.000470, 0.000469,1, 0.321448,-0.048990, 9.801258,1,1
1778258708463,  3644.654,  3644.654,-0.034233, 0.003963,-0.995249,-0.000343, 0.000041,-0.009952,-0.014483,-0.011335, 0.041203,1,-0.005442, 0.000645, 0.000605,1, 0.321210,-0.050371, 9.801259,1,1
1778258708485,  3644.679,  3644.674,-0.033617, 0.004565,-0.995456,-0.000336, 0.000045,-0.009952,-0.013038,-0.015938, 0.043830,1,-0.007503, 0.000166, 0.000814,1, 0.321223,-0.051748, 9.801251,1,1
1778258708506,  3644.699,  3644.694,-0.033204, 0.005182,-0.995737,-0.000332, 0.000052,-0.009959,-0.010200,-0.001701, 0.035454,1,-0.009404, 0.000480, 0.000467,1, 0.321131,-0.053398, 9.801246,1,1
1778258708533,  3644.724,  3644.724,-0.033277, 0.003830,-0.995104,-0.000333, 0.000042,-0.009952,-0.005394,-0.018358, 0.042597,1,-0.010699, 0.000605, 0.000395,1, 0.320923,-0.056255, 9.801236,1,1
1778258708555,  3644.749,  3644.744,-0.031922, 0.003545,-0.995760,-0.000320, 0.000034,-0.009957,-0.001543,-0.028501, 0.044661,1,-0.012656, 0.000343, 0.000577,1, 0.320853,-0.058614, 9.801225,1,1
1778258708578,  3644.769,  3644.769,-0.031048, 0.005152,-0.996135,-0.000314, 0.000050,-0.009965, 0.016547,-0.011670, 0.032450,1,-0.015111, 0.000242, 0.000888,1, 0.321015,-0.062670, 9.801194,1,1
1778258708604,  3644.794,  3644.794,-0.030459, 0.007012,-0.995446,-0.000305, 0.000070,-0.009951, 0.022230, 0.003460, 0.039190,1,-0.016271,-0.000153, 0.000780,1, 0.320940,-0.065813, 9.801176,1,1
1778258708625,  3644.819,  3644.814,-0.030285, 0.007902,-0.995169,-0.000304, 0.000078,-0.009954, 0.021420, 0.011313, 0.042355,1,-0.014216, 0.000188, 0.000288,1, 0.320900,-0.068840, 9.801156,1,1
1778258708648,  3644.839,  3644.839,-0.030899, 0.009031,-0.996049,-0.000307, 0.000088,-0.009960, 0.017701, 0.015991, 0.033234,1,-0.013014, 0.000548,-0.000336,1, 0.320701,-0.072975, 9.801133,1,1
1778258708674,  3644.864,  3644.864,-0.031061, 0.009835,-0.995391,-0.000308, 0.000099,-0.009954, 0.015987, 0.021464, 0.039667,1,-0.011489, 0.000185, 0.000324,1, 0.320585,-0.075340, 9.801119,1,1
1778258708695,  3644.889,  3644.884,-0.031743, 0.010392,-0.995393,-0.000316, 0.000100,-0.009953, 0.011263, 0.022726, 0.040876,1,-0.009529, 0.000168, 0.000187,1, 0.320497,-0.077221, 9.801107,1,1
1778258708718,  3644.909,  3644.909,-0.031616, 0.009541,-0.994760,-0.000315, 0.000096,-0.009951, 0.010475, 0.014616, 0.045832,1,-0.004472,-0.000282, 0.000580,1, 0.320535,-0.079094, 9.801091,1,1
1778258708744,  3644.934,  3644.934,-0.032318, 0.009594,-0.995652,-0.000322, 0.000097,-0.009956, 0.003598, 0.014315, 0.037074,1,-0.003697,-0.000312, 0.000174,1, 0.320539,-0.079883, 9.801085,1,1
1778258708765,  3644.959,  3644.954,-0.034077, 0.007389,-0.995620,-0.000337, 0.000074,-0.009960,-0.008308,-0.005542, 0.039361,1,-0.002171, 0.000644, 0.000590,1, 0.320471,-0.080348, 9.801083,1,1
1778258708788,  3644.979,  3644.979,-0.034714, 0.008128,-0.995079,-0.000346, 0.000080,-0.009951,-0.020355,-0.001474, 0.042696,1,-0.001994, 0.000653, 0.000841,1, 0.320053,-0.081243, 9.801089,1,1
1778258708814,  3645.004,  3645.004,-0.035371, 0.008416,-0.994804,-0.000351, 0.000084,-0.009948,-0.026780, 0.001044, 0.045387,1,-0.002151,-0.000413, 0.000482,1, 0.320101,-0.081556, 9.801085,1,1
1778258708835,  3645.029,  3645.024,-0.033567, 0.008770,-0.996237,-0.000335, 0.000086,-0.009961,-0.017914,-0.006485, 0.036229,1,-0.004061, 0.000503, 0.000240,1, 0.320077,-0.082262, 9.801080,1,1
1778258708858,  3645.049,  3645.049,-0.033330, 0.008032,-0.995123,-0.000335, 0.000078,-0.009953,-0.006866,-0.004744, 0.042249,1,-0.005773, 0.000442,-0.000814,1, 0.319978,-0.083686, 9.801071,1,1
1778258708884,  3645.074,  3645.074,-0.032752, 0.007481,-0.995010,-0.000326, 0.000072,-0.009947,-0.001283,-0.011413, 0.043349,1,-0.007042, 0.000604,-0.000136,1, 0.319885,-0.084996, 9.801063,1,1
1778258708905,  3645.099,  3645.094,-0.030899, 0.009622,-0.995740,-0.000309, 0.000093,-0.009958, 0.007696, 0.001293, 0.044155,1,-0.007753, 0.001146,-0.000664,1, 0.319830,-0.086576, 9.801051,1,1
1778258708928,  3645.124,  3645.119,-0.030439, 0.009772,-0.995485,-0.000304, 0.000098,-0.009954, 0.021218, 0.006851, 0.038661,1,-0.009278,-0.000135,-0.000858,1, 0.319729,-0.089270, 9.801030,1,1
1778258708954,  3645.144,  3645.144,-0.030253, 0.010137,-0.994968,-0.000302, 0.000099,-0.009946, 0.022934, 0.008398, 0.043715,1,-0.011082, 0.000317,-0.001652,1, 0.319604,-0.091361, 9.801015,1,1
1778258708975,  3645.169,  3645.164,-0.030537, 0.009545,-0.996056,-0.000307, 0.000097,-0.009962, 0.023412, 0.008091, 0.031872,1,-0.013272,-0.000080,-0.002852,1, 0.319630,-0.093764, 9.800991,1,1
1778258708998,  3645.194,  3645.189,-0.030821, 0.009070,-0.995120,-0.000307, 0.000091,-0.009952, 0.017283,-0.008699, 0.042161,1,-0.016128, 0.000175,-0.002682,1, 0.319533,-0.098150, 9.800951,1,1
1778258709024,  3645.214,  3645.214,-0.030875, 0.010079,-0.994826,-0.000307, 0.000099,-0.009948, 0.016690,-0.001945, 0.045019,1,-0.015586, 0.000305,-0.002483,1, 0.319459,-0.101271, 9.800922,1,1
1778258709046,  3645.239,  3645.234,-0.031385, 0.010969,-0.995235,-0.000315, 0.000111,-0.009954, 0.009607, 0.003705, 0.040370,1,-0.015022, 0.001039,-0.002731,1, 0.319280,-0.104260, 9.800897,1,1
1778258709068,  3645.264,  3645.259,-0.032126, 0.011377,-0.995816,-0.000321, 0.000111,-0.009960, 0.004263, 0.004159, 0.035244,1,-0.009576, 0.000166,-0.001495,1, 0.319311,-0.107708, 9.800858,1,1
1778258709094,  3645.284,  3645.284,-0.032632, 0.011787,-0.994915,-0.000326, 0.000119,-0.009950,-0.000759, 0.006787, 0.044065,1,-0.005447,-0.000150, 0.000021,1, 0.319253,-0.108976, 9.800846,1,1
1778258709116,  3645.309,  3645.304,-0.033026, 0.013809,-0.995697,-0.000329, 0.000137,-0.009957, 0.000096, 0.014431, 0.038351,1,-0.001033, 0.000484, 0.001087,1, 0.319224,-0.109390, 9.800842,1,1
1778258709138,  3645.334,  3645.329,-0.034071, 0.014202,-0.995689,-0.000339, 0.000144,-0.009955,-0.014994, 0.030444, 0.036482,1, 0.004723, 0.000269, 0.001732,1, 0.319120,-0.108684, 9.800854,1,1
1778258709164,  3645.354,  3645.354,-0.034597, 0.013198,-0.994928,-0.000346, 0.000132,-0.009952,-0.020143, 0.021804, 0.043957,1, 0.007840, 0.000137, 0.001839,1, 0.319135,-0.107381, 9.800868,1,1
1778258709186,  3645.379,  3645.374,-0.034325, 0.014623,-0.995373,-0.000344, 0.000146,-0.009952,-0.015196, 0.031762, 0.035118,1, 0.010557,-0.000707, 0.000988,1, 0.319130,-0.105682, 9.800886,1,1
1778258709209,  3645.404,  3645.399,-0.034547, 0.014126,-0.995937,-0.000344, 0.000145,-0.009960,-0.019508, 0.036271, 0.034113,1, 0.014424,-0.000305, 0.001014,1, 0.319288,-0.101812, 9.800922,1,1
1778258709234,  3645.424,  3645.424,-0.034316, 0.013373,-0.995247,-0.000342, 0.000135,-0.009953,-0.017193, 0.031974, 0.040906,1, 0.016722,-0.000407, 0.000356,1, 0.319348,-0.098648, 9.800953,1,1
1778258709256,  3645.449,  3645.444,-0.033572, 0.010084,-0.995599,-0.000337, 0.000104,-0.009957,-0.013488, 0.015407, 0.045199,1, 0.018388,-0.001013, 0.000368,1, 0.319464,-0.095124, 9.800983,1,1
1778258709283,  3645.474,  3645.474,-0.033063, 0.009603,-0.995899,-0.000331, 0.000099,-0.009961,-0.004484, 0.004070, 0.034583,1, 0.019316,-0.000789,-0.000000,1, 0.319779,-0.089502, 9.801026,1,1
1778258709304,  3645.494,  3645.494,-0.032171, 0.009120,-0.995326,-0.000323, 0.000091,-0.009951, 0.004430, 0.003157, 0.040233,1, 0.019230,-0.000963, 0.000122,1, 0.319946,-0.085675, 9.801055,1,1
1778258709326,  3645.519,  3645.514,-0.032188, 0.007773,-0.995119,-0.000320, 0.000081,-0.009948, 0.010080,-0.003535, 0.044325,1, 0.018310,-0.000665, 0.000039,1, 0.320068,-0.082014, 9.801083,1,1
1778258709353,  3645.544,  3645.544,-0.031292, 0.006713,-0.995973,-0.000314, 0.000070,-0.009957, 0.013353,-0.011547, 0.033952,1, 0.017203,-0.000152, 0.000407,1, 0.320226,-0.076838, 9.801119,1,1
1778258709374,  3645.569,  3645.564,-0.030789, 0.004476,-0.994757,-0.000306, 0.000047,-0.009946, 0.020425,-0.025043, 0.040090,1, 0.014807,-0.000999,-0.000525,1, 0.320527,-0.074131, 9.801130,1,1
1778258709396,  3645.589,  3645.584,-0.030442, 0.005391,-0.995804,-0.000305, 0.000056,-0.009959, 0.014323,-0.026148, 0.044220,1, 0.012679,-0.000495, 0.000147,1, 0.320639,-0.071573, 9.801146,1,1
1778258709423,  3645.614,  3645.614,-0.030458, 0.006642,-0.995132,-0.000304, 0.000065,-0.009955, 0.022160,-0.003783, 0.042247,1, 0.009519, 0.000048,-0.000446,1, 0.320851,-0.068625, 9.801160,1,1
1778258709444,  3645.639,  3645.634,-0.029930, 0.005074,-0.995412,-0.000301, 0.000052,-0.009953, 0.028888,-0.007166, 0.041524,1, 0.007990,-0.000799,-0.000149,1, 0.321056,-0.066979, 9.801165,1,1
1778258709466,  3645.659,  3645.654,-0.030680, 0.004867,-0.995378,-0.000306, 0.000050,-0.009954, 0.025259,-0.022772, 0.038247,1, 0.006126,-0.000496,-0.000309,1, 0.321130,-0.065699, 9.801170,1,1
1778258709493,  3645.684,  3645.684,-0.031706, 0.004977,-0.995535,-0.000317, 0.000050,-0.009956, 0.010265,-0.015425, 0.038317,1, 0.005282, 0.000053, 0.000174,1, 0.321190,-0.064063, 9.801179,1,1
1778258709515,  3645.709,  3645.704,-0.033252, 0.006159,-0.995379,-0.000331, 0.000062,-0.009954,-0.001117,-0.002302, 0.035746,1, 0.004084,-0.000823, 0.000795,1, 0.321373,-0.063147, 9.801179,1,1
1778258709536,  3645.729,  3645.724,-0.033410, 0.005972,-0.995283,-0.000335, 0.000062,-0.009953,-0.006017,-0.001760, 0.038795,1, 0.003027,-0.000234,-0.000011,1, 0.321425,-0.062497, 9.801182,1,1
1778258709563,  3645.754,  3645.754,-0.033646, 0.005733,-0.995296,-0.000336, 0.000059,-0.009953,-0.008459,-0.005741, 0.040662,1, 0.002099,-0.000166, 0.000326,1, 0.321501,-0.061901, 9.801183,1,1
1778258709585,  3645.779,  3645.774,-0.034137, 0.005966,-0.995529,-0.000341, 0.000061,-0.009954,-0.008456,-0.002289, 0.035378,1, 0.001477,-0.000277,-0.000154,1, 0.321305,-0.061278, 9.801193,1,1
1778258709606,  3645.799,  3645.794,-0.034555, 0.006543,-0.995486,-0.000343, 0.000065,-0.009956,-0.018072,-0.002513, 0.042451,1, 0.000783,-0.000170, 0.000511,1, 0.321277,-0.061066, 9.801196,1,1
1778258709633,  3645.824,  3645.824,-0.034670, 0.007077,-0.994988,-0.000347, 0.000068,-0.009950,-0.018771, 0.008746, 0.043701,1, 0.001049,-0.000635, 0.000063,1, 0.321243,-0.060627, 9.801200,1,1
1778258709655,  3645.849,  3645.844,-0.033596, 0.006799,-0.995104,-0.000337, 0.000070,-0.009951,-0.014239, 0.016339, 0.041013,1, 0.002092,-0.000388,-0.000291,1, 0.321325,-0.060246, 9.801199,1,1
1778258709676,  3645.869,  3645.864,-0.033186, 0.005759,-0.994984,-0.000331, 0.000058,-0.009949,-0.003883, 0.003519, 0.036419,1, 0.003020, 0.000109, 0.000114,1, 0.321256,-0.059633, 9.801206,1,1
1778258709703,  3645.894,  3645.894,-0.033041, 0.004729,-0.995504,-0.000331, 0.000046,-0.009955,-0.002782,-0.012407, 0.038648,1, 0.003052, 0.000359, 0.000690,1, 0.321233,-0.058685, 9.801211,1,1
1778258709725,  3645.919,  3645.914,-0.032532, 0.005146,-0.995142,-0.000325, 0.000051,-0.009950, 0.003300,-0.012360, 0.039099,1, 0.002847, 0.000896,-0.000171,1, 0.321134,-0.058208, 9.801218,1,1
1778258709746,  3645.939,  3645.934,-0.031369, 0.005728,-0.995595,-0.000315, 0.000059,-0.009953, 0.006334,-0.011894, 0.042999,1, 0.000324, 0.000300, 0.000237,1, 0.321105,-0.057930, 9.801220,1,1
1778258709773,  3645.964,  3645.964,-0.030833, 0.005570,-0.996172,-0.000310, 0.000054,-0.009962, 0.018955,-0.003131, 0.032102,1,-0.000265, 0.000183, 0.000540,1, 0.321332,-0.057758, 9.801214,1,1
1778258709795,  3645.989,  3645.984,-0.030555, 0.005231,-0.995110,-0.000306, 0.000053,-0.009951, 0.019979,-0.002395, 0.037354,1,-0.002186,-0.000103,-0.000568,1, 0.321342,-0.058004, 9.801212,1,1
1778258709818,  3646.009,  3646.009,-0.030710, 0.004301,-0.996033,-0.000307, 0.000043,-0.009957, 0.020109,-0.016462, 0.033465,1,-0.003591,-0.000046,-0.000226,1, 0.321269,-0.058750, 9.801210,1,1
1778258709843,  3646.034,  3646.034,-0.030774, 0.004280,-0.996190,-0.000308, 0.000045,-0.009960, 0.019534,-0.017481, 0.031916,1,-0.005380, 0.000396, 0.000207,1, 0.321309,-0.059621, 9.801204,1,1
1778258709865,  3646.059,  3646.054,-0.031463, 0.004647,-0.995074,-0.000312, 0.000050,-0.009952, 0.019399,-0.007709, 0.036571,1,-0.006303,-0.000097, 0.000325,1, 0.321356,-0.060781, 9.801195,1,1
1778258709888,  3646.079,  3646.079,-0.032655, 0.004403,-0.995212,-0.000326, 0.000044,-0.009953, 0.001106,-0.019548, 0.041490,1,-0.009075, 0.000529, 0.000801,1, 0.321328,-0.063013, 9.801182,1,1
1778258709913,  3646.104,  3646.104,-0.032917, 0.004853,-0.995444,-0.000330, 0.000048,-0.009954,-0.001627,-0.017004, 0.039200,1,-0.010506, 0.000220, 0.000924,1, 0.321168,-0.064920, 9.801174,1,1
1778258709935,  3646.129,  3646.124,-0.034070, 0.005135,-0.994866,-0.000339, 0.000052,-0.009950,-0.007231,-0.015795, 0.041748,1,-0.012710, 0.000800, 0.000171,1, 0.321016,-0.067201, 9.801164,1,1
1778258709958,  3646.149,  3646.149,-0.034687, 0.005912,-0.995291,-0.000345, 0.000059,-0.009953,-0.019350,-0.012708, 0.040679,1,-0.014540, 0.000030, 0.001016,1, 0.320810,-0.071145, 9.801143,1,1
1778258709984,  3646.174,  3646.174,-0.034715, 0.005829,-0.994849,-0.000347, 0.000058,-0.009949,-0.019979,-0.016317, 0.045001,1,-0.016019, 0.000778, 0.001305,1, 0.320428,-0.073981, 9.801134,1,1
1778258710005,  3646.199,  3646.194,-0.033529, 0.007096,-0.995164,-0.000335, 0.000069,-0.009950,-0.016787,-0.008954, 0.044780,1,-0.017604, 0.000846, 0.000694,1, 0.320278,-0.077333, 9.801113,1,1
1778258710028,  3646.219,  3646.219,-0.032892, 0.007124,-0.995015,-0.000330, 0.000072,-0.009953,-0.002541,-0.012472, 0.043318,1,-0.020364, 0.000849, 0.000963,1, 0.319994,-0.082974, 9.801077,1,1
1778258710054,  3646.244,  3646.244,-0.032105, 0.007445,-0.995703,-0.000322, 0.000072,-0.009959, 0.004966,-0.013440, 0.036546,1,-0.021250, 0.001291, 0.000600,1, 0.319772,-0.087117, 9.801048,1,1
1778258710075,  3646.269,  3646.264,-0.031566, 0.009621,-0.994821,-0.000317, 0.000097,-0.009950, 0.011913,-0.004278, 0.040272,1,-0.022135, 0.001779, 0.000086,1, 0.319508,-0.091482, 9.801017,1,1
1778258710098,  3646.289,  3646.289,-0.030265, 0.009588,-0.995727,-0.000304, 0.000094,-0.009954, 0.022577,-0.003485, 0.036217,1,-0.022832,-0.000299, 0.000524,1, 0.319387,-0.098225, 9.800956,1,1
1778258710124,  3646.314,  3646.314,-0.030237, 0.010273,-0.995548,-0.000301, 0.000099,-0.009957, 0.022722,-0.001373, 0.037929,1,-0.024022, 0.000820, 0.000977,1, 0.319219,-0.102867, 9.800913,1,1
1778258710145,  3646.339,  3646.334,-0.030824, 0.011040,-0.995061,-0.000306, 0.000109,-0.009949, 0.019690,-0.003599, 0.041836,1,-0.023317, 0.000499, 0.000325,1, 0.319108,-0.107427, 9.800868,1,1
1778258710168,  3646.364,  3646.359,-0.031212, 0.012357,-0.995881,-0.000309, 0.000122,-0.009958, 0.012826, 0.007935, 0.034550,1,-0.022415, 0.000715, 0.000833,1, 0.318889,-0.113932, 9.800801,1,1
1778258710194,  3646.384,  3646.384,-0.031689, 0.011867,-0.994744,-0.000320, 0.000119,-0.009948, 0.007956,-0.001177, 0.045654,1,-0.021376, 0.001206, 0.000172,1, 0.318683,-0.118223, 9.800757,1,1
1778258710215,  3646.409,  3646.404,-0.032735, 0.013626,-0.995358,-0.000328, 0.000136,-0.009956,-0.003206, 0.009699, 0.045670,1,-0.021053, 0.000749, 0.001352,1, 0.318521,-0.122384, 9.800712,1,1
1778258710238,  3646.434,  3646.429,-0.032693, 0.014366,-0.995717,-0.000327, 0.000141,-0.009955,-0.002343, 0.013287, 0.036008,1,-0.019738, 0.000343, 0.000971,1, 0.318254,-0.128212, 9.800646,1,1
1778258710264,  3646.454,  3646.454,-0.033387, 0.014317,-0.995468,-0.000331, 0.000140,-0.009954,-0.009284, 0.009035, 0.038401,1,-0.019374, 0.001414, 0.001058,1, 0.318089,-0.131974, 9.800601,1,1
1778258710285,  3646.479,  3646.474,-0.033800, 0.013981,-0.994902,-0.000336, 0.000137,-0.009952,-0.004602,-0.003896, 0.032656,1,-0.019630, 0.000753, 0.000647,1, 0.317865,-0.135823, 9.800556,1,1
1778258710308,  3646.504,  3646.499,-0.032943, 0.014271,-0.994950,-0.000330, 0.000139,-0.009953,-0.005214,-0.001140, 0.043350,1,-0.020434,-0.000017, 0.000843,1, 0.317851,-0.141725, 9.800473,1,1
1778258710334,  3646.524,  3646.524,-0.033211, 0.013641,-0.995620,-0.000332, 0.000135,-0.009954,-0.007853,-0.011415, 0.036723,1,-0.021316, 0.000792, 0.001393,1, 0.317812,-0.145854, 9.800413,1,1
1778258710356,  3646.549,  3646.544,-0.033593, 0.013518,-0.995218,-0.000335, 0.000133,-0.009955,-0.008602,-0.007777, 0.043076,1,-0.021922, 0.000758, 0.000420,1, 0.317659,-0.150110, 9.800354,1,1
1778258710378,  3646.574,  3646.569,-0.032931, 0.013880,-0.995610,-0.000330, 0.000137,-0.009952,-0.005416,-0.020221, 0.036660,1,-0.024828, 0.001563, 0.000260,1, 0.317477,-0.157110, 9.800250,1,1
1778258710404,  3646.594,  3646.594,-0.032332, 0.014578,-0.995061,-0.000325, 0.000144,-0.009952, 0.000243,-0.018366, 0.041972,1,-0.025422, 0.001177, 0.000882,1, 0.317277,-0.162124, 9.800176,1,1
1778258710426,  3646.619,  3646.614,-0.031517, 0.017605,-0.995474,-0.000315, 0.000173,-0.009955, 0.012863, 0.001986, 0.038220,1,-0.026393, 0.001351, 0.001033,1, 0.317049,-0.167218, 9.800097,1,1
1778258710448,  3646.644,  3646.639,-0.031202, 0.017585,-0.995125,-0.000308, 0.000172,-0.009950, 0.010725,-0.001959, 0.041143,1,-0.026806, 0.001368, 0.001267,1, 0.316667,-0.175250, 9.799969,1,1
1778258710474,  3646.664,  3646.664,-0.031245, 0.019967,-0.994937,-0.000310, 0.000199,-0.009950, 0.010176, 0.016062, 0.042886,1,-0.027613, 0.000569, 0.000692,1, 0.316568,-0.180611, 9.799875,1,1
1778258710496,  3646.689,  3646.684,-0.029720, 0.019776,-0.995348,-0.000297, 0.000198,-0.009955, 0.016275, 0.016413, 0.040396,1,-0.027985, 0.001089,-0.000090,1, 0.316385,-0.186032, 9.799780,1,1
1778258710523,  3646.714,  3646.714,-0.030217, 0.018702,-0.996433,-0.000299, 0.000187,-0.009963, 0.019896,-0.009902, 0.027976,1,-0.028396, 0.000552, 0.000294,1, 0.316206,-0.194196, 9.799626,1,1
1778258710544,  3646.734,  3646.734,-0.030954, 0.017978,-0.995265,-0.000307, 0.000177,-0.009950, 0.012495,-0.022755, 0.039316,1,-0.029819, 0.001913, 0.000533,1, 0.315988,-0.199988, 9.799518,1,1
1778258710566,  3646.759,  3646.754,-0.031582, 0.020053,-0.995165,-0.000315, 0.000197,-0.009952, 0.003989,-0.012338, 0.049232,1,-0.031956, 0.000615, 0.000078,1, 0.315796,-0.206075, 9.799397,1,1
1778258710593,  3646.784,  3646.784,-0.033176, 0.019787,-0.995785,-0.000331, 0.000195,-0.009958,-0.010041,-0.020686, 0.033916,1,-0.034223, 0.000933, 0.000906,1, 0.315278,-0.215796, 9.799205,1,1
1778258710614,  3646.809,  3646.804,-0.032294, 0.022852,-0.994498,-0.000323, 0.000222,-0.009951,-0.006855,-0.017717, 0.035396,1,-0.034706, 0.001265, 0.001038,1, 0.315008,-0.222615, 9.799061,1,1
1778258710636,  3646.829,  3646.824,-0.032696, 0.026220,-0.994999,-0.000327, 0.000261,-0.009948,-0.002318, 0.013329, 0.048287,1,-0.035262, 0.001158, 0.001097,1, 0.314803,-0.229411, 9.798911,1,1
1778258710663,  3646.854,  3646.854,-0.032634, 0.027492,-0.995555,-0.000324, 0.000275,-0.009953,-0.005492, 0.031398, 0.035651,1,-0.032604,-0.000000, 0.000411,1, 0.314540,-0.239223, 9.798685,1,1
1778258710684,  3646.879,  3646.874,-0.009887, 0.058678,-1.009320,-0.000104, 0.000682,-0.009990,-0.187667,-0.025697, 0.041307,1,-0.027286,-0.000329, 0.003890,1, 0.314492,-0.245269, 9.798536,1,1
1778258710706,  3646.899,  3646.894,-0.022244, 0.022536,-0.990098,-0.000251, 0.000099,-0.010004,-0.050809, 0.418506, 0.136551,1,-0.028701,-0.004678,-0.007697,1, 0.314629,-0.245525, 9.798526,1,1
1778258710733,  3646.924,  3646.924,-0.040914,-0.014623,-0.998519,-0.000423,-0.000354,-0.010014,-0.086897,-0.387123, 0.006455,1,-0.004299, 0.007105, 0.006551,1, 0.314104,-0.243858, 9.798584,1,1
1778258710754,  3646.949,  3646.944,-0.025342, 0.071617,-0.982224,-0.000311, 0.000653,-0.009870,-0.076299,-0.176185, 0.061772,1,-0.002886, 0.000904, 0.001753,1, 0.314020,-0.243701, 9.798591,1,1
1778258710776,  3646.969,  3646.964,-0.034837, 0.052490,-0.999783,-0.000312, 0.000540,-0.009960, 0.008919, 0.025557, 0.005373,1,-0.002739,-0.001702,-0.003131,1, 0.314180,-0.244419, 9.798568,1,1
1778258710803,  3646.994,  3646.994,-0.032440, 0.021516,-0.994295,-0.000327, 0.000188,-0.009974,-0.003806,-0.032792, 0.047877,1, 0.006330,-0.000252, 0.003559,1, 0.314331,-0.243595, 9.798584,1,1
1778258710825,  3647.019,  3647.014,-0.031616, 0.017497,-0.993438,-0.000339, 0.000185,-0.009906,-0.027945,-0.091281, 0.063383,1,-0.000639, 0.001385,-0.003373,1, 0.314356,-0.243567, 9.798584,1,1
1778258710846,  3647.039,  3647.034,-0.031686, 0.044431,-0.991271,-0.000320, 0.000473,-0.009954,-0.019494, 0.127581, 0.078614,1, 0.003576, 0.001422, 0.001135,1, 0.314097,-0.243858, 9.798585,1,1
1778258710873,  3647.064,  3647.064,-0.034980, 0.025024,-0.999431,-0.000326, 0.000296,-0.009971,-0.028867, 0.002052,-0.002480,1, 0.004175,-0.000329,-0.000303,1, 0.314184,-0.243219, 9.798597,1,1
1778258710895,  3647.089,  3647.084,-0.032256, 0.015688,-0.991458,-0.000331, 0.000124,-0.009937,-0.007033,-0.140706, 0.066570,1, 0.001795,-0.001888,-0.002133,1, 0.314207,-0.242963, 9.798603,1,1
1778258710916,  3647.109,  3647.104,-0.028051, 0.037458,-0.998272,-0.000273, 0.000388,-0.009977, 0.020775, 0.068010, 0.047316,1,-0.001651, 0.001841, 0.000288,1, 0.314122,-0.243494, 9.798593,1,1
1778258710943,  3647.134,  3647.134,-0.028387, 0.028667,-0.998065,-0.000271, 0.000318,-0.009979, 0.035744, 0.037613, 0.010920,1, 0.002182,-0.001749,-0.000280,1, 0.314183,-0.243445, 9.798593,1,1
1778258710965,  3647.159,  3647.154,-0.029204, 0.013440,-0.994674,-0.000299, 0.000137,-0.009939, 0.027622,-0.062590, 0.050113,1, 0.002557,-0.000098, 0.000560,1, 0.314133,-0.243312, 9.798597,1,1
1778258710986,  3647.179,  3647.174,-0.028201, 0.030274,-0.993573,-0.000304, 0.000310,-0.009964, 0.040336, 0.064846, 0.054199,1, 0.000099, 0.000896,-0.000240,1, 0.313848,-0.244213, 9.798584,1,1
1778258711013,  3647.204,  3647.204,-0.033124, 0.023801,-0.999053,-0.000308, 0.000275,-0.009968,-0.010954,-0.010964, 0.001217,1, 0.000718,-0.000745, 0.000073,1, 0.313900,-0.244348, 9.798578,1,1
1778258711035,  3647.229,  3647.224,-0.030732, 0.023183,-0.990332,-0.000330, 0.000209,-0.009940, 0.007687,-0.068985, 0.075761,1, 0.001169,-0.001430, 0.000174,1, 0.313900,-0.244307, 9.798580,1,1
1778258711058,  3647.249,  3647.249,-0.032978, 0.027615,-0.999741,-0.000322, 0.000281,-0.009971,-0.009506, 0.026089,-0.005546,1,-0.000880,-0.000219,-0.000439,1, 0.313906,-0.244749, 9.798569,1,1
1778258711083,  3647.274,  3647.274,-0.031317, 0.028863,-0.991975,-0.000323, 0.000282,-0.009939, 0.006837, 0.038297, 0.070614,1,-0.000296,-0.000605, 0.000259,1, 0.313970,-0.244765, 9.798566,1,1
1778258711105,  3647.299,  3647.294,-0.032417, 0.022507,-0.996360,-0.000319, 0.000231,-0.009951,-0.008349,-0.023300, 0.048973,1, 0.001492, 0.000437, 0.000666,1, 0.314049,-0.244668, 9.798566,1,1
1778258711128,  3647.319,  3647.319,-0.032411, 0.025059,-0.996018,-0.000326, 0.000247,-0.009966,-0.003739, 0.000935, 0.030959,1, 0.000735, 0.000718,-0.000060,1, 0.314087,-0.244788, 9.798562,1,1
1778258711153,  3647.344,  3647.344,-0.032421, 0.026863,-0.995404,-0.000323, 0.000277,-0.009948,-0.003956, 0.018654, 0.036986,1,-0.000182,-0.000156, 0.000611,1, 0.313989,-0.244788, 9.798565,1,1
1778258711175,  3647.369,  3647.364,-0.032715, 0.024317,-0.994425,-0.000327, 0.000247,-0.009940,-0.003373,-0.011232, 0.041159,1, 0.001703, 0.000251, 0.000306,1, 0.313940,-0.244633, 9.798571,1,1
1778258711198,  3647.389,  3647.389,-0.031342, 0.026327,-0.994855,-0.000315, 0.000264,-0.009949, 0.006591, 0.013521, 0.042373,1,-0.000460,-0.000177,-0.000439,1, 0.313954,-0.244674, 9.798569,1,1
1778258711223,  3647.414,  3647.414,-0.030868, 0.025621,-0.995974,-0.000308, 0.000267,-0.009957, 0.011276, 0.006644, 0.031399,1, 0.000276,-0.000469, 0.000697,1, 0.314004,-0.244601, 9.798569,1,1
1778258711245,  3647.439,  3647.434,-0.031277, 0.023459,-0.994150,-0.000313, 0.000230,-0.009941, 0.010996,-0.000172, 0.052244,1,-0.000347, 0.000191,-0.000125,1, 0.313920,-0.244715, 9.798569,1,1
1778258711268,  3647.459,  3647.459,-0.032168, 0.024653,-0.995617,-0.000320, 0.000241,-0.009952,-0.001560,-0.003045, 0.034901,1, 0.000780, 0.000229, 0.000308,1, 0.313895,-0.244785, 9.798568,1,1
1778258711294,  3647.484,  3647.484,-0.032204, 0.024283,-0.995132,-0.000325, 0.000245,-0.009950,-0.001888,-0.006559, 0.039656,1,-0.000344,-0.000155, 0.000740,1, 0.313926,-0.244705, 9.798569,1,1
1778258711315,  3647.509,  3647.504,-0.032375, 0.024907,-0.994747,-0.000320, 0.000248,-0.009943,-0.007926,-0.039552, 0.041776,1, 0.000657,-0.000464, 0.000249,1, 0.313967,-0.244643, 9.798570,1,1
1778258711338,  3647.529,  3647.529,-0.030709, 0.029189,-0.994788,-0.000309, 0.000287,-0.009951, 0.012775, 0.041590, 0.043036,1, 0.000467,-0.000211,-0.000317,1, 0.313930,-0.244642, 9.798571,1,1
1778258711364,  3647.554,  3647.554,-0.031050, 0.026411,-0.996490,-0.000311, 0.000263,-0.009960, 0.009466, 0.014367, 0.026339,1, 0.000442,-0.000248, 0.000315,1, 0.313971,-0.244626, 9.798570,1,1
1778258711385,  3647.579,  3647.574,-0.031943, 0.022032,-0.995100,-0.000313, 0.000226,-0.009943, 0.006737,-0.019557, 0.044419,1, 0.000386, 0.000902,-0.000048,1, 0.313850,-0.244501, 9.798576,1,1
1778258711408,  3647.604,  3647.599,-0.031386, 0.027010,-0.994796,-0.000316, 0.000270,-0.009952, 0.006034, 0.020368, 0.042959,1, 0.000552,-0.000281, 0.000020,1, 0.313837,-0.244489, 9.798577,1,1
1778258711434,  3647.624,  3647.624,-0.032196, 0.025978,-0.996747,-0.000318, 0.000263,-0.009970,-0.001870, 0.010280, 0.023827,1,-0.000014, 0.000034,-0.000170,1, 0.313863,-0.244480, 9.798576,1,1
1778258711455,  3647.649,  3647.644,-0.032393, 0.021954,-0.994384,-0.000324, 0.000221,-0.009944,-0.001669,-0.008639, 0.051219,1, 0.000291, 0.000113, 0.000488,1, 0.313915,-0.244358, 9.798578,1,1
1778258711478,  3647.674,  3647.669,-0.032134, 0.026067,-0.994905,-0.000320, 0.000261,-0.009948,-0.001193, 0.011089, 0.041888,1, 0.000512,-0.000554,-0.000108,1, 0.313955,-0.244522, 9.798573,1,1
1778258711504,  3647.694,  3647.694,-0.031306, 0.027243,-0.995956,-0.000311, 0.000277,-0.009957, 0.007080, 0.022552, 0.031574,1,-0.000202,-0.000715,-0.000595,1, 0.314113,-0.244611, 9.798565,1,1
1778258711525,  3647.719,  3647.714,-0.032161, 0.021564,-0.995552,-0.000320, 0.000212,-0.009954, 0.002940,-0.011668, 0.040583,1, 0.000851,-0.000640,-0.000089,1, 0.314162,-0.244383, 9.798570,1,1
1778258711548,  3647.744,  3647.739,-0.031964, 0.024449,-0.994573,-0.000316, 0.000240,-0.009943, 0.000649,-0.004676, 0.045138,1,-0.000190, 0.000109, 0.000256,1, 0.314105,-0.244442, 9.798570,1,1
1778258711574,  3647.764,  3647.764,-0.031570, 0.027500,-0.995200,-0.000315, 0.000270,-0.009950, 0.004533, 0.025143, 0.038991,1, 0.000699,-0.000692, 0.000681,1, 0.314143,-0.244518, 9.798567,1,1
1778258711595,  3647.789,  3647.784,-0.032255, 0.022808,-0.995426,-0.000323, 0.000237,-0.009957, 0.001065,-0.003679, 0.034914,1, 0.000877, 0.000506, 0.000811,1, 0.314074,-0.244401, 9.798572,1,1
1778258711618,  3647.814,  3647.809,-0.033070, 0.024703,-0.994256,-0.000329, 0.000251,-0.009940,-0.010358,-0.002051, 0.048254,1,-0.000506, 0.000442, 0.000026,1, 0.313937,-0.244322, 9.798578,1,1
1778258711644,  3647.834,  3647.834,-0.032392, 0.027639,-0.996141,-0.000324, 0.000281,-0.009960,-0.003686, 0.026725, 0.029767,1, 0.000020,-0.000028,-0.000401,1, 0.313972,-0.244318, 9.798577,1,1
1778258711666,  3647.859,  3647.854,-0.031929, 0.022437,-0.994979,-0.000319, 0.000226,-0.009951, 0.003562, 0.020207, 0.036200,1, 0.000415, 0.000126, 0.000421,1, 0.313896,-0.244198, 9.798583,1,1
1778258711688,  3647.884,  3647.879,-0.032085, 0.023107,-0.994583,-0.000318, 0.000233,-0.009946,-0.000780,-0.017560, 0.045058,1,-0.000511, 0.000021, 0.000559,1, 0.313869,-0.244183, 9.798584,1,1
1778258711714,  3647.904,  3647.904,-0.031230, 0.026152,-0.994883,-0.000314, 0.000255,-0.009951, 0.007565, 0.012236, 0.042115,1,-0.000241, 0.000162,-0.000167,1, 0.313824,-0.244234, 9.798584,1,1
1778258711736,  3647.929,  3647.924,-0.030900, 0.024823,-0.995412,-0.000307, 0.000246,-0.009954, 0.007473, 0.004385, 0.036228,1,-0.000254,-0.000199, 0.000172,1, 0.313804,-0.244200, 9.798586,1,1
1778258711763,  3647.954,  3647.954,-0.030461, 0.023043,-0.994014,-0.000303, 0.000233,-0.009941, 0.015163,-0.018089, 0.050642,1,-0.000304, 0.000400,-0.000509,1, 0.313867,-0.244075, 9.798587,1,1
1778258711784,  3647.974,  3647.974,-0.030397, 0.025327,-0.995379,-0.000305, 0.000255,-0.009957, 0.015730, 0.004053, 0.037249,1,-0.001053,-0.000220,-0.000518,1, 0.313830,-0.244355, 9.798581,1,1
1778258711806,  3647.999,  3647.994,-0.031745, 0.025221,-0.994663,-0.000316, 0.000253,-0.009946, 0.004909, 0.012833, 0.039337,1, 0.000083, 0.000130,-0.000191,1, 0.313805,-0.244259, 9.798584,1,1
1778258711833,  3648.024,  3648.024,-0.032626, 0.023560,-0.994355,-0.000329, 0.000237,-0.009948,-0.006133,-0.013184, 0.047293,1,-0.000032,-0.000522,-0.000041,1, 0.313831,-0.244228, 9.798584,1,1
1778258711854,  3648.049,  3648.044,-0.032921, 0.026009,-0.995560,-0.000329, 0.000264,-0.009952,-0.007948, 0.005392, 0.040398,1, 0.000258,-0.000028,-0.000391,1, 0.313810,-0.244232, 9.798585,1,1
1778258711876,  3648.069,  3648.064,-0.031572, 0.025803,-0.994963,-0.000320, 0.000260,-0.009954,-0.001140, 0.013417, 0.035857,1,-0.000581,-0.000750, 0.000282,1, 0.313818,-0.244352, 9.798581,1,1
1778258711903,  3648.094,  3648.094,-0.032073, 0.022872,-0.995758,-0.000317, 0.000233,-0.009956,-0.000775,-0.020074, 0.033529,1,-0.000870,-0.000430, 0.000150,1, 0.313768,-0.244399, 9.798582,1,1
1778258711924,  3648.119,  3648.114,-0.030728, 0.025701,-0.994936,-0.000304, 0.000256,-0.009942, 0.005907,-0.004879, 0.037028,1, 0.000640, 0.000714,-0.000076,1, 0.313749,-0.244401, 9.798582,1,1
1778258711946,  3648.139,  3648.134,-0.030566, 0.025934,-0.995255,-0.000303, 0.000258,-0.009951, 0.006380, 0.005846, 0.034714,1,-0.000638, 0.000353,-0.000520,1, 0.313684,-0.244470, 9.798583,1,1
1778258711973,  3648.164,  3648.164,-0.031677, 0.024264,-0.995902,-0.000315, 0.000241,-0.009959, 0.002996,-0.006475, 0.032127,1, 0.000405, 0.000028, 0.000051,1, 0.313632,-0.244418, 9.798586,1,1
1778258711994,  3648.189,  3648.184,-0.030797, 0.024842,-0.994689,-0.000309, 0.000251,-0.009949, 0.006214,-0.001351, 0.048788,1,-0.000609, 0.000413, 0.000063,1, 0.313695,-0.244448, 9.798583,1,1
1778258712016,  3648.209,  3648.204,-0.031768, 0.026026,-0.995456,-0.000318, 0.000261,-0.009952, 0.001832, 0.001256, 0.038870,1,-0.000433,-0.000153,-0.000419,1, 0.313688,-0.244610, 9.798579,1,1
1778258712043,  3648.234,  3648.234,-0.031623, 0.025280,-0.995490,-0.000317, 0.000256,-0.009958, 0.003554, 0.003375, 0.036157,1,-0.000648, 0.000026, 0.000223,1, 0.313671,-0.244562, 9.798581,1,1
1778258712064,  3648.259,  3648.254,-0.031459, 0.024287,-0.994868,-0.000314, 0.000243,-0.009947, 0.003956,-0.010361, 0.039652,1,-0.000199, 0.000371, 0.000084,1, 0.313698,-0.244537, 9.798580,1,1
1778258712086,  3648.279,  3648.274,-0.030725, 0.026004,-0.994840,-0.000308, 0.000257,-0.009950, 0.005945,-0.002763, 0.039162,1,-0.000624,-0.000101,-0.000216,1, 0.313655,-0.244675, 9.798578,1,1
1778258712113,  3648.304,  3648.304,-0.031927, 0.025144,-0.995757,-0.000318, 0.000253,-0.009952, 0.000636, 0.001896, 0.033531,1, 0.000258, 0.000428,-0.000079,1, 0.313721,-0.244676, 9.798576,1,1
1778258712135,  3648.329,  3648.324,-0.033086, 0.023634,-0.995642,-0.000328, 0.000238,-0.009956,-0.000527, 0.002789, 0.038387,1,-0.000291, 0.000168,-0.000211,1, 0.313663,-0.244631, 9.798579,1,1
1778258712156,  3648.349,  3648.344,-0.033646, 0.024690,-0.995397,-0.000336, 0.000250,-0.009952,-0.011664, 0.004877, 0.041511,1, 0.000453, 0.000327, 0.000134,1, 0.313589,-0.244569, 9.798583,1,1
1778258712183,  3648.374,  3648.374,-0.033484, 0.025035,-0.994618,-0.000333, 0.000253,-0.009948,-0.014955, 0.000965, 0.044720,1, 0.000639,-0.000038, 0.000178,1, 0.313412,-0.244529, 9.798590,1,1
1778258712205,  3648.399,  3648.394,-0.033052, 0.025009,-0.995054,-0.000330, 0.000248,-0.009949,-0.008615,-0.001689, 0.044160,1,-0.001168,-0.000488, 0.000432,1, 0.313450,-0.244580, 9.798588,1,1
1778258712226,  3648.419,  3648.414,-0.031367, 0.024934,-0.995052,-0.000318, 0.000247,-0.009953,-0.001196,-0.000432, 0.039799,1, 0.000090,-0.000006, 0.000620,1, 0.313479,-0.244564, 9.798587,1,1
1778258712253,  3648.444,  3648.444,-0.031442, 0.025146,-0.995277,-0.000314, 0.000251,-0.009950, 0.005168, 0.002027, 0.038249,1, 0.000050,-0.000118, 0.000103,1, 0.313515,-0.244572, 9.798586,1,1
1778258712275,  3648.469,  3648.464,-0.031343, 0.024404,-0.995081,-0.000313, 0.000246,-0.009953, 0.014141, 0.002701, 0.037264,1, 0.000511,-0.001040, 0.000347,1, 0.313703,-0.244444, 9.798583,1,1
1778258712297,  3648.489,  3648.489,-0.030570, 0.024899,-0.994678,-0.000305, 0.000252,-0.009945, 0.013834,-0.000200, 0.044131,1,-0.000254, 0.000287,-0.000253,1, 0.313612,-0.244381, 9.798587,1,1
1778258712323,  3648.514,  3648.514,-0.031176, 0.024653,-0.995632,-0.000317, 0.000247,-0.009965, 0.007810,-0.002587, 0.034772,1, 0.000522, 0.000747, 0.000114,1, 0.313515,-0.244332, 9.798592,1,1
1778258712345,  3648.539,  3648.534,-0.031225, 0.025441,-0.994969,-0.000315, 0.000255,-0.009949, 0.005997, 0.009275, 0.039340,1, 0.000699, 0.000394, 0.000284,1, 0.313475,-0.244190, 9.798596,1,1
1778258712368,  3648.559,  3648.559,-0.031893, 0.025063,-0.994637,-0.000321, 0.000249,-0.009946, 0.000627, 0.001751, 0.044542,1, 0.000933, 0.000548, 0.000071,1, 0.313373,-0.244008, 9.798604,1,1
1778258712393,  3648.584,  3648.584,-0.032280, 0.024277,-0.995816,-0.000324, 0.000244,-0.009960,-0.003234,-0.005741, 0.032991,1, 0.000915, 0.000656, 0.000386,1, 0.313305,-0.243793, 9.798612,1,1
1778258712415,  3648.609,  3648.604,-0.031886, 0.025554,-0.994494,-0.000320, 0.000252,-0.009945,-0.003137, 0.004315, 0.036919,1, 0.000485,-0.001025, 0.000142,1, 0.313380,-0.243759, 9.798610,1,1
1778258712438,  3648.629,  3648.629,-0.031368, 0.024804,-0.994895,-0.000313, 0.000251,-0.009947, 0.005713,-0.000364, 0.042031,1, 0.000246,-0.000242, 0.000259,1, 0.313337,-0.243597, 9.798615,1,1
1778258712463,  3648.654,  3648.654,-0.031645, 0.024198,-0.995176,-0.000315, 0.000243,-0.009951, 0.003016,-0.006308, 0.039272,1,-0.000771, 0.000383,-0.000139,1, 0.313336,-0.243629, 9.798615,1,1
1778258712485,  3648.679,  3648.674,-0.031225, 0.025042,-0.995683,-0.000310, 0.000250,-0.009954, 0.006398,-0.005919, 0.034265,1,-0.001188, 0.000256, 0.000471,1, 0.313314,-0.243707, 9.798614,1,1
1778258712508,  3648.699,  3648.699,-0.031274, 0.025301,-0.994568,-0.000312, 0.000255,-0.009948, 0.006666, 0.004463, 0.045229,1,-0.000413, 0.000120,-0.000245,1, 0.313356,-0.243670, 9.798613,1,1
1778258712533,  3648.724,  3648.724,-0.031470, 0.024642,-0.994932,-0.000313, 0.000247,-0.009949, 0.004728,-0.001952, 0.041669,1, 0.000056,-0.000065, 0.000248,1, 0.313349,-0.243603, 9.798615,1,1
1778258712555,  3648.749,  3648.744,-0.030685, 0.025189,-0.994738,-0.000308, 0.000249,-0.009946, 0.002829,-0.006320, 0.038278,1,-0.000069,-0.000187, 0.000318,1, 0.313391,-0.243625, 9.798613,1,1
1778258712578,  3648.764,  3648.769,-0.031026, 0.025122,-0.995503,-0.000309, 0.000251,-0.009953, 0.008225, 0.008220, 0.036995,1, 0.000786,-0.000295, 0.000166,1, 0.313340,-0.243593, 9.798615,1,1
1778258712604,  3648.794,  3648.794,-0.031264, 0.024816,-0.994626,-0.000316, 0.000247,-0.009947, 0.006808,-0.000117, 0.044666,1, 0.001143,-0.000222, 0.000338,1, 0.313412,-0.243445, 9.798616,1,1
1778258712625,  3648.819,  3648.814,-0.032475, 0.024898,-0.994974,-0.000325, 0.000249,-0.009947,-0.009617,-0.009549, 0.044844,1,-0.000255,-0.000344, 0.000571,1, 0.313545,-0.243413, 9.798614,1,1
1778258712648,  3648.844,  3648.839,-0.032477, 0.025766,-0.995669,-0.000325, 0.000260,-0.009954,-0.004935, 0.009215, 0.034431,1,-0.000132, 0.000620,-0.000157,1, 0.313532,-0.243469, 9.798613,1,1
1778258712674,  3648.864,  3648.864,-0.031373, 0.025746,-0.995159,-0.000314, 0.000255,-0.009956, 0.005902, 0.009007, 0.039434,1, 0.001032,-0.000259,-0.000381,1, 0.313575,-0.243444, 9.798612,1,1
1778258712695,  3648.889,  3648.884,-0.029900, 0.023753,-0.994547,-0.000301, 0.000239,-0.009946, 0.010549,-0.010833, 0.043088,1,-0.000070,-0.000799, 0.000079,1, 0.313670,-0.243449, 9.798609,1,1
1778258712718,  3648.914,  3648.909,-0.030706, 0.024989,-0.996072,-0.000306, 0.000250,-0.009957, 0.012615, 0.001504, 0.030476,1,-0.000175,-0.000271, 0.000439,1, 0.313742,-0.243563, 9.798603,1,1
1778258712744,  3648.934,  3648.934,-0.031149, 0.025565,-0.995080,-0.000309, 0.000256,-0.009950, 0.008460, 0.007091, 0.040191,1,-0.000420,-0.001255, 0.000023,1, 0.313967,-0.243634, 9.798594,1,1
1778258712765,  3648.959,  3648.954,-0.032922, 0.024067,-0.995559,-0.000324, 0.000243,-0.009952,-0.003442,-0.002427, 0.046937,1, 0.000530,-0.000479, 0.000436,1, 0.313967,-0.243617, 9.798594,1,1
1778258712788,  3648.984,  3648.979,-0.032977, 0.024925,-0.995302,-0.000331, 0.000249,-0.009953,-0.009545, 0.000704, 0.038013,1,-0.000284, 0.000358,-0.000274,1, 0.313842,-0.243737, 9.798595,1,1
1778258712814,  3649.004,  3649.004,-0.033244, 0.026050,-0.994704,-0.000330, 0.000261,-0.009949,-0.012109, 0.011743, 0.043879,1,-0.001003,-0.000329, 0.000747,1, 0.313914,-0.243757, 9.798593,1,1
1778258712835,  3649.029,  3649.024,-0.032355, 0.024347,-0.995228,-0.000324, 0.000246,-0.009952,-0.007090, 0.001761, 0.029342,1,-0.000213,-0.000355, 0.000312,1, 0.313954,-0.243813, 9.798591,1,1
1778258712858,  3649.054,  3649.049,-0.032041, 0.024595,-0.994989,-0.000320, 0.000245,-0.009951,-0.000280,-0.002640, 0.041080,1,-0.000070, 0.000419,-0.000591,1, 0.313918,-0.243832, 9.798591,1,1
1778258712884,  3649.074,  3649.074,-0.031828, 0.025230,-0.995018,-0.000318, 0.000253,-0.009949, 0.001780, 0.003588, 0.040796,1, 0.000258,-0.000242, 0.000399,1, 0.313917,-0.243829, 9.798591,1,1
1778258712905,  3649.099,  3649.094,-0.032350, 0.024908,-0.995216,-0.000323, 0.000251,-0.009953, 0.000283, 0.007046, 0.038137,1, 0.000787, 0.000274, 0.000432,1, 0.313903,-0.243743, 9.798594,1,1
1778258712928,  3649.124,  3649.119,-0.032539, 0.023937,-0.995422,-0.000325, 0.000240,-0.009954,-0.005219,-0.008844, 0.036845,1, 0.000911, 0.000086, 0.000450,1, 0.313877,-0.243560, 9.798599,1,1
1778258712954,  3649.144,  3649.144,-0.032695, 0.025579,-0.994468,-0.000322, 0.000259,-0.009935,-0.006729, 0.007412, 0.046199,1, 0.001493,-0.000264, 0.000312,1, 0.313907,-0.243385, 9.798602,1,1
1778258712976,  3649.169,  3649.164,-0.031979, 0.024111,-0.995956,-0.000323, 0.000246,-0.009966,-0.007438,-0.004186, 0.036737,1,-0.000424,-0.000167, 0.000020,1, 0.313975,-0.243491, 9.798597,1,1
1778258713002,  3649.194,  3649.194,-0.030167, 0.024391,-0.994983,-0.000302, 0.000248,-0.009944, 0.018240,-0.004289, 0.041146,1, 0.000334,-0.000688,-0.000098,1, 0.314098,-0.243470, 9.798594,1,1
1778258713024,  3649.214,  3649.214,-0.029168, 0.024295,-0.994937,-0.000293, 0.000249,-0.009947, 0.028057,-0.005255, 0.041596,1,-0.000125,-0.000548,-0.000239,1, 0.314115,-0.243508, 9.798593,1,1
1778258713046,  3649.239,  3649.234,-0.027797, 0.024291,-0.995058,-0.000277, 0.000246,-0.009953, 0.038372,-0.003135, 0.036594,1, 0.000124, 0.001161,-0.000048,1, 0.314102,-0.243539, 9.798593,1,1
1778258713073,  3649.264,  3649.264,-0.028429, 0.024821,-0.995434,-0.000284, 0.000248,-0.009949, 0.035366,-0.000190, 0.036719,1, 0.000020,-0.000449, 0.000077,1, 0.314177,-0.243602, 9.798589,1,1
1778258713094,  3649.289,  3649.284,-0.030905, 0.025373,-0.995307,-0.000307, 0.000253,-0.009954, 0.016446, 0.001561, 0.038303,1,-0.000321,-0.000210, 0.000071,1, 0.314208,-0.243651, 9.798586,1,1
1778258713116,  3649.309,  3649.304,-0.032457, 0.025164,-0.995255,-0.000322, 0.000253,-0.009952, 0.006142, 0.006452, 0.037819,1,-0.001314, 0.000460,-0.000371,1, 0.314139,-0.243860, 9.798583,1,1
1778258713143,  3649.334,  3649.334,-0.032871, 0.025000,-0.995301,-0.000327, 0.000250,-0.009954,-0.008206, 0.001136, 0.038012,1,-0.001013,-0.000305,-0.000468,1, 0.314163,-0.244064, 9.798577,1,1
1778258713164,  3649.359,  3649.354,-0.033199, 0.025723,-0.995303,-0.000333, 0.000260,-0.009954,-0.009194, 0.004025, 0.035232,1,-0.000782, 0.000508, 0.000015,1, 0.314150,-0.244213, 9.798574,1,1
1778258713186,  3649.379,  3649.374,-0.033324, 0.024083,-0.996524,-0.000333, 0.000240,-0.009967,-0.009250, 0.004905, 0.043993,1,-0.001240,-0.000103,-0.000100,1, 0.313946,-0.244319, 9.798578,1,1
1778258713213,  3649.404,  3649.404,-0.032341, 0.025029,-0.994747,-0.000324, 0.000251,-0.009949,-0.003174, 0.000996, 0.043442,1, 0.000162, 0.000685, 0.000530,1, 0.313964,-0.244451, 9.798574,1,1
1778258713234,  3649.429,  3649.424,-0.032730, 0.024800,-0.996132,-0.000326, 0.000248,-0.009959,-0.000688, 0.006260, 0.045779,1, 0.000182,-0.000445,-0.000499,1, 0.313978,-0.244490, 9.798573,1,1
1778258713256,  3649.449,  3649.444,-0.033124, 0.024946,-0.995599,-0.000328, 0.000248,-0.009957,-0.007750, 0.001293, 0.026321,1, 0.000133, 0.000173, 0.000606,1, 0.313918,-0.244544, 9.798573,1,1
1778258713283,  3649.474,  3649.474,-0.032916, 0.025633,-0.994107,-0.000330, 0.000254,-0.009942,-0.008922, 0.006894, 0.049718,1,-0.000316, 0.000214, 0.000253,1, 0.313871,-0.244493, 9.798576,1,1
1778258713304,  3649.499,  3649.494,-0.031983, 0.025374,-0.995506,-0.000321, 0.000251,-0.009956,-0.007066,-0.005144, 0.033216,1, 0.000239,-0.000005,-0.000283,1, 0.313874,-0.244535, 9.798574,1,1
1778258713326,  3649.519,  3649.514,-0.032039, 0.024944,-0.995239,-0.000320, 0.000252,-0.009950,-0.001340, 0.001600, 0.045248,1,-0.000425, 0.000126,-0.000432,1, 0.313881,-0.244516, 9.798575,1,1
1778258713353,  3649.544,  3649.544,-0.032087, 0.024963,-0.996442,-0.000323, 0.000252,-0.009962,-0.000786, 0.000293, 0.026815,1,-0.000722, 0.000225,-0.000416,1, 0.313871,-0.244530, 9.798575,1,1
1778258713374,  3649.569,  3649.564,-0.031426, 0.024577,-0.993907,-0.000314, 0.000245,-0.009941, 0.006090, 0.004751, 0.044039,1, 0.001081, 0.000606, 0.000034,1, 0.313924,-0.244449, 9.798575,1,1
1778258713396,  3649.589,  3649.584,-0.031234, 0.024586,-0.995387,-0.000314, 0.000246,-0.009953, 0.007904,-0.001955, 0.040382,1, 0.000152,-0.000238, 0.000034,1, 0.313925,-0.244430, 9.798575,1,1
1778258713423,  3649.614,  3649.614,-0.030819, 0.026336,-0.995648,-0.000308, 0.000261,-0.009958, 0.011680, 0.013638, 0.034600,1,-0.000085,-0.000442,-0.000209,1, 0.313925,-0.244630, 9.798571,1,1
1778258713445,  3649.639,  3649.634,-0.031174, 0.024649,-0.995090,-0.000309, 0.000248,-0.009948, 0.010048, 0.002852, 0.041943,1, 0.000502, 0.000210, 0.000212,1, 0.313969,-0.244549, 9.798572,1,1
1778258713466,  3649.659,  3649.654,-0.031282, 0.023472,-0.994492,-0.000313, 0.000233,-0.009950, 0.007832,-0.013067, 0.033241,1,-0.000631, 0.000403,-0.000217,1, 0.313916,-0.244587, 9.798573,1,1
1778258713493,  3649.684,  3649.684,-0.032093, 0.025789,-0.995900,-0.000321, 0.000256,-0.009955,-0.000992, 0.008186, 0.032129,1,-0.000466, 0.000718,-0.000480,1, 0.313715,-0.244731, 9.798575,1,1
1778258713515,  3649.709,  3649.704,-0.031526, 0.025338,-0.994925,-0.000319, 0.000252,-0.009954,-0.004249, 0.004302, 0.045525,1,-0.000142, 0.000075,-0.000431,1, 0.313771,-0.244853, 9.798571,1,1
1778258713537,  3649.729,  3649.729,-0.031755, 0.024283,-0.995517,-0.000319, 0.000244,-0.009954, 0.002429,-0.006758, 0.035879,1,-0.000852, 0.000136,-0.000301,1, 0.313840,-0.244917, 9.798567,1,1
1778258713563,  3649.754,  3649.754,-0.032140, 0.025024,-0.995320,-0.000320, 0.000249,-0.009952,-0.001365, 0.000449, 0.037811,1, 0.000005, 0.000678, 0.000212,1, 0.313800,-0.244957, 9.798567,1,1
1778258713585,  3649.779,  3649.774,-0.030858, 0.025980,-0.994170,-0.000306, 0.000264,-0.009937, 0.001238, 0.004880, 0.035074,1,-0.000395,-0.000052,-0.000102,1, 0.313772,-0.245061, 9.798565,1,1
1778258713607,  3649.799,  3649.799,-0.030059, 0.025181,-0.994543,-0.000303, 0.000253,-0.009946, 0.019012, 0.001792, 0.045429,1,-0.000200,-0.000142,-0.000218,1, 0.313796,-0.245152, 9.798562,1,1
1778258713633,  3649.824,  3649.824,-0.030385, 0.025058,-0.997559,-0.000300, 0.000249,-0.009972, 0.015910, 0.000380, 0.015844,1,-0.000643,-0.000329,-0.000469,1, 0.313896,-0.245379, 9.798553,1,1
1778258713655,  3649.849,  3649.844,-0.030892, 0.026369,-0.993586,-0.000310, 0.000263,-0.009940, 0.017270, 0.004582, 0.047828,1,-0.001558,-0.000568,-0.000358,1, 0.313845,-0.245692, 9.798547,1,1
1778258713678,  3649.869,  3649.869,-0.031731, 0.024617,-0.994780,-0.000316, 0.000250,-0.009944, 0.002621,-0.004797, 0.043074,1,-0.002155, 0.000411,-0.000694,1, 0.313788,-0.246279, 9.798534,1,1
1778258713703,  3649.894,  3649.894,-0.031245, 0.024416,-0.996266,-0.000317, 0.000242,-0.009962, 0.007393,-0.007139, 0.028494,1,-0.001372, 0.000167,-0.000302,1, 0.313800,-0.246620, 9.798525,1,1
1778258713725,  3649.919,  3649.914,-0.031815, 0.025431,-0.995087,-0.000317, 0.000258,-0.009950, 0.009982, 0.005383, 0.040737,1,-0.000778, 0.000558,-0.000339,1, 0.313730,-0.246820, 9.798522,1,1
1778258713748,  3649.939,  3649.939,-0.032418, 0.026061,-0.995192,-0.000325, 0.000256,-0.009949,-0.004121, 0.008618, 0.039012,1, 0.000365, 0.000122, 0.000552,1, 0.313790,-0.246941, 9.798517,1,1
1778258713773,  3649.964,  3649.964,-0.032724, 0.025008,-0.995535,-0.000328, 0.000247,-0.009955,-0.007195,-0.001888, 0.035650,1,-0.001096,-0.000388,-0.000004,1, 0.313713,-0.247165, 9.798514,1,1
1778258713795,  3649.989,  3649.984,-0.033043, 0.025379,-0.994937,-0.000329, 0.000253,-0.009948,-0.008688, 0.002539, 0.035041,1,-0.001079, 0.000512,-0.000481,1, 0.313641,-0.247301, 9.798512,1,1
1778258713818,  3650.009,  3650.009,-0.032955, 0.026064,-0.994927,-0.000328, 0.000260,-0.009949,-0.009520, 0.008172, 0.041604,1,-0.000191,-0.000660, 0.000613,1, 0.313676,-0.247436, 9.798509,1,1
1778258713843,  3650.034,  3650.034,-0.031801, 0.025472,-0.995184,-0.000318, 0.000253,-0.009955, 0.001784, 0.002196, 0.039086,1,-0.000220,-0.000666,-0.000392,1, 0.313665,-0.247602, 9.798505,1,1
1778258713865,  3650.059,  3650.054,-0.032711, 0.025280,-0.994988,-0.000329, 0.000252,-0.009946,-0.003697,-0.002567, 0.042813,1,-0.000517,-0.000350,-0.000182,1, 0.313743,-0.247696, 9.798500,1,1
1778258713888,  3650.084,  3650.079,-0.031822, 0.025858,-0.995409,-0.000319, 0.000256,-0.009953, 0.001721, 0.005588, 0.036858,1,-0.001524, 0.000026,-0.000094,1, 0.313790,-0.248042, 9.798490,1,1
1778258713914,  3650.104,  3650.104,-0.032470, 0.024483,-0.994849,-0.000326, 0.000248,-0.009951,-0.004672,-0.008079, 0.042346,1,-0.001077,-0.000263,-0.000576,1, 0.313756,-0.248207, 9.798487,1,1
1778258713935,  3650.129,  3650.124,-0.032120, 0.025493,-0.994917,-0.000324, 0.000254,-0.009949,-0.007190,-0.006357, 0.039061,1,-0.000653,-0.000096,-0.001116,1, 0.313776,-0.248311, 9.798483,1,1
