unix_time_ms,GPS_ts_tow,scaledAccelX,scaledAccelY,scaledAccelZ,deltaVelX,deltaVelY,deltaVelZ,estLinAccelX,estLinAccelY,estLinAccelZ,estLinAccel_valid,estAngRateX,estAngRateY,estAngRateZ,estAngRate_valid,estGravityX,estGravityY,estGravityZ,estGravity_valid,flag
1779390365472,414383.472000000,0.060325649,-0.029923394,-0.985382795,0.000613521,-0.000321138,-0.009868054,0.083325490,0.017566197,0.125225157,1,-0.005265329,0.002192510,-0.000984545,1,-0.508336365,0.310848832,9.788531303,1,0
1779390365482,414383.482000000,0.050817620,-0.021729911,-0.987516761,0.000511640,-0.000216155,-0.009848226,-0.010094861,0.097460300,0.104303166,1,-0.003513818,0.000650730,0.000143320,1,-0.508465648,0.310448676,9.788537979,1,0
1779390365502,414383.502000000,0.050746243,-0.037272193,-1.005098343,0.000486907,-0.000356717,-0.010057976,-0.010716625,-0.054733288,-0.068116792,1,0.003370939,0.002028228,0.001155043,1,-0.508429348,0.310888976,9.788525581,1,0
1779390365512,414383.512000000,0.057048358,-0.039247092,-0.994534194,0.000570958,-0.000395756,-0.009955394,0.050940178,-0.073829524,0.035466097,1,0.000948664,0.001453281,-0.000154309,1,-0.508558571,0.311082304,9.788512230,1,0
1779390365532,414383.532000000,0.043982260,-0.022197830,-0.987908423,0.000454526,-0.000214433,-0.009856481,-0.077215716,0.092905559,0.100456730,1,-0.001558831,-0.000986938,-0.000075921,1,-0.508503675,0.310543209,9.788532257,1,0
1779390365542,414383.542000000,0.042799871,-0.029162228,-1.002098441,0.000428386,-0.000270235,-0.009989842,-0.088589095,0.024673460,-0.038689755,1,0.002542069,-0.002385891,0.001009324,1,-0.508237183,0.310738087,9.788539886,1,0
1779390365552,414383.552000000,0.053830810,-0.037146449,-1.010075927,0.000525604,-0.000359962,-0.010102997,0.019715026,-0.053281695,-0.116927065,1,0.004196054,0.000543783,-0.000100120,1,-0.508201957,0.311131120,9.788529396,1,0
1779390365562,414383.562000000,0.062650219,-0.035368443,-0.996240556,0.000630811,-0.000370358,-0.009995217,0.105973788,-0.035659835,0.018733939,1,-0.000276207,0.002977288,-0.001271746,1,-0.508508980,0.311175466,9.788512230,1,0
1779390365572,414383.572000000,0.057313308,-0.025837220,-0.984533429,0.000593173,-0.000276152,-0.009854852,0.053464308,0.057504542,0.133542076,1,-0.005172990,0.000681875,-0.001227018,1,-0.508609772,0.310717970,9.788521767,1,0
1779390365582,414383.582000000,0.044319164,-0.021419797,-0.986608505,0.000463952,-0.000205251,-0.009851060,-0.073940508,0.100487642,0.113204435,1,-0.001045840,-0.000722381,0.000546137,1,-0.508540034,0.310512424,9.788531303,1,0
1779390365602,414383.602000000,0.048162773,-0.039645545,-1.004143000,0.000458667,-0.000389488,-0.010053251,-0.035842285,-0.077590041,-0.058750603,1,0.004774148,-0.000754268,-0.000122539,1,-0.508134365,0.311348528,9.788526535,1,0
1779390365612,414383.612000000,0.059934169,-0.038698416,-0.995187044,0.000586955,-0.000402070,-0.009982529,0.079513371,-0.068175882,0.029070351,1,-0.000960709,0.001756328,-0.000698591,1,-0.508295476,0.311294883,9.788519859,1,0
1779390365632,414383.632000000,0.049699564,-0.022897990,-0.985322535,0.000504380,-0.000227749,-0.009842016,-0.020818632,0.085874826,0.125837743,1,-0.002557669,-0.001079984,0.000162404,1,-0.508162200,0.310341090,9.788557053,1,0
1779390365642,414383.642000000,0.045968555,-0.028560426,-0.999410391,0.000450025,-0.000272418,-0.009979777,-0.057240825,0.030299492,-0.012306655,1,0.000719930,-0.002281903,0.000981862,1,-0.507965744,0.310405195,9.788564682,1,0
1779390365662,414383.662000000,0.063115016,-0.041359592,-0.993821442,0.000625313,-0.000420000,-0.009951322,0.110839859,-0.094873190,0.042487584,1,-0.001669980,0.002148137,-0.000042977,1,-0.508174062,0.310673743,9.788545609,1,0
1779390365672,414383.672000000,0.057709940,-0.030741643,-0.984039187,0.000591652,-0.000326327,-0.009840800,0.057639472,0.008902608,0.138420179,1,-0.005628665,0.001843471,-0.000906599,1,-0.508360088,0.310198307,9.788551331,1,0
1779390365692,414383.692000000,0.037016891,-0.028172839,-1.003426075,0.000370949,-0.000262098,-0.010005095,-0.144974217,0.033626378,-0.051669784,1,0.001889470,-0.002971834,0.000843740,1,-0.507892549,0.309967816,9.788582802,1,0
1779390365702,414383.702000000,0.045874063,-0.037163600,-1.009527922,0.000441868,-0.000353529,-0.010095040,-0.057918966,-0.054129902,-0.111511089,1,0.005180368,-0.000817937,0.001005752,1,-0.507763386,0.310483605,9.788573265,1,0
1779390365712,414383.712000000,0.060179152,-0.039621007,-0.998717368,0.000593256,-0.000395566,-0.010008669,0.082326546,-0.077858105,-0.005509430,1,0.002529698,0.001366827,-0.000082395,1,-0.507872045,0.310769945,9.788558006,1,0
1779390365732,414383.732000000,0.049896106,-0.023829525,-0.982947469,0.000524987,-0.000239378,-0.009821489,-0.018662233,0.076708794,0.149141923,1,-0.002103490,0.000305132,-0.000401164,1,-0.507985830,0.310330421,9.788566589,1,0
1779390365742,414383.742000000,0.043176480,-0.027005585,-0.994584143,0.000438800,-0.000256008,-0.009924090,-0.084493600,0.045402549,0.035034202,1,-0.000812316,-0.001505118,-0.000042038,1,-0.507863462,0.310211509,9.788576126,1,0
1779390365762,414383.762000000,0.057248972,-0.038287036,-0.998595893,0.000568297,-0.000395520,-0.010019741,0.053409409,-0.065170810,-0.004315726,1,-0.000754160,0.001870328,-0.001001193,1,-0.508070529,0.310271680,9.788563728,1,0
1779390365772,414383.772000000,0.053938404,-0.029230112,-0.984863162,0.000554164,-0.000316845,-0.009868598,0.020781219,0.023344330,0.130357802,1,-0.004894923,0.000649309,-0.001364234,1,-0.508195400,0.309839129,9.788571358,1,0
1779390365792,414383.792000000,0.040496983,-0.027667485,-1.000677466,0.000392682,-0.000256618,-0.009988057,-0.110655196,0.038114868,-0.024689691,1,0.002533445,-0.004110597,0.000914116,1,-0.507665992,0.309520662,9.788608551,1,0
1779390365802,414383.802000000,0.052044887,-0.039323036,-1.010686159,0.000490669,-0.000380925,-0.010112451,0.002869880,-0.075754412,-0.122840755,1,0.005428361,-0.001116575,0.001242062,1,-0.507480085,0.310044020,9.788601875,1,0
1779390365822,414383.822000000,0.066752240,-0.031372603,-0.985008657,0.000672707,-0.000328303,-0.009854657,0.146753713,0.002484026,0.128942683,1,-0.003038557,0.002778379,-0.001104091,1,-0.507931113,0.310064137,9.788577080,1,0
1779390365832,414383.832000000,0.052338365,-0.021453584,-0.983780921,0.000545260,-0.000217213,-0.009819988,0.005306662,0.099436410,0.140988186,1,-0.002867613,0.000042389,-0.000619330,1,-0.507958114,0.309734911,9.788586617,1,0
1779390365852,414383.852000000,0.041611016,-0.036664579,-1.004040718,0.000403380,-0.000349224,-0.010032244,-0.099581294,-0.049500316,-0.057683758,1,0.004894797,-0.001166372,0.001150943,1,-0.507608473,0.310210764,9.788589478,1,0
1779390365862,414383.862000000,0.054292392,-0.041943666,-0.997280478,0.000530875,-0.000418451,-0.009984526,0.024828764,-0.100890428,0.008601807,1,0.001691990,0.000653054,-0.000541627,1,-0.507618666,0.310488313,9.788579941,1,0
1779390365872,414383.872000000,0.057481945,-0.034234866,-0.986585081,0.000586121,-0.000351249,-0.009868756,0.056039106,-0.025365256,0.113486148,1,-0.002452783,0.001078789,-0.000823635,1,-0.507700682,0.310286373,9.788582802,1,0
1779390365892,414383.892000000,0.043492537,-0.023865849,-0.998026490,0.000445561,-0.000225268,-0.009958019,-0.081089519,0.075613461,0.001309687,1,-0.000940288,-0.000681885,-0.000336134,1,-0.507584751,0.309627682,9.788609505,1,0
1779390365902,414383.902000000,0.050242268,-0.033429440,-1.007384300,0.000488559,-0.000315276,-0.010070353,-0.014876039,-0.018035326,-0.090463147,1,0.003593244,0.000463799,-0.000125838,1,-0.507598937,0.309907287,9.788599968,1,0
1779390365912,414383.912000000,0.061499946,-0.038317539,-0.999045491,0.000609142,-0.000386959,-0.010021498,0.095358916,-0.065716475,-0.008702717,1,0.002022491,0.002627598,0.000050373,1,-0.507831395,0.310113341,9.788580894,1,0
1779390365922,414383.922000000,0.062312316,-0.032760046,-0.982675016,0.000634728,-0.000349809,-0.009851724,0.103014201,-0.011278685,0.151822761,1,-0.002314886,0.001982734,-0.001627905,1,-0.508124292,0.309912860,9.788572311,1,0
1779390365932,414383.932000000,0.048751704,-0.022600746,-0.978727341,0.000511115,-0.000235670,-0.009788234,-0.030057212,0.088023029,0.190541834,1,-0.002731713,-0.000223701,-0.000991152,1,-0.508142114,0.309573948,9.788581848,1,0
1779390365952,414383.952000000,0.043597762,-0.036127381,-1.008056283,0.000409099,-0.000347261,-0.010074656,-0.080145806,-0.044309769,-0.097064130,1,0.004879195,-0.003259226,-0.000049208,1,-0.507592320,0.310130775,9.788593292,1,0
1779390365962,414383.962000000,0.056685869,-0.039528977,-1.004281998,0.000549290,-0.000399105,-0.010074931,0.048334263,-0.077131838,-0.060060926,1,0.005410817,-0.000040812,-0.000558776,1,-0.507563531,0.310682714,9.788577080,1,0
1779390365982,414383.982000000,0.053285316,-0.021280929,-0.986316204,0.000550952,-0.000218130,-0.009852995,0.014917449,0.101854697,0.116119169,1,-0.001628748,-0.001506949,0.000041801,1,-0.507586002,0.310498655,9.788581848,1,0
1779390365992,414383.992000000,0.044531409,-0.024071779,-0.993655980,0.000444527,-0.000214805,-0.009909196,-0.070733950,0.074704975,0.044143714,1,0.005198533,-0.002615114,0.000470048,1,-0.507355988,0.310931236,9.788579941,1,0
1779390366002,414384.002000000,0.047647670,-0.036588214,-1.005546570,0.000463174,-0.000349308,-0.010038205,-0.039838865,-0.047300138,-0.072469667,1,0.008114084,-0.003063740,0.000690279,1,-0.507006764,0.311761647,9.788571358,1,0
1779390366022,414384.022000000,0.054475129,-0.038064916,-0.992882431,0.000583532,-0.000382132,-0.009918367,0.026997313,-0.061195109,0.051698744,1,-0.005552995,0.002475079,-0.001406837,1,-0.507363200,0.311813712,9.788551331,1,0
1779390366032,414384.032000000,0.045637313,-0.019306779,-0.981282532,0.000485988,-0.000226405,-0.009903980,-0.060321867,0.120828614,0.165482283,1,-0.020790463,0.003835098,-0.000517671,1,-0.507995129,0.309507966,9.788591385,1,0
1779390366052,414384.052000000,0.045413058,-0.027895659,-1.008070350,0.000411842,-0.000233263,-0.010036248,-0.062516786,0.035265498,-0.097173549,1,0.009672937,-0.002084717,0.001130993,1,-0.507800698,0.309131682,9.788614273,1,0
1779390366062,414384.062000000,0.062323898,-0.040369518,-0.999849796,0.000618430,-0.000397130,-0.010034475,0.103437319,-0.086024776,-0.016585302,1,0.010924880,-0.000252799,0.001085748,1,-0.507742405,0.310207188,9.788582802,1,0
1779390366082,414384.082000000,0.054309230,-0.025715867,-0.978122652,0.000563524,-0.000276874,-0.009771764,0.024421472,0.057499707,0.196469486,1,-0.008797619,0.000366360,-0.000701899,1,-0.508182287,0.309410989,9.788584709,1,0
1779390366092,414384.092000000,0.042649679,-0.021236470,-0.989922881,0.000434252,-0.000210791,-0.009880297,-0.089810148,0.100763142,0.080776334,1,-0.002213012,-0.002828307,0.000167910,1,-0.507972360,0.308953106,9.788610458,1,0
1779390366112,414384.112000000,0.058015041,-0.039468795,-0.999342859,0.000555970,-0.000395603,-0.010019649,0.061380617,-0.076647535,-0.011620140,1,0.009915504,-0.001160127,0.000370505,1,-0.507516146,0.310718745,9.788578033,1,0
1779390366122,414384.122000000,0.059614085,-0.038331185,-0.989565074,0.000601048,-0.000402293,-0.009911106,0.077092461,-0.064866506,0.084248848,1,0.001789490,-0.000286297,-0.000927844,1,-0.507514060,0.311088264,9.788566589,1,0
1779390366142,414384.142000000,0.041244160,-0.023778584,-0.989533782,0.000424950,-0.000227296,-0.009872511,-0.103134751,0.076980270,0.084579103,1,-0.000894723,-0.003114942,-0.000393642,1,-0.507505178,0.310140014,9.788597107,1,0
1779390366152,414384.152000000,0.047801416,-0.026717911,-1.002339244,0.000444697,-0.000279770,-0.010041950,-0.038599011,0.048365522,-0.040993851,1,0.005166823,-0.001843897,0.000090548,1,-0.507313251,0.310539871,9.788594246,1,0
1779390366162,414384.162000000,0.060125079,-0.042161062,-1.002137899,0.000582565,-0.000399073,-0.010019727,0.082273722,-0.102146193,-0.039047956,1,0.009021563,0.000160827,0.000050671,1,-0.507356882,0.311593771,9.788558960,1,0
1779390366182,414384.182000000,0.048582789,-0.025113320,-0.985701203,0.000510738,-0.000257733,-0.009848326,-0.031148324,0.065070815,0.122127391,1,-0.007461369,0.001303920,-0.000489816,1,-0.507623911,0.311115086,9.788559914,1,0
1779390366192,414384.192000000,0.037746478,-0.024287274,-0.993504167,0.000390643,-0.000230603,-0.009906639,-0.137413934,0.072664224,0.045622334,1,-0.002910761,-0.000936590,0.000248904,1,-0.507551014,0.310750753,9.788575172,1,0
1779390366212,414384.212000000,0.059327677,-0.042537060,-1.003736258,0.000590953,-0.000418179,-0.010056902,0.074377358,-0.105653420,-0.054732136,1,0.004782045,0.002505709,-0.000121570,1,-0.507506669,0.311641455,9.788549423,1,0
1779390366222,414384.222000000,0.061168313,-0.036234070,-0.988187313,0.000635275,-0.000381766,-0.009898938,0.092110015,-0.043885157,0.097735256,1,-0.004308376,0.004080863,-0.001551461,1,-0.507804990,0.311286986,9.788545609,1,0
1779390366242,414384.242000000,0.041888390,-0.021528803,-0.994103193,0.000421692,-0.000215318,-0.009932166,-0.097013324,0.098870054,0.039764345,1,-0.002808625,-0.001915587,0.000585904,1,-0.507737577,0.309908807,9.788592339,1,0
1779390366252,414384.252000000,0.044341668,-0.035139073,-1.010130286,0.000415276,-0.000341329,-0.010075069,-0.072667643,-0.034172334,-0.117406704,1,0.007161734,-0.003131784,0.001103662,1,-0.507412255,0.310649216,9.788585663,1,0
1779390366272,414384.272000000,0.063996091,-0.037364282,-0.988911569,0.000642103,-0.000403811,-0.009922229,0.119666748,-0.055592269,0.090643041,1,-0.007433108,0.004013567,-0.001184516,1,-0.508046806,0.310592681,9.788555145,1,0
1779390366282,414384.282000000,0.054551702,-0.023387510,-0.981827497,0.000559219,-0.000263140,-0.009824270,0.026647747,0.080296114,0.160130888,1,-0.013347809,0.002858032,-0.001950718,1,-0.508412659,0.309230208,9.788578987,1,0
1779390366292,414384.292000000,0.044661824,-0.018671330,-0.990993619,0.000444670,-0.000178834,-0.009887870,-0.070376843,0.125623778,0.070269056,1,-0.005228578,-0.001241597,-0.000364330,1,-0.508321404,0.308563501,9.788604736,1,0
1779390366312,414384.312000000,0.057855818,-0.039466795,-1.002481937,0.000561093,-0.000400133,-0.010055193,0.059295557,-0.077435255,-0.042405874,1,0.004472970,0.001373307,0.000870084,1,-0.508118153,0.309742600,9.788578033,1,0
1779390366322,414384.322000000,0.061117120,-0.038269281,-0.988724232,0.000616697,-0.000392027,-0.009899976,0.091000549,-0.065694042,0.092496932,1,-0.005050971,0.002628195,0.000064697,1,-0.508435547,0.309442192,9.788571358,1,0
1779390366342,414384.342000000,0.040283795,-0.023201115,-0.989748240,0.000404816,-0.000211400,-0.009859735,-0.113369025,0.080619447,0.082497597,1,-0.000909381,-0.003481542,0.000624713,1,-0.508309066,0.308117360,9.788619041,1,0
1779390366352,414384.352000000,0.043452475,-0.033632100,-1.007486820,0.000419660,-0.000310171,-0.010045854,-0.081792869,-0.021149756,-0.091448702,1,0.009330744,-0.004838846,0.000581672,1,-0.507764757,0.308960170,9.788620949,1,0
1779390366372,414384.372000000,0.062316887,-0.037367970,-0.993120909,0.000645411,-0.000389946,-0.009955565,0.103042774,-0.056977365,0.049399443,1,-0.006025325,0.003988015,-0.000893200,1,-0.508202374,0.309288085,9.788587570,1,0
1779390366382,414384.382000000,0.054896437,-0.021537989,-0.980889499,0.000575250,-0.000231369,-0.009812946,0.029926315,0.097341821,0.169359148,1,-0.009248260,0.002014052,-0.001321541,1,-0.508487940,0.308267057,9.788605690,1,0
1779390366402,414384.402000000,0.043293197,-0.029664092,-0.998727441,0.000427371,-0.000280084,-0.009980696,-0.083279565,0.018097712,-0.005555637,1,0.014638200,-0.005583538,0.000811108,1,-0.507666111,0.309460491,9.788610458,1,0
1779390366412,414384.412000000,0.054933958,-0.041957680,-1.001624107,0.000539735,-0.000417309,-0.010033110,0.031186886,-0.101070292,-0.033990469,1,0.010206761,-0.001497993,0.000336009,1,-0.507484257,0.310712576,9.788579941,1,0
1779390366432,414384.432000000,0.049730022,-0.023095045,-0.983142972,0.000504462,-0.000260573,-0.009848794,-0.020302899,0.082692340,0.147263154,1,-0.015016522,0.003285110,-0.001266257,1,-0.508095562,0.308702737,9.788612366,1,0
1779390366442,414384.442000000,0.044511411,-0.018592745,-0.990206778,0.000436389,-0.000194121,-0.009911236,-0.071541660,0.125814974,0.078020096,1,-0.004997245,-0.002482515,-0.000419763,1,-0.507972836,0.307990819,9.788640976,1,0
1779390366452,414384.452000000,0.051451255,-0.027764967,-1.005468369,0.000471920,-0.000258353,-0.010041219,-0.003155768,0.036305461,-0.071642205,1,0.010539155,-0.004747733,0.000269872,1,-0.507572055,0.308915585,9.788632393,1,0
1779390366472,414384.472000000,0.064272463,-0.039240610,-0.991726935,0.000632230,-0.000412079,-0.009941987,0.122575849,-0.074472316,0.063060179,1,-0.003850217,0.002917332,0.000032351,1,-0.507812619,0.310226709,9.788578987,1,0
1779390366482,414384.482000000,0.048766889,-0.026404161,-0.984178841,0.000493864,-0.000276510,-0.009817873,-0.029802592,0.050424814,0.137096375,1,-0.012650665,0.002409440,-0.000254575,1,-0.508117735,0.308966607,9.788602829,1,0
1779390366502,414384.502000000,0.043731332,-0.029714087,-1.005686045,0.000411269,-0.000276151,-0.010026130,-0.078647383,0.017809613,-0.073784605,1,0.012725106,-0.005666072,0.000297893,1,-0.507328451,0.309602261,9.788623810,1,0
1779390366512,414384.512000000,0.057079613,-0.042420972,-1.006227612,0.000550543,-0.000399871,-0.010062183,0.052683748,-0.105257340,-0.079122908,1,0.014199700,-0.000898378,0.000850301,1,-0.507047236,0.311194122,9.788587570,1,0
1779390366532,414384.532000000,0.051024217,-0.027392907,-0.988157034,0.000542139,-0.000290245,-0.009882570,-0.007128239,0.041687895,0.098080963,1,-0.013805992,0.003401631,-0.000496659,1,-0.507611394,0.309889585,9.788599968,1,0
1779390366542,414384.542000000,0.044505037,-0.020808730,-0.990628719,0.000458123,-0.000200980,-0.009897733,-0.071302116,0.105150126,0.073863849,1,-0.005852243,0.000324901,0.000111866,1,-0.507757485,0.309031904,9.788619041,1,0
1779390366562,414384.562000000,0.057304829,-0.040410142,-0.999005258,0.000581998,-0.000399381,-0.010020867,0.054597318,-0.085532710,-0.008311212,1,0.010439604,-0.001046300,0.000412792,1,-0.507338107,0.311081380,9.788576126,1,0
1779390366572,414384.572000000,0.053912945,-0.038515318,-0.989048362,0.000568779,-0.000401476,-0.009908628,0.021204082,-0.066620149,0.089315400,1,-0.003297827,0.000824223,-0.000859952,1,-0.507527888,0.310981959,9.788569450,1,0
1779390366582,414384.582000000,0.040192883,-0.024429953,-0.986391008,0.000423117,-0.000270155,-0.009864435,-0.113486774,0.070456266,0.115401521,1,-0.012399538,-0.000297548,-0.000651907,1,-0.507635713,0.309644878,9.788605690,1,0
1779390366602,414384.602000000,0.051433120,-0.031876303,-1.007701397,0.000477693,-0.000310910,-0.010075293,-0.002812758,-0.002701036,-0.093554847,1,0.011702187,-0.003114578,-0.000004767,1,-0.507102370,0.310263366,9.788614273,1,0
1779390366612,414384.612000000,0.067113131,-0.041103020,-1.002892494,0.000642769,-0.000404983,-0.010049789,0.150950074,-0.092057675,-0.046431329,1,0.007532940,0.003367431,0.000231815,1,-0.507309675,0.311260402,9.788571358,1,0
1779390366632,414384.632000000,0.052610967,-0.023115035,-0.980137885,0.000537708,-0.000244906,-0.009796893,0.008026767,0.082862630,0.176725224,1,-0.013455383,0.002013600,-0.000277754,1,-0.507967412,0.309123248,9.788605690,1,0
1779390366642,414384.642000000,0.043452930,-0.022557069,-0.988429427,0.000424001,-0.000219184,-0.009859185,-0.081703357,0.087809466,0.095433131,1,0.001343037,-0.002115333,0.000721097,1,-0.507764041,0.309061706,9.788618088,1,0
1779390366662,414384.662000000,0.055025358,-0.041979782,-0.996350825,0.000547368,-0.000417670,-0.009974092,0.032608233,-0.100395024,0.017722005,1,0.007443244,-0.002548522,-0.000594764,1,-0.506927431,0.311517000,9.788583755,1,0
1779390366672,414384.672000000,0.054282665,-0.036302902,-0.992333055,0.000551732,-0.000385124,-0.009925691,0.025284687,-0.044963241,0.057128191,1,-0.011076882,0.001792279,-0.001248523,1,-0.507103562,0.310699493,9.788599968,1,0
1779390366692,414384.692000000,0.043819796,-0.021595614,-0.998187482,0.000443195,-0.000205611,-0.009965145,-0.077291377,0.097378306,-0.000222393,1,0.001902873,-0.003632098,0.000265582,1,-0.506903410,0.309218675,9.788657188,1,0
1779390366702,414384.702000000,0.058873471,-0.029640561,-1.006406307,0.000560533,-0.000297389,-0.010086198,0.070529863,0.019216659,-0.080835417,1,0.009935690,-0.001181777,0.000689561,1,-0.506784201,0.310201973,9.788632393,1,0
1779390366722,414384.722000000,0.056461487,-0.032125413,-0.981339633,0.000585629,-0.000341983,-0.009809476,0.046636369,-0.004374165,0.164948136,1,-0.008610993,0.001577042,-0.000362112,1,-0.507111251,0.310399681,9.788609505,1,0
1779390366732,414384.732000000,0.043780379,-0.022950452,-0.981501102,0.000457441,-0.000233581,-0.009803198,-0.077749521,0.084600709,0.163395599,1,-0.008482342,-0.001357208,0.000069441,1,-0.507046044,0.309403569,9.788644791,1,0
1779390366742,414384.742000000,0.035844952,-0.028038839,-0.997340798,0.000363408,-0.000264350,-0.009941097,-0.155171707,0.034472957,0.008088781,1,0.003557403,-0.006178338,0.000818270,1,-0.506497324,0.309552222,9.788667679,1,0
1779390366762,414384.762000000,0.055597220,-0.042365070,-1.008698106,0.000548127,-0.000435603,-0.010108136,0.038953301,-0.104876295,-0.103303052,1,-0.001440139,0.002742300,-0.001361029,1,-0.506356001,0.310536057,9.788643837,1,0
1779390366772,414384.772000000,0.054643087,-0.031126453,-0.995606720,0.000553529,-0.000337434,-0.009972896,0.029110990,0.004406431,0.025084440,1,-0.013824113,0.005346264,-0.001221950,1,-0.506922483,0.309219956,9.788656235,1,0
1779390366792,414384.792000000,0.050483275,-0.024236692,-0.997041821,0.000491258,-0.000229618,-0.009962667,-0.012324358,0.070005417,0.011039266,1,0.000286447,0.000239919,0.000817306,1,-0.507402897,0.307696432,9.788680077,1,0
1779390366802,414384.802000000,0.057561699,-0.033800669,-0.996367633,0.000549613,-0.000331683,-0.009978775,0.056941602,-0.023303170,0.017628085,1,0.006435363,0.002338147,0.000535241,1,-0.507618189,0.308369577,9.788647652,1,0
1779390366822,414384.822000000,0.049202532,-0.029607309,-0.985236168,0.000499214,-0.000312657,-0.009846378,-0.025281370,0.017882498,0.126775950,1,-0.005992096,-0.000382957,-0.000866470,1,-0.507887602,0.308020413,9.788644791,1,0
1779390366832,414384.832000000,0.041723099,-0.025360843,-0.991462708,0.000410370,-0.000251620,-0.009895857,-0.098595992,0.059084255,0.065729439,1,-0.001927995,-0.002523992,-0.000041633,1,-0.507688046,0.307727575,9.788663864,1,0
1779390366852,414384.852000000,0.057511926,-0.038783420,-1.006541491,0.000553344,-0.000373589,-0.010070178,0.056787610,-0.071268804,-0.082154267,1,0.009205845,0.000063791,0.000167296,1,-0.507213593,0.309353739,9.788637161,1,0
1779390366862,414384.862000000,0.062623456,-0.038394663,-0.992322683,0.000635761,-0.000389618,-0.009942275,0.106745727,-0.066968650,0.057260420,1,0.000927160,0.003594953,-0.000494441,1,-0.507493079,0.309582472,9.788615227,1,0
1779390366872,414384.872000000,0.054088958,-0.028352544,-0.981160462,0.000571571,-0.000295789,-0.009810828,0.022831617,0.031020749,0.166729033,1,-0.007293143,0.001551274,-0.001076769,1,-0.507649243,0.308835268,9.788631439,1,0
1779390366892,414384.892000000,0.043442141,-0.030785711,-0.999208212,0.000437758,-0.000292162,-0.009971128,-0.081151575,0.007095909,-0.010235088,1,0.008559360,-0.004730579,0.000253968,1,-0.507025838,0.309267730,9.788649559,1,0
1779390366902,414384.902000000,0.053899664,-0.039196182,-1.003661156,0.000535030,-0.000380741,-0.010045097,0.021687966,-0.074446417,-0.053919140,1,0.008608862,-0.001338650,0.000011904,1,-0.506845534,0.310205102,9.788629532,1,0
1779390366922,414384.922000000,0.051653046,-0.025216056,-0.989014566,0.000540446,-0.000277732,-0.009895304,-0.000568153,0.062045552,0.089722790,1,-0.010554262,0.001287796,-0.001539008,1,-0.507153213,0.308999270,9.788651466,1,0
1779390366932,414384.932000000,0.044078663,-0.021050734,-0.992066860,0.000446075,-0.000204037,-0.009915566,-0.074956581,0.102172971,0.059807174,1,-0.003005615,0.000038989,-0.000021540,1,-0.507221818,0.308516473,9.788662910,1,0
1779390366952,414384.952000000,0.058617573,-0.037324451,-1.001385093,0.000562640,-0.000376713,-0.010032044,0.067706674,-0.056668211,-0.031592816,1,0.003495829,0.001745434,0.000196579,1,-0.507189572,0.309468865,9.788635254,1,0
1779390366962,414384.962000000,0.061006989,-0.034905154,-0.988563240,0.000612003,-0.000369113,-0.009912558,0.090780802,-0.033140771,0.094134450,1,-0.006641978,0.003620184,-0.001102760,1,-0.507607281,0.308953136,9.788629532,1,0
1779390366982,414384.982000000,0.043189865,-0.022023993,-0.993362367,0.000419974,-0.000212015,-0.009909204,-0.084155843,0.091261365,0.047120478,1,-0.003385321,-0.001898605,0.001009559,1,-0.507643640,0.307139099,9.788684845,1,0
1779390366992,414384.992000000,0.048143372,-0.031966031,-1.007546544,0.000455001,-0.000303302,-0.010061570,-0.035288993,-0.005919223,-0.091973267,1,0.007104524,-0.002390978,0.000760529,1,-0.507338941,0.307783067,9.788680077,1,0
1779390367012,414385.012000000,0.064303264,-0.035665791,-0.989763558,0.000646897,-0.000373576,-0.009914257,0.122804359,-0.041421447,0.082373358,1,-0.005929734,0.004611225,-0.001352979,1,-0.507940292,0.308153570,9.788637161,1,0
1779390367022,414385.022000000,0.051752064,-0.023465531,-0.982156932,0.000542769,-0.000245458,-0.009813416,-0.000612367,0.077208847,0.156983480,1,-0.011539469,0.002414545,-0.000440504,1,-0.508219838,0.306959838,9.788660049,1,0
1779390367032,414385.032000000,0.041687958,-0.025556162,-0.991306901,0.000424319,-0.000230634,-0.009874108,-0.099320389,0.056087416,0.067271806,1,-0.001731183,-0.002617987,0.000693719,1,-0.508058548,0.306654483,9.788678169,1,0
1779390367052,414385.052000000,0.054406755,-0.037435852,-1.001745582,0.000534769,-0.000367539,-0.010043801,0.025808766,-0.059680007,-0.035097502,1,0.004608433,0.002076043,0.000569720,1,-0.507803380,0.307584792,9.788661957,1,0
1779390367062,414385.062000000,0.060014345,-0.034789409,-0.985505998,0.000610796,-0.000351012,-0.009867923,0.080707408,-0.033471756,0.124144264,1,0.000717195,-0.000611455,-0.000558514,1,-0.507813811,0.307717294,9.788658142,1,0
1779390367082,414385.082000000,0.046366584,-0.028339326,-0.993104339,0.000474543,-0.000273484,-0.009916081,-0.052673750,0.030110009,0.049642935,1,0.006454084,-0.002983207,0.000794234,1,-0.507280886,0.308226287,9.788669586,1,0
1779390367092,414385.092000000,0.048172057,-0.035328798,-1.003381014,0.000474232,-0.000343473,-0.010028010,-0.034639094,-0.037794985,-0.051139761,1,0.006296740,-0.002469006,0.000885533,1,-0.506967843,0.308859825,9.788665771,1,0
1779390367112,414385.112000000,0.059916046,-0.032770976,-0.988322973,0.000608128,-0.000344093,-0.009903275,0.080179021,-0.012865033,0.096516870,1,-0.006908024,0.003086256,-0.001120962,1,-0.507493973,0.308291405,9.788656235,1,0
1779390367122,414385.122000000,0.047304124,-0.023005402,-0.983408928,0.000488983,-0.000242994,-0.009836543,-0.043623216,0.082069039,0.144726470,1,-0.006790852,-0.001106885,-0.000643168,1,-0.507484376,0.307462335,9.788682938,1,0
1779390367142,414385.142000000,0.042576011,-0.034304004,-1.008549333,0.000396929,-0.000331694,-0.010076753,-0.089319125,-0.028159225,-0.101799071,1,0.008072566,-0.002591573,0.000273524,1,-0.506766200,0.308500111,9.788687706,1,0
1779390367152,414385.152000000,0.056201953,-0.039247971,-1.005114555,0.000532847,-0.000404186,-0.010079927,0.044298943,-0.076068945,-0.068134859,1,0.001456280,0.002030170,-0.001233937,1,-0.506918430,0.308865637,9.788667679,1,0
1779390367162,414385.162000000,0.062671751,-0.033832263,-0.990913272,0.000624064,-0.000353740,-0.009923525,0.107394941,-0.023323823,0.071125470,1,-0.007961679,0.003500921,-0.001203464,1,-0.507315278,0.308207363,9.788667679,1,0
1779390367182,414385.182000000,0.047096685,-0.022921596,-0.992135286,0.000474271,-0.000212940,-0.009897575,-0.045598187,0.082262784,0.059173025,1,0.001430306,-0.001730996,0.000809298,1,-0.507404208,0.307092726,9.788698196,1,0
1779390367192,414385.192000000,0.047971971,-0.033202533,-1.001096487,0.000467105,-0.000308705,-0.010000709,-0.036769871,-0.017909609,-0.028713934,1,0.009620360,-0.002238321,0.001252322,1,-0.507143259,0.307997823,9.788683891,1,0
1779390367212,414385.212000000,0.055092856,-0.034636829,-0.986653268,0.000567650,-0.000361617,-0.009871551,0.032969862,-0.031393178,0.112902351,1,-0.006318646,0.002533852,-0.000626987,1,-0.507386088,0.308080226,9.788668633,1,0
1779390367222,414385.222000000,0.044796657,-0.023704508,-0.985782921,0.000475599,-0.000242319,-0.009842187,-0.068103224,0.074947059,0.121459648,1,-0.008244652,0.000357290,-0.000763005,1,-0.507404089,0.307119071,9.788698196,1,0
1779390367242,414385.242000000,0.048527334,-0.034755506,-1.007347465,0.000473756,-0.000330413,-0.010067396,-0.031156551,-0.033525404,-0.089995578,1,0.006658573,-0.001653099,0.000972422,1,-0.506994605,0.307518601,9.788706779,1,0
1779390367252,414385.252000000,0.062524505,-0.038871061,-1.000023603,0.000621313,-0.000385730,-0.010030921,0.105972745,-0.073397890,-0.018194471,1,0.002397625,0.003389544,-0.000952249,1,-0.507289827,0.307870209,9.788680077,1,0
1779390367272,414385.272000000,0.051126134,-0.021617576,-0.983135164,0.000530284,-0.000230790,-0.009832136,-0.006386358,0.094435655,0.147438154,1,-0.008623732,0.000468779,-0.000849244,1,-0.507777929,0.306161612,9.788708687,1,0
1779390367282,414385.282000000,0.041912202,-0.023531973,-0.994392157,0.000419196,-0.000235683,-0.009928472,-0.096648403,0.075318821,0.037060183,1,-0.000067372,-0.003014079,0.000355195,1,-0.507572472,0.306087136,9.788721085,1,0
1779390367302,414385.302000000,0.055488680,-0.038443856,-0.998512864,0.000525342,-0.000384988,-0.010005568,0.036901329,-0.069664992,-0.003368375,1,0.004769178,0.000290191,-0.000004512,1,-0.507265806,0.307489097,9.788693428,1,0
1779390367312,414385.312000000,0.060556315,-0.035294205,-0.991713107,0.000599267,-0.000369572,-0.009925286,0.086542025,-0.038693380,0.063308664,1,-0.003685193,0.000211000,-0.000710156,1,-0.507319868,0.307308584,9.788696289,1,0
1779390367322,414385.322000000,0.053058986,-0.026141772,-0.987853825,0.000541236,-0.000269331,-0.009875650,0.013029903,0.050668083,0.101168364,1,-0.003041565,0.000075429,0.000019439,1,-0.507303357,0.306936562,9.788708687,1,0
1779390367342,414385.342000000,0.051600192,-0.034416892,-1.001597524,0.000499461,-0.000321794,-0.009999762,-0.000843242,-0.029413236,-0.033622339,1,0.012252850,-0.002905321,0.000173129,1,-0.506777644,0.308483273,9.788687706,1,0
1779390367352,414385.352000000,0.060068630,-0.038228977,-0.999830186,0.000594039,-0.000381052,-0.010011517,0.082399473,-0.065737166,-0.016314171,1,0.007867064,0.000142177,-0.000608495,1,-0.506677568,0.309405208,9.788662910,1,0
1779390367372,414385.372000000,0.040847454,-0.024879118,-0.985930681,0.000446242,-0.000259191,-0.009864366,-0.106431901,0.064011678,0.120013155,1,-0.014737310,0.000548275,-0.000024372,1,-0.507025719,0.307533294,9.788703918,1,0
1779390367382,414385.382000000,0.034474894,-0.025204588,-0.992962658,0.000360505,-0.000239829,-0.009914187,-0.168796539,0.059983388,0.051085599,1,-0.002725770,-0.004672837,0.000785525,1,-0.506733418,0.307072312,9.788733482,1,0
1779390367402,414385.402000000,0.059034076,-0.040499195,-1.005881786,0.000593888,-0.000392232,-0.010081197,0.072819315,-0.088474415,-0.075616658,1,0.009447182,0.000786576,0.000022269,1,-0.506131768,0.308981448,9.788704872,1,0
1779390367412,414385.412000000,0.065577433,-0.037921958,-0.989918470,0.000675424,-0.000404927,-0.009932226,0.136608779,-0.063177966,0.080910422,1,-0.007233532,0.004561641,-0.001790741,1,-0.506630063,0.308481127,9.788695335,1,0
1779390367432,414385.432000000,0.041990995,-0.021225709,-0.989621222,0.000426428,-0.000201852,-0.009886928,-0.095050022,0.098516688,0.083870769,1,-0.001993915,-0.000989612,0.000182548,1,-0.506807268,0.306606233,9.788744926,1,0
1779390367442,414385.442000000,0.046925552,-0.031846102,-0.997440219,0.000446083,-0.000298620,-0.009976380,-0.046508834,-0.005015780,0.007181956,1,0.011237666,-0.002603282,0.000425537,1,-0.506609619,0.307638556,9.788722992,1,0
1779390367452,414385.452000000,0.056543767,-0.040250603,-0.995127201,0.000554600,-0.000406825,-0.009983223,0.047947526,-0.086383455,0.029838461,1,0.007994945,-0.000691038,-0.000082594,1,-0.506535947,0.308589131,9.788696289,1,0
1779390367472,414385.472000000,0.049209304,-0.023988551,-0.984667420,0.000502341,-0.000259170,-0.009834216,-0.024119653,0.072318509,0.132430717,1,-0.009505838,-0.001590208,-0.000865264,1,-0.506649375,0.307268262,9.788732529,1,0
1779390367482,414385.482000000,0.041022204,-0.021813620,-0.997437894,0.000406002,-0.000209729,-0.009955320,-0.104086965,0.093337245,0.007221355,1,0.002362105,-0.004426096,0.000315520,1,-0.506239176,0.307329893,9.788751602,1,0
1779390367502,414385.502000000,0.064228617,-0.039521258,-1.005555272,0.000619576,-0.000385117,-0.010077553,0.124104932,-0.078406289,-0.072411060,1,0.007801896,0.001256354,0.000098928,1,-0.505801737,0.309408128,9.788708687,1,0
1779390367512,414385.512000000,0.066114485,-0.035421494,-0.989083946,0.000670120,-0.000367442,-0.009905952,0.142371729,-0.037987214,0.089099482,1,-0.002964054,0.002602501,0.000028645,1,-0.506070971,0.309286714,9.788698196,1,0
1779390367532,414385.532000000,0.036203105,-0.024097316,-0.989065409,0.000375811,-0.000226639,-0.009857299,-0.150935039,0.072599076,0.089296862,1,0.003629549,-0.004012220,0.000018489,1,-0.505841196,0.309026152,9.788718224,1,0
1779390367542,414385.542000000,0.038029116,-0.032674946,-1.002556920,0.000371886,-0.000300880,-0.010005351,-0.132570371,-0.010666875,-0.043012608,1,0.011998337,-0.004590227,0.000668593,1,-0.505364954,0.310139835,9.788707733,1,0
1779390367562,414385.562000000,0.057706568,-0.036077742,-0.993998110,0.000588649,-0.000374562,-0.009950216,0.060596168,-0.042733066,0.040888965,1,-0.001717055,0.001468106,-0.000166012,1,-0.505357921,0.311014950,9.788681030,1,0
1779390367572,414385.572000000,0.051794719,-0.023852015,-0.992682338,0.000530784,-0.000257032,-0.009913594,0.002428236,0.076537348,0.053802148,1,-0.008699846,0.002483002,-0.000649890,1,-0.505582452,0.310173601,9.788695335,1,0
1779390367592,414385.592000000,0.048410751,-0.031284060,-1.001046300,0.000478561,-0.000304269,-0.010013899,-0.030686099,0.003781156,-0.028220173,1,0.009472463,-0.002146104,0.001001600,1,-0.505365551,0.310869783,9.788684845,1,0
1779390367602,414385.602000000,0.062035907,-0.038026404,-0.996616006,0.000614887,-0.000383750,-0.010004411,0.102896601,-0.061375216,0.015193081,1,0.007689644,0.001967758,0.000098369,1,-0.505529106,0.311776221,9.788647652,1,0
1779390367612,414385.612000000,0.061036337,-0.038738120,-0.986150026,0.000626958,-0.000393731,-0.009874254,0.092805587,-0.068059437,0.117805123,1,-0.002326054,0.002872542,-0.000005780,1,-0.505845964,0.311759263,9.788631439,1,0
1779390367632,414385.632000000,0.035106331,-0.026029035,-0.995238006,0.000356225,-0.000244670,-0.009940206,-0.161620349,0.055020913,0.028724281,1,-0.001752205,-0.001903314,0.000186559,1,-0.505840361,0.310218811,9.788681030,1,0
1779390367642,414385.642000000,0.042178512,-0.030456001,-1.001739383,0.000398357,-0.000291893,-0.010034430,-0.092083126,0.011829201,-0.035030168,1,0.006801449,-0.001262966,-0.000025759,1,-0.505674005,0.310712069,9.788673401,1,0
1779390367662,414385.662000000,0.067394793,-0.033040099,-0.987321198,0.000677303,-0.000346603,-0.009902567,0.154992327,-0.012904716,0.106334664,1,-0.003537759,0.003263030,-0.001890282,1,-0.506028414,0.310994714,9.788646698,1,0
1779390367672,414385.672000000,0.056644950,-0.025086930,-0.984491527,0.000579282,-0.000279126,-0.009843562,0.049366754,0.064333990,0.134097233,1,-0.010505723,0.000197939,-0.001171442,1,-0.506137788,0.310023546,9.788671494,1,0
1779390367692,414385.692000000,0.045269825,-0.030178521,-1.000578046,0.000434693,-0.000295365,-0.010006721,-0.061618060,0.015176821,-0.023652883,1,0.013165792,-0.002105661,0.000534509,1,-0.505497277,0.311538100,9.788657188,1,0
1779390367702,414385.702000000,0.057474989,-0.045921285,-1.001142263,0.000563413,-0.000429970,-0.010009987,0.058155749,-0.137968451,-0.029221147,1,0.008829635,0.000401348,0.000206668,1,-0.505493701,0.312640995,9.788621902,1,0
1779390367722,414385.722000000,0.045521341,-0.026659194,-0.986957967,0.000495103,-0.000265146,-0.009883060,-0.059431858,0.049850505,0.109894782,1,-0.012007779,0.002786903,-0.001334544,1,-0.505931914,0.310911626,9.788654327,1,0
1779390367732,414385.732000000,0.039462235,-0.022957282,-0.994035959,0.000419415,-0.000230160,-0.009928896,-0.118870176,0.085433640,0.040505432,1,-0.002252494,-0.003602813,-0.000860261,1,-0.505751133,0.310496122,9.788676262,1,0
1779390367742,414385.742000000,0.045907587,-0.030527724,-1.006975889,0.000450024,-0.000281580,-0.010060863,-0.055299677,0.011695999,-0.086389497,1,0.010086086,-0.003010918,0.000483912,1,-0.505405068,0.311385751,9.788666725,1,0
1779390367762,414385.762000000,0.061065294,-0.037348080,-0.985465705,0.000628292,-0.000397391,-0.009877805,0.093118958,-0.054183956,0.124509946,1,-0.006809983,0.003158616,-0.000595079,1,-0.505826056,0.311862499,9.788629532,1,0
1779390367772,414385.772000000,0.048934821,-0.023884075,-0.980973661,0.000509756,-0.000256352,-0.009810354,-0.026104731,0.076700389,0.168584704,1,-0.013109303,0.002561991,-0.000234223,1,-0.506071508,0.310514331,9.788660049,1,0
1779390367792,414385.792000000,0.045183107,-0.033871084,-1.005907059,0.000427512,-0.000325954,-0.010053605,-0.062701918,-0.022108138,-0.075890757,1,0.003670841,-0.001034496,0.000923210,1,-0.505763710,0.310169637,9.788686752,1,0
1779390367802,414385.802000000,0.057736568,-0.040611792,-1.005324244,0.000553384,-0.000409350,-0.010074838,0.060219668,-0.088096924,-0.070187546,1,-0.003217834,0.003987602,-0.000396120,1,-0.506107330,0.310067832,9.788671494,1,0
1779390367822,414385.822000000,0.048651494,-0.022652633,-0.989677370,0.000475818,-0.000244359,-0.009881034,-0.029674636,0.085430339,0.083295427,1,-0.017070623,0.003693213,-0.000297345,1,-0.506832957,0.307129443,9.788726807,1,0
1779390367832,414385.832000000,0.041916970,-0.020874990,-0.995133817,0.000401817,-0.000199696,-0.009934453,-0.095778845,0.101767406,0.029816886,1,-0.006567168,-0.000102286,0.000930641,1,-0.506835580,0.306283563,9.788753510,1,0
1779390367852,414385.852000000,0.060525957,-0.038199790,-0.998422563,0.000590866,-0.000372730,-0.009997224,0.086604968,-0.067907907,-0.002447353,1,-0.000093219,0.002955591,0.000457604,1,-0.507043600,0.306701958,9.788729668,1,0
1779390367862,414385.862000000,0.058657944,-0.034554332,-0.986948729,0.000601263,-0.000357633,-0.009875248,0.067966953,-0.032640416,0.110071056,1,-0.009181102,0.003625070,-0.000195158,1,-0.507384121,0.305935472,9.788735390,1,0
1779390367882,414385.882000000,0.042376485,-0.023230409,-1.002129912,0.000419409,-0.000243128,-0.009996611,-0.091947876,0.076462202,-0.038757462,1,-0.005514087,-0.001532542,-0.000224379,1,-0.507471740,0.304102540,9.788788795,1,0
1779390367892,414385.892000000,0.049424876,-0.033712201,-1.016009331,0.000468857,-0.000303954,-0.010130743,-0.022705495,-0.026241217,-0.174864173,1,0.004603297,-0.001483295,0.000684325,1,-0.507351100,0.304507107,9.788782120,1,0
1779390367902,414385.902000000,0.057540432,-0.036358748,-1.012309194,0.000571246,-0.000365788,-0.010131472,0.056946017,-0.051855844,-0.138585329,1,0.001333446,0.001581739,0.000532507,1,-0.507381678,0.304744095,9.788773537,1,0
1779390367922,414385.922000000,0.043360397,-0.031620704,-1.010508657,0.000441340,-0.000308696,-0.010053908,-0.083143979,-0.008117298,-0.120897807,1,-0.027584197,0.009760013,0.001150663,1,-0.508667231,0.301118284,9.788818359,1,0
1779390367932,414385.932000000,0.039200258,-0.025514865,-1.006211638,0.000395820,-0.000218260,-0.010035138,-0.124582417,0.049286000,-0.078715101,1,-0.017845636,0.007143172,0.002039602,1,-0.509226322,0.298948616,9.788856506,1,0
1779390367952,414385.952000000,0.055809248,-0.016378865,-1.007664561,0.000578581,-0.000204654,-0.010133112,0.037303362,0.137427866,-0.092970580,1,0.009157873,0.007799156,0.002766770,1,-0.510238886,0.298339516,9.788822174,1,0
1779390367962,414385.962000000,0.055028152,-0.037583888,-1.041205525,0.000435867,-0.000226196,-0.010383959,0.026177507,-0.066016756,-0.422215968,1,0.069456398,0.053589676,-0.006892682,1,-0.515140712,0.304708123,9.788369179,1,0
1779390367982,414385.982000000,0.037054740,-0.017310556,-0.990613222,0.000401917,-0.000199750,-0.009885853,-0.154371485,0.139233291,0.073499314,1,0.026036501,0.003951810,0.000734649,1,-0.517876804,0.309804291,9.788064957,1,0
1779390367992,414385.992000000,0.056865696,-0.031891610,-0.972324133,0.000499828,-0.000220381,-0.009714534,0.037709456,0.002225142,0.252546698,1,0.086196654,0.037655156,-0.003873818,1,-0.521129608,0.317654103,9.787640572,1,0
1779390368012,414386.012000000,0.058353495,-0.044909403,-0.954130054,0.000590157,-0.000420601,-0.009463671,0.049092278,-0.113469429,0.430406153,1,0.030552978,-0.001019803,-0.002128825,1,-0.523130476,0.327889681,9.787196159,1,0
1779390368022,414386.022000000,0.054690212,-0.042909466,-0.972897291,0.000534873,-0.000452783,-0.009720503,0.013374517,-0.093075618,0.246347308,1,-0.004770639,-0.000276456,-0.000031143,1,-0.522876024,0.327295333,9.787229538,1,0
1779390368032,414386.032000000,0.051240623,-0.035071481,-0.990643561,0.000517817,-0.000343758,-0.009871408,-0.020404803,-0.017666748,0.072367296,1,-0.016247803,-0.001129173,0.000518776,1,-0.522863507,0.325743586,9.787281990,1,0
1779390368042,414386.042000000,0.048428442,-0.031618606,-1.007411480,0.000484858,-0.000321063,-0.010062140,-0.047757223,0.014762444,-0.092010424,1,-0.009523572,-0.002928222,-0.000766392,1,-0.522587359,0.324535936,9.787337303,1,0
1779390368052,414386.052000000,0.064006567,-0.018298693,-1.007842422,0.000634006,-0.000134375,-0.010055104,0.105691850,0.146247104,-0.096228614,1,0.026813347,-0.007145899,-0.000039569,1,-0.521775603,0.326531172,9.787313461,1,0
1779390368062,414386.062000000,0.050862100,-0.027649466,-0.998386919,0.000581870,-0.000302050,-0.010047994,-0.022566944,0.057833627,-0.003577549,1,0.035761569,-0.004550292,0.000838722,1,-0.521211147,0.330097765,9.787223816,1,0
1779390368082,414386.082000000,0.064146094,-0.040942006,-0.951371968,0.000641005,-0.000415789,-0.009547214,0.105195582,-0.065069623,0.457094073,1,0.017215343,-0.006139549,-0.001032378,1,-0.523672640,0.336968899,9.786858559,1,0
1779390368092,414386.092000000,0.048234154,-0.037153348,-0.972174883,0.000508424,-0.000391785,-0.009663217,-0.048266821,-0.027205102,0.253200501,1,0.004253224,-0.036804516,-0.005315040,1,-0.520141423,0.337268502,9.787036896,1,0
1779390368112,414386.112000000,0.055589609,-0.031507153,-1.011700273,0.000601297,-0.000334945,-0.010136411,0.028085442,0.029031552,-0.134216294,1,-0.003651666,-0.006864107,-0.000684876,1,-0.516849339,0.337896287,9.787189484,1,0
1779390368122,414386.122000000,0.040011998,-0.029537650,-0.980472684,0.000400616,-0.000292506,-0.009859915,-0.124850027,0.048080798,0.172021270,1,0.000213021,0.007272915,0.001837353,1,-0.517458320,0.337755859,9.787161827,1,0
1779390368142,414386.142000000,0.053284802,-0.032778811,-1.013269186,0.000510381,-0.000327640,-0.010113860,0.005899232,0.016315758,-0.149572641,1,0.003265318,-0.003543359,-0.000508228,1,-0.516536355,0.337866962,9.787206650,1,0
1779390368152,414386.152000000,0.062473889,-0.041105352,-1.000759006,0.000615507,-0.000405946,-0.010064071,0.095587663,-0.064953521,-0.026925597,1,0.001283005,0.007586619,0.000279047,1,-0.517307997,0.338192731,9.787155151,1,0
1779390368172,414386.172000000,0.046158388,-0.021998065,-0.993706226,0.000449589,-0.000226741,-0.009925439,-0.064835399,0.121137284,0.042260960,1,-0.001194657,-0.000618638,-0.000087823,1,-0.517475367,0.336827248,9.787193298,1,0
1779390368182,414386.182000000,0.046394993,-0.028254705,-0.998391986,0.000460222,-0.000261845,-0.009978341,-0.062371630,0.060757160,-0.003716828,1,0.017940948,-0.002980164,0.001256578,1,-0.517256916,0.338402152,9.787150383,1,0
1779390368192,414386.192000000,0.049855985,-0.042542789,-1.007499695,0.000482968,-0.000405080,-0.010059753,-0.027904876,-0.077257067,-0.093077831,1,0.020766539,-0.005900748,0.000109994,1,-0.516641200,0.340592355,9.787106514,1,0
1779390368212,414386.212000000,0.058333531,-0.037767142,-0.988539934,0.000593194,-0.000397154,-0.009904964,0.054896779,-0.029870749,0.092817187,1,-0.014710803,0.007035032,-0.000934031,1,-0.517379940,0.340038598,9.787087440,1,0
1779390368222,414386.222000000,0.053119659,-0.025376633,-0.980395496,0.000536082,-0.000259173,-0.009794693,0.003146490,0.090036318,0.172709569,1,-0.014938874,0.004663887,-0.000245877,1,-0.517923355,0.338592529,9.787108421,1,0
1779390368242,414386.242000000,0.053181432,-0.039044570,-1.003332257,0.000540705,-0.000368557,-0.010012258,0.003964905,-0.043236963,-0.052237667,1,0.015699646,-0.004715312,0.000282197,1,-0.517419636,0.340149760,9.787081718,1,0
1779390368252,414386.252000000,0.050992142,-0.046002682,-1.006030917,0.000523232,-0.000458137,-0.010064995,-0.017262921,-0.110402137,-0.078728162,1,0.004502774,0.000365023,-0.000249029,1,-0.517336667,0.340869993,9.787060738,1,0
1779390368272,414386.272000000,0.047920741,-0.025889108,-0.988237441,0.000482662,-0.000272030,-0.009886448,-0.048404817,0.084794991,0.095783941,1,-0.011914235,0.005210813,0.000498196,1,-0.518508613,0.338310093,9.787087440,1,0
1779390368282,414386.282000000,0.054005768,-0.027781675,-0.990262747,0.000522309,-0.000265983,-0.009900612,0.011088356,0.065916210,0.075924091,1,0.004660754,-0.000862813,0.001358331,1,-0.518499017,0.338508815,9.787080765,1,0
1779390368302,414386.302000000,0.062534958,-0.043162167,-0.994263589,0.000622790,-0.000433602,-0.009971031,0.094911933,-0.083059147,0.036634043,1,0.002649551,0.004519964,0.000838061,1,-0.518486440,0.340301067,9.787019730,1,0
1779390368312,414386.312000000,0.057125136,-0.036421414,-0.983247221,0.000581516,-0.000391807,-0.009846684,0.041239824,-0.017674305,0.144660369,1,-0.014531426,0.006229245,0.000244781,1,-0.519160211,0.339045525,9.787027359,1,0
1779390368332,414386.332000000,0.048935741,-0.028244784,-0.993356705,0.000473352,-0.000263789,-0.009914643,-0.039656747,0.060895227,0.045544393,1,0.005346972,-0.001963234,0.001249878,1,-0.519489944,0.338050634,9.787044525,1,0
1779390368342,414386.342000000,0.052674700,-0.036849201,-1.005823612,0.000522652,-0.000361418,-0.010054918,-0.002501726,-0.022467859,-0.076722845,1,0.012950036,-0.005841807,-0.000244216,1,-0.518882394,0.339302421,9.787033081,1,0
1779390368352,414386.352000000,0.052970298,-0.043874811,-1.003717184,0.000527750,-0.000443257,-0.010063312,0.000707800,-0.090492688,-0.056080841,1,0.002862874,0.000121744,-0.000618969,1,-0.518757880,0.339860439,9.787020683,1,0
1779390368372,414386.372000000,0.047743436,-0.024816403,-0.989506602,0.000477953,-0.000255417,-0.009888249,-0.051217582,0.094504602,0.083308093,1,-0.008812451,0.003103811,0.000609544,1,-0.519516826,0.337596864,9.787058830,1,0
1779390368382,414386.382000000,0.050527744,-0.031312279,-0.994269431,0.000503695,-0.000287184,-0.009923742,-0.023938922,0.030921701,0.036595900,1,0.009129486,-0.002012104,0.000415871,1,-0.519383729,0.338275373,9.787042618,1,0
1779390368392,414386.392000000,0.054772697,-0.040638454,-1.001185656,0.000548900,-0.000391096,-0.010001500,0.018092718,-0.059198011,-0.031254347,1,0.014933470,-0.004665968,-0.000877160,1,-0.518899560,0.339792877,9.787014961,1,0
1779390368402,414386.402000000,0.056444839,-0.046043273,-1.000876069,0.000570719,-0.000457978,-0.010013138,0.034638315,-0.111305527,-0.028241724,1,0.002266686,0.001834634,-0.000916340,1,-0.518954635,0.340293854,9.786994934,1,0
1779390368412,414386.412000000,0.051194120,-0.038017347,-0.988991141,0.000534108,-0.000390794,-0.009897726,-0.017388735,-0.033457585,0.088311642,1,-0.015381000,0.007043669,-0.000391507,1,-0.519651473,0.338885456,9.787007332,1,0
1779390368432,414386.432000000,0.049119566,-0.028824797,-0.991677582,0.000482442,-0.000273558,-0.009897235,-0.038658667,0.054717869,0.061985370,1,0.004531757,-0.001883830,0.000060743,1,-0.520303190,0.337535232,9.787018776,1,0
1779390368442,414386.442000000,0.054901458,-0.038418427,-0.998567283,0.000548766,-0.000371362,-0.009985263,0.018496674,-0.038307011,-0.005591575,1,0.014385697,-0.005421225,-0.000384423,1,-0.519734621,0.338896692,9.787001610,1,0
1779390368462,414386.462000000,0.054764893,-0.035701208,-0.986025572,0.000549465,-0.000380191,-0.009878474,0.017159712,-0.011744239,0.117403284,1,-0.016894257,0.004858366,-0.000323890,1,-0.520052135,0.337838173,9.787021637,1,0
1779390368472,414386.472000000,0.051250655,-0.025898328,-0.985126436,0.000510775,-0.000272540,-0.009849623,-0.017786235,0.082483456,0.126260430,1,-0.018186634,0.003334396,0.000885071,1,-0.520486414,0.335894197,9.787065506,1,0
1779390368482,414386.482000000,0.052940551,-0.025483847,-0.990502000,0.000517318,-0.000249290,-0.009902082,-0.001202294,0.085445546,0.073583066,1,-0.003652285,-0.003090359,0.001702559,1,-0.520273745,0.335245788,9.787098885,1,0
1779390368502,414386.502000000,0.058467999,-0.039426114,-0.998196065,0.000585060,-0.000398053,-0.009982615,0.053869210,-0.050499961,-0.001850619,1,0.000436536,-0.000955216,0.000489674,1,-0.519475758,0.336152583,9.787110329,1,0
1779390368512,414386.512000000,0.053954620,-0.031798396,-0.993376195,0.000545102,-0.000339949,-0.009949979,0.009434447,0.023479626,0.045435015,1,-0.014110410,0.003847469,0.000413140,1,-0.519799113,0.334876508,9.787137032,1,0
1779390368532,414386.532000000,0.046633121,-0.027363820,-1.001186371,0.000453830,-0.000258896,-0.009982890,-0.062598474,0.065770850,-0.031127298,1,0.006861208,-0.003605266,0.000614469,1,-0.519800246,0.334333032,9.787155151,1,0
1779390368542,414386.542000000,0.052448232,-0.036164671,-1.006200910,0.000514446,-0.000339482,-0.010053808,-0.005072454,-0.019268762,-0.080320902,1,0.016051268,-0.004554066,0.000509691,1,-0.519271493,0.335886419,9.787130356,1,0
1779390368562,414386.562000000,0.051067866,-0.032838598,-0.992179036,0.000522542,-0.000346704,-0.009929775,-0.018742789,0.014089594,0.057154395,1,-0.011295386,0.004875501,-0.000513166,1,-0.519699931,0.335773498,9.787111282,1,0
1779390368572,414386.572000000,0.050993551,-0.023497315,-0.989762187,0.000511917,-0.000236409,-0.009884945,-0.019925145,0.104617223,0.080868721,1,-0.007497541,0.003877159,0.000312056,1,-0.520121515,0.334814131,9.787121773,1,0
1779390368592,414386.592000000,0.057296190,-0.037288167,-1.000355124,0.000575604,-0.000357796,-0.010000037,0.042366128,-0.028783463,-0.023050465,1,0.018716639,-0.006032559,-0.000968564,1,-0.519330680,0.337470055,9.787073135,1,0
1779390368602,414386.602000000,0.057380576,-0.041425608,-0.997755051,0.000583331,-0.000419789,-0.009987605,0.043514956,-0.067964286,0.002416675,1,0.006861102,-0.001042584,-0.001218654,1,-0.519165158,0.338493884,9.787046432,1,0
1779390368622,414386.622000000,0.045727655,-0.026556365,-0.988548994,0.000457674,-0.000276473,-0.009886863,-0.071207955,0.076539256,0.092718601,1,-0.005563891,0.000807607,0.000352244,1,-0.519698024,0.336626649,9.787082672,1,0
1779390368632,414386.632000000,0.047827199,-0.031014320,-0.996758938,0.000464684,-0.000293520,-0.009952668,-0.050402310,0.032923706,0.012215277,1,0.009895055,-0.005204300,0.000311439,1,-0.519266427,0.337368101,9.787079811,1,0
1779390368642,414386.642000000,0.054387003,-0.041238159,-1.002756238,0.000531664,-0.000404429,-0.010031651,0.014559401,-0.065934747,-0.046612691,1,0.015235727,-0.006374894,-0.000394964,1,-0.518596888,0.338946760,9.787060738,1,0
1779390368662,414386.662000000,0.057166573,-0.034759033,-0.984802127,0.000577650,-0.000366413,-0.009875552,0.041656572,-0.002097450,0.129437044,1,-0.011723010,0.006340938,-0.000554954,1,-0.519154191,0.338406116,9.787050247,1,0
1779390368672,414386.672000000,0.051096492,-0.027298611,-0.975224435,0.000517325,-0.000281894,-0.009759430,-0.018346328,0.070056602,0.223371983,1,-0.006370710,0.001939006,-0.000996970,1,-0.519493282,0.337564409,9.787060738,1,0
1779390368692,414386.692000000,0.058649279,-0.034708273,-1.008529782,0.000598028,-0.000347364,-0.010073763,0.057478227,-0.002179493,-0.103162766,1,0.009902257,-0.014342105,-0.000948934,1,-0.517228961,0.338499337,9.787148476,1,0
1779390368702,414386.702000000,0.051627625,-0.039966725,-1.000259042,0.000527528,-0.000375947,-0.010039617,-0.010626964,-0.052428283,-0.022061827,1,0.013046925,-0.000643132,0.000976286,1,-0.516899943,0.339919508,9.787117004,1,0
1779390368722,414386.722000000,0.039643727,-0.031237263,-0.990306973,0.000406334,-0.000327134,-0.009857755,-0.128337041,0.032581598,0.075546369,1,-0.009331713,-0.004958658,0.000602312,1,-0.516954124,0.338624805,9.787158966,1,0
1779390368732,414386.732000000,0.046981774,-0.030780829,-1.004839182,0.000445783,-0.000282599,-0.010021914,-0.056146301,0.036783557,-0.066944681,1,0.003086054,0.000293195,0.000067793,1,-0.516889215,0.338736653,9.787158012,1,0
1779390368752,414386.752000000,0.058094043,-0.040355586,-1.001922011,0.000598120,-0.000413030,-0.010019245,0.053124513,-0.056676291,-0.038336422,1,-0.005729457,0.000231128,-0.001000203,1,-0.516591728,0.338896722,9.787168503,1,0
1779390368762,414386.762000000,0.056214016,-0.029374918,-0.989695489,0.000571510,-0.000306666,-0.009914162,0.034230471,0.050131869,0.081570901,1,-0.010352614,0.006367420,-0.000056815,1,-0.517239153,0.337878823,9.787169456,1,0
1779390368772,414386.772000000,0.047213964,-0.022995226,-0.984247327,0.000493958,-0.000229414,-0.009831395,-0.054393511,0.111989520,0.135004237,1,-0.001966541,0.001090938,0.000989688,1,-0.517437279,0.337436050,9.787174225,1,0
1779390368792,414386.792000000,0.052408762,-0.044791434,-1.002059817,0.000529495,-0.000430638,-0.010004124,-0.002877795,-0.099847101,-0.039712239,1,0.011633283,-0.007278868,0.000528170,1,-0.516604841,0.339770108,9.787137032,1,0
1779390368802,414386.802000000,0.051874358,-0.044450909,-1.001186252,0.000505415,-0.000468537,-0.010047061,-0.007858108,-0.096130721,-0.031144544,1,-0.002464480,0.002574052,-0.000756322,1,-0.516652822,0.339705795,9.787137032,1,0
1779390368822,414386.822000000,0.048958283,-0.022062605,-0.988930583,0.000487591,-0.000232434,-0.009875304,-0.037132308,0.121270135,0.089080021,1,-0.008169621,0.000427412,-0.000694001,1,-0.517165661,0.337489516,9.787186623,1,0
1779390368832,414386.832000000,0.054011423,-0.027832655,-1.001975060,0.000517361,-0.000251920,-0.010013083,0.012556924,0.065095574,-0.038849074,1,0.012178488,-0.000989354,0.000402676,1,-0.517076612,0.338428229,9.787158966,1,0
1779390368852,414386.852000000,0.058949057,-0.046729065,-0.997623146,0.000588981,-0.000481912,-0.009999700,0.061247233,-0.117651552,0.003753338,1,0.000908965,0.001793221,-0.001934720,1,-0.516903520,0.340629250,9.787092209,1,0
1779390368862,414386.862000000,0.051891599,-0.033087194,-0.982171655,0.000531692,-0.000359642,-0.009835654,-0.008415570,0.015436452,0.155281588,1,-0.012119519,0.006079457,-0.001986322,1,-0.517489910,0.339530200,9.787098885,1,0
1779390368882,414386.882000000,0.052328609,-0.032059763,-0.988906145,0.000541662,-0.000295918,-0.009810734,-0.004894248,0.024654275,0.089228466,1,0.002640289,-0.010358494,0.000295075,1,-0.517739654,0.339135915,9.787099838,1,0
1779390368892,414386.892000000,0.045225061,-0.037067119,-1.012395144,0.000442411,-0.000354756,-0.010111420,-0.073584855,-0.023750369,-0.141093910,1,0.011320629,-0.002710186,-0.000787370,1,-0.517007649,0.340105295,9.787104607,1,0
1779390368912,414386.912000000,0.054222405,-0.033524178,-0.991155088,0.000582610,-0.000356406,-0.009879196,0.013574312,0.011002635,0.067143477,1,-0.014158724,0.000641238,-0.002079550,1,-0.518188119,0.339318007,9.787069321,1,0
1779390368922,414386.922000000,0.048638672,-0.020775514,-0.990215421,0.000477272,-0.000207041,-0.009910866,-0.041483268,0.134962022,0.076378889,1,-0.004687395,0.005541415,0.000477803,1,-0.518637836,0.338554978,9.787072182,1,0
1779390368932,414386.932000000,0.056805294,-0.029080195,-0.984469593,0.000569286,-0.000263200,-0.009836239,0.038425710,0.053846590,0.132706314,1,0.008705190,-0.003522797,0.001074995,1,-0.518533051,0.339298874,9.787052155,1,0
1779390368952,414386.952000000,0.055269852,-0.044578012,-0.993974268,0.000551594,-0.000451768,-0.009968383,0.024387509,-0.096689895,0.039500766,1,-0.000424528,0.002391732,0.000390629,1,-0.517698705,0.340458483,9.787055969,1,0
1779390368962,414386.962000000,0.049165264,-0.034232594,-0.983213365,0.000511607,-0.000372650,-0.009842516,-0.035832882,0.003719158,0.145046890,1,-0.017069770,0.002901399,-0.001729223,1,-0.518071711,0.338891625,9.787090302,1,0
1779390368982,414386.982000000,0.048101299,-0.027160561,-1.007173300,0.000458860,-0.000256180,-0.010060735,-0.046090286,0.071106590,-0.089842409,1,0.005155641,-0.003402419,0.000749062,1,-0.517696083,0.337622553,9.787154198,1,0
1779390368992,414386.992000000,0.057312239,-0.038564913,-1.013501406,0.000567273,-0.000373170,-0.010135136,0.044680577,-0.039643988,-0.151914328,1,0.013611343,-0.005110318,0.000784524,1,-0.517200470,0.338973999,9.787133217,1,0
1779390369012,414387.012000000,0.064813919,-0.035735540,-0.988802850,0.000621428,-0.000366275,-0.009976286,0.116184965,-0.008962646,0.090085045,1,0.013089143,0.019650547,-0.002328078,1,-0.520037115,0.341887236,9.786882401,1,0
1779390369022,414387.022000000,0.048522823,-0.025910093,-0.972726583,0.000518596,-0.000251656,-0.009668724,-0.044047933,0.087764539,0.247701168,1,0.001327928,-0.005940953,-0.000334806,1,-0.519703567,0.341767967,9.786903381,1,0
1779390369042,414387.042000000,0.058369458,-0.044389784,-0.995734572,0.000569295,-0.000428234,-0.009988660,0.053289875,-0.091302902,0.022034984,1,0.017392311,0.001903426,-0.000455290,1,-0.519178808,0.344552726,9.786833763,1,0
1779390369052,414387.052000000,0.052133977,-0.048580628,-0.995825946,0.000534178,-0.000502747,-0.009934462,-0.007718713,-0.131741285,0.021123769,1,-0.004999024,-0.002010968,-0.001283442,1,-0.518917203,0.344514072,9.786849022,1,0
1779390369062,414387.062000000,0.052531831,-0.033349738,-0.996831894,0.000511346,-0.000345062,-0.009952999,-0.003967240,0.016355440,0.011294903,1,-0.015987264,0.006335825,-0.001591525,1,-0.519327641,0.342903972,9.786884308,1,0
1779390369082,414387.082000000,0.050585497,-0.027703075,-0.996437430,0.000515758,-0.000248630,-0.009909288,-0.023475187,0.069818407,0.015208248,1,0.004553515,-0.004818687,0.000467389,1,-0.519398868,0.341635406,9.786924362,1,0
1779390369092,414387.092000000,0.057815645,-0.036294043,-1.001289487,0.000571770,-0.000334319,-0.010017179,0.048011195,-0.013285367,-0.032383759,1,0.015794558,-0.003169713,0.000143830,1,-0.518867731,0.343129933,9.786900520,1,0
1779390369112,414387.112000000,0.053076949,-0.040265847,-0.983183682,0.000550070,-0.000424256,-0.009841046,0.001507445,-0.051614333,0.145150319,1,-0.012479691,0.004085667,-0.001770021,1,-0.519128859,0.342867076,9.786895752,1,0
1779390369122,414387.122000000,0.049009327,-0.027598366,-0.979522347,0.000487168,-0.000290543,-0.009795361,-0.038938642,0.070914887,0.181085899,1,-0.017340880,0.005100775,-0.000878706,1,-0.519715846,0.341020763,9.786929131,1,0
1779390369142,414387.142000000,0.055159558,-0.037973240,-1.007249713,0.000539253,-0.000365123,-0.010070015,0.021425959,-0.031818058,-0.090790048,1,0.005623002,-0.002975065,-0.000809681,1,-0.519412756,0.340746075,9.786954880,1,0
1779390369152,414387.152000000,0.054569643,-0.041755218,-1.004402041,0.000545852,-0.000432363,-0.010077178,0.015785655,-0.068625830,-0.062864870,1,-0.001628970,0.000196638,-0.000472329,1,-0.519366384,0.340801448,9.786955833,1,0
1779390369172,414387.172000000,0.046749961,-0.021470726,-0.985725105,0.000458366,-0.000219075,-0.009861779,-0.061292332,0.128553703,0.120331876,1,-0.006698434,0.001389132,0.000585199,1,-0.519795477,0.338901907,9.786998749,1,0
1779390369182,414387.182000000,0.047505580,-0.027147923,-0.997374117,0.000461737,-0.000256210,-0.009950734,-0.053749975,0.073074207,0.006094893,1,0.008492399,-0.003516460,0.001309351,1,-0.519509673,0.339571148,9.786990166,1,0
1779390369202,414387.202000000,0.057281293,-0.045746624,-1.003903389,0.000570689,-0.000463877,-0.010052210,0.042678341,-0.106990725,-0.057986565,1,0.002168143,0.001688767,-0.001037787,1,-0.519113004,0.341696262,9.786937714,1,0
1779390369212,414387.212000000,0.053866908,-0.032496072,-0.990692377,0.000550220,-0.000352878,-0.009914337,0.008858378,0.022179257,0.071578197,1,-0.014626389,0.004766460,-0.001272651,1,-0.519545436,0.340399146,9.786959648,1,0
1779390369222,414387.222000000,0.046692662,-0.019841693,-0.982978225,0.000473888,-0.000200862,-0.009825754,-0.061916143,0.144951493,0.147252157,1,-0.008929263,0.003190777,-0.000371822,1,-0.519919634,0.339276433,9.786978722,1,0
1779390369242,414387.242000000,0.049730916,-0.040351268,-1.003799081,0.000493152,-0.000372387,-0.010013172,-0.031343918,-0.054434568,-0.056950435,1,0.018525897,-0.007408783,0.000651230,1,-0.518806159,0.341854513,9.786948204,1,0
1779390369252,414387.252000000,0.051488489,-0.048621025,-1.002609015,0.000527460,-0.000483999,-0.010040659,-0.013596017,-0.134111777,-0.045301843,1,0.009558399,-0.002708793,-0.000703408,1,-0.518442035,0.342994243,9.786928177,1,0
1779390369272,414387.272000000,0.048554413,-0.024422240,-0.985552132,0.000492773,-0.000250347,-0.009847648,-0.042796254,0.102106996,0.121983349,1,-0.008671729,0.002215115,-0.001842750,1,-0.519023478,0.341334164,9.786954880,1,0
1779390369282,414387.282000000,0.054211888,-0.025893521,-0.993054628,0.000530482,-0.000247052,-0.009911312,0.012691536,0.087659910,0.048410118,1,0.007625899,-0.001908730,-0.000413002,1,-0.518886507,0.341825515,9.786945343,1,0
1779390369302,414387.302000000,0.063462429,-0.047170710,-0.997746229,0.000636965,-0.000475731,-0.010001059,0.103558309,-0.118385263,0.002318330,1,0.007367819,0.003104277,-0.001325893,1,-0.518893778,0.344428748,9.786853790,1,0
1779390369312,414387.312000000,0.057226002,-0.036574196,-0.984792113,0.000582806,-0.000399537,-0.009869443,0.041791253,-0.014565850,0.129325628,1,-0.006804834,0.007708758,-0.001694531,1,-0.519646168,0.343889743,9.786832809,1,0
1779390369332,414387.332000000,0.047311049,-0.029111646,-0.991806030,0.000458655,-0.000275170,-0.009895342,-0.056177199,0.058263130,0.060516492,1,0.011008089,-0.002601698,-0.000174355,1,-0.520059288,0.344093531,9.786803246,1,0
1779390369342,414387.342000000,0.054529656,-0.042756263,-1.007051349,0.000527878,-0.000407440,-0.010060669,0.015074679,-0.073919564,-0.089022242,1,0.018274290,-0.004688541,-0.000487646,1,-0.519533098,0.345944643,9.786766052,1,0
1779390369352,414387.352000000,0.060161851,-0.049579270,-1.005078793,0.000593154,-0.000506003,-0.010073271,0.070481621,-0.139614046,-0.069712833,1,0.004432973,0.000759316,-0.001207693,1,-0.519529641,0.346728653,9.786738396,1,0
1779390369372,414387.372000000,0.058178321,-0.023753574,-0.979366243,0.000582892,-0.000246843,-0.009790819,0.050131455,0.111600369,0.182466745,1,-0.012273462,0.003815597,-0.000486476,1,-0.520522356,0.344160229,9.786776543,1,0
1779390369382,414387.382000000,0.055568766,-0.026511205,-0.986604333,0.000555404,-0.000241354,-0.009832093,0.024599893,0.084193200,0.111500792,1,0.002863819,-0.003672053,0.000763263,1,-0.520228326,0.344269812,9.786787987,1,0
1779390369402,414387.402000000,0.054915763,-0.048646037,-1.003054500,0.000569027,-0.000484576,-0.010028753,0.019309094,-0.131178260,-0.049820241,1,0.001446751,-0.003003579,0.000202063,1,-0.519136786,0.345921844,9.786787987,1,0
1779390369412,414387.412000000,0.044752937,-0.039089102,-0.994056106,0.000466819,-0.000408238,-0.009943028,-0.080324993,-0.038230859,0.038453229,1,-0.013959713,0.001010400,-0.000598425,1,-0.519233525,0.344666421,9.786827087,1,0
1779390369432,414387.432000000,0.043792658,-0.027397539,-0.999904573,0.000431322,-0.000244649,-0.009972058,-0.089689597,0.074755713,-0.018840088,1,0.006281825,-0.005346414,0.001593832,1,-0.518991411,0.343634009,9.786876678,1,0
1779390369442,414387.442000000,0.053410918,-0.040624078,-1.008698702,0.000526036,-0.000390922,-0.010089101,0.005304325,-0.053830225,-0.105085842,1,0.014240173,-0.006690724,0.001491731,1,-0.518268526,0.345002145,9.786866188,1,0
1779390369462,414387.462000000,0.055484667,-0.037487719,-0.983636379,0.000568926,-0.000399547,-0.009865839,0.025676442,-0.022238871,0.140664920,1,-0.008982664,0.004418300,-0.000071219,1,-0.518580019,0.345110208,9.786846161,1,0
1779390369472,414387.472000000,0.049120791,-0.024652410,-0.978083253,0.000495333,-0.000258672,-0.009781245,-0.037184905,0.102527909,0.195137650,1,-0.009602497,0.003760986,-0.001366379,1,-0.519014001,0.343984067,9.786862373,1,0
1779390369502,414387.502000000,0.052915212,-0.046144914,-1.007904887,0.000521348,-0.000473972,-0.010099114,0.000351859,-0.107630603,-0.097317055,1,-0.004362160,0.001241019,-0.001129695,1,-0.518609047,0.344758719,9.786856651,1,0
1779390369512,414387.512000000,0.052020039,-0.032914907,-0.996960521,0.000519314,-0.000359183,-0.009989883,-0.008749652,0.020958977,0.010034602,1,-0.015843146,0.004757684,-0.001899140,1,-0.519042313,0.343247294,9.786887169,1,0
1779390369532,414387.532000000,0.052194040,-0.022635033,-0.992964327,0.000504138,-0.000209287,-0.009901660,-0.007547167,0.120700210,0.049234919,1,0.011291761,-0.003147823,-0.000069043,1,-0.519297838,0.343025744,9.786881447,1,0
1779390369542,414387.542000000,0.058586963,-0.037339270,-1.004884839,0.000578722,-0.000343904,-0.010036184,0.055640865,-0.021710321,-0.067701921,1,0.020562408,-0.004088179,0.000678812,1,-0.518772900,0.345104545,9.786835670,1,0
1779390369562,414387.562000000,0.050659657,-0.037027512,-0.987256825,0.000517172,-0.000391934,-0.009875217,-0.022340056,-0.017646022,0.105120830,1,-0.011725616,0.005653708,-0.001181195,1,-0.519319057,0.345102638,9.786807060,1,0
1779390369572,414387.572000000,0.043130577,-0.024416994,-0.984390974,0.000443287,-0.000246468,-0.009828920,-0.096666269,0.104582481,0.133249685,1,-0.013014469,0.003623355,-0.000449689,1,-0.519746125,0.343625247,9.786836624,1,0
1779390369592,414387.592000000,0.052016180,-0.039598484,-1.009188414,0.000519801,-0.000371889,-0.010077814,-0.009198079,-0.043912292,-0.109925233,1,0.010551472,-0.003250373,-0.000301325,1,-0.519201636,0.344744414,9.786826134,1,0
1779390369602,414387.602000000,0.056595776,-0.043513261,-1.004222870,0.000571981,-0.000445474,-0.010065833,0.035809752,-0.081739105,-0.061246105,1,-0.000762252,0.001756015,-0.000126991,1,-0.519260108,0.344956249,9.786815643,1,0
1779390369622,414387.622000000,0.053756595,-0.019557230,-0.978733420,0.000544243,-0.000202162,-0.009785030,0.007152799,0.150977522,0.188755438,1,-0.007550833,0.003750228,0.000779185,1,-0.519848585,0.342393488,9.786873817,1,0
1779390369632,414387.632000000,0.054223962,-0.025873665,-0.985522389,0.000528108,-0.000235299,-0.009838209,0.011948321,0.088997178,0.122190751,1,0.009032078,-0.001947140,0.001525157,1,-0.519726157,0.343005866,9.786859512,1,0
1779390369642,414387.642000000,0.059159752,-0.042221449,-0.997249424,0.000583773,-0.000404562,-0.009969326,0.060710348,-0.070027962,0.007161511,1,0.012902968,-0.003541094,0.001258029,1,-0.519335747,0.344426483,9.786829948,1,0
1779390369662,414387.662000000,0.053973921,-0.035822153,-0.990880251,0.000535569,-0.000389874,-0.009929861,0.009656000,-0.007736268,0.069627695,1,-0.016587961,0.005563740,-0.000623623,1,-0.519821405,0.343041301,9.786852837,1,0
1779390369672,414387.672000000,0.051660731,-0.023601199,-0.988303840,0.000510090,-0.000241250,-0.009878118,-0.013560933,0.110513963,0.094920732,1,-0.012555648,0.003339498,-0.000140272,1,-0.520283878,0.341571301,9.786879539,1,0
1779390369692,414387.692000000,0.061042242,-0.040343933,-1.005395055,0.000595725,-0.000382456,-0.010057783,0.078597024,-0.053005852,-0.072701007,1,0.013685249,-0.001889192,0.001137465,1,-0.519962847,0.343061209,9.786845207,1,0
1779390369702,414387.702000000,0.064480439,-0.044984888,-0.991277456,0.000649124,-0.000459194,-0.009953909,0.112520613,-0.097395577,0.065716237,1,0.009154310,-0.003357298,0.000398176,1,-0.519711494,0.344041348,9.786824226,1,0
1779390369722,414387.722000000,0.053490572,-0.032737039,-0.983534694,0.000524514,-0.000302084,-0.009796457,0.004481018,0.022079535,0.141655102,1,-0.006513750,0.002016487,0.000594149,1,-0.520144522,0.342918307,9.786840439,1,0
1779390369732,414387.732000000,0.049403671,-0.034237072,-0.993153632,0.000489469,-0.000329734,-0.009883795,-0.035377439,0.007105473,0.047346842,1,0.002118360,-0.004527992,-0.000346053,1,-0.519721329,0.342921913,9.786862373,1,0
1779390369752,414387.752000000,0.052940603,-0.045174841,-1.004188299,0.000544238,-0.000458443,-0.010046333,0.000041805,-0.099646881,-0.060845282,1,-0.004521349,-0.000604457,-0.000894199,1,-0.519110322,0.343224645,9.786884308,1,0
1779390369762,414387.762000000,0.045016997,-0.033632170,-0.993503451,0.000466236,-0.000350347,-0.009938456,-0.077793524,0.012387453,0.043970510,1,-0.015395718,0.002122096,-0.000994893,1,-0.519326687,0.341725141,9.786925316,1,0
1779390369782,414387.782000000,0.044248398,-0.031066775,-0.996907234,0.000443691,-0.000288987,-0.009958674,-0.085247479,0.036376435,0.010636223,1,0.009741429,-0.005884437,0.000611481,1,-0.518992066,0.341341943,9.786956787,1,0
1779390369792,414387.792000000,0.052021652,-0.044889875,-1.001666427,0.000511839,-0.000432025,-0.010024673,-0.008380610,-0.097849801,-0.036047447,1,0.014302399,-0.005693779,0.000325163,1,-0.518361032,0.342815608,9.786938667,1,0
1779390369802,414387.802000000,0.057016976,-0.050535724,-0.998702407,0.000567266,-0.000511399,-0.009986684,0.040919803,-0.152354419,-0.006995026,1,-0.000015781,0.000568123,-0.001142470,1,-0.518244743,0.343229353,9.786930084,1,0
1779390369822,414387.822000000,0.050407186,-0.023596445,-0.981714785,0.000504946,-0.000263854,-0.009826292,-0.025082625,0.108611591,0.159646675,1,-0.019414574,0.005145244,-0.000841361,1,-0.519641876,0.339535236,9.786984444,1,0
1779390369832,414387.832000000,0.048519213,-0.027100209,-0.989501953,0.000477098,-0.000241340,-0.009880151,-0.043926116,0.073393598,0.083293043,1,-0.001283217,-0.000304952,0.000113242,1,-0.519732177,0.339124382,9.786993980,1,0
1779390369852,414387.852000000,0.055762272,-0.043624602,-1.007255673,0.000549686,-0.000472056,-0.010087344,0.027775235,-0.087252110,-0.090824366,1,-0.002105193,-0.001194737,-0.002110532,1,-0.519030988,0.340490133,9.786984444,1,0
1779390369862,414387.862000000,0.055138603,-0.036489073,-0.996954620,0.000537762,-0.000363707,-0.009970052,0.021075558,-0.018320160,0.010199557,1,-0.017363837,0.009266105,-0.001022419,1,-0.519939244,0.338972807,9.786988258,1,0
1779390369882,414387.882000000,0.059341129,-0.023944931,-0.999248326,0.000573107,-0.000229023,-0.009970898,0.061134130,0.102139823,-0.012267048,1,0.000499406,0.001142773,0.000344561,1,-0.520838857,0.336975515,9.787009239,1,0
1779390369892,414387.892000000,0.066214353,-0.031573482,-0.998321056,0.000640224,-0.000306999,-0.010001973,0.128531262,0.028288230,-0.003207553,1,0.015456554,-0.000196813,0.000096911,1,-0.520803511,0.338400006,9.786962509,1,0
1779390369912,414387.912000000,0.062993675,-0.030640289,-0.991965115,0.000618026,-0.000298540,-0.009885387,0.096370146,0.038262144,0.059063829,1,-0.007865564,0.008065927,0.000009049,1,-0.521638095,0.338495731,9.786914825,1,0
1779390369922,414387.922000000,0.055576921,-0.023619933,-0.982953429,0.000558578,-0.000243974,-0.009826228,0.022904254,0.106098607,0.147433743,1,-0.008460316,0.006253477,-0.000089387,1,-0.522314072,0.337467343,9.786913872,1,0
1779390369932,414387.932000000,0.059321418,-0.024456872,-0.999023974,0.000577578,-0.000237894,-0.009951008,0.059565060,0.097802453,-0.010163728,1,0.004848530,-0.002934013,-0.000063954,1,-0.522087991,0.337793410,9.786914825,1,0
1779390369952,414387.952000000,0.064916074,-0.038395382,-1.001984835,0.000650342,-0.000418171,-0.010049853,0.115287580,-0.036140535,-0.039248988,1,0.005232096,-0.000425373,-0.000697550,1,-0.521309137,0.340551436,9.786860466,1,0
1779390369962,414387.962000000,0.062686965,-0.031849943,-0.991119564,0.000619640,-0.000319371,-0.009906191,0.093200304,0.027719831,0.067301586,1,-0.008579281,0.002936696,-0.000178276,1,-0.521640539,0.339793563,9.786870003,1,0
1779390369982,414387.982000000,0.062289733,-0.028084772,-0.993237495,0.000601181,-0.000260443,-0.009928721,0.089534134,0.064584970,0.046545371,1,0.014862429,-0.005664404,0.001329309,1,-0.521141648,0.340467721,9.786872864,1,0
1779390369992,414387.992000000,0.070473611,-0.040485114,-0.998833060,0.000692836,-0.000399397,-0.010001041,0.170554549,-0.055304900,-0.008346623,1,0.018596627,-0.007752245,0.000120940,1,-0.520313919,0.342298001,9.786852837,1,0
1779390370012,414388.012000000,0.062578365,-0.033861708,-0.981072962,0.000619721,-0.000354699,-0.009807151,0.093044497,0.009861950,0.165808260,1,-0.013887625,0.004223667,-0.000394542,1,-0.520771682,0.341498613,9.786856651,1,0
1779390370022,414388.022000000,0.056412973,-0.023577714,-0.983545780,0.000554354,-0.000246780,-0.009818208,0.032052115,0.109411791,0.141575694,1,-0.005445896,-0.000708295,0.000432070,1,-0.521756589,0.340165704,9.786849976,1,0
1779390370042,414388.042000000,0.063926272,-0.049498659,-1.003449440,0.000624047,-0.000472470,-0.010028534,0.106050551,-0.142969638,-0.053658161,1,0.013230084,-0.004676418,0.000811357,1,-0.520708025,0.342858672,9.786812782,1,0
1779390370052,414388.052000000,0.063127697,-0.051346932,-0.994788706,0.000637313,-0.000523482,-0.009967184,0.098397210,-0.160712466,0.031269901,1,-0.005517545,0.001545285,0.000103317,1,-0.520722210,0.342657149,9.786818504,1,0
1779390370072,414388.072000000,0.059370659,-0.027793067,-0.986091077,0.000591315,-0.000269397,-0.009824435,0.060795050,0.067779869,0.116610855,1,-0.008086301,0.000834506,0.000174993,1,-0.521458089,0.340085149,9.786869049,1,0
1779390370082,414388.082000000,0.064221650,-0.034942899,-1.002022743,0.000640644,-0.000319705,-0.009989497,0.108582594,-0.002174769,-0.039619610,1,0.009092004,-0.003067878,0.000907097,1,-0.521120131,0.340782762,9.786863327,1,0
1779390370092,414388.092000000,0.067493245,-0.049174126,-1.005912066,0.000684161,-0.000471027,-0.010063384,0.140865326,-0.140718728,-0.077785306,1,0.007837493,0.000300216,0.000516902,1,-0.521026075,0.341759741,9.786833763,1,0
1779390370112,414388.112000000,0.058409262,-0.032677237,-0.984943032,0.000593754,-0.000349060,-0.009854347,0.050915014,0.019462842,0.127860427,1,-0.016010294,0.006710281,-0.000702040,1,-0.522094071,0.339417160,9.786858559,1,0
1779390370122,414388.122000000,0.059684634,-0.025325598,-0.988747358,0.000598026,-0.000249164,-0.009872616,0.063033320,0.090525240,0.090567857,1,-0.003815376,0.001123053,0.000558251,1,-0.522307456,0.338766605,9.786870003,1,0
1779390370142,414388.142000000,0.068558142,-0.048304457,-1.002332687,0.000677958,-0.000467615,-0.010037194,0.150360078,-0.133352265,-0.042693090,1,0.006660226,0.000553125,-0.000322280,1,-0.521983266,0.340559661,9.786824226,1,0
1779390370152,414388.152000000,0.065023564,-0.041922800,-0.992651224,0.000665645,-0.000454366,-0.009951285,0.115501307,-0.071150295,0.052252147,1,-0.012131574,0.003482982,-0.001689955,1,-0.522272408,0.339591235,9.786843300,1,0
1779390370172,414388.172000000,0.060233198,-0.019575989,-0.990493119,0.000591846,-0.000184826,-0.009884266,0.067848273,0.145212501,0.073475733,1,-0.004064450,-0.001077638,-0.000169665,1,-0.522804260,0.337060481,9.786902428,1,0
1779390370182,414388.182000000,0.065124802,-0.029918263,-1.005551815,0.000640422,-0.000282348,-0.010046649,0.116218977,0.044216145,-0.074192494,1,0.009630147,-0.004813587,0.000063673,1,-0.522287190,0.337914228,9.786900520,1,0
1779390370202,414388.202000000,0.063552573,-0.036167663,-0.986170769,0.000647812,-0.000384604,-0.009883584,0.100813240,-0.016341608,0.115846179,1,-0.009460917,0.003550950,-0.000775114,1,-0.522536159,0.338046014,9.786882401,1,0
1779390370212,414388.212000000,0.050906207,-0.025728963,-0.970188260,0.000522143,-0.000263273,-0.009715724,-0.023672834,0.084819816,0.272596925,1,-0.012950671,0.005560445,-0.000873806,1,-0.523066401,0.336729854,9.786899567,1,0
1779390370222,414388.222000000,0.048719015,-0.031868920,-0.967264056,0.000471774,-0.000295801,-0.009655770,-0.045986578,0.023601213,0.301262081,1,-0.011986691,0.005301689,-0.001277162,1,-0.524347544,0.335968614,9.786856651,1,0
1779390370242,414388.242000000,0.071259528,-0.047620304,-0.991521060,0.000711632,-0.000480078,-0.009910139,0.173238248,-0.136184648,0.063466191,1,-0.052657597,0.012116772,-0.004156063,1,-0.525962710,0.329164565,9.787001610,1,0
1779390370252,414388.252000000,0.066651247,-0.037814323,-0.977128208,0.000693238,-0.000405248,-0.009795825,0.126750097,-0.046830315,0.204769060,1,-0.081771411,0.012294916,-0.003196044,1,-0.527261913,0.321448773,9.787187576,1,0
1779390370272,414388.272000000,0.051164776,-0.016998680,-0.967262983,0.000579825,-0.000214591,-0.009661733,-0.024285557,0.136942521,0.302211463,1,-0.121013463,-0.024756839,0.006139226,1,-0.525263429,0.299882680,9.787980080,1,0
1779390370282,414388.282000000,0.054062624,-0.024491586,-1.025126100,0.000541761,-0.000279418,-0.010281065,0.005846660,0.053619064,-0.264839590,1,-0.086623169,-0.009996426,0.004709938,1,-0.524010777,0.291108459,9.788311958,1,0
1779390370302,414388.302000000,0.056131221,-0.020295430,-1.014102817,0.000588129,-0.000206650,-0.010157958,0.025653979,0.082938947,-0.156415224,1,-0.048629470,0.000310093,0.002812461,1,-0.524812460,0.280458659,9.788579941,1,0
1779390370312,414388.312000000,0.044535965,-0.017817190,-1.022462249,0.000460439,-0.000191685,-0.010202831,-0.088018164,0.103384808,-0.238280952,1,-0.031431399,0.000262913,0.002842833,1,-0.524772465,0.277137190,9.788677216,1,0
1779390370332,414388.332000000,0.059323005,-0.018626923,-1.008191228,0.000603659,-0.000195309,-0.010134861,0.057242829,0.095183045,-0.098309249,1,0.026982356,-0.006246199,0.002153038,1,-0.524320662,0.278695107,9.788657188,1,0
1779390370342,414388.342000000,0.069028340,-0.035612445,-0.993255913,0.000671391,-0.000318484,-0.009956207,0.152453259,-0.067926608,0.048059095,1,0.035209801,0.002431745,0.002937709,1,-0.524556696,0.282414168,9.788537979,1,0
1779390370362,414388.362000000,0.049943391,-0.030902099,-0.970296562,0.000498309,-0.000337355,-0.009684607,-0.035116419,-0.019717719,0.273133785,1,-0.010082373,0.000926752,0.000993773,1,-0.524921775,0.283015907,9.788500786,1,0
1779390370372,414388.372000000,0.053594884,-0.025342377,-0.989477694,0.000512399,-0.000246141,-0.009856645,0.000649636,0.033663936,0.085061550,1,-0.010330629,-0.000158686,0.000889242,1,-0.524930954,0.281867385,9.788533211,1,0
1779390370382,414388.382000000,0.059971586,-0.031567387,-1.009647012,0.000586408,-0.000305594,-0.010074107,0.063224681,-0.028029324,-0.112710968,1,-0.004046839,0.000570473,-0.000331467,1,-0.524913788,0.281414360,9.788547516,1,0
1779390370402,414388.402000000,0.059058994,-0.032808989,-0.987950385,0.000606040,-0.000344498,-0.009893560,0.053081647,-0.042571511,0.100063682,1,-0.026174366,0.007628883,-0.000917746,1,-0.526327789,0.278357714,9.788558960,1,0
1779390370412,414388.412000000,0.052313745,-0.021666704,-0.976787388,0.000525296,-0.000221970,-0.009758187,-0.013754845,0.063958555,0.209576741,1,-0.026745092,0.006451964,-0.000272164,1,-0.526978731,0.275602579,9.788601875,1,0
1779390370432,414388.432000000,0.063311741,-0.043621037,-0.985264719,0.000644412,-0.000440781,-0.009879680,0.092871360,-0.156495482,0.126520097,1,-0.039308470,-0.009419175,0.001941549,1,-0.527758241,0.270052433,9.788714409,1,0
1779390370442,414388.442000000,0.063289434,-0.039639343,-0.990906358,0.000627304,-0.000392388,-0.009880453,0.093084961,-0.122539923,0.071358047,1,-0.059192747,0.001587298,0.000981973,1,-0.527624190,0.264346063,9.788877487,1,0
1779390370462,414388.462000000,0.050426435,-0.030092157,-0.976933599,0.000517657,-0.000317126,-0.009742355,-0.034044575,-0.044545803,0.208742708,1,-0.100028276,0.000885575,0.008279552,1,-0.528580010,0.247454509,9.789267540,1,0
1779390370472,414388.472000000,0.057598315,-0.026699774,-1.003750682,0.000504771,-0.000331231,-0.010023703,0.036169522,-0.022336330,-0.053973228,1,-0.126515329,0.000692320,0.007931707,1,-0.528692544,0.235570043,9.789554596,1,0
1779390370492,414388.492000000,0.059116807,-0.011279237,-1.021279812,0.000574889,-0.000098564,-0.010229627,0.050945837,0.109282382,-0.225421056,1,-0.068365358,0.015239494,0.004927452,1,-0.529263437,0.217771798,9.789936066,1,0
1779390370502,414388.502000000,0.062000070,-0.023615042,-1.003102541,0.000612143,-0.000243191,-0.010089199,0.077144936,-0.017241344,-0.047152333,1,-0.054318115,0.020550435,0.004185878,1,-0.531505644,0.212657526,9.789926529,1,0
1779390370512,414388.512000000,0.054079112,-0.017468700,-0.993567765,0.000553654,-0.000188648,-0.009903491,-0.001118189,0.037881732,0.046431914,1,-0.050180353,-0.005819398,0.002053403,1,-0.531270444,0.207630917,9.790047646,1,0
1779390370522,414388.522000000,0.050117906,0.001087720,-1.023336887,0.000492665,-0.000019322,-0.010195593,-0.038681388,0.216408402,-0.245361343,1,-0.016647212,-0.013405885,-0.000147806,1,-0.529752493,0.205222487,9.790180206,1,0
1779390370532,414388.532000000,0.065390922,-0.010160344,-1.028488755,0.000619420,-0.000063047,-0.010338375,0.111604802,0.107289888,-0.295881003,1,0.029844837,-0.000813806,0.000936535,1,-0.529635191,0.207860470,9.790130615,1,0
1779390370542,414388.542000000,0.062732294,-0.026247701,-1.007697463,0.000648249,-0.000245462,-0.010065830,0.085921086,-0.046843074,-0.092043661,1,0.038065214,-0.008833838,0.000986725,1,-0.528996646,0.211746842,9.790081978,1,0
1779390370562,414388.562000000,0.051758133,-0.014412952,-1.005338788,0.000493634,-0.000132701,-0.010080433,-0.021040518,0.077749275,-0.069065318,1,0.059000455,0.008098188,0.000043175,1,-0.528866768,0.220930725,9.789886475,1,0
1779390370572,414388.572000000,0.050860249,-0.017079582,-1.005316257,0.000510896,-0.000154264,-0.010007625,-0.030013893,0.058254436,-0.069005899,1,0.073997401,-0.003376849,-0.000895773,1,-0.528678000,0.228052333,9.789732933,1,0
1779390370592,414388.592000000,0.066148229,-0.028706705,-1.007588148,0.000670228,-0.000269631,-0.010111431,0.118803829,-0.038755454,-0.091750503,1,0.094466552,0.016293343,-0.002929382,1,-0.530398667,0.245699853,9.789213181,1,0
1779390370602,414388.602000000,0.055088144,-0.025709966,-0.983316839,0.000577685,-0.000255968,-0.009845155,0.008956219,-0.000629804,0.145973474,1,0.084811121,0.009853272,-0.002583487,1,-0.531583071,0.254137158,9.788933754,1,0
1779390370622,414388.622000000,0.056183238,-0.022162203,-0.991882920,0.000543231,-0.000196413,-0.009913349,0.018669784,0.050192673,0.061487298,1,0.090279691,0.007143434,-0.001342849,1,-0.532927871,0.270126373,9.788432121,1,0
1779390370632,414388.632000000,0.070564523,-0.030799096,-0.985195339,0.000689496,-0.000297655,-0.009885674,0.158255517,-0.025681922,0.126746267,1,0.092813887,0.013047190,-0.002467145,1,-0.534181118,0.279227763,9.788108826,1,0
1779390370652,414388.652000000,0.064734124,-0.031794593,-0.965265751,0.000697069,-0.000324433,-0.009668352,0.099747658,-0.021162458,0.321702778,1,0.052826956,-0.006535915,-0.000816685,1,-0.534874499,0.292280376,9.787689209,1,0
1779390370662,414388.662000000,0.050180260,-0.026819833,-0.966701269,0.000492514,-0.000274354,-0.009656191,-0.041497815,0.032096032,0.307571858,1,0.041965075,-0.023206368,-0.000053186,1,-0.532875121,0.296416104,9.787673950,1,0
1779390370672,414388.672000000,0.062107969,-0.030514225,-0.983345151,0.000598819,-0.000262990,-0.009714485,0.079248056,0.000917203,0.144402802,1,0.060832862,-0.048195019,-0.002826098,1,-0.528324246,0.302050054,9.787748337,1,0
1779390370692,414388.692000000,0.049311627,-0.023068737,-1.033202291,0.000492635,-0.000207740,-0.010397087,-0.037926801,0.091323517,-0.344631612,1,0.109444559,-0.001749991,-0.006544704,1,-0.521460772,0.320949465,9.787515640,1,0
1779390370702,414388.702000000,0.055365689,-0.062009089,-0.988819718,0.000550082,-0.000548342,-0.009969769,0.019640563,-0.281048089,0.090204172,1,0.075370267,0.026360078,-0.001506121,1,-0.524134159,0.329398990,9.787091255,1,0
1779390370722,414388.722000000,0.049477063,-0.031922940,-0.988846183,0.000462226,-0.000375656,-0.009835056,-0.038519546,0.015408278,0.089875951,1,-0.026830271,-0.006266274,-0.002227333,1,-0.523530960,0.327625811,9.787183762,1,0
1779390370732,414388.732000000,0.079936013,-0.029424800,-0.989971220,0.000764294,-0.000260946,-0.009948971,0.259255499,0.038267151,0.078847758,1,-0.010760139,0.017854651,-0.002088461,1,-0.525207400,0.326487184,9.787131310,1,0
1779390370752,414388.752000000,0.052896753,-0.022766164,-1.000847340,0.000521990,-0.000251583,-0.009953337,-0.006435255,0.100356124,-0.027731366,1,-0.019428985,-0.004790613,-0.000521407,1,-0.525026500,0.323009759,9.787257195,1,0
1779390370762,414388.762000000,0.053149275,-0.018720314,-1.015416265,0.000542399,-0.000173636,-0.010151360,-0.003674668,0.139379933,-0.170566455,1,0.005884232,-0.002720467,0.001658610,1,-0.524804592,0.323149592,9.787263870,1,0
1779390370782,414388.782000000,0.054136269,-0.044810556,-1.009251833,0.000528214,-0.000432183,-0.010104359,0.007063475,-0.111931354,-0.110210106,1,0.025507981,-0.001979776,0.001285722,1,-0.523768961,0.328306913,9.787147522,1,0
1779390370792,414388.792000000,0.062607214,-0.048717469,-0.984567940,0.000635622,-0.000490986,-0.009889091,0.089780174,-0.148657694,0.131784454,1,0.007479401,0.007691178,0.000478731,1,-0.524426043,0.329331309,9.787077904,1,0
1779390370812,414388.812000000,0.060684323,-0.023065807,-0.974415660,0.000586302,-0.000246940,-0.009724914,0.069412999,0.101086050,0.231325060,1,-0.012276530,0.003381733,0.000982749,1,-0.525801301,0.326903552,9.787085533,1,0
1779390370822,414388.822000000,0.061583620,-0.031873081,-1.000574470,0.000602774,-0.000300903,-0.009955093,0.077702619,0.014647558,-0.025231354,1,0.004939125,-0.003120898,0.000647488,1,-0.526829422,0.327536523,9.787009239,1,0
1779390370832,414388.832000000,0.060892183,-0.039719537,-1.010240674,0.000599400,-0.000380448,-0.010104590,0.070443504,-0.061220448,-0.120086290,1,0.011545600,0.000281412,0.000274395,1,-0.526758969,0.328666091,9.786975861,1,0
1779390370852,414388.852000000,0.053878751,-0.031861827,-0.987391353,0.000540078,-0.000357071,-0.009893945,0.000908194,0.015845617,0.103947192,1,-0.008718699,0.003447009,-0.000143785,1,-0.527569592,0.328031600,9.786952972,1,0
1779390370862,414388.862000000,0.056852732,-0.023370858,-0.986838877,0.000546352,-0.000225654,-0.009855677,0.029835079,0.098899931,0.109360367,1,0.004382564,0.000973912,0.001215722,1,-0.527728856,0.328228354,9.786937714,1,0
1779390370872,414388.872000000,0.060663477,-0.031576168,-0.998098910,0.000600218,-0.000306940,-0.009971782,0.067415178,0.019463316,-0.001086297,1,0.013380527,-0.003795777,0.001811731,1,-0.527370214,0.329539657,9.786912918,1,0
1779390370882,414388.882000000,0.065752275,-0.043340109,-1.001148343,0.000639073,-0.000417642,-0.010021068,0.117402673,-0.094597109,-0.031030621,1,0.009875664,0.002885602,0.000855417,1,-0.527495861,0.330733299,9.786866188,1,0
1779390370892,414388.892000000,0.063763209,-0.045424573,-0.988564134,0.000647089,-0.000464959,-0.009903785,0.097440816,-0.114986070,0.092352398,1,-0.007697313,0.005361579,0.000370520,1,-0.528029382,0.330237687,9.786853790,1,0
1779390370912,414388.912000000,0.057509199,-0.021997534,-0.993698299,0.000564312,-0.000214609,-0.009909381,0.035405267,0.112131178,0.042052984,1,-0.004786137,0.000683082,0.000354560,1,-0.528588295,0.327704817,9.786909103,1,0
1779390370922,414388.922000000,0.060863949,-0.031193819,-1.008088350,0.000608098,-0.000292182,-0.010059162,0.068456918,0.022341680,-0.099069461,1,0.008590901,-0.002433284,0.000438034,1,-0.528338313,0.328516960,9.786895752,1,0
1779390370942,414388.942000000,0.058962703,-0.039497450,-0.986528695,0.000621096,-0.000412858,-0.009891374,0.049742058,-0.058053792,0.112319566,1,-0.005422169,0.000996459,0.000064290,1,-0.528515518,0.329115093,9.786865234,1,0
1779390370952,414388.952000000,0.049566228,-0.024560234,-0.980813861,0.000511318,-0.000268397,-0.009785496,-0.042389940,0.087455474,0.168396384,1,-0.011489918,-0.001326247,0.000112294,1,-0.528427184,0.327951372,9.786909103,1,0
1779390370962,414388.962000000,0.053465001,-0.021068769,-0.990795732,0.000517690,-0.000184801,-0.009884113,-0.003841654,0.121175513,0.070542723,1,0.002662160,-0.004744840,0.001346271,1,-0.528005004,0.327874750,9.786934853,1,0
1779390370982,414388.982000000,0.063107446,-0.041752309,-1.010304570,0.000628042,-0.000409982,-0.010114514,0.092194602,-0.079495817,-0.120767064,1,0.007689893,-0.002987727,-0.000865322,1,-0.526585937,0.330192596,9.786932945,1,0
1779390370992,414388.992000000,0.064788900,-0.036613859,-0.990987062,0.000660667,-0.000401042,-0.009958345,0.108593546,-0.029206596,0.068671525,1,-0.007314334,0.002567570,-0.001835764,1,-0.526850522,0.329621792,9.786938667,1,0
1779390371012,414389.012000000,0.056689847,-0.017935531,-0.985559404,0.000553878,-0.000160781,-0.009812188,0.029780824,0.152755484,0.121971093,1,0.002307035,-0.013974145,-0.005243631,1,-0.525726855,0.328706056,9.787029266,1,0
1779390371022,414389.022000000,0.061766040,-0.023629541,-1.012751460,0.000618899,-0.000259378,-0.010122121,0.080793157,0.097940482,-0.144660130,1,0.019047925,-0.018141564,-0.002861838,1,-0.525062203,0.330223471,9.787014008,1,0
1779390371042,414389.042000000,0.055024799,-0.045465846,-0.976853848,0.000548527,-0.000429550,-0.009805212,0.014516425,-0.111129552,0.207194492,1,0.011499016,0.008809541,0.000411605,1,-0.525369525,0.335096896,9.786831856,1,0
1779390371052,414389.052000000,0.050582629,-0.039024651,-0.972331047,0.000517349,-0.000443964,-0.009724787,-0.029569034,-0.048413910,0.251535356,1,-0.014796274,0.001638533,-0.000599233,1,-0.525667071,0.333825260,9.786859512,1,0
1779390371072,414389.072000000,0.070554033,-0.032526243,-1.000908375,0.000687744,-0.000299110,-0.009996187,0.165662169,0.013661876,-0.028689373,1,0.000921854,0.003597757,0.000144400,1,-0.526348531,0.332664371,9.786862373,1,0
1779390371082,414389.082000000,0.069334269,-0.038620919,-1.000182867,0.000709465,-0.000378252,-0.009996548,0.153629452,-0.045763049,-0.021590181,1,0.003652176,-0.000284812,-0.000449997,1,-0.526299059,0.333091825,9.786850929,1,0
1779390371102,414389.102000000,0.054157835,-0.028725093,-0.988653183,0.000559680,-0.000300027,-0.009886682,0.004357379,0.050257970,0.091488414,1,-0.008914414,0.000645270,0.001625637,1,-0.526767969,0.331679940,9.786872864,1,0
1779390371112,414389.112000000,0.051335547,-0.030638034,-0.992546797,0.000508731,-0.000271314,-0.009889942,-0.023091817,0.031354576,0.053322032,1,0.004948714,-0.004503610,0.002975881,1,-0.526378155,0.331970215,9.786884308,1,0
1779390371122,414389.122000000,0.055104695,-0.038144182,-1.000909686,0.000555110,-0.000376127,-0.010003221,0.014563255,-0.041440066,-0.028679308,1,0.010139918,-0.007152996,0.002735231,1,-0.525603533,0.332947075,9.786892891,1,0
1779390371142,414389.142000000,0.056866590,-0.042393062,-0.986576200,0.000579679,-0.000429243,-0.009870551,0.031626351,-0.083067514,0.111870192,1,-0.015445437,0.007654418,0.001143717,1,-0.526281714,0.332187206,9.786882401,1,0
1779390371152,414389.152000000,0.056089304,-0.024787014,-0.990265250,0.000560706,-0.000281220,-0.009890432,0.023380458,0.087478772,0.075731210,1,-0.021736866,0.004661626,0.000470745,1,-0.526812494,0.329879999,9.786931992,1,0
1779390371172,414389.172000000,0.064906962,-0.033783518,-1.005268812,0.000650735,-0.000332561,-0.010067421,0.109699868,-0.000904897,-0.071405455,1,0.013157486,-0.002020975,0.002653247,1,-0.526754260,0.330812603,9.786903381,1,0
1779390371182,414389.182000000,0.066605017,-0.041498628,-0.996929765,0.000667987,-0.000409053,-0.009997863,0.126390725,-0.075422242,0.010335384,1,0.007587063,0.002012725,0.002774058,1,-0.526841223,0.331781298,9.786866188,1,0
1779390371202,414389.202000000,0.051171739,-0.027162025,-0.978875637,0.000507432,-0.000300418,-0.009781253,-0.025754750,0.064169370,0.187376440,1,-0.010167676,0.001512375,0.001455051,1,-0.527623713,0.330223560,9.786876678,1,0
1779390371212,414389.212000000,0.054116566,-0.028820563,-0.999319375,0.000530570,-0.000271300,-0.009961876,0.003216342,0.047596663,-0.013092615,1,0.002934405,-0.002896786,0.001572522,1,-0.527393997,0.330323905,9.786885262,1,0
1779390371232,414389.232000000,0.066654317,-0.045020573,-1.003497958,0.000661729,-0.000450000,-0.010052107,0.125164509,-0.109756708,-0.054175589,1,-0.000827780,0.002604701,0.001156068,1,-0.528618157,0.331721216,9.786771774,1,0
1779390371242,414389.242000000,0.060569536,-0.035204053,-0.988798797,0.000606850,-0.000377322,-0.009894785,0.065022595,-0.014324801,0.089977510,1,-0.013125006,0.005807722,0.000223829,1,-0.529145479,0.330500603,9.786785126,1,0
1779390371252,414389.252000000,0.058636822,-0.022073597,-0.985239565,0.000571975,-0.000231278,-0.009833759,0.045633748,0.113339633,0.124894187,1,-0.007641740,0.002485945,0.001216727,1,-0.529473424,0.329571664,9.786798477,1,0
1779390371272,414389.272000000,0.059499998,-0.038496491,-1.003580570,0.000595568,-0.000366740,-0.010029908,0.054846421,-0.046004124,-0.054986756,1,0.015465999,-0.003636525,0.001304916,1,-0.528534651,0.332001507,9.786767006,1,0
1779390371282,414389.282000000,0.060311932,-0.047591805,-0.995123148,0.000612748,-0.000471181,-0.009966478,0.062846310,-0.134328216,0.027924031,1,0.000761677,0.002473867,0.000212776,1,-0.528688610,0.332412094,9.786745071,1,0
1779390371302,414389.302000000,0.050807126,-0.022355631,-0.986543000,0.000513314,-0.000235383,-0.009848310,-0.030854039,0.110891819,0.112117253,1,-0.010207697,0.000810498,-0.000483489,1,-0.529127538,0.329806894,9.786808968,1,0
1779390371312,414389.312000000,0.056651477,-0.024183776,-0.999817014,0.000560961,-0.000223386,-0.009969590,0.026666936,0.092773020,-0.018038565,1,0.005143865,-0.004174429,-0.000018066,1,-0.528764248,0.330095083,9.786819458,1,0
1779390371332,414389.332000000,0.061758429,-0.042263780,-0.995070815,0.000623197,-0.000421888,-0.009978186,0.077124201,-0.082793914,0.028467409,1,0.003287435,0.002949172,0.000764988,1,-0.528610229,0.331775904,9.786770821,1,0
1779390371342,414389.342000000,0.054783352,-0.033037279,-0.981411338,0.000570031,-0.000356507,-0.009834178,0.008402451,0.007274791,0.162417620,1,-0.008080285,0.002403395,-0.000480573,1,-0.528914154,0.331007332,9.786780357,1,0
1779390371362,414389.362000000,0.057075486,-0.030543547,-0.997598767,0.000565889,-0.000288998,-0.009955203,0.030749556,0.031233409,0.003682889,1,0.006184004,-0.003789626,0.000113850,1,-0.528851688,0.330956131,9.786785126,1,0
1779390371372,414389.372000000,0.063573427,-0.039659686,-1.000195503,0.000619477,-0.000405964,-0.010025872,0.094762169,-0.057474710,-0.021790328,1,0.006407153,-0.002774237,-0.001838220,1,-0.528595805,0.331650496,9.786775589,1,0
1779390371392,414389.392000000,0.051488105,-0.027793828,-0.982227087,0.000504089,-0.000296256,-0.009844681,-0.023783095,0.058286965,0.154438272,1,-0.010580235,0.006115444,0.001395876,1,-0.528898001,0.330524087,9.786797523,1,0
1779390371402,414389.402000000,0.052836556,-0.022645615,-0.981145799,0.000519961,-0.000223924,-0.009778960,-0.010890658,0.107951760,0.165052190,1,-0.004366082,-0.001641346,0.001910569,1,-0.528987169,0.329896629,9.786813736,1,0
1779390371412,414389.412000000,0.054617107,-0.033020537,-1.004675984,0.000525622,-0.000307047,-0.010015112,0.007164157,0.006665091,-0.065684348,1,0.011226289,-0.006074979,0.002672705,1,-0.528254688,0.330840170,9.786821365,1,0
1779390371432,414389.432000000,0.062059917,-0.044320971,-0.994913161,0.000633983,-0.000444852,-0.009970433,0.079449840,-0.102448568,0.029962329,1,-0.004103141,0.002929623,0.001405831,1,-0.529277802,0.332059562,9.786725044,1,0
1779390371442,414389.442000000,0.058021318,-0.031500217,-0.984833241,0.000575473,-0.000337926,-0.009839258,0.039458208,0.022130875,0.128830284,1,-0.014870876,0.004534706,0.001147431,1,-0.529679120,0.330580741,9.786753654,1,0
1779390371462,414389.462000000,0.055636235,-0.032715421,-1.002386332,0.000545255,-0.000296987,-0.009995295,0.016423667,0.009865594,-0.043277003,1,0.012139339,-0.005909412,0.002080603,1,-0.528995156,0.331075996,9.786773682,1,0
1779390371472,414389.472000000,0.060023729,-0.041040827,-0.999710381,0.000603483,-0.000407322,-0.010016645,0.060095422,-0.070564628,-0.017040765,1,0.010197142,-0.005615200,0.000079089,1,-0.528361261,0.332226217,9.786768913,1,0
1779390371492,414389.492000000,0.049776837,-0.028320564,-0.986764789,0.000508157,-0.000296186,-0.009879256,-0.040032610,0.053332783,0.109960996,1,-0.011111196,0.002163407,0.001738229,1,-0.528242230,0.330719441,9.786826134,1,0
1779390371502,414389.502000000,0.051391024,-0.028798599,-0.984590471,0.000517679,-0.000281508,-0.009836758,-0.024194019,0.047944367,0.131307408,1,-0.002156535,-0.004351262,0.001432476,1,-0.528030813,0.330297381,9.786851883,1,0
1779390371522,414389.522000000,0.064276956,-0.035269342,-1.021571994,0.000630857,-0.000359024,-0.010216748,0.104346164,-0.014421348,-0.231277421,1,0.004317841,-0.009562073,0.000530077,1,-0.525697112,0.331588149,9.786933899,1,0
1779390371532,414389.532000000,0.056237217,-0.034228351,-0.998013854,0.000569347,-0.000339202,-0.010047326,0.025708729,-0.003728422,-0.000256252,1,0.004383209,0.005646541,0.001957751,1,-0.525963843,0.332076877,9.786903381,1,0
1779390371542,414389.542000000,0.053992786,-0.034610350,-0.966008365,0.000524919,-0.000355406,-0.009674258,0.002940896,-0.007614110,0.313573956,1,-0.006900900,0.004505145,0.002199460,1,-0.526685536,0.331586182,9.786880493,1,0
1779390371562,414389.562000000,0.061585683,-0.033076409,-1.002136350,0.000587559,-0.000308590,-0.010037815,0.078095995,0.007086995,-0.040671472,1,0.008605228,0.001135428,0.000298355,1,-0.525888324,0.331724375,9.786918640,1,0
1779390371572,414389.572000000,0.062248491,-0.042973243,-0.993583500,0.000633528,-0.000426238,-0.009947469,0.084412128,-0.089343749,0.043172561,1,0.001300361,0.000659040,0.000005631,1,-0.526057601,0.332120329,9.786896706,1,0
1779390371592,414389.592000000,0.050833561,-0.024670120,-0.990742564,0.000510159,-0.000257563,-0.009899970,-0.027672244,0.088725090,0.071073316,1,-0.004134386,-0.000159059,-0.000332013,1,-0.526174605,0.330526978,9.786944389,1,0
1779390371602,414389.602000000,0.053461477,-0.024878884,-0.999742150,0.000521532,-0.000228206,-0.009976931,-0.001649667,0.086945795,-0.017177323,1,0.008465749,-0.003995154,0.000670983,1,-0.525802553,0.331189185,9.786941528,1,0
1779390371622,414389.622000000,0.061426248,-0.045172717,-0.997709274,0.000613653,-0.000450943,-0.009992086,0.076949529,-0.109623551,0.002701226,1,0.006772872,0.001181468,-0.000047083,1,-0.525881171,0.333527952,9.786858559,1,0
1779390371632,414389.632000000,0.058190580,-0.040208284,-0.980949879,0.000595629,-0.000413314,-0.009818988,0.044504575,-0.061251208,0.167027339,1,-0.008899656,0.003600062,-0.000722810,1,-0.526289582,0.332775503,9.786861420,1,0
1779390371652,414389.652000000,0.053078268,-0.028293613,-0.997041643,0.000524601,-0.000259250,-0.009941254,-0.005632794,0.054275252,0.009265594,1,0.004661780,-0.002267683,0.000160166,1,-0.526082098,0.331886321,9.786903381,1,0
1779390371662,414389.662000000,0.055213634,-0.040083520,-1.008500576,0.000559134,-0.000388138,-0.010077630,0.015756855,-0.060440511,-0.103115208,1,0.011063562,-0.004848917,0.000223122,1,-0.525552690,0.332989603,9.786893845,1,0
1779390371682,414389.682000000,0.053475808,-0.037782222,-0.989216447,0.000546991,-0.000394693,-0.009914480,-0.001365242,-0.038063083,0.085999414,1,-0.010903802,0.002834621,0.000189239,1,-0.525871933,0.332114577,9.786906242,1,0
1779390371692,414389.692000000,0.049708661,-0.024020851,-0.985411823,0.000497069,-0.000260009,-0.009854571,-0.038421396,0.095816657,0.123340674,1,-0.007320049,-0.000501643,0.000173901,1,-0.525881052,0.331153005,9.786938667,1,0
1779390371702,414389.702000000,0.056479767,-0.027670413,-0.997193754,0.000549357,-0.000259816,-0.009958160,0.028173245,0.060095504,0.007807226,1,0.007034685,-0.003107429,0.001675745,1,-0.525605500,0.331671536,9.786935806,1,0
1779390371722,414389.722000000,0.057425149,-0.043059796,-0.996982992,0.000575987,-0.000444661,-0.010003964,0.037632339,-0.089211948,0.009830426,1,-0.002101798,0.003960682,0.000057334,1,-0.525639355,0.332995057,9.786889076,1,0
1779390371732,414389.732000000,0.052572947,-0.032568127,-0.986126542,0.000527144,-0.000352421,-0.009870091,-0.010428626,0.012632798,0.116305530,1,-0.016145565,0.004113790,-0.000119953,1,-0.526121438,0.331513882,9.786913872,1,0
1779390371752,414389.752000000,0.051968008,-0.027430665,-1.001968145,0.000504083,-0.000250671,-0.009997902,-0.016509013,0.061612360,-0.039009202,1,0.007041786,-0.002359480,0.002134247,1,-0.526065409,0.330838233,9.786939621,1,0
1779390371762,414389.762000000,0.056314673,-0.038569890,-1.008349657,0.000557369,-0.000375414,-0.010082845,0.026330642,-0.046532638,-0.101614356,1,0.009945957,-0.001552033,0.001488034,1,-0.525877774,0.332021147,9.786909103,1,0
1779390371782,414389.782000000,0.051501866,-0.029848384,-0.983999729,0.000524914,-0.000321024,-0.009842915,-0.021419378,0.038523845,0.137161940,1,-0.013141138,0.005232341,0.000705870,1,-0.526642442,0.330828309,9.786909103,1,0
1779390371792,414389.792000000,0.051477112,-0.022461761,-0.986441791,0.000508466,-0.000216375,-0.009834444,-0.021976940,0.110111788,0.113225438,1,-0.002868239,0.001834803,0.000788458,1,-0.526851356,0.330298394,9.786915779,1,0
1779390371812,414389.812000000,0.060635064,-0.042795628,-1.004610300,0.000610636,-0.000412105,-0.010045839,0.068111494,-0.087333143,-0.064998887,1,0.011544428,-0.000629601,0.000568770,1,-0.526495159,0.332709253,9.786852837,1,0
1779390371822,414389.822000000,0.057870649,-0.041778281,-0.993189156,0.000596431,-0.000423870,-0.009949696,0.040691957,-0.076920018,0.046973899,1,-0.003010718,0.004232864,0.000170325,1,-0.527139366,0.332736790,9.786817551,1,0
1779390371832,414389.832000000,0.048261393,-0.029183295,-0.981364369,0.000499318,-0.000312343,-0.009816345,-0.054109424,0.045694999,0.162934735,1,-0.011661024,0.002904381,-0.000584142,1,-0.527495027,0.331524104,9.786839485,1,0
1779390371852,414389.852000000,0.050312590,-0.032273695,-1.001266122,0.000497328,-0.000299750,-0.010001966,-0.033502746,0.015692739,-0.032217428,1,0.014822742,-0.005588491,0.000948583,1,-0.526725650,0.332652956,9.786842346,1,0
1779390371862,414389.862000000,0.057278294,-0.044033535,-1.005674601,0.000567967,-0.000437693,-0.010072124,0.035162643,-0.098251432,-0.075477883,1,0.010676808,-0.001733851,-0.000005466,1,-0.526491582,0.333902657,9.786812782,1,0
1779390371882,414389.882000000,0.052520264,-0.027358785,-0.978711128,0.000523574,-0.000301726,-0.009805917,-0.012120680,0.064273983,0.188942716,1,-0.013440266,0.003840317,-0.000960481,1,-0.527289212,0.332151711,9.786828995,1,0
1779390371892,414389.892000000,0.053221848,-0.021530192,-0.984693527,0.000525601,-0.000210592,-0.009829632,-0.005419271,0.120710351,0.130290866,1,0.000360090,-0.000794742,0.000229019,1,-0.527322352,0.331861019,9.786837578,1,0
1779390371912,414389.912000000,0.058890954,-0.044473819,-1.000379205,0.000588673,-0.000437844,-0.010018400,0.050627105,-0.102170996,-0.023580525,1,0.008645249,-0.000343915,0.000089314,1,-0.526885092,0.334237695,9.786780357,1,0
1779390371922,414389.922000000,0.052259024,-0.042564370,-0.988357365,0.000530295,-0.000447473,-0.009906488,-0.014599754,-0.083518937,0.094305456,1,-0.009276626,0.003368942,-0.000222884,1,-0.527190924,0.333605587,9.786785126,1,0
1779390371942,414389.942000000,0.047679778,-0.024691109,-0.994442880,0.000466052,-0.000233624,-0.009910560,-0.059659712,0.089575484,0.034692336,1,0.000624547,-0.003119668,0.001217429,1,-0.527140200,0.331734061,9.786850929,1,0
1779390371952,414389.952000000,0.052256674,-0.037483864,-1.010561466,0.000512472,-0.000347536,-0.010080801,-0.014235902,-0.035007123,-0.123376511,1,0.012603556,-0.005166702,0.001295493,1,-0.526536524,0.332978845,9.786841393,1,0
1779390371972,414389.972000000,0.054373711,-0.041046835,-0.989716709,0.000560415,-0.000429485,-0.009922129,0.006387043,-0.069249332,0.081008896,1,-0.010271872,0.005093211,-0.000392764,1,-0.526996017,0.332961977,9.786817551,1,0
1779390371982,414389.982000000,0.052175298,-0.026231514,-0.981338739,0.000526553,-0.000278495,-0.009798396,-0.015663946,0.074809559,0.163183585,1,-0.011372582,0.003178663,-0.000216710,1,-0.527428150,0.331698209,9.786836624,1,0
1779390371992,414389.992000000,0.050238106,-0.024275053,-0.991096318,0.000508073,-0.000223527,-0.009880767,-0.034714554,0.093646772,0.067504160,1,0.004158594,-0.000878816,0.000525084,1,-0.527354181,0.331834167,9.786836624,1,0
1779390372012,414390.012000000,0.053546339,-0.046880793,-0.998784006,0.000551744,-0.000464415,-0.010004820,-0.001978473,-0.126066059,-0.007937324,1,0.004690165,-0.000342831,0.000335032,1,-0.527077675,0.333824158,9.786783218,1,0
1779390372022,414390.022000000,0.047775559,-0.039618552,-0.986645460,0.000485881,-0.000426027,-0.009887137,-0.058760419,-0.055324621,0.111106299,1,-0.012062760,0.002695611,-0.000507002,1,-0.527345002,0.332916111,9.786800385,1,0
1779390372042,414390.042000000,0.050266542,-0.022982750,-0.997561276,0.000494406,-0.000223005,-0.009962148,-0.034412488,0.106137574,0.004111759,1,0.002529034,-0.003782870,0.000834800,1,-0.527240098,0.331601948,9.786850929,1,0
1779390372052,414390.052000000,0.056270208,-0.034759849,-1.007040143,0.000545927,-0.000327312,-0.010080334,0.024816602,-0.008440128,-0.088856250,1,0.012439417,-0.002058717,0.001569684,1,-0.526939869,0.332827777,9.786825180,1,0
1779390372072,414390.072000000,0.054154575,-0.036647324,-0.985789657,0.000549506,-0.000391000,-0.009878175,0.003655619,-0.026669856,0.119508415,1,-0.009990576,0.004823897,0.000146924,1,-0.527569473,0.332406640,9.786805153,1,0
1779390372082,414390.082000000,0.050491143,-0.025554229,-0.982456028,0.000498419,-0.000269495,-0.009818329,-0.032647416,0.081140235,0.152212441,1,-0.007180903,0.001777175,0.000455319,1,-0.527851284,0.331518680,9.786820412,1,0
1779390372102,414390.102000000,0.051805615,-0.039670419,-1.006677389,0.000507622,-0.000377593,-0.010058934,-0.019287594,-0.056297496,-0.085326634,1,0.010058038,-0.001445855,0.000571696,1,-0.527281523,0.333050728,9.786799431,1,0
1779390372112,414390.112000000,0.053010479,-0.043778434,-1.000631690,0.000530615,-0.000436226,-0.010020021,-0.007483138,-0.096123956,-0.026054803,1,-0.001869744,0.001747509,-0.000202013,1,-0.527393043,0.333137244,9.786789894,1,0
1779390372122,414390.122000000,0.049979694,-0.033591893,-0.989651501,0.000507375,-0.000364864,-0.009899897,-0.037487924,0.002842020,0.081640676,1,-0.014143718,0.003258903,-0.000804365,1,-0.527723670,0.331824005,9.786816597,1,0
1779390372142,414390.142000000,0.053158507,-0.026005691,-1.000779867,0.000529094,-0.000239713,-0.009980030,-0.006394574,0.076128013,-0.027457520,1,0.007727360,-0.002828359,0.001118537,1,-0.527612209,0.331399351,9.786837578,1,0
1779390372152,414390.152000000,0.059193097,-0.039171901,-1.007450700,0.000592696,-0.000369965,-0.010068108,0.053040758,-0.051746510,-0.092904858,1,0.013792847,-0.001418692,0.001754847,1,-0.527399242,0.332831264,9.786800385,1,0
1779390372172,414390.172000000,0.051925778,-0.032539859,-0.979847610,0.000533488,-0.000350790,-0.009806457,-0.018830072,0.013225558,0.177758366,1,-0.013179236,0.004326465,0.000225787,1,-0.528182566,0.331922382,9.786788940,1,0
1779390372182,414390.182000000,0.047797963,-0.021212753,-0.982305050,0.000488140,-0.000211783,-0.009805270,-0.059556287,0.123105824,0.153687462,1,-0.007588335,0.000867707,0.001083253,1,-0.528320074,0.330897331,9.786815643,1,0
1779390372202,414390.202000000,0.055784896,-0.039674256,-1.003728986,0.000555794,-0.000387414,-0.010041459,0.019325715,-0.056988418,-0.056412227,1,0.010939374,-0.002423128,0.000838560,1,-0.527660906,0.332425356,9.786799431,1,0
1779390372212,414390.212000000,0.053753614,-0.042628475,-0.995782971,0.000542968,-0.000438430,-0.009989808,-0.000581616,-0.085550182,0.021499194,1,-0.001587712,0.001764064,0.000160230,1,-0.527779341,0.332443208,9.786792755,1,0
1779390372232,414390.232000000,0.048337549,-0.021766122,-0.988055050,0.000476269,-0.000221364,-0.009874170,-0.053798601,0.117328830,0.097335950,1,-0.003837653,-0.001974786,0.000361382,1,-0.527756095,0.330660373,9.786854744,1,0
1779390372242,414390.242000000,0.053740148,-0.029600859,-1.000002623,0.000517014,-0.000271162,-0.009990850,-0.000469632,0.040857054,-0.019823257,1,0.008937752,-0.004209764,0.001480011,1,-0.527347088,0.331423104,9.786850929,1,0
1779390372262,414390.262000000,0.056708422,-0.042670697,-0.995353937,0.000566366,-0.000433637,-0.009980513,0.029065868,-0.085858509,0.025738016,1,-0.002306920,0.003261203,0.001475647,1,-0.527153850,0.332528740,9.786823273,1,0
1779390372272,414390.272000000,0.053418174,-0.033585805,-0.981268823,0.000539063,-0.000353209,-0.009816548,-0.003644686,0.002462704,0.163868010,1,-0.011500612,0.004263495,0.000737996,1,-0.527630091,0.331469953,9.786833763,1,0
1779390372282,414390.282000000,0.047819816,-0.024169939,-0.988044977,0.000479476,-0.000242287,-0.009846013,-0.058616199,0.093859196,0.097444609,1,-0.006403336,-0.001345182,0.000595831,1,-0.527525842,0.330686867,9.786866188,1,0
1779390372302,414390.302000000,0.056591112,-0.041793671,-1.007467031,0.000569800,-0.000407020,-0.010067363,0.027739190,-0.078039438,-0.093033314,1,0.006583361,-0.000152026,0.000771098,1,-0.527224481,0.332022876,9.786836624,1,0
1779390372312,414390.312000000,0.052207038,-0.040168155,-0.998106420,0.000537623,-0.000412738,-0.009995288,-0.015363602,-0.062074762,-0.001243762,1,-0.005442278,0.002615647,-0.000611895,1,-0.527421892,0.331669748,9.786838531,1,0
1779390372332,414390.332000000,0.044104736,-0.021575723,-0.991100013,0.000440963,-0.000209586,-0.009882877,-0.095154114,0.118482240,0.067507535,1,-0.001430746,-0.002227947,0.000719658,1,-0.527603686,0.330024451,9.786884308,1,0
1779390372342,414390.342000000,0.052745193,-0.033522598,-1.007789016,0.000515703,-0.000307808,-0.010055213,-0.010088474,0.001991419,-0.096159942,1,0.012094647,-0.003642495,0.001197654,1,-0.527227402,0.331114620,9.786868095,1,0
1779390372362,414390.362000000,0.057610821,-0.041498754,-0.993044019,0.000582056,-0.000433054,-0.009970854,0.037339371,-0.074972264,0.048380435,1,-0.007138001,0.007386915,-0.000515721,1,-0.527860522,0.331768304,9.786811829,1,0
1779390372372,414390.372000000,0.051944740,-0.024933400,-0.979156017,0.000530469,-0.000278394,-0.009799737,-0.018936377,0.086091116,0.184583321,1,-0.015656767,0.005449105,-0.001007587,1,-0.528511107,0.330114812,9.786831856,1,0
1779390372392,414390.392000000,0.048654832,-0.031990051,-0.999508023,0.000479114,-0.000298627,-0.009987835,-0.051143412,0.016725073,-0.014992180,1,0.014514311,-0.004516184,0.001508761,1,-0.528142095,0.330895007,9.786826134,1,0
1779390372402,414390.402000000,0.051964767,-0.044796772,-1.002650023,0.000514886,-0.000448714,-0.010049091,-0.018316394,-0.107423812,-0.045833860,1,0.010127215,-0.003313367,0.000557238,1,-0.527812898,0.332198888,9.786799431,1,0
1779390372412,414390.412000000,0.050658822,-0.043678861,-0.995742559,0.000496791,-0.000463842,-0.009980869,-0.031124784,-0.096371323,0.021901615,1,-0.007366368,0.001939398,-0.000507097,1,-0.527979076,0.331741691,9.786806107,1,0
1779390372432,414390.432000000,0.049448121,-0.021988625,-0.993897259,0.000478926,-0.000217659,-0.009911666,-0.043036364,0.114194766,0.040068142,1,-0.003066758,0.000003012,0.000088173,1,-0.527941704,0.329733521,9.786875725,1,0
1779390372442,414390.442000000,0.054559749,-0.029860601,-1.001546502,0.000533758,-0.000277314,-0.010012499,0.007159198,0.037462462,-0.034956433,1,0.009765484,-0.000779724,0.001365813,1,-0.527862489,0.330601424,9.786850929,1,0
1779390372462,414390.462000000,0.051469654,-0.040878970,-0.990593076,0.000520556,-0.000416966,-0.009912341,-0.023025239,-0.069359943,0.072423652,1,-0.004507781,0.001322074,0.001202491,1,-0.527810097,0.331387430,9.786827087,1,0
1779390372472,414390.472000000,0.045186363,-0.031089777,-0.982992411,0.000464499,-0.000329417,-0.009825481,-0.084761962,0.025823010,0.146982640,1,-0.009114360,0.000821773,0.000982990,1,-0.527913392,0.330427319,9.786853790,1,0
1779390372492,414390.492000000,0.045426548,-0.033416506,-1.000712276,0.000450002,-0.000314297,-0.009983274,-0.081889704,0.002686457,-0.026751516,1,0.006135638,-0.004421745,0.001949855,1,-0.527232170,0.330584854,9.786885262,1,0
1779390372502,414390.502000000,0.051022805,-0.041807786,-1.004665971,0.000515492,-0.000410276,-0.010047873,-0.026586298,-0.079081543,-0.065520309,1,0.003699855,-0.002740745,0.001009553,1,-0.526862681,0.331029773,9.786890030,1,0
1779390372522,414390.522000000,0.049047884,-0.025820730,-0.984190583,0.000496327,-0.000279027,-0.009849851,-0.046215534,0.076375514,0.135306537,1,-0.011346381,0.001751779,0.001156915,1,-0.527264297,0.329238892,9.786929131,1,0
1779390372532,414390.532000000,0.051664252,-0.021987379,-0.988768697,0.000512609,-0.000212600,-0.009879688,-0.020582687,0.113262877,0.090432815,1,-0.001379036,-0.000694060,0.001620813,1,-0.527212620,0.328845173,9.786945343,1,0
1779390372552,414390.552000000,0.056631863,-0.040288601,-0.994604111,0.000574614,-0.000395152,-0.009969481,0.028258856,-0.064931482,0.033170898,1,0.005016375,0.001115337,0.001514574,1,-0.527143180,0.330323577,9.786898613,1,0
1779390372562,414390.562000000,0.047812015,-0.036796175,-0.985392332,0.000489334,-0.000392869,-0.009871440,-0.058419872,-0.030892761,0.123504728,1,-0.007014913,0.002360262,0.000706542,1,-0.527368367,0.329737127,9.786906242,1,0
1779390372572,414390.572000000,0.039142981,-0.024447709,-0.984675288,0.000390694,-0.000262134,-0.009845569,-0.143629149,0.089236170,0.130558506,1,-0.009220690,0.001177039,0.000561261,1,-0.527526796,0.328700006,9.786932945,1,0
1779390372592,414390.592000000,0.051903058,-0.034757610,-1.014393926,0.000493260,-0.000329983,-0.010130053,-0.018103527,-0.011139406,-0.160885781,1,0.013192244,-0.002417133,0.000848807,1,-0.527022481,0.330128759,9.786911964,1,0
1779390372602,414390.602000000,0.060498621,-0.042366434,-1.008175492,0.000598599,-0.000420806,-0.010108292,0.066100121,-0.084633358,-0.099945895,1,0.007155763,0.004125420,0.000626877,1,-0.527316630,0.331063449,9.786864281,1,0
1779390372622,414390.622000000,0.050302915,-0.023370007,-0.977142334,0.000504268,-0.000244264,-0.009754342,-0.034823682,0.100645989,0.204368949,1,-0.008200231,0.004638047,-0.000149120,1,-0.527783096,0.329485416,9.786892891,1,0
1779390372632,414390.632000000,0.049380790,-0.024711361,-0.991979241,0.000489078,-0.000223002,-0.009873878,-0.043493137,0.087362081,0.058892943,1,0.007146883,-0.001551179,-0.000241219,1,-0.527673423,0.329914391,9.786884308,1,0
1779390372652,414390.652000000,0.054003257,-0.050084196,-1.009413004,0.000535436,-0.000495828,-0.010076405,0.002351565,-0.158846080,-0.112134837,1,0.004425481,0.001919055,-0.000136332,1,-0.527299285,0.332449734,9.786818504,1,0
1779390372662,414390.662000000,0.052775923,-0.040575452,-0.992800713,0.000524979,-0.000409784,-0.009919765,-0.010132726,-0.066173062,0.050772481,1,-0.012177914,0.006668027,-0.000304805,1,-0.527895808,0.331356376,9.786823273,1,0
1779390372682,414390.682000000,0.052537367,-0.025211833,-0.997347832,0.000516394,-0.000233546,-0.009951760,-0.012762211,0.082436271,0.006233746,1,0.003823154,-0.002560293,0.000745457,1,-0.527897298,0.329800278,9.786875725,1,0
1779390372692,414390.692000000,0.057458725,-0.039389595,-1.005544901,0.000576757,-0.000364392,-0.010050217,0.035964094,-0.055400304,-0.074167997,1,0.016286107,-0.005160105,0.001257480,1,-0.527351439,0.331389129,9.786851883,1,0
1779390372702,414390.702000000,0.058055706,-0.048794709,-0.998980939,0.000586445,-0.000489881,-0.010019979,0.042088918,-0.146561012,-0.009818464,1,0.004674701,0.000055454,0.000607859,1,-0.527244210,0.332098335,9.786833763,1,0
1779390372722,414390.722000000,0.051762015,-0.024922566,-0.982269168,0.000513857,-0.000269525,-0.009824388,-0.020243159,0.085558921,0.154101595,1,-0.012988368,0.002292083,0.000146643,1,-0.527926385,0.329561442,9.786882401,1,0
1779390372732,414390.732000000,0.054673199,-0.027490988,-0.993034184,0.000532457,-0.000257110,-0.009915023,0.008275070,0.059860960,0.048548657,1,0.002179973,-0.001700868,0.000292095,1,-0.527832627,0.329523891,9.786889076,1,0
1779390372752,414390.752000000,0.058870170,-0.043163478,-0.997037828,0.000590551,-0.000439714,-0.009999554,0.049763590,-0.092551962,0.009261105,1,-0.002213525,0.000887063,0.000584821,1,-0.527582645,0.330669254,9.786863327,1,0
1779390372762,414390.762000000,0.052598871,-0.033322152,-0.983245134,0.000529199,-0.000358078,-0.009849711,-0.011995871,0.003037129,0.144537702,1,-0.013477119,0.002590188,0.000037661,1,-0.527895272,0.329396039,9.786890030,1,0
1779390372782,414390.782000000,0.055132158,-0.028068000,-0.997383952,0.000533937,-0.000258976,-0.009941937,0.012979031,0.053312287,0.005933014,1,0.005508588,-0.004968675,0.000822078,1,-0.527527094,0.328738362,9.786931992,1,0
1779390372792,414390.792000000,0.061159320,-0.041104604,-1.007690907,0.000603258,-0.000396454,-0.010069376,0.072482944,-0.073696047,-0.095150530,1,0.007526128,-0.002119233,0.001126774,1,-0.527217925,0.329638809,9.786917686,1,0
1779390372812,414390.812000000,0.051425617,-0.030347962,-0.983296335,0.000525136,-0.000323906,-0.009831811,-0.023618584,0.030557135,0.144084975,1,-0.016475543,0.004645825,-0.000231736,1,-0.528076589,0.327655375,9.786938667,1,0
1779390372822,414390.822000000,0.049247824,-0.019981921,-0.987215519,0.000492375,-0.000198599,-0.009842372,-0.045308020,0.131187454,0.105667673,1,-0.004989340,0.000856823,0.000019696,1,-0.528379500,0.327106923,9.786940575,1,0
1779390372842,414390.842000000,0.056798082,-0.039016806,-1.005752206,0.000570323,-0.000372636,-0.010062116,0.029050134,-0.053504106,-0.076166146,1,0.011930306,0.000306749,0.000991577,1,-0.527957678,0.329493880,9.786883354,1,0
1779390372852,414390.852000000,0.055355832,-0.041190006,-0.993633747,0.000570760,-0.000424503,-0.009964531,0.014590100,-0.074499920,0.042648934,1,-0.004104585,0.005363889,-0.000258997,1,-0.528432608,0.329307824,9.786863327,1,0
1779390372862,414390.862000000,0.050075948,-0.027133469,-0.982519269,0.000511875,-0.000295768,-0.009831625,-0.037783585,0.062350087,0.151645944,1,-0.011936639,0.005537489,-0.000015342,1,-0.529033482,0.328066647,9.786872864,1,0
1779390372882,414390.882000000,0.055428308,-0.028783714,-1.003673077,0.000546814,-0.000268007,-0.010021638,0.014596601,0.046464175,-0.055817340,1,0.015350929,-0.003106270,0.000610097,1,-0.528872013,0.329215258,9.786843300,1,0
1779390372892,414390.892000000,0.062944777,-0.040446453,-1.006516457,0.000622274,-0.000399102,-0.010096519,0.088437572,-0.066377640,-0.083745576,1,0.012630470,0.000907355,0.000461669,1,-0.528867662,0.330660850,9.786794662,1,0
1779390372912,414390.912000000,0.058083802,-0.026872031,-0.981985331,0.000571817,-0.000278607,-0.009822793,0.039713744,0.065969929,0.156791180,1,-0.013047423,0.006537704,0.000476998,1,-0.530096948,0.329088926,9.786781311,1,0
1779390372922,414390.922000000,0.055406202,-0.021875326,-0.983936965,0.000550879,-0.000217285,-0.009830283,0.013126055,0.114090241,0.137663946,1,-0.002781211,0.000436980,0.000563869,1,-0.530236244,0.328528225,9.786791801,1,0
1779390372942,414390.942000000,0.061092742,-0.043493241,-1.003626347,0.000615111,-0.000396512,-0.010040378,0.069567665,-0.095918030,-0.055453096,1,0.014851267,-0.002841641,0.001565092,1,-0.529457331,0.331070304,9.786748886,1,0
1779390372952,414390.952000000,0.055454832,-0.042130265,-0.993438125,0.000566195,-0.000458331,-0.009977092,0.014333759,-0.082115971,0.044447362,1,-0.004749529,0.000770415,0.000867692,1,-0.529515505,0.330894351,9.786751747,1,0
1779390372972,414390.972000000,0.055333488,-0.024925001,-0.994001448,0.000541297,-0.000241585,-0.009910836,0.012904868,0.084283158,0.038988505,1,-0.006887189,-0.001383989,0.001578801,1,-0.529686570,0.328502059,9.786823273,1,0
1779390372982,414390.982000000,0.061895017,-0.035071712,-1.004305005,0.000609644,-0.000327450,-0.010025944,0.077484436,-0.015030235,-0.062048990,1,0.007443244,-0.002754357,0.001349953,1,-0.529411137,0.329139918,9.786816597,1,0
1779390372992,414390.992000000,0.065502033,-0.044099640,-1.001483083,0.000658644,-0.000425891,-0.010016825,0.113026202,-0.102755494,-0.034392610,1,0.005544401,0.000320134,0.001270884,1,-0.529338002,0.329889119,9.786794662,1,0
1779390373012,414391.012000000,0.048221320,-0.028631652,-0.981940389,0.000497016,-0.000302931,-0.009811975,-0.056812920,0.047772758,0.157273442,1,-0.009881840,0.002417481,0.000779352,1,-0.529777050,0.328246832,9.786826134,1,0
1779390373022,414391.022000000,0.046418972,-0.028101657,-0.993031681,0.000467548,-0.000265929,-0.009903784,-0.074737735,0.052471094,0.048508462,1,0.001673699,-0.002854976,0.000718659,1,-0.530221105,0.328004450,9.786810875,1,0
1779390373042,414391.042000000,0.060476679,-0.047153879,-1.006523848,0.000605328,-0.000465373,-0.010090210,0.063210286,-0.133058786,-0.083843626,1,0.002055069,0.001845754,-0.000607892,1,-0.529923022,0.329425395,9.786779404,1,0
