Time,GPS_ts,fGPS_ts,scaledAccelX,scaledAccelY,scaledAccelZ,deltaVelX,deltaVelY,deltaVelZ,estLinearAccelX,estLinearAccelY,estLinearAccelZ,estLinearAccel:valid,estAngularRateX,estAngularRateY,estAngularRateZ,estAngularRate:valid,estGravityX,estGravityY,estGravityZ,estGravity:valid,flag
1778253710508,   368.042,   368.042,-0.008448,-0.004493,-0.995089,-0.000086,-0.000045,-0.009951, 0.027806,-0.026161, 0.047516,1,-0.000678, 0.000378,-0.001457,1, 0.110643, 0.017884, 9.806009,1,0
1778253710508,   368.067,   368.062,-0.010504,-0.002148,-0.995453,-0.000103,-0.000022,-0.009956, 0.017409,-0.013815, 0.044078,1,-0.001643,-0.000221,-0.002501,1, 0.110680, 0.017599, 9.806009,1,0
1778253710508,   368.087,   368.087,-0.011984,-0.000196,-0.995672,-0.000119,-0.000002,-0.009958,-0.006854, 0.015303, 0.041808,1,-0.001080,-0.000344,-0.001908,1, 0.110683, 0.017188, 9.806010,1,0
1778253710508,   368.112,   368.112,-0.014178, 0.002264,-0.996551,-0.000141, 0.000021,-0.009966,-0.028405, 0.039192, 0.033187,1,-0.000194,-0.000003,-0.001056,1, 0.110638, 0.016986, 9.806011,1,0
1778253710509,   368.137,   368.132,-0.015065, 0.001066,-0.996454,-0.000150, 0.000013,-0.009965,-0.043806, 0.035431, 0.035834,1, 0.000945, 0.000763, 0.000411,1, 0.110569, 0.017097, 9.806012,1,0
1778253710509,   368.162,   368.162,-0.013575,-0.000088,-0.995897,-0.000141, 0.000002,-0.009957,-0.022619, 0.016437, 0.039602,1, 0.000860,-0.000538, 0.001330,1, 0.110524, 0.017327, 9.806012,1,0
1778253710509,   368.187,   368.182,-0.010174,-0.004460,-0.994748,-0.000103,-0.000044,-0.009951,-0.002468,-0.015028, 0.044298,1, 0.000516,-0.000301, 0.001426,1, 0.110606, 0.017517, 9.806010,1,0
1778253710509,   368.212,   368.207,-0.008433,-0.005641,-0.994866,-0.000084,-0.000054,-0.009949, 0.028046,-0.037618, 0.049708,1, 0.001018, 0.000231,-0.000232,1, 0.110769, 0.017729, 9.806008,1,0
1778253710509,   368.237,   368.232,-0.009319,-0.002810,-0.994929,-0.000093,-0.000032,-0.009949, 0.023279,-0.022073, 0.043963,1,-0.000826, 0.000646,-0.000939,1, 0.110656, 0.017735, 9.806009,1,0
1778253710509,   368.257,   368.252,-0.010895,-0.001097,-0.995051,-0.000109,-0.000013,-0.009950, 0.011701, 0.003743, 0.041562,1,-0.000270, 0.000039,-0.000398,1, 0.110612, 0.017727, 9.806010,1,0
1778253710509,   368.277,   368.272,-0.013266,-0.000392,-0.995383,-0.000131,-0.000005,-0.009957,-0.004916, 0.012654, 0.033999,1,-0.000882,-0.000676,-0.000023,1, 0.110628, 0.017613, 9.806010,1,0
1778253710524,   404.432,   404.432,-0.013462, 0.001716,-0.997463,-0.000134, 0.000020,-0.009967,-0.020332, 0.041270, 0.024215,1,-0.001134,-0.001107,-0.001014,1, 0.111718, 0.024406, 9.805984,1,0
1778253710545,   404.452,   404.452,-0.015002, 0.003301,-0.996797,-0.000149, 0.000031,-0.009962,-0.035339, 0.056807, 0.030739,1,-0.000292,-0.000403, 0.000747,1, 0.111798, 0.024427, 9.805983,1,0
1778253710567,   404.477,   404.472,-0.014948, 0.004070,-0.995690,-0.000152, 0.000041,-0.009963,-0.043282, 0.063953, 0.028154,1, 0.001498, 0.000120, 0.001128,1, 0.111828, 0.024637, 9.805982,1,0
1778253710594,   404.502,   404.502,-0.012543,-0.001414,-0.996482,-0.000125,-0.000008,-0.009973,-0.011392, 0.011247, 0.033831,1, 0.002563, 0.000857, 0.003041,1, 0.111585, 0.025197, 9.805983,1,0
1778253710615,   404.527,   404.522,-0.007687,-0.009051,-0.993576,-0.000079,-0.000086,-0.009933, 0.027100,-0.033182, 0.042997,1, 0.003664,-0.000357, 0.003814,1, 0.111547, 0.025797, 9.805982,1,0
1778253710637,   404.547,   404.542,-0.006021,-0.010891,-0.994119,-0.000060,-0.000109,-0.009940, 0.047657,-0.082777, 0.048010,1, 0.000627,-0.001623, 0.001392,1, 0.111770, 0.026230, 9.805978,1,0
1778253710664,   404.572,   404.572,-0.005804,-0.006624,-0.994913,-0.000057,-0.000069,-0.009946, 0.055048,-0.038718, 0.049209,1,-0.001261, 0.000025,-0.001564,1, 0.111968, 0.026200, 9.805976,1,0
1778253710686,   404.597,   404.592,-0.009767,-0.001363,-0.995725,-0.000094,-0.000017,-0.009961, 0.032609, 0.000179, 0.041048,1,-0.002103,-0.000104,-0.001675,1, 0.112003, 0.025883, 9.805976,1,0
1778253710707,   404.617,   404.612,-0.013097, 0.000504,-0.995724,-0.000131, 0.000002,-0.009958,-0.002134, 0.028473, 0.032228,1,-0.001372,-0.000972,-0.001160,1, 0.112060, 0.025585, 9.805976,1,0
1778253710734,   404.642,   404.642,-0.015190,-0.001596,-0.996006,-0.000156,-0.000015,-0.009955,-0.036412, 0.009772, 0.038490,1,-0.000169,-0.004026,-0.000584,1, 0.112675, 0.025416, 9.805970,1,0
1778253710756,   404.667,   404.662,-0.016511,-0.001180,-0.995370,-0.000167,-0.000012,-0.009954,-0.049486, 0.009554, 0.025318,1, 0.000696,-0.001903,-0.000644,1, 0.113092, 0.025546, 9.805964,1,0
1778253710777,   404.687,   404.682,-0.014499,-0.000952,-0.995087,-0.000143,-0.000007,-0.009955,-0.038411, 0.024207, 0.025673,1, 0.000308,-0.001969,-0.000342,1, 0.113485, 0.025589, 9.805960,1,0
1778253710804,   404.712,   404.712,-0.012139,-0.001218,-0.995484,-0.000122,-0.000009,-0.009959,-0.005251, 0.014044, 0.043587,1, 0.001780,-0.000968, 0.000828,1, 0.113820, 0.026039, 9.805955,1,0
1778253710826,   404.737,   404.732,-0.009648,-0.002695,-0.995789,-0.000095,-0.000026,-0.009953, 0.015553, 0.002083, 0.037768,1, 0.001629, 0.000530, 0.001653,1, 0.113823, 0.026338, 9.805954,1,0
1778253710847,   404.757,   404.752,-0.009959,-0.003388,-0.995345,-0.000102,-0.000034,-0.009949, 0.019528,-0.012726, 0.051504,1, 0.001237,-0.000450, 0.001353,1, 0.113776, 0.026584, 9.805954,1,0
1778253710874,   404.782,   404.782,-0.011060,-0.003356,-0.996720,-0.000110,-0.000033,-0.009959, 0.005174,-0.006087, 0.031468,1, 0.000276, 0.000665, 0.001147,1, 0.113619, 0.026828, 9.805955,1,0
1778253710896,   404.807,   404.802,-0.011006,-0.007745,-0.997801,-0.000112,-0.000073,-0.009974,-0.000494,-0.022539, 0.052614,1, 0.000047, 0.000508, 0.000309,1, 0.113515, 0.026878, 9.805956,1,0
1778253710917,   404.827,   404.822,-0.010927,-0.011995,-0.994557,-0.000114,-0.000121,-0.009943,-0.002215,-0.084111, 0.038070,1,-0.001989, 0.002454,-0.000658,1, 0.113477, 0.026529, 9.805958,1,0
1778253710944,   404.852,   404.852,-0.010077,-0.005748,-0.993203,-0.000101,-0.000065,-0.009938, 0.013935,-0.030762, 0.065978,1,-0.004298, 0.000124,-0.002468,1, 0.112748, 0.025477, 9.805968,1,0
1778253710966,   404.877,   404.872,-0.010185, 0.005940,-0.996716,-0.000101, 0.000057,-0.009962, 0.020755, 0.057041, 0.024447,1,-0.003167, 0.000306,-0.002052,1, 0.112621, 0.024822, 9.805972,1,0
1778253710987,   404.897,   404.892,-0.013283, 0.004161,-0.996707,-0.000129, 0.000046,-0.009971,-0.000100, 0.078432, 0.011968,1,-0.002240, 0.000967,-0.000951,1, 0.112517, 0.024392, 9.805974,1,0
1778253711014,   404.922,   404.922,-0.014127,-0.000907,-0.998514,-0.000140, 0.000006,-0.009976,-0.026349, 0.015202, 0.013899,1, 0.000480, 0.001082, 0.001009,1, 0.112152, 0.024111, 9.805979,1,0
1778253711036,   404.947,   404.942,-0.014055,-0.005114,-0.995258,-0.000144,-0.000051,-0.009972,-0.041916,-0.019271, 0.048026,1, 0.000314, 0.000994, 0.000889,1, 0.112264, 0.024327, 9.805977,1,0
1778253711059,   404.967,   404.967,-0.010803,-0.006766,-0.995865,-0.000111,-0.000075,-0.009965, 0.006267,-0.041890, 0.039879,1, 0.000259, 0.000608,-0.000467,1, 0.112189, 0.024470, 9.805978,1,0
1778253711084,   404.992,   404.992,-0.007226,-0.002915,-0.995578,-0.000073,-0.000027,-0.009965, 0.041202,-0.004141, 0.042694,1,-0.000222, 0.000306,-0.001635,1, 0.112051, 0.024441, 9.805980,1,0
1778253711106,   405.017,   405.012,-0.009115,-0.003331,-0.995134,-0.000090,-0.000029,-0.009958, 0.034382,-0.001764, 0.026928,1,-0.001837, 0.000675,-0.001142,1, 0.111924, 0.024314, 9.805981,1,0
1778253711129,   405.037,   405.037,-0.011357,-0.001613,-0.994581,-0.000113,-0.000018,-0.009945, 0.000239, 0.008194, 0.052480,1,-0.001950, 0.000924,-0.000677,1, 0.111587, 0.023947, 9.805985,1,0
1778253711155,   405.062,   405.062,-0.015836,-0.003103,-0.998331,-0.000154,-0.000031,-0.009987,-0.044280,-0.006840, 0.015713,1,-0.002605, 0.003610,-0.000229,1, 0.110908, 0.023508, 9.805995,1,0
1778253711176,   405.087,   405.082,-0.015666,-0.016413,-0.999845,-0.000155,-0.000152,-0.010017,-0.043558,-0.075739, 0.016748,1,-0.005351, 0.004217, 0.000311,1, 0.110040, 0.022842, 9.806006,1,0
1778253711199,   405.107,   405.107,-0.008289,-0.016482,-0.997125,-0.000089,-0.000172,-0.009931, 0.027578,-0.140115, 0.027569,1,-0.007958, 0.004291, 0.001547,1, 0.108736, 0.021271, 9.806025,1,0
1778253711225,   405.132,   405.132,-0.008139,-0.025169,-0.993395,-0.000082,-0.000234,-0.009942, 0.028280,-0.226811, 0.064158,1,-0.006742, 0.005624, 0.007675,1, 0.107925, 0.019796, 9.806036,1,0
1778253711246,   405.157,   405.152,-0.008994, 0.013173,-0.989070,-0.000138, 0.000146,-0.009847,-0.082384, 0.005302, 0.043228,1,-0.012656,-0.005211, 0.011441,1, 0.107921, 0.017481, 9.806041,1,0
1778253711269,   405.177,   405.177,-0.005794, 0.045843,-0.994730,-0.000034, 0.000468,-0.009993, 0.051330, 0.464528, 0.051072,1,-0.003972,-0.001328,-0.011099,1, 0.108195, 0.014844, 9.806042,1,0
1778253711295,   405.202,   405.202, 0.016643, 0.067866,-1.008184, 0.000155, 0.000649,-0.010087, 0.270640, 0.680327,-0.080860,1,-0.002448,-0.000508,-0.014131,1, 0.107446, 0.014721, 9.806050,1,0
1778253711316,   405.227,   405.222, 0.019236, 0.114915,-1.027062, 0.000272, 0.001151,-0.010349, 0.388531, 0.927411,-0.121105,1, 0.011319,-0.007016,-0.002223,1, 0.108557, 0.015276, 9.806037,1,0
1778253711339,   405.247,   405.247,-0.017859,-0.095449,-0.997455,-0.000226,-0.000661,-0.010070,-0.064741,-0.912270, 0.024310,1, 0.047787,-0.004922, 0.018946,1, 0.110552, 0.025247, 9.805994,1,0
1778253711365,   405.272,   405.272,-0.070889,-0.048929,-0.843199,-0.000736,-0.000455,-0.008681,-0.586177,-0.450321, 1.537041,1, 0.056990, 0.070711, 0.032518,1, 0.106801, 0.031281, 9.806019,1,0
1778253711386,   405.297,   405.292,-0.012768,-0.004500,-1.109490,-0.000176,-0.000041,-0.011203,-0.480425,-0.939964, 1.292551,1,-0.023848, 0.010615, 0.053709,1, 0.110303, 0.028144, 9.805989,1,0
1778253711409,   405.322,   405.317,-0.016219,-0.052238,-1.059342,-0.000086,-0.000762,-0.011055,-0.048276,-0.487114,-0.582605,1, 0.007557,-0.012184, 0.032552,1, 0.111163, 0.025391, 9.805987,1,0
1778253711435,   405.342,   405.342, 0.020925, 0.024562,-1.012132, 0.000201, 0.000043,-0.010334, 0.314771, 0.265810,-0.119616,1,-0.014689,-0.006268, 0.001601,1, 0.109766, 0.024478, 9.806005,1,0
1778253711456,   405.367,   405.362,-0.017645, 0.013938,-0.986512,-0.000044, 0.000122,-0.009941, 0.039370, 0.409272,-0.365008,1,-0.014641,-0.003147,-0.026714,1, 0.111772, 0.022165, 9.805988,1,0
1778253711479,   405.392,   405.387, 0.016606, 0.034770,-0.995394, 0.000255, 0.000301,-0.010023, 0.273700, 0.364069, 0.044515,1, 0.000768,-0.005600,-0.031730,1, 0.111021, 0.023123, 9.805994,1,0
1778253711505,   405.412,   405.412, 0.012943,-0.000183,-0.999830, 0.000144,-0.000006,-0.009963, 0.238376, 0.022052, 0.001003,1,-0.006269,-0.004344,-0.021070,1, 0.111629, 0.023792, 9.805985,1,0
1778253711530,   405.437,   405.432,-0.000760, 0.014522,-1.009171,-0.000027, 0.000204,-0.009945, 0.109643, 0.332654, 0.191896,1, 0.000358,-0.003167,-0.011185,1, 0.112641, 0.023352, 9.805975,1,0
1778253711549,   405.462,   405.457,-0.029569,-0.009413,-1.002920,-0.000293,-0.000077,-0.009947,-0.177800,-0.068565,-0.029310,1, 0.001673, 0.007584, 0.002922,1, 0.111939, 0.023798, 9.805983,1,0
1778253711575,   405.482,   405.482,-0.027014,-0.031328,-0.990587,-0.000255,-0.000310,-0.009939,-0.153059,-0.282740, 0.091640,1,-0.000006,-0.003194, 0.002622,1, 0.111959, 0.024483, 9.805981,1,0
1778253711597,   405.507,   405.502,-0.031357,-0.024685,-0.986897,-0.000316,-0.000232,-0.009899,-0.145869,-0.201382,-0.043623,1,-0.004155, 0.000706, 0.003900,1, 0.111858, 0.024048, 9.805983,1,0
1778253711619,   405.532,   405.527,-0.021469,-0.014390,-0.988338,-0.000225,-0.000137,-0.009911,-0.098504,-0.117306, 0.113698,1,-0.000920,-0.000149, 0.000290,1, 0.112043, 0.023786, 9.805981,1,0
1778253711645,   405.552,   405.552,-0.013237, 0.002852,-0.998126,-0.000135, 0.000049,-0.010004,-0.017713, 0.051012, 0.017711,1,-0.000940,-0.000459, 0.002233,1, 0.112115, 0.023014, 9.805982,1,0
1778253711667,   405.577,   405.572,-0.000829, 0.014012,-0.998961,-0.000007, 0.000147,-0.009984, 0.078593, 0.164252, 0.023100,1,-0.000788,-0.000503, 0.007002,1, 0.111889, 0.022690, 9.805985,1,0
1778253711690,   405.602,   405.597, 0.003592,-0.000156,-0.999312, 0.000042, 0.000009,-0.009992, 0.147240, 0.021382, 0.006077,1, 0.002288,-0.000428, 0.013695,1, 0.112026, 0.022982, 9.805984,1,0
1778253711715,   405.622,   405.622, 0.000126,-0.010192,-0.999290,-0.000010,-0.000092,-0.009976, 0.113369,-0.077393, 0.006299,1,-0.002485,-0.000621, 0.010732,1, 0.112155, 0.022468, 9.805983,1,0
1778253711737,   405.647,   405.642,-0.008342,-0.007647,-0.987327,-0.000086,-0.000068,-0.009888, 0.061252,-0.074649, 0.054975,1,-0.002295, 0.000370,-0.003788,1, 0.112559, 0.021897, 9.805980,1,0
1778253711764,   405.672,   405.672,-0.015505, 0.007781,-0.990474,-0.000116, 0.000011,-0.009875,-0.039799, 0.097313, 0.092756,1,-0.003399, 0.005411,-0.013063,1, 0.112087, 0.020906, 9.805987,1,0
1778253711785,   405.692,   405.692,-0.020248, 0.003949,-0.980125,-0.000173, 0.000055,-0.009855,-0.086208, 0.059510, 0.194238,1,-0.001375,-0.004674,-0.006724,1, 0.112504, 0.020738, 9.805983,1,0
1778253711807,   405.717,   405.712,-0.018502, 0.001183,-0.996072,-0.000196, 0.000017,-0.009938,-0.051578, 0.007422, 0.028738,1,-0.000121, 0.000894,-0.004766,1, 0.112238, 0.020542, 9.805986,1,0
1778253711834,   405.742,   405.742,-0.020715,-0.006600,-0.996686,-0.000205,-0.000058,-0.009980,-0.090949,-0.043778, 0.031831,1, 0.002543,-0.001335, 0.000334,1, 0.112238, 0.021027, 9.805985,1,0
1778253711855,   405.767,   405.762,-0.015440,-0.009599,-0.989421,-0.000157,-0.000096,-0.009878,-0.039160,-0.068979, 0.037269,1, 0.002991, 0.000282, 0.001234,1, 0.112185, 0.021401, 9.805984,1,0
1778253711877,   405.787,   405.782,-0.012378,-0.006885,-0.990875,-0.000126,-0.000071,-0.009918,-0.001039,-0.060042,-0.016630,1,-0.000679,-0.000665, 0.000332,1, 0.112107, 0.021427, 9.805985,1,0
1778253711904,   405.812,   405.812,-0.004270,-0.002283,-0.992974,-0.000039,-0.000039,-0.009931, 0.070294,-0.000937, 0.068238,1,-0.000822, 0.000769, 0.001419,1, 0.112167, 0.021433, 9.805985,1,0
1778253711926,   405.837,   405.832,-0.013774,-0.006288,-0.976712,-0.000097,-0.000066,-0.009850, 0.041432, 0.029861, 0.039547,1, 0.003468, 0.001796, 0.003865,1, 0.111946, 0.021519, 9.805987,1,0
1778253711947,   405.857,   405.852,-0.015554,-0.011695,-0.973318,-0.000135,-0.000103,-0.009872, 0.023894, 0.099340,-0.187402,1,-0.005426,-0.001186, 0.005088,1, 0.111821, 0.020938, 9.805990,1,0
1778253711974,   405.882,   405.882,-0.013802, 0.000756,-0.985161,-0.000076, 0.000009,-0.010074,-0.023329, 0.028546, 0.144861,1, 0.003132,-0.009008, 0.006557,1, 0.112304, 0.021223, 9.805984,1,0
1778253711996,   405.907,   405.902,-0.013931, 0.004141,-0.982281,-0.000154, 0.000037,-0.009759, 0.030480, 0.031457,-0.049622,1, 0.004054,-0.001905,-0.000725,1, 0.112034, 0.021074, 9.805987,1,0
1778253712017,   405.927,   405.922,-0.012246,-0.002700,-0.989060,-0.000118,-0.000042,-0.009897, 0.040572, 0.035201,-0.070937,1, 0.001429,-0.000825,-0.005162,1, 0.111990, 0.020911, 9.805988,1,0
1778253712044,   405.952,   405.952,-0.012097, 0.000751,-0.994065,-0.000112, 0.000007,-0.009964,-0.006637, 0.028519, 0.057544,1, 0.000569,-0.000787,-0.002620,1, 0.112015, 0.021176, 9.805987,1,0
1778253712066,   405.977,   405.972,-0.023345, 0.012481,-0.979335,-0.000252, 0.000312,-0.009988,-0.080664, 0.525276,-0.213440,1, 0.003218, 0.000351, 0.001976,1, 0.112211, 0.021689, 9.805984,1,0
1778253712087,   405.997,   405.992,-0.022547,-0.064015,-1.015011,-0.000206,-0.000673,-0.010220,-0.002244,-0.443377, 0.126070,1,-0.013804,-0.001923, 0.010954,1, 0.110707, 0.023063, 9.805998,1,0
1778253712114,   406.022,   406.022, 0.002884,-0.008506,-0.975303,-0.000021,-0.000181,-0.009738, 0.139489,-0.060771, 0.241536,1,-0.009955, 0.019508,-0.007761,1, 0.110596, 0.022335, 9.806001,1,0
1778253712136,   406.047,   406.042, 0.010057,-0.001707,-1.017069, 0.000057,-0.000063,-0.010095,-0.021919,-0.098677, 0.198640,1,-0.004007,-0.003932,-0.007133,1, 0.113321, 0.020864, 9.805973,1,0
1778253712157,   406.067,   406.062, 0.003942,-0.008198,-0.999391, 0.000005,-0.000065,-0.009842, 0.197592, 0.199507, 0.119581,1,-0.000764,-0.005670,-0.007842,1, 0.111992, 0.020893, 9.805988,1,0
1778253712184,   406.092,   406.092,-0.008172, 0.016020,-0.995481,-0.000090, 0.000221,-0.009919, 0.032670, 0.176849, 0.043649,1,-0.002762,-0.001962,-0.010074,1, 0.112874, 0.019667, 9.805981,1,0
1778253712206,   406.117,   406.112,-0.013682, 0.018650,-0.996995,-0.000111, 0.000188,-0.010020, 0.017877, 0.307218, 0.051333,1, 0.002348, 0.003326,-0.004678,1, 0.112585, 0.019986, 9.805984,1,0
1778253712227,   406.137,   406.132,-0.014278, 0.005054,-1.019614,-0.000134, 0.000023,-0.010201,-0.096817, 0.090511, 0.104211,1, 0.005107, 0.004020, 0.002636,1, 0.112693, 0.020546, 9.805981,1,0
1778253712254,   406.162,   406.162,-0.021555, 0.002873,-1.005526,-0.000227, 0.000014,-0.009964,-0.098643, 0.049367,-0.054866,1,-0.001481,-0.000347, 0.007446,1, 0.112751, 0.021146, 9.805979,1,0
1778253712276,   406.187,   406.182,-0.024467,-0.011942,-0.992393,-0.000244,-0.000119,-0.009940,-0.133983,-0.070443, 0.016775,1, 0.003691, 0.000875, 0.006895,1, 0.112679, 0.021983, 9.805978,1,0
1778253712299,   406.207,   406.207,-0.020803,-0.023502,-0.990349,-0.000209,-0.000232,-0.009908,-0.091367,-0.207619, 0.093970,1, 0.000925,-0.000398, 0.003578,1, 0.112673, 0.022859, 9.805976,1,0
1778253712325,   406.232,   406.232,-0.014260,-0.009598,-0.990322,-0.000152,-0.000121,-0.009910,-0.026971,-0.071351, 0.094229,1,-0.002030,-0.000078,-0.001784,1, 0.112872, 0.022709, 9.805974,1,0
1778253712346,   406.257,   406.252, 0.000213, 0.006614,-1.000820,-0.000009, 0.000061,-0.009989, 0.059787, 0.064020, 0.071778,1, 0.000601,-0.000699,-0.003937,1, 0.113040, 0.022621, 9.805972,1,0
1778253712369,   406.277,   406.277, 0.005654, 0.004377,-0.996383, 0.000055, 0.000045,-0.009959, 0.168062, 0.065879, 0.034795,1, 0.000623, 0.001042,-0.000754,1, 0.112583, 0.022976, 9.805977,1,0
1778253712395,   406.302,   406.302, 0.001264, 0.003272,-0.996540, 0.000020, 0.000031,-0.009972, 0.125024, 0.055152, 0.033261,1, 0.000364,-0.000391, 0.002821,1, 0.112645, 0.023076, 9.805976,1,0
1778253712416,   406.327,   406.322,-0.014363,-0.006149,-0.994540,-0.000138,-0.000057,-0.009943, 0.024745, 0.012556, 0.027656,1, 0.001830,-0.000148, 0.004619,1, 0.112577, 0.023289, 9.805976,1,0
1778253712439,   406.347,   406.347,-0.018529,-0.007496,-0.994299,-0.000189,-0.000077,-0.009946,-0.069194,-0.049816, 0.055233,1, 0.001285, 0.000314, 0.001647,1, 0.112507, 0.023732, 9.805976,1,0
1778253712465,   406.372,   406.372,-0.020884,-0.005934,-0.995857,-0.000207,-0.000061,-0.009963,-0.092241,-0.034441, 0.039950,1, 0.000507,-0.000760, 0.000251,1, 0.112581, 0.023766, 9.805975,1,0
1778253712486,   406.397,   406.392,-0.016066,-0.003575,-0.995234,-0.000162,-0.000038,-0.009950,-0.065397,-0.029831, 0.039123,1, 0.000007, 0.000138,-0.001003,1, 0.112500, 0.023681, 9.805976,1,0
1778253712509,   406.417,   406.417,-0.011308,-0.000822,-0.996038,-0.000119,-0.000011,-0.009961, 0.001380, 0.015960, 0.038183,1, 0.000491, 0.000714,-0.000186,1, 0.112252, 0.024043, 9.805978,1,0
1778253712535,   406.442,   406.442,-0.007754,-0.000197,-0.996668,-0.000077,-0.000001,-0.009971, 0.036139, 0.022144, 0.032003,1, 0.000399,-0.000251,-0.000734,1, 0.112190, 0.024093, 9.805979,1,0
1778253712556,   406.467,   406.462,-0.004457,-0.000441,-0.995082,-0.000042,-0.000005,-0.009954, 0.064596, 0.024270, 0.047058,1, 0.001274, 0.000456, 0.000100,1, 0.112150, 0.024239, 9.805979,1,0
1778253712579,   406.487,   406.487,-0.007092,-0.003199,-0.995240,-0.000070,-0.000034,-0.009952, 0.042680,-0.006917, 0.046004,1, 0.000301,-0.000337, 0.000245,1, 0.112243, 0.024462, 9.805977,1,0
1778253712605,   406.512,   406.512,-0.011339,-0.003734,-0.995713,-0.000110,-0.000037,-0.009953, 0.001118,-0.012105, 0.041361,1,-0.000312,-0.000516, 0.001991,1, 0.112336, 0.024504, 9.805976,1,0
1778253712626,   406.537,   406.532,-0.015320,-0.001085,-0.996640,-0.000154,-0.000016,-0.009964,-0.035497,-0.004083, 0.045711,1,-0.000233, 0.001336,-0.000019,1, 0.112178, 0.024437, 9.805978,1,0
1778253712649,   406.562,   406.557,-0.016529,-0.001207,-0.996118,-0.000165,-0.000013,-0.009958,-0.050038, 0.012768, 0.037394,1, 0.000711, 0.000156, 0.000667,1, 0.112047, 0.024623, 9.805979,1,0
1778253712675,   406.582,   406.582,-0.015439,-0.001132,-0.995830,-0.000154,-0.000007,-0.009959,-0.039422, 0.013728, 0.040226,1, 0.001045, 0.000215, 0.000758,1, 0.111974, 0.024865, 9.805979,1,0
1778253712697,   406.607,   406.602,-0.011056,-0.001407,-0.996687,-0.000113,-0.000014,-0.009964,-0.017585, 0.010044, 0.042141,1, 0.000804, 0.000882, 0.000879,1, 0.111864, 0.024950, 9.805981,1,0
1778253712719,   406.632,   406.627,-0.007789,-0.003049,-0.995589,-0.000078,-0.000026,-0.009952, 0.035447,-0.004652, 0.042583,1, 0.001782, 0.000252, 0.001660,1, 0.111825, 0.025303, 9.805980,1,0
1778253712745,   406.652,   406.652,-0.005755,-0.006010,-0.995084,-0.000058,-0.000058,-0.009949, 0.055330,-0.033435, 0.047541,1, 0.000929, 0.000462, 0.000893,1, 0.111752, 0.025534, 9.805980,1,0
1778253712767,   406.677,   406.672,-0.007978,-0.008701,-0.994030,-0.000080,-0.000089,-0.009943, 0.040265,-0.054912, 0.043565,1,-0.000378, 0.000248, 0.000586,1, 0.111822, 0.025483, 9.805980,1,0
1778253712789,   406.702,   406.697,-0.011773,-0.005062,-0.995710,-0.000115,-0.000056,-0.009958,-0.003563,-0.024539, 0.041395,1,-0.002421,-0.000738,-0.002056,1, 0.111913, 0.025025, 9.805980,1,0
1778253712815,   406.722,   406.722,-0.012541,-0.001992,-0.996279,-0.000126,-0.000021,-0.009962,-0.011115, 0.005212, 0.035821,1,-0.002147, 0.000228,-0.002142,1, 0.111858, 0.024682, 9.805981,1,0
1778253712837,   406.747,   406.742,-0.013070, 0.002569,-0.996569,-0.000132, 0.000023,-0.009969,-0.017357, 0.033750, 0.038341,1,-0.002014,-0.000607,-0.001513,1, 0.112051, 0.024266, 9.805980,1,0
1778253712860,   406.772,   406.767,-0.013755, 0.001734,-0.996910,-0.000138, 0.000020,-0.009970,-0.022805, 0.041005, 0.029629,1,-0.000509,-0.000729, 0.000070,1, 0.112113, 0.023985, 9.805980,1,0
1778253712885,   406.792,   406.792,-0.012958,-0.001276,-0.996458,-0.000129,-0.000012,-0.009963,-0.014996, 0.011538, 0.034069,1, 0.000364, 0.000473,-0.000139,1, 0.112063, 0.024062, 9.805980,1,0
1778253712907,   406.817,   406.812,-0.010758,-0.003804,-0.995655,-0.000107,-0.000037,-0.009959, 0.002825,-0.008504, 0.038244,1, 0.000157,-0.000104, 0.000061,1, 0.111877, 0.024208, 9.805982,1,0
1778253712930,   406.842,   406.837,-0.010030,-0.003835,-0.995494,-0.000100,-0.000036,-0.009954, 0.013532,-0.013354, 0.043515,1, 0.000492, 0.000217, 0.000861,1, 0.111891, 0.024270, 9.805982,1,0
1778253712955,   406.862,   406.862,-0.009481,-0.003629,-0.995703,-0.000096,-0.000037,-0.009958, 0.018901,-0.011376, 0.041474,1,-0.000789, 0.000034, 0.000165,1, 0.111875, 0.024189, 9.805982,1,0
1778253712977,   406.887,   406.882,-0.010323,-0.000655,-0.996278,-0.000102,-0.000008,-0.009965, 0.011618, 0.008843, 0.040063,1,-0.000381, 0.000351,-0.000297,1, 0.111827, 0.024137, 9.805983,1,0
1778253713004,   406.912,   406.912,-0.011828,-0.001518,-0.996099,-0.000117,-0.000014,-0.009963,-0.004129, 0.009318, 0.037588,1, 0.000331,-0.000002, 0.000540,1, 0.111865, 0.024216, 9.805982,1,0
1778253713025,   406.932,   406.932,-0.012454,-0.004096,-0.995528,-0.000124,-0.000040,-0.009952,-0.010232,-0.015961, 0.043189,1, 0.000210,-0.000274, 0.000776,1, 0.111906, 0.024214, 9.805982,1,0
1778253713047,   406.957,   406.952,-0.012130,-0.003896,-0.995236,-0.000121,-0.000038,-0.009952,-0.008049,-0.023722, 0.043823,1,-0.000631,-0.000881,-0.000470,1, 0.111953, 0.024156, 9.805982,1,1
1778253713074,   406.982,   406.982,-0.011961,-0.001623,-0.996226,-0.000122,-0.000020,-0.009956,-0.005365, 0.008142, 0.036340,1,-0.000398, 0.000296,-0.001086,1, 0.111921, 0.024043, 9.805982,1,1
1778253713096,   407.007,   407.002,-0.010577, 0.000209,-0.996623,-0.000104, 0.000005,-0.009968, 0.002992, 0.017107, 0.032136,1, 0.000425,-0.000084,-0.000051,1, 0.111889, 0.024015, 9.805983,1,1
1778253713117,   407.027,   407.022,-0.011215,-0.002132,-0.996012,-0.000111,-0.000016,-0.009958, 0.004126, 0.021793, 0.034905,1, 0.000050,-0.000544, 0.000573,1, 0.111908, 0.024054, 9.805982,1,1
1778253713144,   407.052,   407.052,-0.011867,-0.005666,-0.995500,-0.000116,-0.000050,-0.009956,-0.004450,-0.031399, 0.043458,1,-0.000079,-0.000184, 0.000016,1, 0.111928, 0.024158, 9.805982,1,1
1778253713166,   407.077,   407.072,-0.011956,-0.004525,-0.995029,-0.000122,-0.000049,-0.009950,-0.005208,-0.028667, 0.042356,1,-0.000485, 0.000399, 0.000005,1, 0.111900, 0.024090, 9.805982,1,1
1778253713187,   407.097,   407.092,-0.011368,-0.001108,-0.995716,-0.000114,-0.000012,-0.009956,-0.000155, 0.001362, 0.038964,1,-0.000527, 0.001055,-0.000537,1, 0.111802, 0.024083, 9.805984,1,1
1778253713214,   407.122,   407.122,-0.010762,-0.000176,-0.996328,-0.000108,-0.000003,-0.009961, 0.006282, 0.022334, 0.035338,1,-0.000209,-0.000026, 0.000149,1, 0.111821, 0.024049, 9.805983,1,1
1778253713236,   407.147,   407.142,-0.011004,-0.002834,-0.996056,-0.000111,-0.000026,-0.009959, 0.000790, 0.012551, 0.043551,1, 0.000576, 0.000320, 0.000428,1, 0.111808, 0.024094, 9.805983,1,1
1778253713257,   407.167,   407.162,-0.011687,-0.004193,-0.995311,-0.000117,-0.000041,-0.009953,-0.001139,-0.012339, 0.045547,1, 0.000189, 0.000779, 0.000258,1, 0.111765, 0.024113, 9.805984,1,1
1778253713284,   407.192,   407.192,-0.011862,-0.004093,-0.995421,-0.000119,-0.000042,-0.009953,-0.004527,-0.016135, 0.044234,1,-0.000594, 0.000001,-0.000765,1, 0.111799, 0.023989, 9.805984,1,1
1778253713306,   407.217,   407.212,-0.011354,-0.002033,-0.995541,-0.000115,-0.000020,-0.009952,-0.002695, 0.001172, 0.044341,1,-0.000121,-0.001488,-0.000774,1, 0.111932, 0.023967, 9.805982,1,1
1778253713327,   407.237,   407.232,-0.011511,-0.000370,-0.996055,-0.000117,-0.000003,-0.009956, 0.001375, 0.019565, 0.034743,1,-0.000885, 0.000395,-0.000655,1, 0.111937, 0.023890, 9.805982,1,1
1778253713354,   407.262,   407.262,-0.012283,-0.000684,-0.995967,-0.000124,-0.000005,-0.009960,-0.008494, 0.017161, 0.038880,1, 0.000862,-0.000485, 0.000086,1, 0.111981, 0.023898, 9.805982,1,1
1778253713376,   407.287,   407.282,-0.012015,-0.002295,-0.995847,-0.000123,-0.000023,-0.009956,-0.007667, 0.013395, 0.036588,1, 0.001674, 0.000969, 0.000852,1, 0.111896, 0.024078, 9.805982,1,1
1778253713397,   407.307,   407.302,-0.012112,-0.004367,-0.995366,-0.000120,-0.000044,-0.009956,-0.004339,-0.009235, 0.041083,1, 0.000304, 0.000006, 0.000681,1, 0.111887, 0.024166, 9.805982,1,1
1778253713424,   407.332,   407.332,-0.011091,-0.002911,-0.996361,-0.000111,-0.000033,-0.009964, 0.003043,-0.004319, 0.035019,1,-0.000482,-0.000162, 0.000544,1, 0.111811, 0.024217, 9.805983,1,1
1778253713446,   407.357,   407.352,-0.009808,-0.000877,-0.994929,-0.000097,-0.000009,-0.009952, 0.013151, 0.011196, 0.029433,1, 0.000468,-0.000624,-0.000694,1, 0.111802, 0.024301, 9.805983,1,1
1778253713468,   407.377,   407.372,-0.010889,-0.000405,-0.995440,-0.000108,-0.000002,-0.009955, 0.015095, 0.028890, 0.031167,1, 0.000433, 0.000738, 0.000751,1, 0.111709, 0.024323, 9.805984,1,1
1778253713494,   407.402,   407.402,-0.010745,-0.004410,-0.995517,-0.000107,-0.000044,-0.009956, 0.006454,-0.018782, 0.043293,1, 0.000461,-0.001103, 0.000239,1, 0.111858, 0.024477, 9.805982,1,1
1778253713516,   407.427,   407.422,-0.011523,-0.005256,-0.994703,-0.000114,-0.000052,-0.009952, 0.007674,-0.016255, 0.042155,1,-0.000055, 0.000263,-0.000569,1, 0.111790, 0.024401, 9.805983,1,1
1778253713539,   407.447,   407.447,-0.011278,-0.005456,-0.996276,-0.000111,-0.000059,-0.009966, 0.001183,-0.029241, 0.035854,1,-0.001112,-0.000860,-0.000437,1, 0.111807, 0.024232, 9.805983,1,1
1778253713565,   407.472,   407.472,-0.010722, 0.003021,-0.996559,-0.000106, 0.000018,-0.009962, 0.006681, 0.053771, 0.033080,1,-0.000095, 0.000167,-0.001419,1, 0.111826, 0.024139, 9.805983,1,1
1778253713586,   407.497,   407.492,-0.011135,-0.011108,-0.995845,-0.000105,-0.000102,-0.009962, 0.015536, 0.011586, 0.041903,1,-0.000406, 0.000995, 0.001086,1, 0.111617, 0.024141, 9.805985,1,1
1778253713609,   407.517,   407.517,-0.014099,-0.003623,-0.996123,-0.000145,-0.000044,-0.009962,-0.026674,-0.011808, 0.037351,1,-0.001775, 0.001651,-0.002038,1, 0.111543, 0.023667, 9.805987,1,1
1778253713635,   407.542,   407.542,-0.014570, 0.006172,-0.997456,-0.000147, 0.000078,-0.009980,-0.031379, 0.084042, 0.024284,1, 0.000976, 0.000229,-0.000985,1, 0.111498, 0.023547, 9.805988,1,1
1778253713656,   407.567,   407.562,-0.013704, 0.006320,-0.992967,-0.000136, 0.000056,-0.009934,-0.015604, 0.044390, 0.001417,1, 0.001757,-0.000688, 0.001279,1, 0.111646, 0.023771, 9.805985,1,1
1778253713679,   407.587,   407.587,-0.012712, 0.004807,-0.999220,-0.000123, 0.000056,-0.009980,-0.013124, 0.071459, 0.006980,1, 0.002584,-0.000746, 0.004330,1, 0.111562, 0.024393, 9.805985,1,1
1778253713705,   407.612,   407.612,-0.015036,-0.022588,-0.991966,-0.000120,-0.000220,-0.009922,-0.035933,-0.196817, 0.078121,1,-0.001868,-0.000192, 0.003975,1, 0.111546, 0.024586, 9.805984,1,1
1778253713726,   407.637,   407.632,-0.001493,-0.038049,-0.990068,-0.000028,-0.000393,-0.009872, 0.058097,-0.338639, 0.086590,1,-0.002073,-0.003810,-0.004733,1, 0.112611, 0.024105, 9.805974,1,1
1778253713749,   407.657,   407.657,-0.013564,-0.008087,-0.995732,-0.000091,-0.000089,-0.009975,-0.020214,-0.057235, 0.041181,1,-0.008116,-0.003600,-0.013099,1, 0.112917, 0.021821, 9.805976,1,1
1778253713775,   407.682,   407.682, 0.004308, 0.014885,-0.991917, 0.000042, 0.000135,-0.010174, 0.157657, 0.163843, 0.078573,1,-0.029460,-0.028998,-0.014739,1, 0.116319, 0.016955, 9.805945,1,1
1778253713796,   407.707,   407.702,-0.020455, 0.025068,-0.954483,-0.000195, 0.000253,-0.009391, 0.063984, 0.146899,-0.609471,1,-0.026706,-0.021699, 0.001693,1, 0.116896, 0.012058, 9.805945,1,1
1778253713819,   407.727,   407.727,-0.018922, 0.024432,-0.975390,-0.000168, 0.000221,-0.009676,-0.064451, 0.243172, 0.240589,1,-0.036510,-0.016246, 0.010057,1, 0.121617, 0.002431, 9.805896,1,1
1778253713845,   407.752,   407.752,-0.102088, 0.090556,-0.851200,-0.000683, 0.000403,-0.009012,-0.875821, 0.885262, 1.458429,1,-0.006702, 0.021931, 0.019132,1, 0.124636,-0.003007, 9.805858,1,1
1778253713867,   407.777,   407.772, 0.002146,-0.023637,-1.136387,-0.000206,-0.000154,-0.010496,-0.222989,-0.674352, 1.878327,1, 0.059256,-0.014611, 0.002586,1, 0.114564, 0.019904, 9.805961,1,1
1778253713889,   407.802,   407.797, 0.000651,-0.016434,-1.074168,-0.000098,-0.000137,-0.010453, 0.119786,-0.141763,-0.728011,1, 0.001469, 0.001744,-0.000475,1, 0.113349, 0.019446, 9.805976,1,1
1778253713915,   407.822,   407.822, 0.000103,-0.002996,-1.067126,-0.000079,-0.000111,-0.010401, 0.115293,-0.009175,-0.658970,1,-0.006019, 0.010581,-0.003300,1, 0.113957, 0.020020, 9.805967,1,1
1778253713937,   407.847,   407.842,-0.003503, 0.001746,-0.952315,-0.000008, 0.000080,-0.009788, 0.214049, 0.263926,-0.452609,1,-0.009021, 0.000226,-0.002398,1, 0.114016, 0.019949, 9.805967,1,1
1778253713959,   407.872,   407.867,-0.002349, 0.006242,-0.969003, 0.000024, 0.000115,-0.009915, 0.091239, 0.082180, 0.303288,1, 0.009358,-0.003233, 0.001827,1, 0.114374, 0.021258, 9.805960,1,1
1778253713985,   407.892,   407.892,-0.005475, 0.001179,-0.979442,-0.000032, 0.000039,-0.009925, 0.060381, 0.032984, 0.200920,1, 0.005922,-0.000366, 0.004720,1, 0.114081, 0.021601, 9.805963,1,1
1778253714007,   407.917,   407.912,-0.010000, 0.042828,-1.016876,-0.000123, 0.000534,-0.010201,-0.005721, 0.429762,-0.013074,1, 0.009974,-0.003089, 0.007083,1, 0.114452, 0.022452, 9.805957,1,1
1778253714029,   407.942,   407.937,-0.015321,-0.027099,-0.979385,-0.000109,-0.000271,-0.009788,-0.037506,-0.241048, 0.201489,1,-0.019673,-0.007777, 0.022625,1, 0.112986, 0.024076, 9.805969,1,1
1778253714055,   407.962,   407.962,-0.034881,-0.062926,-0.983290,-0.000415,-0.000572,-0.009795,-0.227368,-0.593896, 0.163166,1, 0.007242, 0.016656, 0.000802,1, 0.114176, 0.023428, 9.805958,1,1
1778253714077,   407.987,   407.982,-0.023950,-0.027203,-0.974213,-0.000245,-0.000292,-0.009799,-0.014142,-0.126168, 0.108308,1,-0.005119,-0.007592,-0.011238,1, 0.113381, 0.023224, 9.805967,1,1
1778253714100,   408.012,   408.007,-0.018492,-0.013293,-0.981533,-0.000162,-0.000163,-0.010011,-0.067561,-0.107825, 0.180409,1, 0.002726,-0.003615,-0.017714,1, 0.113863, 0.022772, 9.805963,1,1
1778253714125,   408.032,   408.032, 0.006619, 0.020139,-1.010725, 0.000067, 0.000087,-0.010105, 0.177546, 0.220230,-0.105851,1,-0.008614, 0.000599,-0.011566,1, 0.112616, 0.022474, 9.805978,1,1
1778253714147,   408.057,   408.052,-0.004472, 0.034068,-0.978995,-0.000052, 0.000366,-0.009787, 0.015993, 0.667242, 0.003564,1, 0.002506, 0.001237, 0.001497,1, 0.113909, 0.021676, 9.805964,1,1
1778253714170,   408.082,   408.077,-0.013580,-0.010869,-0.997728,-0.000091,-0.000099,-0.010107,-0.018691,-0.084024, 0.021584,1, 0.009255,-0.006540, 0.005800,1, 0.114686, 0.022848, 9.805953,1,1
1778253714195,   408.102,   408.102,-0.004548,-0.014174,-1.003607,-0.000010,-0.000177,-0.010035, 0.033633,-0.139222, 0.171326,1, 0.006746, 0.014939, 0.005036,1, 0.113206, 0.023581, 9.805968,1,1
1778253714217,   408.127,   408.122,-0.012377,-0.015638,-0.998259,-0.000107,-0.000164,-0.010072,-0.027005,-0.243423,-0.020596,1,-0.003782, 0.003847,-0.003115,1, 0.113397, 0.023460, 9.805966,1,1
1778253714244,   408.152,   408.152,-0.010106, 0.002261,-1.012727,-0.000091, 0.000040,-0.010132, 0.014267, 0.044608,-0.125490,1,-0.000897, 0.000057,-0.003510,1, 0.113372, 0.022404, 9.805969,1,1
1778253714265,   408.172,   408.172,-0.015780, 0.011453,-1.005049,-0.000138, 0.000096,-0.010046,-0.041274, 0.134310,-0.050190,1,-0.002812, 0.000478,-0.000836,1, 0.113461, 0.021905, 9.805969,1,1
1778253714287,   408.197,   408.192,-0.015426, 0.006219,-1.000672,-0.000132, 0.000078,-0.010020,-0.021380, 0.138601, 0.086919,1,-0.002384,-0.001068, 0.001998,1, 0.113721, 0.021737, 9.805966,1,1
1778253714314,   408.222,   408.222,-0.015470, 0.006355,-0.996307,-0.000148, 0.000052,-0.009952,-0.038744, 0.083794, 0.035545,1, 0.002149, 0.002384, 0.002410,1, 0.112888, 0.021529, 9.805977,1,1
1778253714336,   408.247,   408.242,-0.009932,-0.017596,-0.996178,-0.000105,-0.000189,-0.009976,-0.025045,-0.190247, 0.067872,1, 0.003002,-0.000640, 0.001466,1, 0.113306, 0.022340, 9.805970,1,1
1778253714357,   408.267,   408.262,-0.010761,-0.007161,-0.994699,-0.000113,-0.000072,-0.009937, 0.013619,-0.077169, 0.061587,1,-0.000890, 0.000252,-0.000531,1, 0.113113, 0.022511, 9.805972,1,1
1778253714384,   408.292,   408.292,-0.006470,-0.003265,-0.993748,-0.000069,-0.000038,-0.009951, 0.049825,-0.009751, 0.060628,1,-0.000200,-0.000498,-0.001071,1, 0.113293, 0.022258, 9.805970,1,1
1778253714406,   408.317,   408.312,-0.008693, 0.004831,-0.998339,-0.000083, 0.000051,-0.009967, 0.061095, 0.067141, 0.055251,1,-0.001480,-0.000088,-0.001134,1, 0.113165, 0.022017, 9.805972,1,1
1778253714427,   408.337,   408.332,-0.009960, 0.005913,-0.993769,-0.000097, 0.000064,-0.009941, 0.015971, 0.091218, 0.004862,1, 0.001114,-0.000251,-0.000275,1, 0.113115, 0.021924, 9.805973,1,1
1778253714454,   408.362,   408.362,-0.011330,-0.005977,-0.996210,-0.000115,-0.000066,-0.009951, 0.002013,-0.036593, 0.036488,1, 0.000213, 0.000642, 0.001458,1, 0.113106, 0.022029, 9.805973,1,1
1778253714476,   408.387,   408.382,-0.036977,-0.007073,-1.103603,-0.000217,-0.000114,-0.010359,-0.088421,-0.049744, 0.067802,1,-0.000181, 0.000158, 0.001334,1, 0.112959, 0.022094, 9.805975,1,1
1778253714497,   408.407,   408.402,-0.013586,-0.012928,-1.037208,-0.000144,-0.000075,-0.010142,-0.151765,-0.244332, 0.405531,1,-0.000153,-0.009520, 0.001569,1, 0.112835, 0.022402, 9.805975,1,1
1778253714524,   408.432,   408.432,-0.001873, 0.005408,-1.014714,-0.000036, 0.000028,-0.010063, 0.093967, 0.074900,-0.144966,1,-0.002953, 0.001301,-0.002662,1, 0.112295, 0.021770, 9.805983,1,1
1778253714546,   408.457,   408.452,-0.007048, 0.000959,-0.983645,-0.000099, 0.000038,-0.009780, 0.011735, 0.080413,-0.142140,1, 0.000517,-0.004027,-0.000506,1, 0.112605, 0.021833, 9.805979,1,1
1778253714567,   408.477,   408.472,-0.008897,-0.002852,-0.981694,-0.000083,-0.000017,-0.009802, 0.053567, 0.087729,-0.093558,1, 0.001067,-0.001745, 0.001677,1, 0.112728, 0.021959, 9.805978,1,1
1778253714594,   408.502,   408.502,-0.014557,-0.006124,-0.986555,-0.000129,-0.000052,-0.009881,-0.029966,-0.037769, 0.131181,1, 0.002568, 0.001600, 0.001838,1, 0.112735, 0.022365, 9.805977,1,1
1778253714616,   408.527,   408.522,-0.011827,-0.012054,-0.996024,-0.000107,-0.000127,-0.010006,-0.010760,-0.089706, 0.113963,1,-0.000107, 0.000675, 0.000634,1, 0.112769, 0.022339, 9.805976,1,1
1778253714638,   408.547,   408.542,-0.013221,-0.001522,-0.999655,-0.000130,-0.000022,-0.010025,-0.020012,-0.050982, 0.089127,1,-0.003160, 0.001802,-0.002464,1, 0.112621, 0.021987, 9.805979,1,1
1778253714665,   408.572,   408.572,-0.010339, 0.002532,-1.001745,-0.000111, 0.000026,-0.010021, 0.011285, 0.046423,-0.017785,1,-0.001688,-0.001921,-0.001714,1, 0.112738, 0.021541, 9.805978,1,1
1778253714686,   408.597,   408.592,-0.013031, 0.005382,-0.995192,-0.000131, 0.000061,-0.009942, 0.014813, 0.082490,-0.011288,1,-0.000266, 0.000793, 0.000197,1, 0.112733, 0.021461, 9.805979,1,1
1778253714708,   408.617,   408.612,-0.012477,-0.000435,-0.997397,-0.000128, 0.000003,-0.009957,-0.015528, 0.053132, 0.004395,1, 0.001485, 0.000008, 0.001277,1, 0.112739, 0.021611, 9.805978,1,1
1778253714735,   408.642,   408.642,-0.012613,-0.007367,-0.995770,-0.000121,-0.000067,-0.009932,-0.011072,-0.050229, 0.040813,1, 0.000712, 0.000406, 0.001282,1, 0.112602, 0.022043, 9.805979,1,1
1778253714756,   408.667,   408.662,-0.014767,-0.010857,-0.990755,-0.000136,-0.000093,-0.009935,-0.010002,-0.061241, 0.037019,1, 0.000568, 0.001170, 0.000007,1, 0.112385, 0.022253, 9.805981,1,1
1778253714779,   408.687,   408.687,-0.011013,-0.002570,-0.987408,-0.000088,-0.000076,-0.009928, 0.004671,-0.003029, 0.122815,1,-0.001842,-0.001518,-0.001269,1, 0.112715, 0.022115, 9.805977,1,1
1778253714805,   408.712,   408.712,-0.010662, 0.001426,-0.990613,-0.000079, 0.000035,-0.009999, 0.008015, 0.036038, 0.091378,1, 0.001927,-0.003246,-0.000081,1, 0.112678, 0.022117, 9.805978,1,1
1778253714826,   408.737,   408.732,-0.011644, 0.001724,-0.987579,-0.000126, 0.000006,-0.009852, 0.048450, 0.079327,-0.029639,1,-0.000010,-0.002897, 0.001084,1, 0.112564, 0.021861, 9.805980,1,1
1778253714849,   408.757,   408.757,-0.014077,-0.004745,-0.990492,-0.000137,-0.000040,-0.009921,-0.025424,-0.024569, 0.092567,1, 0.000667,-0.001769, 0.001486,1, 0.112684, 0.021981, 9.805978,1,1
1778253714875,   408.782,   408.782,-0.013057,-0.005738,-0.996259,-0.000131,-0.000057,-0.009973,-0.015467,-0.034165, 0.036015,1, 0.000942,-0.000582, 0.000615,1, 0.112598, 0.022139, 9.805979,1,1
1778253714896,   408.807,   408.802,-0.014395,-0.005059,-0.995508,-0.000144,-0.000051,-0.009957,-0.015128,-0.051960, 0.031377,1,-0.000097, 0.000812,-0.000755,1, 0.112540, 0.022152, 9.805979,1,1
1778253714919,   408.827,   408.827,-0.011826, 0.000621,-0.997020,-0.000119, 0.000012,-0.009974,-0.003480, 0.028265, 0.028554,1, 0.000063, 0.000282,-0.000456,1, 0.112482, 0.022181, 9.805980,1,1
1778253714945,   408.852,   408.852,-0.010205, 0.002421,-0.997614,-0.000102, 0.000018,-0.009974, 0.012446, 0.045829, 0.022725,1,-0.000734,-0.000125, 0.000491,1, 0.112529, 0.022065, 9.805980,1,1
1778253714966,   408.877,   408.872,-0.007707, 0.004787,-0.999847,-0.000087, 0.000030,-0.009995, 0.004387, 0.044320, 0.042450,1, 0.000460,-0.000652, 0.000792,1, 0.112568, 0.022120, 9.805979,1,1
1778253714989,   408.897,   408.897,-0.007004, 0.006325,-0.984599,-0.000051,-0.000005,-0.009824, 0.043812, 0.084631, 0.150359,1,-0.002469, 0.002274, 0.002982,1, 0.112424, 0.022521, 9.805980,1,1
1778253715015,   408.922,   408.922,-0.019641,-0.009834,-0.970797,-0.000181,-0.000181,-0.009716,-0.080003,-0.073623, 0.285714,1,-0.003006, 0.003146, 0.000845,1, 0.112514, 0.022718, 9.805978,1,1
1778253715036,   408.947,   408.942,-0.008791,-0.006273,-1.023657,-0.000102,-0.000017,-0.010270,-0.137658, 0.028557, 0.348768,1,-0.008701,-0.000127,-0.001261,1, 0.112738, 0.022699, 9.805976,1,1
1778253715059,   408.967,   408.967,-0.000621, 0.018218,-1.024260,-0.000040, 0.000163,-0.010209, 0.106661, 0.201392,-0.238588,1, 0.003161, 0.004149, 0.000023,1, 0.112617, 0.022832, 9.805977,1,1
1778253715085,   408.992,   408.992,-0.001512, 0.005773,-1.011318,-0.000066, 0.000108,-0.010004, 0.097934, 0.080082,-0.111672,1, 0.002323, 0.001248, 0.005947,1, 0.112725, 0.023537, 9.805974,1,1
1778253715107,   409.017,   409.012,-0.011040,-0.025068,-1.002688,-0.000095,-0.000249,-0.010054,-0.021134,-0.202960, 0.102570,1,-0.004380, 0.003130, 0.001403,1, 0.113035, 0.022982, 9.805971,1,1
1778253715129,   409.042,   409.037,-0.020363,-0.011769,-1.004884,-0.000201,-0.000120,-0.010035,-0.086708,-0.093014,-0.048569,1,-0.001690, 0.002614,-0.006278,1, 0.112904, 0.022354, 9.805975,1,1
1778253715155,   409.062,   409.062,-0.012641, 0.005187,-0.998180,-0.000149, 0.000045,-0.009931,-0.010902, 0.072726, 0.017167,1,-0.004311, 0.001094,-0.005770,1, 0.113025, 0.021725, 9.805975,1,1
1778253715177,   409.087,   409.082,-0.009860, 0.019973,-0.999471,-0.000081, 0.000158,-0.010042, 0.037761, 0.133848,-0.056090,1,-0.003640, 0.002483,-0.003041,1, 0.113035, 0.021173, 9.805976,1,1
1778253715199,   409.112,   409.107,-0.008251, 0.016085,-0.994097,-0.000081, 0.000198,-0.009979, 0.032474, 0.179020, 0.057212,1, 0.003902,-0.002413, 0.004756,1, 0.113467, 0.021397, 9.805970,1,1
1778253715225,   409.132,   409.132,-0.009281,-0.011935,-0.989182,-0.000086,-0.000112,-0.009937, 0.022640,-0.094924, 0.105401,1, 0.006439,-0.000161, 0.005664,1, 0.113665, 0.022321, 9.805965,1,1
1778253715247,   409.157,   409.152,-0.014062,-0.017744,-0.994102,-0.000128,-0.000179,-0.009943,-0.033912,-0.181511, 0.101781,1, 0.004896, 0.000469, 0.002186,1, 0.113482, 0.023206, 9.805966,1,1
1778253715270,   409.182,   409.177,-0.009398,-0.015525,-0.993106,-0.000084,-0.000145,-0.009927, 0.021671,-0.129044, 0.066917,1,-0.001711,-0.001246,-0.002705,1, 0.113877, 0.023151, 9.805962,1,1
1778253715295,   409.202,   409.202,-0.011628,-0.003659,-1.010195,-0.000111, 0.000009,-0.010065,-0.000308,-0.013273,-0.100662,1,-0.001083, 0.000629,-0.003026,1, 0.113706, 0.022574, 9.805964,1,1
1778253715317,   409.227,   409.222,-0.006749, 0.007283,-0.991802,-0.000059, 0.000101,-0.010001, 0.054150, 0.133381,-0.009259,1,-0.003397, 0.000801,-0.001528,1, 0.114035, 0.022573, 9.805961,1,1
1778253715340,   409.252,   409.247,-0.011867, 0.013190,-1.004391,-0.000102, 0.000124,-0.010076,-0.002294, 0.151724,-0.043753,1, 0.003024, 0.001052, 0.001851,1, 0.114053, 0.022472, 9.805961,1,1
1778253715365,   409.272,   409.272,-0.017172,-0.002235,-1.004425,-0.000167, 0.000009,-0.010045,-0.054376, 0.001034,-0.044087,1, 0.005716, 0.001090, 0.003371,1, 0.113991, 0.023130, 9.805961,1,1
1778253715387,   409.297,   409.292,-0.016857,-0.014027,-0.990536,-0.000154,-0.000161,-0.009949,-0.048377,-0.124314, 0.015915,1, 0.000378, 0.003019, 0.001202,1, 0.114089, 0.023341, 9.805959,1,1
1778253715410,   409.322,   409.317,-0.014684,-0.007276,-0.991987,-0.000146,-0.000079,-0.009940,-0.030208,-0.047961, 0.077889,1,-0.001447,-0.000428,-0.002522,1, 0.113803, 0.023344, 9.805962,1,1
1778253715435,   409.342,   409.342,-0.007219,-0.000615,-0.992051,-0.000079,-0.000015,-0.009925, 0.042956, 0.017053, 0.077266,1,-0.001072, 0.000339,-0.002376,1, 0.113742, 0.023049, 9.805964,1,1
1778253715457,   409.367,   409.362,-0.007951, 0.009845,-0.998260,-0.000087, 0.000099,-0.009965, 0.051921, 0.098679, 0.039266,1, 0.000408, 0.001039,-0.000779,1, 0.113521, 0.022890, 9.805966,1,1
1778253715484,   409.392,   409.392,-0.008081, 0.002538,-0.994224,-0.000079, 0.000030,-0.009933, 0.034339, 0.047672, 0.055960,1, 0.000164,-0.001177, 0.002777,1, 0.113624, 0.022791, 9.805965,1,1
1778253715506,   409.412,   409.412,-0.013428,-0.006155,-0.991680,-0.000122,-0.000061,-0.009925,-0.018208,-0.037901, 0.080904,1, 0.000556, 0.000772, 0.002462,1, 0.113443, 0.022383, 9.805968,1,1
1778253715527,   409.437,   409.432,-0.015248,-0.010344,-0.994236,-0.000148,-0.000125,-0.009939,-0.059744,-0.087355, 0.080600,1, 0.000597,-0.003040, 0.001306,1, 0.113406, 0.022435, 9.805968,1,1
1778253715554,   409.462,   409.462,-0.012673,-0.006592,-0.996553,-0.000134,-0.000064,-0.009948,-0.010974,-0.042280, 0.033124,1,-0.001021, 0.000076,-0.002488,1, 0.113298, 0.022339, 9.805970,1,1
1778253715576,   409.487,   409.482,-0.009605, 0.006195,-0.996291,-0.000097, 0.000060,-0.009980,-0.015171, 0.061858, 0.019150,1,-0.000893, 0.001205,-0.002764,1, 0.113373, 0.022086, 9.805970,1,1
1778253715597,   409.507,   409.502,-0.008241, 0.005962,-0.995281,-0.000082, 0.000066,-0.009965, 0.019280, 0.086969, 0.015545,1, 0.000054,-0.001541,-0.000114,1, 0.113681, 0.022027, 9.805966,1,1
1778253715624,   409.532,   409.532,-0.010832, 0.001367,-0.994882,-0.000104, 0.000021,-0.009961, 0.007365, 0.035761, 0.049504,1, 0.002497,-0.000527, 0.002832,1, 0.113612, 0.022430, 9.805966,1,1
1778253715646,   409.557,   409.552,-0.012742,-0.011903,-0.995794,-0.000130,-0.000126,-0.009940,-0.009640,-0.076070, 0.061165,1, 0.001870,-0.000606, 0.002297,1, 0.113636, 0.022820, 9.805965,1,1
1778253715667,   409.577,   409.572,-0.012555,-0.008717,-0.994399,-0.000130,-0.000096,-0.009927,-0.009636,-0.101661, 0.048887,1,-0.000065,-0.000384,-0.000452,1, 0.113657, 0.022838, 9.805964,1,1
1778253715694,   409.602,   409.602,-0.012135,-0.002488,-0.994501,-0.000126,-0.000034,-0.009929,-0.005146,-0.001805, 0.053244,1,-0.002342,-0.000768,-0.002707,1, 0.113877, 0.022517, 9.805963,1,1
1778253715716,   409.627,   409.622,-0.009304, 0.007862,-0.998959,-0.000091, 0.000082,-0.009991, 0.024993, 0.079510, 0.042505,1,-0.000967, 0.000376,-0.001296,1, 0.113944, 0.022762, 9.805962,1,1
1778253715737,   409.647,   409.642,-0.010783, 0.004466,-0.997945,-0.000108, 0.000052,-0.009978, 0.011975, 0.097164, 0.042487,1,-0.000046, 0.000680, 0.000545,1, 0.113894, 0.022653, 9.805963,1,1
1778253715764,   409.672,   409.672,-0.013293,-0.002817,-0.996345,-0.000133,-0.000025,-0.009962,-0.016556,-0.004694, 0.035157,1, 0.001809, 0.000540, 0.002010,1, 0.113783, 0.022988, 9.805963,1,1
1778253715786,   409.697,   409.692,-0.014208,-0.011145,-0.994774,-0.000144,-0.000112,-0.009953,-0.026393,-0.070376, 0.045634,1, 0.002625, 0.000124, 0.000351,1, 0.113810, 0.023400, 9.805962,1,1
1778253715807,   409.717,   409.712,-0.012057,-0.006602,-0.993402,-0.000121,-0.000073,-0.009941,-0.014561,-0.069592, 0.043271,1,-0.000121, 0.000402,-0.000269,1, 0.113772, 0.023445, 9.805962,1,1
1778253715834,   409.742,   409.742,-0.010505,-0.000354,-0.996330,-0.000105,-0.000006,-0.009965, 0.010652, 0.019657, 0.035300,1,-0.000891, 0.000470,-0.002249,1, 0.113659, 0.023099, 9.805964,1,1
1778253715856,   409.767,   409.762,-0.008771, 0.005143,-0.996802,-0.000088, 0.000052,-0.009964, 0.026929, 0.070199, 0.028695,1,-0.000695,-0.000080,-0.000628,1, 0.113629, 0.022885, 9.805965,1,1
1778253715878,   409.787,   409.782,-0.011068, 0.001048,-0.996059,-0.000107, 0.000015,-0.009964, 0.021556, 0.060489, 0.022610,1, 0.000530, 0.000760, 0.000682,1, 0.113526, 0.022832, 9.805966,1,1
1778253715905,   409.812,   409.812,-0.011940,-0.005252,-0.995934,-0.000119,-0.000047,-0.009955,-0.003615,-0.028805, 0.039195,1, 0.001077, 0.000090, 0.001498,1, 0.113462, 0.022673, 9.805967,1,1
1778253715926,   409.837,   409.832,-0.013573,-0.007886,-0.994807,-0.000136,-0.000081,-0.009949,-0.023550,-0.062160, 0.049510,1, 0.000551,-0.000399, 0.000259,1, 0.113584, 0.022785, 9.805965,1,1
1778253715948,   409.857,   409.852,-0.012406,-0.003768,-0.995615,-0.000126,-0.000040,-0.009956,-0.008872,-0.033260, 0.044118,1,-0.001180,-0.000839,-0.000950,1, 0.113596, 0.022712, 9.805965,1,1
1778253715975,   409.882,   409.882,-0.010928, 0.001610,-0.996854,-0.000110, 0.000013,-0.009968, 0.006377, 0.038339, 0.030170,1,-0.000665,-0.000702,-0.000719,1, 0.113562, 0.022526, 9.805966,1,1
1778253715996,   409.907,   409.902,-0.010511, 0.002817,-0.996280,-0.000104, 0.000030,-0.009966, 0.017801, 0.058298, 0.031290,1, 0.000290, 0.000559,-0.000878,1, 0.113565, 0.022494, 9.805966,1,1
1778253716019,   409.927,   409.927,-0.011018,-0.000432,-0.996062,-0.000110,-0.000004,-0.009961, 0.005605, 0.018324, 0.037935,1, 0.000454,-0.000437, 0.001505,1, 0.113668, 0.022572, 9.805965,1,1
1778253716045,   409.952,   409.952,-0.011209,-0.004747,-0.999078,-0.000120,-0.000050,-0.009973, 0.003704,-0.023744, 0.008359,1, 0.000936, 0.001164, 0.001567,1, 0.113596, 0.022833, 9.805965,1,1
1778253716066,   409.977,   409.972,-0.008682,-0.001875,-0.996588,-0.000071,-0.000089,-0.009990, 0.019112,-0.054971, 0.002464,1,-0.003966,-0.002800,-0.000872,1, 0.113765, 0.022518, 9.805964,1,1
1778253716089,   409.997,   409.997, 0.000450, 0.008286,-0.986844, 0.000014, 0.000092,-0.009902, 0.118309, 0.103407, 0.128327,1,-0.005039,-0.001662,-0.002300,1, 0.113949, 0.021997, 9.805964,1,1
1778253716115,   410.022,   410.022,-0.012095,-0.015157,-1.010430,-0.000062,-0.000152,-0.010082,-0.004682,-0.127371,-0.102972,1,-0.001363, 0.003579,-0.002621,1, 0.113812, 0.021226, 9.805966,1,1
1778253716136,   410.047,   410.042,-0.013369, 0.001610,-0.997643,-0.000107,-0.000057,-0.009873, 0.039757, 0.025666, 0.110510,1, 0.005949, 0.005937,-0.000766,1, 0.112920, 0.021192, 9.805977,1,1
1778253716159,   410.067,   410.067,-0.030631,-0.032198,-0.992177,-0.000330,-0.000265,-0.009844,-0.186652,-0.295172, 0.076032,1, 0.000712, 0.013993,-0.002622,1, 0.113300, 0.020602, 9.805974,1,1
1778253716185,   410.092,   410.092,-0.055398, 0.075014,-1.023805,-0.000480, 0.000608,-0.010161,-0.429078, 0.755487,-0.234134,1, 0.004197,-0.003653,-0.002582,1, 0.114305, 0.019983, 9.805964,1,1
1778253716206,   410.117,   410.112,-0.020175,-0.009086,-1.066649,-0.000102, 0.000022,-0.010858,-0.067305,-0.132662, 0.445222,1,-0.020811, 0.009143, 0.009049,1, 0.110979, 0.021991, 9.805997,1,1
1778253716229,   410.137,   410.137, 0.012919,-0.002258,-1.010179, 0.000046,-0.000179,-0.009945, 0.239051, 0.000128,-0.100490,1,-0.010836, 0.033579,-0.001437,1, 0.111313, 0.021935, 9.805994,1,1
1778253716255,   410.162,   410.162,-0.022111,-0.004477,-0.972954,-0.000255, 0.000056,-0.009719,-0.102800,-0.021290, 0.264537,1, 0.010186,-0.002440, 0.003161,1, 0.114115, 0.022935, 9.805959,1,1
1778253716277,   410.187,   410.182, 0.013803,-0.004684,-0.953745, 0.000102,-0.000068,-0.009367, 0.252255,-0.151574,-0.013776,1, 0.004525,-0.015834,-0.000648,1, 0.113423, 0.024000, 9.805964,1,1
1778253716299,   410.207,   410.207,-0.002193,-0.019705,-0.959232, 0.000013,-0.000235,-0.009659, 0.091814,-0.170060, 0.399118,1,-0.007643,-0.005282,-0.002624,1, 0.113486, 0.022941, 9.805966,1,1
1778253716325,   410.232,   410.232, 0.003460, 0.000090,-1.021322, 0.000001,-0.000048,-0.010071, 0.091955, 0.070689, 0.126538,1, 0.001730,-0.003890,-0.004593,1, 0.113189, 0.022439, 9.805971,1,1
1778253716347,   410.257,   410.252,-0.020294,-0.017793,-0.988735,-0.000213,-0.000196,-0.009899, 0.006854,-0.078989,-0.168587,1,-0.003244,-0.003745,-0.004479,1, 0.113662, 0.021487, 9.805967,1,1
1778253716369,   410.282,   410.277,-0.026838, 0.013665,-1.000017,-0.000255, 0.000127,-0.010018,-0.149500, 0.153808,-0.000844,1,-0.006255,-0.004267,-0.006207,1, 0.113828, 0.019611, 9.805970,1,1
1778253716395,   410.302,   410.302,-0.023899, 0.003704,-0.987540,-0.000252, 0.000032,-0.009902,-0.120701, 0.055701, 0.121510,1,-0.000772, 0.004725,-0.004476,1, 0.113518, 0.019352, 9.805974,1,1
1778253716417,   410.327,   410.322,-0.018864, 0.001450,-0.993643,-0.000229, 0.000019,-0.009880,-0.128054, 0.065545, 0.038051,1, 0.000564,-0.004138,-0.001794,1, 0.114282, 0.019217, 9.805965,1,1
1778253716440,   410.352,   410.347,-0.018184, 0.006034,-0.989353,-0.000183, 0.000054,-0.009882,-0.064640, 0.078585, 0.103734,1, 0.001321,-0.000956, 0.000692,1, 0.113715, 0.019450, 9.805971,1,1
1778253716465,   410.372,   410.372,-0.006103,-0.003378,-0.991370,-0.000064,-0.000022,-0.009936, 0.052733,-0.012969, 0.083966,1, 0.004801, 0.003978, 0.003434,1, 0.112461, 0.020302, 9.805984,1,1
1778253716487,   410.397,   410.392, 0.000841,-0.002072,-0.984925, 0.000029,-0.000072,-0.009918,-0.002265,-0.111317,-0.063990,1, 0.001870, 0.000818,-0.002789,1, 0.112767, 0.020671, 9.805980,1,1
1778253716510,   410.422,   410.417, 0.006600, 0.011092,-0.992666, 0.000063, 0.000137,-0.009991, 0.176890, 0.129538, 0.071259,1, 0.007102, 0.002853, 0.001471,1, 0.112076, 0.020980, 9.805987,1,1
1778253716535,   410.442,   410.442, 0.009995, 0.007508,-0.999556, 0.000096, 0.000074,-0.010051, 0.209732, 0.095141, 0.003696,1, 0.003814,-0.001059, 0.004045,1, 0.111744, 0.021630, 9.805989,1,1
1778253716557,   410.467,   410.462, 0.016312, 0.019167,-1.059310, 0.000118, 0.000159,-0.010530, 0.200509, 0.046968, 0.061561,1, 0.013729, 0.000683, 0.007611,1, 0.111314, 0.023399, 9.805990,1,1
1778253716580,   410.492,   410.487,-0.014057,-0.018072,-0.939897,-0.000039,-0.000114,-0.009660,-0.027771,-0.142291, 0.588730,1, 0.050811, 0.020088, 0.012579,1, 0.109457, 0.036512, 9.805971,1,1
1778253716605,   410.512,   410.512, 0.056345,-0.044290,-0.997698, 0.000647,-0.000174,-0.010567, 0.658067,-0.396179, 0.021935,1, 0.033071,-0.030131, 0.012737,1, 0.106458, 0.039188, 9.805994,1,1
1778253716627,   410.537,   410.532, 0.039628,-0.008399,-0.999563, 0.000309,-0.000155,-0.009704, 0.511436, 0.433339,-0.516054,1, 0.007988, 0.001544, 0.011193,1, 0.108067, 0.035280, 9.805991,1,1
1778253716650,   410.562,   410.557, 0.034971,-0.008532,-1.054902, 0.000426,-0.000006,-0.010383, 0.447167,-0.048175,-0.539020,1, 0.003137,-0.006584, 0.010117,1, 0.104428, 0.035590, 9.806029,1,1
1778253716676,   410.582,   410.582, 0.072856,-0.000352,-1.044318, 0.000660, 0.000012,-0.010372, 0.811975, 0.031561,-0.435158,1,-0.000132, 0.049238, 0.007513,1, 0.095962, 0.035011, 9.806118,1,1
1778253716697,   410.607,   410.602, 0.100641, 0.012278,-1.011745, 0.000961, 0.000087,-0.009827, 0.707088,-0.203708, 1.138010,1,-0.032145, 0.072193, 0.008979,1, 0.085780, 0.031334, 9.806225,1,1
1778253716724,   410.632,   410.632, 0.097864,-0.021746,-0.965730, 0.000944,-0.000377,-0.009257, 1.035715,-0.189284, 0.335748,1,-0.030974, 0.024973, 0.009540,1, 0.075215, 0.023006, 9.806334,1,1
1778253716746,   410.652,   410.652, 0.035691,-0.072095,-0.906587, 0.000617,-0.000772,-0.008872, 0.425058,-0.682580, 0.915746,1,-0.014876,-0.000496, 0.011012,1, 0.075066, 0.023961, 9.806334,1,1
1778253716767,   410.677,   410.672, 0.069499,-0.015634,-1.118542, 0.000634,-0.000195,-0.011237, 0.520893,-0.423697,-0.482099,1,-0.030842,-0.011900,-0.000422,1, 0.077507, 0.017479, 9.806328,1,1
1778253716794,   410.702,   410.702, 0.120340,-0.026361,-0.987305, 0.001132,-0.000214,-0.009768, 1.249086,-0.238629, 0.124229,1, 0.012710, 0.040496,-0.015039,1, 0.067686, 0.020285, 9.806396,1,1
1778253716816,   410.727,   410.722, 0.091660,-0.020507,-1.037519, 0.001009,-0.000332,-0.010137, 1.102507,-0.627575, 0.241913,1,-0.092522,-0.008409,-0.029335,1, 0.067382, 0.010956, 9.806413,1,1
1778253716837,   410.747,   410.742, 0.090640,-0.058531,-1.068024, 0.000797,-0.000700,-0.010193, 0.818217,-0.532409,-0.511723,1,-0.029523, 0.000538,-0.036568,1, 0.069359,-0.001144, 9.806405,1,1
1778253716864,   410.772,   410.772, 0.085786,-0.066683,-1.041497, 0.000847,-0.000656,-0.010337, 0.900149,-0.654364,-0.407121,1, 0.019684, 0.038074,-0.071460,1, 0.057687, 0.000200, 9.806480,1,1
1778253716886,   410.797,   410.792, 0.093909,-0.057243,-1.120218, 0.000905,-0.000562,-0.011138, 0.895805,-0.498429,-0.478434,1, 0.043243, 0.073746,-0.090575,1, 0.045408, 0.007567, 9.806542,1,1
1778253716907,   410.817,   410.812, 0.084232,-0.034612,-1.086622, 0.000844,-0.000382,-0.010849, 0.868420,-0.450612,-0.758703,1, 0.030294, 0.087880,-0.104204,1, 0.028810, 0.014020, 9.806598,1,1
1778253716934,   410.842,   410.842, 0.083907,-0.076527,-1.027936, 0.000865,-0.000780,-0.010239, 0.819643,-0.732209,-0.273978,1,-0.001414, 0.126229,-0.124057,1,-0.007154, 0.018219, 9.806630,1,1
1778253716956,   410.867,   410.862, 0.084857,-0.061406,-0.936371, 0.000839,-0.000552,-0.009550, 0.873954,-0.233342, 0.172507,1,-0.015666, 0.117965,-0.136511,1,-0.031095, 0.014670, 9.806590,1,1
1778253716977,   410.887,   410.882, 0.099193,-0.040886,-0.941533, 0.000991,-0.000413,-0.009591, 0.957444,-0.677683, 0.362756,1,-0.011047, 0.124623,-0.154031,1,-0.055452, 0.013548, 9.806484,1,1
1778253717004,   410.912,   410.912, 0.096026,-0.068804,-0.945527, 0.000985,-0.000673,-0.009729, 0.862359,-0.660236, 0.533869,1, 0.021119, 0.079427,-0.169091,1,-0.081826, 0.015114, 9.806297,1,1
1778253717026,   410.937,   410.932, 0.083350,-0.030131,-0.916792, 0.000825,-0.000262,-0.009035, 0.813325,-0.266151, 0.601809,1, 0.023393, 0.046784,-0.170833,1,-0.093719, 0.018332, 9.806185,1,1
1778253717048,   410.957,   410.952, 0.086482,-0.017553,-0.904855, 0.000999,-0.000069,-0.009213, 0.785555,-0.043948, 0.856814,1, 0.016326, 0.051524,-0.171810,1,-0.104686, 0.022139, 9.806067,1,1
1778253717074,   410.982,   410.982, 0.098304, 0.020960,-0.968956, 0.000982, 0.000136,-0.009542, 0.853418, 0.233268, 0.303773,1, 0.016895, 0.012771,-0.174978,1,-0.111030, 0.028184, 9.805981,1,1
1778253717096,   411.007,   411.002, 0.060764, 0.018937,-1.106609, 0.000571, 0.000243,-0.010625, 0.380683, 0.186958, 0.344669,1, 0.042859,-0.005727,-0.164964,1,-0.111757, 0.033037, 9.805958,1,1
1778253717118,   411.027,   411.022, 0.059463, 0.086752,-1.055076, 0.000569, 0.000987,-0.010570, 0.552574, 0.450400,-0.098212,1, 0.016909, 0.013379,-0.154404,1,-0.115420, 0.038920, 9.805894,1,1
1778253717145,   411.052,   411.052, 0.110811, 0.027852,-0.953052, 0.000966, 0.000332,-0.009620, 0.967850, 0.314673, 0.459595,1,-0.010631, 0.032130,-0.122517,1,-0.119854, 0.041164, 9.805831,1,1
1778253717166,   411.077,   411.072, 0.070175, 0.024498,-1.024723, 0.000652, 0.000271,-0.009903, 0.669371, 0.456468, 0.761645,1,-0.043651,-0.011824,-0.104540,1,-0.117656, 0.032490, 9.805890,1,1
1778253717188,   411.097,   411.092, 0.055020, 0.027223,-1.095838, 0.000572, 0.000170,-0.010717, 0.413934, 0.190028,-0.136845,1,-0.036787,-0.007550,-0.091085,1,-0.118051, 0.022948, 9.805913,1,1
1778253717215,   411.122,   411.122, 0.064299, 0.005873,-1.023108, 0.000575, 0.000011,-0.010072, 0.510764, 0.079041,-0.227371,1, 0.021367, 0.033007,-0.087060,1,-0.120825, 0.022084, 9.805881,1,1
1778253717236,   411.147,   411.142, 0.084742, 0.022347,-1.025304, 0.000857, 0.000162,-0.010062, 0.350236, 0.079116, 0.403324,1, 0.036017, 0.036593,-0.083824,1,-0.124151, 0.028612, 9.805822,1,1
1778253717259,   411.167,   411.167, 0.053299, 0.022198,-1.008043, 0.000460, 0.000218,-0.009619, 0.390656, 0.251969,-0.079824,1, 0.012063, 0.043823,-0.071981,1,-0.133405, 0.034626, 9.805681,1,1
1778253717285,   411.192,   411.192, 0.058319,-0.002976,-0.933838, 0.000477, 0.000002,-0.008961, 0.433751, 0.006466, 0.647788,1,-0.001596, 0.047336,-0.059796,1,-0.139643, 0.035570, 9.805592,1,1
1778253717306,   411.217,   411.212, 0.072419, 0.010773,-1.020972, 0.000686, 0.000010,-0.010119, 0.083785, 0.133781, 1.440529,1,-0.020898, 0.027298,-0.051362,1,-0.142769, 0.031183, 9.805561,1,1
1778253717329,   411.237,   411.237, 0.053414,-0.019225,-0.989007, 0.000457,-0.000188,-0.009481, 0.379388,-0.163412, 0.106712,1,-0.015923, 0.007983,-0.044293,1,-0.144674, 0.024608, 9.805552,1,1
1778253717355,   411.262,   411.262, 0.029932,-0.014553,-0.939798, 0.000266,-0.000106,-0.008980, 0.153143,-0.119047, 0.589341,1, 0.005050,-0.014057,-0.041889,1,-0.139952, 0.023811, 9.805622,1,1
1778253717376,   411.287,   411.282, 0.041418, 0.029670,-0.983748, 0.000501, 0.000265,-0.010076, 0.153634,-0.216307, 0.741052,1, 0.014345,-0.022262,-0.039840,1,-0.133723, 0.026528, 9.805702,1,1
1778253717399,   411.307,   411.307, 0.041198, 0.009981,-0.989966, 0.000403, 0.000029,-0.009902, 0.284408, 0.125630, 0.097635,1,-0.002717,-0.057459,-0.027610,1,-0.117811, 0.027659, 9.805903,1,1
1778253717425,   411.332,   411.332, 0.044272,-0.002010,-1.010624, 0.000427,-0.000101,-0.009970, 0.326865, 0.004867,-0.104809,1,-0.033943,-0.069512,-0.017682,1,-0.105131, 0.023511, 9.806058,1,1
1778253717446,   411.357,   411.352, 0.015536,-0.003938,-0.959345, 0.000198,-0.000014,-0.009796, 0.231266,-0.000964,-0.030653,1,-0.034190,-0.073085,-0.014489,1,-0.090095, 0.016954, 9.806221,1,1
1778253717469,   411.377,   411.377, 0.004344, 0.010755,-0.991113, 0.000109, 0.000048,-0.010269,-0.026006, 0.116550, 0.086905,1,-0.023553,-0.084386,-0.021902,1,-0.065975, 0.010338, 9.806422,1,1
1778253717495,   411.402,   411.402, 0.010283,-0.017860,-1.036203, 0.000121,-0.000247,-0.010764, 0.046519,-0.167798,-0.355189,1,-0.014536,-0.075159,-0.033284,1,-0.051981, 0.006885, 9.806510,1,1
1778253717517,   411.427,   411.422, 0.027736,-0.052333,-1.013400, 0.000209,-0.000528,-0.009724, 0.187805,-0.433344,-0.677336,1, 0.012613,-0.066523,-0.044321,1,-0.042129, 0.005276, 9.806558,1,1
1778253717539,   411.447,   411.447, 0.025465,-0.036674,-1.015379, 0.000170,-0.000373,-0.009729, 0.218957,-0.352721,-0.150866,1, 0.003087,-0.026725,-0.064786,1,-0.029933, 0.007014, 9.806602,1,1
1778253717565,   411.472,   411.472, 0.041191,-0.019794,-1.044641, 0.000327,-0.000077,-0.010361, 0.379166,-0.186356,-0.437815,1, 0.006841,-0.016342,-0.067327,1,-0.024273, 0.007969, 9.806617,1,1
1778253717587,   411.497,   411.492, 0.085212,-0.012744,-1.080810, 0.000719,-0.000226,-0.010756, 0.495350,-0.270230,-0.385855,1, 0.008098, 0.008704,-0.070919,1,-0.024804, 0.008746, 9.806615,1,1
1778253717609,   411.522,   411.517, 0.081241,-0.023675,-1.036140, 0.000734,-0.000263,-0.010398, 0.766396,-0.221051,-0.354466,1, 0.017848, 0.027102,-0.078879,1,-0.031160, 0.011675, 9.806594,1,1
1778253717635,   411.542,   411.542, 0.086278, 0.005148,-0.969641, 0.000681,-0.000021,-0.009953, 0.810153, 0.064418, 0.297643,1, 0.012852, 0.031749,-0.077317,1,-0.036941, 0.014321, 9.806570,1,1
1778253717657,   411.567,   411.562, 0.048723,-0.009145,-1.044197, 0.000557,-0.000212,-0.009883, 0.728538,-0.354503, 0.964523,1, 0.018548, 0.032418,-0.079961,1,-0.042036, 0.016966, 9.806545,1,1
1778253717680,   411.592,   411.587, 0.049984, 0.021582,-1.060336, 0.000511, 0.000117,-0.010024, 0.443327, 0.228576,-0.591816,1,-0.003412, 0.006955,-0.076886,1,-0.047068, 0.016813, 9.806522,1,1
1778253717705,   411.612,   411.612, 0.066451, 0.012779,-1.039439, 0.000614, 0.000058,-0.010048, 0.603190, 0.145404,-0.386909,1, 0.011132, 0.009461,-0.074883,1,-0.048791, 0.020452, 9.806507,1,1
1778253717727,   411.637,   411.632, 0.062389,-0.017748,-0.956556, 0.000610,-0.000239,-0.009499, 0.704848, 0.086255,-0.256557,1, 0.006178,-0.006077,-0.069915,1,-0.047850, 0.022290, 9.806508,1,1
1778253717750,   411.662,   411.657, 0.044771, 0.024066,-1.002231, 0.000499, 0.000286,-0.010089, 0.394175, 0.254734,-0.021996,1,-0.012340,-0.013422,-0.062540,1,-0.044464, 0.018328, 9.806532,1,1
1778253717775,   411.682,   411.682, 0.066705,-0.005225,-0.992106, 0.000573,-0.000028,-0.010336, 0.610355,-0.035489, 0.077300,1,-0.012349,-0.005160,-0.064637,1,-0.043639, 0.015357, 9.806540,1,1
1778253717797,   411.707,   411.702, 0.072167,-0.014696,-1.007806, 0.000721,-0.000321,-0.009702, 0.617665,-0.268492, 0.155888,1, 0.012829,-0.004548,-0.065395,1,-0.042820, 0.014155, 9.806546,1,1
1778253717820,   411.732,   411.727, 0.059892, 0.008939,-1.005747, 0.000682, 0.000133,-0.009828, 0.545576, 0.100711,-0.056454,1, 0.006872,-0.014842,-0.063328,1,-0.041305, 0.013252, 9.806554,1,1
1778253717845,   411.752,   411.752, 0.071187, 0.012823,-0.970242, 0.000529, 0.000081,-0.009387, 0.658125, 0.140141, 0.291738,1,-0.007294, 0.005826,-0.062603,1,-0.040164, 0.014158, 9.806558,1,1
1778253717867,   411.777,   411.772, 0.064527, 0.011543,-0.955821, 0.000578, 0.000141,-0.009935, 0.764164,-0.103806,-0.154960,1,-0.001668,-0.002957,-0.056921,1,-0.037477, 0.016130, 9.806565,1,1
1778253717890,   411.802,   411.797, 0.061903,-0.024662,-0.989675, 0.000547,-0.000179,-0.010040, 0.574071,-0.226119, 0.101184,1, 0.006163,-0.016797,-0.054234,1,-0.032472, 0.015916, 9.806583,1,1
1778253717916,   411.822,   411.822, 0.048973,-0.016346,-1.014608, 0.000564,-0.000102,-0.010408, 0.449494,-0.142889,-0.143322,1, 0.023066,-0.037885,-0.054322,1,-0.029594, 0.018133, 9.806588,1,1
1778253717937,   411.847,   411.842, 0.073094,-0.006922,-0.947018, 0.000762,-0.000081,-0.009316, 0.373486,-0.000373, 0.422281,1, 0.010123,-0.021734,-0.054449,1,-0.025662, 0.020953, 9.806594,1,1
1778253717964,   411.872,   411.872, 0.039858, 0.052030,-0.922167, 0.000543, 0.000383,-0.009184, 0.376872, 0.530206, 0.763253,1,-0.037324,-0.060558,-0.037526,1,-0.012109, 0.018799, 9.806624,1,1
1778253717986,   411.892,   411.892, 0.045267,-0.030748,-0.997642, 0.000438,-0.000431,-0.009686, 0.440560,-0.287353, 0.023115,1,-0.045322,-0.047091,-0.030095,1,-0.001893, 0.012763, 9.806642,1,1
1778253718007,   411.917,   411.912, 0.069281,-0.026059,-0.907204, 0.000706,-0.000327,-0.009514, 0.289503,-0.368854, 0.122274,1,-0.008757,-0.065274,-0.033636,1, 0.011012, 0.007797, 9.806641,1,1
1778253718034,   411.942,   411.942, 0.037511,-0.066639,-0.931567, 0.000699,-0.000486,-0.009598, 0.396130,-0.644801, 0.671055,1, 0.031220,-0.095699,-0.043301,1, 0.031257, 0.009685, 9.806596,1,1
1778253718056,   411.967,   411.962,-0.070064,-0.079218,-1.289052,-0.000412,-0.000363,-0.011891, 0.125868, 0.348668, 0.212173,1, 0.000959,-0.068866,-0.048089,1, 0.047357, 0.009200, 9.806531,1,1
1778253718077,   411.987,   411.982, 0.159638, 0.057507,-1.521716, 0.000650,-0.001097,-0.012816,-0.131688, 0.155899, 3.882819,1, 0.096283,-0.044688,-0.020792,1, 0.056832, 0.007749, 9.806482,1,1
1778253718104,   412.012,   412.012, 0.138746, 0.131122,-1.415155, 0.000532, 0.000117,-0.013675, 1.421577, 1.275545,-4.071474,1,-0.092757,-0.050085,-0.076134,1, 0.062483,-0.013135, 9.806442,1,1
1778253718126,   412.037,   412.032, 0.011766,-0.022741,-0.900692, 0.000017,-0.000723,-0.008871, 0.925781, 0.126815,-3.692621,1, 0.000949, 0.006331,-0.077026,1, 0.063778,-0.007942, 9.806439,1,1
1778253718147,   412.057,   412.052,-0.044128, 0.009574,-0.962991,-0.000096, 0.000148,-0.009999, 0.194676,-0.059772,-2.540101,1, 0.066629,-0.025717,-0.092993,1, 0.064343, 0.006088, 9.806437,1,1
1778253718174,   412.082,   412.082, 0.047882,-0.005541,-1.076902, 0.000417, 0.000195,-0.010563, 0.517271,-0.029822,-0.754303,1, 0.048315, 0.082747,-0.077141,1, 0.045122, 0.026037, 9.806512,1,1
1778253718196,   412.107,   412.102, 0.029449,-0.075061,-1.003747, 0.000067,-0.000278,-0.010085, 0.384803, 0.354297,-1.453470,1,-0.049078, 0.112205,-0.058923,1, 0.027071, 0.021238, 9.806590,1,1
1778253718217,   412.127,   412.122, 0.035750,-0.034485,-0.984627, 0.000161,-0.000300,-0.009633, 0.133864, 0.566817,-1.452878,1,-0.048283, 0.113815,-0.057491,1, 0.003810, 0.014430, 9.806639,1,1
1778253718244,   412.152,   412.152, 0.025813,-0.008917,-0.912582, 0.000304,-0.000108,-0.009136, 0.216041,-0.070694, 0.857191,1, 0.020884, 0.152534,-0.057037,1,-0.041861, 0.017393, 9.806545,1,1
1778253718266,   412.177,   412.172, 0.015201,-0.023055,-1.014037, 0.000153,-0.000273,-0.010149, 0.333247,-0.213575, 0.215858,1, 0.043814, 0.164464,-0.064684,1,-0.074042, 0.025668, 9.806337,1,1
1778253718288,   412.197,   412.192, 0.005183, 0.042361,-0.969452, 0.000038, 0.000416,-0.009622, 0.073827, 0.281767,-0.015048,1, 0.025795, 0.131558,-0.063703,1,-0.102373, 0.032690, 9.806061,1,1
1778253718315,   412.222,   412.222, 0.037932, 0.002964,-0.980507, 0.000346, 0.000052,-0.009611, 0.229154, 0.065519, 0.190055,1,-0.015156, 0.139511,-0.043806,1,-0.147194, 0.035965, 9.805479,1,1
1778253718336,   412.247,   412.242, 0.014222,-0.028965,-0.981064, 0.000141,-0.000284,-0.009967, 0.181506, 0.195630, 0.658627,1,-0.028491, 0.140235,-0.036045,1,-0.174671, 0.029677, 9.805049,1,1
1778253718358,   412.267,   412.262, 0.022217,-0.017503,-1.005805, 0.000106,-0.000146,-0.010250,-0.031973,-0.377716, 1.188406,1,-0.005070, 0.120540,-0.042083,1,-0.197378, 0.026114, 9.804628,1,1
1778253718385,   412.292,   412.292, 0.037001, 0.010685,-1.000351, 0.000425, 0.000201,-0.010250, 0.139097, 0.134548,-0.006045,1, 0.041824, 0.074557,-0.048151,1,-0.226087, 0.031034, 9.803994,1,1
1778253718406,   412.317,   412.312, 0.014556,-0.033578,-0.976369, 0.000237,-0.000260,-0.009590, 0.032993,-0.171513, 0.532660,1, 0.015371, 0.091546,-0.047907,1,-0.243014, 0.034897, 9.803576,1,1
1778253718428,   412.337,   412.332, 0.022348, 0.003785,-1.000409, 0.000047,-0.000002,-0.009776,-0.158889,-0.031206, 0.805630,1,-0.018889, 0.057082,-0.048331,1,-0.253603, 0.031093, 9.803321,1,1
1778253718455,   412.362,   412.362, 0.026009,-0.013631,-0.937449, 0.000148,-0.000168,-0.009392,-0.011759,-0.109701, 0.609751,1,-0.014875, 0.062251,-0.044663,1,-0.268767, 0.023473, 9.802938,1,1
1778253718476,   412.387,   412.382, 0.029362,-0.006569,-1.055613, 0.000207,-0.000222,-0.010088,-0.031293,-0.022468, 1.215309,1, 0.013923, 0.040065,-0.045972,1,-0.275913, 0.022014, 9.802743,1,1
1778253718499,   412.407,   412.407, 0.032038,-0.027871,-1.090213, 0.000217,-0.000259,-0.010243, 0.031214,-0.245388,-0.888811,1, 0.025175, 0.031442,-0.056762,1,-0.283847, 0.028800, 9.802499,1,1
1778253718525,   412.432,   412.432, 0.000137, 0.056623,-0.939693,-0.000015, 0.000596,-0.009300,-0.282490, 0.584005, 0.587259,1,-0.007542, 0.019497,-0.047463,1,-0.284444, 0.028448, 9.802483,1,1
1778253718546,   412.457,   412.452, 0.035225,-0.016853,-0.951003, 0.000406,-0.000042,-0.009611, 0.115189,-0.388366, 0.387472,1,-0.049872, 0.016011,-0.041982,1,-0.287156, 0.022233, 9.802420,1,1
1778253718569,   412.477,   412.477, 0.029405,-0.011478,-0.919808, 0.000352,-0.000194,-0.009202, 0.003309,-0.100567, 0.782264,1,-0.008086,-0.010282,-0.043516,1,-0.284733, 0.011705, 9.802508,1,1
1778253718595,   412.502,   412.502, 0.048975,-0.073387,-0.917727, 0.000455,-0.000616,-0.009122, 0.196463,-0.701702, 0.802697,1, 0.062501,-0.006913,-0.056877,1,-0.283602, 0.019878, 9.802528,1,1
1778253718616,   412.527,   412.522, 0.032753, 0.085308,-0.933587, 0.000157, 0.000868,-0.009710,-0.173772, 0.196754, 0.752940,1, 0.034595,-0.053827,-0.059295,1,-0.275346, 0.028936, 9.802741,1,1
1778253718639,   412.547,   412.547, 0.067553, 0.044866,-0.940751, 0.000674, 0.000266,-0.009688, 0.395805, 0.466169, 0.577375,1,-0.070270,-0.033094,-0.016551,1,-0.265636, 0.023977, 9.803022,1,1
1778253718665,   412.572,   412.572, 0.040617, 0.001556,-0.916815, 0.000505, 0.000309,-0.009333, 0.143166, 0.022595, 0.812443,1,-0.082317,-0.075563, 0.001827,1,-0.252796, 0.004770, 9.803390,1,1
1778253718687,   412.597,   412.592, 0.069888,-0.012577,-1.081902, 0.000629,-0.000100,-0.010728, 0.020714,-0.121300, 1.162851,1,-0.038485,-0.036071, 0.007100,1,-0.241262,-0.008940, 9.803678,1,1
1778253718709,   412.617,   412.617, 0.043565, 0.011076,-1.031870, 0.000513, 0.000283,-0.010200, 0.200303, 0.100579,-0.315164,1, 0.040535,-0.066175, 0.001071,1,-0.224869,-0.006777, 9.804070,1,1
1778253718735,   412.642,   412.642, 0.027618, 0.066444,-1.078838, 0.000312, 0.000767,-0.010426, 0.056487, 0.647463,-0.775477,1, 0.017548,-0.060210, 0.006499,1,-0.212478,-0.003582, 9.804347,1,1
1778253718757,   412.667,   412.662, 0.044404, 0.004321,-1.004651, 0.000417, 0.000299,-0.009890, 0.072151, 0.599760,-0.771825,1,-0.025908,-0.054138, 0.000388,1,-0.200783,-0.004462, 9.804593,1,1
1778253718779,   412.687,   412.687, 0.049852, 0.023510,-0.988586, 0.000479, 0.000193,-0.009677, 0.298348, 0.223912, 0.110081,1,-0.014457,-0.020315, 0.006225,1,-0.189898,-0.007090, 9.804809,1,1
1778253718805,   412.712,   412.712, 0.062470, 0.026656,-0.983387, 0.000723, 0.000133,-0.009735, 0.426052, 0.254231, 0.161138,1,-0.011002,-0.020357, 0.010144,1,-0.185934,-0.007515, 9.804884,1,1
1778253718827,   412.737,   412.732, 0.058311, 0.023106,-1.062177, 0.000646, 0.000176,-0.011088, 0.346260,-0.459101, 0.197309,1,-0.002718, 0.017633, 0.013806,1,-0.187224,-0.005991, 9.804861,1,1
1778253718850,   412.762,   412.757, 0.048244, 0.006841,-1.038237, 0.000514, 0.000164,-0.011230, 0.283794, 0.058612,-0.376809,1, 0.023174, 0.011616, 0.011793,1,-0.189683,-0.007748, 9.804812,1,1
1778253718875,   412.782,   412.782, 0.077803, 0.010291,-0.967367, 0.000810, 0.000158,-0.010368, 0.566705, 0.094229, 0.318051,1, 0.014232, 0.018773, 0.009884,1,-0.196866,-0.006244, 9.804672,1,1
1778253718897,   412.807,   412.802, 0.041088, 0.025216,-0.941839, 0.000572, 0.000135,-0.009181, 0.629092,-0.277156, 0.286564,1,-0.000245, 0.025407, 0.004257,1,-0.203372,-0.004296, 9.804540,1,1
1778253718920,   412.832,   412.827, 0.044654, 0.034860,-1.026787, 0.000487, 0.000117,-0.009988, 0.230852, 0.336710,-0.264875,1,-0.002885, 0.009331, 0.013225,1,-0.207346,-0.005233, 9.804457,1,1
1778253718945,   412.852,   412.852, 0.049910, 0.026985,-1.008770, 0.000548, 0.000182,-0.010040, 0.280140, 0.260339,-0.088240,1,-0.007140, 0.001752, 0.016688,1,-0.209362,-0.004503, 9.804414,1,1
1778253718967,   412.877,   412.872, 0.060395, 0.010415,-0.926789, 0.000672, 0.000084,-0.009486, 0.288374, 0.346827, 0.884392,1,-0.004674, 0.007205, 0.021764,1,-0.209731,-0.004585, 9.804406,1,1
1778253718990,   412.902,   412.897, 0.037634, 0.023122,-1.009697, 0.000477, 0.000060,-0.010188, 0.158689, 0.222360,-0.097352,1,-0.002370,-0.021886, 0.015989,1,-0.209688,-0.004448, 9.804407,1,1
1778253719015,   412.922,   412.922, 0.072675, 0.030788,-1.017286, 0.000723, 0.000150,-0.010379, 0.501088, 0.296130,-0.171808,1,-0.019005,-0.002008, 0.026577,1,-0.211550,-0.006375, 9.804366,1,1
1778253719037,   412.947,   412.942, 0.023679,-0.005807,-0.933891, 0.000392, 0.000060,-0.009670, 0.539146, 0.008119,-0.116054,1,-0.045462,-0.003264, 0.031729,1,-0.212844,-0.011716, 9.804333,1,1
1778253719060,   412.972,   412.967, 0.044209, 0.030810,-0.918848, 0.000437, 0.000241,-0.009661, 0.225936, 0.287238, 0.793618,1,-0.002193,-0.010257, 0.032643,1,-0.207287,-0.014950, 9.804447,1,1
1778253719085,   412.992,   412.992, 0.064675, 0.012560,-0.955191, 0.000582, 0.000103,-0.009613, 0.427496, 0.110477, 0.437238,1, 0.011131,-0.013760, 0.032359,1,-0.206322,-0.012322, 9.804472,1,1
1778253719107,   413.017,   413.012, 0.032843, 0.022091,-0.995330, 0.000349, 0.000201,-0.009795, 0.569737, 0.036310,-0.127746,1, 0.009870,-0.026412, 0.029450,1,-0.204354,-0.011100, 9.804514,1,1
1778253719130,   413.042,   413.037, 0.042137, 0.045902,-0.975208, 0.000566, 0.000558,-0.010156, 0.215159, 0.437325, 0.241115,1,-0.004584,-0.041831, 0.030080,1,-0.196759,-0.012944, 9.804667,1,1
1778253719156,   413.062,   413.062, 0.052173, 0.003359,-0.952962, 0.000737, 0.000099,-0.010082, 0.318249, 0.013872, 0.459361,1,-0.037537,-0.046549, 0.037692,1,-0.191945,-0.020220, 9.804750,1,1
1778253719177,   413.087,   413.082, 0.020472,-0.070141,-1.034400, 0.000245,-0.000568,-0.010024, 0.089513, 0.114643,-0.059768,1,-0.040644,-0.042094, 0.035503,1,-0.185607,-0.032346, 9.804840,1,1
1778253719204,   413.112,   413.112, 0.040433,-0.080652,-0.981597, 0.000456,-0.000710,-0.009768, 0.215428,-0.823890, 0.178741,1, 0.028516,-0.014668, 0.003650,1,-0.180626,-0.032075, 9.804934,1,1
1778253719226,   413.132,   413.132, 0.043875,-0.010657,-0.934027, 0.000556,-0.000330,-0.009324, 0.257385,-0.135567, 0.645404,1,-0.029750,-0.072158,-0.009301,1,-0.170634,-0.031996, 9.805113,1,1
1778253719247,   413.157,   413.152, 0.035291,-0.028303,-0.991622, 0.000329,-0.000048,-0.010450, 0.311898, 0.366616, 0.018518,1,-0.075234,-0.018891,-0.002298,1,-0.162951,-0.040516, 9.805212,1,1
1778253719274,   413.182,   413.182, 0.008133,-0.090795,-1.020970, 0.000140,-0.000838,-0.011016,-0.067945,-0.944694,-0.206909,1,-0.010286,-0.057863,-0.023577,1,-0.145898,-0.054628, 9.805412,1,1
1778253719296,   413.207,   413.202, 0.064626,-0.043520,-1.017691, 0.000681,-0.000609,-0.009708, 0.274921,-0.199550, 0.586516,1, 0.031496,-0.037286,-0.032920,1,-0.138285,-0.054886, 9.805521,1,1
1778253719317,   413.227,   413.222, 0.030588, 0.040941,-0.947891, 0.000375, 0.000371,-0.009239, 0.070683,-0.617644,-0.355866,1,-0.015695,-0.071402,-0.045796,1,-0.127899,-0.052536, 9.805676,1,1
1778253719344,   413.252,   413.252, 0.010136,-0.074764,-1.029851, 0.000163,-0.000594,-0.009857,-0.017855,-0.788973,-0.293602,1, 0.008223, 0.011989,-0.042049,1,-0.117620,-0.055550, 9.805787,1,1
1778253719366,   413.277,   413.272, 0.010543, 0.037283,-1.051890,-0.000075, 0.000511,-0.010519, 0.140454,-0.064852,-0.084238,1,-0.018188,-0.034359,-0.057486,1,-0.112994,-0.056584, 9.805836,1,1
1778253719387,   413.297,   413.292, 0.033544, 0.041164,-1.094437, 0.000387, 0.000452,-0.011139, 0.202425,-0.441046, 0.161001,1, 0.036952, 0.035823,-0.057805,1,-0.118258,-0.051259, 9.805803,1,1
1778253719414,   413.322,   413.322, 0.004955, 0.070273,-1.038347, 0.000188, 0.000907,-0.010840,-0.075671, 0.644256,-0.376949,1, 0.048681, 0.014245,-0.051572,1,-0.124697,-0.043384, 9.805761,1,1
1778253719436,   413.347,   413.342, 0.008409, 0.045065,-1.055275, 0.000068, 0.000386,-0.010644, 0.049513,-0.102425, 0.213023,1, 0.043411, 0.041695,-0.044868,1,-0.134377,-0.036277, 9.805662,1,1
1778253719458,   413.367,   413.362, 0.005985,-0.004811,-1.058679, 0.000015, 0.000095,-0.010784,-0.107421, 0.328539, 0.627946,1,-0.012759, 0.054577,-0.040755,1,-0.142712,-0.037937, 9.805538,1,1
1778253719484,   413.392,   413.392, 0.024490, 0.013253,-1.100428, 0.000086, 0.000201,-0.010895, 0.084115, 0.087642,-0.986191,1,-0.012371, 0.052250,-0.029908,1,-0.157674,-0.042728, 9.805289,1,1
1778253719506,   413.417,   413.412, 0.007325, 0.011728,-0.986337, 0.000150,-0.000034,-0.009889, 0.037995, 0.020294,-0.541238,1, 0.022461, 0.059537,-0.018654,1,-0.169716,-0.040906, 9.805096,1,1
1778253719528,   413.437,   413.432, 0.016697, 0.038253,-0.989045, 0.000184, 0.000246,-0.009937,-0.283628, 0.036139,-0.246113,1, 0.041671, 0.072865,-0.013890,1,-0.182196,-0.034360, 9.804897,1,1
1778253719555,   413.462,   413.462, 0.013593, 0.070197,-0.972386, 0.000159, 0.000451,-0.009901,-0.066327, 0.660104, 0.268728,1,-0.000012, 0.072816,-0.002684,1,-0.201900,-0.028292, 9.804530,1,1
1778253719576,   413.487,   413.482, 0.018493, 0.019843,-1.007855, 0.000058, 0.000411,-0.009800,-0.068116, 0.053302, 0.261952,1,-0.030182, 0.073069, 0.003929,1,-0.216386,-0.030622, 9.804214,1,1
1778253719598,   413.507,   413.502,-0.007058,-0.025243,-0.937448,-0.000079,-0.000236,-0.009430, 0.002338,-0.345939,-0.140585,1,-0.023805, 0.054288, 0.008259,1,-0.230204,-0.036125, 9.803881,1,1
1778253719625,   413.532,   413.532, 0.001850,-0.012786,-0.932547, 0.000057,-0.000010,-0.009317,-0.229073,-0.162069, 0.658303,1, 0.023938, 0.061108,-0.004531,1,-0.249120,-0.035941, 9.803419,1,1
1778253719646,   413.557,   413.552, 0.019078,-0.043122,-0.982077, 0.000044,-0.000359,-0.009595,-0.158329,-0.088418, 0.757537,1, 0.034203, 0.041204,-0.019234,1,-0.259625,-0.030501, 9.803165,1,1
1778253719668,   413.577,   413.572, 0.042701,-0.025090,-0.992327, 0.000335,-0.000316,-0.009832,-0.412426,-0.086346, 0.953570,1, 0.021260, 0.033270,-0.025144,1,-0.267371,-0.025247, 9.802972,1,1
1778253719695,   413.602,   413.602, 0.018163,-0.028866,-0.972089, 0.000165,-0.000074,-0.009767,-0.096723,-0.308658, 0.269828,1, 0.007436, 0.028745,-0.021771,1,-0.275740,-0.025371, 9.802740,1,1
1778253719716,   413.627,   413.622, 0.029202, 0.044236,-0.981147, 0.000297, 0.000209,-0.009874,-0.368170,-0.357716,-0.003410,1,-0.006425, 0.005681,-0.021660,1,-0.278468,-0.028491, 9.802654,1,1
1778253719739,   413.647,   413.647, 0.023423,-0.034384,-0.930051, 0.000230,-0.000326,-0.009472,-0.052805,-0.367067, 0.681848,1, 0.006854, 0.019010,-0.020391,1,-0.283100,-0.029681, 9.802518,1,1
1778253719765,   413.672,   413.672, 0.006249, 0.018956,-0.928782, 0.000074, 0.000145,-0.009714,-0.219497, 0.153868, 0.694339,1,-0.009377,-0.032949,-0.018039,1,-0.279745,-0.032337, 9.802606,1,1
1778253719786,   413.697,   413.692, 0.014421, 0.031438,-1.014820, 0.000264, 0.000539,-0.009578,-0.095717, 0.210466, 0.884549,1,-0.022790,-0.018460,-0.008184,1,-0.275976,-0.036106, 9.802699,1,1
1778253719809,   413.717,   413.717, 0.011581, 0.036971,-0.968082, 0.000203, 0.000255,-0.009039,-0.156890, 0.322343, 0.309191,1,-0.035742,-0.016512,-0.000155,1,-0.269946,-0.041333, 9.802847,1,1
1778253719835,   413.742,   413.742, 0.024514, 0.055511,-1.017947, 0.000180, 0.000325,-0.009356,-0.023987, 0.502244,-0.179654,1,-0.023678,-0.020528, 0.003013,1,-0.263749,-0.042866, 9.803009,1,1
1778253719856,   413.767,   413.762,-0.015242, 0.015081,-1.002546, 0.000045, 0.000396,-0.010532,-0.253035, 0.732650, 0.219190,1,-0.006944,-0.032765, 0.007257,1,-0.255432,-0.042472, 9.803231,1,1
1778253719879,   413.787,   413.787, 0.017016, 0.019953,-1.031552, 0.000141, 0.000265,-0.010267,-0.080822, 0.154208,-0.312634,1,-0.013574,-0.026404, 0.012605,1,-0.246872,-0.041877, 9.803452,1,1
1778253719905,   413.812,   413.812, 0.012820, 0.029663,-1.096757, 0.000207, 0.000385,-0.010620,-0.113662, 0.248829,-0.951873,1, 0.010539,-0.048089, 0.021807,1,-0.237710,-0.041754, 9.803679,1,1
1778253719927,   413.837,   413.832, 0.033771, 0.014149,-0.980198, 0.000298, 0.000125,-0.010301, 0.245087, 0.546943,-0.795370,1, 0.018653,-0.023580, 0.035242,1,-0.232750,-0.038556, 9.803812,1,1
1778253719949,   413.857,   413.857, 0.038600, 0.022825,-0.992155, 0.000456, 0.000361,-0.010611, 0.150018, 0.189291, 0.074211,1, 0.005144,-0.023649, 0.048253,1,-0.227784,-0.034353, 9.803944,1,1
1778253719975,   413.882,   413.882, 0.017204, 0.037770,-1.046191, 0.000230, 0.000403,-0.010916,-0.057636, 0.333350,-0.455658,1,-0.014219,-0.005100, 0.064950,1,-0.226197,-0.037447, 9.803969,1,1
1778253719997,   413.907,   413.902, 0.049753, 0.010617,-0.898869, 0.000551, 0.000060,-0.008832, 0.103663, 0.360633,-0.488383,1,-0.030770,-0.000182, 0.069670,1,-0.229614,-0.041736, 9.803873,1,1
1778253720019,   413.927,   413.927, 0.054174,-0.019215,-0.913101, 0.000457,-0.000351,-0.008975, 0.300485,-0.235096, 0.849363,1,-0.026912, 0.000443, 0.059443,1,-0.230805,-0.047458, 9.803819,1,1
1778253720045,   413.952,   413.952, 0.037628, 0.015869,-0.928780, 0.000368,-0.000039,-0.009334, 0.141857, 0.106180, 0.695671,1,-0.014530,-0.021795, 0.055696,1,-0.226473,-0.049856, 9.803907,1,1
1778253720067,   413.977,   413.972, 0.045320,-0.013408,-1.064611, 0.000462,-0.000249,-0.010562, 0.297145,-0.454032, 0.274108,1, 0.043855, 0.008035, 0.049612,1,-0.227157,-0.044499, 9.803918,1,1
1778253720090,   414.002,   413.997, 0.022685, 0.079321,-0.992817, 0.000323, 0.000750,-0.010162,-0.002186, 0.742481, 0.067808,1, 0.039361,-0.001069, 0.046443,1,-0.224625,-0.034127, 9.804018,1,1
1778253720115,   414.022,   414.022, 0.074397, 0.038578,-1.052613, 0.000666, 0.000316,-0.010567, 0.501098, 0.350791,-0.518658,1, 0.036617, 0.009139, 0.057009,1,-0.228777,-0.026349, 9.803946,1,1
1778253720137,   414.047,   414.042, 0.025175, 0.024982,-1.039823, 0.000296, 0.000430,-0.010164, 0.257791, 0.403145, 0.055220,1, 0.018341, 0.015811, 0.065564,1,-0.231760,-0.023544, 9.803883,1,1
1778253720160,   414.072,   414.067, 0.050959, 0.048357,-1.051642, 0.000310, 0.000522,-0.010279, 0.258628, 0.448166,-0.509437,1,-0.014000, 0.042237, 0.075434,1,-0.242434,-0.026429, 9.803617,1,1
1778253720185,   414.092,   414.092, 0.028809, 0.005523,-1.000103, 0.000211, 0.000224,-0.010075, 0.035792, 0.028503,-0.004152,1, 0.013073, 0.038021, 0.068371,1,-0.247918,-0.025195, 9.803483,1,1
1778253720207,   414.117,   414.112, 0.071206, 0.017674,-0.969955, 0.000756,-0.000029,-0.009372, 0.131486,-0.223981, 0.530830,1, 0.028687, 0.032301, 0.058366,1,-0.256414,-0.020702, 9.803275,1,1
1778253720230,   414.142,   414.137, 0.050687,-0.033229,-0.954718, 0.000503,-0.000329,-0.008922, 0.232692,-0.340658, 0.440486,1, 0.011355, 0.034597, 0.054361,1,-0.265459,-0.014392, 9.803046,1,1
1778253720256,   414.162,   414.162, 0.083586,-0.001757,-1.003022, 0.000678,-0.000254,-0.009321, 0.552486,-0.031081,-0.033285,1,-0.020936, 0.008730, 0.057943,1,-0.267490,-0.014458, 9.802991,1,1
1778253720277,   414.187,   414.182, 0.032725, 0.005823,-1.014720, 0.000261, 0.000185,-0.010430, 0.458165,-0.041230, 0.107473,1,-0.007692,-0.004146, 0.060833,1,-0.266167,-0.014520, 9.803026,1,1
1778253720300,   414.212,   414.207, 0.037851, 0.055653,-0.970610, 0.000361, 0.000553,-0.009902, 0.107270, 0.528733, 0.284647,1,-0.025628,-0.004944, 0.065588,1,-0.263801,-0.017902, 9.803085,1,1
1778253720326,   414.232,   414.232, 0.026581,-0.033447,-1.037640, 0.000324,-0.000076,-0.010688,-0.001708,-0.346923,-0.372649,1, 0.015046,-0.023560, 0.062856,1,-0.261650,-0.018401, 9.803142,1,1
1778253720347,   414.257,   414.252, 0.071528,-0.023421,-0.834436, 0.000590,-0.000242,-0.007926,-0.036593, 0.123709,-0.057141,1, 0.016716,-0.058417, 0.048445,1,-0.256332,-0.017671, 9.803284,1,1
1778253720370,   414.282,   414.277, 0.087503,-0.039180,-0.861179, 0.000770,-0.000373,-0.008409, 0.607814,-0.392646, 1.358171,1, 0.025431,-0.036278, 0.019663,1,-0.249162,-0.007612, 9.803481,1,1
1778253720396,   414.302,   414.302, 0.045064,-0.037601,-0.888979, 0.000336,-0.000340,-0.008942, 0.202252,-0.372655, 1.085810,1, 0.025746,-0.030549, 0.011053,1,-0.238722,-0.003101, 9.803743,1,1
1778253720417,   414.327,   414.322, 0.034499, 0.039515,-1.142137, 0.000437, 0.000329,-0.011105, 0.426159,-0.280744, 0.773305,1, 0.027266,-0.024613, 0.014683,1,-0.231835, 0.000522, 9.803909,1,1
1778253720444,   414.352,   414.352, 0.057492, 0.050544,-1.152868, 0.000582, 0.000409,-0.011533, 0.337202, 0.495316,-1.501742,1,-0.024077,-0.034352, 0.030554,1,-0.225531,-0.001080, 9.804056,1,1
1778253720466,   414.372,   414.372, 0.057927, 0.037620,-1.130496, 0.000610, 0.000427,-0.011322, 0.342129, 0.363690,-1.282331,1,-0.027131, 0.009675, 0.043957,1,-0.226241,-0.006047, 9.804038,1,1
1778253720487,   414.397,   414.392, 0.078469,-0.016537,-0.957124, 0.000505,-0.000311,-0.009689, 0.166652, 0.192842,-1.801415,1,-0.023726,-0.000801, 0.048692,1,-0.229233,-0.010881, 9.803965,1,1
1778253720514,   414.422,   414.422, 0.083066,-0.014288,-0.885125, 0.000635,-0.000072,-0.008918, 0.576275,-0.154071, 1.123634,1,-0.008302, 0.074720, 0.050735,1,-0.240660,-0.014164, 9.803686,1,1
1778253720536,   414.447,   414.442, 0.025314, 0.002422,-1.119478, 0.000473, 0.000121,-0.011146, 0.619638,-0.511797, 1.379385,1,-0.014450, 0.059200, 0.050498,1,-0.251802,-0.017279, 9.803402,1,1
1778253720557,   414.467,   414.462, 0.014820, 0.024124,-1.146551, 0.000211, 0.000274,-0.011162, 0.410989,-0.233492, 1.632083,1, 0.006744, 0.056633, 0.041596,1,-0.259188,-0.018534, 9.803206,1,1
1778253720584,   414.492,   414.492, 0.048927, 0.058422,-1.126441, 0.000431, 0.000312,-0.011061, 0.209287, 0.556817,-1.243712,1,-0.009071, 0.039074, 0.045097,1,-0.271748,-0.016353, 9.802871,1,1
1778253720606,   414.517,   414.512, 0.048813, 0.010649,-0.928901, 0.000543, 0.000035,-0.009194,-0.131970, 0.300070,-0.965400,1, 0.036751, 0.021424, 0.038545,1,-0.276404,-0.010923, 9.802748,1,1
1778253720627,   414.537,   414.532, 0.044701, 0.041596,-1.012013, 0.000547, 0.000319,-0.009943, 0.062554, 0.810456,-0.956379,1, 0.048438, 0.042860, 0.039064,1,-0.284655,-0.002971, 9.802517,1,1
1778253720654,   414.562,   414.562, 0.047735, 0.050136,-1.084542, 0.000541, 0.000372,-0.010422, 0.166856, 0.501681,-0.833705,1, 0.006627, 0.067570, 0.073627,1,-0.303366, 0.010291, 9.801951,1,1
1778253720676,   414.587,   414.582, 0.061793, 0.022293,-0.927494, 0.000396, 0.000343,-0.009652,-0.034011, 0.700590,-0.534695,1,-0.050303, 0.080298, 0.097986,1,-0.317777, 0.005555, 9.801498,1,1
1778253720698,   414.607,   414.602, 0.054416, 0.024498,-0.894057, 0.000407, 0.000220,-0.009252, 0.000178, 0.429610,-0.470327,1,-0.088621, 0.065878, 0.119269,1,-0.333239,-0.007904, 9.800983,1,1
1778253720725,   414.632,   414.632, 0.055107,-0.062841,-0.853184, 0.000588,-0.000578,-0.008918, 0.189985,-0.634358, 1.433495,1, 0.004940, 0.058416, 0.109268,1,-0.352263,-0.017827, 9.800305,1,1
1778253720746,   414.657,   414.652, 0.053753, 0.066469,-1.022868, 0.000348, 0.000592,-0.009752, 0.130270, 0.223172, 1.948135,1, 0.020958, 0.035188, 0.105764,1,-0.359924,-0.016261, 9.800030,1,1
1778253720768,   414.677,   414.672, 0.036187,-0.008766,-1.091769, 0.000108,-0.000050,-0.010777,-0.263845, 0.145575, 0.723491,1, 0.014930,-0.022307, 0.116928,1,-0.360798,-0.015300, 9.799998,1,1
1778253720795,   414.702,   414.702, 0.063545, 0.035464,-0.951994, 0.000273, 0.000457,-0.009831, 0.265268, 0.333439, 0.464238,1, 0.024794,-0.000356, 0.107412,1,-0.357894,-0.013444, 9.800108,1,1
1778253720816,   414.727,   414.722, 0.038816, 0.058936,-1.022726, 0.000137, 0.000550,-0.009133, 0.244770, 0.344892, 0.595796,1, 0.026205,-0.040861, 0.094135,1,-0.354828,-0.008922, 9.800224,1,1
1778253720838,   414.747,   414.742, 0.015883, 0.035123,-1.131226, 0.000010, 0.000331,-0.010294, 0.013256, 0.419397, 0.618049,1, 0.037459,-0.036076, 0.101479,1,-0.349591,-0.004788, 9.800416,1,1
1778253720865,   414.772,   414.772, 0.021300, 0.048321,-1.107110, 0.000255, 0.000435,-0.010596,-0.136785, 0.470249,-1.056485,1,-0.022088,-0.028434, 0.122344,1,-0.344776,-0.004171, 9.800587,1,1
1778253720886,   414.797,   414.792, 0.045204, 0.032442,-0.920422, 0.000495, 0.000288,-0.009327,-0.114637, 0.471328,-0.626603,1,-0.023881,-0.021543, 0.137634,1,-0.341719,-0.007656, 9.800692,1,1
1778253720908,   414.817,   414.812, 0.042102,-0.008374,-0.904089, 0.000554, 0.000139,-0.009131,-0.143521, 0.222686,-0.448956,1,-0.017982,-0.003135, 0.136982,1,-0.338787,-0.009729, 9.800792,1,1
1778253720935,   414.842,   414.842, 0.017432, 0.039665,-0.881367, 0.000113, 0.000250,-0.008692,-0.165554, 0.386676, 1.157618,1, 0.020321, 0.007534, 0.133139,1,-0.336744,-0.001530, 9.800866,1,1
1778253720956,   414.867,   414.862, 0.030114, 0.055737,-1.156689, 0.000493, 0.000558,-0.011185,-0.240013, 0.769531, 1.362086,1, 0.013043, 0.009165, 0.136922,1,-0.334973, 0.004860, 9.800926,1,1
1778253720979,   414.887,   414.887, 0.052956, 0.062762,-1.127516, 0.000430, 0.000534,-0.010863, 0.184961, 0.621590,-1.256210,1,-0.020921, 0.000632, 0.148453,1,-0.334376, 0.005613, 9.800946,1,1
1778253721005,   414.912,   414.912, 0.049506, 0.045876,-1.099177, 0.000464, 0.000469,-0.010530, 0.151039, 0.454075,-0.978303,1,-0.022717, 0.003940, 0.151076,1,-0.334567, 0.003638, 9.800941,1,1
1778253721026,   414.937,   414.932, 0.027410,-0.007286,-0.923456, 0.000302, 0.000084,-0.009481, 0.210008, 0.343007,-1.274412,1, 0.000782,-0.012529, 0.158986,1,-0.335565, 0.004793, 9.800906,1,1
1778253721049,   414.957,   414.957, 0.036185, 0.020439,-0.956491, 0.000419, 0.000279,-0.009750, 0.014011, 0.213316, 0.420745,1, 0.017280, 0.015481, 0.169379,1,-0.341320, 0.013596, 9.800699,1,1
1778253721075,   414.982,   414.982, 0.051480, 0.053327,-0.917193, 0.000371, 0.000547,-0.009354, 0.158490, 0.536904, 0.805932,1,-0.017862, 0.052194, 0.178860,1,-0.347972, 0.013587, 9.800465,1,1
1778253721097,   415.007,   415.002, 0.070861, 0.015606,-1.085726, 0.000662, 0.000052,-0.010659, 0.367796,-0.191705, 0.750956,1,-0.023057, 0.047069, 0.180470,1,-0.355906, 0.011648, 9.800182,1,1
1778253721119,   415.027,   415.027, 0.021470, 0.036990,-1.075616, 0.000259, 0.000571,-0.010595,-0.150850, 0.366349,-0.748198,1,-0.002528, 0.017235, 0.186972,1,-0.361932, 0.003734, 9.799968,1,1
1778253721145,   415.052,   415.052, 0.072048, 0.000466,-1.115471, 0.000663,-0.000022,-0.010871, 0.336030, 0.009361,-1.139383,1,-0.008641, 0.048479, 0.184279,1,-0.372032, 0.004739, 9.799589,1,1
1778253721167,   415.077,   415.072, 0.097017, 0.063068,-0.979045, 0.001070, 0.000611,-0.009811,-0.214810, 0.093311,-0.497354,1,-0.007627, 0.051131, 0.186670,1,-0.380113, 0.004268, 9.799279,1,1
1778253721189,   415.097,   415.097, 0.045873,-0.006231,-0.903549, 0.000716, 0.000146,-0.008986, 0.057986,-0.060908, 0.938027,1,-0.012410, 0.065773, 0.192046,1,-0.393926, 0.000049, 9.798735,1,1
1778253721215,   415.122,   415.122, 0.071111,-0.028235,-0.821094, 0.000699,-0.000361,-0.007706, 0.292037,-0.281801, 1.746083,1,-0.054164, 0.103037, 0.184567,1,-0.408537,-0.006365, 9.798135,1,1
1778253721237,   415.147,   415.142, 0.035355,-0.129746,-1.146951, 0.000475,-0.001139,-0.012449,-0.240361,-0.941002, 0.545249,1, 0.018248, 0.045344, 0.166855,1,-0.416109,-0.006262, 9.797816,1,1
1778253721260,   415.167,   415.167, 0.095582, 0.022270,-1.000991, 0.000893, 0.000225,-0.010365, 0.513519, 0.227051,-0.018881,1, 0.078848, 0.035735, 0.145870,1,-0.424935, 0.011312, 9.797433,1,1
1778253721285,   415.192,   415.192, 0.078768,-0.019149,-0.998697, 0.000930,-0.000347,-0.010037, 0.342273,-0.169553, 0.003316,1,-0.011129, 0.002136, 0.138266,1,-0.430237, 0.018077, 9.797191,1,1
1778253721307,   415.217,   415.212, 0.061053,-0.002424,-1.028962, 0.000436,-0.000187,-0.010582,-0.497120, 0.291337, 0.729176,1,-0.033150,-0.012055, 0.144227,1,-0.424441, 0.010315, 9.797455,1,1
1778253721330,   415.242,   415.237, 0.028444,-0.002284,-0.984807, 0.000434, 0.000005,-0.010410,-0.139085,-0.022831, 0.140075,1,-0.024556,-0.063653, 0.129196,1,-0.416043,-0.001025, 9.797821,1,1
1778253721355,   415.262,   415.262, 0.056369,-0.013965,-0.919328, 0.000681, 0.000076,-0.009658, 0.141528,-0.139995, 0.782497,1, 0.023228,-0.037320, 0.119972,1,-0.410102,-0.002168, 9.798071,1,1
1778253721377,   415.287,   415.282, 0.080404,-0.009873,-1.052091, 0.000291,-0.000372,-0.010373,-0.174099,-0.078621, 0.220356,1, 0.020848,-0.076203, 0.109116,1,-0.399115,-0.000458, 9.798525,1,1
1778253721400,   415.312,   415.307, 0.066403, 0.015093,-1.045750, 0.000443, 0.000398,-0.010405, 0.264872, 0.146384,-0.456262,1, 0.015465,-0.038561, 0.103940,1,-0.385113,-0.001019, 9.799086,1,1
1778253721425,   415.332,   415.332, 0.058929,-0.045856,-0.971666, 0.000775,-0.000312,-0.010511, 0.197772,-0.450595, 0.270490,1, 0.001513,-0.061697, 0.092217,1,-0.378198,-0.000738, 9.799355,1,1
1778253721447,   415.357,   415.352, 0.025323,-0.034456,-1.020324, 0.000324,-0.000399,-0.009646, 0.102195,-0.055355, 1.753935,1,-0.004536,-0.039489, 0.082264,1,-0.368166,-0.004326, 9.799736,1,1
1778253721470,   415.382,   415.377, 0.046075,-0.015642,-1.079489, 0.000145,-0.000166,-0.010274, 0.098640,-0.161932,-0.785883,1,-0.036420,-0.063301, 0.062422,1,-0.351227,-0.009605, 9.800354,1,1
1778253721496,   415.402,   415.402, 0.049417,-0.034537,-1.043097, 0.000316,-0.000269,-0.010512, 0.145275,-0.348787,-0.428520,1,-0.001191,-0.062030, 0.058049,1,-0.337412,-0.010065, 9.800838,1,1
1778253721517,   415.427,   415.422, 0.008766,-0.046131,-1.015655, 0.000288,-0.000578,-0.009578, 0.143772,-0.337377,-0.065412,1, 0.010789,-0.064471, 0.044298,1,-0.322041,-0.009751, 9.801356,1,1
1778253721540,   415.452,   415.447, 0.018151,-0.010539,-1.018387, 0.000144,-0.000224,-0.009606,-0.124744,-0.112869,-0.184992,1,-0.020763,-0.065084, 0.033645,1,-0.300719,-0.010135, 9.802032,1,1
1778253721566,   415.472,   415.472,-0.009822,-0.008291,-1.050830,-0.000049,-0.000004,-0.010079,-0.384515,-0.093138,-0.502720,1,-0.008502,-0.069915, 0.026729,1,-0.286017,-0.012071, 9.802471,1,1
1778253721587,   415.497,   415.492, 0.028215,-0.033299,-0.997342, 0.000397,-0.000333,-0.010284,-0.538414, 0.288152,-1.278627,1,-0.011927,-0.072479, 0.015251,1,-0.273256,-0.012939, 9.802834,1,1
1778253721610,   415.522,   415.517, 0.019977, 0.017556,-0.950222, 0.000432,-0.000041,-0.009317,-0.066231, 0.168047, 0.484645,1, 0.019408,-0.007088, 0.018545,1,-0.261913,-0.003496, 9.803151,1,1
1778253721636,   415.542,   415.542, 0.044158, 0.050566,-1.017506, 0.000708, 0.000180,-0.009284, 0.170834, 0.494783,-0.175187,1,-0.008987, 0.013914, 0.021906,1,-0.262638,-0.001359, 9.803132,1,1
1778253721657,   415.567,   415.562, 0.046766, 0.010608,-1.057402, 0.000277, 0.000400,-0.011638,-0.652355, 0.368162,-0.652622,1,-0.036756, 0.017874, 0.022254,1,-0.263045,-0.003201, 9.803121,1,1
1778253721684,   415.592,   415.592, 0.050967,-0.007025,-0.994259, 0.000436, 0.000214,-0.010912, 0.221075,-0.073011, 0.052340,1, 0.014792, 0.093569, 0.039762,1,-0.281661,-0.003619, 9.802604,1,1
1778253721706,   415.612,   415.612,-0.000616, 0.043877,-1.089181, 0.000299, 0.000718,-0.011015,-0.304192, 0.425091,-0.879107,1, 0.032846, 0.087656, 0.063724,1,-0.300737,-0.004144, 9.802036,1,1
1778253721727,   415.637,   415.632,-0.000861, 0.102707,-1.058459, 0.000122, 0.001193,-0.010844,-0.678894, 0.705014, 0.681214,1,-0.002538, 0.141241, 0.053507,1,-0.319279, 0.000275, 9.801451,1,1
1778253721754,   415.662,   415.662, 0.026101, 0.038058,-1.023399,-0.000122, 0.000120,-0.010606,-0.099106, 0.380287,-0.235899,1,-0.033954, 0.159459, 0.077463,1,-0.360046, 0.006091, 9.800036,1,1
1778253721776,   415.687,   415.682, 0.025027, 0.012900,-1.093726, 0.000090,-0.000012,-0.010065,-0.132139, 0.127948, 0.971375,1,-0.019333, 0.138382, 0.088939,1,-0.384525,-0.000765, 9.799109,1,1
1778253721797,   415.707,   415.702,-0.051368,-0.000507,-1.047382,-0.000357, 0.000208,-0.009800, 0.053002,-0.297180, 0.406950,1,-0.037450, 0.125303, 0.086528,1,-0.413699,-0.007899, 9.797916,1,1
1778253721824,   415.732,   415.732, 0.013174, 0.003668,-0.993788,-0.000093, 0.000079,-0.009186,-0.315339, 0.026420, 0.050829,1,-0.001971, 0.122739, 0.087355,1,-0.448363,-0.009488, 9.796391,1,1
1778253721846,   415.757,   415.752, 0.037073,-0.004997,-0.816915, 0.000435,-0.000003,-0.008702,-0.454595,-0.250672, 0.244368,1,-0.000875, 0.080147, 0.076587,1,-0.467519,-0.006141, 9.795498,1,1
1778253721868,   415.777,   415.772, 0.023165, 0.001993,-0.777531, 0.000354, 0.000070,-0.008260,-0.822380, 0.070298, 0.191017,1,-0.008901, 0.046193, 0.065179,1,-0.477172,-0.004657, 9.795033,1,1
1778253721894,   415.802,   415.802, 0.036671,-0.024387,-0.775952, 0.000484,-0.000210,-0.008082,-0.128384,-0.240723, 2.185006,1, 0.009970, 0.042318, 0.063340,1,-0.489323,-0.001164, 9.794435,1,1
1778253721916,   415.827,   415.822, 0.015144, 0.015251,-1.158452,-0.000074, 0.000224,-0.011842,-0.371375,-0.232154, 2.379484,1,-0.007784, 0.019938, 0.060380,1,-0.490637,-0.002302, 9.794369,1,1
1778253721938,   415.847,   415.842, 0.018435, 0.038428,-1.134739, 0.000050, 0.000454,-0.011974,-0.447097, 0.136579, 2.256150,1,-0.012296, 0.017087, 0.058949,1,-0.490597,-0.002630, 9.794371,1,1
1778253721965,   415.872,   415.872, 0.033995, 0.033763,-1.091288, 0.000174, 0.000428,-0.012021,-0.155678, 0.328510,-0.907428,1, 0.011212,-0.032690, 0.069721,1,-0.488040,-0.002130, 9.794498,1,1
1778253721986,   415.897,   415.892, 0.041004, 0.019759,-0.899844, 0.000308, 0.000120,-0.008177,-0.505975, 0.290469,-0.258206,1, 0.006852,-0.030349, 0.073611,1,-0.483758,-0.002881, 9.794710,1,1
1778253722008,   415.917,   415.912, 0.013598, 0.030819,-0.916743, 0.000090, 0.000223,-0.008324,-0.280292, 0.115676,-0.696299,1,-0.009134,-0.033851, 0.072620,1,-0.481025,-0.005524, 9.794844,1,1
1778253722035,   415.942,   415.942, 0.007196, 0.052425,-0.979277, 0.000134, 0.000217,-0.008988,-0.406378, 0.504585, 0.191616,1,-0.031139,-0.004454, 0.077966,1,-0.476806,-0.010377, 9.795046,1,1
1778253722056,   415.967,   415.962, 0.004976,-0.007773,-0.973491, 0.000023, 0.000172,-0.010181,-0.389315, 0.838122, 0.154250,1, 0.001818,-0.007888, 0.093385,1,-0.473740,-0.009031, 9.795197,1,1
1778253722078,   415.987,   415.982, 0.048022, 0.029760,-0.992864, 0.000286, 0.000301,-0.009933, 0.045755, 0.282345, 0.772938,1, 0.031235,-0.008181, 0.096875,1,-0.472365,-0.002935, 9.795266,1,1
1778253722105,   416.012,   416.012, 0.042165, 0.060704,-0.989203, 0.000327, 0.000701,-0.009482,-0.162755, 0.528754, 1.607370,1,-0.008627,-0.044611, 0.100748,1,-0.464545,-0.002556, 9.795641,1,1
1778253722126,   416.037,   416.032, 0.001752, 0.029104,-0.930821, 0.000318, 0.000207,-0.009450,-0.060140, 0.197558,-1.112889,1,-0.052366,-0.061560, 0.118019,1,-0.451543,-0.010766, 9.796243,1,1
1778253722148,   416.057,   416.052, 0.024030, 0.025439,-1.031466, 0.000267,-0.000091,-0.010086, 0.015375, 0.087608,-0.420329,1, 0.001845,-0.057153, 0.121236,1,-0.438989,-0.014360, 9.796809,1,1
1778253722175,   416.082,   416.082, 0.031525, 0.018246,-1.049416, 0.000257, 0.000123,-0.010346,-0.115842, 0.166705,-0.493823,1,-0.002795,-0.051121, 0.122137,1,-0.423407,-0.012149, 9.797498,1,1
1778253722196,   416.107,   416.102, 0.002559, 0.053613,-1.061897, 0.000298, 0.000897,-0.010309, 0.555942, 0.911592,-0.688704,1,-0.046382,-0.021950, 0.151527,1,-0.419205,-0.016564, 9.797672,1,1
1778253722219,   416.127,   416.127, 0.000075, 0.103671,-0.972619,-0.000193, 0.000633,-0.009510,-0.403435, 0.997039, 0.260164,1,-0.032216,-0.003243, 0.155775,1,-0.404077,-0.020427, 9.798301,1,1
1778253722245,   416.152,   416.152, 0.028807, 0.029674,-1.126577, 0.000558, 0.000504,-0.010871,-0.122279, 0.280135,-1.249662,1, 0.067589,-0.027198, 0.149580,1,-0.403940,-0.008568, 9.798324,1,1
1778253722267,   416.177,   416.172, 0.003710, 0.071659,-0.933812,-0.000072, 0.000923,-0.009510,-0.359958, 1.028354,-1.213369,1, 0.010475,-0.038879, 0.142926,1,-0.397716,-0.002012, 9.798582,1,1
1778253722289,   416.197,   416.197, 0.047273, 0.000800,-1.038439, 0.000388,-0.000089,-0.010780, 0.060173, 0.004621,-0.385260,1,-0.061397, 0.029919, 0.169448,1,-0.404347,-0.004918, 9.798309,1,1
1778253722315,   416.222,   416.222,-0.002626, 0.006483,-1.008740, 0.000034, 0.000171,-0.010368,-0.434293, 0.047921,-0.094235,1,-0.049352, 0.055824, 0.180017,1,-0.410284,-0.016963, 9.798049,1,1
1778253722337,   416.247,   416.242, 0.038786,-0.002527,-1.092111, 0.000549,-0.000146,-0.010661,-0.407757,-0.633850,-0.791512,1,-0.017637, 0.085111, 0.177288,1,-0.426978,-0.022771, 9.797324,1,1
1778253722359,   416.267,   416.267, 0.025914, 0.001230,-0.956957, 0.000300,-0.000235,-0.009214,-0.200929,-0.010834, 0.411518,1,-0.001783, 0.134427, 0.164024,1,-0.459262,-0.022718, 9.795864,1,1
1778253722385,   416.292,   416.292, 0.051387,-0.017758,-0.906126, 0.000526,-0.000331,-0.009020, 0.025207,-0.196022, 0.908870,1,-0.007802, 0.117398, 0.152296,1,-0.482401,-0.021890, 9.794753,1,1
1778253722407,   416.317,   416.312, 0.059820,-0.026431,-1.040833, 0.000570,-0.000350,-0.009881,-0.315568,-0.123743, 2.002904,1,-0.033902, 0.094537, 0.130845,1,-0.502172,-0.027346, 9.793746,1,1
1778253722429,   416.337,   416.337, 0.059116,-0.063359,-1.007224, 0.000562,-0.000465,-0.009411, 0.055508,-0.657441,-0.084931,1,-0.015812, 0.080300, 0.090358,1,-0.526736,-0.036445, 9.792426,1,1
1778253722455,   416.362,   416.362, 0.058388,-0.070142,-0.978906, 0.000522,-0.000636,-0.009110, 0.037095,-0.721634, 0.192172,1, 0.020484, 0.065237, 0.054038,1,-0.537537,-0.033049, 9.791851,1,1
1778253722477,   416.387,   416.382, 0.058405,-0.030248,-0.956998, 0.000715,-0.000164,-0.009634,-0.238900,-0.241079, 1.342190,1, 0.020881, 0.023251, 0.037744,1,-0.541635,-0.027942, 9.791641,1,1
1778253722500,   416.407,   416.407, 0.015860,-0.081281,-1.017527, 0.000194,-0.000783,-0.010113,-0.388529,-0.825554,-0.187029,1,-0.031786, 0.002039, 0.024601,1,-0.544018,-0.029390, 9.791505,1,1
1778253722525,   416.432,   416.432, 0.050760,-0.007393,-1.075137, 0.000235,-0.000273,-0.010100,-0.043642,-0.107699,-0.751868,1,-0.059235,-0.009135, 0.021087,1,-0.541144,-0.037011, 9.791638,1,1
1778253722547,   416.457,   416.452, 0.070707,-0.058318,-0.854137, 0.000547,-0.000575,-0.008918, 0.397918,-0.046523,-0.572294,1,-0.034798,-0.027489, 0.017748,1,-0.537644,-0.041675, 9.791812,1,1
1778253722570,   416.482,   416.477, 0.062937,-0.029362,-0.889015, 0.000721,-0.000448,-0.009252, 0.091683,-0.328544, 1.074220,1, 0.015819,-0.059124,-0.005446,1,-0.523676,-0.040119, 9.792576,1,1
1778253722595,   416.502,   416.502, 0.064138,-0.004535,-0.963341, 0.000675,-0.000103,-0.009931, 0.194784, 0.012669, 0.022041,1, 0.018217,-0.047039,-0.005547,1,-0.519273,-0.038393, 9.792817,1,1
1778253722617,   416.527,   416.522, 0.068768, 0.033980,-0.979042, 0.000752, 0.000247,-0.009603,-0.006658, 0.060537, 0.277559,1, 0.031760,-0.063318,-0.001306,1,-0.502099,-0.029439, 9.793744,1,1
1778253722640,   416.552,   416.547, 0.067252, 0.046185,-0.928541, 0.000837, 0.000222,-0.009446, 0.173636, 0.424079, 0.688683,1,-0.016816,-0.060971, 0.015440,1,-0.483978,-0.029341, 9.794656,1,1
1778253722666,   416.572,   416.572, 0.031397, 0.070391,-0.971084, 0.000523, 0.000554,-0.009723,-0.164419, 0.658148, 0.272134,1,-0.028415,-0.073721, 0.023477,1,-0.470022,-0.033000, 9.795324,1,1
1778253722687,   416.597,   416.592, 0.039688, 0.006888,-0.984891, 0.000276, 0.000019,-0.009766, 0.167488, 0.348920,-0.879693,1,-0.007310,-0.081361, 0.032810,1,-0.457669,-0.034693, 9.795903,1,1
1778253722710,   416.622,   416.617, 0.053608, 0.016982,-0.965919, 0.000617, 0.000279,-0.009688, 0.080904, 0.134366, 0.324072,1, 0.016933,-0.031342, 0.040677,1,-0.443841,-0.031580, 9.796550,1,1
1778253722736,   416.642,   416.642, 0.075305, 0.019560,-0.921067, 0.000696, 0.000220,-0.009471, 0.298522, 0.164182, 0.764157,1, 0.028987, 0.003171, 0.039615,1,-0.440069,-0.026673, 9.796735,1,1
1778253722757,   416.667,   416.662, 0.066396, 0.000223,-1.199090, 0.000399,-0.000044,-0.011645,-0.083732, 0.608782, 1.067716,1, 0.005824,-0.029635, 0.051161,1,-0.434774,-0.027962, 9.796968,1,1
1778253722780,   416.692,   416.687, 0.048381, 0.046974,-1.168530, 0.000350, 0.000394,-0.011868, 0.039861, 0.429389,-1.662404,1, 0.002322, 0.002953, 0.029302,1,-0.434691,-0.031159, 9.796962,1,1
1778253722806,   416.712,   416.712, 0.044959,-0.041102,-1.150033, 0.000389, 0.000024,-0.011820, 0.002306,-0.429291,-1.481165,1, 0.047554, 0.018796, 0.020542,1,-0.439177,-0.024709, 9.796780,1,1
1778253722827,   416.737,   416.732, 0.001883, 0.023775,-1.058467, 0.000026, 0.000175,-0.010445, 0.446373, 0.435540,-1.073387,1, 0.026693, 0.040297, 0.030136,1,-0.446053,-0.020771, 9.796478,1,1
1778253722850,   416.762,   416.757, 0.062074, 0.041670,-1.174287, 0.000443, 0.000009,-0.011454, 0.147543, 0.392087,-1.720041,1,-0.027973, 0.057907, 0.049700,1,-0.463002,-0.017351, 9.795699,1,1
1778253722876,   416.782,   416.782, 0.092194, 0.027987,-1.112498, 0.000713, 0.000450,-0.011157, 0.426727, 0.257426,-1.114871,1,-0.009894, 0.089253, 0.060503,1,-0.480173,-0.017253, 9.794872,1,1
1778253722897,   416.807,   416.802, 0.033693, 0.053019,-0.902668, 0.000188, 0.000577,-0.009500, 0.214606,-0.021613,-0.783896,1,-0.011503, 0.088338, 0.076224,1,-0.498501,-0.018656, 9.793954,1,1
1778253722924,   416.832,   416.832, 0.022649, 0.016605,-0.925460, 0.000288, 0.000311,-0.009731,-0.301981, 0.140695, 0.716951,1,-0.007983, 0.091275, 0.079885,1,-0.526946,-0.022265, 9.792458,1,1
1778253722946,   416.852,   416.852, 0.047817, 0.067199,-0.999649, 0.000602, 0.000559,-0.010364,-0.075489, 0.636209,-0.011711,1, 0.002595, 0.081315, 0.076450,1,-0.546954,-0.022574, 9.791359,1,1
1778253722967,   416.877,   416.872, 0.041672, 0.007720,-0.910914, 0.000399, 0.000204,-0.009066,-0.193696, 0.682153,-0.143595,1, 0.021120, 0.089361, 0.082426,1,-0.566083,-0.018569, 9.790280,1,1
1778253722994,   416.902,   416.902, 0.074629, 0.049205,-0.887090, 0.000569, 0.000301,-0.009208, 0.140974, 0.473229, 1.089447,1, 0.026880, 0.111758, 0.088077,1,-0.594375,-0.008305, 9.788617,1,1
1778253723016,   416.927,   416.922, 0.056975, 0.085740,-1.079288, 0.000634, 0.000674,-0.010430,-0.086261, 0.275883, 1.163149,1, 0.023844, 0.093531, 0.097508,1,-0.609865,-0.000779, 9.787668,1,1
1778253723038,   416.947,   416.942, 0.062738, 0.099597,-1.066222, 0.000720, 0.000746,-0.010154,-0.388400, 0.425467, 1.411096,1, 0.024384, 0.073873, 0.117315,1,-0.623817, 0.004285, 9.786788,1,1
1778253723064,   416.972,   416.972, 0.075936, 0.094704,-1.013106, 0.000681, 0.000931,-0.009408, 0.103480, 0.934043,-0.149510,1,-0.020069, 0.061138, 0.151802,1,-0.643101, 0.005000, 9.785540,1,1
1778253723086,   416.997,   416.992, 0.045197, 0.083385,-0.924760, 0.000634, 0.000975,-0.009617, 0.166412, 0.509521, 0.696382,1,-0.016114, 0.048470, 0.165568,1,-0.650542, 0.004995, 9.785048,1,1
1778253723108,   417.017,   417.012, 0.070433, 0.053363,-1.008542, 0.000643, 0.000665,-0.010006, 0.459685, 0.508618, 1.472378,1,-0.023843, 0.035430, 0.185771,1,-0.654322, 0.003108, 9.784796,1,1
1778253723135,   417.042,   417.042, 0.083256, 0.086647,-1.003157, 0.000798, 0.000775,-0.009826, 0.163840, 0.847723,-0.052700,1,-0.052632,-0.020920, 0.209068,1,-0.651974,-0.003202, 9.784953,1,1
1778253723156,   417.067,   417.062, 0.044016, 0.035611,-0.916396, 0.000482, 0.000354,-0.009505, 0.086799, 0.644637,-0.579290,1,-0.040135,-0.037725, 0.219201,1,-0.644538,-0.008239, 9.785442,1,1
1778253723178,   417.087,   417.082, 0.063455, 0.050241,-0.994647, 0.000674, 0.000432,-0.010151,-0.152428, 1.029979,-0.051204,1,-0.013435,-0.040183, 0.225037,1,-0.634273,-0.011521, 9.786110,1,1
1778253723205,   417.112,   417.112, 0.098770, 0.038782,-1.045914, 0.001067, 0.000429,-0.010407, 0.344135, 0.377459,-0.470166,1, 0.018549,-0.055057, 0.223497,1,-0.622756,-0.001837, 9.786857,1,1
1778253723226,   417.137,   417.132, 0.088401, 0.093836,-1.030145, 0.000818, 0.000560,-0.010495, 0.157010, 1.031327,-0.262433,1, 0.019607,-0.042971, 0.249363,1,-0.612662, 0.003081, 9.787493,1,1
1778253723248,   417.157,   417.152, 0.055436, 0.061497,-1.046438, 0.000739, 0.000933,-0.010580, 0.264069, 0.746167,-0.732910,1,-0.042591,-0.029569, 0.266069,1,-0.604381, 0.003423, 9.788008,1,1
1778253723275,   417.182,   417.182, 0.070226, 0.088222,-1.109554, 0.000626, 0.000865,-0.010692, 0.092848, 0.866150,-1.092474,1,-0.031119,-0.022502, 0.292874,1,-0.595131, 0.000573, 9.788575,1,1
1778253723296,   417.207,   417.202, 0.028887, 0.068648,-1.015322, 0.000136, 0.000785,-0.010346, 0.387656, 1.084861,-1.963621,1, 0.012074,-0.026412, 0.305860,1,-0.592763, 0.005155, 9.788717,1,1
1778253723318,   417.227,   417.222, 0.072391, 0.082214,-0.990817, 0.000687, 0.000859,-0.010174, 0.290785, 0.683495,-0.279957,1, 0.050223, 0.025660, 0.311532,1,-0.594174, 0.017623, 9.788617,1,1
1778253723345,   417.252,   417.252, 0.069304, 0.059716,-1.033005, 0.000848, 0.000778,-0.010633, 0.081647, 0.606525,-0.341937,1,-0.043205,-0.024145, 0.343918,1,-0.597214, 0.020220, 9.788427,1,1
1778253723366,   417.277,   417.272, 0.078718,-0.008681,-0.925260, 0.000631,-0.000019,-0.009624,-0.019911, 0.308291,-0.864680,1,-0.053791, 0.008948, 0.353409,1,-0.599757, 0.012144, 9.788285,1,1
1778253723388,   417.297,   417.292, 0.087169,-0.048365,-0.964886, 0.000911,-0.000612,-0.010243,-0.346162, 0.233606,-1.551730,1,-0.000566, 0.009661, 0.326121,1,-0.602482, 0.011973, 9.788118,1,1
1778253723415,   417.322,   417.322, 0.049590, 0.012748,-0.950357, 0.000679, 0.000111,-0.009529,-0.115233, 0.158499, 0.468304,1, 0.082387, 0.001683, 0.292815,1,-0.601571, 0.036616, 9.788113,1,1
1778253723436,   417.347,   417.342, 0.043366, 0.028761,-1.013327, 0.000393, 0.000500,-0.010612, 0.330836, 0.106478,-0.739765,1, 0.041717, 0.023843, 0.294318,1,-0.607806, 0.053172, 9.787652,1,1
1778253723459,   417.367,   417.367, 0.034224, 0.078952,-0.976817, 0.000567, 0.000699,-0.010325,-0.277650, 0.832206, 0.207983,1,-0.022633, 0.020548, 0.316617,1,-0.613856, 0.057865, 9.787248,1,1
1778253723485,   417.392,   417.392, 0.012295, 0.024938,-1.002764, 0.000524, 0.000502,-0.010723,-0.499573, 0.298386,-0.046879,1,-0.026769, 0.010120, 0.327614,1,-0.620403, 0.053639, 9.786859,1,1
1778253723507,   417.417,   417.412, 0.088546, 0.011177,-0.939216, 0.000576, 0.000198,-0.009225,-0.261911, 0.760849, 0.079689,1,-0.053462, 0.028722, 0.339099,1,-0.627579, 0.046513, 9.786438,1,1
1778253723529,   417.437,   417.437, 0.084519,-0.020374,-0.950262, 0.000730,-0.000019,-0.009781, 0.190477,-0.156677, 0.466871,1,-0.029056, 0.034590, 0.351991,1,-0.639406, 0.042936, 9.785688,1,1
1778253723555,   417.462,   417.462, 0.051954, 0.094047,-0.840705, 0.000434, 0.000829,-0.008873,-0.131930, 0.958229, 1.541083,1,-0.064031, 0.028216, 0.360860,1,-0.642262, 0.034683, 9.785534,1,1
1778253723577,   417.487,   417.482, 0.057725, 0.075264,-0.971700, 0.000872, 0.000703,-0.010003, 0.015130,-0.380698, 0.243875,1,-0.039655, 0.040240, 0.356181,1,-0.651254, 0.030839, 9.784953,1,1
1778253723599,   417.507,   417.507,-0.008142, 0.068606,-0.937759, 0.000127, 0.000692,-0.009362,-0.728700, 0.700640, 0.588841,1,-0.000012,-0.007766, 0.333697,1,-0.648586, 0.028529, 9.785137,1,1
1778253723625,   417.532,   417.532, 0.055606, 0.040800,-0.988425, 0.000446, 0.000283,-0.009360,-0.103669, 0.435245, 0.091952,1,-0.000132, 0.004607, 0.329836,1,-0.649089, 0.035810, 9.785080,1,1
1778253723647,   417.557,   417.552, 0.059126, 0.008321,-0.832637, 0.000509, 0.000232,-0.008812,-0.402031, 0.722236, 0.084595,1,-0.035688,-0.045072, 0.331566,1,-0.642040, 0.036783, 9.785542,1,1
1778253723670,   417.577,   417.577, 0.030727, 0.002746,-0.848351, 0.000444, 0.000187,-0.009129,-0.330007, 0.058985, 1.466776,1,-0.035889,-0.053672, 0.346185,1,-0.629627, 0.031636, 9.786366,1,1
1778253723695,   417.602,   417.602, 0.030062, 0.013944,-0.842760, 0.000115, 0.000027,-0.008965,-0.323056, 0.163429, 1.522480,1,-0.049223,-0.057201, 0.340727,1,-0.616057, 0.025819, 9.787247,1,1
1778253723717,   417.627,   417.622, 0.053853, 0.045897,-0.965429, 0.000713, 0.000335,-0.009374,-0.201758,-0.137500, 0.706141,1,-0.020675,-0.086676, 0.338123,1,-0.601481, 0.024203, 9.788157,1,1
1778253723740,   417.647,   417.647, 0.017208, 0.080301,-0.942780, 0.000397, 0.000611,-0.009131,-0.408859, 0.811989, 0.544082,1,-0.018577,-0.085331, 0.344390,1,-0.574924, 0.024562, 9.789752,1,1
1778253723765,   417.672,   417.672, 0.015762, 0.101516,-1.061253, 0.000184, 0.000557,-0.009860,-0.407504, 1.022786,-0.616847,1,-0.033343,-0.061358, 0.350808,1,-0.560135, 0.026844, 9.790604,1,1
1778253723787,   417.697,   417.692, 0.043273, 0.080503,-1.020620, 0.000156, 0.000751,-0.010065,-0.313408, 1.055913,-0.369007,1,-0.032135,-0.083457, 0.353845,1,-0.544773, 0.027111, 9.791470,1,1
1778253723810,   417.722,   417.717, 0.027252, 0.065019,-1.039403, 0.000363, 0.000778,-0.010287,-0.265578, 0.661339,-0.400925,1,-0.035471,-0.044959, 0.374360,1,-0.531403, 0.023245, 9.792214,1,1
1778253723835,   417.742,   417.742, 0.003453, 0.048527,-1.115518, 0.000162, 0.000784,-0.010893,-0.492987, 0.491989,-1.147018,1,-0.057909,-0.041576, 0.391319,1,-0.525529, 0.014955, 9.792547,1,1
1778253723857,   417.767,   417.762, 0.020168, 0.027373,-0.957949, 0.000196, 0.000350,-0.009987,-0.624855, 0.646365,-1.776507,1,-0.063503,-0.024913, 0.379354,1,-0.520135, 0.007430, 9.792844,1,1
1778253723880,   417.792,   417.787, 0.020528,-0.014279,-0.958813, 0.000219,-0.000278,-0.009734,-0.321430,-0.122122, 0.389944,1, 0.024041, 0.029459, 0.361591,1,-0.523640, 0.019257, 9.792641,1,1
1778253723906,   417.812,   417.812, 0.073314, 0.048604,-0.979343, 0.000603, 0.000322,-0.009818, 0.189775, 0.502875, 0.188247,1, 0.017085, 0.028558, 0.353459,1,-0.530040, 0.027330, 9.792277,1,1
1778253723927,   417.837,   417.832,-0.030878, 0.011132,-1.054125, 0.000002, 0.000260,-0.010159, 0.090424, 0.510982,-0.469207,1, 0.001334, 0.041341, 0.344482,1,-0.536608, 0.033857, 9.791899,1,1
1778253723950,   417.862,   417.857, 0.001245, 0.033991,-1.131286, 0.000105,-0.000109,-0.010658,-0.535668, 0.373750,-1.302874,1,-0.048017, 0.055432, 0.361297,1,-0.549555, 0.039540, 9.791160,1,1
1778253723976,   417.882,   417.882, 0.044860, 0.090478,-1.152949, 0.000373, 0.000690,-0.010779,-0.119434, 0.927443,-1.515966,1,-0.036339, 0.061369, 0.360805,1,-0.561231, 0.039666, 9.790497,1,1
1778253723997,   417.907,   417.902, 0.031194,-0.022811,-0.985613, 0.000274,-0.000271,-0.010301,-0.013722, 0.423119,-1.011942,1, 0.014349, 0.081397, 0.345739,1,-0.574878, 0.046307, 9.789676,1,1
1778253724020,   417.932,   417.927, 0.032113, 0.022525,-1.009640, 0.000327, 0.000362,-0.010430,-0.277020, 0.281481,-0.112610,1, 0.026195, 0.064897, 0.332046,1,-0.593903, 0.062028, 9.788453,1,1
1778253724046,   417.952,   417.952, 0.030717, 0.055627,-1.003514, 0.000250, 0.000772,-0.010098,-0.304010, 0.610585,-0.053371,1,-0.010593, 0.076198, 0.351821,1,-0.607541, 0.065421, 9.787594,1,1
1778253724067,   417.977,   417.972, 0.038007, 0.031496,-1.011282, 0.000410, 0.000347,-0.010175,-0.245485, 0.417254, 0.339692,1,-0.055488, 0.085018, 0.368369,1,-0.623161, 0.060919, 9.786641,1,1
1778253724090,   418.002,   417.997, 0.044190, 0.017344,-1.021657, 0.000424, 0.000346,-0.009918,-0.206822, 0.220465,-0.233431,1,-0.041146, 0.067269, 0.379252,1,-0.642213, 0.049865, 9.785472,1,1
1778253724116,   418.022,   418.022, 0.028197, 0.067217,-1.051725, 0.000075, 0.000349,-0.010013,-0.374532, 0.709235,-0.529012,1,-0.029072, 0.078480, 0.379553,1,-0.653432, 0.049934, 9.784729,1,1
1778253724137,   418.047,   418.042, 0.056618, 0.120740,-0.986002, 0.000413, 0.000824,-0.009544,-0.360583, 1.079238, 0.096935,1, 0.013945, 0.045010, 0.382044,1,-0.661754, 0.056529, 9.784134,1,1
1778253724164,   418.072,   418.072, 0.061850, 0.112858,-0.981015, 0.000502, 0.001020,-0.009478,-0.067438, 1.167514, 0.162801,1,-0.048668, 0.054437, 0.401016,1,-0.675593, 0.060098, 9.783167,1,1
1778253724186,   418.092,   418.092, 0.041908, 0.067384,-0.909795, 0.000362, 0.000737,-0.009009,-0.271084, 0.719388, 0.860689,1,-0.035010, 0.059977, 0.419999,1,-0.683847, 0.058395, 9.782603,1,1
1778253724207,   418.117,   418.112, 0.024427, 0.167082,-1.057321, 0.000448, 0.001536,-0.011062,-0.615508, 0.456963, 1.211957,1,-0.016054, 0.060862, 0.437208,1,-0.692224, 0.056650, 9.782024,1,1
1778253724234,   418.142,   418.142, 0.005185, 0.137693,-1.061954, 0.000379, 0.001215,-0.010704,-0.653465, 1.405961,-0.633047,1,-0.035011, 0.024183, 0.467518,1,-0.704979, 0.055614, 9.781119,1,1
1778253724256,   418.167,   418.162, 0.022772, 0.068207,-0.973709, 0.000267, 0.000705,-0.009701,-0.195250, 1.368974,-0.430268,1,-0.041115, 0.036433, 0.483325,1,-0.712570, 0.053851, 9.780580,1,1
1778253724278,   418.187,   418.182, 0.039457, 0.065317,-1.018009, 0.000466, 0.000854,-0.010115,-0.385025, 1.066064, 0.123850,1,-0.054202, 0.043327, 0.500082,1,-0.718784, 0.051768, 9.780136,1,1
1778253724305,   418.212,   418.212, 0.035423, 0.150907,-0.968392, 0.000438, 0.001522,-0.009438,-0.377897, 1.525795, 0.283001,1,-0.058659, 0.030116, 0.531108,1,-0.726135, 0.045280, 9.779625,1,1
1778253724326,   418.237,   418.232, 0.010482, 0.053691,-1.022224, 0.000094, 0.000635,-0.010372,-0.500878, 1.098873, 0.614473,1,-0.060819, 0.028544, 0.540310,1,-0.729725, 0.042123, 9.779371,1,1
1778253724348,   418.257,   418.252, 0.036134, 0.079054,-1.049354, 0.000148, 0.000833,-0.010854,-0.220002, 1.146477, 1.194651,1,-0.048764, 0.013844, 0.547987,1,-0.731937, 0.038206, 9.779222,1,1
1778253724375,   418.282,   418.282, 0.065488, 0.096517,-1.081875, 0.000647, 0.001122,-0.011260,-0.092257, 0.982153,-0.830526,1,-0.039129,-0.015713, 0.563430,1,-0.733924, 0.035744, 9.779083,1,1
1778253724396,   418.307,   418.302, 0.042821, 0.100847,-0.885742, 0.000269, 0.000833,-0.008946,-0.396813, 1.196571,-0.807900,1,-0.045535,-0.032877, 0.576747,1,-0.731365, 0.033515, 9.779283,1,1
1778253724418,   418.327,   418.322, 0.041555, 0.137777,-0.890241, 0.000220, 0.001269,-0.009343,-0.568259, 1.445830,-0.781787,1,-0.059705,-0.010559, 0.594460,1,-0.728039, 0.030278, 9.779541,1,1
1778253724445,   418.352,   418.352, 0.030180, 0.098015,-0.908507, 0.000445, 0.001248,-0.010015,-0.432976, 0.991074, 0.870066,1,-0.035514,-0.015379, 0.620039,1,-0.728408, 0.030212, 9.779514,1,1
1778253724466,   418.377,   418.372, 0.032761, 0.035830,-0.893460, 0.000193, 0.000471,-0.008675,-0.353709, 0.657288, 0.578232,1,-0.030606,-0.041726, 0.615676,1,-0.721287, 0.031734, 9.780037,1,1
1778253724488,   418.397,   418.392, 0.088481, 0.021515,-0.816871, 0.000851, 0.000226,-0.007772, 0.021763, 0.211017, 1.430914,1,-0.005607,-0.036194, 0.610718,1,-0.717664, 0.037400, 9.780283,1,1
1778253724515,   418.422,   418.422, 0.050055, 0.001804,-0.869393, 0.000480, 0.000024,-0.008339,-0.211177, 0.049508, 1.255599,1,-0.085285,-0.082432, 0.596017,1,-0.699422, 0.030494, 9.781629,1,1
1778253724536,   418.447,   418.442, 0.064067,-0.011686,-0.997551, 0.000660,-0.000117,-0.009940,-0.394447, 0.135956, 0.626033,1,-0.037111,-0.086734, 0.591635,1,-0.681210, 0.028173, 9.782921,1,1
1778253724558,   418.467,   418.462, 0.058767, 0.018822,-0.950237, 0.000561, 0.000019,-0.009754,-0.228742, 0.276338, 0.294917,1,-0.012220,-0.109568, 0.581594,1,-0.662707, 0.032323, 9.784179,1,1
1778253724585,   418.492,   418.492, 0.035240, 0.023436,-1.010593, 0.000426, 0.000236,-0.010043,-0.289501, 0.267516,-0.124538,1,-0.033165,-0.096781, 0.566428,1,-0.632003, 0.037797, 9.786191,1,1
1778253724606,   418.517,   418.512, 0.040126, 0.033298,-1.002547, 0.000501, 0.000363,-0.010394,-0.518785, 0.021828,-1.069647,1,-0.046046,-0.089461, 0.554564,1,-0.611732, 0.037744, 9.787478,1,1
1778253724628,   418.537,   418.532, 0.049183,-0.033315,-0.897779, 0.000426,-0.000380,-0.009381,-0.342975, 0.238079,-1.475111,1,-0.016484,-0.076652, 0.541634,1,-0.597169, 0.039190, 9.788373,1,1
1778253724655,   418.562,   418.562, 0.037993,-0.036600,-0.878730, 0.000374,-0.000369,-0.009023,-0.208898,-0.316120, 1.171907,1,-0.017061,-0.061544, 0.509054,1,-0.579498, 0.043219, 9.789417,1,1
1778253724677,   418.587,   418.582, 0.054424, 0.009515,-1.082664, 0.000236,-0.000189,-0.010071,-0.125858,-0.500902, 0.535588,1,-0.002002,-0.067151, 0.487884,1,-0.567747, 0.045499, 9.790096,1,1
