Time,GPS_ts,fGPS_ts,scaledAccelX,scaledAccelY,scaledAccelZ,deltaVelX,deltaVelY,deltaVelZ,estLinearAccelX,estLinearAccelY,estLinearAccelZ,estLinearAccel:valid,estAngularRateX,estAngularRateY,estAngularRateZ,estAngularRate:valid,estGravityX,estGravityY,estGravityZ,estGravity:valid,flag
1778254033266,   688.536,   688.536,-0.011696,-0.004613,-0.995609,-0.000115,-0.000049,-0.009956,-0.002832,-0.002602, 0.042332,1,-0.000127,-0.000644,-0.000772,1, 0.111889, 0.042630, 9.805919,1,0
1778254033266,   688.561,   688.556,-0.012307,-0.004800,-0.995507,-0.000121,-0.000049,-0.009955, 0.000835, 0.000524, 0.039505,1,-0.000249, 0.000038,-0.000727,1, 0.111864, 0.042630, 9.805920,1,0
1778254033266,   688.581,   688.581,-0.011830,-0.004456,-0.995911,-0.000117,-0.000045,-0.009958,-0.004248,-0.001018, 0.039374,1, 0.000604, 0.000473,-0.000023,1, 0.111751, 0.042698, 9.805921,1,0
1778254033266,   688.606,   688.606,-0.011773,-0.004507,-0.996263,-0.000117,-0.000045,-0.009958,-0.003761,-0.001512, 0.035921,1,-0.000429, 0.000557, 0.000195,1, 0.111674, 0.042671, 9.805922,1,0
1778254033266,   688.631,   688.626,-0.012351,-0.004454,-0.995445,-0.000121,-0.000043,-0.009956,-0.006733,-0.005889, 0.038878,1, 0.000442, 0.001313,-0.000693,1, 0.111534, 0.042675, 9.805923,1,0
1778254033266,   688.656,   688.656,-0.011951,-0.004369,-0.995490,-0.000121,-0.000043,-0.009957,-0.005695,-0.000166, 0.043504,1, 0.000330,-0.000141,-0.000487,1, 0.111504, 0.042690, 9.805923,1,0
1778254033266,   688.681,   688.676,-0.011536,-0.004268,-0.995611,-0.000117,-0.000044,-0.009953,-0.002455, 0.001414, 0.043173,1,-0.000474, 0.000357, 0.000350,1, 0.111442, 0.042670, 9.805923,1,0
1778254033266,   688.706,   688.701,-0.011822,-0.004424,-0.996016,-0.000120,-0.000045,-0.009961,-0.004284,-0.000609, 0.038343,1,-0.000141, 0.000398, 0.000128,1, 0.111653, 0.042776, 9.805921,1,0
1778254033266,   688.731,   688.726,-0.011916,-0.004428,-0.995630,-0.000119,-0.000046,-0.009958,-0.003049,-0.006321, 0.043244,1, 0.000643, 0.000436, 0.000377,1, 0.111672, 0.042795, 9.805921,1,0
1778254033266,   688.751,   688.746,-0.011675,-0.004637,-0.995628,-0.000116,-0.000047,-0.009957,-0.004889, 0.000573, 0.042371,1,-0.000766,-0.000272, 0.000422,1, 0.111715, 0.042647, 9.805921,1,0
1778254033266,   688.771,   688.766,-0.011678,-0.004688,-0.995936,-0.000117,-0.000047,-0.009956,-0.001998,-0.003383, 0.036699,1, 0.000275, 0.000291,-0.000410,1, 0.111670, 0.042715, 9.805922,1,0
1778254033280,   727.226,   727.226,-0.015161,-0.008168,-0.994557,-0.000161,-0.000072,-0.009966,-0.031730,-0.035488, 0.052580,1, 0.000982, 0.000409, 0.000215,1, 0.116932, 0.044647, 9.805851,1,0
1778254033302,   727.251,   727.246,-0.013620,-0.005125,-0.996945,-0.000143,-0.000055,-0.009964,-0.034322,-0.020315, 0.053065,1, 0.000115, 0.000185,-0.000619,1, 0.116852, 0.044669, 9.805852,1,0
1778254033323,   727.271,   727.266,-0.009702,-0.003327,-0.994848,-0.000101,-0.000039,-0.009953, 0.004198,-0.001190, 0.048120,1,-0.000065,-0.000081,-0.001195,1, 0.116885, 0.044604, 9.805852,1,0
1778254033350,   727.296,   727.296,-0.008381,-0.003643,-0.996358,-0.000084,-0.000042,-0.009965, 0.034798, 0.008894, 0.034918,1,-0.000250, 0.000643,-0.000622,1, 0.117001, 0.044588, 9.805851,1,0
1778254033372,   727.321,   727.316,-0.006799,-0.001975,-0.995847,-0.000065,-0.000019,-0.009960, 0.050072, 0.007950, 0.039571,1, 0.000042, 0.000262,-0.000368,1, 0.117008, 0.044710, 9.805850,1,0
1778254033395,   727.341,   727.341,-0.007673,-0.002892,-0.996847,-0.000072,-0.000028,-0.009971, 0.041748, 0.016303, 0.030122,1,-0.000874,-0.000185, 0.000997,1, 0.117004, 0.044639, 9.805850,1,0
1778254033420,   727.366,   727.366,-0.009970,-0.003025,-0.996811,-0.000098,-0.000029,-0.009969, 0.019243, 0.015043, 0.030469,1, 0.000598,-0.000127, 0.000629,1, 0.117021, 0.044723, 9.805850,1,0
1778254033442,   727.391,   727.386,-0.015650,-0.005091,-0.996608,-0.000141,-0.000036,-0.009961,-0.011942,-0.014357, 0.026438,1,-0.000816, 0.001415, 0.001051,1, 0.117014, 0.044740, 9.805850,1,0
1778254033465,   727.411,   727.411,-0.017169,-0.005439,-0.996711,-0.000167,-0.000051,-0.009959,-0.051398,-0.008615, 0.031451,1, 0.000201,-0.000609, 0.000387,1, 0.116993, 0.044732, 9.805850,1,0
1778254033490,   727.436,   727.436,-0.016349,-0.005994,-0.994612,-0.000166,-0.000060,-0.009947,-0.043341,-0.014115, 0.052034,1,-0.000372, 0.000037,-0.000189,1, 0.116992, 0.044655, 9.805850,1,0
1778254033512,   727.461,   727.456,-0.013991,-0.005473,-0.996026,-0.000145,-0.000057,-0.009959,-0.030550,-0.010006, 0.039436,1, 0.000118,-0.000384,-0.000487,1, 0.117025, 0.044575, 9.805850,1,0
1778254033535,   727.481,   727.481,-0.011061,-0.004926,-0.995923,-0.000115,-0.000047,-0.009961, 0.008593,-0.003681, 0.039183,1,-0.000336, 0.000180,-0.000997,1, 0.117060, 0.044614, 9.805850,1,0
1778254033561,   727.506,   727.506,-0.009108,-0.003982,-0.996069,-0.000090,-0.000041,-0.009961, 0.027776, 0.005445, 0.037750,1,-0.000260, 0.000198,-0.000256,1, 0.117092, 0.044485, 9.805850,1,0
1778254033582,   727.531,   727.526,-0.008316,-0.002916,-0.995563,-0.000083,-0.000032,-0.009960, 0.038283, 0.009849, 0.035894,1,-0.000129, 0.000891, 0.000410,1, 0.116957, 0.044454, 9.805852,1,0
1778254033605,   727.551,   727.551,-0.009788,-0.003623,-0.995993,-0.000096,-0.000036,-0.009962, 0.020869, 0.008854, 0.038499,1, 0.000503, 0.000647,-0.000416,1, 0.116840, 0.044401, 9.805854,1,0
1778254033631,   727.576,   727.576,-0.011628,-0.003757,-0.996003,-0.000114,-0.000037,-0.009961, 0.002842, 0.007528, 0.038395,1,-0.000477, 0.000198, 0.000076,1, 0.116871, 0.044353, 9.805853,1,0
1778254033652,   727.601,   727.596,-0.014461,-0.005280,-0.995912,-0.000144,-0.000050,-0.009960,-0.013335,-0.008469, 0.039279,1,-0.000160, 0.000208, 0.000489,1, 0.116904, 0.044328, 9.805853,1,0
1778254033675,   727.621,   727.621,-0.015138,-0.005296,-0.994879,-0.000153,-0.000053,-0.009951,-0.031557,-0.007584, 0.049425,1, 0.000228,-0.000259,-0.000395,1, 0.116907, 0.044358, 9.805853,1,0
1778254033701,   727.646,   727.646,-0.013515,-0.005004,-0.995864,-0.000137,-0.000052,-0.009957,-0.024485,-0.007409, 0.048872,1,-0.000574, 0.000049,-0.000474,1, 0.116936, 0.044360, 9.805853,1,0
1778254033722,   727.671,   727.666,-0.011215,-0.004256,-0.995712,-0.000111,-0.000043,-0.009957,-0.007311,-0.002362, 0.043664,1,-0.000166,-0.000111,-0.000325,1, 0.116958, 0.044372, 9.805852,1,0
1778254033745,   727.696,   727.691,-0.009543,-0.003518,-0.995674,-0.000095,-0.000035,-0.009956, 0.023407, 0.009851, 0.041629,1, 0.000656, 0.000081,-0.000454,1, 0.116937, 0.044348, 9.805853,1,0
1778254033771,   727.716,   727.716,-0.009255,-0.003593,-0.995493,-0.000092,-0.000037,-0.009955, 0.026228, 0.009165, 0.043402,1,-0.000106, 0.000017,-0.000017,1, 0.116984, 0.044399, 9.805852,1,0
1778254033792,   727.741,   727.736,-0.010850,-0.003640,-0.995625,-0.000106,-0.000039,-0.009957, 0.017386, 0.010278, 0.042743,1,-0.000117,-0.000090, 0.000474,1, 0.116879, 0.044394, 9.805853,1,0
1778254033815,   727.766,   727.761,-0.012174,-0.004847,-0.995673,-0.000121,-0.000045,-0.009958,-0.002441,-0.003074, 0.041638,1,-0.000144,-0.000097, 0.000000,1, 0.116949, 0.044453, 9.805852,1,0
1778254033841,   727.786,   727.786,-0.013234,-0.004843,-0.995921,-0.000131,-0.000047,-0.009958,-0.012850,-0.003093, 0.039204,1, 0.000068,-0.000390,-0.000036,1, 0.116943, 0.044406, 9.805852,1,0
1778254033862,   727.811,   727.806,-0.014341,-0.005065,-0.995352,-0.000145,-0.000050,-0.009952,-0.021086,-0.007245, 0.039276,1,-0.000046, 0.000650, 0.000664,1, 0.116896, 0.044424, 9.805853,1,0
1778254033885,   727.836,   727.831,-0.013004,-0.004414,-0.995352,-0.000132,-0.000043,-0.009953,-0.010675, 0.001065, 0.044780,1,-0.000848, 0.000045,-0.000111,1, 0.116847, 0.044326, 9.805854,1,0
1778254033911,   727.856,   727.856,-0.011030,-0.004279,-0.995728,-0.000112,-0.000041,-0.009962, 0.008665, 0.002300, 0.041093,1, 0.000013, 0.000053,-0.000311,1, 0.116831, 0.044264, 9.805854,1,0
1778254033932,   727.881,   727.876,-0.010092,-0.003571,-0.996410,-0.000102,-0.000033,-0.009964, 0.018104, 0.010214, 0.039615,1, 0.000928, 0.000427,-0.000183,1, 0.116800, 0.044361, 9.805854,1,0
1778254033955,   727.906,   727.901,-0.010239,-0.004327,-0.995574,-0.000101,-0.000042,-0.009955, 0.016384, 0.001773, 0.042609,1,-0.000001, 0.000050, 0.000479,1, 0.116792, 0.044207, 9.805855,1,0
1778254033981,   727.926,   727.926,-0.010710,-0.004459,-0.995454,-0.000108,-0.000042,-0.009956, 0.011770, 0.000622, 0.043784,1, 0.001025, 0.000028, 0.001061,1, 0.116803, 0.044383, 9.805854,1,0
1778254034003,   727.951,   727.946,-0.013094,-0.004421,-0.994100,-0.000128,-0.000047,-0.009949,-0.002131,-0.006756, 0.037874,1,-0.000425,-0.000378, 0.000048,1, 0.116759, 0.044325, 9.805855,1,0
1778254034025,   727.976,   727.971,-0.013361,-0.005519,-0.994644,-0.000134,-0.000053,-0.009938,-0.014315,-0.009813, 0.051729,1, 0.000451, 0.000241, 0.000416,1, 0.116709, 0.044321, 9.805856,1,0
1778254034051,   727.996,   727.996,-0.013073,-0.004253,-0.994289,-0.000129,-0.000046,-0.009944,-0.011438, 0.002632, 0.055207,1,-0.000418,-0.000072,-0.000376,1, 0.116771, 0.044330, 9.805855,1,0
1778254034073,   728.021,   728.016,-0.012162,-0.003726,-0.996618,-0.000121,-0.000039,-0.009962,-0.002855, 0.000072, 0.045157,1,-0.000095, 0.000196, 0.000132,1, 0.116699, 0.044284, 9.805856,1,0
1778254034100,   728.046,   728.046,-0.011683,-0.003334,-0.995745,-0.000114,-0.000033,-0.009957, 0.002074, 0.011634, 0.040936,1,-0.000086, 0.000109,-0.000872,1, 0.116646, 0.044331, 9.805856,1,0
1778254034121,   728.066,   728.066,-0.011156,-0.003919,-0.995656,-0.000112,-0.000040,-0.009956, 0.007200, 0.005952, 0.041805,1, 0.000540,-0.000069,-0.000555,1, 0.116606, 0.044400, 9.805856,1,0
1778254034143,   728.091,   728.086,-0.011467,-0.004506,-0.995220,-0.000116,-0.000043,-0.009952, 0.007813, 0.004401, 0.036802,1, 0.000223, 0.000039, 0.000628,1, 0.116625, 0.044452, 9.805856,1,0
1778254034170,   728.116,   728.116,-0.011900,-0.005318,-0.995533,-0.000119,-0.000050,-0.009955,-0.000121,-0.007766, 0.043013,1, 0.000144, 0.000030, 0.000108,1, 0.116576, 0.044388, 9.805857,1,0
1778254034191,   728.141,   728.136,-0.012160,-0.004635,-0.995345,-0.000123,-0.000047,-0.009953,-0.007507,-0.004598, 0.041964,1, 0.000428, 0.000289, 0.000291,1, 0.116554, 0.044436, 9.805857,1,0
1778254034213,   728.161,   728.156,-0.011851,-0.004591,-0.996049,-0.000119,-0.000049,-0.009961,-0.000819,-0.007257, 0.038349,1,-0.000380,-0.000790,-0.000243,1, 0.116593, 0.044399, 9.805857,1,0
1778254034240,   728.186,   728.186,-0.012338,-0.004204,-0.995576,-0.000121,-0.000043,-0.009957,-0.004365, 0.003148, 0.042591,1, 0.000359, 0.000440,-0.000259,1, 0.116614, 0.044384, 9.805856,1,0
1778254034261,   728.211,   728.206,-0.012172,-0.003327,-0.995418,-0.000123,-0.000036,-0.009955,-0.001709, 0.010576, 0.035819,1, 0.000484,-0.000676,-0.000514,1, 0.116640, 0.044423, 9.805856,1,0
1778254034283,   728.231,   728.226,-0.012313,-0.004345,-0.995484,-0.000122,-0.000043,-0.009955, 0.001389, 0.005363, 0.038534,1,-0.000094, 0.000304,-0.000367,1, 0.116653, 0.044387, 9.805856,1,0
1778254034310,   728.256,   728.256,-0.011361,-0.004204,-0.996216,-0.000115,-0.000044,-0.009962, 0.005247, 0.003177, 0.036313,1, 0.000272,-0.000106,-0.000269,1, 0.116666, 0.044414, 9.805856,1,0
1778254034331,   728.281,   728.276,-0.011360,-0.004720,-0.996537,-0.000115,-0.000047,-0.009966, 0.003859, 0.001086, 0.040111,1, 0.000346, 0.000585,-0.000330,1, 0.116662, 0.044525, 9.805855,1,0
1778254034353,   728.301,   728.296,-0.011696,-0.004639,-0.995900,-0.000115,-0.000046,-0.009959, 0.003347,-0.004571, 0.038806,1, 0.001017,-0.000312, 0.000275,1, 0.116688, 0.044597, 9.805855,1,0
1778254034380,   728.326,   728.326,-0.011670,-0.004799,-0.995830,-0.000115,-0.000050,-0.009957, 0.002307,-0.002423, 0.040098,1, 0.000170,-0.000688, 0.000270,1, 0.116774, 0.044647, 9.805853,1,0
1778254034401,   728.351,   728.346,-0.011809,-0.004084,-0.995796,-0.000115,-0.000045,-0.009957, 0.000425,-0.004018, 0.041142,1, 0.000028, 0.000162,-0.000516,1, 0.116799, 0.044622, 9.805853,1,0
1778254034423,   728.371,   728.366,-0.012089,-0.004455,-0.996170,-0.000120,-0.000045,-0.009963, 0.002981, 0.001432, 0.043284,1, 0.000564, 0.000351, 0.000135,1, 0.116742, 0.044597, 9.805854,1,0
1778254034450,   728.396,   728.396,-0.012158,-0.003815,-0.995690,-0.000121,-0.000039,-0.009958,-0.002421, 0.007189, 0.041473,1,-0.000593, 0.000175,-0.000397,1, 0.116800, 0.044584, 9.805853,1,0
1778254034472,   728.421,   728.416,-0.012545,-0.003936,-0.996149,-0.000122,-0.000040,-0.009965,-0.005489, 0.007663, 0.033066,1, 0.000262,-0.000057, 0.000148,1, 0.116777, 0.044610, 9.805853,1,0
1778254034493,   728.441,   728.436,-0.012119,-0.004163,-0.995626,-0.000118,-0.000041,-0.009958,-0.003168, 0.008149, 0.039082,1, 0.000217,-0.000264, 0.000187,1, 0.116725, 0.044590, 9.805854,1,0
1778254034520,   728.466,   728.466,-0.012052,-0.004560,-0.996308,-0.000119,-0.000044,-0.009961,-0.001404,-0.000070, 0.035409,1, 0.000049,-0.000405, 0.000364,1, 0.116803, 0.044645, 9.805853,1,0
1778254034542,   728.491,   728.486,-0.011981,-0.005285,-0.996249,-0.000120,-0.000054,-0.009963, 0.000301, 0.002973, 0.040740,1, 0.000349,-0.000051, 0.000172,1, 0.116861, 0.044814, 9.805851,1,0
1778254034563,   728.511,   728.506,-0.011484,-0.004902,-0.995800,-0.000117,-0.000048,-0.009959, 0.000331,-0.002387, 0.038171,1, 0.000242,-0.000352,-0.000156,1, 0.116930, 0.044867, 9.805850,1,0
1778254034590,   728.536,   728.536,-0.012715,-0.004434,-0.996017,-0.000122,-0.000045,-0.009958,-0.007719, 0.001294, 0.038257,1,-0.000209,-0.000246, 0.000068,1, 0.116980, 0.044771, 9.805850,1,0
1778254034612,   728.561,   728.556,-0.011631,-0.004159,-0.996325,-0.000120,-0.000043,-0.009962,-0.004846, 0.001012, 0.042466,1, 0.000729, 0.000351, 0.000227,1, 0.116994, 0.044788, 9.805850,1,0
1778254034635,   728.581,   728.581,-0.011479,-0.004110,-0.995447,-0.000115,-0.000042,-0.009955, 0.004426, 0.004516, 0.043847,1, 0.000745, 0.000383, 0.000507,1, 0.116988, 0.044844, 9.805850,1,0
1778254034660,   728.606,   728.606,-0.010488,-0.004387,-0.995658,-0.000108,-0.000043,-0.009958, 0.014162, 0.001835, 0.041783,1,-0.000698,-0.000401, 0.000571,1, 0.117026, 0.044832, 9.805849,1,0
1778254034682,   728.631,   728.626,-0.011110,-0.004123,-0.995596,-0.000103,-0.000039,-0.009962,-0.011832,-0.005163, 0.030873,1, 0.000493,-0.001322,-0.000099,1, 0.117167, 0.044833, 9.805847,1,0
1778254034705,   728.651,   728.651,-0.012927,-0.004710,-0.995668,-0.000124,-0.000052,-0.009952,-0.009662,-0.001325, 0.041679,1,-0.000321, 0.000959, 0.000158,1, 0.117081, 0.044857, 9.805848,1,0
1778254034730,   728.676,   728.676,-0.013082,-0.004799,-0.995332,-0.000117,-0.000042,-0.009964,-0.017738,-0.002309, 0.035111,1,-0.000558, 0.000250, 0.000879,1, 0.117025, 0.044866, 9.805849,1,0
1778254034752,   728.701,   728.696,-0.012672,-0.004971,-0.995674,-0.000122,-0.000046,-0.009956,-0.005556,-0.003486, 0.029235,1,-0.000332, 0.000021, 0.000203,1, 0.117075, 0.044865, 9.805848,1,0
1778254034775,   728.721,   728.721,-0.011321,-0.004920,-0.995745,-0.000115,-0.000042,-0.009953, 0.006084,-0.003311, 0.040924,1,-0.000111, 0.000281,-0.000035,1, 0.117100, 0.044935, 9.805848,1,0
1778254034800,   728.746,   728.746,-0.011646,-0.004593,-0.995267,-0.000116,-0.000043,-0.009953, 0.002922,-0.000110, 0.045613,1, 0.000217,-0.000587,-0.000564,1, 0.117148, 0.044936, 9.805847,1,0
1778254034822,   728.771,   728.766,-0.011867,-0.004529,-0.996080,-0.000117,-0.000045,-0.009959, 0.006534, 0.009053, 0.042228,1, 0.000675,-0.000957,-0.000201,1, 0.117162, 0.044961, 9.805847,1,0
1778254034845,   728.791,   728.791,-0.012129,-0.004415,-0.995064,-0.000121,-0.000045,-0.009956,-0.001811, 0.001730, 0.047606,1, 0.000843,-0.000279,-0.000337,1, 0.117143, 0.045056, 9.805847,1,0
1778254034870,   728.816,   728.816,-0.012753,-0.005034,-0.995944,-0.000127,-0.000048,-0.009962,-0.007919,-0.004363, 0.038975,1,-0.000684,-0.000235, 0.000513,1, 0.117151, 0.044978, 9.805847,1,0
1778254034892,   728.841,   728.836,-0.012276,-0.004075,-0.995827,-0.000122,-0.000043,-0.009961,-0.006540, 0.002214, 0.045505,1,-0.001051, 0.000359, 0.000219,1, 0.117146, 0.044885, 9.805847,1,0
1778254034915,   728.861,   728.861,-0.011882,-0.004428,-0.996087,-0.000119,-0.000046,-0.009963, 0.000661, 0.001368, 0.037574,1,-0.000386, 0.000021,-0.000758,1, 0.117184, 0.044780, 9.805847,1,0
1778254034941,   728.886,   728.886,-0.011440,-0.004532,-0.995781,-0.000114,-0.000044,-0.009960, 0.005006, 0.000413, 0.040567,1,-0.000192,-0.000181,-0.000477,1, 0.117198, 0.044850, 9.805847,1,0
1778254034962,   728.911,   728.906,-0.011680,-0.004183,-0.995743,-0.000113,-0.000042,-0.009956, 0.003770,-0.000130, 0.036115,1,-0.000553,-0.000588, 0.000090,1, 0.117255, 0.044788, 9.805847,1,0
1778254034985,   728.936,   728.931,-0.012033,-0.004879,-0.996723,-0.000119,-0.000046,-0.009965,-0.000691,-0.002950, 0.031334,1, 0.000027, 0.000018, 0.000049,1, 0.117307, 0.044902, 9.805845,1,0
1778254035011,   728.956,   728.956,-0.011812,-0.005124,-0.995374,-0.000119,-0.000047,-0.009955, 0.001409,-0.005367, 0.044563,1,-0.000231, 0.000951, 0.000114,1, 0.117212, 0.044877, 9.805847,1,0
1778254035032,   728.981,   728.976,-0.011788,-0.004890,-0.995761,-0.000116,-0.000047,-0.009958,-0.004855, 0.000095, 0.046714,1, 0.000591, 0.000123,-0.000645,1, 0.117248, 0.044915, 9.805846,1,0
1778254035055,   729.006,   729.001,-0.012146,-0.004601,-0.996415,-0.000120,-0.000047,-0.009962,-0.001757,-0.000102, 0.034349,1, 0.000419,-0.000024, 0.000057,1, 0.117356, 0.045035, 9.805844,1,0
1778254035081,   729.026,   729.026,-0.011686,-0.004382,-0.996350,-0.000119,-0.000043,-0.009964, 0.002772, 0.002103, 0.034987,1,-0.000163,-0.000340,-0.000315,1, 0.117380, 0.045071, 9.805844,1,0
1778254035102,   729.051,   729.046,-0.011818,-0.003949,-0.995644,-0.000116,-0.000041,-0.009957, 0.001410, 0.005707, 0.038972,1,-0.000078,-0.000165, 0.000402,1, 0.117411, 0.045091, 9.805843,1,0
1778254035125,   729.076,   729.071,-0.011295,-0.004433,-0.995855,-0.000112,-0.000047,-0.009957, 0.006686, 0.001579, 0.039845,1, 0.000188, 0.000341, 0.000580,1, 0.117442, 0.045056, 9.805843,1,0
1778254035151,   729.096,   729.096,-0.012455,-0.004746,-0.995948,-0.000124,-0.000046,-0.009959,-0.004645,-0.001469, 0.038925,1, 0.000289, 0.000008, 0.000390,1, 0.117478, 0.045064, 9.805842,1,0
1778254035172,   729.121,   729.116,-0.012177,-0.004696,-0.995774,-0.000121,-0.000049,-0.009958,-0.002345,-0.000501, 0.038401,1,-0.000354, 0.000108,-0.000557,1, 0.117301, 0.045035, 9.805845,1,0
1778254035195,   729.146,   729.141,-0.012189,-0.004734,-0.996011,-0.000125,-0.000050,-0.009956,-0.002158,-0.001332, 0.038313,1, 0.000008, 0.000091,-0.000290,1, 0.117370, 0.045095, 9.805844,1,0
1778254035221,   729.166,   729.166,-0.011089,-0.004251,-0.996116,-0.000111,-0.000042,-0.009959, 0.008683, 0.003327, 0.037285,1,-0.000949, 0.000022, 0.000123,1, 0.117429, 0.044987, 9.805843,1,0
1778254035242,   729.191,   729.186,-0.010999,-0.004535,-0.996149,-0.000111,-0.000045,-0.009960, 0.009624, 0.001170, 0.045191,1,-0.000249, 0.000230, 0.000138,1, 0.117432, 0.044896, 9.805844,1,0
1778254035265,   729.216,   729.211,-0.012006,-0.003880,-0.996258,-0.000117,-0.000040,-0.009964,-0.000269, 0.006790, 0.035893,1, 0.000355,-0.000403,-0.000064,1, 0.117479, 0.044856, 9.805843,1,0
1778254035291,   729.236,   729.236,-0.012406,-0.005165,-0.995834,-0.000122,-0.000049,-0.009961,-0.004189,-0.005837, 0.040043,1,-0.000216,-0.000044,-0.000096,1, 0.117473, 0.044812, 9.805844,1,0
1778254035313,   729.261,   729.256,-0.012468,-0.004605,-0.995600,-0.000125,-0.000045,-0.009957,-0.002074, 0.001271, 0.036833,1, 0.000105, 0.000774,-0.000672,1, 0.117479, 0.044807, 9.805844,1,0
1778254035340,   729.286,   729.286,-0.012495,-0.004952,-0.995540,-0.000127,-0.000050,-0.009956,-0.004994,-0.003657, 0.042928,1, 0.000312,-0.000261, 0.000144,1, 0.117550, 0.044913, 9.805842,1,0
1778254035361,   729.306,   729.306,-0.012244,-0.004650,-0.996123,-0.000124,-0.000046,-0.009961,-0.002522,-0.000692, 0.037215,1,-0.000797, 0.000277,-0.000544,1, 0.117538, 0.044887, 9.805842,1,0
1778254035383,   729.331,   729.326,-0.011506,-0.004052,-0.996739,-0.000115,-0.000041,-0.009964, 0.009631, 0.000471, 0.038472,1, 0.000285,-0.000042,-0.000591,1, 0.117531, 0.044903, 9.805842,1,0
1778254035410,   729.356,   729.356,-0.011523,-0.003997,-0.995474,-0.000116,-0.000040,-0.009955, 0.004454, 0.005642, 0.043581,1,-0.000937, 0.000163, 0.000138,1, 0.117449, 0.044814, 9.805844,1,0
1778254035431,   729.381,   729.376,-0.011553,-0.004574,-0.995331,-0.000117,-0.000046,-0.009956, 0.001071, 0.002984, 0.037182,1,-0.000215, 0.000160, 0.000283,1, 0.117442, 0.044739, 9.805844,1,0
1778254035453,   729.401,   729.396,-0.012261,-0.004162,-0.995845,-0.000121,-0.000042,-0.009956, 0.006184,-0.001032, 0.044070,1,-0.000204, 0.000614,-0.000351,1, 0.117432, 0.044695, 9.805845,1,0
1778254035480,   729.426,   729.426,-0.011263,-0.003970,-0.995957,-0.000112,-0.000039,-0.009961, 0.007049, 0.005727, 0.038844,1,-0.000267,-0.000829,-0.000321,1, 0.117529, 0.044646, 9.805844,1,0
1778254035501,   729.451,   729.446,-0.012318,-0.004476,-0.995777,-0.000122,-0.000043,-0.009958, 0.000301, 0.004045, 0.040731,1,-0.000016,-0.000297, 0.000195,1, 0.117594, 0.044679, 9.805843,1,0
1778254035523,   729.471,   729.466,-0.012347,-0.004879,-0.996001,-0.000122,-0.000048,-0.009958,-0.000299, 0.001177, 0.041445,1, 0.000334, 0.000611,-0.000417,1, 0.117533, 0.044706, 9.805843,1,0
1778254035550,   729.496,   729.496,-0.012038,-0.003993,-0.995577,-0.000121,-0.000040,-0.009956,-0.000523, 0.005508, 0.042573,1, 0.000140, 0.000219,-0.000090,1, 0.117507, 0.044647, 9.805844,1,0
1778254035571,   729.521,   729.516,-0.011996,-0.004438,-0.996132,-0.000122,-0.000047,-0.009962,-0.005813, 0.000532, 0.041499,1,-0.000567,-0.000208, 0.000084,1, 0.117493, 0.044600, 9.805844,1,0
1778254035593,   729.541,   729.536,-0.011166,-0.004648,-0.995490,-0.000112,-0.000045,-0.009957, 0.006370,-0.005416, 0.041593,1, 0.000296,-0.000166,-0.000304,1, 0.117530, 0.044592, 9.805844,1,0
1778254035620,   729.566,   729.566,-0.011249,-0.003848,-0.995950,-0.000113,-0.000041,-0.009960, 0.007100, 0.006977, 0.038912,1, 0.000442, 0.000503, 0.000054,1, 0.117400, 0.044725, 9.805845,1,1
1778254035641,   729.591,   729.586,-0.011458,-0.004564,-0.995691,-0.000112,-0.000047,-0.009958, 0.007173,-0.003479, 0.041888,1,-0.000102, 0.000392, 0.000094,1, 0.117341, 0.044670, 9.805846,1,1
1778254035663,   729.611,   729.606,-0.011311,-0.004036,-0.996180,-0.000112,-0.000041,-0.009958, 0.002173,-0.002577, 0.041087,1,-0.000790,-0.000700,-0.000228,1, 0.117434, 0.044589, 9.805845,1,1
1778254035690,   729.636,   729.636,-0.012508,-0.004797,-0.995675,-0.000124,-0.000047,-0.009957,-0.005235,-0.002409, 0.041604,1, 0.000109,-0.000194, 0.000271,1, 0.117433, 0.044636, 9.805845,1,1
1778254035711,   729.661,   729.656,-0.012845,-0.005014,-0.995203,-0.000128,-0.000048,-0.009954,-0.007740,-0.000711, 0.041247,1, 0.000197,-0.000179,-0.000579,1, 0.117444, 0.044656, 9.805845,1,1
1778254035733,   729.681,   729.676,-0.012713,-0.004008,-0.995874,-0.000127,-0.000040,-0.009957,-0.005561,-0.000650, 0.040647,1,-0.000500,-0.000331,-0.000332,1, 0.117517, 0.044647, 9.805844,1,1
1778254035760,   729.706,   729.706,-0.012193,-0.004096,-0.995598,-0.000124,-0.000040,-0.009956,-0.002091, 0.004346, 0.042359,1,-0.000098, 0.000478,-0.000631,1, 0.117463, 0.044513, 9.805845,1,1
1778254035782,   729.731,   729.726,-0.011489,-0.004113,-0.996340,-0.000112,-0.000043,-0.009960, 0.000103, 0.001997, 0.044026,1, 0.000406,-0.000338,-0.000260,1, 0.117548, 0.044481, 9.805844,1,1
1778254035803,   729.751,   729.746,-0.011322,-0.004094,-0.996494,-0.000112,-0.000043,-0.009964, 0.005527, 0.001977, 0.032469,1,-0.000077,-0.001038, 0.000033,1, 0.117544, 0.044466, 9.805844,1,1
1778254035830,   729.776,   729.776,-0.010604,-0.004566,-0.995682,-0.000106,-0.000046,-0.009954, 0.013651,-0.000269, 0.041540,1, 0.000438,-0.000953,-0.000077,1, 0.117669, 0.044526, 9.805843,1,1
1778254035852,   729.801,   729.796,-0.011392,-0.004134,-0.995701,-0.000115,-0.000041,-0.009955, 0.008738, 0.000094, 0.037728,1, 0.000154, 0.000806, 0.000306,1, 0.117626, 0.044502, 9.805843,1,1
1778254035874,   729.821,   729.821,-0.012360,-0.004955,-0.995309,-0.000122,-0.000048,-0.009953,-0.003675,-0.004107, 0.045198,1,-0.000085, 0.000766,-0.000034,1, 0.117515, 0.044480, 9.805845,1,1
1778254035900,   729.846,   729.846,-0.012886,-0.004386,-0.995840,-0.000128,-0.000045,-0.009959,-0.008873, 0.001490, 0.039991,1,-0.000015, 0.000749,-0.000436,1, 0.117469, 0.044505, 9.805845,1,1
1778254035922,   729.871,   729.866,-0.012681,-0.004112,-0.995355,-0.000125,-0.000043,-0.009955,-0.008018, 0.000928, 0.041864,1, 0.000641, 0.000169, 0.000232,1, 0.117513, 0.044503, 9.805845,1,1
1778254035944,   729.891,   729.891,-0.012316,-0.004389,-0.996001,-0.000122,-0.000044,-0.009960,-0.003367, 0.001501, 0.038415,1, 0.000074,-0.000211,-0.000058,1, 0.117412, 0.044530, 9.805846,1,1
1778254035970,   729.916,   729.916,-0.011497,-0.004421,-0.995484,-0.000115,-0.000044,-0.009953, 0.004634, 0.001162, 0.043485,1, 0.000197,-0.000378, 0.000073,1, 0.117397, 0.044527, 9.805846,1,1
1778254035992,   729.941,   729.936,-0.010883,-0.004610,-0.996144,-0.000108,-0.000047,-0.009961, 0.005892,-0.003129, 0.039855,1, 0.000029, 0.000055,-0.000082,1, 0.117344, 0.044510, 9.805847,1,1
1778254036015,   729.961,   729.961,-0.011565,-0.004298,-0.996261,-0.000116,-0.000045,-0.009960, 0.003869, 0.002381, 0.035868,1, 0.000172, 0.000138,-0.000129,1, 0.117280, 0.044535, 9.805847,1,1
1778254036040,   729.986,   729.986,-0.011965,-0.004739,-0.996330,-0.000118,-0.000048,-0.009960,-0.000086,-0.001906, 0.035188,1, 0.000284, 0.000173,-0.000306,1, 0.117249, 0.044580, 9.805848,1,1
1778254036062,   730.011,   730.006,-0.012496,-0.004544,-0.996306,-0.000125,-0.000043,-0.009963,-0.000915, 0.000963, 0.041199,1, 0.000063,-0.000185, 0.000216,1, 0.117258, 0.044565, 9.805848,1,1
1778254036085,   730.031,   730.031,-0.012345,-0.004237,-0.995925,-0.000125,-0.000043,-0.009957,-0.003939, 0.002946, 0.039157,1, 0.000759,-0.000158,-0.000197,1, 0.117127, 0.044525, 9.805849,1,1
1778254036110,   730.056,   730.056,-0.012310,-0.004308,-0.996331,-0.000122,-0.000043,-0.009962,-0.003536, 0.002322, 0.035180,1, 0.000311,-0.000273, 0.000037,1, 0.117197, 0.044580, 9.805848,1,1
1778254036132,   730.081,   730.076,-0.011858,-0.004611,-0.995685,-0.000119,-0.000046,-0.009956, 0.001714,-0.003765, 0.037109,1, 0.000099,-0.000040, 0.000185,1, 0.117243, 0.044541, 9.805848,1,1
1778254036155,   730.101,   730.101,-0.011147,-0.004760,-0.995397,-0.000118,-0.000037,-0.009959, 0.007896,-0.002029, 0.044340,1, 0.000628,-0.001071, 0.000123,1, 0.117246, 0.044673, 9.805847,1,1
1778254036180,   730.126,   730.126,-0.010570,-0.004959,-0.995095,-0.000111,-0.000041,-0.009953, 0.013641,-0.003940, 0.047296,1,-0.000113,-0.001127, 0.000256,1, 0.117335, 0.044682, 9.805846,1,1
1778254036202,   730.151,   730.146,-0.011441,-0.003484,-0.996338,-0.000113,-0.000037,-0.009964, 0.009990,-0.000593, 0.042200,1, 0.001022,-0.000000, 0.000110,1, 0.117281, 0.044644, 9.805847,1,1
1778254036225,   730.176,   730.171,-0.011396,-0.003774,-0.996244,-0.000116,-0.000042,-0.009965, 0.005581, 0.007740, 0.036032,1, 0.000283, 0.000388, 0.000220,1, 0.117324, 0.044763, 9.805846,1,1
1778254036251,   730.196,   730.196,-0.011902,-0.004287,-0.995825,-0.000119,-0.000044,-0.009959, 0.000650, 0.002840, 0.040138,1, 0.000879,-0.000284, 0.000329,1, 0.117382, 0.044909, 9.805844,1,1
1778254036272,   730.221,   730.216,-0.013104,-0.004740,-0.995202,-0.000130,-0.000047,-0.009958,-0.006156,-0.002024, 0.045038,1, 0.000180, 0.000694, 0.000327,1, 0.117349, 0.044934, 9.805845,1,1
1778254036295,   730.246,   730.241,-0.012444,-0.004287,-0.996398,-0.000122,-0.000043,-0.009963,-0.004708, 0.002902, 0.034516,1, 0.000128, 0.000182,-0.000294,1, 0.117319, 0.044950, 9.805845,1,1
1778254036321,   730.266,   730.266,-0.012134,-0.004367,-0.995532,-0.000122,-0.000044,-0.009957,-0.001637, 0.002011, 0.043007,1,-0.000419,-0.000404,-0.000165,1, 0.117370, 0.044827, 9.805845,1,1
1778254036342,   730.291,   730.286,-0.011702,-0.004469,-0.995817,-0.000119,-0.000043,-0.009953, 0.002533, 0.005200, 0.034459,1, 0.000035, 0.000946, 0.000232,1, 0.117309, 0.044836, 9.805846,1,1
1778254036365,   730.316,   730.311,-0.011376,-0.003628,-0.996054,-0.000116,-0.000034,-0.009959, 0.005709, 0.009207, 0.037892,1, 0.000580, 0.000081,-0.000007,1, 0.117268, 0.044804, 9.805846,1,1
1778254036391,   730.336,   730.336,-0.011376,-0.004526,-0.995901,-0.000114,-0.000043,-0.009960, 0.005669, 0.000421, 0.039396,1,-0.000105, 0.000392,-0.000345,1, 0.117215, 0.044803, 9.805847,1,1
1778254036412,   730.361,   730.356,-0.011787,-0.004511,-0.996390,-0.000119,-0.000046,-0.009963,-0.002631, 0.008701, 0.051522,1,-0.000273, 0.000595, 0.000527,1, 0.117188, 0.044731, 9.805848,1,1
1778254036435,   730.386,   730.381,-0.012195,-0.004559,-0.995398,-0.000120,-0.000047,-0.009955,-0.002373,-0.000002, 0.044331,1, 0.000299, 0.000176, 0.000688,1, 0.117212, 0.044717, 9.805847,1,1
1778254036461,   730.406,   730.406,-0.012512,-0.004722,-0.995875,-0.000126,-0.000050,-0.009957,-0.005492,-0.001604, 0.039654,1, 0.000216, 0.000477,-0.000308,1, 0.117196, 0.044712, 9.805848,1,1
1778254036482,   730.431,   730.426,-0.012265,-0.004691,-0.995753,-0.000123,-0.000046,-0.009960,-0.007956,-0.006142, 0.042826,1, 0.000138, 0.000797, 0.000314,1, 0.117136, 0.044673, 9.805849,1,1
1778254036505,   730.456,   730.451,-0.011960,-0.004517,-0.996386,-0.000120,-0.000046,-0.009963,-0.000201, 0.000386, 0.034644,1, 0.000171, 0.000664,-0.000577,1, 0.117069, 0.044693, 9.805849,1,1
1778254036531,   730.476,   730.476,-0.011580,-0.004621,-0.995751,-0.000116,-0.000046,-0.009960, 0.003497,-0.000674, 0.040863,1,-0.000288,-0.000280,-0.000270,1, 0.117072, 0.044638, 9.805850,1,1
1778254036552,   730.501,   730.496,-0.011172,-0.004054,-0.995826,-0.000112,-0.000042,-0.009957, 0.008008, 0.006392, 0.041021,1,-0.000160,-0.000183,-0.000163,1, 0.117116, 0.044640, 9.805849,1,1
1778254036579,   730.526,   730.526,-0.011703,-0.003961,-0.995433,-0.000118,-0.000038,-0.009957, 0.002413, 0.005877, 0.043985,1, 0.000622,-0.000393,-0.000042,1, 0.117194, 0.044741, 9.805847,1,1
1778254036601,   730.546,   730.546,-0.012038,-0.004394,-0.995044,-0.000118,-0.000042,-0.009951,-0.000921, 0.001677, 0.047800,1,-0.000090, 0.000595,-0.000290,1, 0.117109, 0.044768, 9.805848,1,1
1778254036622,   730.571,   730.566,-0.012115,-0.004492,-0.995677,-0.000122,-0.000046,-0.009955,-0.000485, 0.000211, 0.039007,1, 0.000480,-0.000167,-0.000237,1, 0.117099, 0.044903, 9.805848,1,1
1778254036649,   730.596,   730.596,-0.012317,-0.004944,-0.995938,-0.000124,-0.000051,-0.009962,-0.003758,-0.003540, 0.039029,1, 0.000770, 0.000321,-0.000076,1, 0.117020, 0.044965, 9.805849,1,1
1778254036671,   730.621,   730.616,-0.011871,-0.004246,-0.996522,-0.000120,-0.000043,-0.009965,-0.003997, 0.002433, 0.037786,1,-0.000542,-0.000294,-0.000029,1, 0.117058, 0.044957, 9.805848,1,1
1778254036693,   730.641,   730.636,-0.011424,-0.004147,-0.995720,-0.000116,-0.000042,-0.009958,-0.003858, 0.002710, 0.039770,1,-0.000065,-0.000348,-0.000512,1, 0.117212, 0.044955, 9.805846,1,1
1778254036720,   730.666,   730.666,-0.011461,-0.004248,-0.995724,-0.000116,-0.000042,-0.009959, 0.004914, 0.003338, 0.041132,1, 0.000267, 0.000020,-0.000077,1, 0.117309, 0.045004, 9.805845,1,1
1778254036741,   730.691,   730.686,-0.011498,-0.004246,-0.995738,-0.000115,-0.000043,-0.009959, 0.004338, 0.006780, 0.031820,1,-0.000290, 0.000363, 0.000292,1, 0.117227, 0.045054, 9.805846,1,1
1778254036763,   730.711,   730.706,-0.011128,-0.004120,-0.996300,-0.000111,-0.000041,-0.009967, 0.004589, 0.001848, 0.034750,1,-0.000008,-0.000271, 0.000235,1, 0.117296, 0.045029, 9.805845,1,1
1778254036790,   730.736,   730.736,-0.011755,-0.004218,-0.996287,-0.000118,-0.000045,-0.009960, 0.001996, 0.003674, 0.035605,1,-0.000181,-0.000118, 0.000163,1, 0.117281, 0.045035, 9.805845,1,1
1778254036811,   730.761,   730.756,-0.011537,-0.004524,-0.995521,-0.000116,-0.000045,-0.009956,-0.000223, 0.002202, 0.038260,1, 0.000022,-0.000453, 0.000169,1, 0.117275, 0.045081, 9.805845,1,1
1778254036833,   730.781,   730.776,-0.012130,-0.004639,-0.995720,-0.000121,-0.000048,-0.009959,-0.002739,-0.000550, 0.037756,1,-0.000062,-0.000081, 0.000064,1, 0.117270, 0.045100, 9.805845,1,1
1778254036860,   730.806,   730.806,-0.012187,-0.004709,-0.996019,-0.000123,-0.000045,-0.009957,-0.002204,-0.000987, 0.038236,1, 0.000632,-0.000121,-0.000123,1, 0.117309, 0.045217, 9.805844,1,1
1778254036881,   730.831,   730.826,-0.011781,-0.004295,-0.995511,-0.000116,-0.000042,-0.009955,-0.000950, 0.006101, 0.038649,1, 0.000057, 0.000079,-0.000300,1, 0.117225, 0.045248, 9.805845,1,1
1778254036903,   730.851,   730.846,-0.011135,-0.004298,-0.996003,-0.000113,-0.000043,-0.009962,-0.000740, 0.007831, 0.038426,1, 0.000028,-0.000121, 0.000145,1, 0.117197, 0.045262, 9.805845,1,1
1778254036930,   730.876,   730.876,-0.011281,-0.004660,-0.996023,-0.000114,-0.000045,-0.009960, 0.006581,-0.000492, 0.038194,1,-0.000050, 0.000178,-0.000548,1, 0.117205, 0.045201, 9.805845,1,1
1778254036951,   730.901,   730.896,-0.011815,-0.004292,-0.996130,-0.000117,-0.000045,-0.009962, 0.007187, 0.003705, 0.042971,1, 0.000062,-0.000342, 0.000430,1, 0.117146, 0.045173, 9.805846,1,1
1778254036973,   730.921,   730.916,-0.011596,-0.004515,-0.995618,-0.000116,-0.000045,-0.009953,-0.000719, 0.004387, 0.043031,1, 0.000563, 0.000593, 0.000085,1, 0.117184, 0.045228, 9.805845,1,1
1778254037000,   730.946,   730.946,-0.012133,-0.004548,-0.995697,-0.000120,-0.000046,-0.009955,-0.001740, 0.000688, 0.041387,1, 0.000529, 0.000401, 0.000082,1, 0.117234, 0.045304, 9.805844,1,1
1778254037021,   730.971,   730.966,-0.012225,-0.004875,-0.995857,-0.000124,-0.000048,-0.009956, 0.000923,-0.003460, 0.043659,1, 0.000162,-0.000047, 0.000113,1, 0.117232, 0.045305, 9.805844,1,1
1778254037043,   730.991,   730.986,-0.011391,-0.004831,-0.995530,-0.000116,-0.000049,-0.009956,-0.001876, 0.001794, 0.041751,1, 0.000272, 0.000278, 0.000320,1, 0.117195, 0.045309, 9.805845,1,1
1778254037070,   731.016,   731.016,-0.011356,-0.003970,-0.995873,-0.000115,-0.000040,-0.009955, 0.005840, 0.006322, 0.039668,1, 0.000199,-0.000094,-0.000010,1, 0.117209, 0.045259, 9.805845,1,1
1778254037091,   731.041,   731.036,-0.012097,-0.004227,-0.996053,-0.000118,-0.000044,-0.009957, 0.002386, 0.005458, 0.044615,1, 0.000482, 0.000050,-0.000472,1, 0.117258, 0.045216, 9.805844,1,1
1778254037114,   731.061,   731.061,-0.011684,-0.004363,-0.995662,-0.000116,-0.000043,-0.009955, 0.002573, 0.002531, 0.041737,1, 0.000027, 0.000534, 0.000036,1, 0.117136, 0.045321, 9.805845,1,1
1778254037140,   731.086,   731.086,-0.011728,-0.004369,-0.995817,-0.000117,-0.000043,-0.009957, 0.002081, 0.002546, 0.040215,1, 0.000121, 0.000339, 0.000125,1, 0.117083, 0.045397, 9.805846,1,1
1778254037162,   731.111,   731.106,-0.011867,-0.004685,-0.995595,-0.000121,-0.000047,-0.009954,-0.002217, 0.002248, 0.042967,1, 0.000295,-0.000016,-0.000191,1, 0.117024, 0.045368, 9.805847,1,1
1778254037184,   731.131,   731.131,-0.011860,-0.004468,-0.995822,-0.000119,-0.000046,-0.009960, 0.000739, 0.001547, 0.040167,1,-0.000030, 0.000027,-0.000511,1, 0.117042, 0.045365, 9.805846,1,1
1778254037210,   731.156,   731.156,-0.011979,-0.004530,-0.995728,-0.000119,-0.000044,-0.009957,-0.000504, 0.000968, 0.041090,1, 0.000104, 0.000017,-0.000624,1, 0.116965, 0.045394, 9.805847,1,1
1778254037232,   731.181,   731.176,-0.012035,-0.004470,-0.995675,-0.000122,-0.000042,-0.009957,-0.004679, 0.001397, 0.043269,1,-0.000365, 0.000496,-0.000572,1, 0.116903, 0.045324, 9.805848,1,1
1778254037254,   731.201,   731.201,-0.011761,-0.004193,-0.995487,-0.000117,-0.000042,-0.009958, 0.001475, 0.004248, 0.043454,1, 0.000014, 0.000377, 0.000063,1, 0.116796, 0.045367, 9.805849,1,1
1778254037280,   731.226,   731.226,-0.011910,-0.004197,-0.996163,-0.000116,-0.000044,-0.009961,-0.000044, 0.004211, 0.036832,1,-0.000338, 0.000494,-0.000030,1, 0.116738, 0.045357, 9.805850,1,1
1778254037302,   731.251,   731.246,-0.011371,-0.004560,-0.995831,-0.000113,-0.000047,-0.009959, 0.004097, 0.000252, 0.036859,1,-0.000309,-0.000702,-0.000451,1, 0.116788, 0.045320, 9.805850,1,1
1778254037324,   731.271,   731.271,-0.011377,-0.004609,-0.995467,-0.000114,-0.000044,-0.009956, 0.005278, 0.000110, 0.043650,1, 0.000662, 0.000009, 0.000133,1, 0.116850, 0.045326, 9.805849,1,1
1778254037350,   731.296,   731.296,-0.011749,-0.004303,-0.996701,-0.000115,-0.000045,-0.009964, 0.001620, 0.003130, 0.031552,1, 0.000059, 0.000306,-0.000087,1, 0.116813, 0.045315, 9.805850,1,1
1778254037372,   731.321,   731.316,-0.011812,-0.004359,-0.995838,-0.000120,-0.000045,-0.009960,-0.000462, 0.005920, 0.040838,1,-0.000563,-0.000124,-0.000129,1, 0.116828, 0.045321, 9.805849,1,1
1778254037395,   731.341,   731.341,-0.012123,-0.004233,-0.995802,-0.000120,-0.000043,-0.009959,-0.001996, 0.003862, 0.040368,1,-0.000164,-0.000647, 0.000247,1, 0.116911, 0.045372, 9.805848,1,1
1778254037420,   731.366,   731.366,-0.011583,-0.004425,-0.995864,-0.000117,-0.000044,-0.009960, 0.003376, 0.001938, 0.039761,1,-0.000040,-0.000209, 0.000265,1, 0.116969, 0.045327, 9.805847,1,1
1778254037442,   731.391,   731.386,-0.012231,-0.003966,-0.995402,-0.000122,-0.000041,-0.009956, 0.005353, 0.002371, 0.041758,1, 0.000058,-0.000709, 0.000003,1, 0.117029, 0.045297, 9.805847,1,1
1778254037465,   731.416,   731.411,-0.011726,-0.004742,-0.995652,-0.000117,-0.000045,-0.009956, 0.002037,-0.001175, 0.041837,1,-0.000097,-0.000333,-0.000484,1, 0.117043, 0.045325, 9.805847,1,1
1778254037490,   731.436,   731.436,-0.011770,-0.004113,-0.996278,-0.000118,-0.000040,-0.009960, 0.001657, 0.004955, 0.035696,1,-0.000419,-0.000701,-0.000374,1, 0.117098, 0.045278, 9.805846,1,1
1778254037512,   731.461,   731.456,-0.012051,-0.004630,-0.995669,-0.000123,-0.000047,-0.009958,-0.001956, 0.006679, 0.036257,1, 0.001031, 0.000295,-0.000236,1, 0.117141, 0.045362, 9.805845,1,1
1778254037535,   731.486,   731.481,-0.012166,-0.004574,-0.995886,-0.000120,-0.000044,-0.009959,-0.002244, 0.000428, 0.039536,1, 0.000031, 0.000086, 0.000111,1, 0.117060, 0.045284, 9.805847,1,1
1778254037561,   731.506,   731.506,-0.011277,-0.004310,-0.995777,-0.000115,-0.000043,-0.009955, 0.006492, 0.002956, 0.040609,1,-0.001230,-0.000110, 0.000072,1, 0.117089, 0.045179, 9.805847,1,1
1778254037582,   731.531,   731.526,-0.011383,-0.004442,-0.995165,-0.000115,-0.000046,-0.009955, 0.003960, 0.003061, 0.038402,1,-0.000141, 0.000394,-0.000327,1, 0.117035, 0.045213, 9.805847,1,1
1778254037605,   731.556,   731.551,-0.011081,-0.004043,-0.995344,-0.000111,-0.000041,-0.009952, 0.008232, 0.005536, 0.044863,1,-0.000168, 0.000425, 0.000750,1, 0.116891, 0.045182, 9.805849,1,1
1778254037631,   731.576,   731.576,-0.012082,-0.004686,-0.995885,-0.000122,-0.000048,-0.009956,-0.001621,-0.000803, 0.039553,1, 0.000412,-0.000096,-0.000101,1, 0.116864, 0.045161, 9.805850,1,1
1778254037652,   731.601,   731.596,-0.012229,-0.004154,-0.995831,-0.000122,-0.000045,-0.009956,-0.005312,-0.000696, 0.032610,1, 0.000106, 0.000254, 0.000171,1, 0.116846, 0.045181, 9.805850,1,1
1778254037675,   731.626,   731.621,-0.012092,-0.004536,-0.996327,-0.000121,-0.000046,-0.009961,-0.001913, 0.000607, 0.035224,1,-0.000689, 0.000754, 0.000022,1, 0.116648, 0.045065, 9.805853,1,1
1778254037701,   731.646,   731.646,-0.012222,-0.003983,-0.995380,-0.000124,-0.000041,-0.009956,-0.003244, 0.005979, 0.044513,1,-0.000475, 0.000531,-0.000347,1, 0.116592, 0.045027, 9.805854,1,1
1778254037722,   731.671,   731.666,-0.012013,-0.004187,-0.996025,-0.000120,-0.000043,-0.009960, 0.004545, 0.002103, 0.038705,1,-0.000593,-0.000243, 0.000309,1, 0.116538, 0.044921, 9.805855,1,1
1778254037745,   731.696,   731.691,-0.012128,-0.004271,-0.996015,-0.000121,-0.000042,-0.009960,-0.002400, 0.003076, 0.038288,1, 0.000674,-0.000374,-0.000353,1, 0.116531, 0.044967, 9.805855,1,1
1778254037771,   731.716,   731.716,-0.011366,-0.004732,-0.996017,-0.000114,-0.000048,-0.009963, 0.005024,-0.001444, 0.038261,1,-0.000043,-0.000138, 0.000231,1, 0.116486, 0.044955, 9.805855,1,1
1778254037792,   731.741,   731.736,-0.012338,-0.004120,-0.996075,-0.000122,-0.000041,-0.009959,-0.001106,-0.000515, 0.038447,1, 0.000714,-0.000287,-0.000029,1, 0.116588, 0.045073, 9.805853,1,1
1778254037819,   731.766,   731.766,-0.011982,-0.004767,-0.995697,-0.000119,-0.000044,-0.009957,-0.000952,-0.001696, 0.041404,1,-0.000270,-0.000042,-0.000365,1, 0.116557, 0.045045, 9.805854,1,1
1778254037841,   731.786,   731.786,-0.012273,-0.004189,-0.995849,-0.000117,-0.000042,-0.009968,-0.003723, 0.003976, 0.039913,1, 0.000248,-0.000750,-0.000359,1, 0.116657, 0.045063, 9.805853,1,1
1778254037862,   731.811,   731.806,-0.011711,-0.004563,-0.995686,-0.000118,-0.000044,-0.009956, 0.002584, 0.000395, 0.039578,1,-0.000971,-0.000312,-0.000468,1, 0.116676, 0.045001, 9.805853,1,1
1778254037889,   731.836,   731.836,-0.011538,-0.003944,-0.995846,-0.000115,-0.000038,-0.009960, 0.003602, 0.006254, 0.039942,1,-0.000535,-0.000246,-0.000075,1, 0.116761, 0.044913, 9.805852,1,1
1778254037911,   731.861,   731.856,-0.011561,-0.004450,-0.995694,-0.000114,-0.000044,-0.009959,-0.000276, 0.001959, 0.042514,1, 0.000766,-0.000087, 0.000067,1, 0.116764, 0.044989, 9.805852,1,1
1778254037932,   731.881,   731.876,-0.011954,-0.004882,-0.995623,-0.000119,-0.000047,-0.009955, 0.005161, 0.002974, 0.043851,1, 0.000087, 0.000176, 0.000080,1, 0.116717, 0.045074, 9.805852,1,1
1778254037959,   731.906,   731.906,-0.012199,-0.005008,-0.996039,-0.000122,-0.000050,-0.009962,-0.002888,-0.004052, 0.038047,1,-0.000301,-0.000182,-0.000405,1, 0.116753, 0.045051, 9.805852,1,1
1778254037981,   731.931,   731.926,-0.011982,-0.004706,-0.995880,-0.000122,-0.000050,-0.009961,-0.012588, 0.002903, 0.035921,1,-0.000429,-0.000104,-0.000023,1, 0.116730, 0.044898, 9.805853,1,1
1778254038002,   731.951,   731.946,-0.011982,-0.003961,-0.996220,-0.000120,-0.000041,-0.009960,-0.003228, 0.004158, 0.039089,1, 0.000556,-0.000464, 0.000429,1, 0.116776, 0.044874, 9.805852,1,1
1778254038029,   731.976,   731.976,-0.011395,-0.004681,-0.995946,-0.000115,-0.000043,-0.009961, 0.005016,-0.001050, 0.038954,1,-0.000373,-0.000335,-0.000162,1, 0.116776, 0.044844, 9.805852,1,1
1778254038051,   732.001,   731.996,-0.011623,-0.004503,-0.995830,-0.000115,-0.000046,-0.009960, 0.005231, 0.003094, 0.039050,1, 0.000180, 0.000318, 0.000094,1, 0.116734, 0.044864, 9.805853,1,1
1778254038073,   732.021,   732.016,-0.012209,-0.004205,-0.996082,-0.000122,-0.000043,-0.009962, 0.002293, 0.000169, 0.037169,1, 0.000274, 0.000138,-0.000076,1, 0.116776, 0.044919, 9.805852,1,1
1778254038100,   732.046,   732.046,-0.012367,-0.004780,-0.995399,-0.000124,-0.000046,-0.009956,-0.004515,-0.001841, 0.044321,1, 0.000059,-0.000390, 0.000079,1, 0.116780, 0.045037, 9.805851,1,1
1778254038121,   732.071,   732.066,-0.012627,-0.004845,-0.995886,-0.000127,-0.000048,-0.009957,-0.004248, 0.002501, 0.045238,1, 0.000298, 0.000058,-0.000042,1, 0.116816, 0.045083, 9.805851,1,1
1778254038143,   732.091,   732.086,-0.012214,-0.004620,-0.995917,-0.000120,-0.000046,-0.009958,-0.001422,-0.000603, 0.042565,1, 0.000100,-0.000280,-0.000075,1, 0.116759, 0.045001, 9.805852,1,1
1778254038170,   732.116,   732.116,-0.011615,-0.004245,-0.995721,-0.000118,-0.000043,-0.009961, 0.002775, 0.003358, 0.041162,1, 0.000073, 0.000707, 0.000305,1, 0.116655, 0.044992, 9.805853,1,1
1778254038191,   732.141,   732.136,-0.011664,-0.004322,-0.995134,-0.000117,-0.000043,-0.009951, 0.005701, 0.001636, 0.035492,1, 0.000758,-0.000510,-0.000313,1, 0.116645, 0.045132, 9.805852,1,1
1778254038213,   732.161,   732.156,-0.011894,-0.004429,-0.995920,-0.000117,-0.000044,-0.009958, 0.002266, 0.001899, 0.042844,1, 0.000172, 0.000258,-0.000438,1, 0.116631, 0.045195, 9.805852,1,1
1778254038240,   732.186,   732.186,-0.011961,-0.004569,-0.995584,-0.000118,-0.000046,-0.009958,-0.000724, 0.000529, 0.042503,1,-0.000197, 0.000505, 0.000573,1, 0.116554, 0.045331, 9.805853,1,1
1778254038261,   732.211,   732.206,-0.012519,-0.004680,-0.995508,-0.000123,-0.000045,-0.009958,-0.002812,-0.000108, 0.039104,1,-0.000109,-0.000348,-0.000498,1, 0.116598, 0.045394, 9.805852,1,1
1778254038283,   732.231,   732.226,-0.012065,-0.004560,-0.995445,-0.000122,-0.000046,-0.009957,-0.004618, 0.000049, 0.039584,1,-0.000287, 0.000137, 0.000120,1, 0.116537, 0.045295, 9.805853,1,1
1778254038310,   732.256,   732.256,-0.012723,-0.004125,-0.995755,-0.000126,-0.000042,-0.009955,-0.008174, 0.004917, 0.040830,1,-0.000406, 0.000089, 0.000005,1, 0.116590, 0.045356, 9.805852,1,1
1778254038331,   732.281,   732.276,-0.012057,-0.004832,-0.996054,-0.000119,-0.000045,-0.009960,-0.000681, 0.000313, 0.039840,1, 0.000230, 0.000184,-0.000108,1, 0.116604, 0.045347, 9.805852,1,1
1778254038354,   732.301,   732.301,-0.011302,-0.004693,-0.995746,-0.000116,-0.000045,-0.009958, 0.005702,-0.000733, 0.040920,1,-0.000297, 0.000201,-0.000196,1, 0.116531, 0.045278, 9.805853,1,1
1778254038380,   732.326,   732.326,-0.011309,-0.004567,-0.995905,-0.000114,-0.000044,-0.009959, 0.005540, 0.000599, 0.039359,1, 0.000176,-0.000220, 0.000167,1, 0.116452, 0.045386, 9.805854,1,1
1778254038401,   732.351,   732.346,-0.010690,-0.003659,-0.995855,-0.000107,-0.000037,-0.009958, 0.011430, 0.003115, 0.040056,1,-0.000255, 0.000222,-0.000262,1, 0.116444, 0.045346, 9.805854,1,1
1778254038424,   732.371,   732.371,-0.011546,-0.004607,-0.996673,-0.000115,-0.000044,-0.009967, 0.003145, 0.000060, 0.031831,1,-0.000415, 0.000487, 0.000186,1, 0.116354, 0.045230, 9.805856,1,1
1778254038450,   732.396,   732.396,-0.012100,-0.004292,-0.996100,-0.000121,-0.000045,-0.009959,-0.002280, 0.003195, 0.037451,1, 0.000565,-0.000474,-0.000262,1, 0.116397, 0.045305, 9.805855,1,1
1778254038472,   732.421,   732.416,-0.012835,-0.004636,-0.995446,-0.000127,-0.000049,-0.009956,-0.007022,-0.002895, 0.040789,1,-0.000075,-0.000275, 0.000343,1, 0.116473, 0.045343, 9.805854,1,1
1778254038494,   732.441,   732.441,-0.013023,-0.004891,-0.995557,-0.000130,-0.000048,-0.009955,-0.011137,-0.002647, 0.042777,1, 0.000279, 0.000084,-0.000019,1, 0.116569, 0.045327, 9.805852,1,1
1778254038520,   732.466,   732.466,-0.012270,-0.004713,-0.995332,-0.000120,-0.000047,-0.009956,-0.003753,-0.000884, 0.044976,1, 0.000038,-0.000386,-0.000166,1, 0.116588, 0.045339, 9.805852,1,1
1778254038542,   732.491,   732.486,-0.010962,-0.004307,-0.995816,-0.000111,-0.000043,-0.009960, 0.005614, 0.003758, 0.042899,1,-0.000123,-0.000724,-0.000225,1, 0.116625, 0.045262, 9.805852,1,1
1778254038564,   732.511,   732.511,-0.010949,-0.004243,-0.995830,-0.000110,-0.000042,-0.009960, 0.009257, 0.003523, 0.040091,1,-0.000496,-0.000445,-0.000048,1, 0.116646, 0.045121, 9.805853,1,1
1778254038590,   732.536,   732.536,-0.011396,-0.004366,-0.995573,-0.000111,-0.000046,-0.009961, 0.004996, 0.002300, 0.042614,1, 0.000636, 0.000127,-0.000156,1, 0.116744, 0.045137, 9.805851,1,1
1778254038612,   732.561,   732.556,-0.012101,-0.004163,-0.995990,-0.000121,-0.000041,-0.009961,-0.000149,-0.002258, 0.036922,1, 0.000053, 0.000381,-0.000227,1, 0.116695, 0.045155, 9.805852,1,1
1778254038635,   732.581,   732.581,-0.012965,-0.004508,-0.995771,-0.000128,-0.000045,-0.009958,-0.010410, 0.000959, 0.040675,1,-0.000019,-0.000753, 0.000623,1, 0.116757, 0.045172, 9.805851,1,1
1778254038660,   732.606,   732.606,-0.012295,-0.005151,-0.995949,-0.000124,-0.000050,-0.009963,-0.003885,-0.005380, 0.038930,1, 0.000038, 0.000283,-0.000351,1, 0.116679, 0.045132, 9.805852,1,1
1778254038682,   732.631,   732.626,-0.011882,-0.004325,-0.996004,-0.000118,-0.000045,-0.009960, 0.001330, 0.000321, 0.033488,1,-0.000024,-0.000058,-0.000096,1, 0.116679, 0.045067, 9.805852,1,1
1778254038705,   732.656,   732.651,-0.011867,-0.004389,-0.995686,-0.000118,-0.000043,-0.009960, 0.000322, 0.001963, 0.041504,1,-0.000058,-0.000208,-0.000281,1, 0.116704, 0.045003, 9.805852,1,1
1778254038730,   732.676,   732.676,-0.011336,-0.004450,-0.995888,-0.000112,-0.000042,-0.009959, 0.005527, 0.001449, 0.039528,1, 0.000166,-0.000192,-0.000478,1, 0.116705, 0.045095, 9.805852,1,1
1778254038752,   732.701,   732.696,-0.011706,-0.004322,-0.995873,-0.000116,-0.000044,-0.009960, 0.012109,-0.000275, 0.043140,1,-0.000098, 0.000196, 0.000118,1, 0.116747, 0.045023, 9.805852,1,1
1778254038775,   732.726,   732.721,-0.011524,-0.004455,-0.995732,-0.000113,-0.000044,-0.009960, 0.003829, 0.001352, 0.041059,1,-0.000086,-0.000663,-0.000352,1, 0.116860, 0.045036, 9.805850,1,1
1778254038800,   732.746,   732.746,-0.011972,-0.004582,-0.996275,-0.000117,-0.000048,-0.009962,-0.000547, 0.000047, 0.035729,1,-0.000270,-0.000173,-0.000332,1, 0.116867, 0.044978, 9.805850,1,1
1778254038822,   732.771,   732.766,-0.011644,-0.003929,-0.996155,-0.000116,-0.000040,-0.009962, 0.001696, 0.002034, 0.039398,1,-0.000132,-0.000348,-0.000527,1, 0.116934, 0.044983, 9.805850,1,1
1778254038845,   732.796,   732.791,-0.011519,-0.004190,-0.995948,-0.000115,-0.000040,-0.009958, 0.004061, 0.003853, 0.038929,1,-0.000894, 0.000273, 0.000033,1, 0.117015, 0.044918, 9.805849,1,1
1778254038870,   732.816,   732.816,-0.011846,-0.004732,-0.995871,-0.000116,-0.000042,-0.009960, 0.000878,-0.001470, 0.039693,1, 0.000576,-0.000031,-0.000494,1, 0.117047, 0.044951, 9.805848,1,1
1778254038892,   732.841,   732.836,-0.011453,-0.004383,-0.998029,-0.000122,-0.000046,-0.009977, 0.010335, 0.008188, 0.044956,1,-0.000267,-0.000338, 0.000056,1, 0.117100, 0.044886, 9.805848,1,1
1778254038915,   732.866,   732.861,-0.011125,-0.004606,-0.995449,-0.000115,-0.000046,-0.009956, 0.007985,-0.000342, 0.043832,1,-0.000076, 0.000440, 0.000343,1, 0.117069, 0.044824, 9.805849,1,1
1778254038941,   732.886,   732.886,-0.011832,-0.003969,-0.995878,-0.000119,-0.000041,-0.009954, 0.001053, 0.005974, 0.039620,1, 0.000419, 0.000013, 0.000535,1, 0.117083, 0.044906, 9.805848,1,1
1778254038962,   732.911,   732.906,-0.012314,-0.004661,-0.995909,-0.000122,-0.000048,-0.009958,-0.001621, 0.000982, 0.039475,1,-0.000275, 0.000445,-0.000475,1, 0.116980, 0.044811, 9.805850,1,1
1778254038985,   732.936,   732.931,-0.012064,-0.005344,-0.996220,-0.000123,-0.000050,-0.009958,-0.001342,-0.007599, 0.036265,1,-0.000135, 0.000515,-0.000108,1, 0.116951, 0.044805, 9.805850,1,1
1778254039011,   732.956,   732.956,-0.012917,-0.004231,-0.995130,-0.000130,-0.000043,-0.009951,-0.009741, 0.003336, 0.046960,1,-0.000457, 0.000278, 0.000433,1, 0.116921, 0.044813, 9.805851,1,1
1778254039032,   732.981,   732.976,-0.012179,-0.003998,-0.995671,-0.000120,-0.000037,-0.009958,-0.004619, 0.001950, 0.032173,1, 0.000624, 0.000218,-0.000173,1, 0.116908, 0.044810, 9.805851,1,1
1778254039059,   733.006,   733.006,-0.011960,-0.003894,-0.995434,-0.000120,-0.000039,-0.009955,-0.000328, 0.006638, 0.043976,1, 0.000865,-0.000147, 0.000067,1, 0.116964, 0.044853, 9.805850,1,1
1778254039081,   733.026,   733.026,-0.011412,-0.003547,-0.995582,-0.000113,-0.000036,-0.009961, 0.005048, 0.010108, 0.042520,1, 0.000642,-0.000002, 0.000376,1, 0.116960, 0.044915, 9.805850,1,1
1778254039102,   733.051,   733.046,-0.010651,-0.004731,-0.993907,-0.000108,-0.000049,-0.009928, 0.019642, 0.007627, 0.004775,1,-0.000366,-0.000339, 0.000012,1, 0.116923, 0.045013, 9.805850,1,1
1778254039129,   733.076,   733.076,-0.011778,-0.004529,-0.994692,-0.000117,-0.000048,-0.009947, 0.001485, 0.000717, 0.051248,1, 0.000898, 0.000119, 0.000472,1, 0.116988, 0.045157, 9.805848,1,1
1778254039151,   733.101,   733.096,-0.011554,-0.005146,-0.996863,-0.000116,-0.000050,-0.009962, 0.003379,-0.000399, 0.058740,1,-0.000126,-0.000895, 0.000269,1, 0.117050, 0.045189, 9.805847,1,1
1778254039172,   733.121,   733.116,-0.012599,-0.004942,-0.996218,-0.000127,-0.000048,-0.009964,-0.002310,-0.001297, 0.045833,1,-0.000175,-0.000404, 0.000235,1, 0.117054, 0.045194, 9.805847,1,1
1778254039199,   733.146,   733.146,-0.012143,-0.004213,-0.996129,-0.000124,-0.000043,-0.009962,-0.002095, 0.003844, 0.037157,1, 0.000249,-0.000091,-0.000587,1, 0.116991, 0.045169, 9.805848,1,1
1778254039221,   733.171,   733.166,-0.012865,-0.003867,-0.995723,-0.000130,-0.000038,-0.009957,-0.011534, 0.010795, 0.033637,1, 0.000438,-0.000694,-0.000014,1, 0.117061, 0.045208, 9.805847,1,1
1778254039242,   733.191,   733.186,-0.012668,-0.004166,-0.995795,-0.000128,-0.000038,-0.009964,-0.009490, 0.006125, 0.039185,1, 0.000118,-0.000836, 0.000542,1, 0.117171, 0.045194, 9.805846,1,1
1778254039269,   733.216,   733.216,-0.012414,-0.004433,-0.996006,-0.000125,-0.000042,-0.009962,-0.004538, 0.001633, 0.038367,1,-0.000232, 0.000312, 0.000372,1, 0.117196, 0.045097, 9.805846,1,1
1778254039291,   733.241,   733.236,-0.011575,-0.004323,-0.996470,-0.000115,-0.000045,-0.009963, 0.004959,-0.002765, 0.033805,1, 0.000110,-0.000087,-0.000150,1, 0.117267, 0.045152, 9.805845,1,1
1778254039313,   733.261,   733.256,-0.010455,-0.004784,-0.995076,-0.000103,-0.000050,-0.009952, 0.010543,-0.000024, 0.040371,1,-0.000231,-0.000150,-0.000055,1, 0.117267, 0.045180, 9.805844,1,1
1778254039339,   733.286,   733.286,-0.010005,-0.004711,-0.995988,-0.000102,-0.000047,-0.009960, 0.019173,-0.001048, 0.038542,1,-0.000496, 0.000054,-0.000078,1, 0.117287, 0.045139, 9.805844,1,1
1778254039361,   733.311,   733.306,-0.010410,-0.004178,-0.996166,-0.000104,-0.000042,-0.009962, 0.012411,-0.001891, 0.041980,1,-0.000506,-0.000158, 0.000319,1, 0.117380, 0.045066, 9.805844,1,1
1778254039383,   733.331,   733.326,-0.011179,-0.003691,-0.996305,-0.000111,-0.000035,-0.009963, 0.013418, 0.006104, 0.039437,1, 0.000101, 0.000078,-0.000218,1, 0.117327, 0.045050, 9.805844,1,1
1778254039410,   733.356,   733.356,-0.012185,-0.004453,-0.996379,-0.000120,-0.000042,-0.009965,-0.002224, 0.001336, 0.034702,1,-0.000285, 0.000223, 0.000358,1, 0.117264, 0.044991, 9.805845,1,1
1778254039431,   733.381,   733.376,-0.013043,-0.004206,-0.996364,-0.000130,-0.000043,-0.009964,-0.009679, 0.005072, 0.043160,1,-0.000556, 0.000427, 0.000640,1, 0.117280, 0.044955, 9.805845,1,1
1778254039453,   733.401,   733.396,-0.013464,-0.004519,-0.996093,-0.000137,-0.000046,-0.009959,-0.017048, 0.003427, 0.035302,1,-0.000761,-0.000703, 0.000285,1, 0.117358, 0.044906, 9.805845,1,1
1778254039480,   733.426,   733.426,-0.013468,-0.005147,-0.996326,-0.000134,-0.000051,-0.009961,-0.014727,-0.005565, 0.035228,1, 0.000368, 0.000408, 0.000121,1, 0.117335, 0.044924, 9.805845,1,1
1778254039501,   733.451,   733.446,-0.012280,-0.005206,-0.996050,-0.000124,-0.000053,-0.009958,-0.005648,-0.001914, 0.039602,1, 0.000178, 0.000425,-0.000061,1, 0.117334, 0.044937, 9.805845,1,1
1778254039523,   733.471,   733.466,-0.011067,-0.004736,-0.996225,-0.000111,-0.000047,-0.009961, 0.000652,-0.001064, 0.036394,1,-0.000426,-0.000510,-0.000532,1, 0.117402, 0.044927, 9.805844,1,1
1778254039550,   733.496,   733.496,-0.010390,-0.004462,-0.995879,-0.000105,-0.000043,-0.009957, 0.015541, 0.001287, 0.039603,1, 0.000203, 0.000313, 0.000251,1, 0.117439, 0.045039, 9.805843,1,1
1778254039571,   733.521,   733.516,-0.009829,-0.004113,-0.995267,-0.000099,-0.000043,-0.009956, 0.020770,-0.002029, 0.034508,1,-0.000060, 0.000254, 0.000360,1, 0.117447, 0.045075, 9.805843,1,1
1778254039594,   733.541,   733.541,-0.011791,-0.003474,-0.995468,-0.000114,-0.000034,-0.009956, 0.001614, 0.011039, 0.043635,1, 0.000202,-0.000109,-0.000537,1, 0.117250, 0.045117, 9.805845,1,1
1778254039620,   733.566,   733.566,-0.011658,-0.004560,-0.996668,-0.000116,-0.000045,-0.009966, 0.002988, 0.000459, 0.031872,1, 0.000313,-0.000723, 0.000363,1, 0.117337, 0.045190, 9.805844,1,1
1778254039641,   733.591,   733.586,-0.012422,-0.004560,-0.995685,-0.000122,-0.000047,-0.009956,-0.004231, 0.002946, 0.039443,1, 0.000447, 0.000028,-0.000227,1, 0.117437, 0.045170, 9.805842,1,1
1778254039664,   733.611,   733.611,-0.012630,-0.004343,-0.995983,-0.000125,-0.000044,-0.009958,-0.006370, 0.002638, 0.038589,1, 0.000083, 0.000021, 0.000598,1, 0.117488, 0.045233, 9.805841,1,1
1778254039690,   733.636,   733.636,-0.011858,-0.004860,-0.996124,-0.000120,-0.000046,-0.009957, 0.001291,-0.002456, 0.037202,1,-0.000703, 0.000125,-0.000393,1, 0.117578, 0.045182, 9.805841,1,1
1778254039711,   733.661,   733.656,-0.011256,-0.004472,-0.996080,-0.000112,-0.000047,-0.009960, 0.003387, 0.004687, 0.038735,1,-0.000464,-0.000221,-0.000167,1, 0.117551, 0.045186, 9.805841,1,1
1778254039734,   733.681,   733.681,-0.011576,-0.004982,-0.996099,-0.000116,-0.000048,-0.009960, 0.004032,-0.003572, 0.037448,1, 0.000044,-0.000230, 0.000869,1, 0.117558, 0.045289, 9.805840,1,1
1778254039760,   733.706,   733.706,-0.011342,-0.004933,-0.995481,-0.000116,-0.000048,-0.009958, 0.006283,-0.003106, 0.043505,1,-0.001036,-0.000816, 0.000363,1, 0.117528, 0.045236, 9.805841,1,1
1778254039782,   733.731,   733.726,-0.011477,-0.004362,-0.995831,-0.000114,-0.000045,-0.009957, 0.000724, 0.001825, 0.035642,1, 0.000530,-0.000389,-0.000305,1, 0.117597, 0.045221, 9.805840,1,1
1778254039804,   733.751,   733.751,-0.011857,-0.004343,-0.995804,-0.000118,-0.000045,-0.009953, 0.001244, 0.002662, 0.040341,1,-0.000009, 0.000199, 0.000100,1, 0.117511, 0.045249, 9.805841,1,1
1778254039830,   733.776,   733.776,-0.012180,-0.004545,-0.996348,-0.000120,-0.000046,-0.009961,-0.001950, 0.000727, 0.035008,1, 0.000047, 0.000104,-0.000767,1, 0.117490, 0.045297, 9.805841,1,1
1778254039852,   733.801,   733.796,-0.012597,-0.004429,-0.996126,-0.000125,-0.000045,-0.009961,-0.003822, 0.001467, 0.038102,1, 0.000551,-0.000152,-0.000744,1, 0.117540, 0.045372, 9.805840,1,1
1778254039874,   733.821,   733.821,-0.012347,-0.005097,-0.995606,-0.000122,-0.000052,-0.009958,-0.003714,-0.004692, 0.042286,1,-0.000349, 0.000037, 0.000350,1, 0.117369, 0.045279, 9.805843,1,1
1778254039900,   733.846,   733.846,-0.011487,-0.004363,-0.995685,-0.000113,-0.000043,-0.009957, 0.004714, 0.002486, 0.041513,1,-0.000051, 0.000618, 0.000058,1, 0.117347, 0.045273, 9.805843,1,1
1778254039922,   733.871,   733.866,-0.011172,-0.004425,-0.995490,-0.000111,-0.000046,-0.009954, 0.007445, 0.003958, 0.031902,1,-0.000095,-0.000791,-0.000143,1, 0.117330, 0.045160, 9.805844,1,1
1778254039944,   733.896,   733.891,-0.010665,-0.004394,-0.995615,-0.000108,-0.000042,-0.009956, 0.012823, 0.002091, 0.042193,1, 0.000048, 0.000014,-0.000464,1, 0.117397, 0.045176, 9.805843,1,1
1778254039970,   733.916,   733.916,-0.011383,-0.003951,-0.996501,-0.000115,-0.000042,-0.009964, 0.005755, 0.006355, 0.033511,1,-0.000731, 0.000131,-0.000282,1, 0.117376, 0.045080, 9.805844,1,1
1778254039992,   733.941,   733.936,-0.011738,-0.004514,-0.995146,-0.000117,-0.000044,-0.009956, 0.002525,-0.000167, 0.043088,1, 0.000070,-0.000512, 0.000481,1, 0.117410, 0.045103, 9.805843,1,1
1778254040015,   733.966,   733.961,-0.012278,-0.005067,-0.995940,-0.000123,-0.000048,-0.009960,-0.003140,-0.004502, 0.039014,1, 0.000302, 0.001035, 0.000908,1, 0.117234, 0.045194, 9.805845,1,1
1778254040040,   733.986,   733.986,-0.012706,-0.004368,-0.995701,-0.000125,-0.000044,-0.009960,-0.007334, 0.002361, 0.041356,1,-0.000071,-0.000295,-0.000889,1, 0.117278, 0.045199, 9.805844,1,1
1778254040062,   734.011,   734.006,-0.011643,-0.004515,-0.995548,-0.000118,-0.000044,-0.009954,-0.005054, 0.001903, 0.040562,1,-0.000280, 0.000289,-0.000238,1, 0.117288, 0.045198, 9.805844,1,1
1778254040085,   734.036,   734.031,-0.011824,-0.004487,-0.996162,-0.000118,-0.000044,-0.009960, 0.001439, 0.001230, 0.036829,1, 0.000123,-0.000530,-0.000046,1, 0.117404, 0.045235, 9.805842,1,1
1778254040110,   734.056,   734.056,-0.011704,-0.004422,-0.995774,-0.000117,-0.000043,-0.009958, 0.002630, 0.001858, 0.040636,1,-0.000078,-0.000146, 0.000548,1, 0.117410, 0.045218, 9.805842,1,1
1778254040132,   734.081,   734.076,-0.011180,-0.004048,-0.996227,-0.000111,-0.000041,-0.009959, 0.009385, 0.001954, 0.043709,1,-0.000332, 0.000269, 0.000069,1, 0.117354, 0.045201, 9.805843,1,1
1778254040155,   734.106,   734.101,-0.011233,-0.003832,-0.995951,-0.000115,-0.000038,-0.009958, 0.007101, 0.007600, 0.038901,1, 0.000573,-0.000211,-0.000151,1, 0.117259, 0.045196, 9.805844,1,1
1778254040180,   734.126,   734.126,-0.011521,-0.004147,-0.996044,-0.000116,-0.000044,-0.009960, 0.004285, 0.004582, 0.037991,1,-0.000124, 0.000275, 0.000028,1, 0.117262, 0.045246, 9.805844,1,1
1778254040202,   734.151,   734.146,-0.011778,-0.004824,-0.997721,-0.000116,-0.000050,-0.009970, 0.008669, 0.000269, 0.048664,1, 0.000030,-0.001135, 0.000018,1, 0.117362, 0.045247, 9.805843,1,1
1778254040225,   734.176,   734.171,-0.011668,-0.004752,-0.996174,-0.000117,-0.000046,-0.009965, 0.002902,-0.001376, 0.036712,1,-0.000522, 0.000811, 0.000283,1, 0.117299, 0.045210, 9.805844,1,1
1778254040250,   734.196,   734.196,-0.012356,-0.004363,-0.995972,-0.000124,-0.000043,-0.009957,-0.003810, 0.002507, 0.038690,1, 0.000701, 0.000373, 0.000016,1, 0.117350, 0.045316, 9.805843,1,1
1778254040272,   734.221,   734.216,-0.012514,-0.004573,-0.995496,-0.000127,-0.000045,-0.009957,-0.004286,-0.005003, 0.039428,1,-0.000519, 0.000285,-0.000186,1, 0.117376, 0.045239, 9.805843,1,1
1778254040299,   734.246,   734.246,-0.012586,-0.004097,-0.995653,-0.000127,-0.000041,-0.009956,-0.006133, 0.005024, 0.041823,1,-0.000257, 0.000320,-0.000086,1, 0.117287, 0.045192, 9.805844,1,1
1778254040322,   734.266,   734.266,-0.012149,-0.003828,-0.995458,-0.000123,-0.000038,-0.009961,-0.001793, 0.007631, 0.043737,1, 0.000285,-0.000638,-0.000192,1, 0.117366, 0.045177, 9.805843,1,1
1778254040342,   734.291,   734.286,-0.011124,-0.004033,-0.995951,-0.000113,-0.000040,-0.009957, 0.010929, 0.004152, 0.040375,1, 0.000251, 0.000255,-0.000123,1, 0.117293, 0.045210, 9.805844,1,1
1778254040369,   734.316,   734.316,-0.010234,-0.003315,-0.995509,-0.000101,-0.000034,-0.009956, 0.016947, 0.012645, 0.043231,1, 0.000649,-0.000444,-0.000194,1, 0.117321, 0.045170, 9.805844,1,1
1778254040391,   734.341,   734.336,-0.011259,-0.004601,-0.996079,-0.000114,-0.000045,-0.009957, 0.010805, 0.007282, 0.038756,1, 0.000189,-0.000531, 0.000315,1, 0.117319, 0.045152, 9.805844,1,1
1778254040412,   734.361,   734.356,-0.011963,-0.004534,-0.995610,-0.000121,-0.000045,-0.009956, 0.005753,-0.002067, 0.040773,1,-0.000355, 0.000363,-0.000400,1, 0.117327, 0.045129, 9.805844,1,1
1778254040439,   734.386,   734.386,-0.012788,-0.005210,-0.996133,-0.000125,-0.000050,-0.009961,-0.008146,-0.006068, 0.037119,1,-0.000064,-0.000269, 0.000231,1, 0.117267, 0.045019, 9.805845,1,1
1778254040461,   734.411,   734.406,-0.012104,-0.004544,-0.995501,-0.000123,-0.000046,-0.009953,-0.005955, 0.001676, 0.038050,1, 0.000417,-0.000502,-0.000184,1, 0.117255, 0.044977, 9.805846,1,1
1778254040482,   734.431,   734.426,-0.011603,-0.003628,-0.996063,-0.000116,-0.000037,-0.009963, 0.002858, 0.003783, 0.040585,1, 0.000144,-0.000174,-0.000330,1, 0.117260, 0.044938, 9.805846,1,1
1778254040509,   734.456,   734.456,-0.011550,-0.003363,-0.996426,-0.000114,-0.000033,-0.009963, 0.004068, 0.011932, 0.034240,1, 0.000180,-0.000143,-0.000331,1, 0.117336, 0.044921, 9.805845,1,1
1778254040531,   734.481,   734.476,-0.011900,-0.004518,-0.993808,-0.000118,-0.000042,-0.009949, 0.010707,-0.001588, 0.014814,1, 0.000245,-0.000315, 0.000035,1, 0.117266, 0.044928, 9.805846,1,1
1778254040552,   734.501,   734.496,-0.012181,-0.005087,-0.996142,-0.000119,-0.000052,-0.009964,-0.000483,-0.001638, 0.031478,1,-0.000207, 0.000855, 0.000471,1, 0.117165, 0.044858, 9.805847,1,1
1778254040579,   734.526,   734.526,-0.012552,-0.005311,-0.996408,-0.000126,-0.000055,-0.009966,-0.005949,-0.007261, 0.034424,1, 0.000531, 0.000406,-0.000120,1, 0.117135, 0.044838, 9.805848,1,1
1778254040601,   734.551,   734.546,-0.012310,-0.005129,-0.995609,-0.000124,-0.000051,-0.009954,-0.001946,-0.003954, 0.041807,1,-0.000138, 0.000328,-0.000149,1, 0.117105, 0.044773, 9.805848,1,1
1778254040622,   734.571,   734.566,-0.011838,-0.004737,-0.995590,-0.000116,-0.000049,-0.009956,-0.000850,-0.001598, 0.042958,1,-0.000450, 0.001001,-0.000164,1, 0.116982, 0.044740, 9.805850,1,1
1778254040649,   734.596,   734.596,-0.011455,-0.004034,-0.996304,-0.000116,-0.000040,-0.009961, 0.004526, 0.005026, 0.035449,1,-0.000509, 0.000106,-0.000362,1, 0.116856, 0.044574, 9.805853,1,1
1778254040671,   734.621,   734.616,-0.011239,-0.003696,-0.995996,-0.000113,-0.000037,-0.009963, 0.007683, 0.012870, 0.040161,1,-0.000956,-0.000200,-0.000599,1, 0.116867, 0.044461, 9.805853,1,1
1778254040692,   734.641,   734.636,-0.011652,-0.003611,-0.995947,-0.000114,-0.000038,-0.009965, 0.011633, 0.012693, 0.046198,1, 0.000003, 0.000677, 0.000304,1, 0.116747, 0.044441, 9.805855,1,1
1778254040720,   734.666,   734.666,-0.011876,-0.004628,-0.996059,-0.000117,-0.000045,-0.009964, 0.000283,-0.000940, 0.037853,1, 0.000666,-0.000164, 0.000925,1, 0.116750, 0.044465, 9.805854,1,1
1778254040741,   734.691,   734.686,-0.011694,-0.005388,-0.996263,-0.000118,-0.000052,-0.009963, 0.002050,-0.003040, 0.034969,1,-0.000140,-0.000352, 0.000316,1, 0.116867, 0.044402, 9.805853,1,1
1778254040763,   734.711,   734.706,-0.012258,-0.005446,-0.995952,-0.000122,-0.000053,-0.009955, 0.003216,-0.009983, 0.047265,1, 0.000185,-0.000777, 0.000333,1, 0.116960, 0.044363, 9.805852,1,1
1778254040790,   734.736,   734.736,-0.011774,-0.005282,-0.995189,-0.000119,-0.000054,-0.009953, 0.001543,-0.007479, 0.046376,1,-0.000485,-0.000244,-0.000783,1, 0.117015, 0.044310, 9.805852,1,1
1778254040811,   734.761,   734.756,-0.011898,-0.004727,-0.995748,-0.000120,-0.000046,-0.009955,-0.001838,-0.005940, 0.040493,1,-0.001086, 0.000227, 0.000025,1, 0.117010, 0.044155, 9.805853,1,1
1778254040834,   734.781,   734.781,-0.011938,-0.003801,-0.995886,-0.000120,-0.000039,-0.009960,-0.000062, 0.006883, 0.039546,1,-0.000436, 0.000121,-0.000396,1, 0.117002, 0.044141, 9.805853,1,1
1778254040860,   734.806,   734.806,-0.010442,-0.002764,-0.995456,-0.000103,-0.000030,-0.009955, 0.014587, 0.016927, 0.043767,1,-0.000375, 0.000497,-0.000215,1, 0.116969, 0.044025, 9.805854,1,1
1778254040881,   734.831,   734.826,-0.011047,-0.003418,-0.996626,-0.000109,-0.000033,-0.009963, 0.015361, 0.012121, 0.037234,1, 0.000347, 0.000082, 0.000131,1, 0.116974, 0.044072, 9.805853,1,1
1778254040904,   734.851,   734.851,-0.011251,-0.004678,-0.996404,-0.000112,-0.000045,-0.009962, 0.006546,-0.001829, 0.034472,1,-0.001064,-0.000536, 0.000011,1, 0.116901, 0.044013, 9.805855,1,1
1778254040930,   734.876,   734.876,-0.012891,-0.004792,-0.995730,-0.000129,-0.000047,-0.009955,-0.009575,-0.002935, 0.041075,1, 0.000209, 0.000478, 0.000574,1, 0.116829, 0.044067, 9.805855,1,1
1778254040951,   734.901,   734.896,-0.013421,-0.005963,-0.995400,-0.000135,-0.000060,-0.009956,-0.018157,-0.015756, 0.039838,1,-0.000670, 0.000811, 0.000221,1, 0.116778, 0.044010, 9.805856,1,1
1778254040974,   734.921,   734.921,-0.012737,-0.005230,-0.995916,-0.000128,-0.000053,-0.009958,-0.008190,-0.007258, 0.039251,1, 0.000103, 0.000030,-0.000576,1, 0.116715, 0.044030, 9.805857,1,1
1778254041000,   734.946,   734.946,-0.011975,-0.004668,-0.995633,-0.000119,-0.000046,-0.009958,-0.000714,-0.001746, 0.042036,1, 0.000115,-0.000306,-0.001030,1, 0.116728, 0.044036, 9.805857,1,1
1778254041022,   734.971,   734.966,-0.010726,-0.003540,-0.995991,-0.000108,-0.000036,-0.009960, 0.005672, 0.003026, 0.043733,1,-0.000366,-0.000697,-0.000331,1, 0.116797, 0.044006, 9.805856,1,1
1778254041044,   734.991,   734.991,-0.010456,-0.003462,-0.995987,-0.000102,-0.000035,-0.009961, 0.014240, 0.009994, 0.038555,1,-0.000323, 0.000222,-0.000501,1, 0.116770, 0.043938, 9.805857,1,1
1778254041070,   735.016,   735.016,-0.010984,-0.003350,-0.995724,-0.000112,-0.000034,-0.009957, 0.009005, 0.011056, 0.041144,1, 0.000219, 0.000419, 0.000225,1, 0.116707, 0.043911, 9.805858,1,1
1778254041091,   735.041,   735.036,-0.012060,-0.004088,-0.995852,-0.000116,-0.000038,-0.009956, 0.003120, 0.003430, 0.037458,1,-0.000294,-0.001535, 0.000113,1, 0.116785, 0.043946, 9.805856,1,1
1778254041114,   735.061,   735.061,-0.011945,-0.005010,-0.996074,-0.000118,-0.000047,-0.009958,-0.000412,-0.004998, 0.037705,1, 0.000864,-0.000443, 0.000270,1, 0.116741, 0.044156, 9.805856,1,1
1778254041140,   735.086,   735.086,-0.012596,-0.005373,-0.995847,-0.000125,-0.000053,-0.009957,-0.006762,-0.008517, 0.039933,1, 0.000524,-0.000408, 0.001225,1, 0.116774, 0.044186, 9.805855,1,1
1778254041161,   735.111,   735.106,-0.012587,-0.006256,-0.995967,-0.000127,-0.000061,-0.009961,-0.006370,-0.012314, 0.045437,1,-0.000548,-0.000329, 0.000214,1, 0.116745, 0.044155, 9.805856,1,1
1778254041184,   735.136,   735.131,-0.012299,-0.005885,-0.995747,-0.000125,-0.000060,-0.009960,-0.003816,-0.013659, 0.040912,1,-0.000586, 0.000435,-0.000388,1, 0.116787, 0.044036, 9.805856,1,1
1778254041210,   735.156,   735.156,-0.012107,-0.005218,-0.996082,-0.000120,-0.000053,-0.009961,-0.001900,-0.007282, 0.037631,1,-0.000419, 0.000504,-0.000689,1, 0.116811, 0.043874, 9.805856,1,1
1778254041232,   735.181,   735.176,-0.010883,-0.003394,-0.995931,-0.000109,-0.000035,-0.009961, 0.006210, 0.006478, 0.037931,1,-0.000473, 0.000236,-0.000667,1, 0.116753, 0.043773, 9.805858,1,1
1778254041254,   735.206,   735.201,-0.009528,-0.002244,-0.995999,-0.000097,-0.000023,-0.009958, 0.023453, 0.021700, 0.038438,1,-0.000226,-0.000139,-0.000362,1, 0.116897, 0.043703, 9.805856,1,1
1778254041280,   735.226,   735.226,-0.008748,-0.001653,-0.996216,-0.000087,-0.000017,-0.009964, 0.031099, 0.027521, 0.036314,1, 0.000157,-0.000086, 0.000073,1, 0.116887, 0.043741, 9.805856,1,1
1778254041302,   735.251,   735.246,-0.011266,-0.004466,-0.994823,-0.000113,-0.000045,-0.009932, 0.030493, 0.031902, 0.038420,1,-0.001179, 0.000029, 0.001405,1, 0.116962, 0.043665, 9.805855,1,1
1778254041324,   735.276,   735.271,-0.013523,-0.005090,-0.994480,-0.000135,-0.000054,-0.009941,-0.015664,-0.006145, 0.053332,1, 0.000082, 0.000764, 0.000835,1, 0.116930, 0.043776, 9.805855,1,1
1778254041350,   735.296,   735.296,-0.014950,-0.005743,-0.995177,-0.000150,-0.000059,-0.009949,-0.029740,-0.012546, 0.046501,1, 0.000322, 0.000070, 0.000223,1, 0.116811, 0.043776, 9.805857,1,1
1778254041372,   735.321,   735.316,-0.014454,-0.006372,-0.996477,-0.000147,-0.000066,-0.009967,-0.033034,-0.024631, 0.053428,1,-0.000231, 0.000653,-0.000043,1, 0.116694, 0.043735, 9.805859,1,1
1778254041395,   735.346,   735.341,-0.013181,-0.005668,-0.995835,-0.000134,-0.000055,-0.009959,-0.012754,-0.011795, 0.040055,1, 0.000151, 0.000224,-0.000531,1, 0.116497, 0.043794, 9.805861,1,1
1778254041420,   735.366,   735.366,-0.010724,-0.003386,-0.996001,-0.000107,-0.000034,-0.009959, 0.011280, 0.010473, 0.038426,1,-0.000326, 0.000881,-0.000891,1, 0.116420, 0.043672, 9.805861,1,1
1778254041442,   735.391,   735.386,-0.008363,-0.003026,-0.995698,-0.000087,-0.000028,-0.009957, 0.023831, 0.017877, 0.042993,1,-0.001019, 0.000582,-0.000929,1, 0.116340, 0.043532, 9.805863,1,1
1778254041465,   735.416,   735.411,-0.009142,-0.001795,-0.995868,-0.000087,-0.000021,-0.009974, 0.026754, 0.025981, 0.039728,1, 0.000441,-0.000545, 0.000135,1, 0.116421, 0.043596, 9.805862,1,1
1778254041490,   735.436,   735.436,-0.009703,-0.003099,-0.995805,-0.000094,-0.000029,-0.009963, 0.021242, 0.013249, 0.040354,1, 0.000078, 0.000448, 0.001302,1, 0.116379, 0.043640, 9.805862,1,1
1778254041512,   735.461,   735.456,-0.012804,-0.004815,-0.995421,-0.000127,-0.000049,-0.009952, 0.000016,-0.001343, 0.033845,1, 0.000151, 0.000010, 0.000481,1, 0.116303, 0.043672, 9.805863,1,1
1778254041539,   735.486,   735.486,-0.013539,-0.006259,-0.996108,-0.000136,-0.000061,-0.009956,-0.016444,-0.017697, 0.037378,1, 0.000603,-0.000234, 0.000088,1, 0.116331, 0.043704, 9.805862,1,1
1778254041560,   735.506,   735.506,-0.014045,-0.006217,-0.995077,-0.000143,-0.000062,-0.009951,-0.021363,-0.017240, 0.047486,1, 0.000539, 0.000054, 0.000196,1, 0.116375, 0.043748, 9.805861,1,1
1778254041582,   735.531,   735.526,-0.012849,-0.005357,-0.995531,-0.000130,-0.000053,-0.009955,-0.012076,-0.011089, 0.040260,1,-0.000456,-0.000926,-0.000507,1, 0.116436, 0.043739, 9.805861,1,1
1778254041609,   735.556,   735.556,-0.011746,-0.004217,-0.996226,-0.000116,-0.000042,-0.009961, 0.001331, 0.002262, 0.036216,1,-0.000741, 0.000344,-0.000803,1, 0.116505, 0.043595, 9.805861,1,1
1778254041631,   735.581,   735.576,-0.010674,-0.003247,-0.995897,-0.000107,-0.000033,-0.009957, 0.011688, 0.014168, 0.038157,1,-0.000077,-0.000295,-0.000570,1, 0.116469, 0.043571, 9.805861,1,1
1778254041652,   735.601,   735.596,-0.010056,-0.003309,-0.995434,-0.000100,-0.000035,-0.009955, 0.016803, 0.007295, 0.034914,1, 0.000623, 0.000212, 0.000173,1, 0.116466, 0.043569, 9.805861,1,1
1778254041679,   735.626,   735.626,-0.011076,-0.003447,-0.996220,-0.000110,-0.000036,-0.009960, 0.007781, 0.009742, 0.036276,1, 0.000238,-0.000580, 0.000397,1, 0.116415, 0.043551, 9.805862,1,1
1778254041701,   735.651,   735.646,-0.012553,-0.004756,-0.995829,-0.000126,-0.000046,-0.009961,-0.002661, 0.007068, 0.038502,1,-0.000924,-0.000018, 0.000293,1, 0.116382, 0.043484, 9.805863,1,1
1778254041722,   735.671,   735.666,-0.013122,-0.005343,-0.995908,-0.000128,-0.000053,-0.009959,-0.005219,-0.010125, 0.036020,1, 0.000202, 0.000251, 0.000502,1, 0.116351, 0.043566, 9.805863,1,1
1778254041749,   735.696,   735.696,-0.012967,-0.004946,-0.995443,-0.000132,-0.000055,-0.009958,-0.010824,-0.004894, 0.043897,1,-0.000214,-0.000400,-0.000834,1, 0.116380, 0.043620, 9.805862,1,1
1778254041771,   735.721,   735.716,-0.011840,-0.004743,-0.995660,-0.000120,-0.000048,-0.009959,-0.007100,-0.006555, 0.038803,1,-0.000346,-0.000164,-0.000550,1, 0.116390, 0.043646, 9.805862,1,1
1778254041792,   735.741,   735.736,-0.011415,-0.004219,-0.995841,-0.000114,-0.000044,-0.009957, 0.002786, 0.000129, 0.038815,1,-0.000131, 0.000479,-0.000199,1, 0.116374, 0.043592, 9.805862,1,1
1778254041819,   735.766,   735.766,-0.010903,-0.003760,-0.996559,-0.000109,-0.000039,-0.009964, 0.009354, 0.006716, 0.032960,1, 0.000640, 0.000165, 0.000040,1, 0.116266, 0.043612, 9.805863,1,1
1778254041841,   735.791,   735.786,-0.011175,-0.003278,-0.996027,-0.000113,-0.000035,-0.009960, 0.002266, 0.010362, 0.044772,1, 0.000052,-0.000209,-0.000178,1, 0.116226, 0.043592, 9.805864,1,1
1778254041862,   735.811,   735.806,-0.011584,-0.003996,-0.996273,-0.000115,-0.000040,-0.009964, 0.002942, 0.005619, 0.030756,1, 0.000183,-0.000092,-0.000219,1, 0.116258, 0.043626, 9.805863,1,1
1778254041889,   735.836,   735.836,-0.012121,-0.004880,-0.996143,-0.000121,-0.000048,-0.009962,-0.002657,-0.004241, 0.037036,1,-0.000529, 0.000020, 0.000376,1, 0.116209, 0.043601, 9.805864,1,1
1778254041911,   735.861,   735.856,-0.012442,-0.005012,-0.995935,-0.000126,-0.000053,-0.009956,-0.005365,-0.010685, 0.040662,1,-0.000432,-0.000245, 0.000027,1, 0.116225, 0.043552, 9.805864,1,1
1778254041932,   735.881,   735.876,-0.012275,-0.005644,-0.996016,-0.000123,-0.000054,-0.009960,-0.002088,-0.005602, 0.042237,1,-0.000504,-0.000288, 0.000271,1, 0.116197, 0.043507, 9.805865,1,1
1778254041959,   735.906,   735.906,-0.011687,-0.004655,-0.995837,-0.000118,-0.000046,-0.009959, 0.001522,-0.002336, 0.040038,1,-0.000662, 0.000236,-0.000198,1, 0.116127, 0.043290, 9.805867,1,1
1778254041981,   735.931,   735.926,-0.010711,-0.003884,-0.995513,-0.000109,-0.000040,-0.009956,-0.000604, 0.003793, 0.039946,1, 0.000475, 0.000188,-0.000507,1, 0.116172, 0.043307, 9.805866,1,1
1778254042003,   735.951,   735.946,-0.011284,-0.003249,-0.996448,-0.000110,-0.000033,-0.009964, 0.004298, 0.007102, 0.041247,1, 0.000449, 0.000442,-0.000243,1, 0.116068, 0.043326, 9.805867,1,1
1778254042029,   735.976,   735.976,-0.011447,-0.003685,-0.995830,-0.000117,-0.000037,-0.009961, 0.003904, 0.007234, 0.040105,1, 0.000657, 0.000378, 0.000600,1, 0.116151, 0.043390, 9.805866,1,1
1778254042051,   736.001,   735.996,-0.012313,-0.004674,-0.995389,-0.000122,-0.000045,-0.009958, 0.004827,-0.001398, 0.042461,1, 0.000042,-0.000173, 0.000279,1, 0.116202, 0.043397, 9.805865,1,1
1778254042074,   736.021,   736.021,-0.012452,-0.004878,-0.995770,-0.000124,-0.000047,-0.009959,-0.005766,-0.004304, 0.040697,1, 0.000062,-0.000497, 0.000205,1, 0.116358, 0.043531, 9.805863,1,1
1778254042099,   736.046,   736.046,-0.011905,-0.005581,-0.995377,-0.000120,-0.000055,-0.009953,-0.000429,-0.011126, 0.044553,1, 0.000806, 0.000191, 0.000201,1, 0.116315, 0.043630, 9.805863,1,1
1778254042121,   736.071,   736.066,-0.011921,-0.004996,-0.995874,-0.000116,-0.000050,-0.009958, 0.001398,-0.006625, 0.045108,1,-0.000922,-0.000110,-0.000252,1, 0.116333, 0.043536, 9.805863,1,1
1778254042144,   736.091,   736.091,-0.011386,-0.004051,-0.996244,-0.000114,-0.000042,-0.009960, 0.004795, 0.003693, 0.036046,1,-0.001001,-0.000232, 0.000072,1, 0.116448, 0.043396, 9.805862,1,1
1778254042170,   736.116,   736.116,-0.011454,-0.003784,-0.995616,-0.000112,-0.000039,-0.009957, 0.004205, 0.006187, 0.042206,1,-0.000333,-0.000926,-0.000691,1, 0.116557, 0.043283, 9.805861,1,1
1778254042191,   736.141,   736.136,-0.012095,-0.003833,-0.996658,-0.000119,-0.000040,-0.009965,-0.001072, 0.003757, 0.041993,1, 0.000680, 0.001329,-0.000128,1, 0.116492, 0.043392, 9.805862,1,1
1778254042214,   736.161,   736.161,-0.012176,-0.004084,-0.995770,-0.000122,-0.000042,-0.009956,-0.002900, 0.003327, 0.040692,1,-0.000184, 0.000358, 0.000686,1, 0.116496, 0.043373, 9.805862,1,1
1778254042240,   736.186,   736.186,-0.012103,-0.004715,-0.995840,-0.000123,-0.000046,-0.009957,-0.002255,-0.002915, 0.040009,1,-0.000056, 0.001050, 0.000258,1, 0.116400, 0.043319, 9.805863,1,1
1778254042261,   736.211,   736.206,-0.011951,-0.004680,-0.996093,-0.000119,-0.000045,-0.009960,-0.001918,-0.000185, 0.038380,1, 0.000039,-0.000481, 0.000139,1, 0.116381, 0.043438, 9.805863,1,1
1778254042284,   736.231,   736.231,-0.011419,-0.004493,-0.995702,-0.000116,-0.000045,-0.009958, 0.004425,-0.000665, 0.041359,1, 0.000150, 0.000197, 0.000165,1, 0.116401, 0.043400, 9.805863,1,1
1778254042310,   736.256,   736.256,-0.011606,-0.005486,-0.996393,-0.000116,-0.000054,-0.009964, 0.002554,-0.010433, 0.034584,1, 0.000349, 0.000176,-0.000083,1, 0.116361, 0.043377, 9.805863,1,1
1778254042331,   736.281,   736.276,-0.011937,-0.004183,-0.995547,-0.000120,-0.000043,-0.009955, 0.003696, 0.000009, 0.041033,1, 0.000224,-0.000566,-0.000457,1, 0.116379, 0.043368, 9.805863,1,1
1778254042354,   736.301,   736.301,-0.012108,-0.004711,-0.994806,-0.000119,-0.000047,-0.009953,-0.002300,-0.002855, 0.050150,1, 0.000079, 0.000046, 0.000007,1, 0.116436, 0.043342, 9.805863,1,1
1778254042380,   736.326,   736.326,-0.011860,-0.004435,-0.996647,-0.000120,-0.000045,-0.009969, 0.000164,-0.000184, 0.032092,1,-0.000432,-0.000062,-0.000076,1, 0.116473, 0.043297, 9.805862,1,1
1778254042401,   736.351,   736.346,-0.011939,-0.003848,-0.995848,-0.000116,-0.000038,-0.009959, 0.001228, 0.007593, 0.041474,1,-0.000213, 0.000258, 0.000907,1, 0.116439, 0.043248, 9.805863,1,1
1778254042424,   736.376,   736.371,-0.011769,-0.004278,-0.995852,-0.000119,-0.000043,-0.009959, 0.001003, 0.001227, 0.039896,1,-0.000040,-0.000050, 0.000588,1, 0.116414, 0.043182, 9.805864,1,1
1778254042450,   736.396,   736.396,-0.012298,-0.004553,-0.995563,-0.000120,-0.000046,-0.009961,-0.004017,-0.001440, 0.042726,1, 0.000478,-0.000065,-0.000151,1, 0.116582, 0.043227, 9.805861,1,1
1778254042471,   736.421,   736.416,-0.011878,-0.004727,-0.996015,-0.000121,-0.000047,-0.009962,-0.001794,-0.005180, 0.032021,1, 0.000763, 0.000595,-0.000313,1, 0.116597, 0.043313, 9.805861,1,1
1778254042494,   736.446,   736.441,-0.011916,-0.004581,-0.995856,-0.000118,-0.000046,-0.009958,-0.000266,-0.001542, 0.039845,1, 0.000675,-0.000334,-0.000619,1, 0.116596, 0.043405, 9.805861,1,1
1778254042520,   736.466,   736.466,-0.011986,-0.004990,-0.996439,-0.000116,-0.000048,-0.009961,-0.000951,-0.005445, 0.034127,1, 0.000346, 0.000373,-0.000369,1, 0.116584, 0.043504, 9.805861,1,1
1778254042542,   736.491,   736.486,-0.011359,-0.004288,-0.995937,-0.000115,-0.000043,-0.009960, 0.003530, 0.002177, 0.041252,1,-0.000308, 0.000272, 0.000032,1, 0.116610, 0.043432, 9.805861,1,1
1778254042564,   736.516,   736.511,-0.011706,-0.004287,-0.996171,-0.000115,-0.000044,-0.009961, 0.001827, 0.001339, 0.036761,1,-0.000045,-0.000215, 0.000216,1, 0.116629, 0.043376, 9.805861,1,1
1778254042590,   736.536,   736.536,-0.011845,-0.004702,-0.996026,-0.000119,-0.000046,-0.009960, 0.000465,-0.002655, 0.038183,1,-0.000074,-0.000288,-0.000220,1, 0.116638, 0.043452, 9.805861,1,1
1778254042612,   736.561,   736.556,-0.012204,-0.004183,-0.996212,-0.000122,-0.000042,-0.009961, 0.001082,-0.000996, 0.035996,1, 0.000051,-0.000483,-0.000016,1, 0.116650, 0.043418, 9.805861,1,1
1778254042635,   736.586,   736.576,-0.011897,-0.004373,-0.995173,-0.000119,-0.000045,-0.009950,-0.001093, 0.004015, 0.044776,1, 0.000571, 0.000967,-0.000252,1, 0.116589, 0.043506, 9.805861,1,1
1778254042660,   736.606,   736.606,-0.011992,-0.004821,-0.996063,-0.000121,-0.000047,-0.009959,-0.001105,-0.003896, 0.037818,1,-0.000034, 0.000432,-0.000091,1, 0.116479, 0.043379, 9.805862,1,1
1778254042682,   736.631,   736.626,-0.011674,-0.004960,-0.995962,-0.000116,-0.000050,-0.009957,-0.000166,-0.002852, 0.043028,1,-0.000644,-0.000064,-0.000052,1, 0.116469, 0.043287, 9.805862,1,1
1778254042705,   736.656,   736.646,-0.011266,-0.004038,-0.995738,-0.000114,-0.000041,-0.009956, 0.003095,-0.005605, 0.035836,1,-0.000688, 0.000057,-0.000628,1, 0.116426, 0.043201, 9.805863,1,1
1778254042730,   736.676,   736.676,-0.011536,-0.004376,-0.995719,-0.000115,-0.000042,-0.009959, 0.003243, 0.000342, 0.041193,1, 0.000267, 0.000553,-0.000319,1, 0.116357, 0.043268, 9.805864,1,1
1778254042752,   736.701,   736.696,-0.011010,-0.003942,-0.996228,-0.000113,-0.000042,-0.009963, 0.005973,-0.000538, 0.039908,1,-0.000183,-0.000887, 0.000101,1, 0.116344, 0.043270, 9.805864,1,1
1778254042779,   736.726,   736.726,-0.010008,-0.003881,-0.997447,-0.000106,-0.000039,-0.009964, 0.018235, 0.005227, 0.024252,1, 0.000051,-0.000204,-0.000283,1, 0.116388, 0.043286, 9.805863,1,1
1778254042800,   736.746,   736.746,-0.012098,-0.004557,-0.997099,-0.000129,-0.000046,-0.009977,-0.002357,-0.001362, 0.027662,1, 0.000047, 0.000354, 0.000330,1, 0.116270, 0.043325, 9.805865,1,1
1778254042822,   736.771,   736.766,-0.011652,-0.004687,-0.995215,-0.000119,-0.000052,-0.009948,-0.008780, 0.005038, 0.030412,1, 0.001086,-0.000427, 0.000203,1, 0.116263, 0.043362, 9.805865,1,1
1778254042849,   736.796,   736.796,-0.012525,-0.004741,-0.994750,-0.000124,-0.000051,-0.009952,-0.006553,-0.003145, 0.050702,1,-0.000223, 0.001220, 0.000600,1, 0.116238, 0.043340, 9.805865,1,1
1778254042870,   736.821,   736.816,-0.011939,-0.003739,-0.995606,-0.000119,-0.000038,-0.009968,-0.003615, 0.001915, 0.032307,1, 0.000796, 0.000091,-0.000227,1, 0.116178, 0.043464, 9.805865,1,1
1778254042892,   736.841,   736.836,-0.010851,-0.003751,-0.995342,-0.000107,-0.000042,-0.009953, 0.012160, 0.002527, 0.054760,1, 0.000433,-0.000109, 0.000027,1, 0.116265, 0.043490, 9.805864,1,1
1778254042919,   736.866,   736.866,-0.012369,-0.004156,-0.997230,-0.000123,-0.000045,-0.009968,-0.005159, 0.002833, 0.026379,1, 0.000541,-0.000292,-0.000281,1, 0.116148, 0.043609, 9.805865,1,1
1778254042940,   736.891,   736.886,-0.012262,-0.004656,-0.995805,-0.000122,-0.000043,-0.009957, 0.001231, 0.004306, 0.048545,1,-0.000274, 0.000889,-0.000521,1, 0.116216, 0.043558, 9.805864,1,1
1778254042962,   736.911,   736.906,-0.013331,-0.005073,-0.996067,-0.000131,-0.000049,-0.009965,-0.006604,-0.004891, 0.040882,1,-0.000077, 0.001099, 0.000278,1, 0.116107, 0.043460, 9.805866,1,1
1778254042989,   736.936,   736.936,-0.012560,-0.004280,-0.995050,-0.000128,-0.000041,-0.009951,-0.007146, 0.001320, 0.047762,1,-0.000334, 0.000489,-0.000279,1, 0.116010, 0.043286, 9.805868,1,1
1778254043011,   736.961,   736.956,-0.011987,-0.004949,-0.993506,-0.000123,-0.000045,-0.009940, 0.007325, 0.000987, 0.015154,1,-0.000512,-0.000648,-0.000765,1, 0.116051, 0.043233, 9.805868,1,1
1778254043032,   736.981,   736.976,-0.009660,-0.005234,-0.992293,-0.000097,-0.000048,-0.009919, 0.017249, 0.006892, 0.000446,1, 0.000385,-0.000674,-0.000384,1, 0.116136, 0.043297, 9.805867,1,1
1778254043059,   737.006,   737.006,-0.010873,-0.004660,-0.994020,-0.000105,-0.000046,-0.009950, 0.009433,-0.002302, 0.057865,1, 0.000048, 0.000444,-0.000247,1, 0.116045, 0.043400, 9.805867,1,1
1778254043081,   737.031,   737.026,-0.009323,-0.003279,-0.996773,-0.000099,-0.000034,-0.009963, 0.010729,-0.000493, 0.047936,1, 0.000387,-0.000085,-0.000558,1, 0.116015, 0.043423, 9.805867,1,1
1778254043102,   737.051,   737.046,-0.012183,-0.003652,-0.994972,-0.000128,-0.000041,-0.009946, 0.012369,-0.002246, 0.044530,1,-0.000678,-0.000803,-0.000586,1, 0.116097, 0.043466, 9.805866,1,1
1778254043129,   737.076,   737.076,-0.012037,-0.004226,-0.996301,-0.000124,-0.000045,-0.009959,-0.002068, 0.002015, 0.035491,1, 0.000576, 0.001511, 0.000068,1, 0.115922, 0.043476, 9.805868,1,1
1778254043151,   737.101,   737.096,-0.012269,-0.003759,-0.995716,-0.000121,-0.000036,-0.009959, 0.002086,-0.000020, 0.040859,1,-0.000770,-0.000400, 0.000310,1, 0.115937, 0.043403, 9.805868,1,1
1778254043172,   737.121,   737.116,-0.012282,-0.003579,-0.997239,-0.000122,-0.000033,-0.009975,-0.007488, 0.005991, 0.038885,1, 0.000043,-0.000299,-0.000013,1, 0.116036, 0.043320, 9.805868,1,1
1778254043199,   737.146,   737.146,-0.012613,-0.003335,-0.994587,-0.000126,-0.000033,-0.009949,-0.007522, 0.010706, 0.052298,1, 0.000660,-0.000214,-0.000283,1, 0.116176, 0.043431, 9.805865,1,1
1778254043221,   737.171,   737.166,-0.013305,-0.004247,-0.995727,-0.000134,-0.000041,-0.009962,-0.008440,-0.000149, 0.025667,1, 0.000408,-0.000136, 0.000014,1, 0.116175, 0.043581, 9.805865,1,1
1778254043242,   737.191,   737.186,-0.011525,-0.004053,-0.994659,-0.000118,-0.000040,-0.009950,-0.008972, 0.008813, 0.035010,1, 0.000316,-0.000755, 0.000728,1, 0.116195, 0.043563, 9.805865,1,1
1778254043269,   737.216,   737.216,-0.011237,-0.004463,-0.995847,-0.000113,-0.000042,-0.009962, 0.005989,-0.000145, 0.039943,1, 0.000567, 0.000131, 0.000297,1, 0.116180, 0.043641, 9.805864,1,1
1778254043291,   737.241,   737.236,-0.009580,-0.004085,-0.995956,-0.000095,-0.000039,-0.009955, 0.010636, 0.006667, 0.055721,1, 0.000232, 0.000191, 0.000463,1, 0.116204, 0.043673, 9.805864,1,1
1778254043314,   737.261,   737.261,-0.012748,-0.005178,-0.994322,-0.000115,-0.000050,-0.009969,-0.008619,-0.007097, 0.054898,1,-0.001135,-0.000449, 0.000698,1, 0.116410, 0.043646, 9.805861,1,1
1778254043339,   737.286,   737.286,-0.012848,-0.005855,-0.994922,-0.000129,-0.000056,-0.009958,-0.009611,-0.013722, 0.049011,1, 0.000978, 0.000108, 0.000860,1, 0.116384, 0.043729, 9.805861,1,1
1778254043361,   737.311,   737.306,-0.013072,-0.003491,-0.995389,-0.000132,-0.000033,-0.009950,-0.006604,-0.010742, 0.045261,1, 0.000139, 0.000895, 0.000433,1, 0.116306, 0.043730, 9.805862,1,1
1778254043384,   737.331,   737.331,-0.012605,-0.004218,-0.995747,-0.000129,-0.000043,-0.009955,-0.007276, 0.002351, 0.040922,1,-0.000036, 0.000466,-0.000456,1, 0.116322, 0.043712, 9.805862,1,1
1778254043409,   737.356,   737.356,-0.012196,-0.003208,-0.996155,-0.000120,-0.000033,-0.009967,-0.003371, 0.012333, 0.036924,1, 0.000357, 0.000143,-0.000025,1, 0.116223, 0.043807, 9.805863,1,1
1778254043431,   737.381,   737.376,-0.010823,-0.004284,-0.995475,-0.000107,-0.000041,-0.009957, 0.008539, 0.004242, 0.027303,1, 0.000477, 0.000139, 0.000182,1, 0.116239, 0.043881, 9.805862,1,1
1778254043454,   737.401,   737.401,-0.010505,-0.005065,-0.994967,-0.000106,-0.000045,-0.009953, 0.013301,-0.005828, 0.048568,1, 0.000263,-0.000416, 0.000590,1, 0.116334, 0.043850, 9.805861,1,1
1778254043480,   737.426,   737.426,-0.012113,-0.005606,-0.995921,-0.000118,-0.000050,-0.009958,-0.002561,-0.011155, 0.039219,1, 0.000064, 0.000101, 0.000247,1, 0.116226, 0.043820, 9.805863,1,1
1778254043501,   737.451,   737.446,-0.012669,-0.004555,-0.996091,-0.000125,-0.000048,-0.009960,-0.009445,-0.005657, 0.038995,1, 0.000275, 0.000409, 0.000254,1, 0.116190, 0.043861, 9.805863,1,1
1778254043524,   737.471,   737.471,-0.012560,-0.004819,-0.996037,-0.000127,-0.000050,-0.009960,-0.006909,-0.003358, 0.038075,1, 0.000188, 0.000205,-0.000470,1, 0.116258, 0.043910, 9.805862,1,1
1778254043550,   737.496,   737.496,-0.011225,-0.004257,-0.992214,-0.000111,-0.000042,-0.009939, 0.006258, 0.002166, 0.075568,1, 0.000159,-0.000023,-0.000424,1, 0.116383, 0.043933, 9.805861,1,1
1778254043571,   737.521,   737.516,-0.011207,-0.003787,-0.997321,-0.000118,-0.000035,-0.009976, 0.014579,-0.005915, 0.055608,1, 0.001065, 0.000380,-0.000020,1, 0.116396, 0.043964, 9.805861,1,1
1778254043594,   737.541,   737.541,-0.011541,-0.004574,-0.996732,-0.000116,-0.000042,-0.009962, 0.003237,-0.000836, 0.031256,1, 0.000505, 0.000333,-0.000091,1, 0.116407, 0.044037, 9.805861,1,1
1778254043620,   737.566,   737.566,-0.011936,-0.004272,-0.995995,-0.000119,-0.000043,-0.009962,-0.000601, 0.002162, 0.038486,1,-0.000923,-0.000375, 0.000331,1, 0.116465, 0.044028, 9.805860,1,1
1778254043641,   737.591,   737.586,-0.011971,-0.004605,-0.995787,-0.000121,-0.000041,-0.009957,-0.004007, 0.003669, 0.032019,1, 0.001762, 0.000191, 0.000224,1, 0.116411, 0.044166, 9.805860,1,1
1778254043664,   737.616,   737.611,-0.012438,-0.005097,-0.995541,-0.000123,-0.000047,-0.009958,-0.005573,-0.005677, 0.042937,1, 0.000294,-0.000528,-0.000544,1, 0.116416, 0.044320, 9.805859,1,1
1778254043690,   737.636,   737.636,-0.011951,-0.004766,-0.995845,-0.000122,-0.000047,-0.009960,-0.000733,-0.002440, 0.039958,1,-0.000317, 0.000235, 0.000087,1, 0.116462, 0.044284, 9.805859,1,1
1778254043711,   737.661,   737.656,-0.009949,-0.004537,-0.996053,-0.000098,-0.000046,-0.009961, 0.010866,-0.000958, 0.043812,1,-0.000353,-0.000351, 0.000144,1, 0.116529, 0.044272, 9.805858,1,1
1778254043734,   737.686,   737.681,-0.010304,-0.003852,-0.996280,-0.000102,-0.000038,-0.009953, 0.015486, 0.006489, 0.035687,1, 0.000255,-0.000159,-0.000213,1, 0.116541, 0.044277, 9.805858,1,1
1778254043760,   737.706,   737.706,-0.011555,-0.005136,-0.996232,-0.000115,-0.000048,-0.009959, 0.003100,-0.006093, 0.036158,1,-0.000110, 0.000616, 0.000096,1, 0.116390, 0.044269, 9.805860,1,1
1778254043781,   737.731,   737.726,-0.013543,-0.005515,-0.995206,-0.000140,-0.000057,-0.009964, 0.000118, 0.002962, 0.045567,1,-0.000814,-0.000101, 0.000283,1, 0.116415, 0.044192, 9.805860,1,1
1778254043804,   737.756,   737.751,-0.013081,-0.004969,-0.995457,-0.000133,-0.000054,-0.009956,-0.011943,-0.004445, 0.043763,1, 0.000593, 0.001080,-0.000428,1, 0.116306, 0.044298, 9.805861,1,1
1778254043830,   737.776,   737.776,-0.012621,-0.004858,-0.996085,-0.000127,-0.000051,-0.009956,-0.007450,-0.003396, 0.037599,1,-0.000718, 0.000453,-0.000279,1, 0.116305, 0.044223, 9.805861,1,1
1778254043852,   737.801,   737.796,-0.011589,-0.003505,-0.995611,-0.000112,-0.000036,-0.009959,-0.001910, 0.003371, 0.044140,1,-0.000668,-0.000599, 0.000003,1, 0.116481, 0.044081, 9.805860,1,1
1778254043874,   737.826,   737.821,-0.011072,-0.003618,-0.996475,-0.000110,-0.000040,-0.009964, 0.007830, 0.008637, 0.033776,1, 0.000517,-0.000036,-0.000214,1, 0.116406, 0.044135, 9.805860,1,1
1778254043900,   737.846,   737.846,-0.010760,-0.004847,-0.995998,-0.000109,-0.000050,-0.009957, 0.010974,-0.003402, 0.038450,1,-0.000814, 0.000651, 0.000214,1, 0.116472, 0.044109, 9.805860,1,1
1778254043922,   737.871,   737.866,-0.012297,-0.005464,-0.997173,-0.000123,-0.000053,-0.009969, 0.003175,-0.008020, 0.040060,1, 0.000532, 0.000138, 0.000476,1, 0.116435, 0.044144, 9.805860,1,1
1778254043944,   737.896,   737.891,-0.012003,-0.004400,-0.995806,-0.000121,-0.000043,-0.009955,-0.001186, 0.000885, 0.040338,1,-0.000227,-0.000325,-0.000143,1, 0.116567, 0.044044, 9.805859,1,1
1778254043970,   737.916,   737.916,-0.011939,-0.004200,-0.995992,-0.000115,-0.000040,-0.009953,-0.000428, 0.002773, 0.038516,1,-0.000194,-0.000892, 0.000001,1, 0.116685, 0.043958, 9.805858,1,1
1778254043992,   737.941,   737.936,-0.012816,-0.003816,-0.996293,-0.000127,-0.000039,-0.009960,-0.006327, 0.009412, 0.035731,1,-0.000303,-0.000151,-0.000918,1, 0.116706, 0.043890, 9.805858,1,1
1778254044019,   737.966,   737.966,-0.012060,-0.003802,-0.995386,-0.000118,-0.000039,-0.009953,-0.001493, 0.006532, 0.044450,1,-0.000459,-0.000335, 0.000541,1, 0.116783, 0.043802, 9.805857,1,1
1778254044040,   737.986,   737.986,-0.012334,-0.003998,-0.995655,-0.000124,-0.000041,-0.009959,-0.004162, 0.004617, 0.041813,1,-0.000136, 0.000888, 0.000473,1, 0.116763, 0.043822, 9.805857,1,1
1778254044062,   738.011,   738.006,-0.010810,-0.004840,-0.995314,-0.000109,-0.000046,-0.009952,-0.000503, 0.003494, 0.038181,1,-0.000573,-0.000229, 0.000001,1, 0.116853, 0.043808, 9.805856,1,1
1778254044089,   738.036,   738.036,-0.012037,-0.004820,-0.995616,-0.000122,-0.000047,-0.009957,-0.001243,-0.003320, 0.042202,1, 0.000132, 0.000338, 0.000217,1, 0.116794, 0.043955, 9.805856,1,1
1778254044110,   738.061,   738.056,-0.011503,-0.004569,-0.996906,-0.000120,-0.000047,-0.009972,-0.004695,-0.004110, 0.043706,1,-0.000106,-0.000205, 0.000244,1, 0.116864, 0.043943, 9.805855,1,1
1778254044132,   738.081,   738.076,-0.011726,-0.004935,-0.996359,-0.000119,-0.000046,-0.009965, 0.004254,-0.002957, 0.041607,1, 0.000346, 0.000481,-0.000050,1, 0.116830, 0.044039, 9.805855,1,1
1778254044159,   738.106,   738.106,-0.012121,-0.004693,-0.995738,-0.000120,-0.000045,-0.009963,-0.001990,-0.002021, 0.041001,1,-0.000524, 0.000350, 0.000130,1, 0.116861, 0.043989, 9.805855,1,1
1778254044180,   738.131,   738.126,-0.011919,-0.004167,-0.996244,-0.000120,-0.000042,-0.009961, 0.000248, 0.004668, 0.036100,1,-0.000222, 0.000395,-0.000114,1, 0.116780, 0.043898, 9.805857,1,1
1778254044202,   738.151,   738.146,-0.011931,-0.003340,-0.995366,-0.000119,-0.000034,-0.009955,-0.000686, 0.008585, 0.040426,1,-0.000541,-0.000172, 0.000352,1, 0.116793, 0.043791, 9.805857,1,1
1778254044229,   738.176,   738.176,-0.011631,-0.003599,-0.995801,-0.000116,-0.000035,-0.009960, 0.002737, 0.008521, 0.040381,1,-0.000211,-0.000152, 0.000428,1, 0.116806, 0.043804, 9.805857,1,1
1778254044250,   738.201,   738.196,-0.012356,-0.005223,-0.995504,-0.000122,-0.000050,-0.009958, 0.000469, 0.000428, 0.042386,1, 0.000239, 0.000772, 0.000357,1, 0.116780, 0.043833, 9.805857,1,1
1778254044272,   738.221,   738.216,-0.011935,-0.005267,-0.995704,-0.000121,-0.000051,-0.009960,-0.003493,-0.006222, 0.039762,1, 0.000543,-0.000506,-0.000512,1, 0.116843, 0.043974, 9.805856,1,1
1778254044299,   738.246,   738.246,-0.011640,-0.005072,-0.995674,-0.000116,-0.000046,-0.009955, 0.002574,-0.005588, 0.041631,1, 0.000343, 0.000050, 0.000229,1, 0.116723, 0.044166, 9.805856,1,1
1778254044321,   738.271,   738.266,-0.010698,-0.004507,-0.996109,-0.000118,-0.000048,-0.009974, 0.019973,-0.003175, 0.052862,1,-0.001374, 0.000012,-0.000416,1, 0.116775, 0.043991, 9.805856,1,1
1778254044342,   738.291,   738.286,-0.012108,-0.004759,-0.997781,-0.000120,-0.000048,-0.009970,-0.002220,-0.003559, 0.052025,1, 0.000270,-0.000122,-0.000194,1, 0.116934, 0.043943, 9.805855,1,1
1778254044369,   738.316,   738.316,-0.011672,-0.003673,-0.997464,-0.000118,-0.000040,-0.009971, 0.002494, 0.007923, 0.024075,1,-0.000174,-0.000378,-0.000441,1, 0.116972, 0.043937, 9.805854,1,1
1778254044391,   738.341,   738.336,-0.012406,-0.003672,-0.994847,-0.000121,-0.000038,-0.009950,-0.002403, 0.005927, 0.037914,1,-0.000416,-0.000426,-0.000280,1, 0.116976, 0.043996, 9.805854,1,1
1778254044412,   738.361,   738.356,-0.012299,-0.003855,-0.995739,-0.000122,-0.000041,-0.009954,-0.001255, 0.005878, 0.038226,1, 0.000549,-0.000781, 0.000518,1, 0.117064, 0.044015, 9.805853,1,1
1778254044439,   738.386,   738.386,-0.011668,-0.003767,-0.996063,-0.000117,-0.000039,-0.009958, 0.002669, 0.007117, 0.037811,1,-0.000142,-0.000255, 0.000248,1, 0.117099, 0.044049, 9.805852,1,1
1778254044461,   738.411,   738.406,-0.011650,-0.005111,-0.996096,-0.000117,-0.000050,-0.009959,-0.002633,-0.007682, 0.041303,1,-0.000110,-0.000049, 0.000111,1, 0.117101, 0.044039, 9.805852,1,1
1778254044482,   738.431,   738.426,-0.010985,-0.003995,-0.995540,-0.000110,-0.000044,-0.009953, 0.006712,-0.004808, 0.040467,1, 0.000143, 0.000028, 0.000210,1, 0.117094, 0.044019, 9.805852,1,1
1778254044509,   738.456,   738.456,-0.011110,-0.004868,-0.995683,-0.000114,-0.000051,-0.009959, 0.008226,-0.003689, 0.041535,1,-0.000415,-0.000447,-0.000198,1, 0.117188, 0.044035, 9.805851,1,1
1778254044531,   738.481,   738.476,-0.011413,-0.003741,-0.996032,-0.000113,-0.000040,-0.009959, 0.005854, 0.002631, 0.036730,1,-0.000074,-0.000079,-0.000524,1, 0.117213, 0.044005, 9.805851,1,1
1778254044554,   738.501,   738.501,-0.011949,-0.004108,-0.996300,-0.000117,-0.000045,-0.009960,-0.000002, 0.003737, 0.035483,1,-0.000312, 0.000021, 0.000065,1, 0.117171, 0.044013, 9.805851,1,1
1778254044579,   738.526,   738.526,-0.012657,-0.004088,-0.996176,-0.000125,-0.000042,-0.009961,-0.006962, 0.003847, 0.036706,1,-0.000158,-0.000882, 0.000353,1, 0.117192, 0.043927, 9.805851,1,1
1778254044601,   738.551,   738.546,-0.012628,-0.004345,-0.995199,-0.000124,-0.000044,-0.009954,-0.000761, 0.005118, 0.036572,1, 0.000105,-0.000282, 0.000269,1, 0.117210, 0.043893, 9.805851,1,1
1778254044624,   738.571,   738.571,-0.012324,-0.003777,-0.995682,-0.000122,-0.000038,-0.009960,-0.003628, 0.006778, 0.041542,1,-0.000031,-0.000940, 0.000046,1, 0.117256, 0.043814, 9.805851,1,1
1778254044649,   738.596,   738.596,-0.011946,-0.004362,-0.995369,-0.000118,-0.000043,-0.009955, 0.000218, 0.001072, 0.044610,1, 0.000247,-0.000393, 0.000028,1, 0.117377, 0.043855, 9.805849,1,1
1778254044671,   738.621,   738.616,-0.011525,-0.004923,-0.996446,-0.000118,-0.000046,-0.009964, 0.005004, 0.001778, 0.038041,1,-0.000219, 0.000716, 0.000075,1, 0.117353, 0.043845, 9.805850,1,1
1778254044694,   738.641,   738.641,-0.011788,-0.004568,-0.995454,-0.000117,-0.000045,-0.009957, 0.001698,-0.000828, 0.043784,1, 0.000937,-0.000193,-0.000027,1, 0.117301, 0.044001, 9.805850,1,1
1778254044719,   738.666,   738.666,-0.012228,-0.005069,-0.995945,-0.000121,-0.000054,-0.009960,-0.002615,-0.005661, 0.038965,1, 0.000095, 0.000185,-0.000185,1, 0.117294, 0.044050, 9.805850,1,1
1778254044741,   738.691,   738.686,-0.011571,-0.004409,-0.996503,-0.000118,-0.000046,-0.009960,-0.003310, 0.000431, 0.039616,1, 0.000612,-0.000245, 0.000161,1, 0.117390, 0.044112, 9.805848,1,1
1778254044764,   738.711,   738.711,-0.011429,-0.004155,-0.995689,-0.000113,-0.000043,-0.009957, 0.005289, 0.003225, 0.041476,1,-0.000021,-0.000110,-0.000068,1, 0.117372, 0.043970, 9.805849,1,1
1778254044790,   738.736,   738.736,-0.011826,-0.004170,-0.996409,-0.000117,-0.000042,-0.009964, 0.001382, 0.003123, 0.034411,1,-0.000029,-0.000213, 0.000215,1, 0.117362, 0.044017, 9.805849,1,1
1778254044811,   738.761,   738.756,-0.011490,-0.003847,-0.995447,-0.000117,-0.000037,-0.009958, 0.005335, 0.005208, 0.037784,1, 0.000711,-0.000245,-0.000217,1, 0.117286, 0.044017, 9.805850,1,1
1778254044834,   738.781,   738.781,-0.011965,-0.004755,-0.996206,-0.000120,-0.000049,-0.009961,-0.000118,-0.002631, 0.036411,1, 0.000474, 0.000138, 0.000209,1, 0.117220, 0.044018, 9.805851,1,1
1778254044860,   738.806,   738.806,-0.012371,-0.004727,-0.995410,-0.000121,-0.000049,-0.009959,-0.004102,-0.002358, 0.044214,1, 0.000321,-0.000561, 0.000052,1, 0.117238, 0.044010, 9.805850,1,1
1778254044881,   738.831,   738.826,-0.012189,-0.004683,-0.996144,-0.000122,-0.000046,-0.009962,-0.002866,-0.000744, 0.038380,1,-0.000476,-0.000703,-0.000006,1, 0.117277, 0.044000, 9.805850,1,1
1778254044904,   738.856,   738.851,-0.012236,-0.004827,-0.995961,-0.000121,-0.000047,-0.009959,-0.002690,-0.003439, 0.038804,1, 0.000099,-0.000235, 0.000415,1, 0.117312, 0.043901, 9.805850,1,1
1778254044930,   738.876,   738.876,-0.011609,-0.004327,-0.995555,-0.000116,-0.000042,-0.009955, 0.003413, 0.001420, 0.042786,1,-0.000466,-0.000287,-0.000328,1, 0.117266, 0.043842, 9.805851,1,1
1778254044951,   738.901,   738.896,-0.011599,-0.004370,-0.995613,-0.000117,-0.000044,-0.009955,-0.002157, 0.002661, 0.042500,1, 0.000067, 0.000125, 0.000412,1, 0.117240, 0.043853, 9.805851,1,1
1778254044974,   738.926,   738.921,-0.011927,-0.004538,-0.995680,-0.000121,-0.000044,-0.009956, 0.000231,-0.000699, 0.041566,1, 0.000061, 0.000132,-0.000046,1, 0.117191, 0.043807, 9.805852,1,1
1778254045000,   738.946,   738.946,-0.012338,-0.004309,-0.996242,-0.000121,-0.000044,-0.009961,-0.003802, 0.001585, 0.036050,1,-0.000227,-0.000236, 0.000190,1, 0.117204, 0.043836, 9.805852,1,1
1778254045021,   738.971,   738.966,-0.011967,-0.004402,-0.995654,-0.000118,-0.000043,-0.009957, 0.002283,-0.000313, 0.035433,1, 0.000606, 0.000091,-0.000170,1, 0.117182, 0.043863, 9.805852,1,1
1778254045044,   738.996,   738.991,-0.011619,-0.004326,-0.996073,-0.000115,-0.000044,-0.009960, 0.003152, 0.001519, 0.037716,1, 0.000362, 0.000558, 0.000609,1, 0.117081, 0.043952, 9.805853,1,1
1778254045070,   739.016,   739.016,-0.011525,-0.004195,-0.995896,-0.000116,-0.000040,-0.009959, 0.004079, 0.002823, 0.039445,1,-0.000726,-0.000077, 0.000245,1, 0.117105, 0.043938, 9.805852,1,1
1778254045091,   739.041,   739.036,-0.012046,-0.004718,-0.995868,-0.000120,-0.000048,-0.009958,-0.002403, 0.001418, 0.043764,1,-0.000184, 0.000030,-0.000084,1, 0.117149, 0.043894, 9.805852,1,1
1778254045114,   739.066,   739.061,-0.011499,-0.004744,-0.996287,-0.000115,-0.000045,-0.009960, 0.004432,-0.002579, 0.035612,1, 0.000468,-0.000238,-0.000329,1, 0.117203, 0.043959, 9.805851,1,1
1778254045140,   739.086,   739.086,-0.012071,-0.004620,-0.995540,-0.000124,-0.000046,-0.009957,-0.001177,-0.001277, 0.042936,1,-0.000025,-0.000294, 0.000126,1, 0.117204, 0.044026, 9.805851,1,1
1778254045161,   739.111,   739.106,-0.011738,-0.004557,-0.996224,-0.000117,-0.000043,-0.009960, 0.002511, 0.002578, 0.036438,1, 0.000514,-0.000661,-0.000309,1, 0.117265, 0.044034, 9.805850,1,1
1778254045184,   739.136,   739.131,-0.011515,-0.004457,-0.995968,-0.000117,-0.000046,-0.009956, 0.004375, 0.000314, 0.038736,1,-0.000401, 0.000386, 0.000170,1, 0.117287, 0.044014, 9.805850,1,1
1778254045210,   739.156,   739.156,-0.011102,-0.004113,-0.995723,-0.000112,-0.000041,-0.009958, 0.008403, 0.003693, 0.041138,1,-0.000615,-0.000557, 0.000157,1, 0.117298, 0.044005, 9.805850,1,1
1778254045232,   739.181,   739.176,-0.011745,-0.004677,-0.995882,-0.000118,-0.000045,-0.009958, 0.005486,-0.004086, 0.050448,1, 0.000369,-0.000287, 0.000231,1, 0.117237, 0.043969, 9.805851,1,1
1778254045259,   739.206,   739.206,-0.012369,-0.004515,-0.995192,-0.000124,-0.000046,-0.009952,-0.004094,-0.000355, 0.046355,1,-0.000178, 0.000052,-0.000016,1, 0.117199, 0.043916, 9.805851,1,1
1778254045280,   739.226,   739.226,-0.012375,-0.004804,-0.996201,-0.000124,-0.000048,-0.009961,-0.004071,-0.003206, 0.036458,1, 0.000239,-0.000793,-0.000086,1, 0.117311, 0.043911, 9.805850,1,1
1778254045302,   739.251,   739.246,-0.011979,-0.004301,-0.996293,-0.000119,-0.000047,-0.009959,-0.000725, 0.000588, 0.043176,1, 0.000508, 0.000407, 0.000140,1, 0.117339, 0.043938, 9.805849,1,1
1778254045329,   739.276,   739.276,-0.011525,-0.004562,-0.996392,-0.000118,-0.000046,-0.009962, 0.004332,-0.000744, 0.034584,1,-0.000076,-0.000329,-0.000411,1, 0.117366, 0.043993, 9.805849,1,1
1778254045350,   739.301,   739.296,-0.011962,-0.004007,-0.995499,-0.000118,-0.000039,-0.009954, 0.005605, 0.003699, 0.039879,1, 0.000109,-0.000238, 0.000151,1, 0.117394, 0.043982, 9.805849,1,1
1778254045372,   739.321,   739.316,-0.011409,-0.003853,-0.995815,-0.000114,-0.000040,-0.009960, 0.005002, 0.003911, 0.039219,1,-0.000857,-0.000123,-0.000457,1, 0.117425, 0.043985, 9.805848,1,1
1778254045399,   739.346,   739.346,-0.011879,-0.003830,-0.995705,-0.000119,-0.000038,-0.009960, 0.000933, 0.006458, 0.041320,1, 0.000052,-0.000268,-0.000244,1, 0.117435, 0.044024, 9.805848,1,1
1778254045420,   739.371,   739.366,-0.011776,-0.004005,-0.996119,-0.000121,-0.000043,-0.009960, 0.000597, 0.000306, 0.032589,1,-0.000182,-0.000278, 0.000689,1, 0.117504, 0.044036, 9.805847,1,1
1778254045442,   739.391,   739.386,-0.012513,-0.004907,-0.995632,-0.000124,-0.000049,-0.009957, 0.007850,-0.000293, 0.041034,1,-0.000086, 0.000343,-0.000135,1, 0.117506, 0.044073, 9.805847,1,1
1778254045469,   739.416,   739.416,-0.011806,-0.004193,-0.995570,-0.000118,-0.000045,-0.009959, 0.001727,-0.000261, 0.034313,1,-0.000335, 0.000902,-0.000344,1, 0.117450, 0.044049, 9.805848,1,1
1778254045490,   739.441,   739.436,-0.011890,-0.004714,-0.995673,-0.000119,-0.000046,-0.009957, 0.000718, 0.001641, 0.045955,1, 0.000154,-0.000314,-0.000176,1, 0.117537, 0.044052, 9.805846,1,1
1778254045512,   739.461,   739.456,-0.012125,-0.004318,-0.995881,-0.000121,-0.000044,-0.009959, 0.002656,-0.000881, 0.044455,1, 0.000068, 0.000287,-0.000270,1, 0.117501, 0.043972, 9.805847,1,1
1778254045539,   739.486,   739.486,-0.011421,-0.004165,-0.996821,-0.000116,-0.000042,-0.009966, 0.005484, 0.003223, 0.030369,1, 0.000065, 0.000119,-0.000624,1, 0.117481, 0.044070, 9.805847,1,1
1778254045560,   739.511,   739.506,-0.012236,-0.004428,-0.995016,-0.000122,-0.000045,-0.009951, 0.000682, 0.000938, 0.042685,1, 0.000503,-0.000186, 0.000354,1, 0.117519, 0.044065, 9.805847,1,1
1778254045582,   739.531,   739.526,-0.012668,-0.004447,-0.995978,-0.000127,-0.000044,-0.009962,-0.000597, 0.001724, 0.038499,1, 0.000520, 0.000013, 0.000023,1, 0.117483, 0.044122, 9.805847,1,1
1778254045609,   739.556,   739.556,-0.012318,-0.004292,-0.996102,-0.000124,-0.000045,-0.009961,-0.003255, 0.001974, 0.037418,1,-0.000638, 0.000494, 0.000091,1, 0.117530, 0.044045, 9.805847,1,1
1778254045630,   739.581,   739.576,-0.012229,-0.004239,-0.995959,-0.000123,-0.000043,-0.009961, 0.001235,-0.000016, 0.034310,1, 0.000387, 0.000007, 0.000215,1, 0.117491, 0.044095, 9.805847,1,1
1778254045652,   739.601,   739.596,-0.011660,-0.004450,-0.995817,-0.000118,-0.000044,-0.009958,-0.000635,-0.003945, 0.044580,1,-0.000106, 0.000278, 0.000164,1, 0.117605, 0.044171, 9.805845,1,1
1778254045679,   739.626,   739.626,-0.011836,-0.004745,-0.995465,-0.000119,-0.000046,-0.009955, 0.001509,-0.002381, 0.043673,1,-0.000653, 0.000094, 0.000458,1, 0.117575, 0.044134, 9.805846,1,1
1778254045701,   739.651,   739.646,-0.011974,-0.004628,-0.996000,-0.000119,-0.000044,-0.009958, 0.002650,-0.002147, 0.040663,1,-0.000772,-0.000112,-0.000561,1, 0.117583, 0.044110, 9.805846,1,1
1778254045722,   739.671,   739.666,-0.011307,-0.004393,-0.995498,-0.000112,-0.000046,-0.009954, 0.005206, 0.000285, 0.042699,1, 0.000232,-0.000043,-0.000220,1, 0.117638, 0.044088, 9.805845,1,1
1778254045749,   739.696,   739.696,-0.011008,-0.004079,-0.995949,-0.000113,-0.000041,-0.009957, 0.009713, 0.003996, 0.038920,1,-0.000082,-0.000249, 0.000160,1, 0.117673, 0.043995, 9.805845,1,1
1778254045771,   739.721,   739.716,-0.011218,-0.004056,-0.995536,-0.000113,-0.000040,-0.009953, 0.006746, 0.001252, 0.036803,1,-0.000131, 0.000342, 0.000075,1, 0.117650, 0.044012, 9.805845,1,1
1778254045793,   739.741,   739.741,-0.011935,-0.004518,-0.995406,-0.000121,-0.000044,-0.009955, 0.000723,-0.000233, 0.044244,1, 0.000569,-0.000264, 0.000108,1, 0.117770, 0.044095, 9.805843,1,1
1778254045819,   739.766,   739.766,-0.012315,-0.005381,-0.995904,-0.000123,-0.000050,-0.009961,-0.002950,-0.008608, 0.039359,1, 0.000309,-0.000375,-0.000473,1, 0.117833, 0.044175, 9.805842,1,1
1778254045841,   739.791,   739.786,-0.012622,-0.004550,-0.995911,-0.000127,-0.000044,-0.009960,-0.002339,-0.001642, 0.042588,1, 0.000343,-0.000142,-0.000250,1, 0.117909, 0.044228, 9.805841,1,1
1778254045864,   739.811,   739.811,-0.011849,-0.004855,-0.995896,-0.000120,-0.000048,-0.009958, 0.001535,-0.003417, 0.039439,1,-0.000460, 0.000404, 0.000109,1, 0.117719, 0.044178, 9.805844,1,1
1778254045889,   739.836,   739.836,-0.011888,-0.004221,-0.995728,-0.000119,-0.000042,-0.009958, 0.001146, 0.002666, 0.041087,1,-0.000157,-0.000280, 0.000645,1, 0.117732, 0.044054, 9.805844,1,0
1778254045911,   739.861,   739.856,-0.011062,-0.003837,-0.996153,-0.000111,-0.000040,-0.009957, 0.003990, 0.002983, 0.040938,1,-0.000888,-0.000251,-0.000073,1, 0.117763, 0.043998, 9.805844,1,0
1778254045934,   739.881,   739.881,-0.011125,-0.003994,-0.995633,-0.000111,-0.000040,-0.009957, 0.008701, 0.004906, 0.042016,1, 0.000037, 0.000004, 0.000407,1, 0.117798, 0.044077, 9.805843,1,0
1778254045959,   739.906,   739.906,-0.011751,-0.004358,-0.995308,-0.000116,-0.000042,-0.009954, 0.002470, 0.001302, 0.045206,1,-0.000113,-0.000026,-0.000132,1, 0.117712, 0.044031, 9.805844,1,0
1778254045981,   739.931,   739.926,-0.011861,-0.004576,-0.995806,-0.000122,-0.000050,-0.009957, 0.000196,-0.002820, 0.043027,1,-0.000226,-0.000420, 0.000094,1, 0.117766, 0.043984, 9.805844,1,0
1778254046004,   739.951,   739.951,-0.012489,-0.004496,-0.995620,-0.000125,-0.000044,-0.009957,-0.004735,-0.000330, 0.042152,1, 0.000255,-0.000356, 0.000009,1, 0.117750, 0.043773, 9.805845,1,0
1778254046029,   739.976,   739.976,-0.011562,-0.004422,-0.995921,-0.000118,-0.000047,-0.009957, 0.004420, 0.000392, 0.039199,1, 0.000096,-0.000193,-0.000422,1, 0.117815, 0.043759, 9.805844,1,0
1778254046051,   740.001,   739.996,-0.010808,-0.003874,-0.995907,-0.000105,-0.000038,-0.009960, 0.010465, 0.008070, 0.041554,1,-0.000297,-0.000091, 0.000097,1, 0.117905, 0.043767, 9.805843,1,0
1778254046074,   740.021,   740.021,-0.010115,-0.003889,-0.995620,-0.000103,-0.000039,-0.009956, 0.018782, 0.005765, 0.042149,1,-0.000108, 0.000685, 0.000202,1, 0.117958, 0.043900, 9.805842,1,0
1778254046099,   740.046,   740.046,-0.011552,-0.003980,-0.996235,-0.000116,-0.000042,-0.009961, 0.004691, 0.004824, 0.036115,1, 0.000020, 0.000553, 0.000262,1, 0.117957, 0.043855, 9.805842,1,0
1778254046121,   740.071,   740.066,-0.012279,-0.004887,-0.995309,-0.000121,-0.000048,-0.009956, 0.004102,-0.002756, 0.040516,1,-0.000096, 0.000695, 0.000271,1, 0.117975, 0.043900, 9.805842,1,0
1778254046144,   740.096,   740.091,-0.012679,-0.004757,-0.995935,-0.000125,-0.000048,-0.009959,-0.006481,-0.002755, 0.039057,1, 0.000666, 0.000321, 0.000298,1, 0.117808, 0.043904, 9.805844,1,0
1778254046170,   740.116,   740.116,-0.012590,-0.004999,-0.995670,-0.000126,-0.000050,-0.009956,-0.005594,-0.005092, 0.041651,1,-0.000137,-0.000089,-0.000105,1, 0.117875, 0.043930, 9.805843,1,0
1778254046191,   740.141,   740.136,-0.012495,-0.004505,-0.996184,-0.000125,-0.000048,-0.009963,-0.005583, 0.001858, 0.036243,1,-0.000044, 0.000526,-0.000456,1, 0.117852, 0.043977, 9.805843,1,0
1778254046214,   740.166,   740.161,-0.012167,-0.004328,-0.995715,-0.000120,-0.000042,-0.009957,-0.001410, 0.001406, 0.041217,1, 0.000040,-0.000411, 0.000346,1, 0.117916, 0.043855, 9.805843,1,0
1778254046240,   740.186,   740.186,-0.011554,-0.004030,-0.995631,-0.000114,-0.000042,-0.009957, 0.004596, 0.004279, 0.042042,1,-0.000704, 0.000208, 0.000158,1, 0.117891, 0.043777, 9.805843,1,0
1778254046261,   740.211,   740.206,-0.011150,-0.004056,-0.996244,-0.000112,-0.000041,-0.009960, 0.006299, 0.000576, 0.042776,1, 0.000007, 0.000102,-0.000301,1, 0.117787, 0.043738, 9.805845,1,0
1778254046284,   740.236,   740.231,-0.011291,-0.004349,-0.995984,-0.000114,-0.000043,-0.009954, 0.007062, 0.001157, 0.038582,1,-0.000223, 0.000329,-0.000292,1, 0.117782, 0.043797, 9.805845,1,0
1778254046310,   740.256,   740.256,-0.012358,-0.005257,-0.995690,-0.000121,-0.000050,-0.009952,-0.003344,-0.007820, 0.041460,1,-0.000187, 0.000496,-0.000377,1, 0.117834, 0.043730, 9.805844,1,0
1778254046331,   740.281,   740.276,-0.012248,-0.004585,-0.995955,-0.000122,-0.000046,-0.009964, 0.000041,-0.001669, 0.043247,1,-0.000445, 0.000044,-0.000273,1, 0.117790, 0.043649, 9.805845,1,0
1778254046354,   740.306,   740.301,-0.010653,-0.005012,-0.998276,-0.000113,-0.000051,-0.009974, 0.013313,-0.005531, 0.016102,1,-0.000780, 0.000148, 0.000060,1, 0.117783, 0.043597, 9.805846,1,0
1778254046380,   740.326,   740.326,-0.011512,-0.003407,-0.998245,-0.000119,-0.000038,-0.009959, 0.004961, 0.010196, 0.016408,1,-0.000705, 0.000550,-0.000574,1, 0.117836, 0.043584, 9.805845,1,0
1778254046401,   740.351,   740.346,-0.011341,-0.004887,-0.996618,-0.000118,-0.000041,-0.009954, 0.001700, 0.008706, 0.028399,1,-0.000446, 0.000195,-0.000275,1, 0.117763, 0.043630, 9.805846,1,0
1778254046424,   740.376,   740.371,-0.011078,-0.004718,-0.995551,-0.000114,-0.000042,-0.009952, 0.009122,-0.002650, 0.042824,1, 0.000447,-0.000568, 0.000224,1, 0.117776, 0.043635, 9.805845,1,0
1778254046450,   740.396,   740.396,-0.011165,-0.004624,-0.994982,-0.000116,-0.000040,-0.009947, 0.008342,-0.001656, 0.048408,1, 0.000726,-0.000044, 0.000197,1, 0.117830, 0.043713, 9.805844,1,0
1778254046472,   740.421,   740.416,-0.011494,-0.004985,-0.996026,-0.000114,-0.000051,-0.009962, 0.002392, 0.001916, 0.045213,1, 0.000221,-0.000116,-0.000056,1, 0.117830, 0.043677, 9.805845,1,0
1778254046498,   740.446,   740.446,-0.011835,-0.004892,-0.995314,-0.000119,-0.000052,-0.009950, 0.001731,-0.004297, 0.045151,1,-0.000165, 0.000275, 0.000253,1, 0.117787, 0.043669, 9.805845,1,0
1778254046520,   740.466,   740.466,-0.012712,-0.004971,-0.996113,-0.000125,-0.000053,-0.009960,-0.006916,-0.005128, 0.037316,1,-0.000911, 0.000949,-0.000317,1, 0.117713, 0.043588, 9.805846,1,0
1778254046542,   740.491,   740.486,-0.012043,-0.004494,-0.996218,-0.000121,-0.000040,-0.009964,-0.002162,-0.000649, 0.042959,1,-0.000303, 0.000102, 0.000379,1, 0.117701, 0.043533, 9.805847,1,0
1778254046569,   740.516,   740.516,-0.012341,-0.003743,-0.995919,-0.000121,-0.000040,-0.009963,-0.003289, 0.006841, 0.039217,1, 0.000603,-0.000189,-0.000219,1, 0.117740, 0.043570, 9.805846,1,0
1778254046590,   740.541,   740.536,-0.011804,-0.003855,-0.995946,-0.000118,-0.000037,-0.009955, 0.005762, 0.003047, 0.036847,1, 0.001003, 0.000159,-0.000199,1, 0.117697, 0.043626, 9.805846,1,0
1778254046612,   740.561,   740.556,-0.011135,-0.004082,-0.995440,-0.000115,-0.000039,-0.009957, 0.003482, 0.010490, 0.032454,1, 0.000512, 0.000248,-0.000010,1, 0.117602, 0.043704, 9.805847,1,0
1778254046639,   740.586,   740.586,-0.011403,-0.004191,-0.996000,-0.000113,-0.000042,-0.009960, 0.005807, 0.002657, 0.038419,1, 0.000810, 0.000096,-0.000592,1, 0.117633, 0.043784, 9.805847,1,0
1778254046660,   740.611,   740.606,-0.012354,-0.004957,-0.995624,-0.000123,-0.000050,-0.009955,-0.001521, 0.002193, 0.042916,1, 0.000429, 0.000429,-0.000199,1, 0.117615, 0.043779, 9.805847,1,0
1778254046682,   740.631,   740.626,-0.011711,-0.004885,-0.995204,-0.000118,-0.000050,-0.009953,-0.004629,-0.002254, 0.044930,1, 0.000291,-0.000074, 0.000236,1, 0.117544, 0.043875, 9.805847,1,0
1778254046709,   740.656,   740.656,-0.012278,-0.004848,-0.995544,-0.000122,-0.000049,-0.009957,-0.002891,-0.003684, 0.042895,1, 0.000039, 0.000444,-0.000435,1, 0.117502, 0.043863, 9.805848,1,0
1778254046730,   740.681,   740.676,-0.011904,-0.004343,-0.995368,-0.000118,-0.000043,-0.009957, 0.001223,-0.002342, 0.038505,1,-0.000261, 0.000788,-0.000275,1, 0.117530, 0.043811, 9.805848,1,0
1778254046752,   740.701,   740.696,-0.012026,-0.004666,-0.996116,-0.000119,-0.000045,-0.009961, 0.005337,-0.000954, 0.039342,1,-0.000260, 0.000367,-0.000381,1, 0.117436, 0.043828, 9.805849,1,0
1778254046779,   740.726,   740.726,-0.011223,-0.003729,-0.996826,-0.000113,-0.000038,-0.009967, 0.007302, 0.007242, 0.030326,1,-0.000536,-0.000059, 0.000297,1, 0.117361, 0.043794, 9.805850,1,0
1778254046800,   740.751,   740.746,-0.011567,-0.004091,-0.995098,-0.000115,-0.000039,-0.009953, 0.006871, 0.003871, 0.035710,1, 0.000021, 0.000095, 0.000018,1, 0.117367, 0.043833, 9.805850,1,0
1778254046822,   740.771,   740.766,-0.011760,-0.004374,-0.995710,-0.000116,-0.000042,-0.009961, 0.003425, 0.000090, 0.030281,1, 0.000164, 0.000031,-0.000282,1, 0.117378, 0.043880, 9.805849,1,0
1778254046849,   740.796,   740.796,-0.011953,-0.004937,-0.995457,-0.000119,-0.000049,-0.009958, 0.000240,-0.004465, 0.043750,1, 0.000706,-0.000966,-0.000121,1, 0.117486, 0.043975, 9.805847,1,0
1778254046870,   740.821,   740.816,-0.012472,-0.004694,-0.995901,-0.000125,-0.000047,-0.009961,-0.002509, 0.000686, 0.035546,1,-0.000660, 0.000223, 0.000065,1, 0.117514, 0.043919, 9.805847,1,0
1778254046892,   740.841,   740.836,-0.011930,-0.005336,-0.995567,-0.000119,-0.000051,-0.009958,-0.000363,-0.008342, 0.035686,1, 0.000187, 0.000590,-0.000254,1, 0.117506, 0.043971, 9.805847,1,0
1778254046919,   740.866,   740.866,-0.012411,-0.004601,-0.995230,-0.000119,-0.000037,-0.009960,-0.004237,-0.001122, 0.045977,1, 0.000208,-0.000861,-0.000008,1, 0.117503, 0.044003, 9.805847,1,0
1778254046941,   740.891,   740.886,-0.012086,-0.004567,-0.995404,-0.000125,-0.000045,-0.009946, 0.007281,-0.003558, 0.021942,1,-0.000738,-0.000883,-0.000408,1, 0.117450, 0.043853, 9.805848,1,0
1778254046962,   740.911,   740.906,-0.011743,-0.004756,-0.996538,-0.000116,-0.000045,-0.009959,-0.004090, 0.000358, 0.043602,1, 0.000628,-0.000153, 0.000353,1, 0.117523, 0.043980, 9.805847,1,0
1778254046990,   740.936,   740.936,-0.012727,-0.004691,-0.996076,-0.000116,-0.000049,-0.009961,-0.007414,-0.002083, 0.037675,1, 0.000661, 0.000578, 0.000527,1, 0.117376, 0.043942, 9.805849,1,0
1778254047011,   740.961,   740.956,-0.010812,-0.004265,-0.997129,-0.000110,-0.000043,-0.009964,-0.001382, 0.000519, 0.073622,1,-0.000345, 0.000884,-0.000497,1, 0.117329, 0.043922, 9.805850,1,0
1778254047033,   740.981,   740.981,-0.011572,-0.004459,-0.995817,-0.000120,-0.000048,-0.009954, 0.003917, 0.000131, 0.040215,1,-0.000472, 0.000750,-0.000138,1, 0.117379, 0.043848, 9.805849,1,0
1778254047059,   741.006,   741.006,-0.011139,-0.003865,-0.996724,-0.000114,-0.000043,-0.009961, 0.008167, 0.005992, 0.031322,1,-0.000840,-0.000312, 0.000090,1, 0.117417, 0.043871, 9.805849,1,0
1778254047081,   741.031,   741.026,-0.011528,-0.004424,-0.996119,-0.000115,-0.000044,-0.009957, 0.003895, 0.002988, 0.040879,1, 0.000385,-0.000572, 0.000097,1, 0.117542, 0.043924, 9.805847,1,0
1778254047103,   741.051,   741.051,-0.012460,-0.004877,-0.994958,-0.000125,-0.000046,-0.009955,-0.004725,-0.003760, 0.048645,1, 0.000408,-0.000282, 0.000434,1, 0.117478, 0.044075, 9.805847,1,0
1778254047129,   741.076,   741.076,-0.013389,-0.003819,-0.994015,-0.000129,-0.000039,-0.009943,-0.013864, 0.006586, 0.057895,1,-0.000119, 0.000105,-0.000297,1, 0.117438, 0.044031, 9.805848,1,0
1778254047151,   741.101,   741.096,-0.012570,-0.004085,-0.995916,-0.000125,-0.000041,-0.009955,-0.007188, 0.001882, 0.041042,1, 0.000389,-0.000343,-0.000364,1, 0.117362, 0.044008, 9.805849,1,0
1778254047173,   741.121,   741.121,-0.011631,-0.004172,-0.995447,-0.000115,-0.000041,-0.009948, 0.003274, 0.003008, 0.043845,1, 0.000328, 0.000971,-0.000064,1, 0.117309, 0.043933, 9.805850,1,0
1778254047199,   741.146,   741.146,-0.011525,-0.005425,-0.996125,-0.000118,-0.000054,-0.009959, 0.004295,-0.009271, 0.037202,1,-0.000457,-0.000589,-0.000282,1, 0.117337, 0.043920, 9.805850,1,0
1778254047221,   741.171,   741.166,-0.007899,-0.004481,-0.996982,-0.000088,-0.000051,-0.009933,-0.000266, 0.011196, 0.034655,1, 0.000348,-0.003523, 0.000712,1, 0.117646, 0.043867, 9.805846,1,0
1778254047244,   741.191,   741.191,-0.011831,-0.004997,-0.995434,-0.000132,-0.000048,-0.009954, 0.001283,-0.005144, 0.043975,1,-0.000000, 0.001204,-0.000365,1, 0.117266, 0.043856, 9.805851,1,0
1778254047269,   741.216,   741.216,-0.011844,-0.004550,-0.993768,-0.000119,-0.000045,-0.009936, 0.001213,-0.000759, 0.060310,1, 0.000101,-0.000168,-0.000373,1, 0.117364, 0.043864, 9.805850,1,0
1778254047291,   741.241,   741.236,-0.013643,-0.004274,-0.996479,-0.000137,-0.000042,-0.009967,-0.009742,-0.002263, 0.036372,1,-0.000990,-0.000516, 0.000073,1, 0.117448, 0.043649, 9.805849,1,0
1778254047314,   741.261,   741.261,-0.012152,-0.003860,-0.995371,-0.000123,-0.000040,-0.009956,-0.001771, 0.005833, 0.044593,1, 0.000804, 0.000037, 0.000230,1, 0.117403, 0.043708, 9.805850,1,0
1778254047339,   741.286,   741.286,-0.012105,-0.003931,-0.996206,-0.000123,-0.000038,-0.009961,-0.001283, 0.005161, 0.036404,1, 0.000093, 0.000706, 0.000356,1, 0.117409, 0.043714, 9.805850,1,0
1778254047361,   741.311,   741.306,-0.011096,-0.004724,-0.994833,-0.000111,-0.000048,-0.009952, 0.000878,-0.001178, 0.027781,1, 0.000671,-0.000144,-0.000202,1, 0.117396, 0.043763, 9.805850,1,0
1778254047384,   741.336,   741.331,-0.010240,-0.004649,-0.996552,-0.000103,-0.000047,-0.009963, 0.010585, 0.000391, 0.048146,1,-0.000306, 0.000187, 0.000534,1, 0.117515, 0.043864, 9.805848,1,0
1778254047409,   741.356,   741.356,-0.011523,-0.005078,-0.996450,-0.000115,-0.000053,-0.009968, 0.004436,-0.005925, 0.034012,1,-0.000055,-0.000729,-0.000015,1, 0.117465, 0.043874, 9.805848,1,0
1778254047431,   741.381,   741.376,-0.011521,-0.004116,-0.995271,-0.000111,-0.000041,-0.009951, 0.009927, 0.006973, 0.048056,1,-0.000299, 0.000208,-0.000222,1, 0.117450, 0.043726, 9.805849,1,0
