Time,GPS_ts,fGPS_ts,scaledAccelX,scaledAccelY,scaledAccelZ,deltaVelX,deltaVelY,deltaVelZ,estLinearAccelX,estLinearAccelY,estLinearAccelZ,estLinearAccel:valid,estAngularRateX,estAngularRateY,estAngularRateZ,estAngularRate:valid,estGravityX,estGravityY,estGravityZ,estGravity:valid,flag
1778253818520,   487.959,   487.959,-0.012460,-0.001410,-0.996275,-0.000123,-0.000016,-0.009963,-0.005121,-0.000375, 0.035819,1, 0.000287,-0.000048,-0.000434,1, 0.117073, 0.013466, 9.805942,1,0
1778253818520,   487.984,   487.979,-0.012023,-0.001173,-0.995380,-0.000118,-0.000012,-0.009958,-0.001268,-0.006373, 0.042712,1, 0.000440,-0.000487,-0.000224,1, 0.117149, 0.013581, 9.805941,1,0
1778253818520,   488.004,   488.004,-0.012338,-0.001128,-0.996772,-0.000120,-0.000013,-0.009967,-0.003914, 0.002549, 0.030946,1,-0.000038, 0.000455, 0.000311,1, 0.117062, 0.013608, 9.805942,1,0
1778253818520,   488.029,   488.029,-0.012310,-0.001654,-0.996225,-0.000123,-0.000016,-0.009964,-0.003673,-0.002596, 0.036311,1,-0.000289,-0.000318,-0.000275,1, 0.117055, 0.013616, 9.805942,1,0
1778253818520,   488.054,   488.049,-0.011796,-0.001704,-0.996024,-0.000119,-0.000019,-0.009960,-0.004748,-0.000273, 0.041814,1,-0.000035,-0.000479,-0.000072,1, 0.117030, 0.013607, 9.805943,1,0
1778253818520,   488.079,   488.079,-0.012132,-0.001818,-0.995987,-0.000120,-0.000019,-0.009959,-0.001976,-0.004256, 0.038646,1, 0.001016, 0.000331, 0.000095,1, 0.116990, 0.013604, 9.805943,1,0
1778253818520,   488.104,   488.094,-0.012038,-0.002033,-0.995747,-0.000119,-0.000016,-0.009960,-0.005539, 0.001474, 0.043109,1,-0.000354,-0.000449, 0.000209,1, 0.116992, 0.013634, 9.805943,1,0
1778253818520,   488.129,   488.124,-0.012290,-0.001385,-0.995501,-0.000124,-0.000017,-0.009951,-0.000961,-0.001401, 0.037884,1, 0.000174, 0.000055,-0.000158,1, 0.117178, 0.013692, 9.805941,1,0
1778253818520,   488.154,   488.149,-0.012140,-0.001866,-0.995442,-0.000122,-0.000018,-0.009955, 0.001551, 0.000707, 0.037190,1, 0.000691,-0.000123,-0.000336,1, 0.117158, 0.013759, 9.805941,1,0
1778253818520,   488.174,   488.169,-0.012066,-0.001884,-0.996273,-0.000123,-0.000018,-0.009960,-0.003816,-0.001808, 0.041133,1, 0.000314,-0.000468, 0.000324,1, 0.117148, 0.013831, 9.805941,1,0
1778253818521,   488.194,   488.189,-0.012199,-0.001527,-0.995419,-0.000121,-0.000013,-0.009953,-0.002902,-0.002322, 0.040891,1, 0.000226,-0.000307, 0.000300,1, 0.117181, 0.013828, 9.805940,1,0
1778253818531,   512.439,   512.434,-0.009395, 0.007020,-1.028629,-0.000032,-0.000067,-0.010365, 0.032369, 0.104145,-0.281607,1,-0.006146,-0.004220, 0.002888,1, 0.124637, 0.035113, 9.805795,1,0
1778253818557,   512.459,   512.459,-0.012072,-0.004062,-1.018909,-0.000119,-0.000019,-0.010155, 0.006481,-0.004324,-0.186291,1, 0.001597,-0.001431, 0.000889,1, 0.124913, 0.035560, 9.805790,1,0
1778253818579,   512.484,   512.479,-0.013756,-0.013683,-0.984554,-0.000137,-0.000138,-0.009832,-0.010730,-0.057502,-0.075111,1, 0.002536,-0.002004, 0.000654,1, 0.125135, 0.035645, 9.805787,1,0
1778253818606,   512.509,   512.509,-0.012889,-0.008069,-0.988457,-0.000126,-0.000102,-0.009858,-0.001439,-0.043520, 0.112339,1,-0.001626, 0.001446,-0.002268,1, 0.124909, 0.035559, 9.805790,1,0
1778253818627,   512.529,   512.529,-0.011489,-0.002403,-0.991157,-0.000108,-0.000046,-0.009902, 0.012292, 0.012075, 0.085857,1,-0.003629,-0.000787,-0.002313,1, 0.125058, 0.035626, 9.805788,1,0
1778253818649,   512.554,   512.549,-0.010317, 0.001986,-0.999332,-0.000103, 0.000019,-0.009996, 0.021975, 0.043616, 0.065391,1,-0.000823,-0.000342,-0.001516,1, 0.125002, 0.035416, 9.805789,1,0
1778253818676,   512.579,   512.579,-0.012429,-0.001249,-0.996984,-0.000121,-0.000009,-0.009981, 0.003106, 0.022791, 0.028713,1,-0.000190, 0.000594, 0.000646,1, 0.124976, 0.035036, 9.805791,1,0
1778253818697,   512.604,   512.599,-0.014531,-0.005202,-0.995628,-0.000148,-0.000054,-0.009941,-0.012691,-0.003458, 0.047614,1, 0.000930,-0.000425, 0.000770,1, 0.124959, 0.035026, 9.805791,1,0
1778253818719,   512.624,   512.619,-0.014621,-0.003994,-0.995361,-0.000147,-0.000041,-0.009945,-0.015955,-0.006972, 0.046738,1,-0.000763,-0.000182, 0.000798,1, 0.125006, 0.035039, 9.805791,1,0
1778253818746,   512.649,   512.649,-0.014181,-0.003078,-0.995346,-0.000142,-0.000029,-0.009953,-0.014111, 0.004862, 0.044781,1, 0.000456,-0.000741, 0.000364,1, 0.124975, 0.035063, 9.805791,1,0
1778253818767,   512.674,   512.669,-0.014089,-0.002988,-0.993148,-0.000139,-0.000028,-0.009940,-0.009841,-0.006473, 0.009790,1,-0.000024,-0.001070, 0.000133,1, 0.125057, 0.035117, 9.805790,1,0
1778253818789,   512.694,   512.689,-0.012703,-0.005474,-0.995101,-0.000128,-0.000054,-0.009960,-0.006914,-0.004251, 0.026435,1, 0.000043, 0.000637, 0.000921,1, 0.124963, 0.035099, 9.805791,1,0
1778253818816,   512.719,   512.719,-0.012063,-0.005090,-0.994839,-0.000122,-0.000050,-0.009951, 0.006903,-0.014810, 0.049749,1,-0.000139,-0.001443,-0.000403,1, 0.125246, 0.035100, 9.805787,1,0
1778253818837,   512.744,   512.739,-0.011327,-0.003242,-0.997421,-0.000114,-0.000036,-0.009972, 0.007990,-0.007886, 0.046306,1, 0.000229, 0.000833,-0.000434,1, 0.125199, 0.034796, 9.805789,1,0
1778253818859,   512.764,   512.759,-0.011674,-0.002593,-0.995749,-0.000116,-0.000027,-0.009954, 0.010745, 0.005802, 0.047960,1,-0.000940,-0.000906,-0.000488,1, 0.125342, 0.034736, 9.805787,1,0
1778253818886,   512.789,   512.789,-0.012551,-0.003938,-0.993983,-0.000123,-0.000042,-0.009942, 0.002398,-0.003962, 0.058138,1,-0.000203, 0.000189,-0.000524,1, 0.125479, 0.034650, 9.805786,1,0
1778253818907,   512.814,   512.809,-0.012992,-0.004001,-0.997068,-0.000129,-0.000041,-0.009967,-0.003147,-0.013783, 0.057494,1,-0.000134,-0.000331,-0.000542,1, 0.125581, 0.034707, 9.805784,1,0
1778253818929,   512.834,   512.829,-0.012886,-0.003323,-0.998354,-0.000129,-0.000031,-0.009974,-0.011264,-0.003495, 0.061287,1,-0.000044,-0.000068,-0.000385,1, 0.125579, 0.034678, 9.805784,1,0
1778253818956,   512.859,   512.859,-0.012883,-0.002476,-0.995973,-0.000129,-0.000026,-0.009951,-0.000787, 0.010382, 0.038621,1, 0.000062,-0.000137,-0.000075,1, 0.125556, 0.034664, 9.805785,1,0
1778253818978,   512.884,   512.879,-0.012722,-0.002876,-0.996307,-0.000129,-0.000031,-0.009960,-0.007725, 0.005437, 0.043040,1,-0.000503, 0.000106, 0.000144,1, 0.125608, 0.034585, 9.805784,1,0
1778253818999,   512.904,   512.899,-0.012308,-0.003240,-0.995389,-0.000126,-0.000034,-0.009950,-0.006003,-0.003408, 0.044505,1, 0.000372,-0.000608, 0.000727,1, 0.125591, 0.034634, 9.805784,1,0
1778253819026,   512.929,   512.929,-0.012588,-0.003844,-0.994640,-0.000126,-0.000041,-0.009948, 0.002129,-0.003056, 0.051695,1, 0.000065, 0.000169, 0.000048,1, 0.125555, 0.034660, 9.805785,1,0
1778253819048,   512.954,   512.949,-0.012804,-0.003805,-0.995487,-0.000127,-0.000036,-0.009956,-0.003241,-0.001305, 0.043260,1,-0.000397,-0.000454, 0.000560,1, 0.125629, 0.034670, 9.805784,1,0
1778253819069,   512.974,   512.969,-0.012882,-0.004055,-0.995618,-0.000129,-0.000040,-0.009961,-0.002244,-0.004945, 0.038808,1,-0.000138,-0.000162, 0.000174,1, 0.125675, 0.034681, 9.805783,1,0
1778253819096,   512.999,   512.999,-0.013243,-0.003714,-0.995095,-0.000130,-0.000036,-0.009955,-0.004269,-0.001786, 0.047236,1,-0.000079,-0.000135,-0.000110,1, 0.125605, 0.034637, 9.805784,1,0
1778253819118,   513.024,   513.019,-0.013021,-0.003861,-0.995569,-0.000130,-0.000037,-0.009959,-0.006190,-0.007465, 0.039795,1,-0.000067, 0.000693, 0.000518,1, 0.125611, 0.034605, 9.805784,1,0
1778253819141,   513.044,   513.044,-0.013479,-0.004414,-0.995324,-0.000134,-0.000043,-0.009957,-0.006511,-0.008631, 0.044984,1,-0.000070,-0.000371,-0.000179,1, 0.125683, 0.034657, 9.805783,1,0
1778253819166,   513.069,   513.069,-0.013079,-0.004744,-0.995341,-0.000131,-0.000048,-0.009955,-0.002553,-0.011880, 0.044821,1,-0.000125, 0.000537,-0.000421,1, 0.125690, 0.034639, 9.805783,1,0
1778253819188,   513.094,   513.089,-0.012181,-0.004004,-0.996005,-0.000123,-0.000036,-0.009963, 0.003000, 0.000616, 0.038168,1, 0.000088,-0.000158,-0.000707,1, 0.125720, 0.034644, 9.805783,1,0
1778253819211,   513.114,   513.114,-0.011958,-0.003804,-0.995660,-0.000120,-0.000037,-0.009959, 0.008427,-0.002762, 0.041698,1,-0.000212, 0.000607,-0.000104,1, 0.125672, 0.034531, 9.805784,1,0
1778253819236,   513.139,   513.139,-0.012436,-0.003322,-0.995101,-0.000126,-0.000037,-0.009950, 0.003754, 0.002048, 0.047178,1,-0.000235, 0.000006,-0.000907,1, 0.125707, 0.034625, 9.805783,1,0
1778253819258,   513.164,   513.159,-0.012800,-0.003810,-0.996004,-0.000127,-0.000038,-0.009964, 0.002101, 0.007157, 0.042149,1,-0.000178, 0.000469,-0.000260,1, 0.125696, 0.034579, 9.805783,1,0
1778253819281,   513.184,   513.184,-0.012589,-0.003799,-0.995477,-0.000126,-0.000039,-0.009959, 0.002179,-0.002672, 0.043485,1, 0.000772,-0.000287, 0.000484,1, 0.125640, 0.034611, 9.805784,1,0
1778253819306,   513.209,   513.209,-0.013083,-0.003851,-0.995325,-0.000131,-0.000039,-0.009958,-0.002613,-0.003203, 0.044979,1, 0.000072,-0.001528,-0.000485,1, 0.125735, 0.034567, 9.805783,1,0
1778253819328,   513.234,   513.229,-0.013383,-0.003251,-0.995537,-0.000134,-0.000033,-0.009958,-0.003898, 0.003241, 0.041598,1,-0.000377, 0.000242, 0.000153,1, 0.125740, 0.034571, 9.805783,1,0
1778253819351,   513.254,   513.254,-0.013124,-0.003997,-0.995734,-0.000130,-0.000040,-0.009958,-0.003051,-0.004491, 0.040967,1, 0.000438, 0.000153,-0.000201,1, 0.125646, 0.034722, 9.805783,1,0
1778253819377,   513.279,   513.279,-0.012759,-0.004344,-0.995514,-0.000124,-0.000043,-0.009955, 0.000470,-0.007868, 0.043129,1, 0.000607,-0.000760, 0.000148,1, 0.125620, 0.034747, 9.805784,1,0
1778253819398,   513.304,   513.299,-0.012615,-0.004956,-0.994807,-0.000124,-0.000051,-0.009953, 0.003968,-0.010462, 0.031881,1,-0.000072,-0.000229, 0.000037,1, 0.125626, 0.034795, 9.805783,1,0
1778253819421,   513.324,   513.324,-0.012499,-0.004115,-0.995624,-0.000126,-0.000044,-0.009958, 0.003014,-0.005560, 0.042048,1,-0.000281, 0.000455,-0.000145,1, 0.125577, 0.034818, 9.805784,1,0
1778253819447,   513.349,   513.349,-0.012412,-0.003853,-0.995497,-0.000126,-0.000040,-0.009952, 0.003827,-0.002956, 0.043290,1,-0.000948, 0.000620,-0.000936,1, 0.125525, 0.034795, 9.805785,1,0
1778253819468,   513.374,   513.369,-0.012480,-0.003470,-0.996318,-0.000125,-0.000035,-0.009964, 0.004618,-0.004416, 0.038509,1,-0.000493,-0.000466,-0.001016,1, 0.125534, 0.034655, 9.805785,1,0
1778253819491,   513.399,   513.394,-0.012095,-0.002882,-0.995547,-0.000125,-0.000029,-0.009952, 0.006916, 0.006294, 0.042803,1,-0.000161,-0.000190,-0.000583,1, 0.125534, 0.034547, 9.805785,1,0
1778253819517,   513.419,   513.419,-0.012692,-0.002489,-0.996041,-0.000123,-0.000026,-0.009966,-0.001476, 0.005311, 0.042082,1,-0.000981, 0.000498,-0.000108,1, 0.125495, 0.034448, 9.805786,1,0
1778253819538,   513.444,   513.439,-0.013247,-0.004120,-0.995169,-0.000135,-0.000039,-0.009952,-0.005758,-0.001812, 0.036482,1,-0.000168,-0.000962, 0.000512,1, 0.125563, 0.034536, 9.805785,1,0
1778253819561,   513.469,   513.464,-0.013272,-0.002375,-0.995378,-0.000135,-0.000024,-0.009953,-0.004536, 0.011392, 0.044458,1, 0.000519,-0.000080, 0.000740,1, 0.125621, 0.034695, 9.805784,1,0
1778253819587,   513.489,   513.489,-0.012930,-0.001323,-0.996538,-0.000132,-0.000014,-0.009961,-0.001101, 0.021817, 0.033078,1, 0.000733,-0.000571, 0.000926,1, 0.125717, 0.034812, 9.805782,1,0
1778253819608,   513.514,   513.509,-0.013455,-0.001037,-0.995494,-0.000134,-0.000012,-0.009957,-0.007123, 0.030249, 0.026626,1, 0.001228, 0.000343, 0.001471,1, 0.125592, 0.035019, 9.805783,1,0
1778253819631,   513.539,   513.534,-0.014018,-0.003165,-0.995730,-0.000141,-0.000033,-0.009956,-0.011720, 0.004215, 0.041007,1, 0.001531, 0.000144, 0.001948,1, 0.125748, 0.035294, 9.805780,1,0
1778253819657,   513.559,   513.559,-0.014265,-0.006777,-0.996846,-0.000140,-0.000068,-0.009972,-0.014314,-0.030799, 0.030062,1, 0.002089, 0.000106, 0.002265,1, 0.125579, 0.035722, 9.805780,1,0
1778253819678,   513.584,   513.579,-0.012951,-0.008570,-0.994474,-0.000129,-0.000090,-0.009946,-0.007591,-0.050732, 0.026326,1, 0.000810, 0.000808, 0.000292,1, 0.125502, 0.035837, 9.805781,1,0
1778253819701,   513.609,   513.604,-0.009837,-0.008209,-0.995297,-0.000102,-0.000082,-0.009950, 0.028951,-0.044706, 0.045255,1,-0.001103, 0.000336,-0.001492,1, 0.125407, 0.035760, 9.805783,1,0
1778253819727,   513.629,   513.629,-0.008646,-0.007644,-0.995701,-0.000085,-0.000079,-0.009953, 0.040593,-0.039499, 0.041295,1,-0.002369,-0.000310,-0.002093,1, 0.125389, 0.035390, 9.805784,1,0
1778253819749,   513.654,   513.649,-0.008597,-0.004717,-0.994826,-0.000086,-0.000052,-0.009955, 0.048627,-0.037965, 0.031595,1,-0.002715, 0.000183,-0.004160,1, 0.125398, 0.034915, 9.805786,1,0
1778253819771,   513.679,   513.674,-0.009728,-0.000531,-0.994388,-0.000096,-0.000010,-0.009959, 0.030011, 0.028709, 0.054178,1,-0.004625,-0.000400,-0.004055,1, 0.125421, 0.033774, 9.805790,1,0
1778253819797,   513.699,   513.699,-0.009771, 0.002181,-0.998132,-0.000096, 0.000019,-0.009984, 0.029635, 0.054658, 0.017455,1,-0.002341, 0.000337,-0.002712,1, 0.125441, 0.033194, 9.805792,1,0
1778253819819,   513.724,   513.719,-0.012765, 0.005249,-0.996794,-0.000120, 0.000046,-0.009971, 0.013952, 0.094431, 0.032545,1,-0.000458, 0.000071,-0.000946,1, 0.125412, 0.032877, 9.805793,1,0
1778253819846,   513.749,   513.749,-0.016310,-0.003142,-0.997258,-0.000163,-0.000028,-0.009969,-0.034937, 0.002289, 0.026037,1, 0.001314, 0.000252, 0.002676,1, 0.125003, 0.033140, 9.805798,1,0
1778253819867,   513.769,   513.769,-0.018939,-0.009064,-0.993215,-0.000190,-0.000089,-0.009921,-0.060746,-0.055706, 0.065684,1, 0.000609, 0.001199, 0.001977,1, 0.124948, 0.033201, 9.805798,1,0
1778253819889,   513.794,   513.789,-0.017889,-0.008981,-0.995145,-0.000183,-0.000090,-0.009940,-0.067489,-0.062043, 0.072085,1,-0.000506,-0.000212, 0.000159,1, 0.124924, 0.033260, 9.805798,1,0
1778253819916,   513.819,   513.819,-0.016081,-0.003316,-0.994372,-0.000162,-0.000039,-0.009938,-0.032706, 0.000576, 0.054335,1,-0.000674,-0.000367,-0.001669,1, 0.125008, 0.033076, 9.805798,1,0
1778253819937,   513.844,   513.839,-0.012815, 0.001772,-0.994366,-0.000128, 0.000016,-0.009942,-0.008767, 0.047103, 0.033773,1,-0.000068,-0.000336,-0.001038,1, 0.124951, 0.033106, 9.805798,1,0
1778253819959,   513.864,   513.859,-0.012588,-0.001983,-0.995270,-0.000126,-0.000023,-0.009956, 0.003540, 0.031159, 0.026252,1, 0.000776,-0.000516, 0.000095,1, 0.125014, 0.033102, 9.805798,1,0
1778253819986,   513.889,   513.889,-0.011884,-0.006465,-0.997073,-0.000120,-0.000058,-0.009967, 0.008520,-0.030224, 0.027849,1, 0.001184,-0.000414, 0.000839,1, 0.125074, 0.033214, 9.805796,1,0
1778253820007,   513.914,   513.909,-0.011271,-0.005134,-0.996931,-0.000117,-0.000052,-0.009966, 0.004296,-0.021889, 0.050867,1, 0.001819,-0.000076, 0.001088,1, 0.125202, 0.033379, 9.805794,1,0
1778253820029,   513.929,   513.929,-0.010534,-0.003657,-0.994658,-0.000105,-0.000040,-0.009961, 0.022157,-0.002462, 0.051531,1,-0.000234, 0.000929,-0.000031,1, 0.125602, 0.033382, 9.805789,1,0
1778253820056,   513.959,   513.959,-0.009851, 0.004847,-1.003581,-0.000086,-0.000017,-0.010082, 0.028919, 0.081145,-0.035982,1,-0.002452,-0.000202, 0.002147,1, 0.125533, 0.033537, 9.805789,1,0
1778253820077,   513.984,   513.979,-0.012324,-0.005012,-0.993124,-0.000117,-0.000048,-0.009903, 0.019272, 0.005344,-0.014891,1, 0.001983,-0.000446, 0.001224,1, 0.125597, 0.033893, 9.805787,1,0
1778253820099,   514.004,   513.999,-0.013511,-0.010672,-0.995219,-0.000133,-0.000109,-0.009928,-0.001806,-0.042957, 0.032694,1, 0.001399, 0.000943, 0.001913,1, 0.125607, 0.034112, 9.805786,1,0
1778253820126,   514.029,   514.029,-0.014916,-0.012838,-0.994656,-0.000152,-0.000136,-0.009927,-0.020533,-0.091974, 0.051537,1,-0.002372, 0.000077,-0.001632,1, 0.125737, 0.033847, 9.805785,1,0
1778253820148,   514.054,   514.049,-0.012009,-0.004447,-0.996472,-0.000120,-0.000050,-0.009973, 0.002606,-0.047588, 0.048885,1,-0.002303, 0.000188,-0.004114,1, 0.125726, 0.033396, 9.805787,1,0
1778253820169,   514.074,   514.069,-0.011050,-0.000200,-0.996706,-0.000109, 0.000001,-0.009970, 0.016158, 0.013380, 0.048530,1,-0.003535,-0.000745,-0.004656,1, 0.125837, 0.032808, 9.805788,1,0
1778253820196,   514.099,   514.099,-0.011179, 0.002336,-0.994406,-0.000110, 0.000027,-0.009943, 0.016207, 0.055048, 0.054001,1,-0.002283,-0.000120,-0.002302,1, 0.125837, 0.032072, 9.805790,1,0
1778253820218,   514.119,   514.119,-0.012191, 0.001335,-0.995964,-0.000121, 0.000014,-0.009968, 0.006302, 0.044951, 0.038722,1,-0.001029, 0.000256,-0.000613,1, 0.125851, 0.031831, 9.805791,1,0
1778253820239,   514.144,   514.139,-0.014739, 0.002244,-0.995155,-0.000146, 0.000031,-0.009949,-0.007510, 0.055449, 0.030933,1,-0.000597, 0.000889, 0.000023,1, 0.125489, 0.032004, 9.805795,1,0
1778253820266,   514.169,   514.169,-0.015093,-0.000963,-0.996192,-0.000148,-0.000006,-0.009973,-0.022526, 0.022824, 0.036485,1, 0.001256,-0.001396, 0.002304,1, 0.125534, 0.032307, 9.805793,1,0
1778253820288,   514.194,   514.189,-0.016554,-0.004220,-0.994289,-0.000167,-0.000038,-0.009949,-0.035029,-0.004699, 0.024707,1, 0.002203, 0.001320, 0.002184,1, 0.125452, 0.032599, 9.805794,1,0
1778253820309,   514.214,   514.209,-0.015650,-0.007234,-0.996814,-0.000156,-0.000070,-0.009969,-0.039713,-0.019221, 0.038354,1, 0.000522,-0.000184, 0.002333,1, 0.125314, 0.032768, 9.805795,1,0
1778253820336,   514.239,   514.239,-0.015772,-0.010034,-0.998188,-0.000140,-0.000092,-0.009964,-0.029301,-0.065280, 0.016908,1, 0.000625, 0.000175, 0.001244,1, 0.125359, 0.033134, 9.805793,1,0
1778253820358,   514.264,   514.259,-0.010476,-0.008000,-0.994316,-0.000111,-0.000088,-0.009941, 0.015454,-0.046633, 0.046040,1, 0.000194,-0.000757,-0.000979,1, 0.125331, 0.033186, 9.805793,1,0
1778253820381,   514.284,   514.284,-0.008233,-0.006920,-0.994082,-0.000087,-0.000073,-0.009938, 0.044674,-0.034963, 0.057182,1,-0.001256, 0.001112,-0.002832,1, 0.125378, 0.032858, 9.805794,1,0
1778253820406,   514.309,   514.309,-0.007511,-0.000642,-0.992952,-0.000081,-0.000006,-0.009940, 0.051786, 0.026310, 0.068261,1,-0.001010,-0.000379,-0.003173,1, 0.125450, 0.032572, 9.805794,1,0
1778253820428,   514.334,   514.329,-0.009439,-0.001562,-0.995827,-0.000092,-0.000019,-0.009953, 0.041539, 0.026638, 0.049766,1,-0.003681,-0.001262,-0.001865,1, 0.125503, 0.032355, 9.805794,1,0
1778253820451,   514.354,   514.354,-0.012684,-0.000616,-0.994649,-0.000125,-0.000007,-0.009956, 0.000991, 0.025939, 0.051619,1,-0.000987, 0.001085,-0.000831,1, 0.125349, 0.031951, 9.805797,1,0
1778253820476,   514.379,   514.379,-0.015092,-0.002088,-0.996133,-0.000148,-0.000022,-0.009964,-0.022654, 0.011294, 0.037067,1,-0.001067, 0.000556,-0.000916,1, 0.125329, 0.031737, 9.805798,1,0
1778253820498,   514.404,   514.399,-0.015805,-0.001915,-0.995254,-0.000159,-0.000019,-0.009950,-0.027939, 0.006723, 0.037906,1,-0.000846, 0.000654,-0.000726,1, 0.125309, 0.031549, 9.805799,1,0
1778253820521,   514.424,   514.424,-0.016315,-0.000913,-0.995683,-0.000162,-0.000011,-0.009957,-0.034685, 0.022576, 0.041480,1,-0.000197, 0.000304,-0.000608,1, 0.125305, 0.031520, 9.805799,1,0
1778253820546,   514.449,   514.449,-0.015833,-0.002725,-0.996984,-0.000157,-0.000028,-0.009972,-0.029989, 0.004782, 0.028722,1,-0.000061, 0.000809,-0.000300,1, 0.125259, 0.031498, 9.805799,1,0
1778253820568,   514.474,   514.469,-0.014109,-0.002809,-0.996181,-0.000140,-0.000027,-0.009966,-0.020502,-0.000900, 0.040525,1, 0.000518,-0.000088, 0.000443,1, 0.125200, 0.031631, 9.805799,1,0
1778253820591,   514.494,   514.494,-0.012758,-0.002638,-0.996240,-0.000127,-0.000025,-0.009964, 0.000058, 0.005977, 0.036020,1, 0.002079, 0.000259, 0.000867,1, 0.125167, 0.031916, 9.805799,1,0
1778253820617,   514.519,   514.519,-0.011742, 0.001164,-0.997076,-0.000122, 0.000007,-0.009970, 0.010028, 0.043540, 0.027826,1, 0.000993,-0.000289, 0.001600,1, 0.125185, 0.032160, 9.805799,1,0
1778253820638,   514.544,   514.539,-0.011841,-0.001327,-0.994526,-0.000111,-0.000011,-0.009960, 0.013598, 0.048191, 0.026801,1, 0.001527,-0.000316, 0.003168,1, 0.125429, 0.032273, 9.805795,1,0
1778253820661,   514.564,   514.564,-0.011314,-0.007644,-0.996481,-0.000110,-0.000069,-0.009977, 0.014368,-0.042061, 0.033656,1, 0.002933,-0.000249, 0.003500,1, 0.125328, 0.032993, 9.805794,1,0
1778253820687,   514.589,   514.589,-0.012666,-0.011575,-0.995937,-0.000126,-0.000110,-0.009960, 0.001090,-0.080258, 0.038991,1, 0.001179,-0.000123, 0.001646,1, 0.125306, 0.033292, 9.805793,1,0
1778253820708,   514.614,   514.609,-0.009697,-0.006936,-0.994719,-0.000128,-0.000063,-0.010067, 0.106136,-0.159150, 0.007949,1, 0.007029, 0.004476,-0.002149,1, 0.124805, 0.033827, 9.805798,1,0
1778253820731,   514.639,   514.634,-0.008854,-0.007005,-1.002591,-0.000091,-0.000072,-0.010080, 0.038313,-0.035397,-0.026264,1,-0.001141, 0.000043,-0.002609,1, 0.125143, 0.033260, 9.805795,1,0
1778253820757,   514.659,   514.659,-0.011853,-0.004468,-0.993496,-0.000119,-0.000032,-0.009954, 0.009150,-0.011019, 0.062928,1, 0.000361, 0.001611,-0.003979,1, 0.125335, 0.032812, 9.805794,1,0
1778253820778,   514.684,   514.679,-0.009333,-0.002684,-1.002029,-0.000106,-0.000039,-0.009976, 0.001079,-0.002521, 0.128675,1,-0.000862,-0.001292,-0.002805,1, 0.125228, 0.032479, 9.805797,1,0
1778253820801,   514.709,   514.704,-0.012583, 0.000593,-0.995034,-0.000134, 0.000004,-0.009905, 0.001724, 0.037683, 0.047854,1,-0.002112, 0.001177,-0.001183,1, 0.125084, 0.031800, 9.805800,1,0
1778253820827,   514.729,   514.729,-0.014296, 0.001623,-0.992948,-0.000138, 0.000016,-0.009919,-0.015314, 0.047726, 0.068312,1,-0.002176,-0.000064,-0.000554,1, 0.124773, 0.031857, 9.805804,1,0
1778253820848,   514.754,   514.749,-0.016314,-0.000630,-0.993097,-0.000166,-0.000004,-0.009928,-0.020862, 0.034937, 0.033475,1,-0.000199,-0.000562, 0.000479,1, 0.124760, 0.031845, 9.805804,1,0
1778253820871,   514.779,   514.774,-0.016874,-0.003108,-0.993253,-0.000165,-0.000029,-0.009949,-0.040749, 0.001638, 0.065319,1, 0.001403,-0.000347, 0.000838,1, 0.124743, 0.032156, 9.805804,1,0
1778253820897,   514.799,   514.799,-0.016079,-0.004770,-0.996991,-0.000161,-0.000048,-0.009982,-0.032922,-0.014455, 0.028661,1, 0.001228,-0.001006, 0.001209,1, 0.124791, 0.032363, 9.805802,1,0
1778253820918,   514.824,   514.819,-0.013358,-0.005461,-0.998297,-0.000132,-0.000051,-0.009994,-0.013612, 0.019194, 0.059274,1, 0.001043, 0.000870, 0.001325,1, 0.124820, 0.032460, 9.805802,1,0
1778253820941,   514.849,   514.844,-0.011424,-0.007738,-0.996992,-0.000116,-0.000071,-0.009976, 0.012926,-0.043011, 0.028647,1, 0.002292,-0.000451, 0.000361,1, 0.124970, 0.032948, 9.805799,1,0
1778253820967,   514.869,   514.869,-0.010119,-0.007380,-0.996295,-0.000106,-0.000074,-0.009964, 0.025622,-0.039396, 0.035487,1,-0.000618, 0.000958, 0.000185,1, 0.124824, 0.032955, 9.805800,1,0
1778253820989,   514.894,   514.889,-0.009797,-0.001970,-0.993136,-0.000101,-0.000027,-0.009936, 0.028309,-0.021204, 0.027708,1, 0.000120, 0.000008,-0.001303,1, 0.124871, 0.032993, 9.805799,1,0
1778253821011,   514.919,   514.914,-0.010050,-0.001719,-0.999142,-0.000101,-0.000019,-0.009982, 0.026145, 0.016168, 0.007563,1,-0.000683, 0.000189,-0.000567,1, 0.124697, 0.033003, 9.805801,1,0
1778253821037,   514.939,   514.939,-0.010721, 0.001315,-0.997494,-0.000109, 0.000009,-0.009963, 0.019711, 0.045822, 0.023722,1, 0.000121, 0.000652,-0.000306,1, 0.124828, 0.032927, 9.805800,1,0
1778253821059,   514.964,   514.959,-0.013201,-0.001540,-0.995955,-0.000130,-0.000011,-0.009962, 0.001123, 0.034059, 0.037537,1, 0.000708, 0.001091, 0.001048,1, 0.124767, 0.033081, 9.805800,1,0
1778253821086,   514.989,   514.989,-0.015325,-0.004924,-0.994947,-0.000154,-0.000048,-0.009950,-0.025540,-0.014853, 0.048707,1, 0.001605,-0.000145, 0.002275,1, 0.124747, 0.033488, 9.805799,1,0
1778253821107,   515.009,   515.009,-0.015431,-0.006949,-0.995362,-0.000155,-0.000070,-0.009956,-0.026593,-0.034499, 0.044636,1, 0.000914, 0.000184, 0.000727,1, 0.124723, 0.033674, 9.805799,1,0
1778253821129,   515.034,   515.029,-0.013665,-0.007188,-0.995007,-0.000138,-0.000074,-0.009950,-0.018139,-0.040901, 0.046415,1, 0.000515,-0.000390,-0.000411,1, 0.124814, 0.033773, 9.805798,1,0
1778253821156,   515.059,   515.059,-0.012085,-0.003663,-0.994740,-0.000123,-0.000038,-0.009952, 0.006282,-0.002258, 0.050730,1,-0.001156,-0.000256,-0.001132,1, 0.124802, 0.033626, 9.805799,1,0
1778253821177,   515.084,   515.079,-0.011304,-0.004146,-0.994754,-0.000112,-0.000042,-0.009944, 0.013255,-0.002722, 0.035771,1,-0.000948,-0.000302,-0.001308,1, 0.124817, 0.033455, 9.805799,1,0
1778253821199,   515.104,   515.099,-0.011139,-0.003640,-0.995035,-0.000112,-0.000040,-0.009952, 0.019995,-0.001408, 0.035849,1,-0.000211,-0.001000,-0.000913,1, 0.124916, 0.033282, 9.805798,1,0
1778253821226,   515.129,   515.129,-0.011592,-0.003199,-0.995271,-0.000116,-0.000033,-0.009952, 0.011194, 0.001619, 0.045527,1,-0.000955, 0.000306,-0.001442,1, 0.124864, 0.032989, 9.805799,1,0
1778253821247,   515.154,   515.149,-0.013079,-0.001684,-0.994918,-0.000128,-0.000017,-0.009955, 0.006479, 0.014630, 0.030036,1,-0.001153,-0.000245,-0.000764,1, 0.124883, 0.032762, 9.805800,1,0
1778253821269,   515.174,   515.169,-0.013947,-0.001200,-0.995683,-0.000139,-0.000008,-0.009954,-0.001533, 0.019995, 0.036395,1,-0.000962,-0.001004,-0.000162,1, 0.125063, 0.032554, 9.805799,1,0
1778253821296,   515.199,   515.199,-0.014419,-0.002216,-0.995966,-0.000144,-0.000021,-0.009957,-0.016436, 0.010732, 0.038709,1,-0.001072, 0.000798, 0.000042,1, 0.124937, 0.032427, 9.805800,1,0
1778253821317,   515.224,   515.219,-0.014773,-0.003224,-0.996014,-0.000151,-0.000032,-0.009962,-0.022054, 0.004402, 0.037330,1,-0.000268, 0.000674, 0.000988,1, 0.124942, 0.032422, 9.805800,1,0
1778253821339,   515.244,   515.239,-0.014072,-0.004340,-0.995899,-0.000140,-0.000045,-0.009958,-0.021671,-0.004740, 0.041646,1, 0.000797, 0.000300, 0.000815,1, 0.124843, 0.032545, 9.805801,1,0
1778253821366,   515.269,   515.269,-0.012646,-0.004883,-0.995952,-0.000130,-0.000049,-0.009956, 0.000795,-0.015129, 0.038846,1, 0.000846, 0.000186,-0.000164,1, 0.124804, 0.032786, 9.805801,1,0
1778253821388,   515.294,   515.289,-0.011135,-0.004329,-0.995840,-0.000112,-0.000047,-0.009958, 0.011933,-0.015700, 0.036531,1, 0.000315,-0.000843,-0.000317,1, 0.124891, 0.032896, 9.805799,1,0
1778253821409,   515.314,   515.309,-0.010946,-0.003380,-0.996293,-0.000110,-0.000039,-0.009960, 0.020545,-0.001896, 0.040306,1, 0.000456, 0.000403,-0.000483,1, 0.124834, 0.032953, 9.805800,1,0
1778253821436,   515.339,   515.339,-0.010830,-0.003059,-0.996095,-0.000107,-0.000029,-0.009957, 0.018743, 0.003008, 0.037438,1,-0.000514,-0.000542,-0.000379,1, 0.124967, 0.032994, 9.805799,1,0
1778253821458,   515.364,   515.359,-0.012088,-0.002919,-0.995800,-0.000120,-0.000030,-0.009956, 0.006450, 0.000430, 0.044023,1,-0.000388,-0.000232,-0.000082,1, 0.125039, 0.032827, 9.805798,1,0
1778253821479,   515.384,   515.379,-0.013198,-0.003463,-0.996002,-0.000132,-0.000034,-0.009960,-0.001580,-0.002364, 0.044307,1,-0.000304, 0.000034, 0.000112,1, 0.125057, 0.032761, 9.805798,1,0
1778253821506,   515.409,   515.409,-0.013628,-0.003401,-0.995990,-0.000138,-0.000036,-0.009960,-0.008514,-0.000807, 0.038475,1,-0.001126,-0.001417,-0.000100,1, 0.125177, 0.032515, 9.805798,1,0
1778253821528,   515.434,   515.429,-0.013834,-0.002718,-0.995987,-0.000138,-0.000027,-0.009956,-0.011666, 0.004624, 0.040485,1,-0.000647, 0.000930,-0.000001,1, 0.125104, 0.032429, 9.805799,1,0
1778253821549,   515.454,   515.449,-0.013349,-0.002654,-0.996226,-0.000133,-0.000027,-0.009961,-0.010606,-0.000563, 0.040282,1,-0.000133,-0.000057,-0.000376,1, 0.125127, 0.032387, 9.805799,1,0
1778253821576,   515.479,   515.479,-0.012632,-0.002539,-0.995631,-0.000125,-0.000024,-0.009959, 0.001263, 0.007583, 0.041991,1,-0.000341,-0.000437, 0.000740,1, 0.125157, 0.032475, 9.805798,1,0
1778253821598,   515.504,   515.499,-0.012572,-0.003416,-0.995583,-0.000125,-0.000035,-0.009957, 0.004768,-0.000429, 0.032776,1, 0.000469, 0.000055,-0.000343,1, 0.125135, 0.032515, 9.805798,1,0
1778253821621,   515.524,   515.524,-0.012336,-0.003846,-0.995931,-0.000124,-0.000037,-0.009958, 0.004237,-0.005168, 0.039051,1, 0.000374,-0.000255,-0.000118,1, 0.125223, 0.032549, 9.805797,1,0
1778253821646,   515.549,   515.549,-0.012263,-0.003475,-0.995852,-0.000123,-0.000033,-0.009960, 0.004944,-0.001494, 0.039829,1, 0.000987, 0.000001, 0.000276,1, 0.125207, 0.032611, 9.805797,1,0
1778253821668,   515.574,   515.569,-0.011840,-0.004448,-0.994905,-0.000116,-0.000045,-0.009940, 0.009579,-0.013561, 0.031529,1,-0.000321, 0.000559, 0.000069,1, 0.125174, 0.032697, 9.805797,1,0
1778253821691,   515.594,   515.594,-0.012996,-0.003256,-0.995414,-0.000121,-0.000036,-0.009958,-0.002164, 0.000755, 0.044122,1,-0.000250,-0.000588,-0.000406,1, 0.125297, 0.032681, 9.805795,1,0
1778253821716,   515.619,   515.619,-0.012269,-0.003487,-0.996955,-0.000125,-0.000032,-0.009971, 0.004962,-0.001551, 0.029006,1, 0.000230,-0.000812,-0.000063,1, 0.125309, 0.032648, 9.805795,1,0
1778253821738,   515.644,   515.639,-0.013287,-0.004050,-0.996044,-0.000134,-0.000041,-0.009960,-0.003791,-0.002063, 0.038660,1,-0.000432, 0.000715,-0.000262,1, 0.125219, 0.032564, 9.805797,1,0
1778253821761,   515.664,   515.664,-0.013591,-0.004101,-0.996083,-0.000136,-0.000042,-0.009961,-0.008041,-0.007858, 0.037563,1,-0.001247,-0.000141,-0.001075,1, 0.125243, 0.032320, 9.805797,1,0
1778253821787,   515.689,   515.689,-0.013239,-0.004042,-0.996211,-0.000130,-0.000038,-0.009964,-0.004609,-0.007385, 0.036304,1,-0.000478,-0.000826,-0.000362,1, 0.125249, 0.032237, 9.805798,1,0
1778253821808,   515.714,   515.709,-0.012497,-0.002676,-0.996668,-0.000126,-0.000029,-0.009962,-0.001521,-0.005108, 0.038629,1, 0.000186,-0.000380,-0.000321,1, 0.125288, 0.032135, 9.805797,1,0
1778253821831,   515.734,   515.734,-0.012570,-0.002566,-0.995875,-0.000124,-0.000024,-0.009956, 0.002058, 0.007232, 0.039595,1, 0.000363, 0.000224,-0.000234,1, 0.125322, 0.032407, 9.805796,1,0
1778253821857,   515.759,   515.759,-0.012027,-0.004078,-0.995589,-0.000119,-0.000036,-0.009957, 0.007330,-0.007638, 0.042403,1, 0.000238,-0.000099, 0.000708,1, 0.125282, 0.032365, 9.805797,1,0
1778253821878,   515.784,   515.779,-0.012598,-0.003660,-0.995812,-0.000128,-0.000039,-0.009956, 0.005604,-0.007488, 0.040425,1, 0.000111, 0.000166, 0.000623,1, 0.125200, 0.032286, 9.805798,1,0
1778253821901,   515.804,   515.804,-0.012360,-0.004062,-0.995773,-0.000124,-0.000040,-0.009958, 0.004048,-0.007661, 0.040595,1,-0.000873, 0.000164,-0.000001,1, 0.125250, 0.032145, 9.805798,1,0
1778253821927,   515.829,   515.829,-0.012355,-0.003030,-0.996835,-0.000124,-0.000030,-0.009966, 0.004094, 0.002405, 0.030183,1, 0.000445, 0.000216,-0.000612,1, 0.125248, 0.032131, 9.805798,1,0
1778253821948,   515.854,   515.849,-0.012194,-0.002826,-0.996339,-0.000123,-0.000028,-0.009962, 0.004962, 0.009286, 0.039699,1,-0.000493, 0.000282,-0.000420,1, 0.125166, 0.032121, 9.805799,1,0
1778253821971,   515.879,   515.874,-0.012662,-0.002916,-0.996502,-0.000127,-0.000028,-0.009964, 0.001021, 0.003491, 0.033452,1, 0.000048, 0.000446, 0.000027,1, 0.125180, 0.032094, 9.805799,1,0
1778253821997,   515.899,   515.899,-0.012969,-0.003522,-0.995435,-0.000128,-0.000034,-0.009956,-0.001973,-0.002533, 0.043916,1,-0.000887,-0.000377, 0.000265,1, 0.125218, 0.031975, 9.805799,1,0
1778253822018,   515.924,   515.919,-0.012974,-0.003810,-0.996315,-0.000130,-0.000036,-0.009959,-0.007305,-0.007690, 0.042156,1, 0.000427,-0.000459, 0.000279,1, 0.125296, 0.031980, 9.805798,1,0
1778253822041,   515.949,   515.944,-0.013076,-0.004515,-0.995679,-0.000135,-0.000043,-0.009958,-0.003050,-0.012406, 0.041519,1,-0.000458, 0.000214, 0.000263,1, 0.125180, 0.031853, 9.805799,1,0
1778253822067,   515.969,   515.969,-0.013009,-0.003499,-0.996079,-0.000127,-0.000035,-0.009959,-0.002446,-0.002502, 0.037598,1, 0.000326, 0.000473,-0.000452,1, 0.125112, 0.031821, 9.805800,1,0
1778253822089,   515.994,   515.989,-0.012752,-0.003730,-0.996007,-0.000127,-0.000036,-0.009962,-0.002484,-0.002088, 0.040559,1,-0.000101, 0.000502,-0.000199,1, 0.125045, 0.031818, 9.805801,1,0
1778253822111,   516.019,   516.014,-0.012928,-0.003553,-0.994835,-0.000127,-0.000030,-0.009955,-0.001637,-0.002968, 0.049796,1,-0.000149,-0.000187,-0.001000,1, 0.125147, 0.031872, 9.805799,1,0
1778253822137,   516.039,   516.039,-0.012849,-0.004528,-0.995470,-0.000129,-0.000044,-0.009958,-0.000821,-0.012542, 0.043577,1,-0.000327,-0.000188,-0.000258,1, 0.125195, 0.031857, 9.805799,1,0
1778253822159,   516.064,   516.059,-0.012675,-0.003320,-0.995941,-0.000126,-0.000033,-0.009960,-0.000806,-0.001640, 0.039127,1,-0.000834, 0.000521,-0.000161,1, 0.125203, 0.031784, 9.805799,1,0
1778253822181,   516.089,   516.084,-0.013138,-0.003753,-0.995336,-0.000132,-0.000037,-0.009955,-0.003732,-0.005112, 0.044887,1, 0.000167, 0.000417, 0.000139,1, 0.125090, 0.031699, 9.805801,1,0
1778253822207,   516.109,   516.109,-0.012675,-0.003491,-0.994740,-0.000131,-0.000032,-0.009954, 0.000800,-0.002558, 0.050737,1,-0.000601, 0.000071,-0.000342,1, 0.125101, 0.031661, 9.805801,1,0
1778253822229,   516.134,   516.129,-0.012589,-0.002821,-0.996197,-0.000126,-0.000026,-0.009962,-0.000522, 0.006624, 0.038627,1,-0.000335, 0.000361,-0.000479,1, 0.125087, 0.031677, 9.805801,1,0
1778253822251,   516.159,   516.154,-0.012666,-0.002778,-0.995812,-0.000129,-0.000028,-0.009956, 0.000817, 0.004484, 0.040217,1,-0.000152, 0.000170, 0.000204,1, 0.125028, 0.031726, 9.805801,1,0
1778253822277,   516.179,   516.179,-0.012652,-0.002570,-0.995373,-0.000127,-0.000023,-0.009956, 0.000915, 0.006467, 0.044523,1, 0.000140, 0.000539,-0.000181,1, 0.124969, 0.031678, 9.805802,1,0
1778253822299,   516.204,   516.199,-0.013250,-0.003507,-0.995469,-0.000131,-0.000034,-0.009961,-0.003215,-0.004137, 0.040562,1,-0.000563, 0.000417, 0.000820,1, 0.124938, 0.031724, 9.805802,1,0
1778253822326,   516.229,   516.229,-0.012594,-0.003765,-0.995592,-0.000125,-0.000037,-0.009962, 0.001474,-0.005276, 0.042383,1,-0.000087,-0.000900, 0.000075,1, 0.125006, 0.031638, 9.805802,1,0
1778253822347,   516.249,   516.249,-0.012067,-0.003938,-0.995787,-0.000121,-0.000038,-0.009961, 0.006673,-0.006899, 0.040467,1, 0.000081, 0.000174, 0.000707,1, 0.125000, 0.031719, 9.805802,1,0
1778253822369,   516.274,   516.269,-0.012990,-0.003972,-0.996002,-0.000128,-0.000040,-0.009960,-0.005339,-0.004594, 0.038712,1,-0.000339,-0.000487, 0.000117,1, 0.125074, 0.031730, 9.805801,1,0
1778253822396,   516.299,   516.299,-0.012658,-0.003748,-0.995550,-0.000128,-0.000037,-0.009955, 0.000981,-0.005104, 0.042789,1, 0.000068,-0.000641,-0.000391,1, 0.125133, 0.031651, 9.805800,1,0
1778253822417,   516.324,   516.319,-0.012156,-0.003609,-0.996400,-0.000122,-0.000034,-0.009965,-0.000392,-0.003606, 0.046336,1,-0.000156, 0.000348, 0.000139,1, 0.125125, 0.031661, 9.805800,1,0
1778253822439,   516.344,   516.339,-0.012916,-0.003251,-0.995775,-0.000127,-0.000032,-0.009960,-0.000154,-0.001227, 0.034267,1,-0.000911, 0.000380, 0.000638,1, 0.125155, 0.031607, 9.805800,1,0
1778253822466,   516.369,   516.369,-0.013301,-0.002855,-0.995458,-0.000131,-0.000027,-0.009957,-0.005294, 0.003634, 0.043691,1,-0.000352,-0.000450,-0.000002,1, 0.125159, 0.031621, 9.805800,1,0
1778253822487,   516.394,   516.389,-0.013294,-0.003563,-0.996080,-0.000132,-0.000033,-0.009961,-0.003545, 0.001995, 0.043260,1,-0.000194,-0.000542, 0.000110,1, 0.125220, 0.031557, 9.805799,1,0
1778253822509,   516.414,   516.409,-0.013181,-0.003824,-0.995985,-0.000134,-0.000037,-0.009962,-0.005189,-0.000360, 0.046296,1,-0.001102, 0.000854,-0.000057,1, 0.125243, 0.031445, 9.805799,1,0
1778253822536,   516.439,   516.439,-0.013397,-0.003353,-0.995583,-0.000134,-0.000035,-0.009955,-0.006104,-0.001418, 0.042464,1,-0.000547, 0.000337,-0.000271,1, 0.125268, 0.031451, 9.805799,1,0
1778253822558,   516.464,   516.459,-0.012568,-0.003766,-0.995722,-0.000124,-0.000035,-0.009960, 0.001601,-0.000325, 0.039082,1, 0.000017, 0.000121,-0.000605,1, 0.125136, 0.031452, 9.805801,1,0
1778253822579,   516.484,   516.479,-0.012782,-0.002795,-0.995134,-0.000128,-0.000032,-0.009950,-0.001540,-0.000713, 0.037192,1,-0.000373, 0.000804, 0.000618,1, 0.125155, 0.031347, 9.805801,1,0
1778253822606,   516.509,   516.509,-0.013031,-0.003175,-0.996314,-0.000128,-0.000033,-0.009961,-0.002588, 0.000389, 0.035298,1, 0.000695, 0.000018,-0.000222,1, 0.125201, 0.031551, 9.805800,1,0
1778253822628,   516.534,   516.529,-0.012725,-0.004191,-0.995870,-0.000125,-0.000039,-0.009959, 0.002205,-0.008601, 0.039619,1,-0.000648,-0.000012, 0.000880,1, 0.125286, 0.031517, 9.805799,1,0
1778253822649,   516.554,   516.549,-0.013035,-0.004206,-0.995222,-0.000130,-0.000040,-0.009954, 0.003948,-0.003947, 0.033781,1, 0.000467, 0.000432,-0.000156,1, 0.125298, 0.031574, 9.805799,1,0
1778253822676,   516.579,   516.579,-0.012966,-0.004136,-0.995439,-0.000129,-0.000042,-0.009952,-0.001779,-0.008940, 0.043876,1,-0.000328, 0.000320,-0.000006,1, 0.125360, 0.031605, 9.805798,1,0
1778253822698,   516.604,   516.599,-0.012192,-0.003824,-0.996000,-0.000122,-0.000036,-0.009959,-0.003014,-0.000311, 0.043806,1,-0.001101, 0.000009,-0.000609,1, 0.125451, 0.031591, 9.805797,1,0
1778253822719,   516.624,   516.619,-0.012772,-0.003189,-0.995585,-0.000127,-0.000032,-0.009955, 0.006282,-0.000495, 0.033393,1,-0.000292,-0.000411, 0.000210,1, 0.125492, 0.031509, 9.805797,1,0
1778253822746,   516.649,   516.649,-0.012767,-0.002476,-0.995364,-0.000127,-0.000026,-0.009952, 0.000314, 0.007221, 0.044606,1, 0.000212, 0.000016, 0.000849,1, 0.125516, 0.031511, 9.805796,1,0
1778253822768,   516.674,   516.669,-0.012780,-0.003590,-0.995158,-0.000127,-0.000034,-0.009955,-0.004087,-0.000430, 0.039224,1,-0.000204, 0.000340, 0.000033,1, 0.125456, 0.031501, 9.805797,1,0
1778253822789,   516.694,   516.689,-0.013594,-0.003410,-0.995214,-0.000135,-0.000034,-0.009957,-0.003565, 0.003733, 0.029773,1,-0.000958,-0.000678,-0.000066,1, 0.125518, 0.031400, 9.805797,1,0
1778253822816,   516.719,   516.719,-0.013310,-0.003347,-0.995527,-0.000135,-0.000035,-0.009953,-0.004940,-0.001462, 0.043010,1,-0.000095,-0.000523, 0.000932,1, 0.125599, 0.031360, 9.805796,1,0
1778253822838,   516.744,   516.739,-0.013366,-0.002909,-0.995557,-0.000133,-0.000030,-0.009957,-0.000717, 0.012560, 0.035632,1, 0.001025,-0.000340, 0.000590,1, 0.125680, 0.031669, 9.805794,1,0
1778253822861,   516.764,   516.764,-0.012421,-0.003386,-0.995986,-0.000124,-0.000033,-0.009958, 0.003998,-0.001463, 0.038509,1,-0.000087,-0.000211, 0.000882,1, 0.125817, 0.031740, 9.805792,1,0
1778253822886,   516.789,   516.789,-0.012698,-0.003332,-0.996303,-0.000127,-0.000034,-0.009960, 0.001252,-0.000791, 0.035397,1, 0.001233,-0.000716, 0.000096,1, 0.125799, 0.031927, 9.805791,1,0
1778253822908,   516.814,   516.809,-0.012556,-0.005476,-0.995300,-0.000125,-0.000053,-0.009952, 0.005981,-0.013038, 0.033530,1, 0.001017,-0.000080, 0.000576,1, 0.125720, 0.032041, 9.805792,1,0
1778253822931,   516.834,   516.834,-0.012407,-0.005136,-0.995836,-0.000126,-0.000052,-0.009952, 0.003922,-0.018164, 0.039981,1, 0.000005, 0.000370,-0.000066,1, 0.125586, 0.032202, 9.805793,1,0
1778253822957,   516.859,   516.859,-0.012553,-0.004644,-0.995329,-0.000123,-0.000050,-0.009951, 0.002517,-0.013371, 0.044948,1,-0.000322,-0.000793,-0.000755,1, 0.125649, 0.032163, 9.805792,1,0
1778253822978,   516.884,   516.879,-0.012037,-0.000903,-0.995516,-0.000119,-0.000019,-0.009958, 0.018415, 0.007835, 0.043505,1, 0.000308,-0.000395,-0.001051,1, 0.125586, 0.032149, 9.805793,1,0
1778253823001,   516.904,   516.904,-0.011164,-0.000429,-0.997143,-0.000119,-0.000005,-0.009961, 0.016086, 0.027795, 0.027160,1,-0.000354,-0.000325, 0.000548,1, 0.125578, 0.031989, 9.805794,1,0
1778253823027,   516.929,   516.929,-0.013559,-0.002429,-0.997387,-0.000136,-0.000021,-0.009958,-0.007459, 0.008196, 0.024764,1,-0.000100, 0.000207, 0.000943,1, 0.125480, 0.032019, 9.805795,1,0
1778253823048,   516.954,   516.949,-0.014150,-0.007596,-0.999099,-0.000143,-0.000076,-0.009967,-0.018389,-0.028041, 0.039333,1, 0.000130,-0.000321, 0.000923,1, 0.125488, 0.032029, 9.805795,1,0
1778253823071,   516.974,   516.974,-0.014012,-0.006407,-0.996941,-0.000140,-0.000068,-0.009963,-0.011966,-0.030809, 0.029146,1, 0.000026,-0.000413,-0.000705,1, 0.125461, 0.032027, 9.805795,1,0
1778253823097,   516.999,   516.999,-0.012116,-0.003430,-0.997052,-0.000121,-0.000037,-0.009961, 0.006667,-0.001825, 0.028052,1,-0.001410, 0.000034,-0.001306,1, 0.125482, 0.031770, 9.805796,1,0
1778253823118,   517.024,   517.019,-0.011388,-0.000377,-0.995319,-0.000116,-0.000004,-0.009957, 0.009214, 0.015800, 0.027734,1, 0.000066, 0.000219,-0.001054,1, 0.125469, 0.031717, 9.805796,1,0
1778253823141,   517.044,   517.044,-0.011782, 0.000399,-0.995657,-0.000117, 0.000003,-0.009957, 0.009781, 0.035699, 0.041738,1, 0.000522, 0.000000,-0.000122,1, 0.125327, 0.031802, 9.805798,1,0
1778253823167,   517.069,   517.069,-0.011903,-0.002143,-0.996404,-0.000118,-0.000016,-0.009963, 0.008533, 0.010902, 0.034410,1, 0.000892,-0.000456, 0.000791,1, 0.125275, 0.031949, 9.805798,1,0
1778253823188,   517.094,   517.089,-0.013703,-0.005167,-0.995069,-0.000137,-0.000053,-0.009951,-0.002070,-0.015042, 0.039908,1, 0.001251, 0.000011, 0.001336,1, 0.125362, 0.032117, 9.805796,1,0
1778253823211,   517.119,   517.114,-0.013669,-0.005260,-0.995816,-0.000136,-0.000051,-0.009956,-0.008884,-0.019428, 0.040175,1, 0.000127, 0.000075, 0.000088,1, 0.125165, 0.032162, 9.805799,1,0
1778253823237,   517.139,   517.139,-0.012861,-0.004440,-0.996057,-0.000131,-0.000043,-0.009963,-0.000898,-0.011251, 0.037813,1,-0.000202,-0.000261,-0.000328,1, 0.125238, 0.032284, 9.805798,1,0
1778253823258,   517.164,   517.159,-0.012345,-0.002772,-0.996053,-0.000126,-0.000026,-0.009956,-0.004916,-0.002453, 0.038248,1, 0.000068, 0.000014,-0.001087,1, 0.125266, 0.032292, 9.805797,1,0
1778253823281,   517.189,   517.184,-0.012100,-0.002268,-0.995973,-0.000121,-0.000024,-0.009960, 0.006605, 0.009970, 0.038637,1,-0.000342,-0.000575, 0.000285,1, 0.125284, 0.032202, 9.805797,1,0
1778253823307,   517.209,   517.209,-0.012498,-0.004008,-0.996074,-0.000124,-0.000038,-0.009961, 0.002800,-0.007126, 0.037642,1, 0.000362,-0.000887, 0.000162,1, 0.125388, 0.032192, 9.805796,1,0
1778253823329,   517.234,   517.229,-0.012424,-0.004131,-0.995671,-0.000128,-0.000039,-0.009954,-0.001140,-0.014726, 0.042453,1, 0.000135, 0.000885,-0.000520,1, 0.125324, 0.032102, 9.805797,1,0
1778253823351,   517.259,   517.254,-0.012361,-0.004025,-0.996185,-0.000126,-0.000040,-0.009962, 0.004265,-0.007413, 0.036560,1,-0.000140, 0.000139,-0.000465,1, 0.125482, 0.032056, 9.805795,1,0
1778253823377,   517.279,   517.279,-0.012717,-0.003278,-0.995581,-0.000128,-0.000033,-0.009957, 0.000723,-0.000127, 0.042480,1,-0.000450, 0.000043,-0.000499,1, 0.125429, 0.032008, 9.805796,1,0
1778253823399,   517.304,   517.299,-0.013075,-0.001211,-0.996090,-0.000131,-0.000011,-0.009958, 0.001261, 0.020612, 0.044205,1, 0.000133,-0.000873,-0.000422,1, 0.125473, 0.031955, 9.805796,1,0
1778253823421,   517.329,   517.324,-0.012924,-0.003200,-0.995527,-0.000129,-0.000030,-0.009956,-0.001385, 0.000662, 0.043008,1,-0.000001, 0.000707,-0.000066,1, 0.125336, 0.032054, 9.805797,1,0
1778253823447,   517.349,   517.349,-0.013553,-0.005310,-0.995031,-0.000133,-0.000053,-0.009954,-0.007617,-0.019996, 0.047872,1, 0.000173, 0.000003,-0.000235,1, 0.125288, 0.032087, 9.805798,1,0
1778253823469,   517.374,   517.369,-0.013132,-0.004047,-0.995355,-0.000132,-0.000041,-0.009951,-0.002990,-0.022271, 0.042733,1, 0.000633,-0.000318,-0.000254,1, 0.125287, 0.032104, 9.805798,1,0
1778253823491,   517.399,   517.394,-0.012241,-0.001005,-0.996549,-0.000122,-0.000013,-0.009968, 0.005304, 0.022292, 0.032993,1, 0.000124, 0.000262, 0.000256,1, 0.125335, 0.032147, 9.805797,1,0
1778253823517,   517.419,   517.419,-0.011830,-0.001707,-0.996497,-0.000115,-0.000011,-0.009968, 0.009316, 0.015472, 0.033495,1, 0.000273,-0.000382, 0.000249,1, 0.125337, 0.032216, 9.805796,1,0
1778253823539,   517.444,   517.439,-0.012733,-0.006244,-0.995989,-0.000126,-0.000060,-0.009963, 0.001976,-0.019041, 0.046529,1,-0.000363,-0.000483, 0.000484,1, 0.125388, 0.032172, 9.805796,1,0
1778253823566,   517.469,   517.469,-0.012932,-0.003461,-0.995889,-0.000129,-0.000039,-0.009957,-0.001395,-0.001805, 0.039455,1, 0.001104,-0.000188,-0.000479,1, 0.125433, 0.032173, 9.805795,1,0
1778253823587,   517.489,   517.489,-0.012400,-0.002807,-0.994115,-0.000124,-0.000030,-0.009943, 0.003837, 0.004689, 0.056861,1,-0.000877, 0.000514, 0.000040,1, 0.125419, 0.032189, 9.805795,1,0
1778253823609,   517.514,   517.509,-0.013880,-0.000926,-0.995518,-0.000139,-0.000009,-0.009954,-0.007828,-0.006744, 0.050459,1,-0.000273,-0.000450,-0.000093,1, 0.125573, 0.032165, 9.805793,1,0
1778253823636,   517.539,   517.539,-0.012264,-0.005583,-0.995694,-0.000123,-0.000051,-0.009967, 0.005000,-0.022518, 0.041374,1,-0.000457,-0.001310, 0.000365,1, 0.125311, 0.032218, 9.805797,1,0
1778253823657,   517.564,   517.559,-0.012962,-0.004380,-0.997016,-0.000132,-0.000037,-0.009964,-0.005753,-0.026079, 0.056677,1,-0.001070, 0.000760,-0.000886,1, 0.125535, 0.031884, 9.805795,1,0
1778253823679,   517.584,   517.579,-0.011354,-0.004326,-0.998837,-0.000115,-0.000042,-0.009979,-0.004782,-0.004250, 0.066092,1,-0.000268,-0.000138,-0.000645,1, 0.125437, 0.032004, 9.805796,1,0
1778253823706,   517.609,   517.609,-0.011667, 0.000172,-0.997604,-0.000115, 0.000000,-0.009959, 0.010965, 0.033698, 0.022646,1, 0.000407, 0.001795,-0.001440,1, 0.125319, 0.032025, 9.805797,1,0
1778253823728,   517.634,   517.629,-0.011374,-0.000192,-0.997043,-0.000110, 0.000005,-0.009959,-0.012456, 0.059672, 0.049229,1,-0.001842,-0.001468, 0.000754,1, 0.125479, 0.031899, 9.805796,1,0
1778253823749,   517.654,   517.649,-0.013178,-0.004111,-0.996238,-0.000134,-0.000040,-0.009949,-0.000288, 0.014653, 0.054461,1, 0.000366,-0.000041, 0.001460,1, 0.125526, 0.032018, 9.805795,1,0
1778253823776,   517.679,   517.679,-0.015866,-0.006908,-0.988940,-0.000152,-0.000051,-0.009867,-0.030183,-0.035677, 0.107610,1, 0.001862,-0.000376, 0.000957,1, 0.125424, 0.032129, 9.805796,1,0
1778253823798,   517.704,   517.699,-0.013223,-0.005155,-0.994768,-0.000141,-0.000044,-0.009941, 0.005141,-0.016289, 0.091702,1,-0.002355, 0.000350,-0.000816,1, 0.125372, 0.032015, 9.805797,1,0
1778253823819,   517.724,   517.719,-0.013009,-0.002698,-0.988999,-0.000130,-0.000021,-0.009917, 0.010726,-0.021028,-0.017307,1,-0.000912,-0.001503,-0.000482,1, 0.125506, 0.032198, 9.805794,1,0
1778253823846,   517.749,   517.749,-0.012631,-0.003458,-0.997002,-0.000122,-0.000043,-0.009996, 0.001797,-0.001815, 0.028537,1,-0.001905,-0.000340,-0.000108,1, 0.125678, 0.032039, 9.805792,1,0
1778253823868,   517.774,   517.769,-0.010848,-0.002181,-0.997590,-0.000102,-0.000021,-0.009981, 0.021411, 0.009315, 0.016939,1,-0.000070, 0.000605,-0.000634,1, 0.125527, 0.031934, 9.805795,1,0
1778253823889,   517.794,   517.789,-0.012283,-0.004195,-0.999125,-0.000122,-0.000037,-0.009986, 0.005926, 0.014901, 0.068548,1,-0.000165, 0.000115,-0.000872,1, 0.125673, 0.031862, 9.805793,1,0
1778253823916,   517.819,   517.819,-0.013295,-0.002104,-0.994015,-0.000130,-0.000027,-0.009942,-0.004743, 0.011309, 0.057836,1,-0.000567, 0.000477,-0.000224,1, 0.125620, 0.031928, 9.805794,1,0
1778253823938,   517.844,   517.839,-0.014240,-0.003486,-0.993036,-0.000136,-0.000026,-0.009929,-0.009481, 0.000171, 0.028583,1,-0.001176,-0.000234,-0.000040,1, 0.125609, 0.031965, 9.805794,1,0
1778253823959,   517.864,   517.859,-0.013777,-0.003075,-0.994270,-0.000139,-0.000034,-0.009966,-0.006943,-0.008276, 0.006289,1,-0.000451, 0.000417, 0.000110,1, 0.125630, 0.031941, 9.805793,1,0
1778253823986,   517.889,   517.889,-0.013427,-0.003123,-0.997701,-0.000131,-0.000034,-0.009984,-0.006047, 0.001258, 0.021686,1,-0.000548,-0.000003, 0.000187,1, 0.125625, 0.031864, 9.805794,1,0
1778253824008,   517.914,   517.909,-0.013287,-0.003841,-0.996499,-0.000129,-0.000041,-0.009970, 0.000695, 0.004010, 0.035657,1, 0.000275, 0.000258, 0.000150,1, 0.125507, 0.031854, 9.805795,1,0
1778253824029,   517.934,   517.929,-0.012929,-0.004900,-0.996628,-0.000129,-0.000050,-0.009962,-0.004406,-0.007330, 0.054872,1,-0.000341,-0.001044, 0.000474,1, 0.125637, 0.031764, 9.805794,1,0
1778253824056,   517.959,   517.959,-0.012139,-0.004074,-0.994573,-0.000122,-0.000041,-0.009945, 0.006618,-0.008153, 0.052364,1,-0.000430,-0.000583, 0.000398,1, 0.125683, 0.031787, 9.805793,1,0
1778253824078,   517.984,   517.979,-0.011688,-0.003208,-0.995988,-0.000118,-0.000036,-0.009958, 0.008730,-0.005286, 0.042015,1,-0.001119,-0.000579, 0.000285,1, 0.125776, 0.031761, 9.805792,1,0
1778253824101,   518.004,   518.004,-0.011846,-0.002002,-0.995111,-0.000117,-0.000022,-0.009955, 0.009692, 0.012077, 0.047083,1, 0.000356, 0.000341,-0.000442,1, 0.125854, 0.031721, 9.805791,1,0
1778253824127,   518.029,   518.029,-0.012931,-0.001834,-0.995698,-0.000126,-0.000017,-0.009960,-0.000898, 0.013833, 0.041326,1, 0.000432,-0.000503,-0.000238,1, 0.125928, 0.031835, 9.805790,1,0
1778253824148,   518.054,   518.049,-0.013895,-0.004900,-0.995190,-0.000137,-0.000051,-0.009956,-0.008310,-0.012030, 0.038127,1,-0.000135,-0.000457, 0.000474,1, 0.126000, 0.031809, 9.805789,1,0
1778253824171,   518.074,   518.074,-0.014274,-0.005436,-0.995117,-0.000143,-0.000053,-0.009956,-0.014043,-0.021440, 0.047027,1,-0.000218, 0.000551,-0.000150,1, 0.125922, 0.031860, 9.805790,1,0
1778253824197,   518.099,   518.099,-0.013632,-0.004086,-0.995033,-0.000136,-0.000042,-0.009951,-0.007701,-0.008190, 0.047845,1,-0.000291,-0.000702,-0.000684,1, 0.126003, 0.031875, 9.805789,1,0
1778253824218,   518.124,   518.119,-0.012617,-0.002649,-0.995330,-0.000123,-0.000028,-0.009956, 0.003310, 0.007524, 0.034617,1,-0.000093, 0.000095,-0.000823,1, 0.125998, 0.031906, 9.805789,1,0
1778253824241,   518.144,   518.144,-0.011942,-0.002824,-0.995953,-0.000121,-0.000028,-0.009962, 0.008736, 0.004325, 0.038829,1,-0.000472, 0.000073, 0.000091,1, 0.125845, 0.032003, 9.805790,1,0
1778253824267,   518.169,   518.169,-0.012462,-0.002649,-0.996565,-0.000125,-0.000028,-0.009964, 0.003647, 0.006052, 0.032825,1,-0.000209, 0.000017, 0.000266,1, 0.125853, 0.032024, 9.805790,1,0
1778253824288,   518.194,   518.189,-0.012880,-0.003946,-0.995122,-0.000130,-0.000037,-0.009955, 0.003223, 0.002451, 0.037679,1, 0.000474,-0.000027, 0.000779,1, 0.125878, 0.032014, 9.805790,1,0
1778253824311,   518.214,   518.214,-0.013147,-0.004200,-0.995745,-0.000132,-0.000046,-0.009956,-0.003029,-0.009181, 0.040865,1,-0.000080,-0.000030, 0.000291,1, 0.125904, 0.032002, 9.805790,1,0
1778253824337,   518.239,   518.239,-0.013208,-0.003655,-0.996171,-0.000132,-0.000041,-0.009959,-0.003666,-0.003816, 0.036690,1,-0.000872,-0.000165,-0.000152,1, 0.125861, 0.031999, 9.805790,1,0
1778253824358,   518.264,   518.259,-0.012786,-0.003403,-0.995464,-0.000126,-0.000034,-0.009957,-0.000798,-0.001653, 0.034518,1, 0.000183, 0.000865, 0.000090,1, 0.125825, 0.032055, 9.805790,1,0
1778253824381,   518.284,   518.284,-0.012422,-0.003429,-0.995932,-0.000128,-0.000035,-0.009958, 0.004057,-0.001550, 0.039038,1, 0.000790, 0.000489,-0.000099,1, 0.125863, 0.032099, 9.805790,1,0
1778253824407,   518.304,   518.309,-0.012727,-0.003854,-0.995698,-0.000126,-0.000040,-0.009954, 0.001017,-0.005761, 0.041330,1,-0.000436,-0.000213, 0.000457,1, 0.125830, 0.032019, 9.805791,1,0
1778253824428,   518.334,   518.329,-0.012735,-0.003650,-0.995532,-0.000129,-0.000038,-0.009956, 0.000161,-0.003510, 0.038780,1,-0.000199, 0.000087,-0.000173,1, 0.125761, 0.032010, 9.805791,1,0
1778253824451,   518.359,   518.354,-0.012302,-0.002504,-0.995445,-0.000127,-0.000026,-0.009953, 0.005128, 0.007459, 0.043811,1,-0.000619, 0.000854, 0.000043,1, 0.125738, 0.031992, 9.805792,1,0
1778253824477,   518.379,   518.379,-0.012412,-0.002177,-0.995435,-0.000127,-0.000021,-0.009953, 0.004014, 0.010663, 0.043910,1,-0.000224, 0.000337,-0.000093,1, 0.125724, 0.032003, 9.805792,1,0
1778253824498,   518.404,   518.399,-0.012969,-0.003145,-0.996158,-0.000132,-0.000033,-0.009957, 0.000691, 0.002694, 0.033107,1, 0.000971, 0.000100, 0.000550,1, 0.125664, 0.032083, 9.805793,1,0
1778253824521,   518.429,   518.424,-0.012959,-0.004590,-0.995262,-0.000133,-0.000045,-0.009951,-0.001434,-0.013010, 0.045603,1,-0.000240,-0.000181, 0.000247,1, 0.125656, 0.031993, 9.805793,1,0
1778253824547,   518.449,   518.449,-0.013397,-0.004975,-0.995593,-0.000134,-0.000050,-0.009956,-0.005724,-0.016756, 0.042360,1, 0.000177, 0.000097,-0.000021,1, 0.125655, 0.032037, 9.805793,1,0
1778253824569,   518.474,   518.469,-0.012986,-0.003794,-0.995562,-0.000130,-0.000038,-0.009953,-0.000046,-0.012000, 0.031929,1, 0.000457,-0.000550,-0.001034,1, 0.125639, 0.032045, 9.805793,1,0
1778253824591,   518.499,   518.494,-0.012144,-0.002746,-0.995800,-0.000121,-0.000030,-0.009954, 0.006563, 0.005150, 0.040329,1,-0.000215,-0.000023,-0.000465,1, 0.125654, 0.032076, 9.805793,1,0
1778253824617,   518.519,   518.519,-0.012115,-0.002934,-0.994969,-0.000123,-0.000026,-0.009952, 0.006942, 0.003316, 0.048480,1,-0.000429,-0.001378,-0.000236,1, 0.125789, 0.032073, 9.805791,1,0
1778253824639,   518.544,   518.539,-0.012516,-0.003496,-0.995610,-0.000124,-0.000035,-0.009953, 0.008279,-0.000597, 0.037837,1, 0.000726,-0.000226, 0.000098,1, 0.125839, 0.032182, 9.805790,1,0
1778253824661,   518.569,   518.564,-0.012845,-0.004013,-0.995563,-0.000125,-0.000039,-0.009953,-0.000152,-0.007183, 0.042656,1,-0.000207, 0.000354,-0.000013,1, 0.125805, 0.032160, 9.805790,1,1
1778253824687,   518.589,   518.589,-0.012671,-0.003184,-0.995766,-0.000127,-0.000033,-0.009957, 0.001553, 0.000945, 0.040663,1, 0.000452, 0.000209,-0.000064,1, 0.125812, 0.032179, 9.805790,1,1
1778253824709,   518.614,   518.609,-0.012582,-0.002440,-0.995881,-0.000128,-0.000027,-0.009955, 0.007054, 0.004358, 0.044167,1,-0.000854, 0.000525,-0.000348,1, 0.125777, 0.032028, 9.805791,1,1
1778253824732,   518.639,   518.634,-0.012857,-0.002504,-0.996177,-0.000130,-0.000025,-0.009960,-0.000310, 0.007464, 0.036634,1,-0.000992,-0.000782, 0.000485,1, 0.125800, 0.031987, 9.805791,1,1
1778253824757,   518.659,   518.659,-0.013357,-0.003135,-0.995605,-0.000133,-0.000032,-0.009958,-0.005150, 0.001264, 0.042240,1, 0.000351,-0.000066, 0.000516,1, 0.125840, 0.032022, 9.805790,1,1
1778253824779,   518.684,   518.679,-0.012787,-0.004109,-0.995986,-0.000130,-0.000041,-0.009955,-0.001195,-0.007492, 0.044054,1,-0.000315,-0.000355,-0.000003,1, 0.125868, 0.032006, 9.805790,1,1
1778253824806,   518.709,   518.709,-0.012520,-0.004618,-0.996240,-0.000125,-0.000045,-0.009959, 0.003182,-0.013285, 0.036013,1,-0.000068,-0.000399, 0.000240,1, 0.125977, 0.031995, 9.805789,1,1
1778253824827,   518.729,   518.729,-0.011984,-0.003938,-0.995942,-0.000120,-0.000039,-0.009963, 0.008482,-0.006663, 0.038930,1,-0.000954,-0.000356,-0.000332,1, 0.126005, 0.031944, 9.805788,1,1
1778253824849,   518.754,   518.749,-0.011485,-0.003034,-0.996155,-0.000114,-0.000031,-0.009961, 0.011462,-0.000467, 0.041019,1,-0.001054,-0.000178,-0.000996,1, 0.126050, 0.031742, 9.805788,1,1
1778253824876,   518.779,   518.779,-0.012290,-0.003301,-0.996449,-0.000122,-0.000032,-0.009964, 0.005607,-0.000679, 0.033963,1, 0.000184,-0.001322,-0.000636,1, 0.126169, 0.031694, 9.805787,1,1
1778253824897,   518.804,   518.799,-0.013293,-0.003404,-0.996025,-0.000133,-0.000034,-0.009960,-0.000384, 0.003265, 0.039253,1,-0.000843, 0.000717,-0.000643,1, 0.126052, 0.031586, 9.805789,1,1
1778253824919,   518.824,   518.819,-0.013220,-0.002877,-0.996113,-0.000132,-0.000030,-0.009959,-0.004347, 0.002529, 0.045427,1, 0.000330, 0.000593,-0.000120,1, 0.126027, 0.031526, 9.805790,1,1
1778253824946,   518.849,   518.849,-0.013501,-0.003172,-0.996239,-0.000134,-0.000028,-0.009961,-0.006349, 0.000387, 0.036020,1, 0.000191, 0.000480, 0.000494,1, 0.126037, 0.031503, 9.805789,1,1
1778253824968,   518.874,   518.869,-0.013624,-0.003844,-0.996000,-0.000135,-0.000036,-0.009960,-0.003646,-0.005256, 0.039097,1, 0.000591, 0.000575, 0.000293,1, 0.126000, 0.031651, 9.805789,1,1
1778253824989,   518.894,   518.889,-0.013122,-0.003839,-0.995900,-0.000132,-0.000037,-0.009958,-0.002539,-0.008667, 0.048342,1, 0.000217, 0.000842,-0.000313,1, 0.125928, 0.031613, 9.805791,1,1
1778253825016,   518.919,   518.919,-0.012617,-0.003563,-0.996180,-0.000125,-0.000035,-0.009964, 0.002146,-0.003365, 0.036604,1, 0.000228, 0.000317,-0.000017,1, 0.125871, 0.031579, 9.805791,1,1
1778253825038,   518.944,   518.939,-0.012444,-0.003609,-0.995773,-0.000125,-0.000039,-0.009956, 0.002495,-0.011399, 0.043634,1,-0.000222,-0.000906,-0.000456,1, 0.125856, 0.031589, 9.805792,1,1
1778253825059,   518.964,   518.959,-0.012180,-0.002757,-0.996301,-0.000122,-0.000028,-0.009965, 0.008691,-0.003292, 0.041361,1, 0.000166, 0.000857, 0.000169,1, 0.125787, 0.031522, 9.805793,1,1
1778253825086,   518.989,   518.989,-0.012936,-0.003148,-0.996056,-0.000128,-0.000028,-0.009962,-0.000924, 0.000612, 0.037815,1, 0.000437, 0.000324, 0.000342,1, 0.125926, 0.031501, 9.805791,1,1
1778253825108,   519.014,   519.009,-0.013496,-0.003194,-0.996258,-0.000132,-0.000032,-0.009960,-0.000027,-0.003145, 0.045577,1,-0.000107,-0.000616,-0.000012,1, 0.125971, 0.031499, 9.805790,1,1
1778253825129,   519.034,   519.029,-0.012798,-0.004098,-0.995687,-0.000129,-0.000039,-0.009959,-0.007697,-0.003951, 0.047121,1,-0.000053, 0.000778, 0.000054,1, 0.125797, 0.031456, 9.805793,1,1
1778253825156,   519.059,   519.059,-0.012886,-0.004492,-0.996067,-0.000130,-0.000043,-0.009961,-0.000630,-0.012611, 0.037709,1,-0.000303, 0.000116, 0.000194,1, 0.125730, 0.031430, 9.805794,1,1
1778253825178,   519.084,   519.079,-0.012890,-0.003949,-0.995742,-0.000127,-0.000040,-0.009958,-0.003774,-0.008165, 0.041351,1, 0.000284, 0.000777, 0.000169,1, 0.125632, 0.031460, 9.805795,1,1
1778253825199,   519.104,   519.099,-0.012469,-0.004172,-0.995641,-0.000126,-0.000039,-0.009959, 0.005981,-0.011894, 0.045630,1, 0.000133, 0.000043,-0.000062,1, 0.125644, 0.031497, 9.805795,1,1
1778253825226,   519.129,   519.129,-0.012489,-0.003166,-0.995856,-0.000124,-0.000029,-0.009963, 0.003158, 0.000313, 0.039782,1,-0.000804,-0.000461,-0.000614,1, 0.125654, 0.031370, 9.805795,1,1
1778253825248,   519.154,   519.149,-0.010308,-0.003452,-0.996745,-0.000120,-0.000031,-0.009959, 0.006263,-0.006273, 0.043774,1, 0.000170,-0.000541,-0.001160,1, 0.125687, 0.031269, 9.805795,1,1
1778253825269,   519.174,   519.169,-0.013073,-0.003198,-0.996641,-0.000123,-0.000033,-0.009964,-0.005049, 0.011837, 0.047573,1,-0.002107, 0.000093, 0.000039,1, 0.125741, 0.031133, 9.805795,1,1
1778253825296,   519.199,   519.199,-0.012613,-0.003307,-0.995825,-0.000127,-0.000034,-0.009956, 0.002119,-0.001210, 0.040084,1, 0.000723, 0.000548,-0.000729,1, 0.125793, 0.031245, 9.805794,1,1
1778253825318,   519.224,   519.219,-0.013038,-0.003323,-0.996510,-0.000129,-0.000031,-0.009964,-0.004699,-0.004146, 0.046276,1,-0.000276,-0.000145, 0.000443,1, 0.125858, 0.031266, 9.805793,1,1
1778253825341,   519.244,   519.244,-0.012765,-0.003741,-0.995798,-0.000130,-0.000036,-0.009958, 0.000667,-0.005367, 0.040351,1, 0.000297,-0.000429, 0.000314,1, 0.125859, 0.031330, 9.805792,1,1
1778253825367,   519.269,   519.269,-0.013212,-0.003401,-0.993251,-0.000129,-0.000036,-0.009940,-0.003673,-0.002011, 0.065328,1,-0.000680, 0.000203, 0.000072,1, 0.125881, 0.031316, 9.805792,1,1
1778253825388,   519.294,   519.289,-0.012576,-0.003721,-0.995515,-0.000127,-0.000038,-0.009952,-0.000344,-0.006347, 0.048757,1, 0.000244,-0.001219, 0.000122,1, 0.125950, 0.031416, 9.805791,1,1
1778253825411,   519.314,   519.314,-0.012435,-0.004455,-0.994706,-0.000122,-0.000044,-0.009955, 0.004043,-0.012319, 0.051058,1,-0.000140,-0.000140,-0.000693,1, 0.125995, 0.031369, 9.805790,1,1
1778253825437,   519.339,   519.339,-0.012136,-0.003228,-0.995965,-0.000121,-0.000034,-0.009963, 0.006953,-0.000369, 0.038712,1,-0.000423,-0.000003,-0.000844,1, 0.125964, 0.031280, 9.805791,1,1
1778253825458,   519.364,   519.359,-0.012767,-0.003267,-0.996274,-0.000126,-0.000033,-0.009963, 0.001304, 0.003686, 0.033669,1,-0.000480, 0.000666,-0.000390,1, 0.125899, 0.031194, 9.805792,1,1
1778253825481,   519.384,   519.384,-0.012534,-0.002707,-0.995955,-0.000127,-0.000027,-0.009963, 0.002899, 0.004636, 0.038807,1,-0.000540,-0.000789, 0.000054,1, 0.125835, 0.031167, 9.805793,1,1
1778253825507,   519.409,   519.409,-0.012617,-0.003249,-0.996785,-0.000128,-0.000033,-0.009967, 0.002076,-0.000745, 0.030674,1,-0.000572, 0.000456,-0.000657,1, 0.125791, 0.031100, 9.805794,1,1
1778253825528,   519.434,   519.429,-0.013029,-0.003456,-0.995653,-0.000130,-0.000033,-0.009961, 0.001498,-0.003785, 0.041692,1,-0.001203,-0.000174,-0.000396,1, 0.125869, 0.030995, 9.805793,1,1
1778253825551,   519.454,   519.454,-0.012801,-0.002782,-0.995884,-0.000128,-0.000029,-0.009960, 0.000213, 0.003674, 0.039504,1, 0.000358, 0.000622,-0.000072,1, 0.125726, 0.030966, 9.805795,1,1
1778253825577,   519.479,   519.479,-0.013169,-0.003377,-0.995420,-0.000131,-0.000032,-0.009957,-0.003424,-0.002071, 0.044060,1, 0.000203, 0.000272, 0.000047,1, 0.125716, 0.031055, 9.805795,1,1
1778253825598,   519.504,   519.499,-0.012362,-0.003289,-0.995633,-0.000124,-0.000033,-0.009956, 0.001558, 0.000414, 0.045841,1, 0.000598,-0.000527, 0.000300,1, 0.125733, 0.031156, 9.805795,1,1
1778253825621,   519.524,   519.524,-0.012813,-0.003931,-0.995133,-0.000127,-0.000037,-0.009954, 0.000135,-0.007390, 0.046876,1,-0.000226, 0.000050, 0.000467,1, 0.125776, 0.031150, 9.805794,1,1
1778253825647,   519.549,   519.549,-0.012487,-0.004059,-0.995802,-0.000124,-0.000042,-0.009955, 0.003311,-0.008679, 0.040315,1,-0.000367,-0.000242,-0.000118,1, 0.125772, 0.031114, 9.805794,1,1
1778253825669,   519.574,   519.569,-0.012460,-0.003268,-0.995938,-0.000124,-0.000032,-0.009965, 0.003506,-0.003456, 0.043331,1,-0.000875,-0.000064,-0.000732,1, 0.125757, 0.031040, 9.805795,1,1
1778253825693,   519.599,   519.594,-0.012587,-0.002921,-0.995195,-0.000127,-0.000029,-0.009954, 0.002335, 0.002281, 0.046261,1,-0.000428, 0.000502,-0.000150,1, 0.125756, 0.030910, 9.805795,1,1
1778253825717,   519.619,   519.619,-0.012489,-0.002908,-0.995450,-0.000127,-0.000032,-0.009953, 0.003296, 0.002424, 0.043760,1,-0.000164, 0.000102,-0.000148,1, 0.125765, 0.030936, 9.805795,1,1
1778253825739,   519.644,   519.639,-0.012646,-0.002711,-0.995494,-0.000126,-0.000027,-0.009961, 0.002481, 0.001063, 0.036445,1,-0.000324, 0.001298,-0.000231,1, 0.125677, 0.030971, 9.805796,1,1
1778253825761,   519.669,   519.664,-0.012995,-0.003233,-0.995314,-0.000130,-0.000034,-0.009956,-0.001733,-0.000799, 0.045101,1,-0.000395, 0.000027, 0.000279,1, 0.125701, 0.030892, 9.805796,1,1
1778253825787,   519.689,   519.689,-0.013109,-0.003064,-0.995759,-0.000129,-0.000034,-0.009958,-0.002813, 0.000897, 0.040730,1, 0.000550,-0.000349,-0.000163,1, 0.125756, 0.030966, 9.805795,1,1
1778253825809,   519.714,   519.709,-0.012821,-0.004009,-0.996181,-0.000127,-0.000042,-0.009966, 0.005650,-0.003315, 0.034782,1,-0.000422,-0.000463, 0.000105,1, 0.125812, 0.030999, 9.805794,1,1
1778253825831,   519.739,   519.734,-0.011984,-0.004616,-0.997102,-0.000124,-0.000043,-0.009957, 0.008417,-0.014254, 0.027563,1, 0.001187, 0.000374,-0.000126,1, 0.125930, 0.031052, 9.805792,1,1
1778253825857,   519.759,   519.759,-0.011980,-0.003743,-0.996269,-0.000123,-0.000036,-0.009952, 0.008420,-0.005757, 0.035728,1,-0.000353, 0.000800, 0.000134,1, 0.125876, 0.030941, 9.805794,1,1
1778253825879,   519.784,   519.779,-0.012629,-0.003898,-0.995556,-0.000126,-0.000041,-0.009956,-0.000777,-0.002152, 0.049679,1, 0.000153, 0.000052, 0.000351,1, 0.125872, 0.030913, 9.805794,1,1
1778253825902,   519.809,   519.804,-0.012949,-0.003422,-0.994580,-0.000129,-0.000037,-0.009942,-0.001053,-0.002622, 0.052290,1,-0.000533, 0.000151,-0.000525,1, 0.125928, 0.030920, 9.805793,1,1
1778253825927,   519.829,   519.829,-0.012514,-0.002575,-0.995408,-0.000127,-0.000029,-0.009954, 0.003202, 0.005723, 0.044177,1,-0.000320, 0.000020,-0.000658,1, 0.125920, 0.030968, 9.805793,1,1
1778253825949,   519.854,   519.849,-0.013119,-0.003979,-0.995161,-0.000128,-0.000040,-0.009957, 0.002279, 0.006885, 0.028318,1, 0.000215, 0.000623, 0.000126,1, 0.125812, 0.031031, 9.805794,1,1
1778253825972,   519.879,   519.874,-0.012944,-0.003377,-0.995972,-0.000130,-0.000036,-0.009962,-0.001172,-0.002167, 0.038647,1,-0.000031,-0.000216,-0.000273,1, 0.125776, 0.030946, 9.805795,1,1
1778253825997,   519.899,   519.899,-0.012680,-0.003173,-0.996620,-0.000130,-0.000029,-0.009963, 0.001366,-0.000084, 0.032293,1, 0.000873, 0.000356, 0.000090,1, 0.125707, 0.031064, 9.805795,1,1
1778253826019,   519.924,   519.919,-0.012950,-0.003475,-0.996003,-0.000130,-0.000035,-0.009962, 0.004005,-0.001870, 0.035902,1,-0.000290, 0.000621, 0.000799,1, 0.125662, 0.031022, 9.805796,1,1
1778253826046,   519.949,   519.949,-0.012942,-0.002983,-0.995676,-0.000131,-0.000027,-0.009956,-0.001340, 0.001799, 0.041552,1, 0.000310, 0.000543, 0.000324,1, 0.125560, 0.031061, 9.805797,1,1
1778253826067,   519.969,   519.969,-0.012639,-0.004076,-0.995725,-0.000127,-0.000045,-0.009956, 0.001662,-0.008936, 0.041074,1,-0.000064,-0.000999, 0.000504,1, 0.125639, 0.031030, 9.805796,1,1
1778253826089,   519.994,   519.989,-0.012595,-0.003470,-0.996594,-0.000128,-0.000031,-0.009953, 0.004177, 0.017575, 0.045384,1, 0.000025, 0.000667,-0.000125,1, 0.125555, 0.030979, 9.805798,1,1
1778253826116,   520.019,   520.019,-0.012445,-0.003402,-0.994008,-0.000123,-0.000031,-0.009941, 0.003610,-0.002274, 0.057908,1, 0.001047,-0.000479, 0.000667,1, 0.125670, 0.031118, 9.805796,1,1
1778253826138,   520.044,   520.039,-0.013442,-0.003381,-0.995080,-0.000134,-0.000033,-0.009951, 0.000694, 0.007182, 0.042284,1, 0.000003,-0.000284,-0.000055,1, 0.125547, 0.031135, 9.805797,1,1
1778253826159,   520.064,   520.059,-0.012887,-0.003526,-0.994165,-0.000125,-0.000036,-0.009948, 0.002028,-0.004840, 0.028320,1,-0.000268, 0.000238, 0.000779,1, 0.125538, 0.031157, 9.805797,1,1
1778253826186,   520.089,   520.089,-0.012746,-0.003415,-0.997328,-0.000127,-0.000036,-0.009977, 0.000511,-0.002211, 0.025349,1, 0.000867,-0.000175, 0.000169,1, 0.125514, 0.031308, 9.805797,1,1
1778253826208,   520.114,   520.109,-0.012782,-0.004535,-0.994827,-0.000128,-0.000046,-0.009954, 0.001762,-0.009525, 0.025402,1,-0.000098, 0.000141, 0.000186,1, 0.125531, 0.031350, 9.805797,1,1
1778253826229,   520.134,   520.129,-0.012366,-0.004057,-0.996218,-0.000125,-0.000041,-0.009963,-0.003753,-0.010211, 0.045713,1, 0.000488,-0.000335, 0.000111,1, 0.125578, 0.031437, 9.805796,1,1
1778253826256,   520.159,   520.159,-0.011995,-0.002739,-0.996529,-0.000121,-0.000030,-0.009962, 0.008002, 0.004492, 0.033182,1,-0.000520,-0.000328,-0.001219,1, 0.125643, 0.031340, 9.805795,1,1
1778253826278,   520.184,   520.179,-0.012150,-0.002601,-0.995456,-0.000121,-0.000024,-0.009956, 0.001344, 0.006866, 0.035967,1,-0.000434, 0.000358,-0.000517,1, 0.125676, 0.031232, 9.805795,1,1
1778253826299,   520.204,   520.199,-0.012138,-0.002737,-0.995495,-0.000122,-0.000029,-0.009953, 0.001329,-0.003528, 0.046729,1,-0.000050,-0.000209, 0.000405,1, 0.125751, 0.031192, 9.805794,1,1
1778253826326,   520.229,   520.229,-0.012727,-0.002889,-0.996149,-0.000128,-0.000030,-0.009957, 0.000934, 0.002827, 0.036912,1, 0.000270,-0.000013, 0.000520,1, 0.125742, 0.031164, 9.805795,1,1
1778253826348,   520.254,   520.249,-0.012981,-0.004302,-0.995477,-0.000129,-0.000045,-0.009950, 0.001857,-0.004725, 0.035150,1, 0.000747, 0.000172, 0.000104,1, 0.125758, 0.031256, 9.805794,1,1
1778253826369,   520.274,   520.269,-0.012333,-0.003244,-0.995728,-0.000128,-0.000035,-0.009952, 0.002361,-0.005053, 0.038144,1,-0.000237, 0.000817,-0.000619,1, 0.125682, 0.031233, 9.805795,1,1
1778253826396,   520.299,   520.299,-0.012392,-0.003453,-0.996529,-0.000122,-0.000033,-0.009965, 0.004144,-0.002607, 0.033184,1, 0.000246, 0.000252, 0.000027,1, 0.125664, 0.031262, 9.805795,1,1
1778253826418,   520.319,   520.319,-0.012624,-0.002886,-0.995950,-0.000125,-0.000025,-0.009961, 0.001825, 0.002997, 0.038859,1, 0.000777, 0.000261,-0.000445,1, 0.125616, 0.031327, 9.805796,1,1
1778253826439,   520.344,   520.339,-0.012818,-0.002868,-0.996072,-0.000127,-0.000028,-0.009958, 0.004088, 0.007283, 0.035322,1,-0.000036, 0.000212, 0.000090,1, 0.125485, 0.031422, 9.805797,1,1
1778253826466,   520.369,   520.369,-0.012514,-0.003675,-0.995465,-0.000124,-0.000035,-0.009957, 0.002700,-0.004619, 0.043625,1,-0.000087, 0.000535, 0.000346,1, 0.125403, 0.031418, 9.805798,1,1
1778253826488,   520.394,   520.389,-0.013136,-0.003394,-0.995599,-0.000132,-0.000030,-0.009952, 0.003218,-0.004286, 0.042250,1, 0.000144,-0.000317, 0.000471,1, 0.125397, 0.031391, 9.805798,1,1
1778253826510,   520.414,   520.409,-0.013200,-0.004334,-0.995668,-0.000136,-0.000044,-0.009955, 0.000227,-0.010477, 0.038312,1, 0.000290,-0.000455, 0.000007,1, 0.125428, 0.031544, 9.805798,1,1
1778253826537,   520.439,   520.439,-0.012933,-0.003949,-0.995972,-0.000127,-0.000042,-0.009962,-0.001532,-0.007226, 0.038652,1,-0.000013, 0.000024,-0.000317,1, 0.125297, 0.031505, 9.805799,1,1
1778253826558,   520.464,   520.459,-0.012415,-0.003336,-0.995955,-0.000122,-0.000035,-0.009957, 0.004881,-0.004323, 0.039784,1, 0.000184,-0.000551,-0.000205,1, 0.125324, 0.031569, 9.805799,1,1
1778253826581,   520.484,   520.484,-0.012181,-0.003228,-0.996047,-0.000119,-0.000032,-0.009958, 0.005979,-0.000119, 0.037909,1,-0.000259,-0.000358,-0.000067,1, 0.125444, 0.031533, 9.805797,1,1
1778253826607,   520.509,   520.509,-0.012032,-0.003262,-0.995747,-0.000120,-0.000032,-0.009957, 0.007445,-0.000472, 0.040850,1, 0.000263,-0.000280, 0.000010,1, 0.125447, 0.031526, 9.805797,1,1
1778253826628,   520.534,   520.529,-0.012106,-0.003436,-0.996028,-0.000123,-0.000037,-0.009959, 0.003896,-0.005949, 0.037632,1, 0.000007, 0.000166, 0.000437,1, 0.125403, 0.031564, 9.805798,1,1
1778253826651,   520.554,   520.554,-0.013467,-0.003024,-0.995488,-0.000132,-0.000027,-0.009958,-0.006470, 0.001906, 0.043391,1, 0.000143,-0.000570, 0.000292,1, 0.125616, 0.031570, 9.805795,1,1
1778253826677,   520.579,   520.579,-0.013075,-0.003952,-0.996055,-0.000130,-0.000037,-0.009963,-0.002615,-0.007142, 0.037835,1, 0.000175,-0.000121,-0.000626,1, 0.125608, 0.031620, 9.805795,1,1
1778253826698,   520.604,   520.599,-0.012993,-0.003427,-0.995724,-0.000129,-0.000035,-0.009958,-0.002565,-0.006044, 0.039782,1, 0.000198, 0.000653, 0.000252,1, 0.125479, 0.031630, 9.805797,1,1
1778253826721,   520.624,   520.624,-0.013047,-0.003313,-0.996079,-0.000129,-0.000032,-0.009963,-0.002446,-0.000832, 0.037600,1, 0.000200,-0.000428,-0.000246,1, 0.125519, 0.031666, 9.805796,1,1
1778253826747,   520.649,   520.649,-0.012788,-0.003606,-0.996201,-0.000127,-0.000036,-0.009966, 0.000195,-0.003733, 0.036399,1,-0.000214,-0.000353,-0.000116,1, 0.125610, 0.031623, 9.805795,1,1
1778253826768,   520.674,   520.669,-0.012780,-0.003599,-0.996219,-0.000129,-0.000036,-0.009965, 0.000802,-0.006806, 0.039310,1, 0.000559, 0.000388,-0.000108,1, 0.125580, 0.031661, 9.805795,1,1
1778253826791,   520.694,   520.694,-0.012467,-0.003442,-0.996224,-0.000125,-0.000034,-0.009966, 0.003366,-0.002250, 0.036172,1,-0.000102,-0.000792,-0.000158,1, 0.125652, 0.031498, 9.805795,1,1
1778253826817,   520.719,   520.719,-0.012501,-0.003551,-0.995828,-0.000125,-0.000033,-0.009960, 0.003120,-0.003387, 0.040061,1,-0.000213,-0.000312, 0.000416,1, 0.125721, 0.031427, 9.805794,1,1
1778253826838,   520.744,   520.739,-0.012083,-0.002901,-0.996780,-0.000122,-0.000031,-0.009968, 0.005793, 0.003882, 0.046805,1,-0.000418,-0.000606,-0.000420,1, 0.125798, 0.031493, 9.805793,1,1
1778253826861,   520.764,   520.764,-0.012697,-0.002691,-0.996415,-0.000125,-0.000025,-0.009964, 0.001307, 0.005064, 0.034298,1, 0.000291, 0.000495, 0.000083,1, 0.125802, 0.031458, 9.805793,1,1
1778253826887,   520.789,   520.789,-0.012934,-0.003421,-0.995437,-0.000127,-0.000036,-0.009953,-0.001034,-0.002081, 0.043893,1, 0.000767, 0.000396, 0.000170,1, 0.125791, 0.031496, 9.805793,1,1
1778253826909,   520.814,   520.809,-0.012935,-0.003070,-0.996288,-0.000131,-0.000033,-0.009960,-0.001780,-0.000102, 0.050473,1,-0.000088,-0.000411, 0.000259,1, 0.125852, 0.031581, 9.805792,1,1
1778253826931,   520.839,   520.834,-0.012675,-0.005049,-0.995651,-0.000129,-0.000046,-0.009963, 0.001422,-0.017944, 0.041796,1,-0.000153, 0.000187, 0.000170,1, 0.125716, 0.031561, 9.805794,1,1
1778253826957,   520.859,   520.859,-0.012581,-0.005646,-0.995763,-0.000126,-0.000056,-0.009951, 0.001188,-0.012013, 0.041748,1, 0.000077,-0.000042,-0.000767,1, 0.125693, 0.031530, 9.805794,1,1
1778253826979,   520.884,   520.879,-0.012339,-0.002749,-0.996318,-0.000120,-0.000027,-0.009963, 0.003043, 0.009490, 0.052385,1,-0.000213,-0.001190,-0.000630,1, 0.125772, 0.031501, 9.805793,1,0
1778253827001,   520.909,   520.904,-0.011815,-0.001939,-0.995715,-0.000119,-0.000019,-0.009958, 0.009939, 0.012519, 0.041165,1,-0.000232, 0.000648,-0.000028,1, 0.125782, 0.031525, 9.805793,1,0
1778253827027,   520.929,   520.929,-0.012663,-0.001665,-0.995329,-0.000128,-0.000016,-0.009954, 0.001602, 0.015151, 0.044947,1, 0.000082,-0.000541, 0.000352,1, 0.125786, 0.031495, 9.805793,1,0
1778253827049,   520.954,   520.949,-0.013461,-0.003631,-0.995523,-0.000133,-0.000032,-0.009958,-0.007764, 0.004412, 0.038723,1, 0.000922, 0.000686, 0.000602,1, 0.125780, 0.031581, 9.805793,1,0
1778253827071,   520.979,   520.974,-0.013600,-0.005623,-0.995977,-0.000134,-0.000056,-0.009962,-0.007503,-0.023508, 0.038588,1,-0.000790,-0.000269, 0.000470,1, 0.125874, 0.031609, 9.805791,1,0
1778253827097,   520.999,   520.999,-0.012845,-0.004505,-0.995714,-0.000131,-0.000044,-0.009958,-0.000059,-0.012463, 0.041169,1, 0.000338, 0.000477,-0.000470,1, 0.125888, 0.031722, 9.805791,1,0
1778253827119,   521.024,   521.019,-0.012108,-0.003144,-0.995938,-0.000122,-0.000034,-0.009960, 0.005177,-0.007321, 0.044829,1, 0.000100, 0.000152,-0.000004,1, 0.125856, 0.031735, 9.805791,1,0
1778253827142,   521.049,   521.044,-0.011330,-0.001360,-0.995690,-0.000112,-0.000012,-0.009957, 0.014559, 0.018452, 0.041414,1, 0.000979, 0.000475, 0.001064,1, 0.125650, 0.031815, 9.805794,1,0
1778253827167,   521.069,   521.069,-0.012176,-0.002584,-0.995540,-0.000123,-0.000024,-0.009958, 0.006216, 0.006603, 0.042878,1, 0.000976,-0.000141, 0.001066,1, 0.125630, 0.031975, 9.805793,1,0
1778253827189,   521.094,   521.089,-0.013477,-0.004659,-0.995310,-0.000135,-0.000046,-0.009959,-0.000402,-0.009103, 0.036780,1, 0.000876, 0.000519, 0.000870,1, 0.125649, 0.032032, 9.805793,1,0
1778253827212,   521.119,   521.114,-0.013015,-0.005175,-0.995471,-0.000129,-0.000050,-0.009958,-0.001970,-0.018681, 0.043556,1, 0.000228, 0.000900, 0.000134,1, 0.125633, 0.032080, 9.805793,1,0
1778253827237,   521.139,   521.139,-0.013435,-0.004320,-0.996078,-0.000135,-0.000043,-0.009960,-0.006149,-0.010188, 0.037599,1, 0.000441, 0.000758, 0.000220,1, 0.125580, 0.032191, 9.805793,1,0
1778253827259,   521.164,   521.159,-0.012776,-0.003246,-0.995124,-0.000126,-0.000033,-0.009956,-0.001788,-0.005205, 0.033697,1, 0.000298,-0.000372,-0.000321,1, 0.125589, 0.032149, 9.805793,1,0
1778253827286,   521.189,   521.189,-0.012120,-0.003405,-0.995448,-0.000121,-0.000034,-0.009958, 0.006756,-0.001276, 0.043778,1,-0.000112,-0.000328,-0.000069,1, 0.125621, 0.032111, 9.805793,1,0
1778253827307,   521.209,   521.209,-0.012566,-0.003792,-0.996597,-0.000129,-0.000041,-0.009962, 0.002485,-0.005123, 0.032513,1,-0.001463,-0.000382, 0.000452,1, 0.125726, 0.032020, 9.805792,1,0
1778253827329,   521.234,   521.229,-0.013173,-0.002978,-0.995810,-0.000130,-0.000030,-0.009960, 0.001649, 0.000812, 0.036093,1, 0.000486,-0.000063, 0.000111,1, 0.125796, 0.031977, 9.805791,1,0
1778253827356,   521.259,   521.259,-0.012901,-0.003287,-0.996724,-0.000129,-0.000034,-0.009967,-0.000717,-0.000235, 0.031267,1, 0.000246,-0.000127, 0.000219,1, 0.125800, 0.032003, 9.805791,1,0
1778253827378,   521.284,   521.279,-0.013248,-0.004384,-0.995223,-0.000131,-0.000043,-0.009959, 0.001060,-0.000993, 0.034444,1,-0.000144,-0.000137,-0.000228,1, 0.125884, 0.032022, 9.805790,1,0
1778253827399,   521.304,   521.299,-0.012515,-0.004040,-0.995414,-0.000127,-0.000040,-0.009961, 0.002793,-0.001907, 0.039940,1,-0.000714, 0.000423,-0.000002,1, 0.125794, 0.032015, 9.805791,1,0
1778253827426,   521.329,   521.329,-0.012471,-0.003688,-0.995807,-0.000127,-0.000039,-0.009957, 0.003537,-0.004159, 0.040260,1,-0.000897,-0.000174,-0.000521,1, 0.125842, 0.032013, 9.805790,1,0
1778253827448,   521.354,   521.349,-0.012477,-0.003129,-0.995377,-0.000123,-0.000029,-0.009960,-0.002017, 0.005517, 0.037799,1, 0.000177, 0.000221,-0.000610,1, 0.125798, 0.032021, 9.805791,1,0
1778253827469,   521.374,   521.369,-0.012460,-0.002547,-0.995055,-0.000127,-0.000024,-0.009953, 0.001326, 0.006393, 0.041143,1, 0.000381,-0.000171,-0.000030,1, 0.125853, 0.032068, 9.805790,1,0
1778253827496,   521.399,   521.399,-0.013307,-0.003652,-0.995583,-0.000131,-0.000035,-0.009959,-0.004551,-0.003729, 0.042453,1, 0.000192,-0.000151, 0.000314,1, 0.125953, 0.032096, 9.805789,1,0
1778253827518,   521.424,   521.419,-0.012927,-0.003592,-0.995383,-0.000130,-0.000036,-0.009957,-0.000076,-0.004508, 0.035029,1,-0.000138,-0.000022,-0.000017,1, 0.125916, 0.032176, 9.805789,1,0
1778253827539,   521.444,   521.439,-0.012393,-0.003970,-0.995221,-0.000124,-0.000041,-0.009956, 0.005357,-0.003774, 0.037016,1,-0.000205, 0.000014,-0.000020,1, 0.125849, 0.032071, 9.805790,1,0
1778253827566,   521.469,   521.469,-0.012630,-0.003383,-0.997149,-0.000128,-0.000036,-0.009966, 0.002000,-0.001134, 0.027100,1, 0.000001, 0.000570,-0.000342,1, 0.125844, 0.032040, 9.805790,1,0
1778253827588,   521.494,   521.489,-0.012698,-0.002474,-0.995855,-0.000126,-0.000026,-0.009960, 0.002517, 0.003596, 0.037908,1, 0.000163,-0.000252,-0.000502,1, 0.125909, 0.032074, 9.805789,1,0
1778253827609,   521.514,   521.509,-0.012985,-0.001818,-0.996615,-0.000130,-0.000020,-0.009962, 0.003795, 0.016613, 0.040365,1, 0.000626,-0.000246, 0.000100,1, 0.125940, 0.032092, 9.805789,1,0
1778253827636,   521.539,   521.539,-0.012738,-0.002205,-0.995793,-0.000128,-0.000022,-0.009953, 0.001125, 0.010534, 0.040389,1, 0.000332,-0.000068, 0.000530,1, 0.126045, 0.032164, 9.805787,1,0
1778253827658,   521.564,   521.559,-0.013410,-0.003755,-0.995146,-0.000135,-0.000036,-0.009959,-0.000522, 0.006387, 0.037449,1, 0.001687, 0.000461, 0.001280,1, 0.126074, 0.032370, 9.805786,1,0
1778253827680,   521.584,   521.579,-0.012686,-0.007360,-0.995849,-0.000129,-0.000071,-0.009957,-0.008840,-0.024684, 0.038113,1, 0.000627,-0.000655, 0.000982,1, 0.126175, 0.032534, 9.805784,1,0
1778253827707,   521.609,   521.609,-0.013201,-0.006170,-0.995054,-0.000127,-0.000071,-0.009942,-0.003255,-0.027997, 0.047633,1,-0.001390, 0.000766,-0.000402,1, 0.126179, 0.032468, 9.805784,1,0
1778253827728,   521.634,   521.629,-0.010460,-0.002888,-0.995355,-0.000108,-0.000031,-0.009958, 0.010837, 0.000899, 0.038404,1,-0.000605, 0.000023,-0.001131,1, 0.126187, 0.032493, 9.805784,1,0
1778253827750,   521.654,   521.649,-0.011732,-0.000099,-0.996130,-0.000115,-0.000003,-0.009960, 0.013180, 0.013386, 0.033084,1, 0.000362, 0.000721,-0.001101,1, 0.126110, 0.032599, 9.805785,1,0
1778253827777,   521.679,   521.679,-0.012184,-0.001527,-0.995729,-0.000124,-0.000011,-0.009960, 0.006698, 0.017582, 0.041020,1,-0.000318,-0.000465, 0.000434,1, 0.126195, 0.032544, 9.805784,1,0
1778253827798,   521.704,   521.699,-0.013583,-0.003803,-0.995182,-0.000136,-0.000035,-0.009950,-0.001861, 0.011484, 0.028548,1, 0.000213, 0.000817, 0.002025,1, 0.126196, 0.032638, 9.805783,1,0
1778253827821,   521.724,   521.724,-0.013165,-0.006906,-0.995529,-0.000133,-0.000063,-0.009950,-0.002872,-0.034940, 0.042977,1, 0.001209,-0.000406, 0.001090,1, 0.126231, 0.032823, 9.805782,1,0
1778253827847,   521.749,   521.749,-0.012731,-0.007506,-0.996558,-0.000129,-0.000075,-0.009955, 0.001352,-0.040862, 0.032890,1,-0.000365, 0.000025, 0.000376,1, 0.126201, 0.032734, 9.805783,1,0
1778253827868,   521.774,   521.769,-0.013447,-0.008562,-0.995350,-0.000135,-0.000091,-0.009953,-0.003206,-0.062830, 0.041722,1,-0.000967,-0.000532,-0.001721,1, 0.126297, 0.032585, 9.805782,1,0
1778253827891,   521.794,   521.794,-0.011201,-0.003545,-0.996242,-0.000112,-0.000043,-0.009957, 0.016478,-0.002628, 0.035990,1,-0.002240,-0.000742,-0.003146,1, 0.126347, 0.032064, 9.805783,1,0
1778253827917,   521.819,   521.819,-0.009244,-0.001783,-0.997061,-0.000095,-0.000019,-0.009968, 0.035764, 0.014395, 0.027958,1,-0.000811,-0.000044,-0.002610,1, 0.126416, 0.031853, 9.805783,1,0
1778253827938,   521.844,   521.839,-0.012602, 0.007585,-0.999091,-0.000127, 0.000068,-0.009987, 0.012265, 0.075887, 0.048997,1, 0.000024, 0.000217,-0.000650,1, 0.126417, 0.031621, 9.805784,1,0
1778253827961,   521.864,   521.864,-0.014196, 0.004234,-0.995524,-0.000146, 0.000050,-0.009945,-0.012889, 0.073282, 0.043029,1, 0.001148, 0.001130, 0.003047,1, 0.126288, 0.031794, 9.805785,1,0
1778253827987,   521.889,   521.889,-0.015948,-0.001367,-0.994570,-0.000160,-0.000022,-0.009941,-0.029839, 0.018763, 0.052376,1, 0.001728,-0.001216, 0.003166,1, 0.126597, 0.032226, 9.805779,1,0
1778253828008,   521.914,   521.909,-0.018727,-0.002659,-0.992531,-0.000183,-0.000019,-0.009938,-0.050249, 0.023818, 0.017130,1, 0.001253, 0.001275, 0.003945,1, 0.126394, 0.032697, 9.805781,1,0
1778253828031,   521.934,   521.934,-0.014499,-0.004058,-0.995546,-0.000145,-0.000037,-0.009977,-0.015614,-0.006267, 0.042799,1, 0.003939,-0.001749, 0.004441,1, 0.126628, 0.033643, 9.805775,1,0
1778253828057,   521.959,   521.959,-0.009667,-0.021027,-0.999222,-0.000096,-0.000190,-0.010004, 0.031802,-0.172045, 0.006751,1, 0.001351,-0.001718, 0.002055,1, 0.126653, 0.034202, 9.805773,1,0
1778253828079,   521.984,   521.979,-0.008068,-0.017874,-0.994590,-0.000091,-0.000191,-0.009948, 0.038117,-0.170716, 0.067716,1,-0.000994,-0.000313,-0.003394,1, 0.127060, 0.033676, 9.805769,1,0
1778253828101,   522.004,   522.004,-0.004366,-0.006149,-0.992235,-0.000038,-0.000052,-0.009927, 0.083941,-0.027817, 0.075272,1,-0.004642,-0.002086,-0.007829,1, 0.126823, 0.032341, 9.805777,1,0
1778253828127,   522.029,   522.029,-0.003999, 0.004041,-1.005376,-0.000035, 0.000021,-0.010070, 0.087225, 0.071146,-0.053593,1,-0.007162,-0.000098,-0.007971,1, 0.126446, 0.031301, 9.805785,1,0
1778253828149,   522.054,   522.049,-0.010034, 0.008733,-0.997789,-0.000093, 0.000081,-0.009997, 0.061594, 0.104489,-0.019717,1,-0.003672, 0.001540,-0.005804,1, 0.126413, 0.030380, 9.805788,1,0
1778253828171,   522.079,   522.074,-0.013520, 0.011598,-1.000385,-0.000133, 0.000117,-0.009991,-0.006163, 0.143349,-0.004639,1,-0.000630,-0.000999,-0.000544,1, 0.126457, 0.029595, 9.805790,1,0
1778253828197,   522.099,   522.099,-0.020696, 0.002653,-0.996897,-0.000194, 0.000024,-0.009960,-0.076287, 0.055760, 0.029569,1, 0.000120, 0.000395, 0.003208,1, 0.126660, 0.029742, 9.805787,1,0
1778253828219,   522.124,   522.119,-0.021652,-0.004816,-0.995887,-0.000225,-0.000043,-0.009938,-0.074889,-0.011729,-0.005326,1, 0.003198,-0.000259, 0.003374,1, 0.126558, 0.029771, 9.805788,1,0
1778253828242,   522.149,   522.144,-0.019878,-0.008771,-0.994305,-0.000198,-0.000072,-0.009941,-0.068946,-0.055763, 0.054996,1, 0.002328,-0.002079, 0.001729,1, 0.126053, 0.030323, 9.805793,1,0
1778253828267,   522.169,   522.169,-0.015964,-0.009828,-0.993821,-0.000156,-0.000095,-0.009960,-0.030538,-0.065868, 0.059734,1, 0.001691, 0.000959, 0.000769,1, 0.125981, 0.030566, 9.805793,1,0
1778253828289,   522.194,   522.189,-0.010459,-0.004938,-0.993633,-0.000110,-0.000049,-0.009944, 0.004241,-0.022234, 0.023746,1,-0.000043,-0.000965,-0.001319,1, 0.126033, 0.030677, 9.805792,1,0
1778253828312,   522.219,   522.214,-0.007828,-0.000811,-0.996079,-0.000073,-0.000009,-0.009974, 0.049389, 0.022604, 0.037588,1,-0.000531,-0.001802,-0.001746,1, 0.126209, 0.030540, 9.805790,1,0
1778253828337,   522.239,   522.239,-0.006363, 0.001272,-0.999710,-0.000061, 0.000013,-0.009991, 0.063616, 0.043167, 0.001988,1, 0.000287, 0.000655,-0.000026,1, 0.125996, 0.030704, 9.805793,1,0
1778253828359,   522.264,   522.259,-0.009449,-0.001198,-0.997084,-0.000094,-0.000012,-0.009975, 0.051340, 0.024208, 0.034849,1, 0.000391,-0.000142, 0.000941,1, 0.126106, 0.030719, 9.805791,1,0
1778253828382,   522.289,   522.284,-0.011710,-0.002396,-0.997182,-0.000113,-0.000024,-0.009966, 0.011228, 0.007395, 0.026780,1, 0.000151,-0.000901, 0.001384,1, 0.126094, 0.030892, 9.805791,1,0
1778253828407,   522.309,   522.309,-0.016460,-0.005330,-0.996003,-0.000164,-0.000056,-0.009960,-0.035034,-0.021265, 0.038333,1, 0.000438,-0.002309, 0.001300,1, 0.126461, 0.031018, 9.805785,1,0
1778253828429,   522.334,   522.329,-0.005904, 0.001071,-1.005405,-0.000107, 0.000015,-0.010035,-0.086176,-0.023395, 0.086800,1,-0.000626,-0.000377,-0.000183,1, 0.126734, 0.031260, 9.805781,1,0
1778253828452,   522.359,   522.354,-0.009912, 0.003523,-1.018137,-0.000077, 0.000034,-0.010068, 0.029658, 0.065126,-0.178736,1, 0.002984, 0.001778, 0.002324,1, 0.126804, 0.030672, 9.805782,1,0
1778253828477,   522.379,   522.379,-0.010158,-0.006346,-1.008115,-0.000115,-0.000067,-0.009987, 0.027323,-0.030806,-0.080453,1, 0.002202, 0.005226, 0.002188,1, 0.126774, 0.031497, 9.805780,1,0
1778253828499,   522.404,   522.399,-0.010393,-0.010159,-0.986854,-0.000104,-0.000092,-0.009931, 0.014304,-0.040963,-0.038393,1, 0.001786, 0.000474, 0.000763,1, 0.126855, 0.031685, 9.805779,1,0
1778253828526,   522.429,   522.429,-0.009879,-0.008090,-0.991704,-0.000093,-0.000077,-0.009946, 0.030028,-0.047527, 0.080483,1,-0.000158,-0.000586,-0.000798,1, 0.126928, 0.031805, 9.805777,1,0
1778253828548,   522.449,   522.449,-0.010827,-0.002137,-0.992152,-0.000107,-0.000021,-0.009932, 0.020711, 0.010596, 0.076086,1,-0.001547, 0.000468,-0.000627,1, 0.126868, 0.031504, 9.805779,1,0
1778253828569,   522.474,   522.469,-0.015723, 0.019636,-0.999238,-0.000160, 0.000188,-0.009987,-0.015934, 0.090573, 0.076623,1,-0.000266, 0.000262, 0.000082,1, 0.126967, 0.031305, 9.805779,1,0
1778253828596,   522.499,   522.499,-0.012493, 0.019103,-1.007931,-0.000121, 0.000189,-0.010100, 0.004663, 0.219127,-0.078658,1, 0.000160,-0.007338, 0.005598,1, 0.127409, 0.031792, 9.805771,1,0
1778253828618,   522.524,   522.519,-0.014214,-0.002787,-0.970795,-0.000119,-0.000023,-0.009782, 0.043236,-0.087022,-0.200778,1, 0.001655, 0.001977, 0.006840,1, 0.127215, 0.032975, 9.805769,1,0
1778253828639,   522.544,   522.539,-0.011449,-0.017391,-0.996964,-0.000111,-0.000164,-0.010013,-0.015444,-0.074358,-0.075908,1, 0.006377, 0.002618, 0.004511,1, 0.127592, 0.033423, 9.805763,1,0
1778253828666,   522.569,   522.569,-0.011840,-0.024024,-1.002593,-0.000125,-0.000242,-0.009971, 0.011645,-0.201977,-0.026319,1,-0.000575,-0.000442,-0.000670,1, 0.127771, 0.033598, 9.805760,1,0
1778253828688,   522.594,   522.589,-0.012832,-0.005689,-0.987454,-0.000126,-0.000055,-0.009855, 0.058390, 0.003398, 0.002864,1,-0.008852, 0.000382,-0.003526,1, 0.127309, 0.032792, 9.805769,1,0
1778253828709,   522.614,   522.609,-0.009971, 0.006659,-0.991369,-0.000087, 0.000052,-0.009884, 0.027972, 0.013321,-0.039283,1,-0.001980, 0.000782,-0.006088,1, 0.127494, 0.032557, 9.805767,1,0
1778253828736,   522.639,   522.639,-0.011782, 0.010347,-0.993482,-0.000116, 0.000091,-0.009917, 0.011878, 0.133612, 0.063037,1,-0.002638, 0.000999,-0.000258,1, 0.127391, 0.032056, 9.805770,1,0
1778253828758,   522.664,   522.659,-0.015484, 0.003342,-0.998749,-0.000148, 0.000042,-0.010009,-0.008137, 0.092557, 0.053212,1,-0.000186, 0.000747, 0.002507,1, 0.127336, 0.032068, 9.805771,1,0
1778253828779,   522.684,   522.679,-0.017360,-0.004248,-0.997318,-0.000167,-0.000034,-0.009982,-0.035122, 0.033271, 0.066421,1, 0.002913, 0.001053, 0.003725,1, 0.127243, 0.032591, 9.805770,1,0
1778253828806,   522.709,   522.709,-0.017706,-0.008425,-0.995444,-0.000177,-0.000084,-0.009957,-0.046413,-0.049183, 0.043799,1, 0.003939, 0.000217, 0.004259,1, 0.127221, 0.033559, 9.805767,1,0
1778253828828,   522.734,   522.729,-0.011641,-0.007120,-0.999720,-0.000131,-0.000036,-0.009940,-0.025717, 0.003951, 0.049609,1, 0.002579,-0.001255, 0.002561,1, 0.127566, 0.034385, 9.805760,1,0
1778253828849,   522.754,   522.749,-0.010618,-0.007119,-0.992914,-0.000111,-0.000079,-0.009900, 0.008465,-0.026062, 0.047746,1, 0.003219,-0.001833, 0.002814,1, 0.127576, 0.035244, 9.805757,1,0
1778253828877,   522.779,   522.779,-0.010852,-0.010970,-0.994474,-0.000110,-0.000113,-0.009936, 0.021272,-0.071906, 0.053297,1, 0.000357, 0.000516, 0.001606,1, 0.127681, 0.035688, 9.805754,1,0
1778253828898,   522.804,   522.799,-0.010210,-0.012313,-0.994696,-0.000103,-0.000122,-0.009964, 0.025614,-0.081185, 0.045699,1,-0.001100,-0.000752,-0.001068,1, 0.127693, 0.035541, 9.805755,1,0
1778253828920,   522.824,   522.819,-0.008909,-0.004178,-0.995484,-0.000088,-0.000046,-0.009961, 0.035722,-0.034988, 0.037322,1,-0.002280,-0.000499,-0.002885,1, 0.127821, 0.035136, 9.805754,1,0
1778253828947,   522.849,   522.849,-0.008889, 0.001245,-0.995408,-0.000089, 0.000012,-0.009956, 0.040664, 0.046716, 0.044142,1,-0.002230, 0.000470,-0.002123,1, 0.127816, 0.034442, 9.805757,1,0
1778253828968,   522.874,   522.869,-0.012250,-0.001203,-0.995960,-0.000120,-0.000010,-0.009963, 0.021092, 0.038584, 0.029481,1,-0.001476, 0.000765,-0.001311,1, 0.127715, 0.034069, 9.805759,1,0
1778253828990,   522.894,   522.889,-0.014502,-0.003339,-0.995039,-0.000143,-0.000033,-0.009952, 0.000854, 0.013532, 0.034836,1,-0.000729,-0.000306,-0.000278,1, 0.127598, 0.033970, 9.805761,1,0
1778253829017,   522.919,   522.919,-0.015691,-0.002772,-0.995660,-0.000158,-0.000030,-0.009954,-0.026354, 0.006719, 0.041676,1, 0.001044, 0.001276,-0.000082,1, 0.127482, 0.033938, 9.805762,1,0
1778253829038,   522.944,   522.939,-0.015516,-0.001433,-0.996306,-0.000154,-0.000013,-0.009967,-0.029181, 0.019429, 0.036536,1, 0.000073, 0.000329, 0.000279,1, 0.127190, 0.034389, 9.805765,1,0
1778253829061,   522.964,   522.964,-0.015640,-0.002240,-0.995757,-0.000159,-0.000019,-0.009957,-0.026175, 0.012754, 0.040722,1, 0.002027, 0.000452, 0.000471,1, 0.127189, 0.034788, 9.805763,1,0
1778253829087,   522.989,   522.989,-0.014311,-0.005035,-0.995757,-0.000147,-0.000048,-0.009956,-0.013155,-0.014321, 0.040723,1, 0.002061,-0.000337, 0.000602,1, 0.127195, 0.035117, 9.805762,1,0
1778253829108,   523.014,   523.009,-0.012736,-0.004881,-0.995484,-0.000128,-0.000049,-0.009961,-0.003722,-0.025749, 0.044877,1,-0.000466, 0.000498, 0.000655,1, 0.127150, 0.035171, 9.805762,1,0
1778253829131,   523.034,   523.034,-0.011571,-0.002897,-0.992407,-0.000117,-0.000037,-0.009953, 0.013680, 0.006882, 0.073575,1, 0.000936, 0.000328,-0.000285,1, 0.127144, 0.035318, 9.805762,1,0
1778253829157,   523.059,   523.059,-0.010419,-0.004418,-0.994042,-0.000103,-0.000042,-0.009954, 0.025126,-0.007982, 0.057538,1,-0.000464,-0.000931, 0.000190,1, 0.127330, 0.035325, 9.805759,1,0
1778253829178,   523.084,   523.079,-0.010752,-0.002516,-0.996284,-0.000108,-0.000024,-0.009955, 0.034052, 0.004001, 0.047029,1,-0.000073,-0.001011, 0.000276,1, 0.127369, 0.035291, 9.805759,1,0
1778253829201,   523.104,   523.104,-0.012050,-0.002338,-0.995820,-0.000122,-0.000028,-0.009960, 0.009193, 0.012307, 0.040102,1,-0.000010, 0.000291, 0.000526,1, 0.127358, 0.035236, 9.805759,1,0
1778253829227,   523.129,   523.129,-0.012990,-0.004625,-0.997069,-0.000129,-0.000044,-0.009966,-0.000054,-0.010103, 0.027852,1, 0.000057,-0.000268, 0.001088,1, 0.127349, 0.035247, 9.805759,1,0
1778253829248,   523.154,   523.149,-0.014032,-0.005581,-0.995131,-0.000137,-0.000056,-0.009959,-0.009523,-0.021803, 0.038967,1,-0.000506, 0.000373, 0.000107,1, 0.127336, 0.035235, 9.805760,1,0
1778253829271,   523.174,   523.174,-0.012741,-0.004371,-0.994892,-0.000133,-0.000042,-0.009952, 0.002365,-0.007735, 0.049198,1,-0.000852,-0.000982,-0.000100,1, 0.127337, 0.035099, 9.805760,1,0
1778253829297,   523.199,   523.199,-0.012775,-0.002962,-0.994387,-0.000128,-0.000034,-0.009943, 0.002146, 0.005900, 0.054152,1,-0.000391, 0.000353,-0.000794,1, 0.127414, 0.034935, 9.805760,1,0
1778253829319,   523.224,   523.219,-0.013367,-0.001755,-0.996476,-0.000130,-0.000021,-0.009967, 0.001139, 0.020832, 0.055653,1,-0.000258, 0.000041,-0.000102,1, 0.127422, 0.034840, 9.805760,1,0
1778253829341,   523.244,   523.244,-0.012071,-0.002092,-0.997021,-0.000123,-0.000020,-0.009967, 0.009084, 0.014281, 0.028324,1, 0.001031, 0.000214, 0.000225,1, 0.127455, 0.034825, 9.805759,1,0
1778253829367,   523.269,   523.269,-0.012249,-0.002433,-0.997671,-0.000125,-0.000024,-0.009968, 0.007241, 0.011121, 0.021952,1, 0.000657, 0.000546, 0.000316,1, 0.127344, 0.034996, 9.805760,1,0
1778253829389,   523.294,   523.289,-0.012367,-0.003763,-0.995761,-0.000128,-0.000038,-0.009955, 0.004410, 0.008120, 0.038783,1, 0.000571,-0.000012, 0.001389,1, 0.127327, 0.035126, 9.805760,1,0
1778253829411,   523.319,   523.314,-0.012608,-0.004515,-0.996092,-0.000129,-0.000045,-0.009954, 0.003668,-0.008825, 0.037435,1, 0.001333, 0.000554, 0.001573,1, 0.127295, 0.035496, 9.805759,1,0
1778253829437,   523.339,   523.339,-0.013113,-0.005693,-0.995415,-0.000131,-0.000057,-0.009951,-0.001159,-0.020200, 0.044068,1, 0.000948,-0.000363, 0.000604,1, 0.127449, 0.035658, 9.805757,1,0
1778253829459,   523.364,   523.359,-0.013269,-0.005693,-0.995224,-0.000132,-0.000059,-0.009951,-0.000974,-0.016858, 0.036873,1, 0.000649, 0.000188, 0.000380,1, 0.127420, 0.035753, 9.805757,1,0
1778253829482,   523.389,   523.384,-0.012462,-0.006010,-0.995775,-0.000124,-0.000064,-0.009958, 0.005284,-0.023327, 0.040541,1,-0.000342,-0.000527,-0.000475,1, 0.127513, 0.035598, 9.805757,1,0
1778253829507,   523.409,   523.409,-0.012137,-0.003482,-0.995919,-0.000124,-0.000036,-0.009963, 0.008391, 0.001392, 0.039131,1, 0.000158,-0.000390,-0.000606,1, 0.127430, 0.035548, 9.805758,1,0
1778253829529,   523.434,   523.429,-0.012235,-0.002060,-0.996338,-0.000121,-0.000021,-0.009954, 0.011665, 0.009430, 0.040166,1,-0.000744,-0.000939,-0.000832,1, 0.127553, 0.035448, 9.805757,1,0
1778253829552,   523.459,   523.454,-0.012114,-0.001534,-0.995777,-0.000124,-0.000014,-0.009953, 0.008928, 0.020348, 0.040522,1,-0.000158,-0.001112,-0.000058,1, 0.127757, 0.035386, 9.805754,1,0
1778253829577,   523.479,   523.479,-0.012617,-0.003473,-0.995522,-0.000127,-0.000033,-0.009955, 0.004151, 0.001437, 0.043017,1, 0.000629,-0.000623, 0.000443,1, 0.127902, 0.035514, 9.805752,1,0
1778253829599,   523.504,   523.499,-0.013359,-0.005293,-0.995056,-0.000133,-0.000053,-0.009945,-0.001793,-0.011842, 0.038537,1, 0.000527,-0.000836, 0.001196,1, 0.127948, 0.035691, 9.805750,1,0
1778253829622,   523.529,   523.524,-0.013322,-0.005947,-0.995733,-0.000134,-0.000056,-0.009954,-0.002681,-0.022382, 0.040942,1, 0.001105,-0.000737, 0.000346,1, 0.127968, 0.036013, 9.805749,1,0
1778253829647,   523.549,   523.549,-0.013467,-0.003514,-0.996375,-0.000131,-0.000039,-0.009966,-0.004071, 0.001530, 0.034647,1,-0.000786,-0.000286,-0.000054,1, 0.128007, 0.035962, 9.805749,1,0
1778253829669,   523.574,   523.569,-0.011979,-0.003830,-0.995509,-0.000121,-0.000039,-0.009950, 0.002412, 0.001526, 0.031597,1, 0.000206,-0.000473,-0.000322,1, 0.127969, 0.036021, 9.805749,1,0
1778253829692,   523.599,   523.594,-0.012421,-0.004556,-0.995203,-0.000122,-0.000046,-0.009957, 0.006192,-0.008627, 0.046139,1,-0.000326,-0.000007,-0.000278,1, 0.128003, 0.036039, 9.805748,1,0
1778253829718,   523.619,   523.619,-0.011557,-0.003487,-0.995706,-0.000117,-0.000033,-0.009958, 0.014647, 0.001827, 0.041211,1,-0.000253, 0.000283,-0.000157,1, 0.127974, 0.036012, 9.805749,1,0
1778253829739,   523.644,   523.639,-0.012617,-0.003837,-0.996920,-0.000125,-0.000040,-0.009965, 0.006150, 0.003677, 0.041006,1,-0.000658,-0.000240,-0.000452,1, 0.128085, 0.035949, 9.805748,1,0
1778253829766,   523.669,   523.669,-0.013324,-0.003840,-0.996549,-0.000131,-0.000038,-0.009963,-0.002626,-0.001814, 0.032944,1,-0.001226, 0.000351,-0.000508,1, 0.128025, 0.035802, 9.805749,1,0
1778253829788,   523.689,   523.689,-0.013307,-0.003690,-0.995765,-0.000130,-0.000037,-0.009958,-0.002539,-0.000402, 0.040634,1, 0.000421, 0.000497, 0.000015,1, 0.127947, 0.035794, 9.805750,1,0
1778253829809,   523.714,   523.709,-0.013160,-0.003571,-0.996046,-0.000134,-0.000037,-0.009958,-0.007802,-0.004836, 0.045148,1,-0.000148,-0.000068, 0.000412,1, 0.127940, 0.035769, 9.805750,1,0
1778253829836,   523.739,   523.739,-0.012619,-0.003317,-0.995919,-0.000125,-0.000034,-0.009960, 0.004229, 0.003263, 0.039121,1,-0.000365,-0.000213, 0.000189,1, 0.127988, 0.035784, 9.805750,1,0
1778253829858,   523.764,   523.759,-0.011437,-0.004050,-0.995702,-0.000117,-0.000041,-0.009957, 0.007399,-0.001991, 0.040340,1, 0.000048,-0.000631,-0.000368,1, 0.128065, 0.035790, 9.805748,1,0
1778253829879,   523.784,   523.779,-0.012022,-0.004512,-0.995960,-0.000124,-0.000046,-0.009956, 0.009265,-0.017204, 0.049012,1,-0.000675,-0.000524,-0.000147,1, 0.128114, 0.035720, 9.805748,1,0
1778253829906,   523.809,   523.809,-0.012405,-0.004273,-0.995569,-0.000124,-0.000043,-0.009958, 0.006403,-0.006286, 0.042549,1,-0.000401,-0.000588,-0.001016,1, 0.128073, 0.035602, 9.805749,1,0
1778253829928,   523.834,   523.829,-0.012941,-0.003649,-0.995213,-0.000130,-0.000037,-0.009948,-0.001082,-0.005643, 0.047391,1,-0.000862,-0.000314,-0.000940,1, 0.128086, 0.035410, 9.805750,1,0
1778253829949,   523.854,   523.849,-0.013204,-0.003159,-0.996121,-0.000129,-0.000034,-0.009962,-0.000338,-0.001698, 0.036892,1,-0.000134,-0.000466,-0.000695,1, 0.128139, 0.035368, 9.805749,1,0
1778253829976,   523.879,   523.879,-0.013407,-0.003401,-0.996274,-0.000131,-0.000033,-0.009966,-0.003266, 0.001920, 0.035641,1, 0.000175,-0.000584,-0.000826,1, 0.128233, 0.035282, 9.805748,1,0
1778253829998,   523.904,   523.899,-0.012877,-0.003383,-0.995981,-0.000127,-0.000034,-0.009959,-0.000758, 0.002250, 0.040349,1,-0.000398,-0.000283, 0.000353,1, 0.128204, 0.035195, 9.805749,1,0
1778253830019,   523.924,   523.919,-0.012515,-0.002297,-0.997048,-0.000125,-0.000022,-0.009967,-0.000798, 0.003507, 0.048011,1,-0.000154, 0.000072,-0.000233,1, 0.128178, 0.035068, 9.805750,1,0
1778253830046,   523.949,   523.949,-0.013182,-0.003745,-0.996047,-0.000132,-0.000037,-0.009961,-0.001130,-0.001564, 0.037862,1, 0.000503,-0.000707, 0.000431,1, 0.128167, 0.035178, 9.805749,1,0
1778253830068,   523.974,   523.969,-0.012605,-0.004672,-0.995672,-0.000128,-0.000047,-0.009954, 0.000202,-0.011384, 0.049189,1, 0.000035,-0.000652, 0.000384,1, 0.128234, 0.035220, 9.805748,1,0
1778253830090,   523.994,   523.989,-0.012220,-0.003604,-0.995369,-0.000122,-0.000037,-0.009957, 0.008489,-0.011278, 0.039132,1,-0.000394,-0.000083, 0.000318,1, 0.128329, 0.035260, 9.805747,1,0
1778253830117,   524.019,   524.019,-0.012281,-0.004332,-0.996167,-0.000120,-0.000041,-0.009967, 0.007766,-0.007293, 0.036685,1, 0.000314,-0.000440, 0.000104,1, 0.128216, 0.035197, 9.805749,1,0
1778253830138,   524.044,   524.039,-0.012860,-0.004664,-0.996343,-0.000128,-0.000046,-0.009963, 0.008044,-0.015065, 0.047980,1,-0.000261,-0.000030,-0.000212,1, 0.128207, 0.035145, 9.805749,1,0
1778253830160,   524.064,   524.059,-0.013052,-0.004424,-0.995948,-0.000131,-0.000044,-0.009962,-0.000727,-0.006051, 0.045136,1,-0.000691, 0.000567,-0.000398,1, 0.128249, 0.035085, 9.805749,1,0
1778253830187,   524.089,   524.089,-0.013095,-0.003967,-0.995536,-0.000131,-0.000038,-0.009955,-0.000152,-0.003811, 0.042872,1,-0.000502,-0.000624,-0.000093,1, 0.128288, 0.035078, 9.805748,1,0
1778253830208,   524.114,   524.109,-0.012397,-0.003842,-0.996009,-0.000122,-0.000034,-0.009958, 0.003605, 0.001054, 0.046654,1,-0.000113,-0.000378,-0.001203,1, 0.128286, 0.035078, 9.805748,1,0
1778253830230,   524.134,   524.129,-0.012890,-0.003579,-0.995683,-0.000130,-0.000034,-0.009958, 0.004682, 0.003314, 0.043191,1,-0.000454, 0.000388,-0.000136,1, 0.128247, 0.035107, 9.805749,1,0
1778253830257,   524.159,   524.159,-0.013045,-0.004264,-0.995477,-0.000131,-0.000042,-0.009956, 0.000306,-0.006872, 0.043456,1,-0.000729,-0.000405, 0.000431,1, 0.128244, 0.034919, 9.805749,1,0
1778253830278,   524.184,   524.179,-0.012184,-0.002666,-0.996283,-0.000123,-0.000028,-0.009964,-0.000085, 0.004073, 0.042371,1,-0.000760,-0.000597,-0.000088,1, 0.128261, 0.034810, 9.805749,1,0
1778253830301,   524.204,   524.204,-0.012770,-0.002640,-0.995121,-0.000126,-0.000027,-0.009951, 0.003107, 0.008931, 0.046947,1,-0.001033, 0.000470, 0.000550,1, 0.128319, 0.034791, 9.805749,1,0
1778253830327,   524.229,   524.229,-0.012041,-0.002931,-0.995208,-0.000123,-0.000030,-0.009955, 0.010262, 0.005996, 0.046096,1,-0.000467,-0.000401,-0.000013,1, 0.128355, 0.034728, 9.805749,1,0
1778253830348,   524.254,   524.249,-0.012883,-0.004830,-0.995707,-0.000128,-0.000048,-0.009959, 0.001266,-0.010372, 0.043582,1, 0.000332, 0.000127, 0.000193,1, 0.128344, 0.034870, 9.805748,1,0
1778253830371,   524.274,   524.274,-0.013473,-0.004024,-0.995649,-0.000134,-0.000041,-0.009958,-0.003770,-0.004470, 0.041769,1,-0.000121,-0.000493, 0.000301,1, 0.128374, 0.034990, 9.805747,1,0
1778253830397,   524.299,   524.299,-0.013071,-0.003679,-0.995487,-0.000132,-0.000039,-0.009958, 0.000178,-0.001045, 0.043357,1, 0.000149, 0.000560,-0.000079,1, 0.128344, 0.035036, 9.805748,1,0
1778253830418,   524.324,   524.319,-0.012774,-0.003723,-0.995436,-0.000126,-0.000035,-0.009962, 0.003358, 0.001746, 0.039024,1,-0.000590, 0.000336, 0.000525,1, 0.128323, 0.034948, 9.805748,1,0
1778253830441,   524.344,   524.344,-0.012109,-0.003883,-0.995415,-0.000120,-0.000036,-0.009956, 0.009479,-0.003128, 0.044062,1, 0.000372, 0.000818, 0.000353,1, 0.128204, 0.034963, 9.805750,1,0
1778253830467,   524.369,   524.369,-0.012510,-0.003642,-0.994721,-0.000125,-0.000038,-0.009948, 0.005488,-0.000740, 0.050864,1,-0.000181, 0.000274,-0.000086,1, 0.128160, 0.034972, 9.805750,1,0
1778253830488,   524.394,   524.389,-0.012922,-0.003307,-0.995330,-0.000128,-0.000035,-0.009958, 0.001369, 0.003116, 0.032403,1,-0.000295,-0.000109, 0.000166,1, 0.128147, 0.034963, 9.805750,1,0
1778253830511,   524.414,   524.414,-0.012750,-0.003507,-0.995878,-0.000127,-0.000035,-0.009959, 0.003192, 0.000587, 0.039524,1, 0.000162, 0.000258, 0.000006,1, 0.128217, 0.034986, 9.805749,1,0
1778253830537,   524.439,   524.439,-0.013193,-0.003252,-0.995788,-0.000133,-0.000034,-0.009960,-0.007701, 0.002252, 0.046673,1, 0.000356, 0.000925, 0.000191,1, 0.128127, 0.035029, 9.805751,1,0
1778253830559,   524.464,   524.459,-0.012911,-0.004258,-0.995626,-0.000132,-0.000039,-0.009960, 0.002083, 0.001520, 0.040790,1, 0.000405, 0.000479, 0.000695,1, 0.128037, 0.035013, 9.805752,1,0
1778253830581,   524.484,   524.484,-0.012885,-0.005258,-0.995229,-0.000128,-0.000053,-0.009950, 0.001722,-0.016467, 0.045892,1, 0.000276,-0.000738, 0.000597,1, 0.128106, 0.035100, 9.805751,1,0
1778253830607,   524.509,   524.509,-0.012854,-0.004314,-0.995445,-0.000130,-0.000044,-0.009951, 0.002055,-0.007164, 0.043773,1, 0.000066, 0.000007,-0.000266,1, 0.128109, 0.035143, 9.805750,1,0
1778253830629,   524.534,   524.529,-0.012201,-0.003481,-0.995516,-0.000121,-0.000035,-0.009955, 0.007168, 0.005426, 0.032766,1, 0.000696,-0.000188,-0.000447,1, 0.128046, 0.035185, 9.805751,1,0
1778253830652,   524.559,   524.554,-0.012891,-0.003722,-0.995820,-0.000128,-0.000037,-0.009955, 0.001666,-0.001419, 0.040092,1,-0.000082, 0.000225,-0.000167,1, 0.128072, 0.035081, 9.805751,1,0
1778253830677,   524.579,   524.579,-0.013042,-0.003177,-0.996039,-0.000131,-0.000031,-0.009959, 0.008181, 0.006641, 0.032285,1, 0.000092, 0.000127, 0.000530,1, 0.128055, 0.035056, 9.805751,1,0
1778253830699,   524.604,   524.599,-0.013297,-0.003452,-0.995902,-0.000132,-0.000033,-0.009959,-0.000761, 0.001000, 0.034456,1,-0.000238, 0.000478, 0.000049,1, 0.127998, 0.034971, 9.805753,1,0
1778253830722,   524.629,   524.624,-0.012832,-0.002145,-0.995870,-0.000131,-0.000024,-0.009959, 0.002129, 0.014071, 0.039599,1, 0.000502, 0.000923, 0.000597,1, 0.127935, 0.035124, 9.805753,1,1
1778253830747,   524.649,   524.649,-0.012958,-0.002158,-0.996015,-0.000129,-0.000025,-0.009956, 0.000952, 0.014084, 0.038182,1, 0.000597,-0.000350, 0.001220,1, 0.128041, 0.035263, 9.805751,1,1
1778253830769,   524.674,   524.669,-0.013180,-0.008245,-0.995081,-0.000132,-0.000080,-0.009949, 0.003499,-0.022808, 0.036497,1,-0.000123, 0.000418, 0.001674,1, 0.128051, 0.035348, 9.805750,1,1
1778253830792,   524.699,   524.694,-0.014384,-0.006875,-0.994787,-0.000143,-0.000071,-0.009944,-0.013059,-0.032067, 0.050226,1, 0.000003, 0.000173,-0.000484,1, 0.127992, 0.035353, 9.805751,1,1
1778253830817,   524.719,   524.719,-0.013044,-0.005258,-0.995780,-0.000128,-0.000049,-0.009963, 0.000164,-0.016171, 0.040486,1, 0.000186,-0.000348,-0.001287,1, 0.128093, 0.035401, 9.805750,1,1
1778253830839,   524.744,   524.739,-0.009138,-0.001486,-0.996586,-0.000093,-0.000016,-0.009959, 0.029994,-0.009953, 0.041204,1,-0.001488,-0.000620,-0.001597,1, 0.128160, 0.035365, 9.805749,1,1
1778253830862,   524.769,   524.764,-0.011531,-0.004027,-0.997029,-0.000111,-0.000040,-0.009967, 0.015094,-0.004370, 0.028238,1,-0.001475,-0.000349,-0.001064,1, 0.128184, 0.035077, 9.805750,1,1
1778253830888,   524.789,   524.789,-0.012581,-0.004201,-1.005109,-0.000118,-0.000058,-0.009998, 0.004585,-0.006124,-0.051004,1,-0.003541,-0.000598, 0.000148,1, 0.127978, 0.034958, 9.805753,1,1
1778253830909,   524.814,   524.809,-0.009335,-0.004771,-0.990568,-0.000120,-0.000015,-0.009919,-0.008933, 0.020677, 0.002099,1,-0.000858, 0.000215,-0.000740,1, 0.128022, 0.034807, 9.805753,1,1
1778253830932,   524.839,   524.834,-0.015421,-0.003180,-0.986653,-0.000163,-0.000045,-0.009839,-0.023217, 0.003564, 0.129995,1,-0.001302, 0.002497,-0.000615,1, 0.127937, 0.034710, 9.805754,1,1
1778253830958,   524.859,   524.859,-0.015675, 0.001730,-0.991290,-0.000158,-0.000007,-0.009906,-0.025610, 0.051572, 0.084516,1,-0.003071, 0.000096,-0.000368,1, 0.128101, 0.034513, 9.805753,1,1
1778253830979,   524.884,   524.879,-0.019734,-0.002432,-0.996787,-0.000146,-0.000013,-0.009998,-0.017177, 0.032557, 0.029533,1, 0.000805, 0.000736, 0.001395,1, 0.128021, 0.034771, 9.805753,1,1
1778253831006,   524.909,   524.909,-0.012410,-0.006178,-1.003419,-0.000118,-0.000056,-0.010049, 0.006516,-0.025556,-0.034430,1, 0.002410,-0.002127, 0.001545,1, 0.128287, 0.035103, 9.805748,1,1
1778253831028,   524.929,   524.929,-0.009444,-0.006705,-1.010606,-0.000075,-0.000073,-0.010035, 0.035580,-0.030895,-0.104911,1, 0.002501,-0.001401, 0.001380,1, 0.128239, 0.034898, 9.805749,1,1
1778253831049,   524.954,   524.949,-0.010521,-0.007627,-0.994058,-0.000097,-0.000080,-0.009963, 0.021676,-0.043641, 0.012799,1,-0.000350, 0.002389,-0.000834,1, 0.128131, 0.035048, 9.805750,1,1
1778253831076,   524.979,   524.979,-0.009563,-0.003278,-0.992742,-0.000101,-0.000038,-0.009930, 0.034417, 0.002721, 0.070279,1,-0.001752, 0.000756,-0.001475,1, 0.128171, 0.034812, 9.805751,1,1
1778253831098,   525.004,   524.999,-0.011794,-0.001261,-0.996578,-0.000119,-0.000009,-0.009953, 0.019980, 0.017478, 0.067843,1,-0.002361,-0.001359,-0.001442,1, 0.128374, 0.034479, 9.805749,1,1
1778253831119,   525.024,   525.019,-0.013943,-0.002365,-0.996420,-0.000138,-0.000021,-0.009957,-0.005032, 0.014612, 0.033186,1,-0.000345, 0.000708,-0.000047,1, 0.128296, 0.034379, 9.805751,1,1
1778253831146,   525.049,   525.049,-0.014751,-0.002511,-0.997151,-0.000146,-0.000029,-0.009966,-0.016339, 0.009609, 0.027041,1,-0.000105,-0.000360,-0.000122,1, 0.128335, 0.034229, 9.805751,1,1
1778253831168,   525.074,   525.069,-0.014981,-0.002597,-0.995586,-0.000151,-0.000029,-0.009956,-0.016728, 0.017507, 0.026087,1,-0.000398, 0.000118,-0.000252,1, 0.128276, 0.034203, 9.805752,1,1
1778253831189,   525.094,   525.089,-0.013915,-0.002722,-0.995487,-0.000141,-0.000028,-0.009952,-0.023753, 0.008919, 0.041249,1, 0.000004,-0.000046, 0.000618,1, 0.128305, 0.034285, 9.805751,1,1
1778253831216,   525.119,   525.119,-0.012955,-0.003490,-0.996189,-0.000127,-0.000036,-0.009954, 0.001180, 0.000064, 0.036472,1,-0.000494, 0.001086, 0.000923,1, 0.128194, 0.034270, 9.805752,1,1
1778253831238,   525.144,   525.139,-0.011365,-0.004632,-0.996094,-0.000115,-0.000046,-0.009954, 0.013469,-0.000086, 0.047094,1, 0.000984, 0.000235, 0.000688,1, 0.128046, 0.034548, 9.805753,1,1
1778253831260,   525.164,   525.159,-0.010984,-0.004170,-0.995753,-0.000113,-0.000044,-0.009949, 0.014725,-0.018988, 0.037419,1, 0.000629,-0.000330, 0.000341,1, 0.128040, 0.034774, 9.805753,1,1
1778253831286,   525.189,   525.189,-0.011852,-0.003558,-0.995773,-0.000116,-0.000036,-0.009959, 0.011840,-0.000065, 0.040550,1, 0.000052,-0.000116,-0.000044,1, 0.128077, 0.034824, 9.805752,1,1
1778253831308,   525.214,   525.209,-0.013124,-0.005691,-0.993954,-0.000130,-0.000057,-0.009938, 0.008570,-0.013023, 0.026949,1,-0.000070,-0.000311,-0.000055,1, 0.128024, 0.034836, 9.805753,1,1
1778253831330,   525.234,   525.229,-0.013535,-0.005073,-0.995576,-0.000135,-0.000050,-0.009954,-0.007152,-0.020173, 0.029187,1,-0.000768,-0.000697,-0.000258,1, 0.128148, 0.034784, 9.805751,1,1
1778253831357,   525.259,   525.259,-0.013399,-0.002770,-0.996657,-0.000134,-0.000028,-0.009963,-0.003334, 0.007552, 0.031885,1,-0.000807, 0.000295,-0.000537,1, 0.128056, 0.034690, 9.805753,1,1
1778253831378,   525.284,   525.279,-0.014583, 0.001558,-0.987291,-0.000145, 0.000004,-0.009899, 0.003037, 0.024468, 0.041245,1,-0.000367, 0.000165, 0.000083,1, 0.128127, 0.034513, 9.805752,1,1
1778253831400,   525.304,   525.299,-0.014339,-0.000729,-0.988539,-0.000140,-0.000018,-0.009882, 0.006340, 0.049140,-0.024697,1,-0.000019,-0.000793,-0.000359,1, 0.128056, 0.034598, 9.805753,1,1
1778253831427,   525.329,   525.329,-0.015286,-0.002949,-0.987317,-0.000144,-0.000030,-0.009886,-0.021894, 0.006065, 0.123479,1, 0.003729, 0.002854, 0.000279,1, 0.127885, 0.035102, 9.805754,1,1
1778253831448,   525.354,   525.349,-0.013090,-0.007195,-1.000721,-0.000130,-0.000063,-0.010014,-0.013173,-0.019967, 0.101463,1, 0.000067, 0.000577, 0.000837,1, 0.127962, 0.035330, 9.805752,1,1
1778253831470,   525.374,   525.369,-0.012269,-0.005517,-0.997325,-0.000126,-0.000055,-0.009985,-0.010374,-0.023651, 0.077237,1,-0.000074, 0.000803, 0.000190,1, 0.127910, 0.035431, 9.805752,1,1
1778253831497,   525.399,   525.399,-0.010436,-0.003540,-0.996019,-0.000106,-0.000028,-0.009980, 0.025482, 0.000636, 0.038138,1,-0.000000,-0.000726,-0.000049,1, 0.127847, 0.035350, 9.805753,1,1
1778253831518,   525.424,   525.419,-0.010556,-0.005278,-0.995522,-0.000130,-0.000027,-0.009966, 0.081042,-0.002986, 0.003481,1,-0.001571, 0.002761,-0.000024,1, 0.127617, 0.035274, 9.805757,1,1
1778253831541,   525.444,   525.444,-0.012347,-0.006274,-0.996613,-0.000125,-0.000061,-0.009986, 0.006520,-0.026331, 0.032322,1,-0.000038,-0.000485, 0.000292,1, 0.127614, 0.035195, 9.805757,1,1
1778253831567,   525.469,   525.469,-0.015122,-0.005955,-0.995352,-0.000148,-0.000056,-0.009963,-0.020724,-0.023362, 0.044684,1,-0.000716, 0.000262,-0.000714,1, 0.127559, 0.035012, 9.805758,1,1
1778253831588,   525.494,   525.489,-0.013897,-0.000919,-0.996562,-0.000144,-0.000013,-0.009952,-0.016937, 0.003130, 0.040370,1,-0.000201,-0.000470,-0.001015,1, 0.127581, 0.034946, 9.805758,1,1
1778253831611,   525.514,   525.514,-0.012239,-0.000907,-0.996282,-0.000122,-0.000009,-0.009960, 0.007581, 0.025997, 0.035570,1,-0.000098, 0.000113, 0.000261,1, 0.127602, 0.034886, 9.805758,1,1
1778253831637,   525.539,   525.539,-0.011620,-0.002879,-0.994812,-0.000115,-0.000029,-0.009954, 0.013616, 0.006904, 0.049984,1, 0.000493, 0.000315, 0.001009,1, 0.127564, 0.035153, 9.805758,1,1
1778253831658,   525.564,   525.559,-0.013039,-0.007258,-0.995417,-0.000129,-0.000070,-0.009958, 0.002489,-0.026883, 0.038534,1, 0.001071, 0.000502, 0.000134,1, 0.127472, 0.035388, 9.805758,1,1
1778253831681,   525.584,   525.584,-0.012607,-0.004632,-0.995856,-0.000127,-0.000050,-0.009963, 0.003678,-0.009999, 0.039752,1,-0.000080,-0.000188,-0.000457,1, 0.127315, 0.035423, 9.805759,1,1
1778253831707,   525.609,   525.609,-0.012683,-0.003264,-0.995638,-0.000128,-0.000034,-0.009964, 0.002860, 0.003353, 0.041885,1,-0.000520, 0.000224,-0.000155,1, 0.127231, 0.035346, 9.805761,1,1
1778253831729,   525.634,   525.629,-0.012332,-0.002167,-0.996228,-0.000124,-0.000024,-0.009964, 0.002024, 0.000723, 0.038660,1,-0.000388, 0.000396,-0.000051,1, 0.127202, 0.035265, 9.805761,1,1
1778253831751,   525.654,   525.654,-0.012163,-0.005028,-0.997211,-0.000123,-0.000044,-0.009966, 0.007936,-0.014065, 0.026467,1, 0.000462, 0.000011,-0.000071,1, 0.127212, 0.035258, 9.805761,1,1
1778253831777,   525.679,   525.679,-0.012938,-0.005145,-0.996582,-0.000131,-0.000049,-0.009959, 0.000260,-0.015245, 0.032631,1, 0.000003, 0.000310,-0.000456,1, 0.127126, 0.035215, 9.805762,1,1
1778253831799,   525.704,   525.699,-0.012239,-0.003344,-0.996623,-0.000120,-0.000029,-0.009971,-0.004363, 0.009010, 0.049382,1,-0.001269, 0.000648,-0.000522,1, 0.127058, 0.035071, 9.805764,1,1
1778253831821,   525.724,   525.724,-0.012785,-0.003772,-0.996108,-0.000128,-0.000035,-0.009961, 0.001727,-0.001959, 0.037282,1,-0.000113, 0.000538,-0.000430,1, 0.127062, 0.035061, 9.805764,1,1
1778253831847,   525.749,   525.749,-0.013250,-0.001963,-0.995751,-0.000133,-0.000020,-0.009961,-0.002894, 0.015828, 0.040780,1, 0.000284, 0.000042, 0.000003,1, 0.127042, 0.035086, 9.805764,1,1
1778253831869,   525.774,   525.769,-0.012444,-0.004004,-0.995962,-0.000123,-0.000037,-0.009963, 0.000933, 0.003788, 0.048649,1, 0.000451,-0.000017, 0.001030,1, 0.127087, 0.035168, 9.805763,1,1
1778253831892,   525.799,   525.794,-0.013226,-0.004337,-0.996240,-0.000130,-0.000042,-0.009965,-0.002623,-0.007267, 0.035984,1, 0.000062,-0.000205,-0.000344,1, 0.127091, 0.035270, 9.805763,1,1
1778253831917,   525.819,   525.819,-0.012580,-0.004220,-0.995632,-0.000126,-0.000044,-0.009961, 0.003803,-0.006081, 0.041948,1,-0.000473,-0.000594,-0.000307,1, 0.127193, 0.035291, 9.805761,1,1
1778253831939,   525.844,   525.839,-0.012794,-0.004268,-0.995660,-0.000127,-0.000044,-0.009961, 0.008469,-0.009310, 0.040483,1,-0.000051, 0.001148,-0.000025,1, 0.127087, 0.035350, 9.805762,1,1
1778253831962,   525.869,   525.864,-0.012649,-0.003757,-0.996027,-0.000125,-0.000036,-0.009963, 0.003144,-0.001422, 0.038076,1, 0.000260,-0.000928,-0.000007,1, 0.127219, 0.035434, 9.805760,1,1
1778253831987,   525.889,   525.889,-0.012251,-0.004862,-0.995632,-0.000122,-0.000049,-0.009957, 0.007105,-0.012394, 0.041947,1,-0.000780, 0.000009, 0.000515,1, 0.127251, 0.035266, 9.805761,1,1
1778253832009,   525.914,   525.909,-0.013449,-0.004203,-0.995639,-0.000133,-0.000044,-0.009961, 0.000634,-0.012895, 0.035562,1,-0.000130,-0.000071,-0.001403,1, 0.127219, 0.035224, 9.805761,1,1
1778253832032,   525.939,   525.934,-0.012618,-0.002116,-0.995588,-0.000125,-0.000024,-0.009955, 0.003465, 0.014348, 0.042383,1,-0.000382,-0.000560,-0.000761,1, 0.127226, 0.035092, 9.805762,1,1
1778253832057,   525.959,   525.959,-0.013083,-0.002431,-0.995016,-0.000130,-0.000023,-0.009949,-0.001004, 0.011248, 0.047989,1, 0.000219,-0.000300, 0.000744,1, 0.127309, 0.035090, 9.805760,1,1
1778253832079,   525.984,   525.979,-0.013028,-0.003651,-0.995644,-0.000130,-0.000033,-0.009960, 0.002785, 0.010212, 0.037106,1, 0.000402, 0.000336, 0.000153,1, 0.127287, 0.035137, 9.805761,1,1
1778253832102,   526.009,   526.004,-0.012840,-0.003500,-0.994111,-0.000129,-0.000037,-0.009942, 0.001232, 0.000885, 0.056860,1,-0.000162, 0.000552, 0.000746,1, 0.127137, 0.035201, 9.805762,1,1
1778253832128,   526.029,   526.029,-0.012797,-0.004720,-0.994829,-0.000130,-0.000046,-0.009949, 0.001652,-0.010996, 0.049824,1, 0.000421, 0.000003,-0.000193,1, 0.127145, 0.035306, 9.805762,1,1
1778253832149,   526.054,   526.049,-0.012473,-0.004621,-0.994630,-0.000127,-0.000045,-0.009950, 0.001335,-0.016654, 0.043144,1,-0.000186,-0.000448, 0.000390,1, 0.127130, 0.035411, 9.805762,1,1
1778253832172,   526.079,   526.074,-0.013006,-0.004775,-0.994836,-0.000130,-0.000048,-0.009949,-0.000237,-0.011422, 0.049746,1,-0.000324,-0.000812,-0.000634,1, 0.127333, 0.035397, 9.805759,1,1
1778253832198,   526.099,   526.099,-0.012398,-0.004333,-0.996230,-0.000126,-0.000045,-0.009962, 0.005752,-0.007154, 0.036084,1, 0.000118, 0.000029,-0.000967,1, 0.127330, 0.035342, 9.805759,1,1
1778253832219,   526.124,   526.119,-0.012213,-0.003406,-0.994984,-0.000121,-0.000035,-0.009954, 0.010246,-0.003778, 0.035634,1,-0.000581,-0.000255,-0.000432,1, 0.127331, 0.035249, 9.805760,1,1
1778253832246,   526.149,   526.149,-0.012555,-0.003258,-0.995570,-0.000124,-0.000034,-0.009953, 0.004170, 0.003185, 0.042552,1,-0.000753, 0.000207,-0.000626,1, 0.127289, 0.035112, 9.805761,1,1
1778253832268,   526.169,   526.169,-0.013022,-0.002635,-0.996081,-0.000130,-0.000027,-0.009960,-0.000441, 0.009227, 0.037543,1,-0.000409, 0.000867,-0.000366,1, 0.127230, 0.035055, 9.805762,1,1
1778253832289,   526.194,   526.189,-0.013786,-0.003093,-0.994642,-0.000138,-0.000034,-0.009951,-0.005620, 0.001299, 0.027085,1, 0.000165, 0.000169,-0.000224,1, 0.127123, 0.035141, 9.805763,1,1
1778253832316,   526.219,   526.219,-0.012927,-0.003623,-0.996717,-0.000129,-0.000036,-0.009969, 0.000294,-0.000271, 0.031311,1, 0.000446, 0.000334, 0.000348,1, 0.127055, 0.035275, 9.805763,1,1
1778253832338,   526.244,   526.239,-0.012810,-0.003574,-0.994965,-0.000127,-0.000036,-0.009949,-0.002735, 0.002513, 0.034215,1,-0.000217,-0.000670,-0.000109,1, 0.127055, 0.035304, 9.805763,1,1
1778253832359,   526.264,   526.259,-0.012866,-0.003809,-0.996106,-0.000128,-0.000039,-0.009961,-0.000721, 0.005347, 0.030817,1, 0.000238, 0.000257,-0.000054,1, 0.127044, 0.035369, 9.805763,1,1
1778253832386,   526.289,   526.289,-0.012464,-0.003747,-0.996551,-0.000124,-0.000040,-0.009961, 0.004865,-0.001453, 0.032939,1, 0.000869,-0.000193, 0.000752,1, 0.127106, 0.035319, 9.805762,1,1
1778253832408,   526.314,   526.309,-0.012742,-0.006113,-0.995450,-0.000126,-0.000061,-0.009957, 0.006299,-0.023416, 0.039043,1,-0.000198,-0.000172,-0.000020,1, 0.127184, 0.035400, 9.805761,1,1
1778253832430,   526.334,   526.329,-0.012388,-0.004116,-0.996127,-0.000123,-0.000045,-0.009963, 0.006375,-0.013099, 0.043654,1,-0.000204,-0.000044, 0.000054,1, 0.127161, 0.035370, 9.805761,1,1
1778253832456,   526.359,   526.359,-0.011710,-0.002976,-0.997489,-0.000119,-0.000034,-0.009973, 0.012364, 0.006155, 0.023739,1, 0.000918, 0.000114,-0.000816,1, 0.127199, 0.035364, 9.805761,1,1
1778253832478,   526.384,   526.379,-0.013262,-0.001874,-0.995576,-0.000131,-0.000018,-0.009956, 0.006934, 0.017056, 0.033089,1, 0.000551,-0.000003,-0.000461,1, 0.127217, 0.035327, 9.805761,1,1
1778253832500,   526.404,   526.399,-0.013543,-0.003005,-0.995719,-0.000135,-0.000028,-0.009955, 0.003912, 0.015821, 0.031910,1, 0.000237, 0.000719, 0.000480,1, 0.127214, 0.035327, 9.805761,1,1
1778253832527,   526.429,   526.429,-0.013603,-0.004800,-0.995829,-0.000136,-0.000049,-0.009956,-0.006250,-0.011629, 0.040015,1,-0.000349, 0.000416, 0.000279,1, 0.127141, 0.035433, 9.805761,1,1
1778253832548,   526.454,   526.449,-0.013576,-0.003958,-0.995793,-0.000137,-0.000040,-0.009956,-0.007633,-0.001216, 0.040020,1,-0.000784,-0.000203, 0.000035,1, 0.127173, 0.035247, 9.805762,1,1
1778253832570,   526.474,   526.469,-0.012909,-0.004202,-0.995949,-0.000128,-0.000044,-0.009953,-0.005993,-0.008510, 0.042060,1,-0.000228,-0.000422, 0.000163,1, 0.127166, 0.035235, 9.805762,1,1
1778253832597,   526.499,   526.499,-0.011747,-0.003146,-0.996103,-0.000117,-0.000034,-0.009957, 0.012129, 0.004438, 0.037321,1, 0.000074,-0.000133,-0.000385,1, 0.127333, 0.035292, 9.805759,1,1
1778253832618,   526.524,   526.519,-0.012045,-0.003760,-0.995042,-0.000119,-0.000038,-0.009950, 0.019561, 0.001295, 0.033841,1,-0.000558,-0.000107, 0.000038,1, 0.127367, 0.035259, 9.805759,1,1
1778253832640,   526.544,   526.539,-0.012989,-0.004642,-0.995683,-0.000130,-0.000046,-0.009955, 0.008515,-0.002578, 0.031288,1, 0.000207,-0.000237, 0.000415,1, 0.127352, 0.035315, 9.805759,1,1
1778253832667,   526.569,   526.569,-0.013297,-0.005192,-0.995717,-0.000134,-0.000053,-0.009957,-0.003045,-0.015582, 0.041109,1,-0.000797, 0.000046, 0.000183,1, 0.127349, 0.035310, 9.805759,1,1
1778253832688,   526.594,   526.589,-0.013510,-0.003609,-0.995376,-0.000136,-0.000035,-0.009950,-0.006180,-0.004201, 0.039555,1, 0.000376,-0.000225,-0.000333,1, 0.127370, 0.035227, 9.805759,1,1
