Time,GPS_ts,fGPS_ts,scaledAccelX,scaledAccelY,scaledAccelZ,deltaVelX,deltaVelY,deltaVelZ,estLinearAccelX,estLinearAccelY,estLinearAccelZ,estLinearAccel:valid,estAngularRateX,estAngularRateY,estAngularRateZ,estAngularRate:valid,estGravityX,estGravityY,estGravityZ,estGravity:valid,flag
1778253918078,   599.387,   599.387,-0.011245,-0.011232,-0.996396,-0.000110,-0.000112,-0.009963,-0.004760, 0.000217, 0.034155,1, 0.000060, 0.000066,-0.000538,1, 0.105514, 0.110371, 9.805461,1,0
1778253918078,   599.412,   599.407,-0.011173,-0.010937,-0.996287,-0.000112,-0.000111,-0.009959,-0.004672,-0.001147, 0.038284,1, 0.000285, 0.000978,-0.000010,1, 0.105416, 0.110382, 9.805462,1,0
1778253918078,   599.432,   599.432,-0.011244,-0.011116,-0.996928,-0.000111,-0.000112,-0.009960,-0.004884, 0.001283, 0.028936,1,-0.000542, 0.000437,-0.000208,1, 0.105368, 0.110278, 9.805464,1,0
1778253918078,   599.457,   599.457,-0.011145,-0.011573,-0.996108,-0.000113,-0.000114,-0.009964,-0.003916,-0.003238, 0.036978,1,-0.000453,-0.000248, 0.000084,1, 0.105382, 0.110243, 9.805464,1,0
1778253918078,   599.482,   599.477,-0.011098,-0.010721,-0.995656,-0.000111,-0.000109,-0.009955,-0.005868,-0.005789, 0.038552,1,-0.000268,-0.000324,-0.000316,1, 0.105364, 0.110135, 9.805466,1,0
1778253918078,   599.507,   599.507,-0.011423,-0.011307,-0.995814,-0.000114,-0.000113,-0.009955,-0.006711,-0.000761, 0.039864,1, 0.000164,-0.000010,-0.000224,1, 0.105315, 0.110129, 9.805466,1,0
1778253918078,   599.532,   599.527,-0.011130,-0.011182,-0.995248,-0.000112,-0.000109,-0.009952,-0.004610,-0.006536, 0.039903,1,-0.000778,-0.000375, 0.000005,1, 0.105352, 0.110012, 9.805467,1,0
1778253918078,   599.557,   599.552,-0.010938,-0.011524,-0.996334,-0.000110,-0.000115,-0.009959,-0.001671,-0.002903, 0.034761,1, 0.000245, 0.000147, 0.000171,1, 0.105599, 0.110119, 9.805463,1,0
1778253918078,   599.582,   599.577,-0.011353,-0.011248,-0.995161,-0.000114,-0.000113,-0.009951,-0.003860, 0.001780, 0.036783,1, 0.000402, 0.000342, 0.000624,1, 0.105605, 0.110191, 9.805462,1,0
1778253918078,   599.602,   599.597,-0.011308,-0.010819,-0.995592,-0.000114,-0.000108,-0.009954,-0.003911,-0.004483, 0.040066,1, 0.000344, 0.000812, 0.000257,1, 0.105579, 0.110161, 9.805463,1,0
1778253918078,   599.622,   599.617,-0.011183,-0.010757,-0.996265,-0.000114,-0.000107,-0.009959,-0.002806,-0.000817, 0.042264,1, 0.000238,-0.000079,-0.000015,1, 0.105500, 0.110138, 9.805464,1,0
1778253918090,   612.012,   612.012,-0.011739,-0.011873,-0.997823,-0.000116,-0.000118,-0.009972,-0.005181,-0.020019, 0.020258,1,-0.001712,-0.001231,-0.001987,1, 0.109978, 0.096358, 9.805560,1,0
1778253918116,   612.037,   612.037,-0.010922,-0.012610,-0.996513,-0.000113,-0.000126,-0.009959, 0.002852,-0.027429, 0.033103,1,-0.001173, 0.000152,-0.002444,1, 0.109954, 0.096194, 9.805562,1,0
1778253918138,   612.062,   612.057,-0.010004,-0.012258,-0.995479,-0.000100,-0.000120,-0.009964, 0.000646,-0.026214, 0.048455,1,-0.001937,-0.000662,-0.002778,1, 0.110104, 0.095907, 9.805563,1,0
1778253918160,   612.082,   612.082,-0.008041,-0.009788,-0.996220,-0.000093,-0.000090,-0.009958, 0.031242,-0.000449, 0.035983,1,-0.000646, 0.000896,-0.004222,1, 0.110071, 0.095525, 9.805567,1,0
1778253918186,   612.107,   612.107,-0.010648,-0.006871,-0.994191,-0.000107,-0.000076,-0.009948, 0.005670, 0.027855, 0.055881,1,-0.001354,-0.000232,-0.003753,1, 0.110095, 0.095197, 9.805570,1,0
1778253918208,   612.132,   612.127,-0.010840,-0.007845,-0.997435,-0.000112,-0.000078,-0.009967, 0.011746, 0.017095, 0.035393,1,-0.000607, 0.001523,-0.002832,1, 0.109891, 0.095025, 9.805573,1,0
1778253918230,   612.157,   612.152,-0.012473,-0.008688,-0.995916,-0.000120,-0.000089,-0.009956,-0.012497, 0.009483, 0.038974,1,-0.000695, 0.000160,-0.002779,1, 0.109808, 0.094658, 9.805578,1,0
1778253918256,   612.177,   612.177,-0.021854,-0.024355,-1.005301,-0.000175,-0.000295,-0.010070,-0.104252,-0.144058,-0.053059,1,-0.004854,-0.003026,-0.002865,1, 0.110160, 0.094633, 9.805574,1,0
1778253918278,   612.202,   612.197,-0.004193,-0.006849,-0.993261,-0.000065,-0.000062,-0.010077,-0.007051, 0.028789,-0.025174,1,-0.000669, 0.005525,-0.002971,1, 0.109868, 0.094200, 9.805582,1,0
1778253918301,   612.227,   612.222,-0.006866,-0.012837,-1.009042,-0.000081,-0.000136,-0.010114, 0.042747,-0.032055,-0.089736,1,-0.000304,-0.000920,-0.001492,1, 0.110104, 0.093820, 9.805583,1,0
1778253918326,   612.247,   612.247,-0.009034,-0.007348,-1.007155,-0.000096,-0.000086,-0.010036, 0.021484, 0.021561,-0.071235,1,-0.000962, 0.001250,-0.002289,1, 0.110034, 0.093594, 9.805586,1,0
1778253918348,   612.272,   612.267,-0.013242,-0.008310,-0.997344,-0.000119,-0.000086,-0.009994,-0.002468, 0.017837, 0.010805,1,-0.001437, 0.001435,-0.001373,1, 0.109880, 0.093438, 9.805590,1,0
1778253918371,   612.297,   612.292,-0.010380,-0.008314,-0.996838,-0.000099,-0.000079,-0.009967, 0.008160, 0.011804, 0.029947,1,-0.000349,-0.000820,-0.000373,1, 0.109978, 0.093323, 9.805590,1,0
1778253918396,   612.317,   612.317,-0.009947,-0.008456,-0.995619,-0.000099,-0.000081,-0.009944, 0.012455, 0.010456, 0.041898,1, 0.000366, 0.000334,-0.000461,1, 0.109989, 0.093393, 9.805589,1,0
1778253918418,   612.342,   612.337,-0.011585,-0.009880,-0.997423,-0.000113,-0.000098,-0.009981, 0.008154,-0.002750, 0.052752,1,-0.001229, 0.000472,-0.001125,1, 0.110035, 0.093257, 9.805590,1,0
1778253918441,   612.367,   612.362,-0.011938,-0.009953,-0.997745,-0.000116,-0.000099,-0.009973,-0.006755,-0.004777, 0.021051,1,-0.000258,-0.000750,-0.001126,1, 0.110344, 0.092816, 9.805590,1,0
1778253918466,   612.387,   612.387,-0.011577,-0.009262,-0.996485,-0.000115,-0.000091,-0.009961,-0.003176, 0.001917, 0.033413,1,-0.000438,-0.000871,-0.000737,1, 0.110383, 0.092733, 9.805591,1,0
1778253918488,   612.412,   612.407,-0.012063,-0.008217,-0.995471,-0.000118,-0.000083,-0.009963,-0.000576, 0.012094, 0.034973,1,-0.000580, 0.000068,-0.001228,1, 0.110375, 0.092669, 9.805591,1,0
1778253918511,   612.437,   612.432,-0.011471,-0.009336,-0.997058,-0.000112,-0.000091,-0.009974,-0.002128, 0.001077, 0.027789,1,-0.000603, 0.000354,-0.000680,1, 0.110357, 0.092610, 9.805592,1,0
1778253918536,   612.457,   612.457,-0.010624,-0.010077,-0.996929,-0.000106,-0.000098,-0.009967, 0.006159,-0.006362, 0.029057,1,-0.000867,-0.000410,-0.000726,1, 0.110356, 0.092438, 9.805593,1,0
1778253918558,   612.482,   612.477,-0.011464,-0.010631,-0.994980,-0.000111,-0.000112,-0.009954, 0.008358,-0.003955, 0.034577,1,-0.000216, 0.000146,-0.000840,1, 0.110370, 0.092414, 9.805593,1,0
1778253918585,   612.507,   612.507,-0.010353,-0.009861,-0.996209,-0.000103,-0.000095,-0.009964, 0.009077,-0.004409, 0.036118,1,-0.000540,-0.000717,-0.001713,1, 0.110625, 0.092282, 9.805592,1,0
1778253918606,   612.527,   612.527,-0.010462,-0.009450,-0.996597,-0.000104,-0.000096,-0.009967, 0.007955,-0.000474, 0.032315,1,-0.000167, 0.000325,-0.001720,1, 0.110539, 0.092198, 9.805593,1,0
1778253918628,   612.552,   612.547,-0.010419,-0.009955,-0.996129,-0.000104,-0.000099,-0.009963, 0.009211,-0.000493, 0.037836,1,-0.000102, 0.000038,-0.002708,1, 0.110576, 0.092238, 9.805593,1,0
1778253918655,   612.577,   612.577,-0.010733,-0.009767,-0.996295,-0.000107,-0.000097,-0.009962, 0.005431,-0.003720, 0.035279,1,-0.001194,-0.000285,-0.002058,1, 0.110691, 0.092026, 9.805593,1,0
1778253918677,   612.602,   612.597,-0.010869,-0.009401,-0.996069,-0.000111,-0.000096,-0.009958, 0.003737,-0.000689, 0.034234,1,-0.001360,-0.000173,-0.002589,1, 0.110747, 0.091884, 9.805594,1,0
1778253918698,   612.622,   612.617,-0.011132,-0.009077,-0.996403,-0.000112,-0.000091,-0.009961, 0.004487, 0.002012, 0.049805,1,-0.001346,-0.000130,-0.003176,1, 0.110802, 0.091726, 9.805595,1,0
1778253918725,   612.647,   612.647,-0.010839,-0.008195,-0.995554,-0.000109,-0.000082,-0.009955, 0.004564, 0.011226, 0.042547,1,-0.001080,-0.000855,-0.002698,1, 0.110887, 0.091561, 9.805595,1,0
1778253918747,   612.672,   612.667,-0.017828,-0.012628,-0.995651,-0.000129,-0.000141,-0.009972,-0.029269, 0.042289, 0.034731,1,-0.001661, 0.003336,-0.001691,1, 0.110565, 0.091444, 9.805600,1,0
1778253918768,   612.692,   612.687,-0.011766,-0.008104,-0.999618,-0.000120,-0.000097,-0.010005,-0.006892,-0.006983, 0.068146,1, 0.000940, 0.000070,-0.002941,1, 0.110760, 0.091369, 9.805599,1,0
1778253918795,   612.717,   612.717,-0.010104,-0.005501,-0.997929,-0.000109,-0.000069,-0.009994, 0.011680, 0.037094, 0.019262,1,-0.001904, 0.000221,-0.002544,1, 0.110757, 0.090985, 9.805602,1,0
1778253918817,   612.742,   612.737,-0.011348,-0.005290,-0.995519,-0.000112,-0.000054,-0.009961, 0.019716, 0.034616, 0.006278,1,-0.001133,-0.000410,-0.002160,1, 0.110723, 0.090854, 9.805604,1,0
1778253918838,   612.762,   612.757,-0.011469,-0.006822,-0.995698,-0.000110,-0.000069,-0.009966, 0.004249, 0.028795, 0.027015,1,-0.000375, 0.000906,-0.001142,1, 0.110709, 0.090660, 9.805606,1,0
1778253918865,   612.787,   612.787,-0.012457,-0.007971,-0.996499,-0.000121,-0.000081,-0.009967,-0.011290, 0.012631, 0.033288,1, 0.000626,-0.000306,-0.000833,1, 0.110883, 0.090823, 9.805602,1,0
1778253918887,   612.812,   612.807,-0.013510,-0.009921,-0.995181,-0.000137,-0.000099,-0.009955,-0.017411,-0.004921, 0.031669,1,-0.000196,-0.000037,-0.000125,1, 0.110935, 0.090871, 9.805601,1,0
1778253918908,   612.827,   612.827,-0.012886,-0.010216,-0.996484,-0.000127,-0.000103,-0.009960,-0.015409,-0.009241, 0.033427,1, 0.000161, 0.000209,-0.000546,1, 0.110949, 0.090949, 9.805600,1,0
1778253918935,   612.857,   612.857,-0.012035,-0.009039,-0.995530,-0.000119,-0.000092,-0.009958,-0.007015, 0.002270, 0.042789,1,-0.000272,-0.000483,-0.000720,1, 0.111021, 0.090906, 9.805600,1,0
1778253918957,   612.882,   612.877,-0.010767,-0.007923,-0.995451,-0.000107,-0.000078,-0.009955, 0.000882, 0.011390, 0.039484,1, 0.000130,-0.000331,-0.000725,1, 0.111047, 0.090845, 9.805600,1,0
1778253918978,   612.902,   612.897,-0.010688,-0.008360,-0.995557,-0.000106,-0.000085,-0.009959, 0.001450, 0.013585, 0.029963,1, 0.000576, 0.000028, 0.000003,1, 0.111042, 0.090890, 9.805600,1,0
1778253919005,   612.927,   612.927,-0.011356,-0.009850,-0.996033,-0.000113,-0.000100,-0.009964,-0.000261,-0.005667, 0.037854,1,-0.000821,-0.000456,-0.000186,1, 0.111113, 0.090898, 9.805599,1,0
1778253919027,   612.952,   612.947,-0.012078,-0.009639,-0.995392,-0.000122,-0.000095,-0.009954,-0.002105,-0.008346, 0.038029,1,-0.000671,-0.000400,-0.000800,1, 0.111401, 0.090601, 9.805598,1,0
1778253919048,   612.972,   612.967,-0.011167,-0.009513,-0.995390,-0.000109,-0.000096,-0.009954,-0.002032,-0.005347, 0.030814,1, 0.000036,-0.000582,-0.000784,1, 0.111495, 0.090614, 9.805597,1,0
1778253919075,   612.997,   612.997,-0.010858,-0.008753,-0.995473,-0.000110,-0.000087,-0.009957, 0.005005, 0.004590, 0.043344,1,-0.000596, 0.000016,-0.001244,1, 0.111481, 0.090409, 9.805599,1,0
1778253919097,   613.022,   613.017,-0.010634,-0.009200,-0.995963,-0.000104,-0.000091,-0.009959, 0.007338, 0.007184, 0.036899,1,-0.000861,-0.000393,-0.000620,1, 0.111525, 0.090248, 9.805600,1,0
1778253919121,   613.042,   613.042,-0.011364,-0.009649,-0.995263,-0.000111,-0.000097,-0.009955, 0.000031,-0.004340, 0.045404,1,-0.000167, 0.000517,-0.001519,1, 0.111461, 0.090277, 9.805601,1,0
1778253919145,   613.067,   613.067,-0.012296,-0.010213,-0.995863,-0.000123,-0.000102,-0.009958,-0.009092,-0.009995, 0.039525,1,-0.000346,-0.000157,-0.001564,1, 0.111499, 0.090151, 9.805602,1,0
1778253919167,   613.092,   613.087,-0.011857,-0.009894,-0.996440,-0.000117,-0.000101,-0.009963,-0.012995,-0.018270, 0.042666,1,-0.000812, 0.000036,-0.002240,1, 0.111542, 0.090003, 9.805603,1,0
1778253919190,   613.112,   613.112,-0.010892,-0.007247,-0.996095,-0.000112,-0.000072,-0.009959, 0.004797, 0.018661, 0.037249,1,-0.000124, 0.000137,-0.002083,1, 0.111606, 0.089731, 9.805604,1,0
1778253919215,   613.137,   613.137,-0.008636,-0.010581,-0.994751,-0.000101,-0.000106,-0.009955, 0.026986,-0.014164, 0.050426,1,-0.001477,-0.000680,-0.002377,1, 0.111700, 0.089551, 9.805605,1,0
1778253919237,   613.162,   613.157,-0.006844,-0.009183,-0.996077,-0.000067,-0.000092,-0.009958, 0.039212,-0.001289, 0.063249,1,-0.001156,-0.000442,-0.002719,1, 0.111879, 0.089328, 9.805605,1,0
1778253919260,   613.182,   613.182,-0.007196,-0.008928,-0.995173,-0.000073,-0.000089,-0.009950, 0.041306, 0.001487, 0.046291,1,-0.001046,-0.000128,-0.002063,1, 0.111877, 0.089012, 9.805608,1,0
1778253919286,   613.207,   613.207,-0.010087,-0.011616,-0.994411,-0.000101,-0.000117,-0.009940, 0.013004,-0.024930, 0.053770,1,-0.000811, 0.000881,-0.002941,1, 0.111896, 0.088960, 9.805608,1,0
1778253919307,   613.232,   613.227,-0.013655,-0.014889,-0.996004,-0.000122,-0.000161,-0.009964, 0.002936,-0.013947, 0.049307,1,-0.000881,-0.000207,-0.003395,1, 0.111896, 0.088667, 9.805611,1,0
1778253919330,   613.252,   613.252,-0.011284,-0.000823,-0.978652,-0.000102,-0.000016,-0.009629, 0.002118, 0.078610, 0.208320,1,-0.000220, 0.008857, 0.000259,1, 0.112500, 0.086675, 9.805621,1,0
1778253919356,   613.277,   613.277,-0.017413,-0.004211,-0.977987,-0.000144,-0.000024,-0.009758,-0.058497, 0.046528, 0.214838,1, 0.004247,-0.000783,-0.004939,1, 0.112293, 0.087957, 9.805613,1,0
1778253919377,   613.302,   613.297,-0.018778,-0.010195,-0.970379,-0.000158,-0.000005,-0.009877,-0.047703,-0.111948,-0.283979,1,-0.009426,-0.005750,-0.002844,1, 0.111547, 0.088528, 9.805616,1,0
1778253919400,   613.322,   613.322,-0.015442,-0.005780,-0.998167,-0.000133,-0.000059,-0.010086,-0.039778, 0.031212, 0.016947,1,-0.000540,-0.004354,-0.003043,1, 0.111792, 0.087883, 9.805619,1,0
1778253919426,   613.347,   613.347,-0.014161,-0.005612,-0.998403,-0.000111,-0.000060,-0.010059,-0.027188, 0.032767, 0.014627,1,-0.000385,-0.003298,-0.002137,1, 0.111687, 0.087780, 9.805621,1,0
1778253919447,   613.372,   613.367,-0.011865,-0.006782,-0.991818,-0.000121,-0.000067,-0.009906, 0.021713, 0.021093,-0.001242,1,-0.000419, 0.000280,-0.001439,1, 0.111629, 0.087692, 9.805622,1,0
1778253919470,   613.397,   613.392,-0.011695,-0.005350,-0.994233,-0.000115,-0.000049,-0.009947,-0.003000, 0.035124, 0.055526,1, 0.000524,-0.000218,-0.001740,1, 0.111697, 0.087606, 9.805622,1,0
1778253919496,   613.417,   613.417,-0.013323,-0.008120,-0.994534,-0.000130,-0.000080,-0.009945,-0.018874, 0.008067, 0.052569,1, 0.001124,-0.000722,-0.000713,1, 0.111798, 0.087730, 9.805620,1,0
1778253919517,   613.442,   613.437,-0.014097,-0.006563,-0.997465,-0.000138,-0.000069,-0.009974,-0.021079, 0.006297, 0.041768,1,-0.000308, 0.001106,-0.000079,1, 0.111633, 0.087750, 9.805622,1,0
1778253919540,   613.467,   613.462,-0.013039,-0.007390,-0.997449,-0.000131,-0.000073,-0.009971,-0.016304, 0.015194, 0.023985,1, 0.000309,-0.000172,-0.000322,1, 0.111569, 0.087677, 9.805623,1,0
1778253919566,   613.487,   613.487,-0.011874,-0.007626,-0.996852,-0.000117,-0.000077,-0.009963,-0.004844, 0.012859, 0.029846,1, 0.000120,-0.000160, 0.000035,1, 0.111606, 0.087653, 9.805623,1,0
1778253919587,   613.512,   613.507,-0.011377,-0.009682,-0.995322,-0.000114,-0.000098,-0.009955,-0.000543,-0.000410, 0.034287,1, 0.000114, 0.000313, 0.000477,1, 0.111587, 0.087659, 9.805623,1,0
1778253919610,   613.537,   613.532,-0.011873,-0.006869,-0.995226,-0.000116,-0.000073,-0.009955,-0.004874, 0.020505, 0.045788,1, 0.000779,-0.000238, 0.000152,1, 0.111565, 0.087891, 9.805621,1,0
1778253919636,   613.557,   613.557,-0.012619,-0.008090,-0.995476,-0.000124,-0.000079,-0.009960,-0.011902, 0.008209, 0.043335,1, 0.001472, 0.000334, 0.000212,1, 0.111846, 0.087571, 9.805621,1,0
1778253919657,   613.582,   613.577,-0.012864,-0.010317,-0.994869,-0.000130,-0.000104,-0.009951,-0.010903,-0.006927, 0.032471,1,-0.000572, 0.000175, 0.000573,1, 0.111841, 0.087619, 9.805621,1,0
1778253919680,   613.607,   613.602,-0.011413,-0.011597,-0.995819,-0.000112,-0.000117,-0.009962,-0.000068,-0.025964, 0.039973,1, 0.000433, 0.000552, 0.000348,1, 0.111842, 0.087780, 9.805619,1,0
1778253919706,   613.627,   613.627,-0.009573,-0.009342,-0.995947,-0.000097,-0.000096,-0.009961, 0.017960,-0.003915, 0.038718,1,-0.001252, 0.000116,-0.000486,1, 0.111839, 0.087661, 9.805620,1,0
1778253919728,   613.652,   613.647,-0.011408,-0.005967,-0.995906,-0.000113,-0.000058,-0.009965, 0.008258, 0.029794, 0.032649,1,-0.000288, 0.000265,-0.000770,1, 0.111853, 0.087599, 9.805621,1,0
1778253919750,   613.677,   613.672,-0.013114,-0.007195,-0.996424,-0.000127,-0.000068,-0.009958,-0.016822, 0.017087, 0.034043,1, 0.000022, 0.001415, 0.000268,1, 0.111739, 0.087645, 9.805622,1,0
1778253919776,   613.697,   613.697,-0.012611,-0.009009,-0.994966,-0.000127,-0.000088,-0.009941,-0.011950,-0.000607, 0.048336,1, 0.000286, 0.000572, 0.000635,1, 0.111701, 0.087745, 9.805621,1,0
1778253919797,   613.722,   613.717,-0.010982,-0.009496,-0.995870,-0.000111,-0.000095,-0.009962,-0.004330,-0.007595, 0.039017,1, 0.000033,-0.000075, 0.000511,1, 0.111661, 0.087721, 9.805622,1,0
1778253919824,   613.747,   613.747,-0.010259,-0.009384,-0.996509,-0.000103,-0.000096,-0.009964, 0.011108,-0.004251, 0.033210,1, 0.000495, 0.000156,-0.000316,1, 0.111792, 0.087779, 9.805620,1,0
1778253919846,   613.767,   613.767,-0.010006,-0.007352,-0.996961,-0.000098,-0.000073,-0.009972, 0.013647, 0.015709, 0.028773,1, 0.000360, 0.000166, 0.000646,1, 0.111773, 0.087814, 9.805620,1,0
1778253919868,   613.792,   613.787,-0.010489,-0.010100,-0.995680,-0.000106,-0.000103,-0.009956, 0.008392,-0.006736, 0.034759,1, 0.000217,-0.000154, 0.000152,1, 0.111714, 0.087877, 9.805620,1,0
1778253919895,   613.817,   613.817,-0.010926,-0.008681,-0.995776,-0.000109,-0.000087,-0.009961, 0.004672, 0.002539, 0.040396,1,-0.001236, 0.000023, 0.000746,1, 0.111823, 0.087634, 9.805621,1,0
1778253919916,   613.842,   613.837,-0.010599,-0.009315,-0.995779,-0.000108,-0.000093,-0.009956, 0.008632,-0.003832, 0.041950,1, 0.000028, 0.000139, 0.000440,1, 0.111841, 0.087596, 9.805621,1,0
1778253919938,   613.862,   613.857,-0.011076,-0.008375,-0.996104,-0.000110,-0.000082,-0.009963, 0.010181, 0.003445, 0.035728,1,-0.000984,-0.000367, 0.000278,1, 0.111937, 0.087469, 9.805621,1,0
1778253919965,   613.887,   613.887,-0.011577,-0.008323,-0.995785,-0.000116,-0.000083,-0.009958,-0.001605, 0.005807, 0.040307,1,-0.000556,-0.000126,-0.000235,1, 0.111927, 0.087409, 9.805622,1,0
1778253919986,   613.912,   613.907,-0.011460,-0.008488,-0.995977,-0.000114,-0.000087,-0.009961,-0.000801, 0.003846, 0.039316,1, 0.000263,-0.001027,-0.000267,1, 0.111958, 0.087394, 9.805621,1,0
1778253920008,   613.932,   613.927,-0.012205,-0.009084,-0.995889,-0.000120,-0.000092,-0.009961,-0.002475, 0.000649, 0.038735,1,-0.000368,-0.000004, 0.000590,1, 0.112056, 0.087413, 9.805620,1,0
1778253920035,   613.957,   613.957,-0.011365,-0.009736,-0.996827,-0.000115,-0.000097,-0.009958, 0.000414,-0.008081, 0.030093,1,-0.000825, 0.000278,-0.000115,1, 0.111852, 0.087367, 9.805623,1,0
1778253920056,   613.982,   613.977,-0.012253,-0.009027,-0.995907,-0.000122,-0.000094,-0.009961,-0.003654,-0.002772, 0.033070,1,-0.000054, 0.000190, 0.000734,1, 0.111828, 0.087332, 9.805623,1,0
1778253920078,   614.002,   613.997,-0.012674,-0.008569,-0.996084,-0.000124,-0.000085,-0.009962,-0.009922,-0.000832, 0.043702,1,-0.000484, 0.000247,-0.000405,1, 0.111809, 0.087229, 9.805625,1,0
1778253920105,   614.027,   614.027,-0.012186,-0.007578,-0.995633,-0.000121,-0.000075,-0.009953,-0.007660, 0.012791, 0.041799,1,-0.000458,-0.000350,-0.000974,1, 0.111852, 0.087090, 9.805625,1,0
1778253920126,   614.047,   614.047,-0.011894,-0.007371,-0.995074,-0.000120,-0.000073,-0.009952,-0.004798, 0.014844, 0.047281,1,-0.000262,-0.000091,-0.000290,1, 0.111845, 0.087119, 9.805625,1,0
1778253920148,   614.072,   614.067,-0.011478,-0.008073,-0.995452,-0.000113,-0.000080,-0.009954,-0.002277, 0.014937, 0.041420,1, 0.000123, 0.000136, 0.000573,1, 0.111830, 0.087196, 9.805625,1,0
1778253920175,   614.097,   614.097,-0.011123,-0.007561,-0.995561,-0.000110,-0.000075,-0.009956, 0.002758, 0.013105, 0.042501,1, 0.000442,-0.000622, 0.000066,1, 0.111856, 0.087265, 9.805624,1,0
1778253920196,   614.122,   614.117,-0.010925,-0.008324,-0.995667,-0.000110,-0.000082,-0.009959, 0.003155, 0.004788, 0.040438,1, 0.000808,-0.001547, 0.001180,1, 0.112015, 0.087384, 9.805621,1,0
1778253920218,   614.142,   614.137,-0.011427,-0.007741,-0.995535,-0.000114,-0.000082,-0.009957, 0.005131, 0.005676, 0.038766,1, 0.000812,-0.000597, 0.000918,1, 0.112153, 0.087437, 9.805619,1,0
1778253920245,   614.167,   614.167,-0.011275,-0.008251,-0.996418,-0.000111,-0.000083,-0.009961, 0.001795, 0.006503, 0.034097,1, 0.000619,-0.000266, 0.001632,1, 0.112378, 0.087440, 9.805616,1,0
1778253920266,   614.192,   614.187,-0.011380,-0.009863,-0.995889,-0.000114,-0.000098,-0.009961, 0.000202,-0.008520, 0.038128,1, 0.000870,-0.000459, 0.001408,1, 0.112489, 0.087535, 9.805614,1,0
1778253920288,   614.212,   614.207,-0.011269,-0.009094,-0.995881,-0.000113,-0.000093,-0.009960, 0.004571,-0.004310, 0.039904,1, 0.000350,-0.000092, 0.000636,1, 0.112528, 0.087634, 9.805613,1,0
1778253920315,   614.237,   614.237,-0.012070,-0.008220,-0.996389,-0.000121,-0.000082,-0.009962,-0.005808, 0.007122, 0.034370,1, 0.001055, 0.000527, 0.000500,1, 0.112544, 0.087763, 9.805612,1,0
1778253920336,   614.262,   614.257,-0.011524,-0.008197,-0.995650,-0.000116,-0.000082,-0.009959,-0.003869, 0.002930, 0.042090,1, 0.000575,-0.000451, 0.001027,1, 0.112533, 0.087898, 9.805611,1,0
1778253920359,   614.282,   614.282,-0.011684,-0.008275,-0.995915,-0.000117,-0.000081,-0.009959,-0.001985, 0.006843, 0.039022,1, 0.000920,-0.000557, 0.001298,1, 0.112611, 0.088017, 9.805609,1,0
1778253920385,   614.307,   614.307,-0.011495,-0.009398,-0.996628,-0.000114,-0.000092,-0.009968,-0.000143,-0.004103, 0.032028,1, 0.000452,-0.000161, 0.000872,1, 0.112587, 0.088076, 9.805608,1,0
1778253920406,   614.332,   614.327,-0.011116,-0.009151,-0.996185,-0.000111,-0.000092,-0.009963, 0.001531,-0.010679, 0.034722,1, 0.000131, 0.000155, 0.000788,1, 0.112546, 0.088124, 9.805608,1,1
1778253920429,   614.352,   614.352,-0.011591,-0.008798,-0.996215,-0.000115,-0.000088,-0.009963,-0.001192, 0.001885, 0.036074,1,-0.000039,-0.000453, 0.000921,1, 0.112497, 0.088163, 9.805609,1,1
1778253920455,   614.377,   614.377,-0.010598,-0.012137,-0.995656,-0.000113,-0.000119,-0.009952, 0.008631,-0.030880, 0.041554,1,-0.000557,-0.001398,-0.000795,1, 0.112610, 0.088126, 9.805608,1,1
1778253920477,   614.402,   614.397,-0.011631,-0.007980,-0.997365,-0.000105,-0.000066,-0.009970,-0.006819, 0.038717, 0.041768,1, 0.000555, 0.001251, 0.000213,1, 0.112643, 0.088040, 9.805608,1,1
1778253920499,   614.422,   614.422,-0.010466,-0.006821,-0.995166,-0.000113,-0.000080,-0.009957, 0.009876, 0.021236, 0.046364,1, 0.000728, 0.000833, 0.000900,1, 0.112486, 0.088148, 9.805609,1,1
1778253920525,   614.447,   614.447,-0.011236,-0.006604,-0.995632,-0.000109,-0.000060,-0.009952, 0.002374, 0.023470, 0.041791,1, 0.000149,-0.000645, 0.000815,1, 0.112585, 0.088241, 9.805607,1,1
1778253920547,   614.472,   614.467,-0.010990,-0.008590,-0.995781,-0.000109,-0.000084,-0.009959, 0.007967, 0.014293, 0.036374,1, 0.001559, 0.000414, 0.002196,1, 0.112574, 0.088417, 9.805605,1,1
1778253920569,   614.492,   614.492,-0.010781,-0.009091,-0.995564,-0.000109,-0.000092,-0.009957, 0.006792,-0.000503, 0.042459,1, 0.000359,-0.000207, 0.002536,1, 0.112522, 0.088661, 9.805604,1,1
1778253920595,   614.517,   614.517,-0.010787,-0.009332,-0.995568,-0.000107,-0.000092,-0.009952, 0.006683,-0.002711, 0.042411,1, 0.000632, 0.000325, 0.002318,1, 0.112459, 0.088821, 9.805603,1,1
1778253920617,   614.542,   614.537,-0.010953,-0.009417,-0.995865,-0.000108,-0.000091,-0.009956, 0.005255,-0.001142, 0.042241,1, 0.000647,-0.000274, 0.002462,1, 0.112444, 0.088926, 9.805602,1,1
1778253920639,   614.562,   614.562,-0.011489,-0.009608,-0.996094,-0.000113,-0.000096,-0.009959,-0.000379,-0.005367, 0.037261,1, 0.000772, 0.000285, 0.002130,1, 0.112277, 0.088881, 9.805604,1,1
1778253920665,   614.587,   614.587,-0.012132,-0.008270,-0.996103,-0.000120,-0.000083,-0.009960,-0.006753, 0.007844, 0.037170,1, 0.001795,-0.000051, 0.002674,1, 0.112224, 0.089001, 9.805604,1,1
1778253920687,   614.612,   614.607,-0.012792,-0.008490,-0.995480,-0.000127,-0.000085,-0.009955,-0.015858, 0.004767, 0.037897,1, 0.000906,-0.000351, 0.002470,1, 0.112280, 0.089178, 9.805602,1,1
1778253920710,   614.637,   614.632,-0.012384,-0.008102,-0.995995,-0.000125,-0.000081,-0.009958,-0.009208, 0.010001, 0.038224,1, 0.000415,-0.000198, 0.001853,1, 0.112244, 0.089470, 9.805599,1,1
1778253920735,   614.657,   614.657,-0.012584,-0.009371,-0.995440,-0.000125,-0.000093,-0.009955,-0.011108,-0.002341, 0.043668,1, 0.000463, 0.000035, 0.002880,1, 0.112299, 0.089569, 9.805598,1,1
1778253920757,   614.682,   614.677,-0.011947,-0.010576,-0.995902,-0.000119,-0.000106,-0.009959,-0.000267,-0.010071, 0.037356,1, 0.001460, 0.000683, 0.002647,1, 0.112211, 0.089818, 9.805596,1,1
1778253920780,   614.707,   614.702,-0.011735,-0.010409,-0.995626,-0.000115,-0.000104,-0.009955,-0.002890,-0.012162, 0.041841,1,-0.000062, 0.000580, 0.001636,1, 0.112172, 0.089913, 9.805596,1,1
1778253920805,   614.727,   614.727,-0.011951,-0.009982,-0.996155,-0.000119,-0.000100,-0.009962,-0.005036,-0.007897, 0.036647,1, 0.000578, 0.000128, 0.001112,1, 0.112155, 0.090007, 9.805595,1,1
1778253920827,   614.752,   614.747,-0.011143,-0.009231,-0.995964,-0.000114,-0.000094,-0.009961,-0.006343,-0.005016, 0.038999,1,-0.000341, 0.001062, 0.001175,1, 0.112358, 0.090056, 9.805593,1,1
1778253920850,   614.777,   614.772,-0.011216,-0.008866,-0.995209,-0.000112,-0.000088,-0.009953, 0.002390, 0.003082, 0.045928,1,-0.000142,-0.000628, 0.000839,1, 0.112406, 0.090019, 9.805593,1,1
1778253920875,   614.797,   614.797,-0.011363,-0.010359,-0.996397,-0.000114,-0.000100,-0.009963, 0.001010,-0.011521, 0.034277,1, 0.000154,-0.000684, 0.000667,1, 0.112463, 0.090075, 9.805592,1,1
1778253920897,   614.822,   614.817,-0.012037,-0.010206,-0.995779,-0.000117,-0.000097,-0.009956, 0.003971,-0.003798, 0.035597,1,-0.000125,-0.000210, 0.000173,1, 0.112500, 0.090019, 9.805592,1,1
1778253920920,   614.847,   614.842,-0.011826,-0.009368,-0.995377,-0.000119,-0.000095,-0.009952,-0.003426,-0.001914, 0.044273,1, 0.000164, 0.000239, 0.001069,1, 0.112537, 0.089963, 9.805592,1,1
1778253920945,   614.867,   614.867,-0.011661,-0.008480,-0.995301,-0.000118,-0.000084,-0.009951,-0.001827, 0.006787, 0.045026,1, 0.000111, 0.000237, 0.000007,1, 0.112519, 0.089951, 9.805592,1,1
1778253920967,   614.892,   614.887,-0.012543,-0.008858,-0.996144,-0.000125,-0.000086,-0.009959,-0.008694, 0.010689, 0.049140,1,-0.000587, 0.000328, 0.000414,1, 0.112441, 0.089789, 9.805594,1,1
1778253920990,   614.917,   614.912,-0.012945,-0.009885,-0.995283,-0.000132,-0.000096,-0.009954,-0.014645,-0.007095, 0.045203,1, 0.000194, 0.000704,-0.000173,1, 0.112276, 0.089854, 9.805595,1,1
1778253921015,   614.937,   614.937,-0.013128,-0.009864,-0.995635,-0.000133,-0.000096,-0.009958,-0.016540,-0.006914, 0.041756,1, 0.000088, 0.000147, 0.000349,1, 0.112196, 0.089818, 9.805596,1,1
1778253921037,   614.962,   614.957,-0.013702,-0.011153,-0.995581,-0.000139,-0.000112,-0.009959,-0.021825,-0.011156, 0.040593,1,-0.000150,-0.000492, 0.000220,1, 0.112509, 0.089852, 9.805593,1,1
1778253921064,   614.987,   614.987,-0.013156,-0.009278,-0.997468,-0.000134,-0.000094,-0.009969,-0.016462,-0.001187, 0.023777,1,-0.000126,-0.000764,-0.000841,1, 0.112576, 0.089799, 9.805593,1,1
1778253921085,   615.007,   615.007,-0.011647,-0.008215,-0.995915,-0.000118,-0.000083,-0.009953,-0.001634, 0.009154, 0.039003,1,-0.000515, 0.000299,-0.000753,1, 0.112570, 0.089699, 9.805593,1,1
1778253921107,   615.032,   615.027,-0.008737,-0.007818,-0.997218,-0.000088,-0.000078,-0.009972, 0.013232, 0.018767, 0.044465,1,-0.000460,-0.000780, 0.000525,1, 0.112628, 0.089631, 9.805593,1,1
1778253921134,   615.057,   615.057,-0.006743,-0.007311,-0.997767,-0.000068,-0.000076,-0.009971, 0.046518, 0.017984, 0.020843,1, 0.000504,-0.000673, 0.000562,1, 0.112669, 0.089695, 9.805593,1,1
1778253921156,   615.082,   615.077,-0.010224,-0.009105,-0.994428,-0.000105,-0.000087,-0.009938, 0.038314, 0.007430, 0.033467,1, 0.000943,-0.000683, 0.000648,1, 0.112778, 0.089827, 9.805590,1,1
1778253921177,   615.102,   615.097,-0.014565,-0.011063,-0.995178,-0.000146,-0.000110,-0.009945,-0.004438,-0.006198, 0.031270,1, 0.000515,-0.000146, 0.001080,1, 0.112772, 0.089920, 9.805590,1,1
1778253921204,   615.127,   615.127,-0.015375,-0.012636,-0.994819,-0.000153,-0.000124,-0.009948,-0.038057,-0.033923, 0.049747,1, 0.000188, 0.000489, 0.000126,1, 0.112707, 0.090004, 9.805590,1,1
1778253921226,   615.152,   615.147,-0.013026,-0.011269,-0.997011,-0.000131,-0.000110,-0.009967,-0.027084,-0.024440, 0.051991,1,-0.000447, 0.000097,-0.000662,1, 0.112903, 0.089979, 9.805587,1,1
1778253921247,   615.172,   615.167,-0.010276,-0.008957,-0.996957,-0.000103,-0.000092,-0.009969,-0.001809,-0.010779, 0.044623,1,-0.000446,-0.000004,-0.000951,1, 0.112890, 0.089859, 9.805589,1,1
1778253921274,   615.197,   615.197,-0.008585,-0.005632,-0.996286,-0.000088,-0.000055,-0.009958, 0.028715, 0.034419, 0.035358,1,-0.000757, 0.000430,-0.001430,1, 0.112895, 0.089628, 9.805591,1,1
1778253921296,   615.222,   615.217,-0.011592,-0.009166,-0.996657,-0.000117,-0.000090,-0.009965, 0.008313, 0.014672, 0.040496,1, 0.001012, 0.000460,-0.000244,1, 0.112916, 0.089658, 9.805590,1,1
1778253921317,   615.242,   615.237,-0.012910,-0.008233,-0.996046,-0.000129,-0.000088,-0.009957,-0.004600,-0.005726, 0.043621,1, 0.000256, 0.000468, 0.000227,1, 0.112845, 0.089698, 9.805591,1,1
1778253921344,   615.267,   615.267,-0.013519,-0.007611,-0.996202,-0.000138,-0.000074,-0.009960,-0.019751, 0.015115, 0.036184,1, 0.000078,-0.000026, 0.000026,1, 0.112827, 0.089752, 9.805591,1,1
1778253921366,   615.292,   615.287,-0.012240,-0.009028,-0.996350,-0.000125,-0.000093,-0.009957,-0.018522,-0.008211, 0.034053,1, 0.000371, 0.000103, 0.000434,1, 0.112824, 0.089782, 9.805590,1,1
1778253921387,   615.312,   615.307,-0.010506,-0.008912,-0.995693,-0.000104,-0.000091,-0.009958, 0.007824, 0.003903, 0.037713,1, 0.000020,-0.000496, 0.000496,1, 0.112812, 0.089800, 9.805590,1,1
1778253921414,   615.337,   615.337,-0.009231,-0.009697,-0.996103,-0.000092,-0.000098,-0.009966, 0.022272,-0.005307, 0.037155,1, 0.000231,-0.000271, 0.000154,1, 0.112811, 0.089793, 9.805590,1,1
1778253921436,   615.362,   615.357,-0.012365,-0.006807,-0.994564,-0.000123,-0.000069,-0.009944, 0.005842, 0.015823, 0.030843,1, 0.000173, 0.001406,-0.000190,1, 0.112596, 0.089713, 9.805593,1,1
1778253921457,   615.382,   615.377,-0.014260,-0.008434,-0.995758,-0.000141,-0.000086,-0.009960,-0.019474, 0.015906, 0.028799,1, 0.000201, 0.000146, 0.000283,1, 0.112593, 0.089714, 9.805593,1,1
1778253921484,   615.407,   615.407,-0.014038,-0.011230,-0.996158,-0.000142,-0.000109,-0.009964,-0.025134,-0.020324, 0.036620,1, 0.000206, 0.000020, 0.000007,1, 0.112536, 0.089808, 9.805593,1,1
1778253921506,   615.432,   615.427,-0.011400,-0.009918,-0.995806,-0.000114,-0.000098,-0.009958,-0.009601,-0.015886, 0.043381,1,-0.000559,-0.000131,-0.000946,1, 0.112574, 0.089767, 9.805593,1,1
1778253921527,   615.452,   615.447,-0.010128,-0.008269,-0.995373,-0.000099,-0.000085,-0.009954, 0.015110,-0.001862, 0.036689,1,-0.000306, 0.000127,-0.001088,1, 0.112591, 0.089611, 9.805594,1,1
1778253921554,   615.477,   615.477,-0.010523,-0.005712,-0.996307,-0.000102,-0.000057,-0.009964, 0.009353, 0.033529, 0.035164,1,-0.000059, 0.000129,-0.000799,1, 0.112549, 0.089544, 9.805595,1,1
1778253921576,   615.502,   615.497,-0.012685,-0.007923,-0.994217,-0.000123,-0.000077,-0.009947,-0.000167, 0.023403, 0.023595,1, 0.000358, 0.000661, 0.000425,1, 0.112438, 0.089607, 9.805596,1,1
1778253921599,   615.522,   615.522,-0.012929,-0.011591,-0.994916,-0.000128,-0.000116,-0.009956,-0.014421,-0.023941, 0.048801,1,-0.000313, 0.000006, 0.000667,1, 0.112373, 0.089715, 9.805595,1,1
1778253921624,   615.547,   615.547,-0.011938,-0.012155,-0.995572,-0.000118,-0.000124,-0.009962,-0.004576,-0.029509, 0.042365,1, 0.000102,-0.000103,-0.000089,1, 0.112614, 0.089660, 9.805593,1,1
1778253921646,   615.572,   615.567,-0.010958,-0.008967,-0.995732,-0.000111,-0.000095,-0.009958, 0.005870,-0.008641, 0.030830,1, 0.000191, 0.000116,-0.000731,1, 0.112600, 0.089571, 9.805594,1,1
1778253921669,   615.592,   615.592,-0.010554,-0.008603,-0.994698,-0.000103,-0.000090,-0.009952, 0.009131, 0.005038, 0.050936,1,-0.001155,-0.001371,-0.001747,1, 0.112669, 0.089366, 9.805595,1,1
1778253921694,   615.617,   615.617,-0.010282,-0.005848,-0.995930,-0.000104,-0.000059,-0.009968, 0.009367, 0.017865, 0.035651,1,-0.000526,-0.000135,-0.001364,1, 0.112686, 0.089324, 9.805595,1,1
1778253921716,   615.642,   615.637,-0.014154,-0.009305,-0.994659,-0.000121,-0.000081,-0.009946,-0.000995, 0.020151, 0.021244,1,-0.000179, 0.000443,-0.000061,1, 0.112603, 0.089240, 9.805597,1,1
1778253921739,   615.662,   615.662,-0.011600,-0.007613,-0.995047,-0.000121,-0.000082,-0.009952,-0.001152, 0.014535, 0.047519,1,-0.000397, 0.000123, 0.000148,1, 0.112598, 0.089178, 9.805598,1,1
1778253921765,   615.687,   615.687,-0.012250,-0.008542,-0.996219,-0.000120,-0.000081,-0.009969,-0.007580, 0.005426, 0.036032,1, 0.000382,-0.000193, 0.000356,1, 0.112553, 0.089204, 9.805598,1,1
1778253921786,   615.712,   615.707,-0.010838,-0.008070,-0.995223,-0.000105,-0.000080,-0.009958, 0.009178, 0.003545, 0.021368,1, 0.000895, 0.000262, 0.000996,1, 0.112458, 0.089364, 9.805598,1,1
1778253921809,   615.732,   615.727,-0.010894,-0.008564,-0.996451,-0.000106,-0.000086,-0.009972,-0.001224, 0.012733, 0.035910,1, 0.000257, 0.000636, 0.001179,1, 0.112395, 0.089426, 9.805598,1,1
1778253921835,   615.757,   615.757,-0.011672,-0.010409,-0.996162,-0.000117,-0.000105,-0.009961,-0.002106,-0.012602, 0.036589,1, 0.001029,-0.000222, 0.000921,1, 0.112366, 0.089503, 9.805597,1,1
1778253921856,   615.782,   615.777,-0.013873,-0.012281,-0.996293,-0.000137,-0.000122,-0.009962,-0.017624,-0.032572, 0.047342,1, 0.000805, 0.000437, 0.000224,1, 0.112393, 0.089640, 9.805596,1,1
1778253921879,   615.797,   615.802,-0.013750,-0.011116,-0.994759,-0.000138,-0.000113,-0.009950,-0.019248,-0.006396, 0.033725,1, 0.000207, 0.000150,-0.000780,1, 0.112356, 0.089691, 9.805596,1,1
1778253921905,   615.827,   615.827,-0.012913,-0.008939,-0.996253,-0.000130,-0.000088,-0.009961,-0.014241, 0.002034, 0.035690,1, 0.000072,-0.000882,-0.000859,1, 0.112415, 0.089702, 9.805595,1,1
1778253921926,   615.852,   615.847,-0.010731,-0.008877,-0.996504,-0.000106,-0.000091,-0.009963, 0.002157, 0.002582, 0.040066,1,-0.000569,-0.000362,-0.000600,1, 0.112494, 0.089580, 9.805595,1,1
1778253921949,   615.877,   615.872,-0.009519,-0.009823,-0.995679,-0.000096,-0.000096,-0.009955, 0.019067,-0.006903, 0.041322,1,-0.000495, 0.000190,-0.000534,1, 0.112413, 0.089408, 9.805598,1,1
1778253921975,   615.897,   615.897,-0.010448,-0.010772,-0.995826,-0.000105,-0.000107,-0.009955, 0.009878,-0.016263, 0.039885,1,-0.000545, 0.000119,-0.001140,1, 0.112335, 0.089360, 9.805599,1,1
1778253921996,   615.922,   615.917,-0.012008,-0.009533,-0.996413,-0.000119,-0.000095,-0.009961,-0.005407,-0.003535, 0.044086,1,-0.000496, 0.000687,-0.001357,1, 0.112276, 0.089256, 9.805601,1,1
1778253922019,   615.947,   615.942,-0.012981,-0.009390,-0.996493,-0.000132,-0.000094,-0.009962,-0.014994,-0.002879, 0.033344,1,-0.000793,-0.000173,-0.001758,1, 0.112425, 0.089343, 9.805598,1,1
1778253922045,   615.967,   615.967,-0.012885,-0.009072,-0.996023,-0.000132,-0.000094,-0.009956,-0.013928, 0.000173, 0.037950,1,-0.000793, 0.000138,-0.001794,1, 0.112426, 0.089116, 9.805600,1,1
1778253922066,   615.992,   615.987,-0.012049,-0.008998,-0.996493,-0.000120,-0.000091,-0.009963,-0.008401, 0.002877, 0.039851,1,-0.001650, 0.000427,-0.001758,1, 0.112401, 0.088867, 9.805603,1,1
1778253922089,   616.017,   616.012,-0.011674,-0.009928,-0.996193,-0.000119,-0.000099,-0.009959,-0.002146,-0.008716, 0.036289,1,-0.000975, 0.000494,-0.001913,1, 0.112320, 0.088615, 9.805606,1,1
1778253922115,   616.037,   616.037,-0.011299,-0.010745,-0.994484,-0.000112,-0.000107,-0.009949, 0.001491,-0.016888, 0.053052,1,-0.001171, 0.000096,-0.002120,1, 0.112289, 0.088452, 9.805608,1,1
1778253922136,   616.062,   616.057,-0.009862,-0.008671,-0.995334,-0.000103,-0.000086,-0.009954, 0.008824,-0.006442, 0.044950,1,-0.001772, 0.000033,-0.002714,1, 0.112314, 0.088210, 9.805610,1,1
1778253922159,   616.087,   616.082,-0.004678,-0.014683,-1.001318,-0.000088,-0.000088,-0.009938, 0.066177,-0.055760,-0.013959,1, 0.004121, 0.001301,-0.003468,1, 0.112013, 0.088362, 9.805613,1,1
1778253922185,   616.107,   616.107,-0.012842,-0.005199,-0.991401,-0.000142,-0.000057,-0.009902,-0.013786, 0.037006, 0.083294,1, 0.001697, 0.003385,-0.002618,1, 0.112046, 0.088044, 9.805614,1,1
1778253922206,   616.132,   616.127,-0.010351,-0.009969,-1.000102,-0.000122,-0.000127,-0.009998, 0.017022, 0.039809, 0.086693,1,-0.000347, 0.000206,-0.002278,1, 0.112049, 0.087830, 9.805616,1,1
1778253922229,   616.157,   616.152,-0.012913,-0.003460,-0.996843,-0.000122,-0.000053,-0.009969,-0.014526, 0.053719, 0.029924,1,-0.001766, 0.000364,-0.001380,1, 0.112100, 0.087594, 9.805618,1,1
1778253922255,   616.177,   616.177,-0.011566,-0.009204,-0.998499,-0.000124,-0.000074,-0.009994,-0.001344,-0.002579, 0.013688,1, 0.000240,-0.000082,-0.001081,1, 0.112083, 0.087687, 9.805617,1,1
1778253922277,   616.202,   616.197,-0.010514,-0.006949,-1.002991,-0.000105,-0.000065,-0.009973, 0.007349,-0.012649, 0.027164,1,-0.000417, 0.000263,-0.001276,1, 0.112055, 0.087586, 9.805618,1,1
1778253922303,   616.227,   616.227,-0.011543,-0.010400,-0.998691,-0.000102,-0.000092,-0.009907,-0.000895,-0.014695, 0.011809,1,-0.001741, 0.001007, 0.000612,1, 0.112269, 0.087239, 9.805619,1,1
1778253922325,   616.247,   616.247,-0.011162,-0.007996,-1.003004,-0.000099,-0.000091,-0.010009, 0.002863, 0.008540,-0.030485,1,-0.004112,-0.003572,-0.000756,1, 0.112435, 0.086831, 9.805621,1,1
1778253922347,   616.272,   616.267,-0.010544,-0.007651,-0.988448,-0.000116,-0.000078,-0.009900, 0.009950,-0.024038,-0.014835,1, 0.000111,-0.000415,-0.001387,1, 0.112427, 0.086904, 9.805620,1,1
1778253922374,   616.297,   616.297,-0.013345,-0.006756,-0.992806,-0.000125,-0.000074,-0.009937,-0.018535, 0.020834, 0.069515,1, 0.000228, 0.000745,-0.001463,1, 0.112308, 0.087097, 9.805620,1,1
1778253922395,   616.322,   616.317,-0.011645,-0.010149,-1.000429,-0.000110,-0.000102,-0.009984,-0.039159, 0.008118, 0.068284,1, 0.002574, 0.000761,-0.000583,1, 0.112236, 0.087303, 9.805619,1,1
1778253922417,   616.342,   616.337,-0.012393,-0.007963,-0.997234,-0.000121,-0.000084,-0.009966,-0.009597,-0.007213, 0.069012,1, 0.000226, 0.000753,-0.000734,1, 0.112056, 0.087377, 9.805620,1,1
1778253922444,   616.367,   616.367,-0.011609,-0.009577,-0.997419,-0.000113,-0.000097,-0.009965,-0.001718,-0.006630, 0.024279,1,-0.000459,-0.000809,-0.001002,1, 0.112156, 0.087278, 9.805620,1,1
1778253922465,   616.392,   616.387,-0.012689,-0.007499,-0.995202,-0.000123,-0.000075,-0.009957,-0.000548, 0.004434, 0.033043,1,-0.000278,-0.000206,-0.001120,1, 0.112071, 0.087244, 9.805621,1,1
1778253922487,   616.412,   616.407,-0.012516,-0.007606,-0.995727,-0.000123,-0.000078,-0.009961,-0.013590, 0.018535, 0.034530,1,-0.000465,-0.000388,-0.000586,1, 0.112128, 0.087148, 9.805622,1,1
1778253922514,   616.437,   616.437,-0.012427,-0.008073,-0.996343,-0.000125,-0.000078,-0.009965,-0.009821, 0.007851, 0.034839,1, 0.000353, 0.000370,-0.000855,1, 0.112030, 0.087029, 9.805624,1,1
1778253922535,   616.462,   616.457,-0.011872,-0.008583,-0.995461,-0.000117,-0.000085,-0.009955,-0.006080, 0.003511, 0.038240,1,-0.000214,-0.000071,-0.000412,1, 0.112038, 0.086976, 9.805624,1,1
1778253922557,   616.482,   616.477,-0.011658,-0.011586,-0.998951,-0.000109,-0.000095,-0.009961,-0.002126, 0.003246, 0.033675,1,-0.001200,-0.000282,-0.000439,1, 0.112087, 0.086853, 9.805625,1,1
1778253922584,   616.507,   616.507,-0.010386,-0.007504,-0.997223,-0.000101,-0.000083,-0.009973, 0.010243, 0.013188, 0.026205,1, 0.000819, 0.000378,-0.000149,1, 0.112083, 0.086803, 9.805625,1,1
1778253922605,   616.532,   616.527,-0.010653,-0.008881,-0.993576,-0.000107,-0.000089,-0.009940, 0.013200, 0.004238, 0.028087,1, 0.000719,-0.000051,-0.001174,1, 0.112039, 0.086868, 9.805625,1,1
1778253922627,   616.552,   616.547,-0.010876,-0.009091,-0.994525,-0.000107,-0.000089,-0.009955, 0.011942,-0.007636, 0.020489,1,-0.000098, 0.000144,-0.000087,1, 0.112077, 0.086709, 9.805626,1,1
1778253922654,   616.577,   616.577,-0.011848,-0.009262,-0.994886,-0.000118,-0.000089,-0.009958,-0.004123,-0.004157, 0.049127,1,-0.000615,-0.000620,-0.000908,1, 0.112081, 0.086657, 9.805627,1,1
1778253922675,   616.602,   616.597,-0.012916,-0.008378,-0.995841,-0.000131,-0.000082,-0.009953,-0.015655, 0.000318, 0.040835,1,-0.000174,-0.000327,-0.001031,1, 0.112044, 0.086609, 9.805628,1,1
1778253922697,   616.622,   616.617,-0.012275,-0.008599,-0.995178,-0.000127,-0.000086,-0.009946,-0.014721,-0.000396, 0.033122,1,-0.000407,-0.000712,-0.001357,1, 0.112114, 0.086506, 9.805628,1,1
1778253922724,   616.647,   616.647,-0.011761,-0.009209,-0.994469,-0.000117,-0.000094,-0.009946,-0.003354,-0.003834, 0.053215,1,-0.000779, 0.000445,-0.001148,1, 0.111964, 0.086450, 9.805630,1,1
1778253922745,   616.672,   616.667,-0.011211,-0.008825,-0.995821,-0.000112,-0.000090,-0.009961, 0.000203,-0.003793, 0.040914,1,-0.001512,-0.000761,-0.001305,1, 0.112022, 0.086266, 9.805631,1,1
1778253922767,   616.692,   616.687,-0.011770,-0.007794,-0.995897,-0.000116,-0.000079,-0.009960, 0.001290, 0.008359, 0.045804,1,-0.000629, 0.000372,-0.001221,1, 0.111972, 0.086169, 9.805633,1,1
1778253922794,   616.717,   616.717,-0.010971,-0.006336,-0.996398,-0.000112,-0.000066,-0.009963, 0.004203, 0.024037, 0.034307,1,-0.000148,-0.000113,-0.001091,1, 0.111793, 0.086172, 9.805634,1,1
1778253922815,   616.742,   616.737,-0.010489,-0.007693,-0.995903,-0.000105,-0.000076,-0.009957, 0.008831, 0.018929, 0.035488,1, 0.000538, 0.000416,-0.000072,1, 0.111781, 0.086297, 9.805634,1,1
1778253922838,   616.762,   616.762,-0.009404,-0.007581,-0.996045,-0.000096,-0.000076,-0.009960, 0.019749, 0.011979, 0.037767,1, 0.000300,-0.000239, 0.000619,1, 0.111980, 0.086328, 9.805631,1,1
1778253922864,   616.787,   616.787,-0.010426,-0.008495,-0.995302,-0.000105,-0.000082,-0.009953, 0.009765, 0.003057, 0.045054,1,-0.000238,-0.000542, 0.000587,1, 0.112028, 0.086354, 9.805630,1,1
1778253922885,   616.812,   616.807,-0.011164,-0.009690,-0.995298,-0.000113,-0.000092,-0.009954, 0.003720,-0.005165, 0.034171,1, 0.000737, 0.000556, 0.000564,1, 0.111986, 0.086392, 9.805630,1,1
1778253922908,   616.832,   616.832,-0.012413,-0.009313,-0.995767,-0.000122,-0.000092,-0.009957,-0.009791,-0.005036, 0.040488,1, 0.000183,-0.000035, 0.000312,1, 0.111939, 0.086302, 9.805632,1,1
1778253922934,   616.857,   616.857,-0.012511,-0.008536,-0.995687,-0.000125,-0.000089,-0.009956,-0.010735, 0.002605, 0.041276,1,-0.000291, 0.000257,-0.000299,1, 0.111949, 0.086301, 9.805632,1,1
1778253922956,   616.882,   616.877,-0.012241,-0.007598,-0.996195,-0.000125,-0.000075,-0.009955,-0.009353, 0.008539, 0.041528,1,-0.000316,-0.000246,-0.000073,1, 0.111892, 0.086278, 9.805632,1,1
1778253922978,   616.902,   616.902,-0.012450,-0.008371,-0.995338,-0.000124,-0.000085,-0.009948,-0.010210, 0.004133, 0.044705,1, 0.000121,-0.000078,-0.000335,1, 0.111887, 0.086232, 9.805633,1,1
1778253923004,   616.927,   616.927,-0.012044,-0.009173,-0.995917,-0.000119,-0.000092,-0.009957,-0.006303,-0.003676, 0.039027,1,-0.000494, 0.000711,-0.000237,1, 0.111785, 0.086263, 9.805634,1,1
1778253923026,   616.952,   616.947,-0.011544,-0.009097,-0.995727,-0.000116,-0.000092,-0.009960,-0.005357,-0.004244, 0.039695,1,-0.000092,-0.000220,-0.000025,1, 0.111782, 0.086048, 9.805635,1,1
1778253923048,   616.972,   616.972,-0.011033,-0.008860,-0.996379,-0.000111,-0.000090,-0.009963, 0.003673,-0.000880, 0.034490,1, 0.000094,-0.000058,-0.000555,1, 0.111871, 0.086010, 9.805634,1,1
1778253923074,   616.997,   616.997,-0.011089,-0.007655,-0.996009,-0.000110,-0.000078,-0.009962, 0.003196, 0.010988, 0.038116,1,-0.000323,-0.000572,-0.000364,1, 0.111955, 0.086046, 9.805634,1,1
1778253923096,   617.022,   617.017,-0.011704,-0.007852,-0.996009,-0.000117,-0.000076,-0.009962, 0.003486, 0.012436, 0.037486,1,-0.000136,-0.000002, 0.000003,1, 0.111993, 0.086014, 9.805634,1,1
1778253923118,   617.042,   617.042,-0.011877,-0.009155,-0.995844,-0.000117,-0.000092,-0.009959,-0.004527,-0.003835, 0.039737,1,-0.000135, 0.000698, 0.000697,1, 0.111921, 0.085944, 9.805634,1,1
1778253923144,   617.067,   617.067,-0.012146,-0.009290,-0.995282,-0.000120,-0.000092,-0.009951,-0.007257,-0.005134, 0.045255,1, 0.000122, 0.000677,-0.000099,1, 0.111832, 0.085975, 9.805635,1,1
1778253923166,   617.092,   617.087,-0.012508,-0.008596,-0.996360,-0.000124,-0.000087,-0.009960,-0.011217,-0.002446, 0.045331,1, 0.000236,-0.000444,-0.000357,1, 0.111834, 0.086020, 9.805635,1,1
1778253923188,   617.117,   617.112,-0.012406,-0.009395,-0.995866,-0.000124,-0.000092,-0.009957,-0.009784,-0.006011, 0.039528,1,-0.000711,-0.000419, 0.000543,1, 0.111885, 0.086096, 9.805634,1,1
1778253923214,   617.137,   617.137,-0.011510,-0.009424,-0.995506,-0.000115,-0.000093,-0.009958,-0.000921,-0.006332, 0.043056,1,-0.000352,-0.000420,-0.000603,1, 0.111967, 0.086072, 9.805633,1,1
1778253923236,   617.162,   617.157,-0.011230,-0.008873,-0.995157,-0.000112,-0.000090,-0.009952, 0.000755,-0.006031, 0.040374,1,-0.000072,-0.000317,-0.000556,1, 0.112120, 0.086068, 9.805632,1,1
1778253923259,   617.187,   617.182,-0.010998,-0.008555,-0.995758,-0.000111,-0.000087,-0.009959, 0.004148, 0.002079, 0.040582,1,-0.000585,-0.000133,-0.000972,1, 0.112004, 0.085962, 9.805634,1,1
1778253923284,   617.207,   617.207,-0.011101,-0.007576,-0.995599,-0.000110,-0.000078,-0.009958, 0.003057, 0.011582, 0.042140,1, 0.000036, 0.000453,-0.000718,1, 0.111909, 0.085882, 9.805635,1,1
1778253923306,   617.232,   617.227,-0.011018,-0.007644,-0.994882,-0.000110,-0.000074,-0.009950, 0.001432, 0.005973, 0.031027,1, 0.000604,-0.000323,-0.000259,1, 0.111923, 0.085963, 9.805634,1,0
1778253923329,   617.257,   617.252,-0.011282,-0.007924,-0.995497,-0.000112,-0.000079,-0.009956, 0.001259, 0.008134, 0.043148,1,-0.000752, 0.000429,-0.000376,1, 0.111888, 0.085821, 9.805636,1,0
1778253923354,   617.277,   617.277,-0.011802,-0.008707,-0.995445,-0.000115,-0.000085,-0.009955,-0.003910, 0.000387, 0.043654,1, 0.000071, 0.000077,-0.000279,1, 0.111824, 0.085778, 9.805637,1,0
1778253923376,   617.302,   617.297,-0.011779,-0.009075,-0.995537,-0.000119,-0.000093,-0.009954,-0.008006,-0.003792, 0.042800,1, 0.000104,-0.000034,-0.000188,1, 0.111860, 0.085783, 9.805636,1,0
1778253923399,   617.327,   617.322,-0.012694,-0.009246,-0.995359,-0.000126,-0.000094,-0.009955,-0.012629,-0.004943, 0.044497,1, 0.000523,-0.000854,-0.000718,1, 0.111884, 0.085746, 9.805636,1,0
1778253923424,   617.347,   617.347,-0.012672,-0.008590,-0.996187,-0.000128,-0.000088,-0.009961,-0.012444, 0.001488, 0.036380,1,-0.000027, 0.000355,-0.000182,1, 0.111876, 0.085707, 9.805637,1,0
1778253923446,   617.372,   617.367,-0.012817,-0.007824,-0.996154,-0.000128,-0.000079,-0.009962,-0.012563, 0.000889, 0.039110,1,-0.000368,-0.000354,-0.000792,1, 0.111927, 0.085637, 9.805637,1,0
1778253923469,   617.397,   617.392,-0.012486,-0.008311,-0.995838,-0.000125,-0.000083,-0.009959,-0.010654, 0.004184, 0.039800,1, 0.000415,-0.000108,-0.000364,1, 0.111795, 0.085698, 9.805638,1,0
1778253923495,   617.417,   617.417,-0.012260,-0.008113,-0.995849,-0.000126,-0.000080,-0.009958,-0.008363, 0.006236, 0.039691,1, 0.000513, 0.000407,-0.000274,1, 0.111852, 0.085812, 9.805636,1,0
1778253923516,   617.442,   617.437,-0.012240,-0.009141,-0.996175,-0.000123,-0.000092,-0.009964,-0.009702, 0.000605, 0.039348,1, 0.000243, 0.000132,-0.000020,1, 0.111823, 0.085862, 9.805636,1,0
1778253923543,   617.467,   617.467,-0.011857,-0.009765,-0.995300,-0.000120,-0.000098,-0.009954,-0.004525,-0.009906, 0.045078,1,-0.000237, 0.000356,-0.000036,1, 0.111740, 0.085848, 9.805637,1,0
1778253923564,   617.487,   617.487,-0.011730,-0.010436,-0.995683,-0.000118,-0.000102,-0.009957,-0.003301,-0.016497, 0.041327,1, 0.000008, 0.000892,-0.001683,1, 0.111700, 0.085842, 9.805638,1,0
1778253923586,   617.512,   617.507,-0.011228,-0.009511,-0.995486,-0.000113,-0.000098,-0.009955, 0.001170,-0.015585, 0.035850,1,-0.000149, 0.000007,-0.001664,1, 0.111743, 0.085802, 9.805638,1,0
1778253923613,   617.537,   617.537,-0.011341,-0.007556,-0.995816,-0.000111,-0.000075,-0.009959, 0.000542, 0.011595, 0.040017,1,-0.000809, 0.000938,-0.002099,1, 0.111730, 0.085670, 9.805639,1,0
1778253923635,   617.562,   617.557,-0.010943,-0.007308,-0.995980,-0.000109,-0.000074,-0.009960, 0.007950, 0.013892, 0.041280,1, 0.000012, 0.000732,-0.001359,1, 0.111934, 0.085726, 9.805636,1,0
1778253923656,   617.582,   617.577,-0.010146,-0.007109,-0.996045,-0.000102,-0.000071,-0.009961, 0.005435, 0.012543, 0.038047,1, 0.000461,-0.000584,-0.001411,1, 0.111982, 0.085721, 9.805636,1,0
1778253923683,   617.607,   617.607,-0.009699,-0.007925,-0.996350,-0.000100,-0.000080,-0.009963, 0.016797, 0.007947, 0.034784,1,-0.000313, 0.000289,-0.000471,1, 0.111900, 0.085660, 9.805637,1,0
1778253923705,   617.632,   617.627,-0.010094,-0.008606,-0.995218,-0.000100,-0.000088,-0.009955, 0.011851,-0.003791, 0.039665,1, 0.000061, 0.000285,-0.000563,1, 0.111872, 0.085657, 9.805637,1,0
1778253923726,   617.652,   617.647,-0.010399,-0.008380,-0.995365,-0.000103,-0.000084,-0.009956, 0.012957, 0.000003, 0.043165,1,-0.000055, 0.000272,-0.000305,1, 0.111850, 0.085682, 9.805637,1,0
1778253923753,   617.677,   617.677,-0.010219,-0.008250,-0.995297,-0.000100,-0.000083,-0.009953, 0.011644, 0.004824, 0.045104,1, 0.000384, 0.000037,-0.000331,1, 0.111859, 0.085745, 9.805637,1,0
1778253923775,   617.702,   617.697,-0.009648,-0.007265,-0.995523,-0.000100,-0.000074,-0.009954, 0.019451, 0.013839, 0.048406,1,-0.000842,-0.000009, 0.000322,1, 0.111931, 0.085654, 9.805637,1,0
1778253923796,   617.722,   617.717,-0.010662,-0.008219,-0.994814,-0.000108,-0.000081,-0.009949, 0.009275, 0.008238, 0.038831,1, 0.000283, 0.000151,-0.000349,1, 0.111893, 0.085582, 9.805638,1,0
1778253923823,   617.747,   617.747,-0.011137,-0.009273,-0.995555,-0.000108,-0.000091,-0.009958, 0.002490,-0.005410, 0.042585,1, 0.000556, 0.000376, 0.000138,1, 0.111485, 0.085419, 9.805644,1,0
1778253923845,   617.772,   617.767,-0.011308,-0.010200,-0.995935,-0.000115,-0.000103,-0.009957, 0.001501,-0.010429, 0.042291,1,-0.000690, 0.000144,-0.000157,1, 0.111448, 0.085332, 9.805645,1,0
1778253923866,   617.792,   617.787,-0.010973,-0.010892,-0.997125,-0.000113,-0.000107,-0.009970, 0.007098,-0.010545, 0.039525,1,-0.000607, 0.000330,-0.000515,1, 0.111442, 0.085283, 9.805646,1,0
1778253923893,   617.817,   617.817,-0.011092,-0.010795,-0.995214,-0.000118,-0.000093,-0.009955, 0.002718,-0.020762, 0.045926,1,-0.000106,-0.000514,-0.001568,1, 0.111505, 0.085095, 9.805647,1,0
1778253923915,   617.842,   617.837,-0.012088,-0.007965,-0.997133,-0.000123,-0.000079,-0.009962,-0.007105, 0.005485, 0.038985,1,-0.001028, 0.000358,-0.001286,1, 0.111493, 0.084849, 9.805649,1,0
1778253923936,   617.862,   617.857,-0.010268,-0.004965,-0.995911,-0.000105,-0.000050,-0.009954,-0.002144, 0.026687, 0.043685,1,-0.000457,-0.000052,-0.000712,1, 0.111440, 0.084733, 9.805651,1,0
1778253923963,   617.887,   617.887,-0.008088,-0.005342,-0.995165,-0.000083,-0.000056,-0.009954, 0.032100, 0.032250, 0.046422,1, 0.000090,-0.000109,-0.000019,1, 0.111423, 0.084643, 9.805652,1,0
1778253923985,   617.912,   617.907,-0.004250,-0.008034,-0.996823,-0.000045,-0.000081,-0.009964, 0.055812, 0.008339, 0.041216,1,-0.000200,-0.000482, 0.000131,1, 0.111447, 0.084600, 9.805652,1,0
1778253924006,   617.932,   617.927,-0.009649, 0.005407,-0.985469,-0.000048,-0.000002,-0.009898, 0.072925, 0.008923, 0.045323,1, 0.001119, 0.001369, 0.000765,1, 0.111460, 0.084616, 9.805652,1,0
1778253924033,   617.957,   617.957,-0.001211,-0.013068,-1.004244,-0.000036,-0.000100,-0.010041, 0.098106,-0.042396,-0.042611,1, 0.005974, 0.003695, 0.004699,1, 0.109844, 0.085927, 9.805658,1,0
1778253924055,   617.982,   617.977,-0.009843, 0.009957,-0.996240,-0.000088, 0.000087,-0.010009, 0.043369, 0.107596, 0.052985,1,-0.000543, 0.006702, 0.003830,1, 0.109939, 0.085504, 9.805661,1,0
1778253924078,   618.002,   618.002,-0.010680,-0.003416,-1.003129,-0.000117,-0.000015,-0.010028, 0.004826, 0.052871,-0.031673,1, 0.003249,-0.001680, 0.009601,1, 0.109612, 0.086470, 9.805656,1,0
1778253924104,   618.027,   618.027,-0.015655,-0.004775,-0.995145,-0.000150,-0.000069,-0.009940,-0.043875, 0.040277, 0.046607,1, 0.003235, 0.000838, 0.009793,1, 0.109622, 0.087197, 9.805650,1,0
1778253924125,   618.052,   618.047,-0.017246,-0.021234,-0.995128,-0.000173,-0.000215,-0.009947,-0.051573,-0.010907, 0.056589,1, 0.005651,-0.000161, 0.009876,1, 0.109521, 0.088172, 9.805642,1,0
1778253924148,   618.072,   618.072,-0.020655,-0.024399,-0.996831,-0.000207,-0.000232,-0.009941,-0.092946,-0.149993, 0.030061,1, 0.004569, 0.001287, 0.004943,1, 0.109576, 0.089418, 9.805630,1,0
1778253924173,   618.097,   618.097,-0.025925,-0.029105,-0.992273,-0.000247,-0.000289,-0.009912,-0.144286,-0.195954, 0.074750,1, 0.000334,-0.003169,-0.000412,1, 0.110051, 0.089479, 9.805624,1,0
1778253924195,   618.122,   618.117,-0.019570,-0.018172,-1.000034,-0.000237,-0.000164,-0.009991,-0.124631,-0.114751, 0.103585,1,-0.001240,-0.000479,-0.006349,1, 0.110191, 0.089261, 9.805625,1,0
1778253924218,   618.142,   618.142,-0.019400,-0.013689,-1.002584,-0.000179,-0.000145,-0.009984,-0.079319,-0.045532,-0.026373,1,-0.004225,-0.000148,-0.008173,1, 0.111794, 0.089281, 9.805606,1,0
1778253924244,   618.167,   618.167,-0.013932, 0.005268,-0.997276,-0.000147, 0.000036,-0.009967,-0.024766, 0.140235, 0.025673,1,-0.004106,-0.000472,-0.006989,1, 0.111872, 0.088449, 9.805613,1,0
1778253924265,   618.192,   618.187,-0.005459, 0.000652,-0.993270,-0.000060, 0.000028,-0.009963, 0.018797, 0.081231, 0.015731,1,-0.002275,-0.002211,-0.006433,1, 0.111993, 0.087949, 9.805616,1,0
1778253924288,   618.212,   618.212,-0.004515, 0.000773,-0.995196,-0.000042, 0.000003,-0.009954, 0.067444, 0.095625, 0.046078,1, 0.000073, 0.000149, 0.000818,1, 0.111717, 0.088050, 9.805618,1,0
1778253924314,   618.237,   618.237,-0.001161,-0.005165,-0.996100,-0.000010,-0.000052,-0.009972, 0.100265, 0.037614, 0.037209,1, 0.000884,-0.000741, 0.001317,1, 0.111669, 0.088293, 9.805616,1,0
1778253924335,   618.262,   618.257,-0.000745,-0.010861,-0.994237,-0.000006,-0.000103,-0.009943, 0.115721, 0.010025, 0.029918,1, 0.001145,-0.000648, 0.002409,1, 0.111709, 0.088604, 9.805614,1,0
1778253924358,   618.282,   618.282,-0.003434,-0.010080,-0.994279,-0.000031,-0.000105,-0.009952, 0.078172,-0.010054, 0.055067,1, 0.001692,-0.000129, 0.002052,1, 0.111858, 0.088851, 9.805610,1,0
1778253924384,   618.307,   618.307,-0.006314,-0.009964,-0.996077,-0.000060,-0.000096,-0.009964, 0.049927,-0.008779, 0.037427,1, 0.000319,-0.000640, 0.001317,1, 0.111862, 0.088942, 9.805609,1,0
1778253924405,   618.332,   618.327,-0.014189,-0.007538,-0.995491,-0.000137,-0.000075,-0.009960,-0.005956,-0.002622, 0.033782,1, 0.000748,-0.000250, 0.000998,1, 0.111880, 0.089047, 9.805608,1,0
1778253924428,   618.357,   618.352,-0.018824,-0.007537,-0.995725,-0.000185,-0.000075,-0.009960,-0.074273, 0.014028, 0.040905,1, 0.000947,-0.000164, 0.001376,1, 0.110277, 0.087920, 9.805635,1,0
1778253924454,   618.377,   618.377,-0.021261,-0.007068,-0.996275,-0.000211,-0.000069,-0.009963,-0.098259, 0.018780, 0.035510,1, 0.001416,-0.000002, 0.001533,1, 0.110240, 0.088134, 9.805634,1,0
1778253924475,   618.402,   618.397,-0.020200,-0.011964,-0.995693,-0.000203,-0.000122,-0.009958,-0.096529,-0.029406, 0.037134,1, 0.001365,-0.000372, 0.001239,1, 0.110219, 0.088300, 9.805633,1,0
1778253924498,   618.427,   618.422,-0.018669,-0.016140,-0.995336,-0.000182,-0.000145,-0.009958,-0.072924,-0.069846, 0.044721,1, 0.000611, 0.000502, 0.000289,1, 0.110136, 0.088455, 9.805633,1,0
1778253924524,   618.447,   618.447,-0.060491,-0.042523,-0.986916,-0.000459,-0.000425,-0.009972,-0.482306,-0.327438, 0.127277,1, 0.013042,-0.003426, 0.002782,1, 0.111011, 0.089972, 9.805609,1,0
1778253924545,   618.472,   618.467, 0.014100,-0.057160,-1.079725,-0.000323,-0.000624,-0.010205, 0.242561,-0.361626,-0.338644,1,-0.004589,-0.004879,-0.021701,1, 0.107689, 0.092247, 9.805625,1,0
1778253924568,   618.497,   618.492, 0.121559,-0.065388,-1.025410, 0.001338,-0.000656,-0.011216, 1.272811,-0.559395,-0.249858,1, 0.052189, 0.038103,-0.061132,1, 0.079515, 0.083490, 9.805972,1,0
1778253924594,   618.517,   618.517, 0.056193,-0.039337,-0.924683, 0.000548,-0.000295,-0.008691, 0.631927,-0.306584, 0.737956,1,-0.062299,-0.009967,-0.057021,1, 0.081156, 0.077245, 9.806010,1,0
1778253924615,   618.542,   618.537, 0.061877, 0.041513,-0.901539, 0.000402, 0.000163,-0.008604, 0.336012,-0.435619,-1.538605,1, 0.025982,-0.082838,-0.057272,1, 0.096574, 0.071349, 9.805915,1,0
1778253924638,   618.567,   618.562, 0.044342, 0.042161,-1.086150, 0.000152, 0.000543,-0.010288, 0.544684, 0.480909,-0.845686,1,-0.027206,-0.033289,-0.049998,1, 0.110863, 0.066621, 9.805797,1,0
1778253924664,   618.587,   618.587, 0.044044, 0.005250,-1.026368, 0.000250, 0.000083,-0.009998, 0.542683, 0.116425,-0.259424,1,-0.032868, 0.014406,-0.020458,1, 0.110309, 0.063920, 9.805821,1,0
1778253924685,   618.612,   618.607, 0.037511, 0.127356,-1.005874, 0.000449, 0.001471,-0.010248, 0.224754, 0.994881, 0.001134,1,-0.058078, 0.005824,-0.013872,1, 0.112883, 0.052276, 9.805861,1,0
1778253924708,   618.637,   618.632, 0.104109, 0.142450,-0.978940, 0.001122, 0.001561,-0.009665, 1.117830, 1.447104, 0.205924,1, 0.000098, 0.057720, 0.044508,1, 0.095072, 0.050139, 9.806061,1,0
1778253924734,   618.657,   618.657, 0.104295, 0.098962,-0.995057, 0.001048, 0.001021,-0.009944, 1.113892, 1.017277, 0.047937,1,-0.024190, 0.023342, 0.078771,1, 0.090394, 0.046009, 9.806126,1,0
1778253924756,   618.682,   618.677, 0.131895,-0.018991,-1.029359, 0.001335,-0.000174,-0.010306, 1.215759, 0.404820,-0.930166,1,-0.029762, 0.024887, 0.097746,1, 0.083522, 0.039046, 9.806216,1,0
1778253924782,   618.707,   618.707, 0.169277, 0.088073,-0.977718, 0.001664, 0.000971,-0.010009, 1.738274, 0.880669, 0.218188,1,-0.021068, 0.042761, 0.114942,1, 0.076910, 0.016281, 9.806334,1,0
1778253924804,   618.727,   618.727, 0.150593, 0.024642,-0.969478, 0.001473, 0.000246,-0.009825, 1.548773, 0.256825, 0.299038,1, 0.003634, 0.033810, 0.132720,1, 0.070908, 0.015256, 9.806382,1,0
1778253924826,   618.752,   618.747, 0.100753, 0.059810,-1.022244, 0.000959, 0.000749,-0.010090, 1.082662,-0.149365,-0.304753,1, 0.000667, 0.003740, 0.148544,1, 0.066742, 0.013394, 9.806414,1,0
1778253924853,   618.777,   618.777, 0.121444, 0.000147,-1.006161, 0.001205, 0.000222,-0.010051, 1.246782, 0.017034,-0.060595,1, 0.025095, 0.015674, 0.158784,1, 0.055343, 0.016345, 9.806480,1,0
1778253924874,   618.802,   618.797, 0.109911, 0.026962,-0.939951, 0.001132, 0.000336,-0.009350, 1.103005, 0.438643, 0.311702,1,-0.009285, 0.024818, 0.161300,1, 0.050748, 0.014426, 9.806508,1,0
1778253924896,   618.822,   618.817, 0.118988, 0.021366,-0.923320, 0.001207,-0.000089,-0.009183, 1.290342, 0.273076, 0.732883,1,-0.019880,-0.003451, 0.178398,1, 0.047283, 0.013096, 9.806527,1,0
1778253924923,   618.847,   618.847,-0.003014,-0.088453,-0.845394, 0.000230,-0.000843,-0.008416, 0.030340,-0.867265, 1.515982,1,-0.062139,-0.007363, 0.180817,1, 0.060129,-0.001810, 9.806465,1,0
1778253924944,   618.872,   618.867, 0.052661,-0.062275,-1.153724, 0.000304,-0.000577,-0.011038, 0.295857,-0.246980,-0.130175,1,-0.064602, 0.009212, 0.152935,1, 0.059979,-0.019139, 9.806448,1,0
1778253924966,   618.892,   618.887, 0.058141,-0.112882,-0.998875, 0.000580,-0.000991,-0.009816, 0.440724,-0.854912, 0.668716,1,-0.012071, 0.023411, 0.137719,1, 0.054350,-0.024386, 9.806469,1,0
1778253924993,   618.917,   618.917, 0.067515,-0.133978,-0.909155, 0.000662,-0.001380,-0.008997, 0.709148,-1.336247, 0.890745,1, 0.010831, 0.027692, 0.084879,1, 0.046179,-0.022042, 9.806517,1,0
1778253925014,   618.942,   618.937, 0.060630,-0.067500,-0.988549, 0.000583,-0.000769,-0.009919, 0.549688,-0.964582, 0.572486,1, 0.001801,-0.027410, 0.046042,1, 0.049929,-0.023541, 9.806495,1,0
1778253925036,   618.962,   618.957, 0.048254,-0.081419,-0.993589, 0.000449,-0.000749,-0.010120, 0.573445,-0.829699,-0.486193,1, 0.032580,-0.020859, 0.018329,1, 0.052596,-0.019584, 9.806489,1,0
1778253925063,   618.987,   618.987, 0.072358,-0.082797,-1.012021, 0.000703,-0.000889,-0.010247, 0.761541,-0.822743,-0.118034,1, 0.020851, 0.004634,-0.013657,1, 0.051804,-0.010130, 9.806508,1,0
1778253925084,   619.012,   619.007, 0.066960,-0.100083,-1.012155, 0.000711,-0.000843,-0.009957, 0.768667,-0.560207,-0.535384,1,-0.015075, 0.009502,-0.026728,1, 0.050467,-0.010320, 9.806515,1,0
1778253925106,   619.032,   619.027, 0.059929,-0.030182,-1.065656, 0.000634,-0.000344,-0.010241, 0.757735,-0.568124,-0.680022,1,-0.069498, 0.001792,-0.049819,1, 0.048717,-0.021274, 9.806506,1,0
1778253925133,   619.057,   619.057, 0.114892,-0.092860,-1.053151, 0.001233,-0.001002,-0.010037, 1.164541,-0.937130,-0.521342,1,-0.007853, 0.041107,-0.067461,1, 0.036553,-0.026718, 9.806545,1,0
1778253925154,   619.082,   619.077, 0.103783,-0.067618,-0.944540, 0.001093,-0.000650,-0.009914, 0.889348,-0.888193,-0.273246,1, 0.018833, 0.031597,-0.102334,1, 0.031326,-0.021725, 9.806576,1,0
1778253925176,   619.102,   619.097, 0.108719,-0.050350,-0.986121, 0.001172,-0.000462,-0.010095, 1.021230,-0.536887,-0.270506,1, 0.031542, 0.036880,-0.122680,1, 0.025600,-0.014047, 9.806606,1,0
1778253925203,   619.127,   619.127, 0.099350,-0.036441,-1.006183, 0.001113,-0.000397,-0.010195, 0.992742,-0.358804,-0.060652,1, 0.043504, 0.023963,-0.140021,1, 0.017702,-0.000079, 9.806634,1,0
1778253925224,   619.152,   619.147, 0.133723,-0.006709,-0.970020, 0.001344,-0.000188,-0.009716, 1.235529,-0.171169, 0.084917,1, 0.040912, 0.034062,-0.145700,1, 0.009367, 0.007685, 9.806643,1,0
1778253925246,   619.172,   619.167, 0.128467,-0.003607,-0.930882, 0.001259,-0.000109,-0.009354, 1.246339,-0.388116, 0.236340,1, 0.020533, 0.017885,-0.142557,1, 0.005661, 0.011698, 9.806642,1,0
1778253925273,   619.197,   619.197, 0.137539, 0.001786,-0.959335, 0.001381,-0.000032,-0.009641, 1.351234, 0.028156, 0.398781,1,-0.016627,-0.001400,-0.132376,1, 0.002474, 0.010126, 9.806644,1,0
1778253925294,   619.222,   619.217, 0.118694,-0.022531,-0.932291, 0.001132,-0.000301,-0.009332, 1.210524,-0.307203, 0.576737,1,-0.005343,-0.012112,-0.133902,1, 0.005223, 0.008344, 9.806645,1,0
1778253925317,   619.242,   619.242, 0.139938,-0.016203,-1.010834, 0.001288,-0.000046,-0.010050, 1.383141,-0.161718,-0.106247,1,-0.035592,-0.027150,-0.138055,1, 0.011665,-0.003924, 9.806643,1,0
1778253925343,   619.267,   619.267, 0.111250,-0.033307,-0.991673, 0.001003,-0.000290,-0.009759, 1.107168,-0.332325, 0.081649,1, 0.000151,-0.012841,-0.148058,1, 0.016583,-0.005685, 9.806634,1,0
1778253925365,   619.292,   619.287, 0.104028,-0.034364,-0.990228, 0.001036,-0.000369,-0.010021, 1.452183,-0.423399,-0.448300,1, 0.002328,-0.018018,-0.157465,1, 0.021366,-0.008172, 9.806623,1,0
1778253925387,   619.312,   619.312, 0.108577,-0.037607,-1.002463, 0.001082,-0.000338,-0.009919, 1.092188,-0.370620,-0.024197,1, 0.003833,-0.021384,-0.169064,1, 0.028075,-0.001688, 9.806610,1,0
1778253925413,   619.337,   619.337, 0.112935,-0.012845,-0.999439, 0.001039,-0.000079,-0.010022, 1.138033,-0.124248, 0.005451,1, 0.017358,-0.015067,-0.173144,1, 0.030988, 0.002282, 9.806601,1,0
1778253925435,   619.362,   619.357, 0.119098,-0.007464,-1.002282, 0.001189,-0.000030,-0.010132, 0.984858,-0.169860,-0.145773,1, 0.006521,-0.013700,-0.167699,1, 0.032883, 0.004455, 9.806594,1,0
1778253925457,   619.382,   619.382, 0.089198,-0.020124,-0.998291, 0.001025,-0.000182,-0.010028, 0.910674,-0.188035, 0.016693,1, 0.028921,-0.009598,-0.168411,1, 0.036233, 0.010232, 9.806578,1,0
1778253925483,   619.407,   619.407, 0.098720, 0.003761,-0.998657, 0.000905, 0.000033,-0.010039, 1.005932, 0.049576, 0.013094,1, 0.018359,-0.005692,-0.167582,1, 0.037986, 0.013290, 9.806567,1,0
1778253925505,   619.432,   619.427, 0.102347, 0.006195,-1.003022, 0.001045, 0.000091,-0.010005, 1.256438, 0.256804,-0.078397,1,-0.023202,-0.019693,-0.156876,1, 0.041080, 0.011460, 9.806558,1,0
1778253925527,   619.452,   619.452, 0.106040, 0.001289,-0.974452, 0.001048, 0.000033,-0.009570, 1.086509, 0.024576, 0.250424,1, 0.010563,-0.010482,-0.146264,1, 0.046930, 0.012286, 9.806530,1,0
1778253925553,   619.477,   619.477, 0.114899, 0.013079,-1.007622, 0.001032,-0.000004,-0.009845, 1.178873, 0.140994,-0.074894,1,-0.001024,-0.029550,-0.142483,1, 0.053013, 0.012729, 9.806499,1,0
1778253925575,   619.502,   619.497, 0.066013, 0.016224,-1.002345, 0.000783, 0.000165,-0.010119, 1.039168, 0.037367, 0.100617,1, 0.000404,-0.034453,-0.129425,1, 0.059346, 0.011779, 9.806463,1,0
1778253925597,   619.522,   619.522, 0.058004, 0.009469,-1.038145, 0.000580,-0.000037,-0.010513, 0.631584, 0.104975,-0.374287,1,-0.001830, 0.004869,-0.118976,1, 0.062598, 0.012081, 9.806443,1,0
1778253925623,   619.547,   619.547, 0.069269,-0.001080,-1.045448, 0.000600,-0.000319,-0.010357, 0.741168, 0.003670,-0.445900,1,-0.022522, 0.014789,-0.113372,1, 0.061259, 0.014614, 9.806448,1,0
1778253925645,   619.572,   619.567, 0.070110, 0.020834,-1.048639, 0.000675, 0.000008,-0.010110, 0.729078, 0.064665,-0.143005,1, 0.002759, 0.020921,-0.103692,1, 0.058181, 0.015841, 9.806464,1,0
1778253925668,   619.597,   619.592, 0.116013, 0.008123,-1.073525, 0.000845,-0.000304,-0.010002, 1.189486, 0.092124,-0.721184,1,-0.061349, 0.017863,-0.087324,1, 0.051223, 0.010564, 9.806511,1,0
1778253925693,   619.617,   619.617, 0.087762, 0.001119,-1.063277, 0.000808,-0.000082,-0.010883, 0.909808, 0.015895,-0.620660,1,-0.031152, 0.034211,-0.078152,1, 0.048086, 0.003966, 9.806531,1,0
1778253925715,   619.642,   619.637, 0.059688,-0.036836,-1.046434, 0.000574,-0.000172,-0.010643, 0.918232,-0.080122,-0.945163,1,-0.015850, 0.032654,-0.083296,1, 0.041651, 0.002749, 9.806561,1,0
1778253925738,   619.667,   619.662, 0.078929, 0.005625,-1.014480, 0.000826, 0.000070,-0.010409, 0.803586, 0.064891,-0.142048,1, 0.040345, 0.057509,-0.088121,1, 0.027764, 0.011000, 9.806604,1,0
1778253925763,   619.687,   619.687, 0.119356, 0.061104,-1.041753, 0.001048, 0.000299,-0.010321, 1.184584, 0.609152,-0.409470,1,-0.049475, 0.071861,-0.080427,1, 0.011858, 0.008383, 9.806640,1,0
1778253925785,   619.712,   619.707, 0.051634,-0.066563,-0.945007, 0.000612,-0.000503,-0.009368, 1.077812, 0.752056,-0.867650,1, 0.046782, 0.021772,-0.065854,1, 0.002594, 0.008625, 9.806645,1,0
1778253925808,   619.737,   619.732, 0.065479,-0.006138,-0.940247, 0.000703,-0.000279,-0.009058, 0.629786,-0.050688, 0.585961,1,-0.075382, 0.045075,-0.066278,1,-0.013750, 0.007155, 9.806638,1,0
1778253925833,   619.757,   619.757, 0.057514,-0.016844,-0.975137, 0.000555,-0.000257,-0.009361, 0.541566,-0.161009, 0.243794,1,-0.025406, 0.047181,-0.057993,1,-0.023936, 0.003444, 9.806621,1,0
1778253925855,   619.782,   619.777, 0.059371,-0.017548,-0.926693, 0.000775,-0.000169,-0.009690, 0.485883,-0.304153, 0.628003,1,-0.008667, 0.033622,-0.066995,1,-0.030901, 0.002267, 9.806602,1,0
1778253925878,   619.807,   619.802, 0.047439,-0.070853,-0.950217, 0.000649,-0.000575,-0.009862, 0.427189,-0.683001, 0.488123,1, 0.052996, 0.012911,-0.082206,1,-0.038433, 0.013474, 9.806565,1,0
1778253925903,   619.827,   619.827, 0.043770, 0.034275,-0.896185, 0.000570, 0.000328,-0.009584, 0.391169, 0.353696, 1.017990,1, 0.034768,-0.000476,-0.078068,1,-0.038057, 0.018646, 9.806559,1,0
1778253925925,   619.852,   619.847, 0.026802, 0.041640,-1.036052, 0.000281, 0.000387,-0.010464, 0.120563,-0.260240,-0.578277,1, 0.052746, 0.022909,-0.067340,1,-0.043075, 0.028929, 9.806513,1,0
1778253925948,   619.877,   619.872, 0.072682, 0.007937,-1.027547, 0.000390, 0.000269,-0.010039, 0.661810, 0.116339,-0.270356,1, 0.025294, 0.048790,-0.049715,1,-0.052488, 0.039285, 9.806431,1,0
1778253925974,   619.897,   619.897, 0.051976, 0.066753,-0.872498, 0.000552, 0.000706,-0.008980, 0.453068, 0.686945, 1.250146,1,-0.058064, 0.023203,-0.020793,1,-0.057366, 0.030507, 9.806435,1,0
1778253925995,   619.922,   619.917, 0.030937,-0.007761,-1.025969, 0.000308,-0.000079,-0.009973, 0.609705,-0.288622, 0.153290,1,-0.047684, 0.041502,-0.015046,1,-0.065737, 0.020492, 9.806408,1,0
1778253926022,   619.947,   619.947,-0.008074,-0.015091,-0.995309,-0.000078,-0.000055,-0.009638,-0.149419,-0.132221, 0.045742,1, 0.018372, 0.027361,-0.014330,1,-0.071104, 0.015392, 9.806380,1,0
1778253926044,   619.967,   619.967, 0.041954,-0.021797,-1.000197, 0.000201,-0.000274,-0.009551, 0.336735,-0.193937,-0.002235,1, 0.007497, 0.027094,-0.017284,1,-0.075544, 0.020046, 9.806338,1,0
1778253926065,   619.992,   619.987, 0.029181, 0.012998,-0.972607, 0.000484, 0.000067,-0.009795, 0.056431, 0.022786,-0.037684,1,-0.006698, 0.020457,-0.011471,1,-0.076808, 0.019882, 9.806329,1,0
1778253926092,   620.017,   620.017,-0.012965,-0.014385,-0.987649, 0.000259,-0.000210,-0.009739,-0.205382,-0.125293, 0.120795,1,-0.017325,-0.003872,-0.003145,1,-0.078119, 0.015233, 9.806327,1,0
1778253926114,   620.042,   620.037, 0.044960, 0.003221,-0.904615, 0.000494, 0.000136,-0.009564,-0.049995, 0.103350,-0.038762,1,-0.025762,-0.005102,-0.011162,1,-0.076603, 0.011811, 9.806344,1,0
1778253926135,   620.062,   620.057, 0.035082,-0.028918,-0.933935, 0.000535,-0.000414,-0.009865, 0.175590,-0.067238,-0.306129,1, 0.011411, 0.008696,-0.015868,1,-0.077389, 0.013797, 9.806334,1,0
1778253926162,   620.087,   620.087, 0.006677,-0.020277,-0.996945, 0.000265,-0.000159,-0.010121,-0.009345,-0.178843, 0.029654,1, 0.013290,-0.020413,-0.027736,1,-0.074191, 0.020415, 9.806348,1,0
1778253926184,   620.112,   620.107, 0.058523, 0.009467,-0.984457, 0.000421, 0.000111,-0.010197,-0.063857, 0.074074,-0.219081,1,-0.024732,-0.001558,-0.015309,1,-0.073674, 0.017677, 9.806357,1,0
1778253926205,   620.132,   620.127, 0.049123,-0.042690,-0.981364, 0.000484,-0.000309,-0.010076,-0.016893,-0.107257,-0.477454,1,-0.047831, 0.020861,-0.016389,1,-0.076800, 0.009888, 9.806344,1,0
1778253926232,   620.157,   620.157, 0.042891,-0.031073,-0.983547, 0.000586,-0.000548,-0.010152, 0.338124,-0.294837, 0.160994,1,-0.010012,-0.012057,-0.044900,1,-0.082138, 0.009595, 9.806301,1,0
1778253926254,   620.182,   620.177, 0.046088, 0.007679,-1.133728, 0.000187, 0.000044,-0.011004, 0.038780, 0.774190,-0.970488,1,-0.004607, 0.009185,-0.019639,1,-0.086274, 0.004102, 9.806270,1,0
1778253926275,   620.202,   620.197, 0.042246, 0.051385,-0.987332, 0.000408, 0.000670,-0.009769,-0.104052, 0.025023,-1.046851,1,-0.016400, 0.019208,-0.016567,1,-0.091635, 0.003296, 9.806221,1,0
1778253926302,   620.227,   620.227, 0.071990, 0.040891,-1.042979, 0.000903, 0.000269,-0.010252, 0.594853, 0.405947,-0.422114,1, 0.016165, 0.069720, 0.005611,1,-0.113307, 0.005450, 9.805994,1,0
1778253926324,   620.252,   620.247, 0.068421, 0.101431,-1.092179, 0.000355, 0.001104,-0.011235,-0.021954, 1.002558,-0.572676,1, 0.016586, 0.077173, 0.028686,1,-0.127150, 0.006807, 9.805823,1,0
1778253926345,   620.272,   620.267, 0.060145, 0.068430,-0.980764, 0.000747, 0.000741,-0.010468, 0.201205, 0.575964, 0.039343,1, 0.015510, 0.124132, 0.053755,1,-0.150202, 0.013736, 9.805490,1,0
1778253926372,   620.297,   620.297, 0.022460, 0.040371,-0.888411, 0.000466, 0.000668,-0.009222, 0.044081, 0.405695, 1.092722,1,-0.015451, 0.106794, 0.090927,1,-0.179507, 0.009362, 9.805002,1,0
1778253926394,   620.322,   620.317, 0.068772, 0.045954,-0.943998, 0.000518, 0.000607,-0.009854, 0.214527, 0.122476,-0.252261,1,-0.047098, 0.103951, 0.110365,1,-0.202638, 0.001788, 9.804556,1,0
1778253926415,   620.342,   620.337, 0.012653, 0.024452,-0.906781, 0.000287, 0.000603,-0.009441,-0.175210, 0.516990,-0.732333,1,-0.045330, 0.077513, 0.119425,1,-0.219031,-0.005516, 9.804202,1,0
1778253926442,   620.367,   620.367, 0.008755, 0.002371,-0.900714, 0.000365, 0.000037,-0.009075,-0.158398, 0.017248, 0.970619,1,-0.003730, 0.078905, 0.126605,1,-0.246721,-0.006023, 9.803544,1,0
1778253926464,   620.392,   620.387, 0.042595, 0.019121,-0.888563, 0.000511, 0.000498,-0.009108,-0.185308, 0.236586, 0.231800,1,-0.006730, 0.072604, 0.119120,1,-0.261284,-0.006852, 9.803166,1,0
1778253926485,   620.412,   620.407, 0.033776, 0.024195,-0.932827, 0.000484, 0.000095,-0.009170, 0.265822, 0.212783,-0.286064,1, 0.017978, 0.078822, 0.116359,1,-0.277862,-0.002593, 9.802712,1,0
1778253926512,   620.437,   620.437,-0.003479, 0.051709,-0.923296, 0.000005, 0.000644,-0.008943,-0.323706, 0.503637, 0.747930,1,-0.018725, 0.046375, 0.130006,1,-0.291034,-0.003922, 9.802330,1,0
1778253926534,   620.462,   620.457, 0.036534,-0.006029,-0.910569, 0.000359,-0.000001,-0.009214, 0.038860,-0.158369, 0.695249,1,-0.031709, 0.036108, 0.127465,1,-0.300032,-0.007470, 9.802056,1,0
1778253926557,   620.482,   620.482, 0.019798,-0.001129,-0.924453, 0.000245,-0.000037,-0.009263,-0.107941,-0.029030, 0.736190,1,-0.039472,-0.012177, 0.122368,1,-0.301719,-0.019070, 9.801989,1,0
1778253926583,   620.507,   620.507, 0.019302,-0.066962,-0.932269, 0.000183,-0.000483,-0.009190,-0.111287,-0.678149, 0.659582,1, 0.007369,-0.005841, 0.113548,1,-0.300400,-0.021139, 9.802025,1,0
1778253926604,   620.532,   620.527, 0.010977,-0.023270,-0.854618, 0.000096, 0.000077,-0.008985,-0.016207,-0.349888,-0.054689,1,-0.005177,-0.060962, 0.097329,1,-0.294226,-0.020513, 9.802214,1,0
1778253926627,   620.552,   620.552, 0.006514, 0.010075,-0.861406, 0.000073, 0.000084,-0.008563,-0.211438, 0.077142, 1.355251,1,-0.010632,-0.079609, 0.093988,1,-0.272902,-0.021964, 9.802828,1,0
1778253926653,   620.577,   620.577, 0.030072,-0.028889,-0.882130, 0.000410,-0.000442,-0.008834, 0.035690,-0.306331, 1.152456,1,-0.015936,-0.088826, 0.072426,1,-0.256449,-0.023462, 9.803268,1,0
1778253926674,   620.602,   620.597,-0.016228, 0.055770,-0.932280,-0.000103, 0.000696,-0.009242, 0.408534,-0.460466,-0.015731,1,-0.058651,-0.125978, 0.054230,1,-0.235690,-0.029525, 9.803773,1,0
1778253926697,   620.622,   620.622, 0.008157,-0.034597,-1.052048,-0.000202,-0.000533,-0.010254,-0.120273,-0.379197,-0.512542,1,-0.028617,-0.123007, 0.055435,1,-0.196437,-0.040773, 9.804598,1,0
1778253926723,   620.647,   620.647, 0.057480,-0.009139,-1.062316, 0.000537,-0.000208,-0.010091, 0.386079,-0.129095,-0.612797,1, 0.009157,-0.127970, 0.048147,1,-0.173615,-0.039158, 9.805035,1,0
1778253926744,   620.672,   620.667, 0.021260,-0.004738,-1.030179, 0.000079, 0.000023,-0.009926, 0.069682, 0.079153,-0.699983,1, 0.014791,-0.143281, 0.035349,1,-0.147661,-0.035535, 9.805474,1,0
1778253926767,   620.692,   620.692, 0.039534,-0.027730,-1.037307, 0.000257,-0.000295,-0.009900, 0.272685,-0.303647,-0.366579,1, 0.004197,-0.107986, 0.029416,1,-0.111640,-0.031572, 9.805964,1,0
1778253926793,   620.717,   620.717, 0.050814, 0.004526,-1.076581, 0.000508,-0.000177,-0.010440, 0.403212, 0.009740,-0.751525,1,-0.029096,-0.101443, 0.034872,1,-0.091943,-0.035543, 9.806154,1,0
1778253926814,   620.742,   620.737, 0.050485,-0.024688,-1.039005, 0.000292,-0.000125,-0.010054,-0.135043,-0.234776,-0.723048,1,-0.032285,-0.093252, 0.036657,1,-0.073018,-0.042834, 9.806285,1,0
1778253926837,   620.762,   620.762, 0.021692,-0.037166,-0.989937, 0.000407,-0.000368,-0.009713, 0.158823,-0.410916, 0.098421,1,-0.004805,-0.087052, 0.009228,1,-0.051191,-0.046590, 9.806406,1,0
1778253926863,   620.787,   620.787, 0.016197,-0.041486,-0.941176, 0.000429,-0.000672,-0.009372, 0.120308,-0.453365, 0.576675,1,-0.001803,-0.071291,-0.009623,1,-0.036301,-0.046588, 9.806472,1,0
1778253926884,   620.812,   620.807,-0.009263,-0.091417,-1.046965,-0.000023,-0.000992,-0.010119, 0.205434,-0.284560, 0.264324,1, 0.000536,-0.075470,-0.027186,1,-0.021556,-0.047034, 9.806514,1,0
1778253926907,   620.837,   620.832,-0.020412,-0.007077,-1.143039,-0.000274,-0.000057,-0.011536,-0.199989,-0.111112,-1.402824,1, 0.062134,-0.034717,-0.050269,1, 0.001276,-0.039773, 9.806569,1,0
1778253926933,   620.857,   620.857,-0.030781, 0.049845,-1.337826,-0.000063, 0.000234,-0.012396,-0.296848, 0.457829,-3.312989,1, 0.005247, 0.008140,-0.039907,1, 0.004758,-0.030814, 9.806601,1,0
1778253926954,   620.882,   620.877, 0.015172,-0.035087,-0.934284, 0.000429, 0.000516,-0.009477,-0.730190, 0.594142, 0.118166,1,-0.018706, 0.059863,-0.034696,1, 0.000177,-0.022286, 9.806624,1,0
1778253926977,   620.907,   620.902, 0.009463, 0.034798,-1.147995,-0.000129, 0.000183,-0.011716, 0.079525, 0.320452,-1.451369,1, 0.016231, 0.049974,-0.020974,1,-0.014831,-0.020293, 9.806618,1,0
1778253927003,   620.927,   620.927,-0.049732, 0.065025,-1.012477,-0.000542, 0.000683,-0.011055,-0.514675, 0.618074,-0.122411,1, 0.023100, 0.108666, 0.003375,1,-0.030359,-0.018880, 9.806584,1,0
1778253927024,   620.952,   620.947, 0.017717,-0.016518,-1.142793, 0.000528,-0.000046,-0.011542,-0.271952, 0.025799, 0.735486,1,-0.024835, 0.144530, 0.018139,1,-0.056591,-0.018134, 9.806470,1,0
1778253927047,   620.977,   620.972,-0.010292, 0.028064,-1.005262, 0.000051, 0.000220,-0.010215,-0.197395, 0.247310,-0.052117,1,-0.036739, 0.171846, 0.022070,1,-0.101826,-0.029046, 9.806078,1,0
1778253927073,   620.997,   620.997,-0.061412,-0.064909,-0.928446,-0.000512,-0.000649,-0.009169,-0.730631,-0.669150, 0.700810,1,-0.015042, 0.170757, 0.016443,1,-0.133718,-0.033073, 9.805682,1,0
1778253927094,   621.022,   621.017,-0.013006,-0.091639,-0.887961, 0.000023,-0.000752,-0.009521, 0.153946,-0.330860, 0.622039,1,-0.005277, 0.156955,-0.001346,1,-0.162268,-0.033579, 9.805250,1,0
1778253927117,   621.047,   621.042,-0.046736,-0.028467,-0.751084,-0.000574,-0.000293,-0.008028,-0.646169,-0.309658, 2.439187,1, 0.002493, 0.082588,-0.022244,1,-0.190425,-0.030432, 9.804753,1,0
1778253927143,   621.067,   621.067, 0.022353,-0.046379,-0.846710,-0.000117,-0.000529,-0.008028, 0.017274,-0.483364, 1.501137,1,-0.001115, 0.069410,-0.026944,1,-0.204101,-0.028595, 9.804484,1,0
1778253927165,   621.092,   621.087, 0.003947,-0.042622,-0.828939, 0.000009,-0.000422,-0.008443,-0.425958,-0.195268, 0.936495,1, 0.012892, 0.015844,-0.036973,1,-0.208029,-0.027264, 9.804405,1,0
1778253927187,   621.117,   621.112,-0.015815,-0.011347,-0.828752,-0.000132, 0.000112,-0.008271,-0.361265,-0.131442, 1.677179,1, 0.055466,-0.020934,-0.045200,1,-0.205521,-0.018466, 9.804479,1,0
1778253927213,   621.137,   621.137, 0.012473, 0.021910,-0.825817,-0.000089, 0.000123,-0.007972,-0.075502, 0.200254, 1.706144,1, 0.016633,-0.043349,-0.045748,1,-0.196468,-0.014124, 9.804671,1,0
1778253927235,   621.162,   621.157,-0.025458, 0.006763,-0.929103,-0.000253, 0.000251,-0.009129,-0.322318, 0.108941, 1.058343,1, 0.009378,-0.083385,-0.042985,1,-0.181872,-0.012015, 9.804956,1,0
1778253927262,   621.187,   621.187,-0.010287, 0.007935,-1.008602,-0.000269, 0.000147,-0.009631,-0.259062, 0.063022,-0.085644,1, 0.007956,-0.087766,-0.034081,1,-0.155444,-0.014562, 9.805408,1,0
1778253927283,   621.207,   621.207,-0.014198,-0.005020,-1.021289,-0.000168, 0.000086,-0.009982,-0.275828,-0.061128,-0.209732,1, 0.031843,-0.110976,-0.028769,1,-0.133131,-0.010922, 9.805740,1,0
1778253927305,   621.232,   621.227,-0.026000, 0.038882,-1.004479,-0.000322, 0.000367,-0.010202, 0.186749, 0.197686,-0.612982,1, 0.033014,-0.097578,-0.019181,1,-0.113248,-0.004215, 9.805995,1,0
1778253927332,   621.257,   621.257,-0.018130, 0.029073,-1.046841,-0.000213, 0.000492,-0.010316,-0.267235, 0.287433,-0.459762,1, 0.014773,-0.080115,-0.001248,1,-0.086936, 0.002786, 9.806264,1,0
1778253927353,   621.282,   621.277,-0.006867, 0.036561,-1.045473, 0.000049, 0.000439,-0.010585,-0.255698, 0.257734,-1.018535,1,-0.009820,-0.055471, 0.013865,1,-0.074776, 0.001393, 9.806365,1,0
1778253927375,   621.302,   621.297, 0.005571, 0.045218,-1.099553, 0.000007, 0.000344,-0.011117,-0.069882, 0.494979,-1.092977,1,-0.013117,-0.018459, 0.022912,1,-0.068931,-0.002124, 9.806408,1,0
1778253927402,   621.327,   621.327,-0.004392, 0.085136,-1.087712,-0.000074, 0.000625,-0.010947,-0.112984, 0.837741,-0.860410,1, 0.026685, 0.025995, 0.042687,1,-0.070721, 0.003684, 9.806395,1,0
1778253927423,   621.352,   621.347, 0.030803, 0.040850,-0.967953, 0.000480, 0.000591,-0.009942,-0.143840, 0.562104,-0.202573,1, 0.034272, 0.044495, 0.054941,1,-0.077927, 0.013401, 9.806332,1,0
1778253927445,   621.372,   621.367, 0.006897, 0.065120,-0.864534, 0.000172, 0.000484,-0.008965, 0.118335, 0.448768,-0.494774,1,-0.024112, 0.049540, 0.067200,1,-0.087772, 0.014043, 9.806247,1,0
1778253927472,   621.397,   621.397, 0.005194,-0.002381,-0.990136,-0.000072,-0.000018,-0.009929,-0.052403,-0.025277, 0.096188,1,-0.078012, 0.067805, 0.091941,1,-0.105457,-0.004328, 9.806082,1,0
1778253927493,   621.422,   621.417, 0.010434,-0.012382,-1.102105, 0.000183,-0.000104,-0.010873,-0.341442, 0.077884, 0.742326,1,-0.038650, 0.063398, 0.090144,1,-0.116176,-0.014729, 9.805951,1,0
1778253927515,   621.442,   621.437, 0.028739,-0.038881,-0.983802, 0.000317,-0.000243,-0.009997, 0.003223,-0.242412, 1.036741,1, 0.018773, 0.084277, 0.081946,1,-0.131064,-0.013921, 9.805764,1,0
1778253927542,   621.467,   621.467,-0.014911, 0.046963,-0.944653,-0.000313, 0.000333,-0.009335,-0.290318, 0.456750, 0.541709,1, 0.020888, 0.044561, 0.066487,1,-0.145480,-0.003113, 9.805571,1,0
1778253927563,   621.492,   621.487, 0.048810, 0.041380,-1.037554, 0.000368, 0.000390,-0.010153,-0.299158, 0.509549, 0.612294,1, 0.003574, 0.082057, 0.085809,1,-0.157397, 0.000149, 9.805387,1,0
1778253927585,   621.512,   621.507, 0.000185, 0.032808,-1.018311, 0.000191, 0.000258,-0.010336,-0.269725, 0.009793,-0.204390,1,-0.041421, 0.046149, 0.086589,1,-0.169806,-0.004970, 9.805179,1,0
1778253927612,   621.537,   621.537, 0.027061,-0.020796,-0.949479, 0.000429,-0.000188,-0.009524, 0.082406,-0.220449, 0.493721,1,-0.028772, 0.055687, 0.088867,1,-0.184717,-0.017353, 9.804894,1,0
1778253927633,   621.562,   621.557, 0.034466,-0.003466,-0.962222, 0.000320, 0.000092,-0.009587,-0.403216,-0.384419, 0.553672,1,-0.001222, 0.016679, 0.071227,1,-0.189862,-0.020293, 9.804790,1,0
1778253927655,   621.582,   621.577, 0.013929, 0.026863,-1.007008, 0.000459, 0.000292,-0.010140,-0.140992, 0.481106, 0.545829,1, 0.050232, 0.032500, 0.058086,1,-0.194071,-0.012363, 9.804722,1,0
1778253927682,   621.607,   621.607,-0.003884, 0.084647,-1.114820, 0.000066, 0.000635,-0.011233,-0.239773, 0.841499,-1.128077,1, 0.045580, 0.033265, 0.078652,1,-0.202719, 0.012873, 9.804546,1,0
1778253927704,   621.632,   621.627,-0.003808,-0.021615,-1.102358,-0.000245,-0.000276,-0.010791,-0.625088, 0.073161,-1.631782,1,-0.116836, 0.090284, 0.102323,1,-0.218261, 0.000164, 9.804221,1,0
1778253927725,   621.652,   621.647, 0.011189,-0.087675,-0.917427, 0.000093,-0.000782,-0.008719,-0.589297,-0.689684, 0.337766,1,-0.168913, 0.095708, 0.097088,1,-0.238206,-0.034078, 9.803698,1,0
1778253927752,   621.677,   621.677, 0.060333,-0.151315,-0.798256, 0.000442,-0.001614,-0.007778, 0.324695,-1.540421, 1.974633,1,-0.032168, 0.105015, 0.038905,1,-0.270257,-0.057494, 9.802756,1,0
1778253927774,   621.702,   621.697, 0.074291,-0.228202,-0.837893, 0.000519,-0.002019,-0.008167,-0.077683,-1.733437, 2.798240,1,-0.008703, 0.016344,-0.024110,1,-0.274133,-0.057298, 9.802650,1,0
1778253927796,   621.722,   621.722, 0.002762,-0.154728,-1.135752,-0.000165,-0.001875,-0.009986,-0.228676,-1.595758,-1.334928,1,-0.131325,-0.152658,-0.120988,1,-0.250969,-0.082593, 9.803090,1,0
1778253927822,   621.747,   621.747,-0.020170,-0.115961,-1.106025,-0.000137,-0.001417,-0.010576,-0.438058,-1.211493,-1.042975,1, 0.081018, 0.000981,-0.156347,1,-0.239995,-0.071795, 9.803450,1,0
1778253927844,   621.772,   621.767,-0.020507,-0.125413,-0.978592,-0.000179,-0.001144,-0.010057,-0.419752,-1.294305, 0.358102,1, 0.064836,-0.058884,-0.213955,1,-0.227169,-0.054525, 9.803866,1,0
1778253927866,   621.792,   621.792,-0.023764,-0.085167,-0.956875,-0.000319,-0.000739,-0.009917,-0.444024,-0.883227, 0.420527,1,-0.008012,-0.069725,-0.259115,1,-0.208764,-0.048450, 9.804308,1,0
1778253927892,   621.817,   621.817,-0.054602,-0.101265,-1.053345,-0.000608,-0.000942,-0.011029,-0.732754,-1.045453,-0.525261,1,-0.015383,-0.067894,-0.288545,1,-0.195122,-0.053049, 9.804565,1,0
1778253927914,   621.842,   621.837,-0.029859,-0.068827,-1.002620,-0.000173,-0.000765,-0.010015,-0.716856,-0.653365,-0.759501,1, 0.012772,-0.063045,-0.308282,1,-0.181547,-0.054654, 9.804817,1,0
1778253927937,   621.862,   621.862,-0.043796,-0.088074,-1.052573,-0.000222,-0.000849,-0.010504,-0.603118,-0.903839,-0.517190,1, 0.101167,-0.026787,-0.337513,1,-0.172750,-0.037159, 9.805058,1,0
1778253927962,   621.887,   621.887,-0.027980, 0.006651,-1.050040,-0.000168,-0.000032,-0.010537,-0.443030, 0.045341,-0.492198,1, 0.116150,-0.027132,-0.341777,1,-0.167774,-0.016441, 9.805201,1,0
1778253927984,   621.912,   621.907,-0.015175, 0.028136,-1.129955,-0.000444, 0.000655,-0.011915,-0.253103, 1.100482, 0.253752,1, 0.075331, 0.009810,-0.308942,1,-0.167853,-0.002454, 9.805213,1,0
1778253928007,   621.932,   621.932,-0.025523, 0.128075,-1.046391,-0.000271, 0.001518,-0.010817,-0.420046, 1.262540,-0.456416,1, 0.019630, 0.025712,-0.250224,1,-0.170560, 0.007031, 9.805164,1,0
1778253928032,   621.957,   621.957,-0.012199, 0.090521,-1.144261,-0.000014, 0.000982,-0.010734,-0.461653, 1.145027,-0.391085,1,-0.000081, 0.047423,-0.204484,1,-0.180697, 0.006908, 9.804983,1,0
1778253928054,   621.982,   621.977,-0.022875, 0.133137,-1.110584, 0.000001, 0.001229,-0.010848,-0.621755, 0.624054,-0.369795,1, 0.010340, 0.076944,-0.148282,1,-0.194856, 0.005985, 9.804712,1,0
1778253928077,   622.002,   622.002,-0.030347, 0.113147,-1.056034,-0.000016, 0.001014,-0.010153,-0.519413, 1.116915,-0.552020,1, 0.003673, 0.113446,-0.071763,1,-0.225348, 0.007389, 9.804058,1,0
1778253928102,   622.027,   622.027,-0.006135, 0.129852,-1.098659, 0.000008, 0.000993,-0.010446,-0.304708, 1.279283,-0.970568,1,-0.028970, 0.113538,-0.036592,1,-0.248086, 0.004940, 9.803511,1,0
1778253928124,   622.052,   622.047,-0.009316, 0.044213,-0.895943,-0.000060, 0.000583,-0.009261,-0.234153, 1.129640,-0.317026,1,-0.042081, 0.110624,-0.006409,1,-0.269716, 0.000231, 9.802940,1,0
1778253928147,   622.077,   622.072, 0.015815, 0.036284,-0.851085, 0.000190, 0.000413,-0.008787,-0.141840, 0.349628, 1.455859,1,-0.029904, 0.088627, 0.020409,1,-0.299700,-0.007109, 9.802067,1,0
1778253928172,   622.097,   622.097, 0.017168,-0.001397,-0.864152, 0.000093, 0.000251,-0.008565,-0.142382,-0.024569, 1.327284,1,-0.002413, 0.077066, 0.031205,1,-0.313146,-0.010913, 9.801643,1,0
1778253928194,   622.122,   622.117, 0.030697, 0.031513,-0.965441, 0.000486, 0.000149,-0.009757, 0.071674,-0.309543, 1.520006,1, 0.019150, 0.057935, 0.036320,1,-0.325104,-0.011083, 9.801253,1,0
1778253928217,   622.147,   622.137, 0.027621, 0.047607,-1.012069, 0.000403, 0.000433,-0.010401,-0.154137,-0.130836, 1.836605,1, 0.018253, 0.031072, 0.037891,1,-0.330772,-0.009681, 9.801065,1,0
1778253928242,   622.167,   622.167, 0.022892, 0.033817,-0.993894, 0.000491, 0.000333,-0.010234,-0.104568, 0.323589, 0.054351,1, 0.011857,-0.021460, 0.048406,1,-0.328388,-0.007620, 9.801147,1,0
1778253928264,   622.192,   622.187, 0.053607, 0.031185,-0.851152, 0.000461, 0.000479,-0.008625,-0.124178, 0.771312, 0.288287,1,-0.021537,-0.046206, 0.049159,1,-0.323589,-0.009436, 9.801305,1,0
1778253928287,   622.217,   622.212, 0.029998, 0.023551,-0.827685, 0.000332, 0.000473,-0.008603,-0.013465, 0.223046, 1.685001,1, 0.041305,-0.066679, 0.038271,1,-0.305567,-0.006583, 9.801886,1,0
1778253928312,   622.237,   622.237, 0.046245, 0.010824,-0.866876, 0.000398, 0.000320,-0.008944, 0.160708, 0.107364, 1.301131,1, 0.069386,-0.083537, 0.038893,1,-0.290197, 0.003417, 9.802355,1,0
1778253928334,   622.262,   622.257,-0.014492, 0.125926,-1.057391, 0.000129, 0.001142,-0.010315, 0.229361, 0.795205, 1.366693,1, 0.049260,-0.093067, 0.063226,1,-0.270487, 0.012531, 9.802911,1,0
1778253928357,   622.287,   622.282, 0.019966, 0.106413,-1.137674, 0.000218, 0.000887,-0.011051,-0.047658, 1.057750,-1.353151,1,-0.035983,-0.118581, 0.110211,1,-0.239751, 0.013156, 9.803710,1,0
1778253928383,   622.307,   622.307, 0.024436, 0.102580,-1.167372, 0.000323, 0.000891,-0.011224, 0.016060, 1.014903,-1.643914,1,-0.047926,-0.104067, 0.137768,1,-0.220324, 0.007540, 9.804172,1,0
1778253928404,   622.332,   622.327, 0.013838, 0.109778,-0.914767, 0.000065, 0.001373,-0.009413, 0.023274, 1.295745,-1.070289,1,-0.077117,-0.105853, 0.172484,1,-0.200706,-0.001937, 9.804596,1,0
1778253928427,   622.357,   622.352, 0.019077,-0.031392,-0.964452, 0.000261,-0.000178,-0.010098, 0.006710,-0.318735, 0.346939,1,-0.004560,-0.065080, 0.197760,1,-0.178390,-0.010919, 9.805021,1,0
1778253928453,   622.377,   622.377, 0.015368, 0.040657,-1.003226, 0.000126, 0.000353,-0.010483,-0.018498, 0.388560,-0.033102,1, 0.024422,-0.049905, 0.199751,1,-0.167652,-0.009278, 9.805212,1,0
1778253928474,   622.402,   622.397,-0.021666, 0.163375,-1.177329, 0.000083, 0.001519,-0.011442, 0.443060, 0.629549,-0.984572,1, 0.019560,-0.032580, 0.215949,1,-0.163390,-0.001788, 9.805288,1,0
1778253928501,   622.427,   622.427,-0.030823,-0.011264,-1.054875,-0.000328,-0.000357,-0.010358,-0.456648,-0.109051,-0.539359,1,-0.037749, 0.018510, 0.243670,1,-0.154954, 0.000355, 9.805426,1,0
1778253928523,   622.447,   622.447, 0.061676, 0.027294,-1.045992, 0.000500, 0.000456,-0.009802, 0.444849, 0.259818,-0.452333,1,-0.078808, 0.027165, 0.241916,1,-0.160842,-0.010186, 9.805326,1,0
1778253928544,   622.472,   622.467, 0.022594,-0.046530,-1.002797, 0.000097,-0.000232,-0.010015, 0.060485, 0.650918,-1.093897,1,-0.115416, 0.014253, 0.211753,1,-0.163293,-0.026726, 9.805254,1,0
1778253928571,   622.497,   622.497, 0.057566,-0.056815,-1.022050, 0.000279,-0.000645,-0.010201, 0.393000,-0.584718,-0.217780,1, 0.030347, 0.036485, 0.169773,1,-0.172686,-0.026512, 9.805094,1,0
1778253928593,   622.522,   622.517, 0.049026,-0.005070,-0.992294, 0.000333,-0.000047,-0.009697, 0.391432,-0.237170, 0.022123,1, 0.061121, 0.050016, 0.152862,1,-0.181433,-0.015257, 9.804959,1,0
1778253928614,   622.542,   622.537, 0.043561, 0.022557,-1.003869, 0.000247, 0.000275,-0.010032, 0.256629, 0.043518,-0.416993,1, 0.047384, 0.039635, 0.142871,1,-0.191934,-0.003974, 9.804770,1,0
1778253928641,   622.567,   622.567, 0.061822, 0.035010,-0.968516, 0.000402, 0.000423,-0.009729, 0.396578, 0.345301, 0.306512,1, 0.009816, 0.083795, 0.148471,1,-0.212306, 0.002369, 9.804351,1,0
1778253928663,   622.592,   622.587, 0.049777, 0.017798,-1.037067, 0.000695,-0.000034,-0.010049, 0.257830, 0.032109, 1.436354,1,-0.005623, 0.074382, 0.157112,1,-0.226058, 0.001897, 9.804044,1,0
1778253928684,   622.612,   622.607, 0.052470, 0.009712,-1.037700, 0.000656,-0.000127,-0.010035, 0.244046,-0.159329, 1.955038,1,-0.007132, 0.069000, 0.153565,1,-0.237983,-0.001609, 9.803761,1,0
1778253928711,   622.637,   622.637, 0.058875, 0.020424,-1.059670, 0.000593,-0.000037,-0.010148, 0.329089, 0.198828,-0.588310,1,-0.002191, 0.021301, 0.150087,1,-0.248939,-0.001416, 9.803490,1,0
1778253928733,   622.662,   622.657, 0.104860,-0.009964,-0.889096, 0.000935,-0.000189,-0.009116,-0.155268, 0.247940, 0.077726,1, 0.030184, 0.004070, 0.150877,1,-0.251684, 0.005290, 9.803418,1,0
1778253928754,   622.682,   622.677, 0.061144, 0.019964,-0.851078, 0.000779, 0.000397,-0.008919, 0.130920, 0.846966, 0.286447,1,-0.032612, 0.001097, 0.150261,1,-0.252119, 0.006946, 9.803406,1,0
1778253928781,   622.707,   622.707, 0.050532, 0.014504,-0.866063, 0.000652, 0.000032,-0.008757, 0.249484, 0.146102, 1.310382,1,-0.027526,-0.037574, 0.156786,1,-0.244894, 0.003133, 9.803591,1,0
1778253928803,   622.732,   622.727, 0.048827, 0.032596,-1.002395, 0.000533, 0.000355,-0.010107, 0.169143, 0.293628, 1.243072,1,-0.018638,-0.044850, 0.156131,1,-0.235329,-0.001724, 9.803826,1,0
1778253928824,   622.752,   622.747, 0.070129, 0.019008,-0.996638, 0.000595, 0.000089,-0.010285, 0.359749,-0.084617, 1.056229,1, 0.010190,-0.060425, 0.153947,1,-0.224738,-0.003029, 9.804074,1,0
1778253928851,   622.777,   622.777, 0.086568, 0.009955,-0.965419, 0.000680, 0.000112,-0.010002, 0.645069, 0.095324, 0.337005,1, 0.000559,-0.084553, 0.145120,1,-0.201232,-0.002191, 9.804585,1,0
1778253928873,   622.802,   622.797, 0.056182, 0.004669,-1.035645, 0.000571, 0.000004,-0.009847, 0.585254, 0.161832, 0.693430,1,-0.013957,-0.092460, 0.152414,1,-0.184346,-0.005745, 9.804915,1,0
1778253928895,   622.822,   622.817, 0.032935, 0.003100,-1.135205, 0.000377,-0.000069,-0.010651, 0.360660, 0.393105, 0.146059,1,-0.033723,-0.114293, 0.151456,1,-0.163056,-0.014310, 9.805284,1,0
1778253928921,   622.847,   622.847, 0.030746, 0.020045,-1.124572, 0.000382, 0.000349,-0.010579, 0.165038, 0.176467,-1.222605,1,-0.007500,-0.083913, 0.155646,1,-0.133870,-0.020273, 9.805716,1,0
1778253928943,   622.872,   622.867, 0.096851, 0.004003,-0.973145, 0.000990, 0.000094,-0.010101, 0.423894,-0.054618,-0.157279,1,-0.000519,-0.024939, 0.152546,1,-0.123017,-0.018674, 9.805861,1,0
1778253928965,   622.892,   622.887,-0.011186,-0.055191,-1.029835,-0.000182,-0.000457,-0.011222, 0.442696, 0.340232,-2.857391,1,-0.031223,-0.091630, 0.150313,1,-0.111026,-0.021038, 9.805999,1,0
1778253928992,   622.917,   622.917, 0.039516, 0.014762,-0.868600,-0.000050, 0.000312,-0.008932, 0.297183, 0.124355, 1.288152,1,-0.001752,-0.014830, 0.147040,1,-0.089886,-0.020426, 9.806217,1,0
1778253929013,   622.942,   622.937, 0.050839,-0.022632,-1.022321, 0.000259,-0.000377,-0.009560, 0.686923,-0.962043, 1.498729,1,-0.034552,-0.037525, 0.133026,1,-0.083333,-0.027643, 9.806257,1,0
1778253929036,   622.962,   622.962,-0.018699,-0.002711,-1.174382,-0.000265,-0.000130,-0.011178,-0.252810,-0.075586,-1.710469,1,-0.035353,-0.036043, 0.102906,1,-0.068323,-0.050084, 9.806284,1,0
1778253929062,   622.987,   622.987,-0.029860,-0.069266,-1.125752,-0.000301,-0.000627,-0.011338,-0.354259,-0.721534,-1.233494,1, 0.070371,-0.041921, 0.071160,1,-0.060129,-0.040053, 9.806384,1,0
1778253929083,   623.012,   623.007, 0.007504,-0.007666,-1.058307, 0.000411, 0.000052,-0.010666,-0.139396, 0.378249,-0.193180,1, 0.091115, 0.014783, 0.061566,1,-0.057093,-0.023692, 9.806456,1,0
1778253929106,   623.032,   623.032,-0.051832, 0.092073,-1.106924,-0.000414, 0.000752,-0.010893,-0.569674, 0.895637,-1.048757,1, 0.015690, 0.026409, 0.067909,1,-0.062201,-0.006786, 9.806451,1,0
1778253929132,   623.057,   623.057,-0.037048, 0.043428,-1.098167,-0.000579, 0.000447,-0.011021,-0.435582, 0.421546,-0.962961,1,-0.012195, 0.076375, 0.085064,1,-0.074647,-0.004701, 9.806365,1,0
1778253929153,   623.082,   623.077,-0.044570, 0.010876,-0.958732, 0.000091, 0.000022,-0.009315, 0.365545, 0.823699,-0.099817,1,-0.063995, 0.079394, 0.099034,1,-0.089180,-0.012179, 9.806237,1,0
1778253929176,   623.102,   623.102,-0.003983, 0.009300,-1.023405,-0.000045,-0.000284,-0.009287,-0.146000, 0.069077,-0.230134,1,-0.068219, 0.071367, 0.117555,1,-0.109178,-0.024219, 9.806012,1,0
1778253929202,   623.127,   623.127, 0.021573, 0.019478,-1.046751, 0.000018,-0.000116,-0.009764, 0.091755, 0.165455,-0.459242,1,-0.026602, 0.060218, 0.110158,1,-0.121694,-0.026346, 9.805860,1,0
1778253929223,   623.152,   623.147,-0.006886, 0.000561,-0.838098, 0.000352, 0.000093,-0.008768, 0.122924, 0.020659, 0.259553,1, 0.019857, 0.045452, 0.107155,1,-0.129669,-0.023556, 9.805764,1,0
1778253929246,   623.172,   623.172,-0.006826, 0.004046,-0.909170, 0.000054,-0.000008,-0.008873,-0.200543, 0.021917, 0.889811,1, 0.000755,-0.005287, 0.108336,1,-0.133440,-0.017690, 9.805726,1,0
1778253929272,   623.197,   623.197, 0.031768, 0.038119,-1.013129, 0.000144, 0.000291,-0.009595, 0.179836, 0.356932,-0.129651,1,-0.019608,-0.025068, 0.107067,1,-0.130929,-0.017452, 9.805760,1,0
1778253929293,   623.222,   623.217, 0.031892, 0.029264,-0.811575, 0.000382, 0.000292,-0.008487,-0.034262, 0.403598,-0.156790,1,-0.001844,-0.044106, 0.106110,1,-0.123720,-0.017328, 9.805854,1,0
1778253929316,   623.242,   623.242, 0.026337, 0.027867,-0.819749, 0.000339, 0.000254,-0.008321, 0.151379, 0.257003, 1.767058,1,-0.001539,-0.074805, 0.109838,1,-0.104567,-0.016293, 9.806079,1,0
1778253929342,   623.267,   623.267, 0.045397, 0.002773,-0.893041, 0.000478, 0.000372,-0.008933, 0.355122, 0.010998, 1.048479,1, 0.019450,-0.098953, 0.114824,1,-0.086985,-0.015557, 9.806252,1,0
1778253929363,   623.292,   623.287,-0.025442, 0.056068,-1.060289, 0.000076, 0.000662,-0.011103,-0.026608, 0.164932, 0.981152,1,-0.008529,-0.119561, 0.120729,1,-0.065730,-0.015267, 9.806417,1,0
1778253929386,   623.317,   623.312,-0.012366, 0.081055,-0.957580, 0.000135, 0.001085,-0.010031,-0.158680, 0.771887, 0.415895,1,-0.035852,-0.075064, 0.146457,1,-0.035079,-0.024090, 9.806558,1,0
1778253929412,   623.337,   623.337, 0.008689, 0.050211,-1.179792, 0.000058, 0.000685,-0.011875, 0.063553, 0.457928,-1.763245,1,-0.029781,-0.094471, 0.168457,1,-0.018731,-0.035391, 9.806568,1,0
1778253929433,   623.362,   623.357, 0.049592,-0.019195,-1.027369, 0.000367,-0.000104,-0.010353,-0.513950,-0.539338,-0.808254,1, 0.003949,-0.071637, 0.144504,1,-0.001366,-0.034907, 9.806588,1,0
1778253929456,   623.387,   623.382,-0.022685,-0.029954,-0.995238,-0.000135,-0.000293,-0.010257,-0.210535,-0.337761, 0.046597,1,-0.074657,-0.051254, 0.127491,1, 0.013515,-0.046349, 9.806531,1,0
1778253929482,   623.407,   623.407,-0.066633,-0.033047,-1.024415,-0.000528,-0.000325,-0.010777,-0.634080,-0.389477,-0.239664,1,-0.100330,-0.021882, 0.105447,1, 0.020030,-0.068536, 9.806390,1,0
1778253929504,   623.432,   623.427,-0.018959,-0.068418,-1.104783,-0.000062,-0.000901,-0.011028, 0.009517,-0.825877,-0.533854,1, 0.004735, 0.016276, 0.060262,1, 0.018367,-0.074693, 9.806349,1,0
1778253929526,   623.457,   623.452, 0.014429,-0.005622,-0.984681,-0.000046,-0.000308,-0.009774, 0.154950,-0.107235, 0.150075,1, 0.101140, 0.035072, 0.005542,1, 0.012350,-0.048942, 9.806520,1,0
1778253929552,   623.477,   623.477, 0.015863, 0.027957,-0.956243, 0.000261, 0.000425,-0.009711, 0.160952, 0.243030, 0.429062,1, 0.099566, 0.049703, 0.000622,1, 0.003836,-0.028030, 9.806609,1,0
1778253929574,   623.502,   623.497,-0.005913, 0.125217,-1.103750, 0.000056, 0.001171,-0.011118, 0.093392, 0.176993,-0.201771,1, 0.056005, 0.056623, 0.009652,1,-0.005512,-0.016344, 9.806635,1,0
1778253929596,   623.527,   623.522,-0.006696, 0.071809,-1.044772, 0.000012, 0.000771,-0.010726,-0.087900, 0.691274,-0.439100,1, 0.010536, 0.079416, 0.059322,1,-0.024720,-0.012604, 9.806611,1,0
1778253929622,   623.547,   623.547, 0.011265, 0.104185,-0.978628, 0.000068, 0.001176,-0.009944, 0.071896, 1.004460, 0.209493,1,-0.025456, 0.098729, 0.096097,1,-0.041700,-0.017312, 9.806546,1,0
1778253929644,   623.572,   623.567, 0.024299, 0.080250,-1.008358, 0.000033, 0.000816,-0.010565, 0.379808, 0.520131,-0.340137,1,-0.026912, 0.117810, 0.126192,1,-0.063911,-0.023460, 9.806414,1,0
1778253929666,   623.597,   623.592, 0.029094, 0.018894,-1.003240, 0.000015, 0.000476,-0.010154, 0.191347, 0.155249,-0.032266,1,-0.025709, 0.119026, 0.154783,1,-0.097698,-0.030797, 9.806115,1,0
1778253929692,   623.617,   623.617, 0.049986, 0.066446,-0.945003, 0.000179, 0.000814,-0.009431, 0.374245, 0.614507, 0.538580,1,-0.033981, 0.108642, 0.171832,1,-0.119360,-0.038099, 9.805850,1,0
1778253929714,   623.642,   623.637, 0.023420, 0.036961,-0.891359, 0.000124, 0.000418,-0.008721, 0.049592, 0.154282, 0.782217,1,-0.017721, 0.091855, 0.177029,1,-0.140437,-0.041105, 9.805558,1,0
1778253929741,   623.667,   623.667, 0.077200,-0.014361,-0.837297, 0.000434,-0.000128,-0.008292, 0.596849,-0.182680, 1.594171,1, 0.011939, 0.082447, 0.174230,1,-0.162818,-0.041386, 9.805211,1,0
1778253929762,   623.687,   623.687, 0.081561, 0.037248,-0.864975, 0.000821, 0.000557,-0.008274, 0.631729, 0.322545, 1.322612,1,-0.008404, 0.013377, 0.165306,1,-0.168550,-0.042907, 9.805107,1,0
1778253929784,   623.712,   623.707, 0.030935, 0.043174,-0.986845, 0.000041, 0.000409,-0.010012, 0.079698, 0.302625, 1.397787,1,-0.019513,-0.016440, 0.155775,1,-0.166946,-0.047731, 9.805113,1,0
1778253929811,   623.737,   623.737, 0.052839,-0.013934,-0.942785, 0.000425,-0.000094,-0.010025, 0.361470,-0.187815, 0.559705,1, 0.014179,-0.064306, 0.124152,1,-0.154714,-0.050666, 9.805299,1,0
1778253929832,   623.762,   623.757, 0.029560, 0.087373,-1.078689, 0.000046, 0.000759,-0.010013, 0.635717, 0.236498, 0.931945,1, 0.005751,-0.086494, 0.126596,1,-0.142881,-0.049861, 9.805482,1,0
1778253929854,   623.782,   623.777,-0.011475, 0.052477,-0.987894, 0.000100, 0.000255,-0.009842,-0.348957,-0.959564, 0.870734,1, 0.065844,-0.112814, 0.111203,1,-0.119781,-0.042015, 9.805828,1,0
1778253929881,   623.807,   623.807, 0.065135,-0.067865,-1.194405, 0.000880,-0.000892,-0.011565, 0.542445,-0.695650,-1.906985,1, 0.013557,-0.131649, 0.104636,1,-0.092208,-0.029668, 9.806171,1,0
1778253929902,   623.832,   623.827,-0.058476, 0.064961,-1.044666,-0.000630, 0.000802,-0.010840, 0.210580, 1.209217,-1.431165,1,-0.052070,-0.127311, 0.124197,1,-0.068410,-0.037998, 9.806337,1,0
1778253929924,   623.852,   623.847, 0.014788,-0.029201,-1.071502, 0.000119,-0.000591,-0.011525, 0.235811,-0.366163,-1.392337,1, 0.006621,-0.057846, 0.133468,1,-0.052470,-0.042131, 9.806419,1,0
1778253929951,   623.877,   623.877, 0.009931, 0.020711,-1.077127, 0.000227, 0.000316,-0.011357, 0.063210, 0.153010,-0.756547,1,-0.013007,-0.060384, 0.133935,1,-0.032313,-0.050491, 9.806467,1,0
1778253929972,   623.902,   623.897,-0.001153, 0.023578,-1.029992, 0.000052, 0.000170,-0.010192, 0.441617,-0.609080,-0.066079,1,-0.015069,-0.007404, 0.128857,1,-0.030811,-0.050569, 9.806471,1,0
1778253929994,   623.922,   623.917,-0.003069,-0.024516,-1.063680,-0.000073,-0.000032,-0.010565, 0.063904, 0.663866,-1.392337,1, 0.004113,-0.006679, 0.136108,1,-0.024239,-0.053818, 9.806473,1,0
1778253930021,   623.947,   623.947, 0.007701, 0.020084,-0.950012, 0.000064, 0.000135,-0.009575, 0.047306, 0.146405, 0.490045,1,-0.014268, 0.017539, 0.125442,1,-0.030270,-0.052094, 9.806465,1,0
1778253930042,   623.972,   623.967, 0.026852, 0.014840,-1.100589, 0.000361, 0.000154,-0.010587, 0.111005, 0.371302, 0.531528,1,-0.015653, 0.042311, 0.114674,1,-0.037340,-0.055657, 9.806421,1,0
1778253930064,   623.992,   623.987,-0.032130, 0.074516,-1.123406,-0.000361, 0.000808,-0.011226, 0.371877, 0.567875,-0.517981,1, 0.016910, 0.027836, 0.099958,1,-0.043816,-0.053179, 9.806408,1,0
1778253930091,   624.017,   624.017, 0.016493, 0.144504,-1.098936,-0.000055, 0.001303,-0.011125, 0.100815, 1.385995,-0.970472,1, 0.083996, 0.094144, 0.122074,1,-0.063872,-0.028456, 9.806400,1,0
1778253930113,   624.042,   624.037,-0.048398, 0.127837,-1.011286,-0.000269, 0.001173,-0.010416, 0.386676, 1.365475,-0.969666,1, 0.044335, 0.099666, 0.151090,1,-0.081969,-0.014791, 9.806296,1,0
1778253930134,   624.062,   624.057, 0.060209, 0.199410,-1.082754, 0.000087, 0.001719,-0.010495, 0.405500, 1.941339,-0.332967,1,-0.001466, 0.131680, 0.195324,1,-0.107776,-0.015539, 9.806046,1,0
1778253930161,   624.087,   624.087, 0.061318, 0.115278,-0.983149, 0.000432, 0.001264,-0.009635, 0.454238, 1.111473, 0.164127,1,-0.041522, 0.135562, 0.268008,1,-0.151330,-0.020189, 9.805462,1,0
1778253930183,   624.112,   624.107, 0.031525, 0.062968,-1.046049, 0.000158, 0.000725,-0.010579, 0.083018, 0.834094, 1.207911,1,-0.063721, 0.137295, 0.291623,1,-0.177105,-0.034615, 9.804990,1,0
1778253930204,   624.132,   624.127, 0.053457, 0.105456,-0.911636, 0.000356, 0.001200,-0.009471,-0.500429, 0.475074, 0.725910,1,-0.035684, 0.116540, 0.306269,1,-0.202207,-0.042495, 9.804473,1,0
1778253930231,   624.157,   624.157, 0.057607, 0.078695,-0.735907, 0.000498, 0.000864,-0.008198, 0.336837, 0.734990, 2.587140,1, 0.078042, 0.110359, 0.301256,1,-0.231590,-0.034095, 9.803856,1,0
1778253930253,   624.182,   624.177,-0.033923, 0.086954,-1.172293,-0.000101, 0.000677,-0.011283, 0.238751, 0.617233, 2.513214,1, 0.062572, 0.063795, 0.288122,1,-0.244181,-0.022568, 9.803583,1,0
1778253930275,   624.202,   624.202,-0.075818, 0.143031,-1.091135,-0.000727, 0.001202,-0.010515,-0.991998, 1.389590,-0.896883,1,-0.005867, 0.021815, 0.314555,1,-0.249176,-0.013002, 9.803475,1,0
1778253930301,   624.227,   624.227, 0.084500, 0.094264,-1.062156, 0.000320, 0.001019,-0.010146, 0.572307, 0.917913,-0.612897,1, 0.013887, 0.059147, 0.328790,1,-0.258207,-0.005798, 9.803248,1,0
1778253930323,   624.252,   624.247,-0.044855, 0.046532,-1.016121,-0.000547, 0.000290,-0.010265, 0.007837, 1.185405,-0.147208,1, 0.055319, 0.004707, 0.335310,1,-0.256918, 0.000678, 9.803284,1,0
1778253930346,   624.272,   624.272, 0.008027, 0.138122,-1.059741,-0.000182, 0.001453,-0.010410,-0.172473, 1.377676,-0.589107,1, 0.066992,-0.037839, 0.339916,1,-0.249988, 0.025527, 9.803430,1,0
1778253930371,   624.297,   624.297,-0.014663, 0.104392,-0.958335, 0.000063, 0.001194,-0.010297,-0.390063, 1.063532, 0.405419,1, 0.084893,-0.012108, 0.369687,1,-0.245839, 0.042740, 9.803475,1,0
1778253930393,   624.322,   624.317, 0.004509, 0.152193,-1.077064,-0.000051, 0.001611,-0.010964,-0.832184, 1.225519, 0.654579,1, 0.004154,-0.023768, 0.407743,1,-0.239979, 0.047268, 9.803599,1,0
1778253930416,   624.342,   624.342,-0.061718, 0.131014,-1.027940,-0.000388, 0.001464,-0.010932,-0.840729, 1.330310,-0.276931,1,-0.002166,-0.011152, 0.472131,1,-0.234964, 0.045688, 9.803728,1,0
1778253930441,   624.367,   624.367,-0.045765, 0.155213,-1.061279,-0.000604, 0.001490,-0.010827,-0.684662, 1.565056,-0.603876,1,-0.039101, 0.012405, 0.500583,1,-0.236181, 0.042093, 9.803715,1,0
1778253930463,   624.392,   624.387,-0.061993, 0.136089,-1.044398,-0.000162, 0.001343,-0.010084,-0.542601, 1.522228,-0.760095,1,-0.009655, 0.020767, 0.521324,1,-0.238911, 0.041175, 9.803653,1,0
1778253930486,   624.412,   624.412,-0.045296, 0.141631,-1.035158,-0.000114, 0.001283,-0.010034,-0.690801, 1.431443,-0.347976,1,-0.026413, 0.040797, 0.552708,1,-0.247798, 0.042123, 9.803429,1,0
1778253930511,   624.437,   624.437, 0.001296, 0.141749,-1.110280,-0.000203, 0.001177,-0.010472,-0.242716, 1.431085,-1.084891,1,-0.040048, 0.055557, 0.566386,1,-0.257082, 0.040216, 9.803197,1,0
1778253930533,   624.462,   624.457,-0.001474, 0.149869,-0.923014,-0.000061, 0.001383,-0.009691,-0.155932, 1.568205,-1.562240,1,-0.004417, 0.056437, 0.589873,1,-0.267000, 0.041449, 9.802927,1,0
1778253930556,   624.482,   624.482, 0.026060, 0.110732,-0.946556, 0.000003, 0.001119,-0.009331,-0.030493, 1.131764, 0.519824,1,-0.030134, 0.077162, 0.615922,1,-0.288367, 0.045470, 9.802304,1,0
1778253930581,   624.507,   624.507, 0.071200, 0.078809,-0.902187, 0.000467, 0.000940,-0.009173, 0.398648, 0.812180, 0.954561,1,-0.080061, 0.057267, 0.630611,1,-0.301291, 0.037429, 9.801950,1,0
1778253930603,   624.532,   624.527, 0.054627, 0.079411,-1.097912, 0.000295, 0.000757,-0.009814,-0.204322, 0.849439, 1.680753,1,-0.083989, 0.026356, 0.644715,1,-0.307878, 0.021020, 9.801793,1,0
1778253930626,   624.557,   624.552, 0.031371, 0.067114,-1.092629, 0.000574, 0.000715,-0.010468,-0.004582, 0.670447,-0.913357,1,-0.002517, 0.001155, 0.636824,1,-0.312236, 0.012833, 9.801670,1,0
1778253930652,   624.577,   624.577,-0.022247, 0.056855,-0.997342, 0.000037, 0.000507,-0.009931,-0.527970, 0.573474, 0.021156,1, 0.005518,-0.002854, 0.625520,1,-0.309683, 0.016707, 9.801744,1,0
1778253930673,   624.602,   624.597, 0.043381, 0.075457,-0.912834, 0.000745, 0.000805,-0.009801,-0.010812, 0.793259, 0.031622,1,-0.044583, 0.023413, 0.616290,1,-0.312793, 0.018440, 9.801643,1,0
1778253930696,   624.627,   624.622, 0.003274, 0.101054,-0.935716,-0.000087, 0.001177,-0.009543,-0.280476, 1.008770, 0.625415,1,-0.008325, 0.002439, 0.615557,1,-0.312625, 0.018126, 9.801649,1,0
1778253930722,   624.647,   624.647, 0.089624, 0.068563,-0.907269, 0.000383, 0.000775,-0.008476, 0.563556, 0.697177, 0.904280,1, 0.022078, 0.058851, 0.614352,1,-0.317147, 0.026106, 9.801486,1,0
1778253930743,   624.672,   624.667, 0.022527, 0.103359,-1.083293, 0.000229, 0.000784,-0.010986, 0.259267, 0.505827, 0.908553,1, 0.006539, 0.016635, 0.605620,1,-0.320160, 0.032732, 9.801368,1,0
1778253930766,   624.697,   624.692, 0.038627, 0.074651,-1.094226, 0.000323, 0.000690,-0.010930, 0.057640, 0.768502,-0.929370,1, 0.010256,-0.000367, 0.599661,1,-0.321077, 0.037361, 9.801321,1,0
1778253930792,   624.717,   624.717, 0.029482, 0.077282,-1.031028, 0.000689, 0.000766,-0.010765,-0.033141, 0.801290,-0.309677,1, 0.026757,-0.022742, 0.588902,1,-0.321474, 0.044852, 9.801277,1,0
1778253930813,   624.742,   624.737,-0.001069, 0.033342,-1.019001, 0.000267, 0.000516,-0.010094,-0.498547, 0.328191, 1.103499,1, 0.033202, 0.004179, 0.571104,1,-0.318900, 0.054436, 9.801312,1,0
1778253930836,   624.767,   624.762,-0.005480, 0.012132,-1.030377, 0.000040,-0.000099,-0.010922,-0.369718, 0.184175,-0.303206,1, 0.002191,-0.036903, 0.549901,1,-0.314716, 0.065818, 9.801377,1,0
1778253930862,   624.787,   624.787,-0.013572, 0.134955,-1.019970,-0.000252, 0.001385,-0.009846,-0.441343, 1.388037,-0.200900,1,-0.050459,-0.042510, 0.566195,1,-0.306800, 0.063568, 9.801643,1,0
1778253930883,   624.812,   624.807,-0.032385, 0.086595,-0.857741,-0.000246, 0.000842,-0.008476, 0.404388, 0.750881,-1.159574,1,-0.060134,-0.023400, 0.577480,1,-0.304010, 0.061007, 9.801746,1,0
1778253930906,   624.837,   624.832, 0.030869, 0.069632,-1.025614,-0.000184, 0.000524,-0.009322, 0.011499, 0.736652,-0.255660,1,-0.056845,-0.033380, 0.570202,1,-0.290080, 0.052545, 9.802217,1,0
1778253930932,   624.857,   624.857, 0.027108, 0.107746,-1.027711, 0.000495, 0.001131,-0.009854,-0.016437, 1.105264,-0.275938,1,-0.038637,-0.063617, 0.582044,1,-0.280199, 0.047956, 9.802529,1,0
1778253930953,   624.882,   624.877,-0.001869, 0.112741,-0.947687,-0.000025, 0.001244,-0.009421,-0.048356, 0.802049, 0.467577,1,-0.046034,-0.050369, 0.582697,1,-0.271612, 0.044719, 9.802786,1,0
1778253930980,   624.907,   624.907,-0.001033, 0.074163,-1.004821,-0.000041, 0.000722,-0.010268,-0.263555, 0.763561,-0.050617,1,-0.033701,-0.060856, 0.590354,1,-0.251453, 0.035697, 9.803361,1,0
1778253931002,   624.927,   624.927,-0.023853, 0.097456,-0.992931,-0.000242, 0.000915,-0.010362,-0.473449, 0.986697, 0.066348,1,-0.046141,-0.076553, 0.592272,1,-0.237079, 0.029996, 9.803738,1,0
1778253931023,   624.952,   624.947,-0.010677, 0.063475,-0.961767, 0.000067, 0.000619,-0.009908,-0.375311, 0.693530, 0.666599,1,-0.055049,-0.054106, 0.588099,1,-0.224641, 0.024615, 9.804046,1,0
1778253931050,   624.977,   624.977,-0.043253, 0.022703,-0.926747,-0.000355, 0.000254,-0.009418,-0.630719, 0.228481, 0.716183,1,-0.099456,-0.072774, 0.580948,1,-0.204273, 0.003115, 9.804522,1,0
1778253931072,   625.002,   624.997,-0.041172, 0.025607,-1.010036,-0.000227, 0.000285,-0.010283,-0.248967, 0.338645,-0.420335,1,-0.099733,-0.058294, 0.568036,1,-0.190879,-0.014407, 9.804782,1,0
1778253931093,   625.022,   625.017, 0.031664,-0.024539,-1.009357,-0.000220,-0.000177,-0.009707,-0.381799, 0.305302,-0.851665,1,-0.006683,-0.073772, 0.549521,1,-0.177872,-0.020014, 9.805017,1,0
1778253931120,   625.047,   625.047, 0.049059, 0.032274,-0.923729, 0.000276, 0.000384,-0.008839, 0.318119, 0.306924, 0.746598,1, 0.045336,-0.042747, 0.507375,1,-0.161670,-0.007895, 9.805314,1,0
1778253931142,   625.072,   625.067,-0.055215, 0.179689,-1.310719,-0.000542, 0.001635,-0.013099,-0.438725, 0.951039,-0.018000,1, 0.040702,-0.024539, 0.511467,1,-0.153846,-0.001608, 9.805443,1,0
1778253931163,   625.092,   625.087,-0.054773, 0.165853,-1.314070,-0.000514, 0.001754,-0.012988,-1.268494, 1.284061,-0.861551,1, 0.062901,-0.014504, 0.511257,1,-0.146147, 0.006773, 9.805558,1,0
1778253931190,   625.117,   625.117,-0.049371, 0.180431,-1.146166,-0.000100, 0.001939,-0.011937,-0.639523, 1.801209,-1.434684,1, 0.101030, 0.050520, 0.541446,1,-0.156884, 0.035204, 9.805332,1,0
1778253931212,   625.142,   625.137,-0.026069, 0.156197,-1.060249,-0.000071, 0.001739,-0.010689,-1.026061, 1.796845,-0.296303,1, 0.001870, 0.086614, 0.565959,1,-0.171468, 0.043725, 9.805054,1,0
1778253931234,   625.162,   625.157,-0.046796, 0.089193,-1.016186,-0.000168, 0.001013,-0.010574,-0.522082, 1.259926,-1.231151,1,-0.060229, 0.125566, 0.595708,1,-0.192309, 0.039155, 9.804686,1,0
1778253931261,   625.187,   625.187,-0.051262, 0.086052,-0.902302,-0.000406, 0.000884,-0.008900,-0.724251, 0.872202, 0.955548,1,-0.038552, 0.132248, 0.613719,1,-0.225614, 0.027545, 9.804016,1,0
1778253931282,   625.212,   625.207,-0.013945, 0.064621,-0.922967,-0.000065, 0.000463,-0.009910,-0.316784, 0.252718, 1.317798,1, 0.018166, 0.123683, 0.597103,1,-0.249033, 0.032080, 9.803435,1,0
1778253931304,   625.232,   625.227,-0.009775, 0.059873,-0.887927,-0.000242, 0.000527,-0.009405,-0.311803, 0.297770, 1.669044,1, 0.071237, 0.085763, 0.580315,1,-0.265583, 0.045071, 9.802950,1,0
1778253931331,   625.257,   625.257, 0.039657, 0.039544,-0.957842, 0.000095, 0.000444,-0.009524, 0.109571, 0.453359, 0.409231,1, 0.054794, 0.016274, 0.563280,1,-0.279718, 0.067776, 9.802425,1,0
1778253931352,   625.282,   625.277,-0.000950, 0.082759,-0.871108,-0.000266, 0.000777,-0.007807,-0.384681, 0.727878, 0.737001,1, 0.078144,-0.029122, 0.554625,1,-0.276146, 0.082065, 9.802418,1,0
1778253931374,   625.302,   625.297, 0.019398, 0.042254,-0.916552, 0.000087, 0.000601,-0.008393,-0.493509, 0.937789, 1.234033,1, 0.058507,-0.043996, 0.557284,1,-0.270022, 0.095436, 9.802467,1,0
1778253931401,   625.327,   625.327, 0.032641, 0.098604,-0.898254, 0.000189, 0.000835,-0.008131, 0.068369, 1.075520, 0.993956,1, 0.014218,-0.073193, 0.568668,1,-0.249248, 0.109444, 9.802871,1,0
1778253931422,   625.352,   625.347,-0.009028, 0.117868,-0.998134,-0.000277, 0.001225,-0.010577,-0.179165, 1.169155, 0.967957,1, 0.020363,-0.091016, 0.590204,1,-0.228402, 0.114974, 9.803316,1,0
1778253931444,   625.372,   625.367, 0.015332, 0.095729,-1.003422, 0.000035, 0.001080,-0.010437,-0.562037, 1.179870, 1.193294,1, 0.009922,-0.096779, 0.601504,1,-0.205148, 0.118795, 9.803784,1,0
1778253931471,   625.397,   625.397,-0.064544, 0.108398,-1.013771,-0.000181, 0.001072,-0.010713,-0.802317, 1.185809,-0.137284,1,-0.004915,-0.171980, 0.618642,1,-0.163751, 0.122974, 9.804512,1,0
1778253931492,   625.422,   625.417,-0.018333, 0.081819,-0.955022,-0.000245, 0.001083,-0.009579,-0.963962, 1.090683,-0.278863,1,-0.031123,-0.140109, 0.643895,1,-0.135399, 0.120115, 9.804979,1,0
1778253931515,   625.442,   625.437,-0.022871, 0.093171,-0.920016,-0.000358, 0.001073,-0.009203,-0.480191, 1.131255,-1.206901,1,-0.066305,-0.146152, 0.649661,1,-0.107523, 0.111598, 9.805426,1,0
1778253931541,   625.467,   625.467,-0.011162, 0.035131,-0.897752,-0.000092, 0.000355,-0.009334,-0.178819, 0.448179, 1.001919,1,-0.014841,-0.134635, 0.646858,1,-0.064944, 0.103346, 9.805890,1,0
1778253931562,   625.492,   625.487,-0.066435, 0.054923,-1.093497,-0.000307, 0.000738,-0.010739,-0.010611, 0.799282, 0.892028,1,-0.032599,-0.139302, 0.644958,1,-0.035534, 0.096701, 9.806108,1,0
1778253931585,   625.512,   625.512, 0.028123, 0.068773,-1.260142,-0.000209, 0.000415,-0.011594, 0.272563, 0.766813,-2.551555,1,-0.033969,-0.094041, 0.638672,1,-0.000103, 0.091332, 9.806225,1,0
1778253931611,   625.537,   625.537, 0.008261, 0.206038,-1.197799, 0.000191, 0.002088,-0.011491, 0.097281, 2.110152,-1.940172,1, 0.012602,-0.077461, 0.667701,1, 0.018881, 0.089966, 9.806219,1,0
1778253931632,   625.562,   625.557, 0.023179, 0.159001,-1.065615, 0.000147, 0.001472,-0.010117,-0.142187, 1.287280,-0.178346,1, 0.001138,-0.046945, 0.680638,1, 0.030558, 0.090117, 9.806189,1,0
1778253931655,   625.582,   625.582,-0.005334, 0.130652,-0.998213, 0.000128, 0.001426,-0.009840,-0.003693, 1.349307, 0.017166,1,-0.089217,-0.076149, 0.709955,1, 0.051150, 0.065159, 9.806300,1,0
1778253931681,   625.607,   625.607,-0.008078, 0.086562,-0.955731, 0.000181, 0.000706,-0.009640,-0.013901, 0.896562, 0.433798,1,-0.109256,-0.100900, 0.714670,1, 0.068581, 0.044119, 9.806311,1,0
1778253931702,   625.632,   625.627, 0.009366, 0.066428,-0.983121, 0.000027, 0.000759,-0.010375,-0.203267, 0.720531, 0.279885,1,-0.053780,-0.092230, 0.710623,1, 0.087733, 0.028929, 9.806215,1,0
1778253931725,   625.652,   625.652,-0.028376, 0.083605,-0.964649, 0.000009, 0.000926,-0.010661,-0.160592, 0.841802, 0.345944,1, 0.021237,-0.123000, 0.683215,1, 0.121572, 0.022328, 9.805871,1,0
1778253931751,   625.677,   625.677,-0.039266, 0.085947,-0.965802,-0.000122, 0.000991,-0.010175,-0.248419, 0.866716, 0.334384,1, 0.026862,-0.110962, 0.676033,1, 0.140164, 0.024407, 9.805618,1,0
1778253931772,   625.702,   625.697,-0.031794, 0.110174,-0.862317, 0.000099, 0.001281,-0.008881,-0.076208, 0.999830,-0.005385,1,-0.013903,-0.101512, 0.668584,1, 0.160197, 0.023737, 9.805313,1,0
1778253931795,   625.722,   625.722,-0.070337, 0.065371,-0.929036,-0.000732, 0.000585,-0.009587,-0.498945, 0.655707, 0.694047,1,-0.038510,-0.127189, 0.663335,1, 0.194823, 0.013030, 9.804706,1,0
1778253931821,   625.747,   625.747,-0.021838, 0.000494,-0.898386,-0.000518, 0.000250,-0.009393, 0.005589, 0.015330, 0.994022,1, 0.039097,-0.126062, 0.635972,1, 0.223612, 0.011095, 9.804094,1,0
1778253931843,   625.772,   625.767,-0.026092, 0.015125,-0.962828,-0.000248, 0.000007,-0.009341, 0.513933,-0.113826, 1.013319,1, 0.075358,-0.136853, 0.607348,1, 0.249101, 0.019900, 9.803466,1,0
1778253931865,   625.797,   625.792,-0.023548, 0.034950,-0.919894,-0.000412, 0.000468,-0.008908, 0.058608, 0.374661, 0.781242,1, 0.058797,-0.140469, 0.577358,1, 0.293978, 0.033225, 9.802186,1,0
1778253931891,   625.817,   625.817, 0.024186, 0.003916,-1.001984, 0.000073,-0.000085,-0.009590, 0.559549, 0.075194,-0.024828,1, 0.019224,-0.169702, 0.556581,1, 0.327726, 0.036822, 9.801104,1,0
1778253931913,   625.842,   625.837,-0.030738, 0.021529,-0.935522,-0.000387, 0.000207,-0.009664, 0.009095,-0.234417,-0.265848,1, 0.030823,-0.186149, 0.546573,1, 0.364069, 0.036885, 9.799820,1,0
1778253931935,   625.867,   625.862,-0.040334,-0.007843,-0.928332,-0.000405,-0.000061,-0.009783, 0.018955,-0.043445, 0.693999,1, 0.013873,-0.206854, 0.508236,1, 0.421005, 0.033230, 9.797552,1,0
1778253931961,   625.887,   625.887,-0.020841,-0.024068,-0.943039,-0.000175,-0.000231,-0.009762, 0.250998,-0.203047, 0.547960,1, 0.029055,-0.221295, 0.484496,1, 0.462325, 0.033189, 9.795690,1,0
1778253931983,   625.912,   625.907,-0.026619,-0.074171,-0.917527,-0.000487,-0.000686,-0.008537,-0.059349,-0.121515, 0.332796,1, 0.026468,-0.261643, 0.450833,1, 0.507961, 0.035135, 9.793423,1,0
1778253932005,   625.937,   625.932,-0.046366,-0.034223,-0.941801,-0.000371,-0.000386,-0.008978, 0.121566,-0.289126, 0.553671,1, 0.083781,-0.263140, 0.394287,1, 0.584521, 0.048379, 9.789095,1,0
1778253932031,   625.957,   625.957,-0.078792, 0.010354,-0.950275,-0.000492,-0.000062,-0.009456,-0.145957, 0.161135, 0.467398,1, 0.080314,-0.270822, 0.374460,1, 0.635156, 0.061406, 9.785867,1,0
1778253932053,   625.982,   625.977,-0.083356, 0.088142,-1.008265,-0.000554, 0.000860,-0.010837,-0.527288, 0.590935,-0.481242,1, 0.052222,-0.272561, 0.363931,1, 0.689657, 0.070967, 9.782112,1,0
1778253932076,   626.007,   626.002,-0.127330, 0.053910,-1.030094,-0.001008, 0.000747,-0.010508,-0.494419, 0.613643,-0.324548,1, 0.081643,-0.219962, 0.385208,1, 0.761215, 0.086581, 9.776678,1,0
1778253932101,   626.027,   626.027,-0.110135, 0.151184,-1.065108,-0.001193, 0.001443,-0.010405,-0.284276, 1.572068,-0.671246,1, 0.033202,-0.178943, 0.405936,1, 0.801466, 0.089469, 9.773435,1,0
1778253932123,   626.052,   626.047,-0.087028, 0.170166,-1.165640,-0.000844, 0.001646,-0.012097,-0.061195, 1.795612,-1.319172,1, 0.027717,-0.100830, 0.437768,1, 0.829526, 0.090319, 9.771086,1,0
1778253932146,   626.077,   626.072,-0.089335, 0.011803,-1.066910,-0.000850, 0.000023,-0.011675,-0.031812, 0.220102,-0.693132,1, 0.127016,-0.037573, 0.405923,1, 0.845571, 0.107210, 9.769540,1,0
1778253932171,   626.097,   626.097,-0.079576,-0.088196,-1.002704,-0.000974,-0.000546,-0.009602, 0.064090,-0.730035,-0.063874,1, 0.256425, 0.035373, 0.358933,1, 0.843515, 0.141878, 9.769276,1,0
1778253932193,   626.122,   626.117,-0.125181,-0.021376,-0.964675,-0.001131,-0.000467,-0.010176, 0.185592,-0.533723, 0.097387,1, 0.332946, 0.008693, 0.265036,1, 0.836504, 0.198452, 9.768892,1,0
1778253932220,   626.147,   626.147,-0.067295,-0.102536,-1.026937,-0.000844,-0.000645,-0.010388, 0.174436,-0.708778,-0.304238,1, 0.462252, 0.043253, 0.165108,1, 0.832526, 0.310246, 9.766321,1,0
1778253932241,   626.167,   626.167, 0.031169,-0.201084,-1.093456,-0.000515,-0.002176,-0.010219, 1.126111,-1.588909,-0.958389,1, 0.400300, 0.105857, 0.110641,1, 0.817285, 0.395200, 9.764541,1,0
