Time,GPS_ts,fGPS_ts,scaledAccelX,scaledAccelY,scaledAccelZ,deltaVelX,deltaVelY,deltaVelZ,estLinearAccelX,estLinearAccelY,estLinearAccelZ,estLinearAccel:valid,estAngularRateX,estAngularRateY,estAngularRateZ,estAngularRate:valid,estGravityX,estGravityY,estGravityZ,estGravity:valid,flag
1777931639370,   749.073,   749.068, 0.012247,-0.003315,-0.995255, 0.000122,-0.000031,-0.009963,-0.001583,-0.000683, 0.040660,1,-0.000529, 0.000066,-0.000223,1,-0.117427, 0.030362, 9.805900,1,0
1777931639380,   749.318,   749.318, 0.011991,-0.003295,-0.995756, 0.000121,-0.000032,-0.009962, 0.000282,-0.002229, 0.040869,1, 0.000289, 0.000312,-0.000161,1,-0.117322, 0.030095, 9.805902,1,0
1777931639391,   786.303,   786.298, 0.011462,-0.003220,-0.996058, 0.000114,-0.000034,-0.009962,-0.001388, 0.005071, 0.039841,1,-0.000388, 0.000228, 0.000410,1,-0.117367, 0.030051, 9.805902,1,0
1777931639401,   786.303,   786.298, 0.011462,-0.003220,-0.996058, 0.000114,-0.000034,-0.009962,-0.001388, 0.005071, 0.039841,1,-0.000388, 0.000228, 0.000410,1,-0.117367, 0.030051, 9.805902,1,0
1777931639419,   786.328,   786.328, 0.011591,-0.004075,-0.996630, 0.000118,-0.000039,-0.009964, 0.000961,-0.009677, 0.032349,1,-0.000876, 0.000885, 0.000028,1,-0.112738, 0.030260, 9.805955,1,0
1777931639429,   786.328,   786.328, 0.011591,-0.004075,-0.996630, 0.000118,-0.000039,-0.009964, 0.000961,-0.009677, 0.032349,1,-0.000876, 0.000885, 0.000028,1,-0.112738, 0.030260, 9.805955,1,0
1777931639441,   786.353,   786.348, 0.011846,-0.003422,-0.995502, 0.000116,-0.000036,-0.009953,-0.002142,-0.013230, 0.026002,1,-0.000957,-0.000370, 0.000488,1,-0.112839, 0.030171, 9.805954,1,0
1777931639451,   786.353,   786.348, 0.011846,-0.003422,-0.995502, 0.000116,-0.000036,-0.009953,-0.002142,-0.013230, 0.026002,1,-0.000957,-0.000370, 0.000488,1,-0.112839, 0.030171, 9.805954,1,0
1777931639468,   786.378,   786.378, 0.012619,-0.001833,-0.996523, 0.000126,-0.000022,-0.009960, 0.011049, 0.012236, 0.033407,1,-0.000375,-0.000088, 0.000390,1,-0.112699, 0.030202, 9.805956,1,0
1777931639479,   786.378,   786.378, 0.012619,-0.001833,-0.996523, 0.000126,-0.000022,-0.009960, 0.011049, 0.012236, 0.033407,1,-0.000375,-0.000088, 0.000390,1,-0.112699, 0.030202, 9.805956,1,0
1777931639490,   786.403,   786.398, 0.012441,-0.002164,-0.995547, 0.000124,-0.000022,-0.009955, 0.010794, 0.013596, 0.034800,1, 0.000454,-0.000340, 0.000106,1,-0.112589, 0.030260, 9.805957,1,0
1777931639501,   786.403,   786.398, 0.012441,-0.002164,-0.995547, 0.000124,-0.000022,-0.009955, 0.010794, 0.013596, 0.034800,1, 0.000454,-0.000340, 0.000106,1,-0.112589, 0.030260, 9.805957,1,0
1777931639518,   786.428,   786.428, 0.012253,-0.003073,-0.995357, 0.000122,-0.000030,-0.009953, 0.007473, 0.000127, 0.044835,1, 0.000419, 0.000245, 0.000368,1,-0.112696, 0.030277, 9.805956,1,0
1777931639528,   786.428,   786.428, 0.012253,-0.003073,-0.995357, 0.000122,-0.000030,-0.009953, 0.007473, 0.000127, 0.044835,1, 0.000419, 0.000245, 0.000368,1,-0.112696, 0.030277, 9.805956,1,0
1777931639540,   786.453,   786.448, 0.012142,-0.004521,-0.994773, 0.000121,-0.000041,-0.009953, 0.006929,-0.000355, 0.035549,1, 0.000096, 0.000214, 0.000484,1,-0.112742, 0.030345, 9.805955,1,0
1777931639550,   786.453,   786.448, 0.012142,-0.004521,-0.994773, 0.000121,-0.000041,-0.009953, 0.006929,-0.000355, 0.035549,1, 0.000096, 0.000214, 0.000484,1,-0.112742, 0.030345, 9.805955,1,0
1777931639564,   786.478,   786.473, 0.011230,-0.004544,-0.994789, 0.000113,-0.000048,-0.009948,-0.002689,-0.014167, 0.050406,1, 0.000643, 0.000323, 0.000064,1,-0.112823, 0.030416, 9.805954,1,0
1777931639574,   786.478,   786.473, 0.011230,-0.004544,-0.994789, 0.000113,-0.000048,-0.009948,-0.002689,-0.014167, 0.050406,1, 0.000643, 0.000323, 0.000064,1,-0.112823, 0.030416, 9.805954,1,0
1777931639590,   786.503,   786.498, 0.011525,-0.002438,-0.995537, 0.000117,-0.000021,-0.009963,-0.002392, 0.008402, 0.041622,1,-0.000755, 0.000154, 0.000395,1,-0.112831, 0.030345, 9.805954,1,0
1777931639600,   786.503,   786.498, 0.011525,-0.002438,-0.995537, 0.000117,-0.000021,-0.009963,-0.002392, 0.008402, 0.041622,1,-0.000755, 0.000154, 0.000395,1,-0.112831, 0.030345, 9.805954,1,0
1777931639613,   786.523,   786.523, 0.011441,-0.001867,-0.994822, 0.000114,-0.000020,-0.009952,-0.000694, 0.011947, 0.050082,1,-0.000397, 0.000343,-0.000238,1,-0.112907, 0.030246, 9.805953,1,0
1777931639623,   786.523,   786.523, 0.011441,-0.001867,-0.994822, 0.000114,-0.000020,-0.009952,-0.000694, 0.011947, 0.050082,1,-0.000397, 0.000343,-0.000238,1,-0.112907, 0.030246, 9.805953,1,0
1777931639639,   786.548,   786.548, 0.011753,-0.003525,-0.995240, 0.000117,-0.000033,-0.009954, 0.002245,-0.004360, 0.045981,1,-0.000172, 0.000677, 0.000153,1,-0.113032, 0.030200, 9.805952,1,0
1777931639649,   786.548,   786.548, 0.011753,-0.003525,-0.995240, 0.000117,-0.000033,-0.009954, 0.002245,-0.004360, 0.045981,1,-0.000172, 0.000677, 0.000153,1,-0.113032, 0.030200, 9.805952,1,0
1777931639661,   786.573,   786.568, 0.012059,-0.003303,-0.995683, 0.000123,-0.000029,-0.009961, 0.002488,-0.001367, 0.036741,1, 0.000716, 0.000825, 0.000089,1,-0.113112, 0.030195, 9.805951,1,0
1777931639671,   786.573,   786.568, 0.012059,-0.003303,-0.995683, 0.000123,-0.000029,-0.009961, 0.002488,-0.001367, 0.036741,1, 0.000716, 0.000825, 0.000089,1,-0.113112, 0.030195, 9.805951,1,0
1777931639689,   786.598,   786.598, 0.012099,-0.004035,-0.994975, 0.000122,-0.000041,-0.009951, 0.005571,-0.009312, 0.048579,1, 0.000291,-0.000034, 0.000077,1,-0.113078, 0.030266, 9.805951,1,0
1777931639699,   786.598,   786.598, 0.012099,-0.004035,-0.994975, 0.000122,-0.000041,-0.009951, 0.005571,-0.009312, 0.048579,1, 0.000291,-0.000034, 0.000077,1,-0.113078, 0.030266, 9.805951,1,0
1777931639711,   786.623,   786.618, 0.012252,-0.002902,-0.995392, 0.000124,-0.000029,-0.009962, 0.005411,-0.000991, 0.043707,1,-0.001087,-0.000538, 0.000008,1,-0.113065, 0.030238, 9.805951,1,0
1777931639721,   786.623,   786.618, 0.012252,-0.002902,-0.995392, 0.000124,-0.000029,-0.009962, 0.005411,-0.000991, 0.043707,1,-0.001087,-0.000538, 0.000008,1,-0.113065, 0.030238, 9.805951,1,0
1777931639739,   786.648,   786.648, 0.011391,-0.002395,-0.995693, 0.000118,-0.000025,-0.009960,-0.001320, 0.006771, 0.041534,1,-0.000201,-0.000336, 0.000321,1,-0.113019, 0.030255, 9.805952,1,0
1777931639749,   786.648,   786.648, 0.011391,-0.002395,-0.995693, 0.000118,-0.000025,-0.009960,-0.001320, 0.006771, 0.041534,1,-0.000201,-0.000336, 0.000321,1,-0.113019, 0.030255, 9.805952,1,0
1777931639761,   786.673,   786.668, 0.011264,-0.002732,-0.996389, 0.000112,-0.000030,-0.009965,-0.007303, 0.005661, 0.047348,1, 0.000022, 0.000243, 0.000352,1,-0.113032, 0.030274, 9.805952,1,0
1777931639771,   786.673,   786.668, 0.011264,-0.002732,-0.996389, 0.000112,-0.000030,-0.009965,-0.007303, 0.005661, 0.047348,1, 0.000022, 0.000243, 0.000352,1,-0.113032, 0.030274, 9.805952,1,0
1777931639788,   786.698,   786.698, 0.012211,-0.002813,-0.995660, 0.000121,-0.000028,-0.009960, 0.006546, 0.002693, 0.041861,1, 0.000251,-0.000106,-0.000356,1,-0.113204, 0.030284, 9.805950,1,0
1777931639798,   786.698,   786.698, 0.012211,-0.002813,-0.995660, 0.000121,-0.000028,-0.009960, 0.006546, 0.002693, 0.041861,1, 0.000251,-0.000106,-0.000356,1,-0.113204, 0.030284, 9.805950,1,0
1777931639810,   786.723,   786.718, 0.012057,-0.003729,-0.996783, 0.000120,-0.000037,-0.009966,-0.000419,-0.008581, 0.049832,1, 0.000310,-0.000110, 0.000112,1,-0.113146, 0.030307, 9.805950,1,0
1777931639820,   786.723,   786.718, 0.012057,-0.003729,-0.996783, 0.000120,-0.000037,-0.009966,-0.000419,-0.008581, 0.049832,1, 0.000310,-0.000110, 0.000112,1,-0.113146, 0.030307, 9.805950,1,0
1777931639834,   786.748,   786.743, 0.012066,-0.003106,-0.996075, 0.000121,-0.000031,-0.009968, 0.005006,-0.000163, 0.037785,1, 0.000155, 0.000126, 0.000625,1,-0.113328, 0.030299, 9.805948,1,0
1777931639844,   786.748,   786.743, 0.012066,-0.003106,-0.996075, 0.000121,-0.000031,-0.009968, 0.005006,-0.000163, 0.037785,1, 0.000155, 0.000126, 0.000625,1,-0.113328, 0.030299, 9.805948,1,0
1777931639860,   786.773,   786.768, 0.012036,-0.001807,-0.996635, 0.000120,-0.000019,-0.009963, 0.003959, 0.004343, 0.046156,1,-0.000320, 0.000447,-0.000126,1,-0.113369, 0.030294, 9.805948,1,0
1777931639870,   786.773,   786.768, 0.012036,-0.001807,-0.996635, 0.000120,-0.000019,-0.009963, 0.003959, 0.004343, 0.046156,1,-0.000320, 0.000447,-0.000126,1,-0.113369, 0.030294, 9.805948,1,0
1777931639883,   786.793,   786.793, 0.012280,-0.002491,-0.995584, 0.000121,-0.000021,-0.009962, 0.007069, 0.005823, 0.042608,1, 0.000343,-0.000785,-0.000315,1,-0.113329, 0.030261, 9.805948,1,0
1777931639893,   786.793,   786.793, 0.012280,-0.002491,-0.995584, 0.000121,-0.000021,-0.009962, 0.007069, 0.005823, 0.042608,1, 0.000343,-0.000785,-0.000315,1,-0.113329, 0.030261, 9.805948,1,0
1777931639909,   786.818,   786.818, 0.011701,-0.003624,-0.995350, 0.000118,-0.000035,-0.009960, 0.001490,-0.005236, 0.044898,1, 0.000406, 0.000036, 0.000125,1,-0.113262, 0.030315, 9.805949,1,0
1777931639919,   786.818,   786.818, 0.011701,-0.003624,-0.995350, 0.000118,-0.000035,-0.009960, 0.001490,-0.005236, 0.044898,1, 0.000406, 0.000036, 0.000125,1,-0.113262, 0.030315, 9.805949,1,0
1777931639931,   786.843,   786.838, 0.011534,-0.003701,-0.996042, 0.000115,-0.000036,-0.009962, 0.001803,-0.009026, 0.043365,1, 0.000235, 0.000025, 0.000004,1,-0.113272, 0.030323, 9.805949,1,0
1777931639941,   786.843,   786.838, 0.011534,-0.003701,-0.996042, 0.000115,-0.000036,-0.009962, 0.001803,-0.009026, 0.043365,1, 0.000235, 0.000025, 0.000004,1,-0.113272, 0.030323, 9.805949,1,0
1777931639959,   786.868,   786.868, 0.011824,-0.003425,-0.995916, 0.000116,-0.000035,-0.009964, 0.002760,-0.003330, 0.039349,1,-0.000050,-0.000675, 0.000535,1,-0.113172, 0.030252, 9.805950,1,0
1777931639969,   786.868,   786.868, 0.011824,-0.003425,-0.995916, 0.000116,-0.000035,-0.009964, 0.002760,-0.003330, 0.039349,1,-0.000050,-0.000675, 0.000535,1,-0.113172, 0.030252, 9.805950,1,0
1777931639981,   786.893,   786.888, 0.012276,-0.002397,-0.996399, 0.000121,-0.000022,-0.009958, 0.006787, 0.003596, 0.050206,1,-0.000357,-0.000454,-0.000268,1,-0.113106, 0.030274, 9.805951,1,0
1777931639991,   786.893,   786.888, 0.012276,-0.002397,-0.996399, 0.000121,-0.000022,-0.009958, 0.006787, 0.003596, 0.050206,1,-0.000357,-0.000454,-0.000268,1,-0.113106, 0.030274, 9.805951,1,0
1777931640009,   786.918,   786.918, 0.011858,-0.002647,-0.996309, 0.000121,-0.000026,-0.009965, 0.003179, 0.004294, 0.035494,1,-0.000080,-0.000361,-0.000348,1,-0.113098, 0.030246, 9.805951,1,0
1777931640019,   786.918,   786.918, 0.011858,-0.002647,-0.996309, 0.000121,-0.000026,-0.009965, 0.003179, 0.004294, 0.035494,1,-0.000080,-0.000361,-0.000348,1,-0.113098, 0.030246, 9.805951,1,0
1777931640031,   786.943,   786.938, 0.012030,-0.003354,-0.996911, 0.000121,-0.000032,-0.009963, 0.002067, 0.001258, 0.041155,1, 0.000056,-0.000266,-0.000066,1,-0.113322, 0.030385, 9.805948,1,0
1777931640041,   786.943,   786.938, 0.012030,-0.003354,-0.996911, 0.000121,-0.000032,-0.009963, 0.002067, 0.001258, 0.041155,1, 0.000056,-0.000266,-0.000066,1,-0.113322, 0.030385, 9.805948,1,0
1777931640058,   786.968,   786.968, 0.011945,-0.004048,-0.996137, 0.000119,-0.000040,-0.009961, 0.003704,-0.009441, 0.037181,1,-0.000572, 0.000054, 0.000240,1,-0.113441, 0.030239, 9.805947,1,0
1777931640068,   786.968,   786.968, 0.011945,-0.004048,-0.996137, 0.000119,-0.000040,-0.009961, 0.003704,-0.009441, 0.037181,1,-0.000572, 0.000054, 0.000240,1,-0.113441, 0.030239, 9.805947,1,0
1777931640080,   786.993,   786.988, 0.011812,-0.003149,-0.996051, 0.000119,-0.000029,-0.009954, 0.001457,-0.002659, 0.040230,1, 0.000082,-0.000524,-0.000500,1,-0.113434, 0.030180, 9.805947,1,0
1777931640090,   786.993,   786.988, 0.011812,-0.003149,-0.996051, 0.000119,-0.000029,-0.009954, 0.001457,-0.002659, 0.040230,1, 0.000082,-0.000524,-0.000500,1,-0.113434, 0.030180, 9.805947,1,0
1777931640104,   787.018,   787.013, 0.012018,-0.002077,-0.996307, 0.000121,-0.000019,-0.009960, 0.004334, 0.009838, 0.035508,1, 0.000296,-0.000091,-0.000222,1,-0.113519, 0.030220, 9.805946,1,0
1777931640114,   787.018,   787.013, 0.012018,-0.002077,-0.996307, 0.000121,-0.000019,-0.009960, 0.004334, 0.009838, 0.035508,1, 0.000296,-0.000091,-0.000222,1,-0.113519, 0.030220, 9.805946,1,0
1777931640130,   787.043,   787.038, 0.011748,-0.003191,-0.995707, 0.000116,-0.000034,-0.009957, 0.000411, 0.000665, 0.031368,1, 0.000336,-0.000052,-0.000396,1,-0.113512, 0.030208, 9.805946,1,0
1777931640140,   787.043,   787.038, 0.011748,-0.003191,-0.995707, 0.000116,-0.000034,-0.009957, 0.000411, 0.000665, 0.031368,1, 0.000336,-0.000052,-0.000396,1,-0.113512, 0.030208, 9.805946,1,0
1777931640153,   787.063,   787.063, 0.011903,-0.003410,-0.997003, 0.000120,-0.000035,-0.009963, 0.003274,-0.003294, 0.028687,1,-0.000094, 0.000110, 0.000603,1,-0.113457, 0.030143, 9.805947,1,0
1777931640163,   787.063,   787.063, 0.011903,-0.003410,-0.997003, 0.000120,-0.000035,-0.009963, 0.003274,-0.003294, 0.028687,1,-0.000094, 0.000110, 0.000603,1,-0.113457, 0.030143, 9.805947,1,0
1777931640179,   787.088,   787.088, 0.011826,-0.003819,-0.996460, 0.000118,-0.000036,-0.009959, 0.002503,-0.007243, 0.034014,1, 0.000354,-0.000230,-0.000095,1,-0.113460, 0.030220, 9.805947,1,0
1777931640190,   787.088,   787.088, 0.011826,-0.003819,-0.996460, 0.000118,-0.000036,-0.009959, 0.002503,-0.007243, 0.034014,1, 0.000354,-0.000230,-0.000095,1,-0.113460, 0.030220, 9.805947,1,0
1777931640201,   787.113,   787.108, 0.011861,-0.002837,-0.996003, 0.000118,-0.000030,-0.009958, 0.005307,-0.006043, 0.034850,1,-0.000324,-0.000426,-0.000333,1,-0.113472, 0.030174, 9.805947,1,0
1777931640211,   787.113,   787.108, 0.011861,-0.002837,-0.996003, 0.000118,-0.000030,-0.009958, 0.005307,-0.006043, 0.034850,1,-0.000324,-0.000426,-0.000333,1,-0.113472, 0.030174, 9.805947,1,0
1777931640229,   787.138,   787.138, 0.012058,-0.002412,-0.996626, 0.000122,-0.000023,-0.009961, 0.004765, 0.006504, 0.032387,1,-0.000259,-0.000095, 0.000136,1,-0.113513, 0.030161, 9.805946,1,0
1777931640239,   787.138,   787.138, 0.012058,-0.002412,-0.996626, 0.000122,-0.000023,-0.009961, 0.004765, 0.006504, 0.032387,1,-0.000259,-0.000095, 0.000136,1,-0.113513, 0.030161, 9.805946,1,0
1777931640251,   787.163,   787.158, 0.011487,-0.002734,-0.995434, 0.000117,-0.000030,-0.009956, 0.005581, 0.010300, 0.036206,1, 0.000094,-0.000219,-0.000379,1,-0.113529, 0.030162, 9.805946,1,0
1777931640261,   787.163,   787.158, 0.011487,-0.002734,-0.995434, 0.000117,-0.000030,-0.009956, 0.005581, 0.010300, 0.036206,1, 0.000094,-0.000219,-0.000379,1,-0.113529, 0.030162, 9.805946,1,0
1777931640279,   787.188,   787.188, 0.012061,-0.003627,-0.996247, 0.000119,-0.000036,-0.009956, 0.004808,-0.005503, 0.036096,1, 0.000087,-0.000138,-0.000741,1,-0.113467, 0.030071, 9.805947,1,0
1777931640289,   787.188,   787.188, 0.012061,-0.003627,-0.996247, 0.000119,-0.000036,-0.009956, 0.004808,-0.005503, 0.036096,1, 0.000087,-0.000138,-0.000741,1,-0.113467, 0.030071, 9.805947,1,0
1777931640301,   787.213,   787.208, 0.011658,-0.003400,-0.995257, 0.000117,-0.000033,-0.009954, 0.006950,-0.003648, 0.037317,1,-0.000234, 0.000770, 0.000268,1,-0.113471, 0.030025, 9.805947,1,0
1777931640311,   787.213,   787.208, 0.011658,-0.003400,-0.995257, 0.000117,-0.000033,-0.009954, 0.006950,-0.003648, 0.037317,1,-0.000234, 0.000770, 0.000268,1,-0.113471, 0.030025, 9.805947,1,0
1777931640328,   787.238,   787.238, 0.012002,-0.003282,-0.995645, 0.000119,-0.000033,-0.009957, 0.004275,-0.002152, 0.042001,1, 0.000104,-0.000455,-0.000009,1,-0.113413, 0.030040, 9.805948,1,0
1777931640338,   787.238,   787.238, 0.012002,-0.003282,-0.995645, 0.000119,-0.000033,-0.009957, 0.004275,-0.002152, 0.042001,1, 0.000104,-0.000455,-0.000009,1,-0.113413, 0.030040, 9.805948,1,0
1777931640350,   787.263,   787.258, 0.012078,-0.002832,-0.995372, 0.000120,-0.000029,-0.009956, 0.004662, 0.001164, 0.038087,1,-0.000097, 0.000100, 0.000076,1,-0.113393, 0.030016, 9.805948,1,0
1777931640360,   787.263,   787.258, 0.012078,-0.002832,-0.995372, 0.000120,-0.000029,-0.009956, 0.004662, 0.001164, 0.038087,1,-0.000097, 0.000100, 0.000076,1,-0.113393, 0.030016, 9.805948,1,0
1777931640374,   787.288,   787.283, 0.011946,-0.002530,-0.995910, 0.000119,-0.000025,-0.009959, 0.003770, 0.005144, 0.039404,1,-0.000454, 0.000403,-0.000247,1,-0.113393, 0.029939, 9.805948,1,0
1777931640387,   787.288,   787.283, 0.011946,-0.002530,-0.995910, 0.000119,-0.000025,-0.009959, 0.003770, 0.005144, 0.039404,1,-0.000454, 0.000403,-0.000247,1,-0.113393, 0.029939, 9.805948,1,0
1777931640400,   787.313,   787.308, 0.012475,-0.003045,-0.995665, 0.000124,-0.000033,-0.009962, 0.003037, 0.001641, 0.035671,1,-0.000479, 0.000611, 0.000095,1,-0.113418, 0.029853, 9.805948,1,0
1777931640410,   787.313,   787.308, 0.012475,-0.003045,-0.995665, 0.000124,-0.000033,-0.009962, 0.003037, 0.001641, 0.035671,1,-0.000479, 0.000611, 0.000095,1,-0.113418, 0.029853, 9.805948,1,0
1777931640423,   787.333,   787.333, 0.011599,-0.003169,-0.995394, 0.000117,-0.000034,-0.009956, 0.000336,-0.001105, 0.044465,1, 0.000146, 0.000016, 0.000172,1,-0.113456, 0.029972, 9.805948,1,0
1777931640434,   787.333,   787.333, 0.011599,-0.003169,-0.995394, 0.000117,-0.000034,-0.009956, 0.000336,-0.001105, 0.044465,1, 0.000146, 0.000016, 0.000172,1,-0.113456, 0.029972, 9.805948,1,0
1777931640450,   787.363,   787.358, 0.011770,-0.002471,-0.995986, 0.000118,-0.000027,-0.009962,-0.001741,-0.006189, 0.040029,1, 0.000055,-0.000632,-0.000199,1,-0.113394, 0.030010, 9.805948,1,0
1777931640460,   787.363,   787.358, 0.011770,-0.002471,-0.995986, 0.000118,-0.000027,-0.009962,-0.001741,-0.006189, 0.040029,1, 0.000055,-0.000632,-0.000199,1,-0.113394, 0.030010, 9.805948,1,0
1777931640471,   787.383,   787.378, 0.011794,-0.003225,-0.995349, 0.000118,-0.000030,-0.009958, 0.002462, 0.005130, 0.037318,1,-0.000063, 0.000308, 0.000269,1,-0.113429, 0.030000, 9.805948,1,0
1777931640482,   787.383,   787.378, 0.011794,-0.003225,-0.995349, 0.000118,-0.000030,-0.009958, 0.002462, 0.005130, 0.037318,1,-0.000063, 0.000308, 0.000269,1,-0.113429, 0.030000, 9.805948,1,0
1777931640499,   787.408,   787.408, 0.011732,-0.003414,-0.995531, 0.000117,-0.000035,-0.009955, 0.001685,-0.003467, 0.043124,1,-0.001204, 0.000211, 0.000295,1,-0.113377, 0.029980, 9.805949,1,0
1777931640509,   787.408,   787.408, 0.011732,-0.003414,-0.995531, 0.000117,-0.000035,-0.009955, 0.001685,-0.003467, 0.043124,1,-0.001204, 0.000211, 0.000295,1,-0.113377, 0.029980, 9.805949,1,0
1777931640521,   787.433,   787.428, 0.011728,-0.002887,-0.996217, 0.000118,-0.000029,-0.009967, 0.008708, 0.003359, 0.039071,1,-0.000297,-0.000491, 0.000112,1,-0.113335, 0.029875, 9.805949,1,0
1777931640531,   787.433,   787.428, 0.011728,-0.002887,-0.996217, 0.000118,-0.000029,-0.009967, 0.008708, 0.003359, 0.039071,1,-0.000297,-0.000491, 0.000112,1,-0.113335, 0.029875, 9.805949,1,0
1777931640549,   787.458,   787.458, 0.011483,-0.004031,-0.995743, 0.000117,-0.000039,-0.009960,-0.000738,-0.009634, 0.041045,1,-0.000459,-0.000711,-0.000148,1,-0.113325, 0.029886, 9.805949,1,0
1777931640559,   787.458,   787.458, 0.011483,-0.004031,-0.995743, 0.000117,-0.000039,-0.009960,-0.000738,-0.009634, 0.041045,1,-0.000459,-0.000711,-0.000148,1,-0.113325, 0.029886, 9.805949,1,0
1777931640571,   787.483,   787.478, 0.012089,-0.003295,-0.995275, 0.000120,-0.000030,-0.009955, 0.002409, 0.003368, 0.038805,1,-0.000052,-0.000036,-0.000288,1,-0.113331, 0.029925, 9.805949,1,0
1777931640581,   787.483,   787.478, 0.012089,-0.003295,-0.995275, 0.000120,-0.000030,-0.009955, 0.002409, 0.003368, 0.038805,1,-0.000052,-0.000036,-0.000288,1,-0.113331, 0.029925, 9.805949,1,0
1777931640598,   787.508,   787.508, 0.012119,-0.003844,-0.995883, 0.000119,-0.000039,-0.009958, 0.005544,-0.007719, 0.039677,1,-0.000088, 0.000145,-0.000476,1,-0.113310, 0.029976, 9.805949,1,0
1777931640608,   787.508,   787.508, 0.012119,-0.003844,-0.995883, 0.000119,-0.000039,-0.009958, 0.005544,-0.007719, 0.039677,1,-0.000088, 0.000145,-0.000476,1,-0.113310, 0.029976, 9.805949,1,0
1777931640620,   787.533,   787.528, 0.012587,-0.002845,-0.996835, 0.000125,-0.000027,-0.009966, 0.001251, 0.001473, 0.045876,1, 0.000219, 0.000010, 0.000374,1,-0.113312, 0.030014, 9.805949,1,0
1777931640630,   787.533,   787.528, 0.012587,-0.002845,-0.996835, 0.000125,-0.000027,-0.009966, 0.001251, 0.001473, 0.045876,1, 0.000219, 0.000010, 0.000374,1,-0.113312, 0.030014, 9.805949,1,0
1777931640644,   787.558,   787.553, 0.011757,-0.002634,-0.996200, 0.000117,-0.000025,-0.009965, 0.001993, 0.004211, 0.036568,1, 0.000078, 0.000061, 0.000080,1,-0.113309, 0.030046, 9.805949,1,0
1777931640654,   787.558,   787.553, 0.011757,-0.002634,-0.996200, 0.000117,-0.000025,-0.009965, 0.001993, 0.004211, 0.036568,1, 0.000078, 0.000061, 0.000080,1,-0.113309, 0.030046, 9.805949,1,0
1777931640670,   787.583,   787.578, 0.012384,-0.003496,-0.995971, 0.000121,-0.000036,-0.009959, 0.002131,-0.010221, 0.044942,1,-0.000468, 0.000074,-0.000349,1,-0.113292, 0.029973, 9.805950,1,0
1777931640680,   787.583,   787.578, 0.012384,-0.003496,-0.995971, 0.000121,-0.000036,-0.009959, 0.002131,-0.010221, 0.044942,1,-0.000468, 0.000074,-0.000349,1,-0.113292, 0.029973, 9.805950,1,0
1777931640693,   787.603,   787.603, 0.012635,-0.003015,-0.996074, 0.000128,-0.000028,-0.009965, 0.010626, 0.000355, 0.037801,1, 0.000324,-0.000319, 0.000080,1,-0.113276, 0.029934, 9.805950,1,0
1777931640703,   787.603,   787.603, 0.012635,-0.003015,-0.996074, 0.000128,-0.000028,-0.009965, 0.010626, 0.000355, 0.037801,1, 0.000324,-0.000319, 0.000080,1,-0.113276, 0.029934, 9.805950,1,0
1777931640720,   787.633,   787.628, 0.011960,-0.002324,-0.995815, 0.000120,-0.000025,-0.009956, 0.008834,-0.001513, 0.038938,1, 0.000389, 0.000277, 0.000009,1,-0.113308, 0.029965, 9.805949,1,0
1777931640730,   787.633,   787.628, 0.011960,-0.002324,-0.995815, 0.000120,-0.000025,-0.009956, 0.008834,-0.001513, 0.038938,1, 0.000389, 0.000277, 0.000009,1,-0.113308, 0.029965, 9.805949,1,0
1777931640742,   787.653,   787.648, 0.011833,-0.003125,-0.996263, 0.000119,-0.000029,-0.009963, 0.006349, 0.002009, 0.045862,1, 0.000438, 0.000289,-0.000106,1,-0.113441, 0.030040, 9.805948,1,0
1777931640752,   787.653,   787.648, 0.011833,-0.003125,-0.996263, 0.000119,-0.000029,-0.009963, 0.006349, 0.002009, 0.045862,1, 0.000438, 0.000289,-0.000106,1,-0.113441, 0.030040, 9.805948,1,0
1777931640769,   787.678,   787.678, 0.012254,-0.003350,-0.996259, 0.000123,-0.000035,-0.009962, 0.006748,-0.002786, 0.035985,1, 0.000097,-0.000471, 0.000216,1,-0.113405, 0.030066, 9.805948,1,0
1777931640779,   787.678,   787.678, 0.012254,-0.003350,-0.996259, 0.000123,-0.000035,-0.009962, 0.006748,-0.002786, 0.035985,1, 0.000097,-0.000471, 0.000216,1,-0.113405, 0.030066, 9.805948,1,0
1777931640791,   787.703,   787.698, 0.012070,-0.003260,-0.996451, 0.000118,-0.000034,-0.009961,-0.001703, 0.001482, 0.045200,1,-0.000246,-0.000047,-0.000043,1,-0.113451, 0.030045, 9.805947,1,0
1777931640801,   787.703,   787.698, 0.012070,-0.003260,-0.996451, 0.000118,-0.000034,-0.009961,-0.001703, 0.001482, 0.045200,1,-0.000246,-0.000047,-0.000043,1,-0.113451, 0.030045, 9.805947,1,0
1777931640819,   787.728,   787.728, 0.011891,-0.002508,-0.996325, 0.000120,-0.000024,-0.009963, 0.003165, 0.005456, 0.035334,1,-0.000088,-0.000624, 0.000108,1,-0.113422, 0.030053, 9.805948,1,0
1777931640829,   787.728,   787.728, 0.011891,-0.002508,-0.996325, 0.000120,-0.000024,-0.009963, 0.003165, 0.005456, 0.035334,1,-0.000088,-0.000624, 0.000108,1,-0.113422, 0.030053, 9.805948,1,0
1777931640841,   787.753,   787.748, 0.012259,-0.003454,-0.995202, 0.000122,-0.000033,-0.009949, 0.001378,-0.001616, 0.039714,1,-0.000246, 0.001089,-0.000095,1,-0.113583, 0.030008, 9.805946,1,0
1777931640851,   787.753,   787.748, 0.012259,-0.003454,-0.995202, 0.000122,-0.000033,-0.009949, 0.001378,-0.001616, 0.039714,1,-0.000246, 0.001089,-0.000095,1,-0.113583, 0.030008, 9.805946,1,0
1777931640868,   787.778,   787.778, 0.011529,-0.002883,-0.996619, 0.000116,-0.000029,-0.009962,-0.000463, 0.001702, 0.032448,1,-0.000179,-0.000023,-0.000329,1,-0.113521, 0.029973, 9.805947,1,0
1777931640878,   787.778,   787.778, 0.011529,-0.002883,-0.996619, 0.000116,-0.000029,-0.009962,-0.000463, 0.001702, 0.032448,1,-0.000179,-0.000023,-0.000329,1,-0.113521, 0.029973, 9.805947,1,0
1777931640890,   787.803,   787.798, 0.011941,-0.002780,-0.995724, 0.000120,-0.000029,-0.009957, 0.004447,-0.001914, 0.043694,1, 0.000112,-0.000322,-0.000394,1,-0.113462, 0.030025, 9.805947,1,0
1777931640900,   787.803,   787.798, 0.011941,-0.002780,-0.995724, 0.000120,-0.000029,-0.009957, 0.004447,-0.001914, 0.043694,1, 0.000112,-0.000322,-0.000394,1,-0.113462, 0.030025, 9.805947,1,0
1777931640914,   787.828,   787.823, 0.011968,-0.002972,-0.996062, 0.000120,-0.000033,-0.009953, 0.003970, 0.000869, 0.037915,1,-0.000085, 0.000453, 0.000478,1,-0.113407, 0.030013, 9.805948,1,0
1777931640924,   787.828,   787.823, 0.011968,-0.002972,-0.996062, 0.000120,-0.000033,-0.009953, 0.003970, 0.000869, 0.037915,1,-0.000085, 0.000453, 0.000478,1,-0.113407, 0.030013, 9.805948,1,0
1777931640940,   787.853,   787.848, 0.011533,-0.002600,-0.994762, 0.000115,-0.000026,-0.009952, 0.005787, 0.002672, 0.025074,1,-0.000636, 0.000037, 0.000756,1,-0.113426, 0.029973, 9.805948,1,0
1777931640950,   787.853,   787.848, 0.011533,-0.002600,-0.994762, 0.000115,-0.000026,-0.009952, 0.005787, 0.002672, 0.025074,1,-0.000636, 0.000037, 0.000756,1,-0.113426, 0.029973, 9.805948,1,0
1777931640963,   787.873,   787.873, 0.011295,-0.002909,-0.995471, 0.000114,-0.000031,-0.009952,-0.002583, 0.001414, 0.043709,1,-0.000443, 0.000234,-0.000001,1,-0.113357, 0.029932, 9.805949,1,0
1777931640974,   787.873,   787.873, 0.011295,-0.002909,-0.995471, 0.000114,-0.000031,-0.009952,-0.002583, 0.001414, 0.043709,1,-0.000443, 0.000234,-0.000001,1,-0.113357, 0.029932, 9.805949,1,0
1777931640990,   787.903,   787.898, 0.011421,-0.003421,-0.995117, 0.000114,-0.000034,-0.009960,-0.001935, 0.004218, 0.028309,1,-0.000579, 0.000103, 0.000040,1,-0.113379, 0.029881, 9.805949,1,0
1777931641000,   787.903,   787.898, 0.011421,-0.003421,-0.995117, 0.000114,-0.000034,-0.009960,-0.001935, 0.004218, 0.028309,1,-0.000579, 0.000103, 0.000040,1,-0.113379, 0.029881, 9.805949,1,0
1777931641012,   787.923,   787.923, 0.011681,-0.002632,-0.995255, 0.000115,-0.000027,-0.009948, 0.001203, 0.004060, 0.045830,1,-0.000348, 0.000043, 0.000326,1,-0.113352, 0.029859, 9.805949,1,0
1777931641022,   787.923,   787.923, 0.011681,-0.002632,-0.995255, 0.000115,-0.000027,-0.009948, 0.001203, 0.004060, 0.045830,1,-0.000348, 0.000043, 0.000326,1,-0.113352, 0.029859, 9.805949,1,0
1777931641039,   787.948,   787.948, 0.011999,-0.002912,-0.996200, 0.000119,-0.000030,-0.009955, 0.004241, 0.001372, 0.036562,1, 0.000388,-0.000738,-0.000493,1,-0.113407, 0.029946, 9.805948,1,0
1777931641049,   787.948,   787.948, 0.011999,-0.002912,-0.996200, 0.000119,-0.000030,-0.009955, 0.004241, 0.001372, 0.036562,1, 0.000388,-0.000738,-0.000493,1,-0.113407, 0.029946, 9.805948,1,0
1777931641061,   787.973,   787.968, 0.011908,-0.002903,-0.995450, 0.000122,-0.000030,-0.009951, 0.006938,-0.003783, 0.027759,1, 0.000898,-0.000241,-0.000005,1,-0.113462, 0.029993, 9.805947,1,0
1777931641071,   787.973,   787.968, 0.011908,-0.002903,-0.995450, 0.000122,-0.000030,-0.009951, 0.006938,-0.003783, 0.027759,1, 0.000898,-0.000241,-0.000005,1,-0.113462, 0.029993, 9.805947,1,0
1777931641089,   787.998,   787.998, 0.012360,-0.003303,-0.996484, 0.000122,-0.000034,-0.009958, 0.007734,-0.002329, 0.033775,1, 0.000341, 0.000080, 0.000329,1,-0.113475, 0.030071, 9.805947,1,0
1777931641099,   787.998,   787.998, 0.012360,-0.003303,-0.996484, 0.000122,-0.000034,-0.009958, 0.007734,-0.002329, 0.033775,1, 0.000341, 0.000080, 0.000329,1,-0.113475, 0.030071, 9.805947,1,0
1777931641111,   788.023,   788.018, 0.011868,-0.002457,-0.994957, 0.000121,-0.000026,-0.009951, 0.003229, 0.001287, 0.036393,1,-0.000372,-0.000443,-0.000137,1,-0.113408, 0.029940, 9.805948,1,0
1777931641121,   788.023,   788.018, 0.011868,-0.002457,-0.994957, 0.000121,-0.000026,-0.009951, 0.003229, 0.001287, 0.036393,1,-0.000372,-0.000443,-0.000137,1,-0.113408, 0.029940, 9.805948,1,0
1777931641138,   788.048,   788.048, 0.011580,-0.003146,-0.996605, 0.000115,-0.000032,-0.009958, 0.000203,-0.000955, 0.032590,1, 0.000477, 0.000367, 0.000029,1,-0.113367, 0.029909, 9.805949,1,0
1777931641148,   788.048,   788.048, 0.011580,-0.003146,-0.996605, 0.000115,-0.000032,-0.009958, 0.000203,-0.000955, 0.032590,1, 0.000477, 0.000367, 0.000029,1,-0.113367, 0.029909, 9.805949,1,0
1777931641160,   788.073,   788.068, 0.012045,-0.003467,-0.995431, 0.000118,-0.000033,-0.009960, 0.003097, 0.009642, 0.031888,1, 0.000832,-0.000701,-0.000466,1,-0.113256, 0.030026, 9.805950,1,0
1777931641171,   788.073,   788.068, 0.012045,-0.003467,-0.995431, 0.000118,-0.000033,-0.009960, 0.003097, 0.009642, 0.031888,1, 0.000832,-0.000701,-0.000466,1,-0.113256, 0.030026, 9.805950,1,0
1777931641184,   788.098,   788.093, 0.011496,-0.003479,-0.995110, 0.000115,-0.000036,-0.009952,-0.000653,-0.004123, 0.047255,1, 0.000223,-0.000050, 0.000112,1,-0.113387, 0.030003, 9.805948,1,0
1777931641194,   788.098,   788.093, 0.011496,-0.003479,-0.995110, 0.000115,-0.000036,-0.009952,-0.000653,-0.004123, 0.047255,1, 0.000223,-0.000050, 0.000112,1,-0.113387, 0.030003, 9.805948,1,0
1777931641210,   788.123,   788.118, 0.012920,-0.002640,-0.995244, 0.000127,-0.000024,-0.009959, 0.006639, 0.001694, 0.039651,1,-0.000343, 0.000198,-0.000089,1,-0.113363, 0.029936, 9.805949,1,0
1777931641220,   788.123,   788.118, 0.012920,-0.002640,-0.995244, 0.000127,-0.000024,-0.009959, 0.006639, 0.001694, 0.039651,1,-0.000343, 0.000198,-0.000089,1,-0.113363, 0.029936, 9.805949,1,0
1777931641233,   788.148,   788.143, 0.012032,-0.002678,-0.994882, 0.000121,-0.000028,-0.009953, 0.004514, 0.003677, 0.049488,1, 0.000429, 0.000229,-0.000621,1,-0.113485, 0.029955, 9.805947,1,0
1777931641244,   788.148,   788.143, 0.012032,-0.002678,-0.994882, 0.000121,-0.000028,-0.009953, 0.004514, 0.003677, 0.049488,1, 0.000429, 0.000229,-0.000621,1,-0.113485, 0.029955, 9.805947,1,0
1777931641260,   788.173,   788.168, 0.011823,-0.003554,-0.995860, 0.000117,-0.000035,-0.009965, 0.003606, 0.001700, 0.042632,1,-0.000062, 0.001111,-0.000150,1,-0.113585, 0.029946, 9.805946,1,0
1777931641270,   788.173,   788.168, 0.011823,-0.003554,-0.995860, 0.000117,-0.000035,-0.009965, 0.003606, 0.001700, 0.042632,1,-0.000062, 0.001111,-0.000150,1,-0.113585, 0.029946, 9.805946,1,0
1777931641283,   788.193,   788.193, 0.011536,-0.003760,-0.995780, 0.000114,-0.000037,-0.009960,-0.000516,-0.006924, 0.040683,1,-0.001453, 0.000260, 0.000120,1,-0.113655, 0.029902, 9.805945,1,0
1777931641293,   788.193,   788.193, 0.011536,-0.003760,-0.995780, 0.000114,-0.000037,-0.009960,-0.000516,-0.006924, 0.040683,1,-0.001453, 0.000260, 0.000120,1,-0.113655, 0.029902, 9.805945,1,0
1777931641309,   788.218,   788.218, 0.011853,-0.003169,-0.995422, 0.000118,-0.000033,-0.009956, 0.002500,-0.001154, 0.044192,1, 0.000832, 0.000340, 0.000366,1,-0.113751, 0.029944, 9.805944,1,0
1777931641319,   788.218,   788.218, 0.011853,-0.003169,-0.995422, 0.000118,-0.000033,-0.009956, 0.002500,-0.001154, 0.044192,1, 0.000832, 0.000340, 0.000366,1,-0.113751, 0.029944, 9.805944,1,0
1777931641331,   788.243,   788.238, 0.012650,-0.002528,-0.995255, 0.000125,-0.000026,-0.009958, 0.008346, 0.005792, 0.041265,1, 0.000524, 0.000586,-0.000173,1,-0.113783, 0.029874, 9.805944,1,0
1777931641341,   788.243,   788.238, 0.012650,-0.002528,-0.995255, 0.000125,-0.000026,-0.009958, 0.008346, 0.005792, 0.041265,1, 0.000524, 0.000586,-0.000173,1,-0.113783, 0.029874, 9.805944,1,0
1777931641359,   788.268,   788.268, 0.012074,-0.003131,-0.994913, 0.000119,-0.000032,-0.009953, 0.004617,-0.000820, 0.049183,1, 0.000387,-0.000481, 0.000377,1,-0.113778, 0.029897, 9.805944,1,0
1777931641369,   788.268,   788.268, 0.012074,-0.003131,-0.994913, 0.000119,-0.000032,-0.009953, 0.004617,-0.000820, 0.049183,1, 0.000387,-0.000481, 0.000377,1,-0.113778, 0.029897, 9.805944,1,0
1777931641381,   788.293,   788.288, 0.011984,-0.003089,-0.995768, 0.000118,-0.000030,-0.009960,-0.001282,-0.007332, 0.036308,1,-0.000467,-0.000341,-0.000092,1,-0.113752, 0.029874, 9.805944,1,0
1777931641391,   788.293,   788.288, 0.011984,-0.003089,-0.995768, 0.000118,-0.000030,-0.009960,-0.001282,-0.007332, 0.036308,1,-0.000467,-0.000341,-0.000092,1,-0.113752, 0.029874, 9.805944,1,0
1777931641408,   788.318,   788.318, 0.011639,-0.002636,-0.995978, 0.000117,-0.000029,-0.009963, 0.000376, 0.003942, 0.038732,1,-0.000179,-0.000186, 0.000165,1,-0.113757, 0.029790, 9.805945,1,0
1777931641419,   788.318,   788.318, 0.011639,-0.002636,-0.995978, 0.000117,-0.000029,-0.009963, 0.000376, 0.003942, 0.038732,1,-0.000179,-0.000186, 0.000165,1,-0.113757, 0.029790, 9.805945,1,0
1777931641431,   788.343,   788.338, 0.011803,-0.002842,-0.996310, 0.000118,-0.000028,-0.009966, 0.000860, 0.000328, 0.046189,1, 0.000087, 0.000089,-0.000104,1,-0.113817, 0.029810, 9.805944,1,0
1777931641441,   788.343,   788.338, 0.011803,-0.002842,-0.996310, 0.000118,-0.000028,-0.009966, 0.000860, 0.000328, 0.046189,1, 0.000087, 0.000089,-0.000104,1,-0.113817, 0.029810, 9.805944,1,0
1777931641454,   788.368,   788.368, 0.012158,-0.002846,-0.996130, 0.000121,-0.000029,-0.009969, 0.005376, 0.001857, 0.037248,1,-0.000952,-0.000464,-0.000233,1,-0.113843, 0.029734, 9.805944,1,1
1777931641464,   788.368,   788.368, 0.012158,-0.002846,-0.996130, 0.000121,-0.000029,-0.009969, 0.005376, 0.001857, 0.037248,1,-0.000952,-0.000464,-0.000233,1,-0.113843, 0.029734, 9.805944,1,1
1777931641480,   788.393,   788.388, 0.011838,-0.002864,-0.996371, 0.000115,-0.000031,-0.009960, 0.003309,-0.006354, 0.043307,1, 0.000388,-0.000103,-0.000531,1,-0.113874, 0.029769, 9.805943,1,1
1777931641490,   788.393,   788.388, 0.011838,-0.002864,-0.996371, 0.000115,-0.000031,-0.009960, 0.003309,-0.006354, 0.043307,1, 0.000388,-0.000103,-0.000531,1,-0.113874, 0.029769, 9.805943,1,1
1777931641504,   788.418,   788.413, 0.011838,-0.003336,-0.996441, 0.000119,-0.000032,-0.009968, 0.002184,-0.002869, 0.034189,1, 0.000819, 0.000011,-0.000202,1,-0.113908, 0.029869, 9.805943,1,1
1777931641514,   788.418,   788.413, 0.011838,-0.003336,-0.996441, 0.000119,-0.000032,-0.009968, 0.002184,-0.002869, 0.034189,1, 0.000819, 0.000011,-0.000202,1,-0.113908, 0.029869, 9.805943,1,1
1777931641530,   788.443,   788.438, 0.011908,-0.002471,-0.996297, 0.000120,-0.000026,-0.009958,-0.000720,-0.004317, 0.039502,1, 0.000909, 0.001151,-0.000147,1,-0.114049, 0.029908, 9.805942,1,1
1777931641540,   788.443,   788.438, 0.011908,-0.002471,-0.996297, 0.000120,-0.000026,-0.009958,-0.000720,-0.004317, 0.039502,1, 0.000909, 0.001151,-0.000147,1,-0.114049, 0.029908, 9.805942,1,1
1777931641553,   788.463,   788.463, 0.011790,-0.003013,-0.995942, 0.000118,-0.000029,-0.009957, 0.001571, 0.000360, 0.039085,1,-0.000293,-0.000339, 0.000114,1,-0.114038, 0.029898, 9.805942,1,1
1777931641563,   788.463,   788.463, 0.011790,-0.003013,-0.995942, 0.000118,-0.000029,-0.009957, 0.001571, 0.000360, 0.039085,1,-0.000293,-0.000339, 0.000114,1,-0.114038, 0.029898, 9.805942,1,1
1777931641579,   788.488,   788.488, 0.011767,-0.003636,-0.996570, 0.000117,-0.000037,-0.009968, 0.001369,-0.005757, 0.032932,1, 0.000725,-0.000244, 0.000004,1,-0.114021, 0.029925, 9.805942,1,1
1777931641589,   788.488,   788.488, 0.011767,-0.003636,-0.996570, 0.000117,-0.000037,-0.009968, 0.001369,-0.005757, 0.032932,1, 0.000725,-0.000244, 0.000004,1,-0.114021, 0.029925, 9.805942,1,1
1777931641601,   788.513,   788.508, 0.012546,-0.003254,-0.996505, 0.000124,-0.000034,-0.009959, 0.005719,-0.007427, 0.039666,1,-0.000075,-0.000582, 0.000000,1,-0.114042, 0.029830, 9.805942,1,1
1777931641611,   788.513,   788.508, 0.012546,-0.003254,-0.996505, 0.000124,-0.000034,-0.009959, 0.005719,-0.007427, 0.039666,1,-0.000075,-0.000582, 0.000000,1,-0.114042, 0.029830, 9.805942,1,1
1777931641629,   788.538,   788.538, 0.012836,-0.001887,-0.996453, 0.000128,-0.000019,-0.009966, 0.011816, 0.011356, 0.034078,1, 0.000758, 0.000291, 0.000139,1,-0.114107, 0.029904, 9.805941,1,1
1777931641639,   788.538,   788.538, 0.012836,-0.001887,-0.996453, 0.000128,-0.000019,-0.009966, 0.011816, 0.011356, 0.034078,1, 0.000758, 0.000291, 0.000139,1,-0.114107, 0.029904, 9.805941,1,1
1777931641651,   788.563,   788.558, 0.011847,-0.003001,-0.995686, 0.000119,-0.000030,-0.009952, 0.006251, 0.002036, 0.039863,1,-0.000218, 0.000133, 0.000371,1,-0.114159, 0.029837, 9.805940,1,1
1777931641661,   788.563,   788.558, 0.011847,-0.003001,-0.995686, 0.000119,-0.000030,-0.009952, 0.006251, 0.002036, 0.039863,1,-0.000218, 0.000133, 0.000371,1,-0.114159, 0.029837, 9.805940,1,1
1777931641679,   788.588,   788.588, 0.011837,-0.003599,-0.996503, 0.000117,-0.000035,-0.009965, 0.001863,-0.005510, 0.033586,1,-0.000889,-0.000047, 0.000242,1,-0.114221, 0.029760, 9.805940,1,1
1777931641689,   788.588,   788.588, 0.011837,-0.003599,-0.996503, 0.000117,-0.000035,-0.009965, 0.001863,-0.005510, 0.033586,1,-0.000889,-0.000047, 0.000242,1,-0.114221, 0.029760, 9.805940,1,1
1777931641701,   788.613,   788.608, 0.011560,-0.002891,-0.995783, 0.000113,-0.000031,-0.009954,-0.001994,-0.005320, 0.033528,1, 0.000379,-0.000231,-0.000475,1,-0.114219, 0.029767, 9.805940,1,1
1777931641711,   788.613,   788.608, 0.011560,-0.002891,-0.995783, 0.000113,-0.000031,-0.009954,-0.001994,-0.005320, 0.033528,1, 0.000379,-0.000231,-0.000475,1,-0.114219, 0.029767, 9.805940,1,1
1777931641728,   788.638,   788.638, 0.011440,-0.002894,-0.996024, 0.000113,-0.000028,-0.009960,-0.002025, 0.001381, 0.038278,1, 0.000207,-0.000152, 0.000525,1,-0.114206, 0.029771, 9.805940,1,1
1777931641738,   788.638,   788.638, 0.011440,-0.002894,-0.996024, 0.000113,-0.000028,-0.009960,-0.002025, 0.001381, 0.038278,1, 0.000207,-0.000152, 0.000525,1,-0.114206, 0.029771, 9.805940,1,1
1777931641750,   788.663,   788.658, 0.011980,-0.002885,-0.995512, 0.000121,-0.000030,-0.009950, 0.007682, 0.002245, 0.031574,1, 0.000325, 0.000682, 0.000102,1,-0.114243, 0.029761, 9.805940,1,1
1777931641760,   788.663,   788.658, 0.011980,-0.002885,-0.995512, 0.000121,-0.000030,-0.009950, 0.007682, 0.002245, 0.031574,1, 0.000325, 0.000682, 0.000102,1,-0.114243, 0.029761, 9.805940,1,1
1777931641774,   788.688,   788.683, 0.012738,-0.003142,-0.995742, 0.000127,-0.000031,-0.009953, 0.010528,-0.001071, 0.041047,1, 0.000672, 0.000412, 0.000092,1,-0.114398, 0.029759, 9.805938,1,1
1777931641784,   788.688,   788.683, 0.012738,-0.003142,-0.995742, 0.000127,-0.000031,-0.009953, 0.010528,-0.001071, 0.041047,1, 0.000672, 0.000412, 0.000092,1,-0.114398, 0.029759, 9.805938,1,1
1777931641801,   788.713,   788.708, 0.011404,-0.003517,-0.995933, 0.000116,-0.000035,-0.009959, 0.004217,-0.001203, 0.032371,1,-0.000437, 0.000380,-0.000558,1,-0.114359, 0.029750, 9.805938,1,1
1777931641811,   788.713,   788.708, 0.011404,-0.003517,-0.995933, 0.000116,-0.000035,-0.009959, 0.004217,-0.001203, 0.032371,1,-0.000437, 0.000380,-0.000558,1,-0.114359, 0.029750, 9.805938,1,1
1777931641823,   788.733,   788.733, 0.011030,-0.003731,-0.995376, 0.000111,-0.000038,-0.009950,-0.006171,-0.006799, 0.044633,1, 0.000721,-0.000041, 0.000038,1,-0.114366, 0.029815, 9.805938,1,1
1777931641833,   788.733,   788.733, 0.011030,-0.003731,-0.995376, 0.000111,-0.000038,-0.009950,-0.006171,-0.006799, 0.044633,1, 0.000721,-0.000041, 0.000038,1,-0.114366, 0.029815, 9.805938,1,1
1777931641849,   788.758,   788.758, 0.012892,-0.001088,-0.997355, 0.000127,-0.000008,-0.009965, 0.012056, 0.019187, 0.025226,1, 0.000404,-0.000288, 0.000455,1,-0.114359, 0.029871, 9.805938,1,1
1777931641859,   788.758,   788.758, 0.012892,-0.001088,-0.997355, 0.000127,-0.000008,-0.009965, 0.012056, 0.019187, 0.025226,1, 0.000404,-0.000288, 0.000455,1,-0.114359, 0.029871, 9.805938,1,1
1777931641871,   788.783,   788.778, 0.012035,-0.003943,-0.996062, 0.000116,-0.000038,-0.009950, 0.008421, 0.012044, 0.030920,1,-0.000216, 0.000375,-0.001043,1,-0.114368, 0.029885, 9.805938,1,1
1777931641881,   788.783,   788.778, 0.012035,-0.003943,-0.996062, 0.000116,-0.000038,-0.009950, 0.008421, 0.012044, 0.030920,1,-0.000216, 0.000375,-0.001043,1,-0.114368, 0.029885, 9.805938,1,1
1777931641899,   788.808,   788.808, 0.010772,-0.006002,-0.994907, 0.000111,-0.000064,-0.009949,-0.008690,-0.029051, 0.049231,1,-0.000832,-0.000138, 0.000855,1,-0.114320, 0.029784, 9.805939,1,1
1777931641909,   788.808,   788.808, 0.010772,-0.006002,-0.994907, 0.000111,-0.000064,-0.009949,-0.008690,-0.029051, 0.049231,1,-0.000832,-0.000138, 0.000855,1,-0.114320, 0.029784, 9.805939,1,1
1777931641921,   788.833,   788.828, 0.011840,-0.002033,-0.995493, 0.000122,-0.000019,-0.009965, 0.002802, 0.004843, 0.032516,1,-0.000421,-0.000195, 0.001790,1,-0.114339, 0.029736, 9.805939,1,1
1777931641931,   788.833,   788.828, 0.011840,-0.002033,-0.995493, 0.000122,-0.000019,-0.009965, 0.002802, 0.004843, 0.032516,1,-0.000421,-0.000195, 0.001790,1,-0.114339, 0.029736, 9.805939,1,1
1777931641949,   788.858,   788.858, 0.011920,-0.002652,-0.995061, 0.000122,-0.000029,-0.009944, 0.002658, 0.003830, 0.047723,1, 0.000961,-0.000117, 0.001184,1,-0.114231, 0.029864, 9.805940,1,1
1777931641959,   788.858,   788.858, 0.011920,-0.002652,-0.995061, 0.000122,-0.000029,-0.009944, 0.002658, 0.003830, 0.047723,1, 0.000961,-0.000117, 0.001184,1,-0.114231, 0.029864, 9.805940,1,1
1777931641971,   788.883,   788.878, 0.012243,-0.002399,-0.994279, 0.000122,-0.000022,-0.009948, 0.000657, 0.017338, 0.035633,1, 0.000150,-0.000724,-0.000775,1,-0.114158, 0.029813, 9.805941,1,1
1777931641981,   788.883,   788.878, 0.012243,-0.002399,-0.994279, 0.000122,-0.000022,-0.009948, 0.000657, 0.017338, 0.035633,1, 0.000150,-0.000724,-0.000775,1,-0.114158, 0.029813, 9.805941,1,1
1777931641998,   788.908,   788.908, 0.011997,-0.002697,-0.994886, 0.000120,-0.000024,-0.009954, 0.003531, 0.003343, 0.049438,1, 0.000966,-0.000265, 0.000030,1,-0.114107, 0.029819, 9.805941,1,1
1777931642008,   788.908,   788.908, 0.011997,-0.002697,-0.994886, 0.000120,-0.000024,-0.009954, 0.003531, 0.003343, 0.049438,1, 0.000966,-0.000265, 0.000030,1,-0.114107, 0.029819, 9.805941,1,1
1777931642020,   788.933,   788.928, 0.010814,-0.005232,-0.994995, 0.000111,-0.000054,-0.009953, 0.001986,-0.022123, 0.042778,1, 0.000324,-0.000080,-0.000015,1,-0.114014, 0.029896, 9.805942,1,1
1777931642030,   788.933,   788.928, 0.010814,-0.005232,-0.994995, 0.000111,-0.000054,-0.009953, 0.001986,-0.022123, 0.042778,1, 0.000324,-0.000080,-0.000015,1,-0.114014, 0.029896, 9.805942,1,1
1777931642044,   788.958,   788.953, 0.011911,-0.003330,-0.995012, 0.000118,-0.000036,-0.009954, 0.002818,-0.002873, 0.048210,1, 0.000478, 0.000362, 0.000417,1,-0.114003, 0.029796, 9.805943,1,1
1777931642054,   788.958,   788.953, 0.011911,-0.003330,-0.995012, 0.000118,-0.000036,-0.009954, 0.002818,-0.002873, 0.048210,1, 0.000478, 0.000362, 0.000417,1,-0.114003, 0.029796, 9.805943,1,1
1777931642070,   788.983,   788.978, 0.013108,-0.000958,-0.995331, 0.000130,-0.000010,-0.009954, 0.010503, 0.012030, 0.048225,1,-0.000169,-0.000091, 0.000013,1,-0.113923, 0.029811, 9.805943,1,1
1777931642080,   788.983,   788.978, 0.013108,-0.000958,-0.995331, 0.000130,-0.000010,-0.009954, 0.010503, 0.012030, 0.048225,1,-0.000169,-0.000091, 0.000013,1,-0.113923, 0.029811, 9.805943,1,1
1777931642093,   789.003,   789.003, 0.012391,-0.002534,-0.995534, 0.000125,-0.000024,-0.009958, 0.007581, 0.005033, 0.043090,1, 0.000490, 0.000235,-0.000640,1,-0.113945, 0.029900, 9.805943,1,1
1777931642103,   789.003,   789.003, 0.012391,-0.002534,-0.995534, 0.000125,-0.000024,-0.009958, 0.007581, 0.005033, 0.043090,1, 0.000490, 0.000235,-0.000640,1,-0.113945, 0.029900, 9.805943,1,1
1777931642119,   789.028,   789.028, 0.012573,-0.003307,-0.996272, 0.000128,-0.000033,-0.009964, 0.009412,-0.002553, 0.035855,1,-0.000264, 0.000315,-0.000081,1,-0.113899, 0.029868, 9.805943,1,1
1777931642129,   789.028,   789.028, 0.012573,-0.003307,-0.996272, 0.000128,-0.000033,-0.009964, 0.009412,-0.002553, 0.035855,1,-0.000264, 0.000315,-0.000081,1,-0.113899, 0.029868, 9.805943,1,1
1777931642141,   789.053,   789.048, 0.011225,-0.003600,-0.996764, 0.000112,-0.000039,-0.009970, 0.000764,-0.010302, 0.040281,1,-0.000138,-0.000045, 0.000583,1,-0.113880, 0.029889, 9.805943,1,1
1777931642151,   789.053,   789.048, 0.011225,-0.003600,-0.996764, 0.000112,-0.000039,-0.009970, 0.000764,-0.010302, 0.040281,1,-0.000138,-0.000045, 0.000583,1,-0.113880, 0.029889, 9.805943,1,1
1777931642169,   789.078,   789.078, 0.011428,-0.003398,-0.995569, 0.000115,-0.000034,-0.009961,-0.001708,-0.003358, 0.042744,1, 0.000028,-0.000302, 0.000162,1,-0.113765, 0.029966, 9.805944,1,1
1777931642179,   789.078,   789.078, 0.011428,-0.003398,-0.995569, 0.000115,-0.000034,-0.009961,-0.001708,-0.003358, 0.042744,1, 0.000028,-0.000302, 0.000162,1,-0.113765, 0.029966, 9.805944,1,1
1777931642191,   789.103,   789.098, 0.011938,-0.002665,-0.996109, 0.000119,-0.000025,-0.009960,-0.004256, 0.005514, 0.046256,1,-0.000740,-0.000119, 0.000099,1,-0.113778, 0.029939, 9.805944,1,1
1777931642201,   789.103,   789.098, 0.011938,-0.002665,-0.996109, 0.000119,-0.000025,-0.009960,-0.004256, 0.005514, 0.046256,1,-0.000740,-0.000119, 0.000099,1,-0.113778, 0.029939, 9.805944,1,1
1777931642219,   789.128,   789.128, 0.012483,-0.001744,-0.996037, 0.000125,-0.000017,-0.009962, 0.008663, 0.012777, 0.038154,1,-0.000091,-0.000363,-0.000156,1,-0.113743, 0.029881, 9.805944,1,1
1777931642229,   789.128,   789.128, 0.012483,-0.001744,-0.996037, 0.000125,-0.000017,-0.009962, 0.008663, 0.012777, 0.038154,1,-0.000091,-0.000363,-0.000156,1,-0.113743, 0.029881, 9.805944,1,1
1777931642241,   789.153,   789.148, 0.012124,-0.003821,-0.996900, 0.000119,-0.000038,-0.009963, 0.001773,-0.005504, 0.051029,1, 0.000090,-0.000288,-0.000204,1,-0.113884, 0.029940, 9.805943,1,1
1777931642251,   789.153,   789.148, 0.012124,-0.003821,-0.996900, 0.000119,-0.000038,-0.009963, 0.001773,-0.005504, 0.051029,1, 0.000090,-0.000288,-0.000204,1,-0.113884, 0.029940, 9.805943,1,1
1777931642268,   789.178,   789.178, 0.012454,-0.003851,-0.996419, 0.000125,-0.000036,-0.009968, 0.008218,-0.007888, 0.034407,1,-0.000546,-0.000226, 0.000275,1,-0.113908, 0.029857, 9.805943,1,1
1777931642278,   789.178,   789.178, 0.012454,-0.003851,-0.996419, 0.000125,-0.000036,-0.009968, 0.008218,-0.007888, 0.034407,1,-0.000546,-0.000226, 0.000275,1,-0.113908, 0.029857, 9.805943,1,1
1777931642290,   789.203,   789.198, 0.011529,-0.003052,-0.996815, 0.000117,-0.000031,-0.009962, 0.002330,-0.014866, 0.040983,1,-0.000387,-0.000131, 0.000777,1,-0.113838, 0.029847, 9.805943,1,1
1777931642300,   789.203,   789.198, 0.011529,-0.003052,-0.996815, 0.000117,-0.000031,-0.009962, 0.002330,-0.014866, 0.040983,1,-0.000387,-0.000131, 0.000777,1,-0.113838, 0.029847, 9.805943,1,1
1777931642314,   789.228,   789.223, 0.011601,-0.002044,-0.996223, 0.000115,-0.000018,-0.009964,-0.000122, 0.009842, 0.036331,1, 0.000636,-0.000200, 0.000143,1,-0.113886, 0.029903, 9.805943,1,1
1777931642324,   789.228,   789.223, 0.011601,-0.002044,-0.996223, 0.000115,-0.000018,-0.009964,-0.000122, 0.009842, 0.036331,1, 0.000636,-0.000200, 0.000143,1,-0.113886, 0.029903, 9.805943,1,1
1777931642340,   789.253,   789.248, 0.011833,-0.000888,-0.996318, 0.000117,-0.000012,-0.009959,-0.000616, 0.009780, 0.044842,1,-0.000776,-0.000234,-0.000207,1,-0.113954, 0.029849, 9.805943,1,1
1777931642350,   789.253,   789.248, 0.011833,-0.000888,-0.996318, 0.000117,-0.000012,-0.009959,-0.000616, 0.009780, 0.044842,1,-0.000776,-0.000234,-0.000207,1,-0.113954, 0.029849, 9.805943,1,1
1777931642363,   789.273,   789.273, 0.012149,-0.002865,-0.996621, 0.000122,-0.000024,-0.009966, 0.005219, 0.001851, 0.032428,1, 0.000899,-0.000064,-0.000278,1,-0.113916, 0.029978, 9.805943,1,1
1777931642373,   789.273,   789.273, 0.012149,-0.002865,-0.996621, 0.000122,-0.000024,-0.009966, 0.005219, 0.001851, 0.032428,1, 0.000899,-0.000064,-0.000278,1,-0.113916, 0.029978, 9.805943,1,1
1777931642389,   789.298,   789.298, 0.010922,-0.004596,-0.995912, 0.000109,-0.000044,-0.009963,-0.006769,-0.015058, 0.039386,1, 0.000151, 0.000199,-0.000396,1,-0.113881, 0.030014, 9.805943,1,1
1777931642400,   789.298,   789.298, 0.010922,-0.004596,-0.995912, 0.000109,-0.000044,-0.009963,-0.006769,-0.015058, 0.039386,1, 0.000151, 0.000199,-0.000396,1,-0.113881, 0.030014, 9.805943,1,1
1777931642411,   789.323,   789.318, 0.011422,-0.003982,-0.996400, 0.000115,-0.000042,-0.009956,-0.002367,-0.020990, 0.044590,1,-0.000276,-0.000077, 0.000019,1,-0.113897, 0.030027, 9.805943,1,1
1777931642422,   789.323,   789.318, 0.011422,-0.003982,-0.996400, 0.000115,-0.000042,-0.009956,-0.002367,-0.020990, 0.044590,1,-0.000276,-0.000077, 0.000019,1,-0.113897, 0.030027, 9.805943,1,1
1777931642439,   789.348,   789.348, 0.011761,-0.002464,-0.996676, 0.000119,-0.000025,-0.009963, 0.001275, 0.005936, 0.031890,1, 0.000290,-0.000054, 0.000549,1,-0.114065, 0.030109, 9.805941,1,1
1777931642449,   789.348,   789.348, 0.011761,-0.002464,-0.996676, 0.000119,-0.000025,-0.009963, 0.001275, 0.005936, 0.031890,1, 0.000290,-0.000054, 0.000549,1,-0.114065, 0.030109, 9.805941,1,1
1777931642461,   789.373,   789.368, 0.012153,-0.001861,-0.996077, 0.000121,-0.000018,-0.009954, 0.007838, 0.011202, 0.044452,1,-0.000004, 0.000055, 0.000175,1,-0.114056, 0.030210, 9.805941,1,1
1777931642471,   789.373,   789.368, 0.012153,-0.001861,-0.996077, 0.000121,-0.000018,-0.009954, 0.007838, 0.011202, 0.044452,1,-0.000004, 0.000055, 0.000175,1,-0.114056, 0.030210, 9.805941,1,1
1777931642489,   789.398,   789.398, 0.012341,-0.002589,-0.996634, 0.000124,-0.000024,-0.009959, 0.006975, 0.004864, 0.032294,1,-0.000304,-0.000058,-0.000083,1,-0.114044, 0.030240, 9.805941,1,1
1777931642499,   789.398,   789.398, 0.012341,-0.002589,-0.996634, 0.000124,-0.000024,-0.009959, 0.006975, 0.004864, 0.032294,1,-0.000304,-0.000058,-0.000083,1,-0.114044, 0.030240, 9.805941,1,1
1777931642511,   789.423,   789.418, 0.012325,-0.003918,-0.995750, 0.000122,-0.000040,-0.009949, 0.007841,-0.011212, 0.035192,1,-0.000428,-0.000467,-0.000446,1,-0.114077, 0.030198, 9.805940,1,1
1777931642521,   789.423,   789.418, 0.012325,-0.003918,-0.995750, 0.000122,-0.000040,-0.009949, 0.007841,-0.011212, 0.035192,1,-0.000428,-0.000467,-0.000446,1,-0.114077, 0.030198, 9.805940,1,1
1777931642538,   789.448,   789.448, 0.012413,-0.004083,-0.996572, 0.000126,-0.000040,-0.009960, 0.007649,-0.009772, 0.032905,1,-0.000182,-0.000097, 0.000821,1,-0.114076, 0.030268, 9.805940,1,1
1777931642548,   789.448,   789.448, 0.012413,-0.004083,-0.996572, 0.000126,-0.000040,-0.009960, 0.007649,-0.009772, 0.032905,1,-0.000182,-0.000097, 0.000821,1,-0.114076, 0.030268, 9.805940,1,1
1777931642560,   789.473,   789.468, 0.011511,-0.002667,-0.994913, 0.000115,-0.000028,-0.009950, 0.000089, 0.004341, 0.035366,1,-0.000203, 0.000528, 0.000471,1,-0.114043, 0.030322, 9.805940,1,1
1777931642570,   789.473,   789.468, 0.011511,-0.002667,-0.994913, 0.000115,-0.000028,-0.009950, 0.000089, 0.004341, 0.035366,1,-0.000203, 0.000528, 0.000471,1,-0.114043, 0.030322, 9.805940,1,1
1777931642584,   789.498,   789.493, 0.011541,-0.001797,-0.995764, 0.000114,-0.000021,-0.009951,-0.000782, 0.012676, 0.040835,1,-0.000679,-0.000286, 0.000430,1,-0.113950, 0.030273, 9.805942,1,1
1777931642594,   789.498,   789.493, 0.011541,-0.001797,-0.995764, 0.000114,-0.000021,-0.009951,-0.000782, 0.012676, 0.040835,1,-0.000679,-0.000286, 0.000430,1,-0.113950, 0.030273, 9.805942,1,1
1777931642610,   789.523,   789.518, 0.011539,-0.002337,-0.994754, 0.000116,-0.000023,-0.009951, 0.001649, 0.010354, 0.035354,1, 0.000150,-0.000099, 0.000186,1,-0.113979, 0.030275, 9.805941,1,1
1777931642620,   789.523,   789.518, 0.011539,-0.002337,-0.994754, 0.000116,-0.000023,-0.009951, 0.001649, 0.010354, 0.035354,1, 0.000150,-0.000099, 0.000186,1,-0.113979, 0.030275, 9.805941,1,1
1777931642633,   789.543,   789.543, 0.012186,-0.004217,-0.995454, 0.000120,-0.000040,-0.009953, 0.005497,-0.011063, 0.043868,1,-0.000620,-0.000196,-0.000585,1,-0.113998, 0.030275, 9.805941,1,1
1777931642643,   789.543,   789.543, 0.012186,-0.004217,-0.995454, 0.000120,-0.000040,-0.009953, 0.005497,-0.011063, 0.043868,1,-0.000620,-0.000196,-0.000585,1,-0.113998, 0.030275, 9.805941,1,1
1777931642659,   789.568,   789.568, 0.012347,-0.003600,-0.996209, 0.000122,-0.000035,-0.009955, 0.007066,-0.005137, 0.036468,1,-0.000736, 0.000501, 0.000306,1,-0.114034, 0.030140, 9.805941,1,1
1777931642670,   789.568,   789.568, 0.012347,-0.003600,-0.996209, 0.000122,-0.000035,-0.009955, 0.007066,-0.005137, 0.036468,1,-0.000736, 0.000501, 0.000306,1,-0.114034, 0.030140, 9.805941,1,1
1777931642681,   789.593,   789.588, 0.012300,-0.003002,-0.995216, 0.000123,-0.000030,-0.009951, 0.009350,-0.008239, 0.031629,1,-0.000500, 0.000366, 0.000185,1,-0.114046, 0.030158, 9.805941,1,1
1777931642692,   789.593,   789.588, 0.012300,-0.003002,-0.995216, 0.000123,-0.000030,-0.009951, 0.009350,-0.008239, 0.031629,1,-0.000500, 0.000366, 0.000185,1,-0.114046, 0.030158, 9.805941,1,1
1777931642710,   789.618,   789.618, 0.012116,-0.002622,-0.995024, 0.000121,-0.000025,-0.009947, 0.004744, 0.004511, 0.048091,1, 0.000079,-0.000560, 0.000591,1,-0.114061, 0.030231, 9.805940,1,1
1777931642720,   789.618,   789.618, 0.012116,-0.002622,-0.995024, 0.000121,-0.000025,-0.009947, 0.004744, 0.004511, 0.048091,1, 0.000079,-0.000560, 0.000591,1,-0.114061, 0.030231, 9.805940,1,1
1777931642731,   789.643,   789.638, 0.012138,-0.002715,-0.995384, 0.000122,-0.000029,-0.009953, 0.002287, 0.003896, 0.035695,1, 0.000337, 0.000670, 0.000554,1,-0.114087, 0.030212, 9.805940,1,1
1777931642741,   789.643,   789.638, 0.012138,-0.002715,-0.995384, 0.000122,-0.000029,-0.009953, 0.002287, 0.003896, 0.035695,1, 0.000337, 0.000670, 0.000554,1,-0.114087, 0.030212, 9.805940,1,1
1777931642759,   789.668,   789.668, 0.011469,-0.002982,-0.995542, 0.000117,-0.000029,-0.009953,-0.001573, 0.000941, 0.043009,1, 0.000339,-0.000493,-0.000155,1,-0.114028, 0.030197, 9.805941,1,1
1777931642769,   789.668,   789.668, 0.011469,-0.002982,-0.995542, 0.000117,-0.000029,-0.009953,-0.001573, 0.000941, 0.043009,1, 0.000339,-0.000493,-0.000155,1,-0.114028, 0.030197, 9.805941,1,1
1777931642781,   789.693,   789.688, 0.011871,-0.003994,-0.995441, 0.000121,-0.000038,-0.009958, 0.000645,-0.006217, 0.038325,1, 0.000279, 0.000243, 0.000207,1,-0.113926, 0.030159, 9.805942,1,1
1777931642791,   789.693,   789.688, 0.011871,-0.003994,-0.995441, 0.000121,-0.000038,-0.009958, 0.000645,-0.006217, 0.038325,1, 0.000279, 0.000243, 0.000207,1,-0.113926, 0.030159, 9.805942,1,1
1777931642808,   789.718,   789.718, 0.011957,-0.003236,-0.995745, 0.000117,-0.000034,-0.009956, 0.003313,-0.001529, 0.041018,1, 0.000458,-0.000112,-0.000088,1,-0.113938, 0.030222, 9.805942,1,1
1777931642818,   789.718,   789.718, 0.011957,-0.003236,-0.995745, 0.000117,-0.000034,-0.009956, 0.003313,-0.001529, 0.041018,1, 0.000458,-0.000112,-0.000088,1,-0.113938, 0.030222, 9.805942,1,1
1777931642830,   789.743,   789.738, 0.012328,-0.002563,-0.996182, 0.000123,-0.000025,-0.009964, 0.009557, 0.004748, 0.039319,1,-0.000015,-0.000235, 0.000048,1,-0.114029, 0.030321, 9.805941,1,1
1777931642840,   789.743,   789.738, 0.012328,-0.002563,-0.996182, 0.000123,-0.000025,-0.009964, 0.009557, 0.004748, 0.039319,1,-0.000015,-0.000235, 0.000048,1,-0.114029, 0.030321, 9.805941,1,1
1777931642854,   789.768,   789.763, 0.011741,-0.002563,-0.995707, 0.000118,-0.000025,-0.009964, 0.001110, 0.005208, 0.041389,1, 0.000776,-0.000098,-0.000341,1,-0.114027, 0.030369, 9.805940,1,1
1777931642864,   789.768,   789.763, 0.011741,-0.002563,-0.995707, 0.000118,-0.000025,-0.009964, 0.001110, 0.005208, 0.041389,1, 0.000776,-0.000098,-0.000341,1,-0.114027, 0.030369, 9.805940,1,1
1777931642880,   789.793,   789.788, 0.011622,-0.002472,-0.996650, 0.000117,-0.000024,-0.009969, 0.002318, 0.001600, 0.048163,1,-0.000539,-0.000179,-0.000193,1,-0.114011, 0.030407, 9.805940,1,1
1777931642890,   789.793,   789.788, 0.011622,-0.002472,-0.996650, 0.000117,-0.000024,-0.009969, 0.002318, 0.001600, 0.048163,1,-0.000539,-0.000179,-0.000193,1,-0.114011, 0.030407, 9.805940,1,1
1777931642903,   789.813,   789.813, 0.011639,-0.002949,-0.995930, 0.000119,-0.000028,-0.009963, 0.000142, 0.001559, 0.039204,1, 0.000370,-0.000101,-0.000773,1,-0.113995, 0.030487, 9.805940,1,1
1777931642913,   789.813,   789.813, 0.011639,-0.002949,-0.995930, 0.000119,-0.000028,-0.009963, 0.000142, 0.001559, 0.039204,1, 0.000370,-0.000101,-0.000773,1,-0.113995, 0.030487, 9.805940,1,1
1777931642930,   789.843,   789.838, 0.012084,-0.003481,-0.997589, 0.000118,-0.000038,-0.009975,-0.000836,-0.014070, 0.041905,1,-0.000390,-0.000317,-0.000331,1,-0.113965, 0.030458, 9.805941,1,1
1777931642940,   789.843,   789.838, 0.012084,-0.003481,-0.997589, 0.000118,-0.000038,-0.009975,-0.000836,-0.014070, 0.041905,1,-0.000390,-0.000317,-0.000331,1,-0.113965, 0.030458, 9.805941,1,1
1777931642952,   789.863,   789.858, 0.012260,-0.004369,-0.996451, 0.000121,-0.000039,-0.009968, 0.000529, 0.000982, 0.041041,1, 0.000440,-0.000379,-0.000132,1,-0.113910, 0.030485, 9.805941,1,1
1777931642962,   789.863,   789.858, 0.012260,-0.004369,-0.996451, 0.000121,-0.000039,-0.009968, 0.000529, 0.000982, 0.041041,1, 0.000440,-0.000379,-0.000132,1,-0.113910, 0.030485, 9.805941,1,1
1777931642979,   789.888,   789.888, 0.012436,-0.004235,-0.995861, 0.000127,-0.000044,-0.009964, 0.008120,-0.011040, 0.039885,1, 0.000051, 0.000511, 0.000724,1,-0.113854, 0.030495, 9.805942,1,1
1777931642989,   789.888,   789.888, 0.012436,-0.004235,-0.995861, 0.000127,-0.000044,-0.009964, 0.008120,-0.011040, 0.039885,1, 0.000051, 0.000511, 0.000724,1,-0.113854, 0.030495, 9.805942,1,1
1777931643001,   789.913,   789.908, 0.012132,-0.001617,-0.995968, 0.000120,-0.000014,-0.009963, 0.006036, 0.014452, 0.044910,1, 0.000052, 0.000136, 0.000154,1,-0.113841, 0.030492, 9.805942,1,1
1777931643011,   789.913,   789.908, 0.012132,-0.001617,-0.995968, 0.000120,-0.000014,-0.009963, 0.006036, 0.014452, 0.044910,1, 0.000052, 0.000136, 0.000154,1,-0.113841, 0.030492, 9.805942,1,1
1777931643029,   789.938,   789.938, 0.011476,-0.003005,-0.995493, 0.000114,-0.000029,-0.009961,-0.001316, 0.001036, 0.043490,1,-0.000060,-0.000352,-0.000381,1,-0.113888, 0.030496, 9.805942,1,1
1777931643039,   789.938,   789.938, 0.011476,-0.003005,-0.995493, 0.000114,-0.000029,-0.009961,-0.001316, 0.001036, 0.043490,1,-0.000060,-0.000352,-0.000381,1,-0.113888, 0.030496, 9.805942,1,1
1777931643051,   789.963,   789.958, 0.011754,-0.003462,-0.996372, 0.000118,-0.000037,-0.009961, 0.002250,-0.001919, 0.047668,1,-0.000014, 0.001051, 0.000138,1,-0.113949, 0.030554, 9.805941,1,1
1777931643061,   789.963,   789.958, 0.011754,-0.003462,-0.996372, 0.000118,-0.000037,-0.009961, 0.002250,-0.001919, 0.047668,1,-0.000014, 0.001051, 0.000138,1,-0.113949, 0.030554, 9.805941,1,1
1777931643078,   789.988,   789.988, 0.012307,-0.002843,-0.996779, 0.000128,-0.000025,-0.009972, 0.006627, 0.002521, 0.030875,1,-0.000310, 0.000429, 0.000276,1,-0.114072, 0.030396, 9.805940,1,1
1777931643088,   789.988,   789.988, 0.012307,-0.002843,-0.996779, 0.000128,-0.000025,-0.009972, 0.006627, 0.002521, 0.030875,1,-0.000310, 0.000429, 0.000276,1,-0.114072, 0.030396, 9.805940,1,1
1777931643100,   790.013,   790.008, 0.012397,-0.003749,-0.996912, 0.000123,-0.000036,-0.009962, 0.009752,-0.008071, 0.037957,1,-0.000059,-0.000296,-0.000062,1,-0.114048, 0.030386, 9.805940,1,1
1777931643111,   790.013,   790.008, 0.012397,-0.003749,-0.996912, 0.000123,-0.000036,-0.009962, 0.009752,-0.008071, 0.037957,1,-0.000059,-0.000296,-0.000062,1,-0.114048, 0.030386, 9.805940,1,1
1777931643124,   790.038,   790.033, 0.012001,-0.002829,-0.996398, 0.000117,-0.000029,-0.009966, 0.003712, 0.002598, 0.034616,1,-0.000229, 0.000402,-0.000103,1,-0.113987, 0.030338, 9.805941,1,1
1777931643134,   790.038,   790.033, 0.012001,-0.002829,-0.996398, 0.000117,-0.000029,-0.009966, 0.003712, 0.002598, 0.034616,1,-0.000229, 0.000402,-0.000103,1,-0.113987, 0.030338, 9.805941,1,1
1777931643150,   790.063,   790.058, 0.011269,-0.002841,-0.996466, 0.000112,-0.000025,-0.009960,-0.006971, 0.000591, 0.036496,1, 0.000679,-0.000412, 0.000043,1,-0.113938, 0.030344, 9.805942,1,1
1777931643160,   790.063,   790.058, 0.011269,-0.002841,-0.996466, 0.000112,-0.000025,-0.009960,-0.006971, 0.000591, 0.036496,1, 0.000679,-0.000412, 0.000043,1,-0.113938, 0.030344, 9.805942,1,1
1777931643173,   790.083,   790.083, 0.010890,-0.003372,-0.996824, 0.000109,-0.000031,-0.009964,-0.007324,-0.002641, 0.030431,1, 0.000926, 0.000002,-0.000143,1,-0.114121, 0.030452, 9.805939,1,1
1777931643184,   790.083,   790.083, 0.010890,-0.003372,-0.996824, 0.000109,-0.000031,-0.009964,-0.007324,-0.002641, 0.030431,1, 0.000926, 0.000002,-0.000143,1,-0.114121, 0.030452, 9.805939,1,1
1777931643200,   790.113,   790.108, 0.011598,-0.003277,-0.996679, 0.000115,-0.000033,-0.009960,-0.003115,-0.002784, 0.032984,1, 0.000746, 0.001278, 0.000534,1,-0.114244, 0.030589, 9.805937,1,1
1777931643210,   790.113,   790.108, 0.011598,-0.003277,-0.996679, 0.000115,-0.000033,-0.009960,-0.003115,-0.002784, 0.032984,1, 0.000746, 0.001278, 0.000534,1,-0.114244, 0.030589, 9.805937,1,1
1777931643222,   790.133,   790.128, 0.012750,-0.003791,-0.996642, 0.000126,-0.000035,-0.009960, 0.009496,-0.000971, 0.042949,1, 0.000429, 0.000288, 0.000701,1,-0.114339, 0.030626, 9.805936,1,1
1777931643232,   790.133,   790.128, 0.012750,-0.003791,-0.996642, 0.000126,-0.000035,-0.009960, 0.009496,-0.000971, 0.042949,1, 0.000429, 0.000288, 0.000701,1,-0.114339, 0.030626, 9.805936,1,1
1777931643249,   790.158,   790.158, 0.013213,-0.003478,-0.996227, 0.000131,-0.000035,-0.009962, 0.015241,-0.003446, 0.036281,1,-0.000052,-0.000390, 0.000860,1,-0.114326, 0.030659, 9.805936,1,1
1777931643259,   790.158,   790.158, 0.013213,-0.003478,-0.996227, 0.000131,-0.000035,-0.009962, 0.015241,-0.003446, 0.036281,1,-0.000052,-0.000390, 0.000860,1,-0.114326, 0.030659, 9.805936,1,1
1777931643271,   790.183,   790.178, 0.013102,-0.002094,-0.996042, 0.000130,-0.000022,-0.009958, 0.014782, 0.005811, 0.042508,1,-0.000374,-0.000199, 0.000726,1,-0.114358, 0.030610, 9.805936,1,1
1777931643281,   790.183,   790.178, 0.013102,-0.002094,-0.996042, 0.000130,-0.000022,-0.009958, 0.014782, 0.005811, 0.042508,1,-0.000374,-0.000199, 0.000726,1,-0.114358, 0.030610, 9.805936,1,1
1777931643299,   790.208,   790.208, 0.011798,-0.002981,-0.996402, 0.000117,-0.000030,-0.009961, 0.001202, 0.001445, 0.034566,1,-0.000013, 0.000496,-0.000030,1,-0.114512, 0.030677, 9.805933,1,1
1777931643309,   790.208,   790.208, 0.011798,-0.002981,-0.996402, 0.000117,-0.000030,-0.009961, 0.001202, 0.001445, 0.034566,1,-0.000013, 0.000496,-0.000030,1,-0.114512, 0.030677, 9.805933,1,1
1777931643321,   790.233,   790.228, 0.011193,-0.004007,-0.995825, 0.000109,-0.000038,-0.009955,-0.005029,-0.003102, 0.034705,1, 0.000318,-0.000293,-0.000156,1,-0.114484, 0.030596, 9.805934,1,1
1777931643331,   790.233,   790.228, 0.011193,-0.004007,-0.995825, 0.000109,-0.000038,-0.009955,-0.005029,-0.003102, 0.034705,1, 0.000318,-0.000293,-0.000156,1,-0.114484, 0.030596, 9.805934,1,1
1777931643348,   790.258,   790.258, 0.010086,-0.003375,-0.996481, 0.000102,-0.000036,-0.009960,-0.015677,-0.002605, 0.033796,1,-0.000330,-0.000147, 0.000070,1,-0.114583, 0.030483, 9.805933,1,1
1777931643359,   790.258,   790.258, 0.010086,-0.003375,-0.996481, 0.000102,-0.000036,-0.009960,-0.015677,-0.002605, 0.033796,1,-0.000330,-0.000147, 0.000070,1,-0.114583, 0.030483, 9.805933,1,1
1777931643370,   790.283,   790.278, 0.011786,-0.002965,-0.995833, 0.000116,-0.000030,-0.009956, 0.002389, 0.001494, 0.031717,1, 0.000461,-0.000204, 0.000111,1,-0.114615, 0.030474, 9.805933,1,1
1777931643381,   790.283,   790.278, 0.011786,-0.002965,-0.995833, 0.000116,-0.000030,-0.009956, 0.002389, 0.001494, 0.031717,1, 0.000461,-0.000204, 0.000111,1,-0.114615, 0.030474, 9.805933,1,1
1777931643394,   790.308,   790.303, 0.011731,-0.002162,-0.996158, 0.000119,-0.000020,-0.009955, 0.000298, 0.009305, 0.036952,1, 0.000022, 0.001032,-0.000009,1,-0.114777, 0.030513, 9.805931,1,1
1777931643404,   790.308,   790.303, 0.011731,-0.002162,-0.996158, 0.000119,-0.000020,-0.009955, 0.000298, 0.009305, 0.036952,1, 0.000022, 0.001032,-0.000009,1,-0.114777, 0.030513, 9.805931,1,1
1777931643420,   790.333,   790.328, 0.012871,-0.003677,-0.995344, 0.000128,-0.000037,-0.009956, 0.012237,-0.001709, 0.034528,1, 0.000360,-0.000093,-0.001089,1,-0.114778, 0.030499, 9.805931,1,1
1777931643430,   790.333,   790.328, 0.012871,-0.003677,-0.995344, 0.000128,-0.000037,-0.009956, 0.012237,-0.001709, 0.034528,1, 0.000360,-0.000093,-0.001089,1,-0.114778, 0.030499, 9.805931,1,1
1777931643444,   790.353,   790.353, 0.012613,-0.003673,-0.996049, 0.000128,-0.000036,-0.009958, 0.008932,-0.005530, 0.038028,1, 0.000169,-0.000872, 0.000045,1,-0.114735, 0.030492, 9.805931,1,1
1777931643454,   790.353,   790.353, 0.012613,-0.003673,-0.996049, 0.000128,-0.000036,-0.009958, 0.008932,-0.005530, 0.038028,1, 0.000169,-0.000872, 0.000045,1,-0.114735, 0.030492, 9.805931,1,1
1777931643470,   790.383,   790.378, 0.011420,-0.003801,-0.995740, 0.000116,-0.000039,-0.009960, 0.004274,-0.007675, 0.032923,1, 0.000060, 0.000457,-0.000190,1,-0.114818, 0.030598, 9.805930,1,1
1777931643480,   790.383,   790.378, 0.011420,-0.003801,-0.995740, 0.000116,-0.000039,-0.009960, 0.004274,-0.007675, 0.032923,1, 0.000060, 0.000457,-0.000190,1,-0.114818, 0.030598, 9.805930,1,1
1777931643492,   790.403,   790.403, 0.011580,-0.002795,-0.995673, 0.000116,-0.000030,-0.009956,-0.001315, 0.003236, 0.041714,1,-0.000159, 0.000612,-0.000068,1,-0.114900, 0.030641, 9.805929,1,1
1777931643502,   790.403,   790.403, 0.011580,-0.002795,-0.995673, 0.000116,-0.000030,-0.009956,-0.001315, 0.003236, 0.041714,1,-0.000159, 0.000612,-0.000068,1,-0.114900, 0.030641, 9.805929,1,1
1777931643519,   790.428,   790.428, 0.011245,-0.002227,-0.995831, 0.000114,-0.000026,-0.009955,-0.004631, 0.008777, 0.040161,1,-0.000521,-0.000201, 0.000231,1,-0.114896, 0.030599, 9.805929,1,1
1777931643529,   790.428,   790.428, 0.011245,-0.002227,-0.995831, 0.000114,-0.000026,-0.009955,-0.004631, 0.008777, 0.040161,1,-0.000521,-0.000201, 0.000231,1,-0.114896, 0.030599, 9.805929,1,1
1777931643541,   790.453,   790.448, 0.010979,-0.003095,-0.995232, 0.000117,-0.000024,-0.009958,-0.003807, 0.002188, 0.030290,1,-0.000407,-0.000270, 0.000068,1,-0.114849, 0.030450, 9.805930,1,1
1777931643551,   790.453,   790.448, 0.010979,-0.003095,-0.995232, 0.000117,-0.000024,-0.009958,-0.003807, 0.002188, 0.030290,1,-0.000407,-0.000270, 0.000068,1,-0.114849, 0.030450, 9.805930,1,1
1777931643569,   790.478,   790.478, 0.012206,-0.003096,-0.996316, 0.000124,-0.000036,-0.009963, 0.004816, 0.000073, 0.035404,1,-0.000062, 0.000372,-0.000703,1,-0.114894, 0.030430, 9.805930,1,1
1777931643579,   790.478,   790.478, 0.012206,-0.003096,-0.996316, 0.000124,-0.000036,-0.009963, 0.004816, 0.000073, 0.035404,1,-0.000062, 0.000372,-0.000703,1,-0.114894, 0.030430, 9.805930,1,1
1777931643591,   790.503,   790.498, 0.011781,-0.003609,-0.995254, 0.000129,-0.000035,-0.009957,-0.005805,-0.019280, 0.044413,1,-0.000222,-0.000542, 0.000518,1,-0.114883, 0.030431, 9.805930,1,1
1777931643601,   790.503,   790.498, 0.011781,-0.003609,-0.995254, 0.000129,-0.000035,-0.009957,-0.005805,-0.019280, 0.044413,1,-0.000222,-0.000542, 0.000518,1,-0.114883, 0.030431, 9.805930,1,1
1777931643619,   790.528,   790.528, 0.012509,-0.002471,-0.996298, 0.000127,-0.000027,-0.009963, 0.007757, 0.006151, 0.035587,1,-0.000187,-0.000733, 0.000606,1,-0.114895, 0.030376, 9.805930,1,1
1777931643629,   790.528,   790.528, 0.012509,-0.002471,-0.996298, 0.000127,-0.000027,-0.009963, 0.007757, 0.006151, 0.035587,1,-0.000187,-0.000733, 0.000606,1,-0.114895, 0.030376, 9.805930,1,1
1777931643641,   790.553,   790.548, 0.011330,-0.003230,-0.996349, 0.000115,-0.000037,-0.009969, 0.000693,-0.004577, 0.046400,1,-0.000659, 0.000000, 0.000946,1,-0.114947, 0.030316, 9.805929,1,1
1777931643651,   790.553,   790.548, 0.011330,-0.003230,-0.996349, 0.000115,-0.000037,-0.009969, 0.000693,-0.004577, 0.046400,1,-0.000659, 0.000000, 0.000946,1,-0.114947, 0.030316, 9.805929,1,1
1777931643664,   790.578,   790.573, 0.010599,-0.002783,-0.996013, 0.000106,-0.000029,-0.009968,-0.010974, 0.002847, 0.038380,1,-0.001436, 0.000057, 0.000456,1,-0.114915, 0.030090, 9.805930,1,1
1777931643674,   790.578,   790.573, 0.010599,-0.002783,-0.996013, 0.000106,-0.000029,-0.009968,-0.010974, 0.002847, 0.038380,1,-0.001436, 0.000057, 0.000456,1,-0.114915, 0.030090, 9.805930,1,1
1777931643690,   790.603,   790.598, 0.011244,-0.002520,-0.996092, 0.000118,-0.000028,-0.009949,-0.012257,-0.010666, 0.051975,1,-0.000219,-0.000801, 0.001089,1,-0.114778, 0.029997, 9.805932,1,1
1777931643700,   790.603,   790.598, 0.011244,-0.002520,-0.996092, 0.000118,-0.000028,-0.009949,-0.012257,-0.010666, 0.051975,1,-0.000219,-0.000801, 0.001089,1,-0.114778, 0.029997, 9.805932,1,1
1777931643714,   790.628,   790.623, 0.015724, 0.006721,-0.998170, 0.000152, 0.000060,-0.009985, 0.039429, 0.095966, 0.017227,1, 0.000742,-0.000111,-0.000961,1,-0.114770, 0.030079, 9.805932,1,1
1777931643724,   790.628,   790.623, 0.015724, 0.006721,-0.998170, 0.000152, 0.000060,-0.009985, 0.039429, 0.095966, 0.017227,1, 0.000742,-0.000111,-0.000961,1,-0.114770, 0.030079, 9.805932,1,1
1777931643740,   790.653,   790.648, 0.013161,-0.008425,-0.996578, 0.000129,-0.000093,-0.009954, 0.015923,-0.038921, 0.077066,1, 0.001135,-0.000007,-0.001647,1,-0.114626, 0.030371, 9.805933,1,1
1777931643750,   790.653,   790.648, 0.013161,-0.008425,-0.996578, 0.000129,-0.000093,-0.009954, 0.015923,-0.038921, 0.077066,1, 0.001135,-0.000007,-0.001647,1,-0.114626, 0.030371, 9.805933,1,1
1777931643763,   790.673,   790.673, 0.012054,-0.001527,-0.997508, 0.000123,-0.000013,-0.009985, 0.003410, 0.015371, 0.023723,1,-0.000534, 0.000827,-0.001159,1,-0.114825, 0.030333, 9.805931,1,1
1777931643773,   790.673,   790.673, 0.012054,-0.001527,-0.997508, 0.000123,-0.000013,-0.009985, 0.003410, 0.015371, 0.023723,1,-0.000534, 0.000827,-0.001159,1,-0.114825, 0.030333, 9.805931,1,1
1777931643789,   790.698,   790.698, 0.010269,-0.007726,-0.995850, 0.000110,-0.000051,-0.009955,-0.014012,-0.045389, 0.039982,1, 0.001173, 0.000534,-0.000919,1,-0.114733, 0.030410, 9.805932,1,1
1777931643800,   790.698,   790.698, 0.010269,-0.007726,-0.995850, 0.000110,-0.000051,-0.009955,-0.014012,-0.045389, 0.039982,1, 0.001173, 0.000534,-0.000919,1,-0.114733, 0.030410, 9.805932,1,1
1777931643811,   790.723,   790.718, 0.008501,-0.005084,-0.993528, 0.000100,-0.000038,-0.009936,-0.014560,-0.034900, 0.027142,1,-0.000388,-0.000082,-0.000556,1,-0.114804, 0.030510, 9.805930,1,1
1777931643822,   790.723,   790.718, 0.008501,-0.005084,-0.993528, 0.000100,-0.000038,-0.009936,-0.014560,-0.034900, 0.027142,1,-0.000388,-0.000082,-0.000556,1,-0.114804, 0.030510, 9.805930,1,1
1777931643839,   790.748,   790.748, 0.010621,-0.000692,-0.996203, 0.000113, 0.000001,-0.009946,-0.010825, 0.023729, 0.036509,1,-0.000504,-0.000318,-0.000354,1,-0.114970, 0.030496, 9.805928,1,1
1777931643849,   790.748,   790.748, 0.010621,-0.000692,-0.996203, 0.000113, 0.000001,-0.009946,-0.010825, 0.023729, 0.036509,1,-0.000504,-0.000318,-0.000354,1,-0.114970, 0.030496, 9.805928,1,1
1777931643861,   790.773,   790.768, 0.011718,-0.004785,-0.998617, 0.000109,-0.000028,-0.009962, 0.002447,-0.019804, 0.055978,1,-0.000497,-0.000839,-0.000074,1,-0.114830, 0.030544, 9.805930,1,1
1777931643871,   790.773,   790.768, 0.011718,-0.004785,-0.998617, 0.000109,-0.000028,-0.009962, 0.002447,-0.019804, 0.055978,1,-0.000497,-0.000839,-0.000074,1,-0.114830, 0.030544, 9.805930,1,1
1777931643889,   790.798,   790.798, 0.010984,-0.003350,-0.998263, 0.000111,-0.000044,-0.009971,-0.007219,-0.002169, 0.016311,1,-0.000408, 0.000185,-0.000468,1,-0.114945, 0.030666, 9.805928,1,1
1777931643899,   790.798,   790.798, 0.010984,-0.003350,-0.998263, 0.000111,-0.000044,-0.009971,-0.007219,-0.002169, 0.016311,1,-0.000408, 0.000185,-0.000468,1,-0.114945, 0.030666, 9.805928,1,1
1777931643911,   790.823,   790.818, 0.012538,-0.005195,-0.996113, 0.000128,-0.000045,-0.009947, 0.003412,-0.020139, 0.021158,1, 0.000290,-0.000623,-0.000169,1,-0.114939, 0.030712, 9.805928,1,1
1777931643921,   790.823,   790.818, 0.012538,-0.005195,-0.996113, 0.000128,-0.000045,-0.009947, 0.003412,-0.020139, 0.021158,1, 0.000290,-0.000623,-0.000169,1,-0.114939, 0.030712, 9.805928,1,1
1777931643934,   790.848,   790.848, 0.015563,-0.003667,-0.998476, 0.000149,-0.000041,-0.009976, 0.037725,-0.005294, 0.014223,1,-0.000246, 0.000591, 0.000087,1,-0.114915, 0.030656, 9.805929,1,1
1777931643944,   790.848,   790.848, 0.015563,-0.003667,-0.998476, 0.000149,-0.000041,-0.009976, 0.037725,-0.005294, 0.014223,1,-0.000246, 0.000591, 0.000087,1,-0.114915, 0.030656, 9.805929,1,1
1777931643960,   790.873,   790.868, 0.014634,-0.003452,-0.995939, 0.000143,-0.000034,-0.009952, 0.035970, 0.015089, 0.036225,1, 0.000026,-0.000131, 0.000336,1,-0.114819, 0.030664, 9.805930,1,1
1777931643970,   790.873,   790.868, 0.014634,-0.003452,-0.995939, 0.000143,-0.000034,-0.009952, 0.035970, 0.015089, 0.036225,1, 0.000026,-0.000131, 0.000336,1,-0.114819, 0.030664, 9.805930,1,1
1777931643984,   790.898,   790.893, 0.011497,-0.003433,-0.997193, 0.000118,-0.000033,-0.009967,-0.002127,-0.002911, 0.026801,1,-0.000563, 0.000455, 0.000187,1,-0.114891, 0.030735, 9.805929,1,1
1777931643994,   790.898,   790.893, 0.011497,-0.003433,-0.997193, 0.000118,-0.000033,-0.009967,-0.002127,-0.002911, 0.026801,1,-0.000563, 0.000455, 0.000187,1,-0.114891, 0.030735, 9.805929,1,1
1777931644010,   790.923,   790.918, 0.009957,-0.003476,-0.995322, 0.000098,-0.000038,-0.009949,-0.014597,-0.016522, 0.028667,1,-0.000791, 0.000168, 0.000520,1,-0.114867, 0.030673, 9.805929,1,1
1777931644020,   790.923,   790.918, 0.009957,-0.003476,-0.995322, 0.000098,-0.000038,-0.009949,-0.014597,-0.016522, 0.028667,1,-0.000791, 0.000168, 0.000520,1,-0.114867, 0.030673, 9.805929,1,1
1777931644033,   790.943,   790.943, 0.010230,-0.001651,-0.995445, 0.000106,-0.000014,-0.009956,-0.014630, 0.014548, 0.043948,1,-0.000343,-0.000558, 0.000892,1,-0.114940, 0.030733, 9.805928,1,1
1777931644044,   790.943,   790.943, 0.010230,-0.001651,-0.995445, 0.000106,-0.000014,-0.009956,-0.014630, 0.014548, 0.043948,1,-0.000343,-0.000558, 0.000892,1,-0.114940, 0.030733, 9.805928,1,1
1777931644059,   790.968,   790.968, 0.011041,-0.001984,-0.996862, 0.000110,-0.000022,-0.009964,-0.006626, 0.011312, 0.030051,1, 0.000520, 0.000322, 0.000143,1,-0.114907, 0.030784, 9.805928,1,1
1777931644070,   790.968,   790.968, 0.011041,-0.001984,-0.996862, 0.000110,-0.000022,-0.009964,-0.006626, 0.011312, 0.030051,1, 0.000520, 0.000322, 0.000143,1,-0.114907, 0.030784, 9.805928,1,1
1777931644082,   790.993,   790.988, 0.012315,-0.004051,-0.996819, 0.000122,-0.000033,-0.009956, 0.006128,-0.001079, 0.036636,1,-0.000282,-0.000306, 0.000208,1,-0.114973, 0.030747, 9.805928,1,1
1777931644092,   790.993,   790.988, 0.012315,-0.004051,-0.996819, 0.000122,-0.000033,-0.009956, 0.006128,-0.001079, 0.036636,1,-0.000282,-0.000306, 0.000208,1,-0.114973, 0.030747, 9.805928,1,1
1777931644109,   791.018,   791.018, 0.013343,-0.003954,-0.996962, 0.000128,-0.000046,-0.009971, 0.015818,-0.008119, 0.029070,1,-0.000196, 0.000156, 0.000306,1,-0.115039, 0.030655, 9.805927,1,1
1777931644119,   791.018,   791.018, 0.013343,-0.003954,-0.996962, 0.000128,-0.000046,-0.009971, 0.015818,-0.008119, 0.029070,1,-0.000196, 0.000156, 0.000306,1,-0.115039, 0.030655, 9.805927,1,1
1777931644131,   791.043,   791.038, 0.013225,-0.001202,-0.996420, 0.000137,-0.000014,-0.009961, 0.017889, 0.007383, 0.040738,1, 0.000272,-0.000049, 0.000456,1,-0.115080, 0.030631, 9.805927,1,1
1777931644141,   791.043,   791.038, 0.013225,-0.001202,-0.996420, 0.000137,-0.000014,-0.009961, 0.017889, 0.007383, 0.040738,1, 0.000272,-0.000049, 0.000456,1,-0.115080, 0.030631, 9.805927,1,1
1777931644159,   791.068,   791.068, 0.012840,-0.002571,-0.995723, 0.000132,-0.000025,-0.009954, 0.011016, 0.005440, 0.041222,1,-0.000268,-0.000703,-0.000320,1,-0.114880, 0.030647, 9.805929,1,1
1777931644169,   791.068,   791.068, 0.012840,-0.002571,-0.995723, 0.000132,-0.000025,-0.009954, 0.011016, 0.005440, 0.041222,1,-0.000268,-0.000703,-0.000320,1,-0.114880, 0.030647, 9.805929,1,1
1777931644181,   791.093,   791.088, 0.010779,-0.003263,-0.995506, 0.000109,-0.000034,-0.009955, 0.002047,-0.006717, 0.039043,1,-0.000612,-0.000618,-0.000544,1,-0.114766, 0.030558, 9.805931,1,1
1777931644191,   791.093,   791.088, 0.010779,-0.003263,-0.995506, 0.000109,-0.000034,-0.009955, 0.002047,-0.006717, 0.039043,1,-0.000612,-0.000618,-0.000544,1,-0.114766, 0.030558, 9.805931,1,1
1777931644208,   791.118,   791.118, 0.010794,-0.003135,-0.996593, 0.000107,-0.000032,-0.009960,-0.008945,-0.000286, 0.032691,1, 0.000154, 0.000039, 0.000239,1,-0.114798, 0.030466, 9.805931,1,1
1777931644219,   791.118,   791.118, 0.010794,-0.003135,-0.996593, 0.000107,-0.000032,-0.009960,-0.008945,-0.000286, 0.032691,1, 0.000154, 0.000039, 0.000239,1,-0.114798, 0.030466, 9.805931,1,1
1777931644230,   791.143,   791.138, 0.010332,-0.003463,-0.994299, 0.000102,-0.000038,-0.009947,-0.014768,-0.002699, 0.035329,1,-0.000335, 0.000342, 0.000324,1,-0.114788, 0.030389, 9.805931,1,1
1777931644241,   791.143,   791.138, 0.010332,-0.003463,-0.994299, 0.000102,-0.000038,-0.009947,-0.014768,-0.002699, 0.035329,1,-0.000335, 0.000342, 0.000324,1,-0.114788, 0.030389, 9.805931,1,1
1777931644254,   791.168,   791.163, 0.011057,-0.002559,-0.994904, 0.000112,-0.000025,-0.009952,-0.006383, 0.005371, 0.049251,1, 0.000057, 0.000421,-0.000297,1,-0.114833, 0.030470, 9.805930,1,1
1777931644264,   791.168,   791.163, 0.011057,-0.002559,-0.994904, 0.000112,-0.000025,-0.009952,-0.006383, 0.005371, 0.049251,1, 0.000057, 0.000421,-0.000297,1,-0.114833, 0.030470, 9.805930,1,1
1777931644280,   791.193,   791.188, 0.010768, 0.008678,-0.993578, 0.000108, 0.000093,-0.009947, 0.001043, 0.007190, 0.037545,1,-0.000669, 0.000557, 0.000111,1,-0.114906, 0.030459, 9.805929,1,1
1777931644290,   791.193,   791.188, 0.010768, 0.008678,-0.993578, 0.000108, 0.000093,-0.009947, 0.001043, 0.007190, 0.037545,1,-0.000669, 0.000557, 0.000111,1,-0.114906, 0.030459, 9.805929,1,1
1777931644303,   791.213,   791.213, 0.009492, 0.001592,-0.989001, 0.000083,-0.000054,-0.009907,-0.021958, 0.046516, 0.107142,1,-0.002565, 0.002421,-0.003504,1,-0.115119, 0.030821, 9.805926,1,1
1777931644314,   791.213,   791.213, 0.009492, 0.001592,-0.989001, 0.000083,-0.000054,-0.009907,-0.021958, 0.046516, 0.107142,1,-0.002565, 0.002421,-0.003504,1,-0.115119, 0.030821, 9.805926,1,1
1777931644330,   791.238,   791.238, 0.004214,-0.004995,-0.978581, 0.000054,-0.000093,-0.009750,-0.073724,-0.017800, 0.209327,1, 0.000404, 0.004910,-0.000240,1,-0.115200, 0.031199, 9.805923,1,1
1777931644340,   791.238,   791.238, 0.004214,-0.004995,-0.978581, 0.000054,-0.000093,-0.009750,-0.073724,-0.017800, 0.209327,1, 0.000404, 0.004910,-0.000240,1,-0.115200, 0.031199, 9.805923,1,1
1777931644352,   791.263,   791.258, 0.015244, 0.003622,-0.988563, 0.000154, 0.000039,-0.009963, 0.043234, 0.056799,-0.005315,1, 0.002567,-0.000819,-0.000569,1,-0.115505, 0.031284, 9.805920,1,1
1777931644362,   791.263,   791.258, 0.015244, 0.003622,-0.988563, 0.000154, 0.000039,-0.009963, 0.043234, 0.056799,-0.005315,1, 0.002567,-0.000819,-0.000569,1,-0.115505, 0.031284, 9.805920,1,1
1777931644379,   791.288,   791.288, 0.016915,-0.004131,-0.991384, 0.000181,-0.000031,-0.009949, 0.050334,-0.008631, 0.083763,1, 0.002452,-0.000075,-0.003955,1,-0.115543, 0.031958, 9.805917,1,1
1777931644389,   791.288,   791.288, 0.016915,-0.004131,-0.991384, 0.000181,-0.000031,-0.009949, 0.050334,-0.008631, 0.083763,1, 0.002452,-0.000075,-0.003955,1,-0.115543, 0.031958, 9.805917,1,1
1777931644402,   791.313,   791.308, 0.015536,-0.004208,-1.000374, 0.000161,-0.000049,-0.010039, 0.005562,-0.013884, 0.091193,1,-0.000625, 0.005286,-0.002937,1,-0.115530, 0.032038, 9.805917,1,1
1777931644412,   791.313,   791.308, 0.015536,-0.004208,-1.000374, 0.000161,-0.000049,-0.010039, 0.005562,-0.013884, 0.091193,1,-0.000625, 0.005286,-0.002937,1,-0.115530, 0.032038, 9.805917,1,1
1777931644429,   791.338,   791.338, 0.013241,-0.001734,-0.991991, 0.000135,-0.000040,-0.009934, 0.014307, 0.014898, 0.077812,1, 0.001998, 0.002238,-0.001749,1,-0.115648, 0.031875, 9.805916,1,1
1777931644439,   791.338,   791.338, 0.013241,-0.001734,-0.991991, 0.000135,-0.000040,-0.009934, 0.014307, 0.014898, 0.077812,1, 0.001998, 0.002238,-0.001749,1,-0.115648, 0.031875, 9.805916,1,1
1777931644451,   791.363,   791.358, 0.011241,-0.009627,-0.988650, 0.000117,-0.000078,-0.009915, 0.015022,-0.047297,-0.003536,1, 0.001923,-0.002559,-0.001913,1,-0.115653, 0.032082, 9.805916,1,1
1777931644461,   791.363,   791.358, 0.011241,-0.009627,-0.988650, 0.000117,-0.000078,-0.009915, 0.015022,-0.047297,-0.003536,1, 0.001923,-0.002559,-0.001913,1,-0.115653, 0.032082, 9.805916,1,1
1777931644478,   791.388,   791.388, 0.011647,-0.011128,-0.996711, 0.000115,-0.000111,-0.009979,-0.001473,-0.077131, 0.031515,1,-0.001535,-0.000821, 0.000131,1,-0.115665, 0.031953, 9.805916,1,1
1777931644489,   791.388,   791.388, 0.011647,-0.011128,-0.996711, 0.000115,-0.000111,-0.009979,-0.001473,-0.077131, 0.031515,1,-0.001535,-0.000821, 0.000131,1,-0.115665, 0.031953, 9.805916,1,1
1777931644500,   791.413,   791.408, 0.011295,-0.006714,-0.999155, 0.000111,-0.000071,-0.009995,-0.020555,-0.047871, 0.041094,1,-0.001754, 0.002175, 0.001882,1,-0.115739, 0.031619, 9.805916,1,1
1777931644511,   791.413,   791.408, 0.011295,-0.006714,-0.999155, 0.000111,-0.000071,-0.009995,-0.020555,-0.047871, 0.041094,1,-0.001754, 0.002175, 0.001882,1,-0.115739, 0.031619, 9.805916,1,1
1777931644524,   791.438,   791.433, 0.009771,-0.000428,-0.993801, 0.000095,-0.000004,-0.009934,-0.019826, 0.027151, 0.060064,1,-0.000386, 0.001349, 0.003930,1,-0.115687, 0.031340, 9.805918,1,1
1777931644534,   791.438,   791.433, 0.009771,-0.000428,-0.993801, 0.000095,-0.000004,-0.009934,-0.019826, 0.027151, 0.060064,1,-0.000386, 0.001349, 0.003930,1,-0.115687, 0.031340, 9.805918,1,1
1777931644550,   791.463,   791.458, 0.011018, 0.001797,-0.992848, 0.000110, 0.000019,-0.009932,-0.004126, 0.056801, 0.044477,1, 0.000157,-0.003133, 0.001792,1,-0.115580, 0.031311, 9.805919,1,1
1777931644560,   791.463,   791.458, 0.011018, 0.001797,-0.992848, 0.000110, 0.000019,-0.009932,-0.004126, 0.056801, 0.044477,1, 0.000157,-0.003133, 0.001792,1,-0.115580, 0.031311, 9.805919,1,1
1777931644573,   791.483,   791.483, 0.012790, 0.001143,-0.997019, 0.000129, 0.000015,-0.009979, 0.009640, 0.042484, 0.028504,1,-0.000115,-0.000014, 0.000834,1,-0.115786, 0.031271, 9.805917,1,1
1777931644584,   791.483,   791.483, 0.012790, 0.001143,-0.997019, 0.000129, 0.000015,-0.009979, 0.009640, 0.042484, 0.028504,1,-0.000115,-0.000014, 0.000834,1,-0.115786, 0.031271, 9.805917,1,1
1777931644600,   791.508,   791.508, 0.012203,-0.003775,-0.996356, 0.000120,-0.000035,-0.009959, 0.003760,-0.005700, 0.035004,1, 0.000133, 0.001631,-0.000414,1,-0.115958, 0.031327, 9.805914,1,1
1777931644610,   791.508,   791.508, 0.012203,-0.003775,-0.996356, 0.000120,-0.000035,-0.009959, 0.003760,-0.005700, 0.035004,1, 0.000133, 0.001631,-0.000414,1,-0.115958, 0.031327, 9.805914,1,1
1777931644622,   791.533,   791.528, 0.013054,-0.006904,-0.995241, 0.000130,-0.000069,-0.009943, 0.006228,-0.037231, 0.047109,1, 0.000159,-0.000615, 0.000471,1,-0.115926, 0.031323, 9.805915,1,1
1777931644632,   791.533,   791.528, 0.013054,-0.006904,-0.995241, 0.000130,-0.000069,-0.009943, 0.006228,-0.037231, 0.047109,1, 0.000159,-0.000615, 0.000471,1,-0.115926, 0.031323, 9.805915,1,1
1777931644649,   791.558,   791.558, 0.013469,-0.003926,-0.995294, 0.000136,-0.000040,-0.009958, 0.016248,-0.007002, 0.045410,1, 0.000464,-0.002599, 0.002240,1,-0.115760, 0.031516, 9.805916,1,1
1777931644659,   791.558,   791.558, 0.013469,-0.003926,-0.995294, 0.000136,-0.000040,-0.009958, 0.016248,-0.007002, 0.045410,1, 0.000464,-0.002599, 0.002240,1,-0.115760, 0.031516, 9.805916,1,1
1777931644671,   791.583,   791.578, 0.013335,-0.000644,-0.996763, 0.000136,-0.000008,-0.009972, 0.023626, 0.029100, 0.031785,1,-0.000303, 0.000367, 0.002561,1,-0.115859, 0.031584, 9.805915,1,1
1777931644681,   791.583,   791.578, 0.013335,-0.000644,-0.996763, 0.000136,-0.000008,-0.009972, 0.023626, 0.029100, 0.031785,1,-0.000303, 0.000367, 0.002561,1,-0.115859, 0.031584, 9.805915,1,1
1777931644699,   791.608,   791.608, 0.012759,-0.001642,-0.996733, 0.000128,-0.000015,-0.009965, 0.009379, 0.015370, 0.031301,1,-0.000784, 0.001531, 0.001624,1,-0.115788, 0.031451, 9.805916,1,1
1777931644709,   791.608,   791.608, 0.012759,-0.001642,-0.996733, 0.000128,-0.000015,-0.009965, 0.009379, 0.015370, 0.031301,1,-0.000784, 0.001531, 0.001624,1,-0.115788, 0.031451, 9.805916,1,1
1777931644721,   791.633,   791.628, 0.010371,-0.005624,-0.996056, 0.000101,-0.000056,-0.009954,-0.017316,-0.014499, 0.053377,1, 0.000757,-0.000679, 0.001367,1,-0.115614, 0.031520, 9.805918,1,1
1777931644731,   791.633,   791.628, 0.010371,-0.005624,-0.996056, 0.000101,-0.000056,-0.009954,-0.017316,-0.014499, 0.053377,1, 0.000757,-0.000679, 0.001367,1,-0.115614, 0.031520, 9.805918,1,1
1777931644748,   791.658,   791.658, 0.010089,-0.004435,-0.995825, 0.000101,-0.000043,-0.009964,-0.016693,-0.011943, 0.040209,1, 0.000350,-0.001921, 0.002734,1,-0.115576, 0.031558, 9.805918,1,1
1777931644759,   791.658,   791.658, 0.010089,-0.004435,-0.995825, 0.000101,-0.000043,-0.009964,-0.016693,-0.011943, 0.040209,1, 0.000350,-0.001921, 0.002734,1,-0.115576, 0.031558, 9.805918,1,1
1777931644770,   791.683,   791.678, 0.010854,-0.002668,-0.995505, 0.000109,-0.000029,-0.009958,-0.003627,-0.006843, 0.023632,1, 0.000400,-0.000032, 0.002582,1,-0.115658, 0.031627, 9.805917,1,1
1777931644781,   791.683,   791.678, 0.010854,-0.002668,-0.995505, 0.000109,-0.000029,-0.009958,-0.003627,-0.006843, 0.023632,1, 0.000400,-0.000032, 0.002582,1,-0.115658, 0.031627, 9.805917,1,1
1777931644794,   791.708,   791.703, 0.011961,-0.001860,-0.996871, 0.000118,-0.000017,-0.009964, 0.001748, 0.013447, 0.029954,1,-0.000198, 0.000596, 0.001749,1,-0.115564, 0.031686, 9.805918,1,1
1777931644804,   791.708,   791.703, 0.011961,-0.001860,-0.996871, 0.000118,-0.000017,-0.009964, 0.001748, 0.013447, 0.029954,1,-0.000198, 0.000596, 0.001749,1,-0.115564, 0.031686, 9.805918,1,1
1777931644820,   791.733,   791.728, 0.012565,-0.003443,-0.996391, 0.000124,-0.000034,-0.009958,-0.004216, 0.004260, 0.046529,1,-0.000580, 0.000113, 0.001487,1,-0.115384, 0.031698, 9.805920,1,1
1777931644830,   791.733,   791.728, 0.012565,-0.003443,-0.996391, 0.000124,-0.000034,-0.009958,-0.004216, 0.004260, 0.046529,1,-0.000580, 0.000113, 0.001487,1,-0.115384, 0.031698, 9.805920,1,1
1777931644844,   791.753,   791.753, 0.011992,-0.004960,-0.995659, 0.000121,-0.000053,-0.009954, 0.002094,-0.016967, 0.041844,1, 0.000364, 0.000044, 0.001307,1,-0.115506, 0.031689, 9.805919,1,1
1777931644854,   791.753,   791.753, 0.011992,-0.004960,-0.995659, 0.000121,-0.000053,-0.009954, 0.002094,-0.016967, 0.041844,1, 0.000364, 0.000044, 0.001307,1,-0.115506, 0.031689, 9.805919,1,1
1777931644870,   791.778,   791.778, 0.013727,-0.003674,-0.997986, 0.000136,-0.000039,-0.009979, 0.019031,-0.004287, 0.019015,1, 0.000533,-0.000473, 0.000674,1,-0.115566, 0.031757, 9.805918,1,1
1777931644880,   791.778,   791.778, 0.013727,-0.003674,-0.997986, 0.000136,-0.000039,-0.009979, 0.019031,-0.004287, 0.019015,1, 0.000533,-0.000473, 0.000674,1,-0.115566, 0.031757, 9.805918,1,1
1777931644892,   791.803,   791.798, 0.013230,-0.002989,-0.996674, 0.000131,-0.000027,-0.009964, 0.012752, 0.006422, 0.040128,1, 0.000023,-0.000318, 0.000206,1,-0.115413, 0.031768, 9.805920,1,1
1777931644902,   791.803,   791.798, 0.013230,-0.002989,-0.996674, 0.000131,-0.000027,-0.009964, 0.012752, 0.006422, 0.040128,1, 0.000023,-0.000318, 0.000206,1,-0.115413, 0.031768, 9.805920,1,1
1777931644919,   791.828,   791.828, 0.011469,-0.003442,-0.995621, 0.000115,-0.000035,-0.009952,-0.002993,-0.001959, 0.042208,1, 0.000217, 0.000319,-0.000326,1,-0.115479, 0.031806, 9.805919,1,1
1777931644930,   791.828,   791.828, 0.011469,-0.003442,-0.995621, 0.000115,-0.000035,-0.009952,-0.002993,-0.001959, 0.042208,1, 0.000217, 0.000319,-0.000326,1,-0.115479, 0.031806, 9.805919,1,1
1777931644941,   791.853,   791.848, 0.011485,-0.002903,-0.995518, 0.000113,-0.000033,-0.009955, 0.000116, 0.001769, 0.030084,1,-0.000180,-0.000591, 0.000330,1,-0.115454, 0.031786, 9.805919,1,1
1777931644951,   791.853,   791.848, 0.011485,-0.002903,-0.995518, 0.000113,-0.000033,-0.009955, 0.000116, 0.001769, 0.030084,1,-0.000180,-0.000591, 0.000330,1,-0.115454, 0.031786, 9.805919,1,1
1777931644969,   791.878,   791.878, 0.011484,-0.002924,-0.996866, 0.000116,-0.000027,-0.009965,-0.002824, 0.003109, 0.029999,1, 0.000055,-0.000857,-0.000356,1,-0.115419, 0.031788, 9.805920,1,1
1777931644979,   791.878,   791.878, 0.011484,-0.002924,-0.996866, 0.000116,-0.000027,-0.009965,-0.002824, 0.003109, 0.029999,1, 0.000055,-0.000857,-0.000356,1,-0.115419, 0.031788, 9.805920,1,1
1777931644991,   791.903,   791.898, 0.012096,-0.003207,-0.995818, 0.000120,-0.000036,-0.009959,-0.002857, 0.003327, 0.036298,1,-0.000404, 0.000460, 0.000042,1,-0.115353, 0.031859, 9.805920,1,1
1777931645001,   791.903,   791.898, 0.012096,-0.003207,-0.995818, 0.000120,-0.000036,-0.009959,-0.002857, 0.003327, 0.036298,1,-0.000404, 0.000460, 0.000042,1,-0.115353, 0.031859, 9.805920,1,1
1777931645019,   791.928,   791.928, 0.011960,-0.003169,-0.995202, 0.000117,-0.000034,-0.009949, 0.001881, 0.000789, 0.046324,1,-0.000328, 0.000839, 0.000482,1,-0.115432, 0.031859, 9.805919,1,1
1777931645029,   791.928,   791.928, 0.011960,-0.003169,-0.995202, 0.000117,-0.000034,-0.009949, 0.001881, 0.000789, 0.046324,1,-0.000328, 0.000839, 0.000482,1,-0.115432, 0.031859, 9.805919,1,1
1777931645040,   791.953,   791.948, 0.011807,-0.003680,-0.994878, 0.000118,-0.000037,-0.009951, 0.005790, 0.000623, 0.029379,1,-0.000851,-0.000153, 0.000004,1,-0.115530, 0.031875, 9.805918,1,1
1777931645051,   791.953,   791.948, 0.011807,-0.003680,-0.994878, 0.000118,-0.000037,-0.009951, 0.005790, 0.000623, 0.029379,1,-0.000851,-0.000153, 0.000004,1,-0.115530, 0.031875, 9.805918,1,1
1777931645064,   791.978,   791.973, 0.012416,-0.003170,-0.996155, 0.000121,-0.000031,-0.009960, 0.006204, 0.000755, 0.036972,1,-0.000795,-0.000403, 0.000430,1,-0.115538, 0.031822, 9.805918,1,1
1777931645074,   791.978,   791.973, 0.012416,-0.003170,-0.996155, 0.000121,-0.000031,-0.009960, 0.006204, 0.000755, 0.036972,1,-0.000795,-0.000403, 0.000430,1,-0.115538, 0.031822, 9.805918,1,1
1777931645090,   792.003,   791.998, 0.011953,-0.003468,-0.996135, 0.000118,-0.000035,-0.009965,-0.000957,-0.005416, 0.042389,1,-0.000391, 0.000217, 0.000540,1,-0.115644, 0.031818, 9.805917,1,1
1777931645100,   792.003,   791.998, 0.011953,-0.003468,-0.996135, 0.000118,-0.000035,-0.009965,-0.000957,-0.005416, 0.042389,1,-0.000391, 0.000217, 0.000540,1,-0.115644, 0.031818, 9.805917,1,1
1777931645114,   792.023,   792.023, 0.011658,-0.003133,-0.995460, 0.000118,-0.000031,-0.009952,-0.001251, 0.001100, 0.043794,1, 0.000069, 0.000255, 0.000499,1,-0.115581, 0.031828, 9.805917,1,1
1777931645124,   792.023,   792.023, 0.011658,-0.003133,-0.995460, 0.000118,-0.000031,-0.009952,-0.001251, 0.001100, 0.043794,1, 0.000069, 0.000255, 0.000499,1,-0.115581, 0.031828, 9.805917,1,1
1777931645140,   792.048,   792.048, 0.012584,-0.003054,-0.995577, 0.000126,-0.000032,-0.009951, 0.007892, 0.001924, 0.042638,1,-0.000336,-0.000517, 0.000725,1,-0.115501, 0.031861, 9.805918,1,1
1777931645150,   792.048,   792.048, 0.012584,-0.003054,-0.995577, 0.000126,-0.000032,-0.009951, 0.007892, 0.001924, 0.042638,1,-0.000336,-0.000517, 0.000725,1,-0.115501, 0.031861, 9.805918,1,1
1777931645162,   792.073,   792.068, 0.012303,-0.003067,-0.995316, 0.000126,-0.000031,-0.009956, 0.005227,-0.002812, 0.038643,1, 0.000582,-0.000560, 0.000139,1,-0.115506, 0.031880, 9.805918,1,1
1777931645172,   792.073,   792.068, 0.012303,-0.003067,-0.995316, 0.000126,-0.000031,-0.009956, 0.005227,-0.002812, 0.038643,1, 0.000582,-0.000560, 0.000139,1,-0.115506, 0.031880, 9.805918,1,1
1777931645189,   792.098,   792.098, 0.012398,-0.002895,-0.995720, 0.000124,-0.000032,-0.009953, 0.006188, 0.003415, 0.041239,1, 0.000070,-0.000222, 0.000287,1,-0.115391, 0.031812, 9.805920,1,1
1777931645200,   792.098,   792.098, 0.012398,-0.002895,-0.995720, 0.000124,-0.000032,-0.009953, 0.006188, 0.003415, 0.041239,1, 0.000070,-0.000222, 0.000287,1,-0.115391, 0.031812, 9.805920,1,1
1777931645211,   792.123,   792.118, 0.011706,-0.002713,-0.994963, 0.000117,-0.000026,-0.009957, 0.002801, 0.007470, 0.036275,1, 0.000299, 0.000130, 0.000152,1,-0.115510, 0.031854, 9.805918,1,1
1777931645222,   792.123,   792.118, 0.011706,-0.002713,-0.994963, 0.000117,-0.000026,-0.009957, 0.002801, 0.007470, 0.036275,1, 0.000299, 0.000130, 0.000152,1,-0.115510, 0.031854, 9.805918,1,1
1777931645239,   792.148,   792.148, 0.011377,-0.002805,-0.995351, 0.000116,-0.000028,-0.009954,-0.004034, 0.004292, 0.044853,1, 0.000049, 0.000610, 0.000114,1,-0.115622, 0.031797, 9.805917,1,1
1777931645249,   792.148,   792.148, 0.011377,-0.002805,-0.995351, 0.000116,-0.000028,-0.009954,-0.004034, 0.004292, 0.044853,1, 0.000049, 0.000610, 0.000114,1,-0.115622, 0.031797, 9.805917,1,1
1777931645261,   792.173,   792.168, 0.011215,-0.003335,-0.995533, 0.000115,-0.000035,-0.009959,-0.007024,-0.001278, 0.041642,1, 0.000061,-0.000549, 0.000382,1,-0.115538, 0.031743, 9.805918,1,1
1777931645271,   792.173,   792.168, 0.011215,-0.003335,-0.995533, 0.000115,-0.000035,-0.009959,-0.007024,-0.001278, 0.041642,1, 0.000061,-0.000549, 0.000382,1,-0.115538, 0.031743, 9.805918,1,1
1777931645289,   792.198,   792.198, 0.011550,-0.003170,-0.995489, 0.000114,-0.000030,-0.009957,-0.002231, 0.000547, 0.043503,1, 0.000053, 0.000422, 0.000109,1,-0.115515, 0.031633, 9.805919,1,1
1777931645299,   792.198,   792.198, 0.011550,-0.003170,-0.995489, 0.000114,-0.000030,-0.009957,-0.002231, 0.000547, 0.043503,1, 0.000053, 0.000422, 0.000109,1,-0.115515, 0.031633, 9.805919,1,1
1777931645311,   792.223,   792.218, 0.012106,-0.003917,-0.996358, 0.000120,-0.000038,-0.009964, 0.001508, 0.003337, 0.043318,1,-0.000520,-0.000652, 0.000175,1,-0.115440, 0.031610, 9.805920,1,1
1777931645321,   792.223,   792.218, 0.012106,-0.003917,-0.996358, 0.000120,-0.000038,-0.009964, 0.001508, 0.003337, 0.043318,1,-0.000520,-0.000652, 0.000175,1,-0.115440, 0.031610, 9.805920,1,1
1777931645334,   792.248,   792.243, 0.012692,-0.003379,-0.995573, 0.000128,-0.000033,-0.009964, 0.009114,-0.001615, 0.042684,1,-0.000452,-0.000497, 0.000405,1,-0.115336, 0.031508, 9.805922,1,1
1777931645344,   792.248,   792.243, 0.012692,-0.003379,-0.995573, 0.000128,-0.000033,-0.009964, 0.009114,-0.001615, 0.042684,1,-0.000452,-0.000497, 0.000405,1,-0.115336, 0.031508, 9.805922,1,1
1777931645360,   792.273,   792.268, 0.012246,-0.003198,-0.996859, 0.000124,-0.000029,-0.009968, 0.009797, 0.004374, 0.044646,1,-0.000452,-0.000029,-0.000528,1,-0.115364, 0.031428, 9.805921,1,1
1777931645370,   792.273,   792.268, 0.012246,-0.003198,-0.996859, 0.000124,-0.000029,-0.009968, 0.009797, 0.004374, 0.044646,1,-0.000452,-0.000029,-0.000528,1,-0.115364, 0.031428, 9.805921,1,1
1777931645384,   792.293,   792.293, 0.012299,-0.003121,-0.995844, 0.000124,-0.000034,-0.009961, 0.005362, 0.000780, 0.040032,1, 0.000093,-0.000350,-0.000026,1,-0.115239, 0.031393, 9.805923,1,1
1777931645394,   792.293,   792.293, 0.012299,-0.003121,-0.995844, 0.000124,-0.000034,-0.009961, 0.005362, 0.000780, 0.040032,1, 0.000093,-0.000350,-0.000026,1,-0.115239, 0.031393, 9.805923,1,1
1777931645410,   792.323,   792.318, 0.011556,-0.003062,-0.996111, 0.000119,-0.000029,-0.009961, 0.005406,-0.001043, 0.038347,1, 0.000261,-0.000082,-0.000018,1,-0.115286, 0.031363, 9.805923,1,1
1777931645420,   792.323,   792.318, 0.011556,-0.003062,-0.996111, 0.000119,-0.000029,-0.009961, 0.005406,-0.001043, 0.038347,1, 0.000261,-0.000082,-0.000018,1,-0.115286, 0.031363, 9.805923,1,1
1777931645432,   792.343,   792.338, 0.011983,-0.003016,-0.996549, 0.000118,-0.000030,-0.009961, 0.006237, 0.001131, 0.046577,1, 0.000476, 0.000206, 0.000198,1,-0.115341, 0.031463, 9.805922,1,1
1777931645442,   792.343,   792.338, 0.011983,-0.003016,-0.996549, 0.000118,-0.000030,-0.009961, 0.006237, 0.001131, 0.046577,1, 0.000476, 0.000206, 0.000198,1,-0.115341, 0.031463, 9.805922,1,1
1777931645460,   792.368,   792.368, 0.011951,-0.003439,-0.996004, 0.000122,-0.000031,-0.009962, 0.001850,-0.002193, 0.038462,1,-0.000020, 0.000222, 0.000161,1,-0.115356, 0.031527, 9.805921,1,1
1777931645470,   792.368,   792.368, 0.011951,-0.003439,-0.996004, 0.000122,-0.000031,-0.009962, 0.001850,-0.002193, 0.038462,1,-0.000020, 0.000222, 0.000161,1,-0.115356, 0.031527, 9.805921,1,1
1777931645481,   792.393,   792.388, 0.011783,-0.002722,-0.997125, 0.000119,-0.000027,-0.009966, 0.005296, 0.006905, 0.041162,1, 0.000507,-0.000085, 0.000216,1,-0.115391, 0.031577, 9.805921,1,1
1777931645492,   792.393,   792.388, 0.011783,-0.002722,-0.997125, 0.000119,-0.000027,-0.009966, 0.005296, 0.006905, 0.041162,1, 0.000507,-0.000085, 0.000216,1,-0.115391, 0.031577, 9.805921,1,1
1777931645509,   792.418,   792.418, 0.012131,-0.003339,-0.996611, 0.000121,-0.000032,-0.009969, 0.003667,-0.001315, 0.032510,1, 0.000125, 0.001111, 0.000043,1,-0.115334, 0.031437, 9.805922,1,1
1777931645519,   792.418,   792.418, 0.012131,-0.003339,-0.996611, 0.000121,-0.000032,-0.009969, 0.003667,-0.001315, 0.032510,1, 0.000125, 0.001111, 0.000043,1,-0.115334, 0.031437, 9.805922,1,1
1777931645531,   792.443,   792.438, 0.011487,-0.003004,-0.995786, 0.000110,-0.000031,-0.009956,-0.003742,-0.002349, 0.041266,1,-0.001052, 0.000531, 0.000235,1,-0.115310, 0.031372, 9.805922,1,1
1777931645541,   792.443,   792.438, 0.011487,-0.003004,-0.995786, 0.000110,-0.000031,-0.009956,-0.003742,-0.002349, 0.041266,1,-0.001052, 0.000531, 0.000235,1,-0.115310, 0.031372, 9.805922,1,1
1777931645559,   792.468,   792.468, 0.011682,-0.003882,-0.996369, 0.000119,-0.000038,-0.009961,-0.000817,-0.006733, 0.034880,1,-0.000307, 0.000032, 0.000552,1,-0.115383, 0.031322, 9.805922,1,1
1777931645569,   792.468,   792.468, 0.011682,-0.003882,-0.996369, 0.000119,-0.000038,-0.009961,-0.000817,-0.006733, 0.034880,1,-0.000307, 0.000032, 0.000552,1,-0.115383, 0.031322, 9.805922,1,1
1777931645580,   792.493,   792.488, 0.012589,-0.003079,-0.996175, 0.000122,-0.000029,-0.009959, 0.000032,-0.004693, 0.035001,1, 0.000165,-0.000614, 0.000215,1,-0.115358, 0.031348, 9.805922,1,1
1777931645591,   792.493,   792.488, 0.012589,-0.003079,-0.996175, 0.000122,-0.000029,-0.009959, 0.000032,-0.004693, 0.035001,1, 0.000165,-0.000614, 0.000215,1,-0.115358, 0.031348, 9.805922,1,1
1777931645604,   792.518,   792.513, 0.013417,-0.002813,-0.997336, 0.000131,-0.000029,-0.009970, 0.016195, 0.003760, 0.025397,1,-0.000029, 0.001000,-0.000242,1,-0.115413, 0.031343, 9.805921,1,1
1777931645614,   792.518,   792.513, 0.013417,-0.002813,-0.997336, 0.000131,-0.000029,-0.009970, 0.016195, 0.003760, 0.025397,1,-0.000029, 0.001000,-0.000242,1,-0.115413, 0.031343, 9.805921,1,1
1777931645630,   792.543,   792.538, 0.012761,-0.003011,-0.996318, 0.000129,-0.000030,-0.009958, 0.009845, 0.009727, 0.037425,1, 0.000366,-0.000449, 0.000467,1,-0.115367, 0.031308, 9.805922,1,1
1777931645640,   792.543,   792.538, 0.012761,-0.003011,-0.996318, 0.000129,-0.000030,-0.009958, 0.009845, 0.009727, 0.037425,1, 0.000366,-0.000449, 0.000467,1,-0.115367, 0.031308, 9.805922,1,1
1777931645654,   792.563,   792.563, 0.011507,-0.003927,-0.995694, 0.000116,-0.000038,-0.009954,-0.002451,-0.007112, 0.041496,1, 0.000931,-0.000875, 0.000337,1,-0.115270, 0.031423, 9.805923,1,1
1777931645664,   792.563,   792.563, 0.011507,-0.003927,-0.995694, 0.000116,-0.000038,-0.009954,-0.002451,-0.007112, 0.041496,1, 0.000931,-0.000875, 0.000337,1,-0.115270, 0.031423, 9.805923,1,1
1777931645680,   792.593,   792.588, 0.011264,-0.002853,-0.995669, 0.000113,-0.000030,-0.009959,-0.002890,-0.001364, 0.031588,1,-0.000061, 0.000087, 0.000478,1,-0.115350, 0.031311, 9.805922,1,1
1777931645690,   792.593,   792.588, 0.011264,-0.002853,-0.995669, 0.000113,-0.000030,-0.009959,-0.002890,-0.001364, 0.031588,1,-0.000061, 0.000087, 0.000478,1,-0.115350, 0.031311, 9.805922,1,1
1777931645702,   792.613,   792.608, 0.011001,-0.002715,-0.996097, 0.000111,-0.000027,-0.009955,-0.003318, 0.002872, 0.040513,1, 0.000161, 0.000498, 0.000727,1,-0.115386, 0.031387, 9.805921,1,1
1777931645712,   792.613,   792.608, 0.011001,-0.002715,-0.996097, 0.000111,-0.000027,-0.009955,-0.003318, 0.002872, 0.040513,1, 0.000161, 0.000498, 0.000727,1,-0.115386, 0.031387, 9.805921,1,1
1777931645729,   792.638,   792.638, 0.010981,-0.004159,-0.996324, 0.000109,-0.000040,-0.009956,-0.007723,-0.009307, 0.035322,1, 0.000251, 0.000358, 0.000754,1,-0.115421, 0.031487, 9.805921,1,1
1777931645739,   792.638,   792.638, 0.010981,-0.004159,-0.996324, 0.000109,-0.000040,-0.009956,-0.007723,-0.009307, 0.035322,1, 0.000251, 0.000358, 0.000754,1,-0.115421, 0.031487, 9.805921,1,1
1777931645751,   792.663,   792.658, 0.012722,-0.002435,-0.995748, 0.000128,-0.000024,-0.009952, 0.007261, 0.002661, 0.033535,1,-0.000261,-0.000438, 0.000151,1,-0.115393, 0.031487, 9.805921,1,1
1777931645761,   792.663,   792.658, 0.012722,-0.002435,-0.995748, 0.000128,-0.000024,-0.009952, 0.007261, 0.002661, 0.033535,1,-0.000261,-0.000438, 0.000151,1,-0.115393, 0.031487, 9.805921,1,1
1777931645779,   792.688,   792.688, 0.012913,-0.003268,-0.996410, 0.000130,-0.000031,-0.009959, 0.011178,-0.000516, 0.034479,1, 0.000347, 0.000131,-0.000344,1,-0.115458, 0.031540, 9.805920,1,1
1777931645789,   792.688,   792.688, 0.012913,-0.003268,-0.996410, 0.000130,-0.000031,-0.009959, 0.011178,-0.000516, 0.034479,1, 0.000347, 0.000131,-0.000344,1,-0.115458, 0.031540, 9.805920,1,1
1777931645803,   792.713,   792.708, 0.012890,-0.003139,-0.995868, 0.000132,-0.000032,-0.009957, 0.010578,-0.006737, 0.037823,1,-0.000186, 0.000042,-0.000091,1,-0.115479, 0.031475, 9.805920,1,1
1777931645814,   792.713,   792.708, 0.012890,-0.003139,-0.995868, 0.000132,-0.000032,-0.009957, 0.010578,-0.006737, 0.037823,1,-0.000186, 0.000042,-0.000091,1,-0.115479, 0.031475, 9.805920,1,1
1777931645829,   792.738,   792.738, 0.011557,-0.002495,-0.996218, 0.000118,-0.000023,-0.009958,-0.002178, 0.006891, 0.036359,1,-0.000482,-0.000056, 0.000096,1,-0.115551, 0.031341, 9.805919,1,1
1777931645839,   792.738,   792.738, 0.011557,-0.002495,-0.996218, 0.000118,-0.000023,-0.009958,-0.002178, 0.006891, 0.036359,1,-0.000482,-0.000056, 0.000096,1,-0.115551, 0.031341, 9.805919,1,1
1777931645851,   792.763,   792.758, 0.010443,-0.003920,-0.995474, 0.000105,-0.000039,-0.009960,-0.006889,-0.006437, 0.031281,1, 0.000183,-0.000053,-0.000452,1,-0.115576, 0.031324, 9.805919,1,1
1777931645861,   792.763,   792.758, 0.010443,-0.003920,-0.995474, 0.000105,-0.000039,-0.009960,-0.006889,-0.006437, 0.031281,1, 0.000183,-0.000053,-0.000452,1,-0.115576, 0.031324, 9.805919,1,1
1777931645874,   792.788,   792.783, 0.010006,-0.003414,-0.995977, 0.000101,-0.000034,-0.009955,-0.017390,-0.002252, 0.038722,1,-0.000312, 0.000150, 0.000211,1,-0.115524, 0.031220, 9.805920,1,1
1777931645884,   792.788,   792.783, 0.010006,-0.003414,-0.995977, 0.000101,-0.000034,-0.009955,-0.017390,-0.002252, 0.038722,1,-0.000312, 0.000150, 0.000211,1,-0.115524, 0.031220, 9.805920,1,1
1777931645900,   792.813,   792.808, 0.011889,-0.002537,-0.995653, 0.000119,-0.000025,-0.009959,-0.004945, 0.002430, 0.037871,1,-0.000502,-0.000803, 0.000025,1,-0.115433, 0.031236, 9.805921,1,1
1777931645910,   792.813,   792.808, 0.011889,-0.002537,-0.995653, 0.000119,-0.000025,-0.009959,-0.004945, 0.002430, 0.037871,1,-0.000502,-0.000803, 0.000025,1,-0.115433, 0.031236, 9.805921,1,1
1777931645924,   792.833,   792.833, 0.012805,-0.003444,-0.995447, 0.000128,-0.000032,-0.009955, 0.010219,-0.002519, 0.043917,1,-0.000274,-0.000212,-0.000226,1,-0.115352, 0.031249, 9.805922,1,1
1777931645934,   792.833,   792.833, 0.012805,-0.003444,-0.995447, 0.000128,-0.000032,-0.009955, 0.010219,-0.002519, 0.043917,1,-0.000274,-0.000212,-0.000226,1,-0.115352, 0.031249, 9.805922,1,1
1777931645950,   792.863,   792.858, 0.013040,-0.003762,-0.995519, 0.000131,-0.000040,-0.009959, 0.017336,-0.005026, 0.043760,1, 0.000459, 0.000804,-0.000217,1,-0.115402, 0.031216, 9.805922,1,1
1777931645960,   792.863,   792.858, 0.013040,-0.003762,-0.995519, 0.000131,-0.000040,-0.009959, 0.017336,-0.005026, 0.043760,1, 0.000459, 0.000804,-0.000217,1,-0.115402, 0.031216, 9.805922,1,1
1777931645972,   792.883,   792.883, 0.012509,-0.003803,-0.996138, 0.000125,-0.000036,-0.009964, 0.007391,-0.006093, 0.037141,1,-0.000602,-0.000481, 0.000078,1,-0.115267, 0.031180, 9.805923,1,1
1777931645982,   792.883,   792.883, 0.012509,-0.003803,-0.996138, 0.000125,-0.000036,-0.009964, 0.007391,-0.006093, 0.037141,1,-0.000602,-0.000481, 0.000078,1,-0.115267, 0.031180, 9.805923,1,1
1777931645999,   792.908,   792.908, 0.011828,-0.002734,-0.995769, 0.000117,-0.000028,-0.009957, 0.000776, 0.004329, 0.040764,1,-0.000494,-0.000044, 0.000802,1,-0.115214, 0.031122, 9.805923,1,1
1777931646010,   792.908,   792.908, 0.011828,-0.002734,-0.995769, 0.000117,-0.000028,-0.009957, 0.000776, 0.004329, 0.040764,1,-0.000494,-0.000044, 0.000802,1,-0.115214, 0.031122, 9.805923,1,1
1777931646021,   792.933,   792.928, 0.010690,-0.002149,-0.995775, 0.000106,-0.000023,-0.009962,-0.008878, 0.007656, 0.045171,1,-0.000236,-0.000089,-0.000166,1,-0.115241, 0.031159, 9.805923,1,1
1777931646031,   792.933,   792.928, 0.010690,-0.002149,-0.995775, 0.000106,-0.000023,-0.009962,-0.008878, 0.007656, 0.045171,1,-0.000236,-0.000089,-0.000166,1,-0.115241, 0.031159, 9.805923,1,1
1777931646049,   792.958,   792.958, 0.010404,-0.002733,-0.995790, 0.000108,-0.000027,-0.009959,-0.013344, 0.004365, 0.040557,1, 0.000681, 0.000322, 0.000320,1,-0.115386, 0.031186, 9.805922,1,1
1777931646059,   792.958,   792.958, 0.010404,-0.002733,-0.995790, 0.000108,-0.000027,-0.009959,-0.013344, 0.004365, 0.040557,1, 0.000681, 0.000322, 0.000320,1,-0.115386, 0.031186, 9.805922,1,1
1777931646071,   792.983,   792.978, 0.011290,-0.003375,-0.996005, 0.000111,-0.000035,-0.009963,-0.005719,-0.002576, 0.040314,1,-0.000345, 0.000321,-0.000045,1,-0.115326, 0.031245, 9.805923,1,1
1777931646081,   792.983,   792.978, 0.011290,-0.003375,-0.996005, 0.000111,-0.000035,-0.009963,-0.005719,-0.002576, 0.040314,1,-0.000345, 0.000321,-0.000045,1,-0.115326, 0.031245, 9.805923,1,1
1777931646099,   793.008,   793.008, 0.011744,-0.002667,-0.995908, 0.000118,-0.000027,-0.009961,-0.000156, 0.005100, 0.039397,1,-0.000076,-0.000181,-0.000296,1,-0.115320, 0.031256, 9.805923,1,1
1777931646109,   793.008,   793.008, 0.011744,-0.002667,-0.995908, 0.000118,-0.000027,-0.009961,-0.000156, 0.005100, 0.039397,1,-0.000076,-0.000181,-0.000296,1,-0.115320, 0.031256, 9.805923,1,1
1777931646121,   793.033,   793.028, 0.012619,-0.003129,-0.995907, 0.000128,-0.000034,-0.009962, 0.006093, 0.000972, 0.046224,1, 0.000779, 0.000172,-0.000667,1,-0.115308, 0.031257, 9.805923,1,1
1777931646131,   793.033,   793.028, 0.012619,-0.003129,-0.995907, 0.000128,-0.000034,-0.009962, 0.006093, 0.000972, 0.046224,1, 0.000779, 0.000172,-0.000667,1,-0.115308, 0.031257, 9.805923,1,1
1777931646144,   793.058,   793.053, 0.012624,-0.003345,-0.995312, 0.000127,-0.000034,-0.009958, 0.008547,-0.001553, 0.045251,1,-0.000147,-0.000055,-0.000017,1,-0.115249, 0.031246, 9.805923,1,1
1777931646154,   793.058,   793.053, 0.012624,-0.003345,-0.995312, 0.000127,-0.000034,-0.009958, 0.008547,-0.001553, 0.045251,1,-0.000147,-0.000055,-0.000017,1,-0.115249, 0.031246, 9.805923,1,1
1777931646170,   793.083,   793.078, 0.011997,-0.002790,-0.996905, 0.000120,-0.000027,-0.009968, 0.006833, 0.001014, 0.043507,1,-0.000062,-0.000428,-0.000203,1,-0.115188, 0.031208, 9.805923,1,1
1777931646180,   793.083,   793.078, 0.011997,-0.002790,-0.996905, 0.000120,-0.000027,-0.009968, 0.006833, 0.001014, 0.043507,1,-0.000062,-0.000428,-0.000203,1,-0.115188, 0.031208, 9.805923,1,1
1777931646194,   793.108,   793.103, 0.012208,-0.002829,-0.995720, 0.000121,-0.000031,-0.009964, 0.004485, 0.003526, 0.041250,1, 0.000164, 0.000608,-0.000406,1,-0.115254, 0.031270, 9.805923,1,1
1777931646204,   793.108,   793.103, 0.012208,-0.002829,-0.995720, 0.000121,-0.000031,-0.009964, 0.004485, 0.003526, 0.041250,1, 0.000164, 0.000608,-0.000406,1,-0.115254, 0.031270, 9.805923,1,1
1777931646220,   793.133,   793.128, 0.012274,-0.002828,-0.996622, 0.000122,-0.000028,-0.009961,-0.002682, 0.003753, 0.048337,1, 0.000487,-0.000257, 0.000241,1,-0.115217, 0.031309, 9.805923,1,1
1777931646230,   793.133,   793.128, 0.012274,-0.002828,-0.996622, 0.000122,-0.000028,-0.009961,-0.002682, 0.003753, 0.048337,1, 0.000487,-0.000257, 0.000241,1,-0.115217, 0.031309, 9.805923,1,1
1777931646243,   793.153,   793.153, 0.012245,-0.003020,-0.996100, 0.000124,-0.000030,-0.009963, 0.004773, 0.001688, 0.037514,1, 0.000470, 0.000273, 0.001054,1,-0.115314, 0.031319, 9.805922,1,1
1777931646253,   793.153,   793.153, 0.012245,-0.003020,-0.996100, 0.000124,-0.000030,-0.009963, 0.004773, 0.001688, 0.037514,1, 0.000470, 0.000273, 0.001054,1,-0.115314, 0.031319, 9.805922,1,1
1777931646269,   793.178,   793.178, 0.011962,-0.003668,-0.995849, 0.000119,-0.000035,-0.009963, 0.001970,-0.004621, 0.039974,1, 0.000202, 0.000456, 0.000005,1,-0.115349, 0.031358, 9.805922,1,1
1777931646280,   793.178,   793.178, 0.011962,-0.003668,-0.995849, 0.000119,-0.000035,-0.009963, 0.001970,-0.004621, 0.039974,1, 0.000202, 0.000456, 0.000005,1,-0.115349, 0.031358, 9.805922,1,1
1777931646291,   793.203,   793.198, 0.011506,-0.003076,-0.996969, 0.000114,-0.000033,-0.009967, 0.001065,-0.003537, 0.045315,1,-0.000430,-0.000820,-0.000021,1,-0.115260, 0.031348, 9.805923,1,1
1777931646302,   793.203,   793.198, 0.011506,-0.003076,-0.996969, 0.000114,-0.000033,-0.009967, 0.001065,-0.003537, 0.045315,1,-0.000430,-0.000820,-0.000021,1,-0.115260, 0.031348, 9.805923,1,1
1777931646319,   793.228,   793.228, 0.011664,-0.002643,-0.996138, 0.000116,-0.000024,-0.009968,-0.000898, 0.005382, 0.037141,1,-0.000451, 0.000212, 0.000363,1,-0.115285, 0.031289, 9.805923,1,1
1777931646329,   793.228,   793.228, 0.011664,-0.002643,-0.996138, 0.000116,-0.000024,-0.009968,-0.000898, 0.005382, 0.037141,1,-0.000451, 0.000212, 0.000363,1,-0.115285, 0.031289, 9.805923,1,1
1777931646341,   793.253,   793.248, 0.012192,-0.002920,-0.996310, 0.000120,-0.000034,-0.009957,-0.001969, 0.004600, 0.044881,1,-0.000333, 0.000122,-0.000449,1,-0.115338, 0.031231, 9.805922,1,1
1777931646351,   793.253,   793.248, 0.012192,-0.002920,-0.996310, 0.000120,-0.000034,-0.009957,-0.001969, 0.004600, 0.044881,1,-0.000333, 0.000122,-0.000449,1,-0.115338, 0.031231, 9.805922,1,1
1777931646369,   793.278,   793.278, 0.011784,-0.002890,-0.995702, 0.000120,-0.000029,-0.009959, 0.000139, 0.002776, 0.041424,1,-0.000672, 0.000916, 0.000088,1,-0.115446, 0.031093, 9.805922,1,1
1777931646379,   793.278,   793.278, 0.011784,-0.002890,-0.995702, 0.000120,-0.000029,-0.009959, 0.000139, 0.002776, 0.041424,1,-0.000672, 0.000916, 0.000088,1,-0.115446, 0.031093, 9.805922,1,1
1777931646391,   793.303,   793.298, 0.012377,-0.003611,-0.995583, 0.000124,-0.000035,-0.009950, 0.004913, 0.001290, 0.038493,1,-0.000336,-0.000545, 0.000014,1,-0.115429, 0.031096, 9.805922,1,1
1777931646401,   793.303,   793.298, 0.012377,-0.003611,-0.995583, 0.000124,-0.000035,-0.009950, 0.004913, 0.001290, 0.038493,1,-0.000336,-0.000545, 0.000014,1,-0.115429, 0.031096, 9.805922,1,1
1777931646414,   793.328,   793.328, 0.012524,-0.003613,-0.995452, 0.000124,-0.000037,-0.009953, 0.007313,-0.004432, 0.043870,1, 0.000539, 0.000774,-0.000253,1,-0.115527, 0.031014, 9.805921,1,1
1777931646424,   793.328,   793.328, 0.012524,-0.003613,-0.995452, 0.000124,-0.000037,-0.009953, 0.007313,-0.004432, 0.043870,1, 0.000539, 0.000774,-0.000253,1,-0.115527, 0.031014, 9.805921,1,1
1777931646440,   793.353,   793.348, 0.012700,-0.001567,-0.995824, 0.000128,-0.000016,-0.009954, 0.012823, 0.011079, 0.038124,1, 0.000362,-0.000176,-0.000110,1,-0.115647, 0.031010, 9.805919,1,1
1777931646450,   793.353,   793.348, 0.012700,-0.001567,-0.995824, 0.000128,-0.000016,-0.009954, 0.012823, 0.011079, 0.038124,1, 0.000362,-0.000176,-0.000110,1,-0.115647, 0.031010, 9.805919,1,1
1777931646464,   793.378,   793.373, 0.011844,-0.004284,-0.995560, 0.000119,-0.000041,-0.009950, 0.000507,-0.010927, 0.042808,1,-0.000359,-0.000634,-0.000173,1,-0.115622, 0.031069, 9.805919,1,1
1777931646474,   793.378,   793.373, 0.011844,-0.004284,-0.995560, 0.000119,-0.000041,-0.009950, 0.000507,-0.010927, 0.042808,1,-0.000359,-0.000634,-0.000173,1,-0.115622, 0.031069, 9.805919,1,1
1777931646491,   793.403,   793.398, 0.011799,-0.003416,-0.996837, 0.000116,-0.000033,-0.009965, 0.002889,-0.014031, 0.032398,1,-0.000565, 0.001051, 0.000098,1,-0.115651, 0.030910, 9.805920,1,1
1777931646501,   793.403,   793.398, 0.011799,-0.003416,-0.996837, 0.000116,-0.000033,-0.009965, 0.002889,-0.014031, 0.032398,1,-0.000565, 0.001051, 0.000098,1,-0.115651, 0.030910, 9.805920,1,1
1777931646513,   793.423,   793.423, 0.011725,-0.002017,-0.996317, 0.000118,-0.000020,-0.009963,-0.000729, 0.011104, 0.035389,1, 0.000853, 0.000172, 0.000478,1,-0.115720, 0.030909, 9.805919,1,1
1777931646523,   793.423,   793.423, 0.011725,-0.002017,-0.996317, 0.000118,-0.000020,-0.009963,-0.000729, 0.011104, 0.035389,1, 0.000853, 0.000172, 0.000478,1,-0.115720, 0.030909, 9.805919,1,1
1777931646539,   793.448,   793.448, 0.011067,-0.002472,-0.996834, 0.000112,-0.000026,-0.009969,-0.007233, 0.006668, 0.030316,1, 0.000021,-0.000237, 0.000477,1,-0.115754, 0.030914, 9.805918,1,1
1777931646550,   793.448,   793.448, 0.011067,-0.002472,-0.996834, 0.000112,-0.000026,-0.009969,-0.007233, 0.006668, 0.030316,1, 0.000021,-0.000237, 0.000477,1,-0.115754, 0.030914, 9.805918,1,1
1777931646561,   793.473,   793.468, 0.010935,-0.003258,-0.995990, 0.000111,-0.000031,-0.009958,-0.009442,-0.004569, 0.040690,1,-0.000119,-0.000168,-0.000207,1,-0.115720, 0.030927, 9.805919,1,1
1777931646572,   793.473,   793.468, 0.010935,-0.003258,-0.995990, 0.000111,-0.000031,-0.009958,-0.009442,-0.004569, 0.040690,1,-0.000119,-0.000168,-0.000207,1,-0.115720, 0.030927, 9.805919,1,1
1777931646589,   793.498,   793.498, 0.011453,-0.002768,-0.996362, 0.000116,-0.000026,-0.009958,-0.003474, 0.003816, 0.034944,1,-0.000025, 0.000491,-0.000400,1,-0.115807, 0.030957, 9.805918,1,1
1777931646599,   793.498,   793.498, 0.011453,-0.002768,-0.996362, 0.000116,-0.000026,-0.009958,-0.003474, 0.003816, 0.034944,1,-0.000025, 0.000491,-0.000400,1,-0.115807, 0.030957, 9.805918,1,1
1777931646611,   793.523,   793.518, 0.012042,-0.003152,-0.995410, 0.000123,-0.000032,-0.009953, 0.005277,-0.005199, 0.034808,1,-0.000250, 0.000253, 0.000321,1,-0.115870, 0.030903, 9.805917,1,1
1777931646621,   793.523,   793.518, 0.012042,-0.003152,-0.995410, 0.000123,-0.000032,-0.009953, 0.005277,-0.005199, 0.034808,1,-0.000250, 0.000253, 0.000321,1,-0.115870, 0.030903, 9.805917,1,1
1777931646639,   793.548,   793.548, 0.012537,-0.003177,-0.995532, 0.000127,-0.000032,-0.009954, 0.007202,-0.000167, 0.043086,1, 0.000756,-0.000302, 0.000128,1,-0.115736, 0.031014, 9.805918,1,1
1777931646649,   793.548,   793.548, 0.012537,-0.003177,-0.995532, 0.000127,-0.000032,-0.009954, 0.007202,-0.000167, 0.043086,1, 0.000756,-0.000302, 0.000128,1,-0.115736, 0.031014, 9.805918,1,1
1777931646661,   793.573,   793.568, 0.012989,-0.003214,-0.995946, 0.000127,-0.000032,-0.009964, 0.017689, 0.003772, 0.032940,1, 0.000394, 0.000807,-0.000564,1,-0.115821, 0.031032, 9.805917,1,1
1777931646671,   793.573,   793.568, 0.012989,-0.003214,-0.995946, 0.000127,-0.000032,-0.009964, 0.017689, 0.003772, 0.032940,1, 0.000394, 0.000807,-0.000564,1,-0.115821, 0.031032, 9.805917,1,1
1777931646688,   793.598,   793.598, 0.012602,-0.004032,-0.995449, 0.000128,-0.000037,-0.009955, 0.007712,-0.008398, 0.043891,1, 0.000477, 0.000130,-0.000134,1,-0.115872, 0.031160, 9.805916,1,1
1777931646699,   793.598,   793.598, 0.012602,-0.004032,-0.995449, 0.000128,-0.000037,-0.009955, 0.007712,-0.008398, 0.043891,1, 0.000477, 0.000130,-0.000134,1,-0.115872, 0.031160, 9.805916,1,1
1777931646710,   793.623,   793.618, 0.011016,-0.003448,-0.995144, 0.000112,-0.000036,-0.009956,-0.003954,-0.007523, 0.035673,1,-0.000583, 0.000194, 0.000304,1,-0.115839, 0.031043, 9.805917,1,1
1777931646720,   793.623,   793.618, 0.011016,-0.003448,-0.995144, 0.000112,-0.000036,-0.009956,-0.003954,-0.007523, 0.035673,1,-0.000583, 0.000194, 0.000304,1,-0.115839, 0.031043, 9.805917,1,1
1777931646734,   793.648,   793.643, 0.011065,-0.002549,-0.995411, 0.000110,-0.000026,-0.009955,-0.007271, 0.006058, 0.044272,1, 0.000584,-0.000705, 0.000190,1,-0.115757, 0.031070, 9.805918,1,1
1777931646744,   793.648,   793.643, 0.011065,-0.002549,-0.995411, 0.000110,-0.000026,-0.009955,-0.007271, 0.006058, 0.044272,1, 0.000584,-0.000705, 0.000190,1,-0.115757, 0.031070, 9.805918,1,1
1777931646760,   793.673,   793.668, 0.011239,-0.003035,-0.995434, 0.000114,-0.000032,-0.009956,-0.006816, 0.000548, 0.045523,1, 0.000079,-0.000345, 0.000341,1,-0.115721, 0.031083, 9.805918,1,1
1777931646770,   793.673,   793.668, 0.011239,-0.003035,-0.995434, 0.000114,-0.000032,-0.009956,-0.006816, 0.000548, 0.045523,1, 0.000079,-0.000345, 0.000341,1,-0.115721, 0.031083, 9.805918,1,1
1777931646783,   793.693,   793.693, 0.011938,-0.003246,-0.995457, 0.000117,-0.000033,-0.009959, 0.001297,-0.000574, 0.043817,1, 0.000208,-0.000005,-0.000381,1,-0.115771, 0.031262, 9.805917,1,1
1777931646793,   793.693,   793.693, 0.011938,-0.003246,-0.995457, 0.000117,-0.000033,-0.009959, 0.001297,-0.000574, 0.043817,1, 0.000208,-0.000005,-0.000381,1,-0.115771, 0.031262, 9.805917,1,1
1777931646810,   793.718,   793.718, 0.012647,-0.002875,-0.995737, 0.000126,-0.000029,-0.009958, 0.008161, 0.003094, 0.041066,1, 0.000133, 0.000612,-0.000036,1,-0.115881, 0.031290, 9.805916,1,1
1777931646820,   793.718,   793.718, 0.012647,-0.002875,-0.995737, 0.000126,-0.000029,-0.009958, 0.008161, 0.003094, 0.041066,1, 0.000133, 0.000612,-0.000036,1,-0.115881, 0.031290, 9.805916,1,1
1777931646832,   793.743,   793.738, 0.012919,-0.003704,-0.995395, 0.000131,-0.000038,-0.009959, 0.006406, 0.000126, 0.042380,1,-0.000406,-0.000003, 0.000053,1,-0.115964, 0.031215, 9.805915,1,1
1777931646842,   793.743,   793.738, 0.012919,-0.003704,-0.995395, 0.000131,-0.000038,-0.009959, 0.006406, 0.000126, 0.042380,1,-0.000406,-0.000003, 0.000053,1,-0.115964, 0.031215, 9.805915,1,1
1777931646859,   793.768,   793.768, 0.012473,-0.004430,-0.995363, 0.000127,-0.000047,-0.009953, 0.006415,-0.012255, 0.044738,1, 0.000378,-0.000782, 0.000554,1,-0.115876, 0.031205, 9.805916,1,1
1777931646869,   793.768,   793.768, 0.012473,-0.004430,-0.995363, 0.000127,-0.000047,-0.009953, 0.006415,-0.012255, 0.044738,1, 0.000378,-0.000782, 0.000554,1,-0.115876, 0.031205, 9.805916,1,1
1777931646881,   793.793,   793.788, 0.011894,-0.002965,-0.995736, 0.000120,-0.000030,-0.009961, 0.005453, 0.004056, 0.040531,1, 0.000016, 0.000025, 0.000796,1,-0.115803, 0.031140, 9.805917,1,1
1777931646891,   793.793,   793.788, 0.011894,-0.002965,-0.995736, 0.000120,-0.000030,-0.009961, 0.005453, 0.004056, 0.040531,1, 0.000016, 0.000025, 0.000796,1,-0.115803, 0.031140, 9.805917,1,1
1777931646909,   793.818,   793.818, 0.011474,-0.002492,-0.995234, 0.000115,-0.000025,-0.009956,-0.003335, 0.006750, 0.046002,1, 0.001016,-0.000299, 0.000309,1,-0.115851, 0.031220, 9.805916,1,1
1777931646919,   793.818,   793.818, 0.011474,-0.002492,-0.995234, 0.000115,-0.000025,-0.009956,-0.003335, 0.006750, 0.046002,1, 0.001016,-0.000299, 0.000309,1,-0.115851, 0.031220, 9.805916,1,1
1777931646931,   793.843,   793.838, 0.011253,-0.002832,-0.996672, 0.000110,-0.000028,-0.009967,-0.004560, 0.007207, 0.044728,1, 0.000007, 0.000448,-0.000320,1,-0.115857, 0.031252, 9.805916,1,1
