Time,GPS_ts,fGPS_ts,scaledAccelX,scaledAccelY,scaledAccelZ,deltaVelX,deltaVelY,deltaVelZ,estLinearAccelX,estLinearAccelY,estLinearAccelZ,estLinearAccel:valid,estAngularRateX,estAngularRateY,estAngularRateZ,estAngularRate:valid,estGravityX,estGravityY,estGravityZ,estGravity:valid,flag
1777934855994,  3993.457,  3993.452,-0.019882,-0.009074,-0.995264,-0.000198,-0.000091,-0.009955, 0.005216,-0.021103, 0.053936,1, 0.000581, 0.000203,-0.001441,1, 0.194202, 0.071316, 9.804467,1,0
1777934856004,  3993.702,  3993.702,-0.018058,-0.006749,-0.995467,-0.000179,-0.000066,-0.009956, 0.017321, 0.004744, 0.042266,1, 0.000100,-0.000398,-0.000008,1, 0.194426, 0.070929, 9.804466,1,0
1777934856015,  4002.942,  4002.942,-0.018058,-0.006749,-0.995467,-0.000179,-0.000066,-0.009956,-0.112821,-0.104284, 0.024341,1, 0.002611,-0.002714, 0.004087,1, 0.183654, 0.066487, 9.804705,1,0
1777934856025,  4002.942,  4002.942,-0.018058,-0.006749,-0.995467,-0.000179,-0.000066,-0.009956,-0.112821,-0.104284, 0.024341,1, 0.002611,-0.002714, 0.004087,1, 0.183654, 0.066487, 9.804705,1,0
1777934856037,  4002.967,  4002.962,-0.024363,-0.013351,-0.993047,-0.000247,-0.000131,-0.009933,-0.074971,-0.101593, 0.059999,1,-0.000788, 0.001430, 0.001404,1, 0.183401, 0.066296, 9.804710,1,0
1777934856047,  4002.967,  4002.962,-0.024363,-0.013351,-0.993047,-0.000247,-0.000131,-0.009933,-0.074971,-0.101593, 0.059999,1,-0.000788, 0.001430, 0.001404,1, 0.183401, 0.066296, 9.804710,1,0
1777934856065,  4002.992,  4002.992,-0.013352,-0.007179,-0.998551,-0.000139,-0.000084,-0.009994, 0.052372,-0.004119, 0.012271,1,-0.002328, 0.002343,-0.001603,1, 0.183233, 0.066208, 9.804714,1,0
1777934856075,  4002.992,  4002.992,-0.013352,-0.007179,-0.998551,-0.000139,-0.000084,-0.009994, 0.052372,-0.004119, 0.012271,1,-0.002328, 0.002343,-0.001603,1, 0.183233, 0.066208, 9.804714,1,0
1777934856087,  4003.017,  4003.012,-0.000556, 0.000689,-0.996660,-0.000006, 0.000040,-0.009957, 0.137467, 0.121679, 0.052497,1, 0.002539, 0.000054, 0.000686,1, 0.183462, 0.066412, 9.804708,1,0
1777934856097,  4003.017,  4003.012,-0.000556, 0.000689,-0.996660,-0.000006, 0.000040,-0.009957, 0.137467, 0.121679, 0.052497,1, 0.002539, 0.000054, 0.000686,1, 0.183462, 0.066412, 9.804708,1,0
1777934856114,  4003.042,  4003.042,-0.013517,-0.018804,-0.995972,-0.000131,-0.000185,-0.009967, 0.050847,-0.117516, 0.037555,1,-0.003641,-0.001456, 0.002079,1, 0.183450, 0.066774, 9.804707,1,0
1777934856124,  4003.042,  4003.042,-0.013517,-0.018804,-0.995972,-0.000131,-0.000185,-0.009967, 0.050847,-0.117516, 0.037555,1,-0.003641,-0.001456, 0.002079,1, 0.183450, 0.066774, 9.804707,1,0
1777934856136,  4003.067,  4003.062,-0.024217,-0.020953,-0.996915,-0.000236,-0.000204,-0.009958,-0.014383,-0.125597, 0.079079,1, 0.001228, 0.001295,-0.002668,1, 0.183377, 0.066641, 9.804708,1,0
1777934856146,  4003.067,  4003.062,-0.024217,-0.020953,-0.996915,-0.000236,-0.000204,-0.009958,-0.014383,-0.125597, 0.079079,1, 0.001228, 0.001295,-0.002668,1, 0.183377, 0.066641, 9.804708,1,0
1777934856160,  4003.092,  4003.087,-0.020968,-0.011763,-0.994166,-0.000209,-0.000127,-0.009942,-0.022363,-0.048448, 0.055273,1,-0.000736, 0.000691,-0.007087,1, 0.183242, 0.066893, 9.804709,1,0
1777934856170,  4003.092,  4003.087,-0.020968,-0.011763,-0.994166,-0.000209,-0.000127,-0.009942,-0.022363,-0.048448, 0.055273,1,-0.000736, 0.000691,-0.007087,1, 0.183242, 0.066893, 9.804709,1,0
1777934856186,  4003.117,  4003.112,-0.018043, 0.004636,-0.998024,-0.000184, 0.000036,-0.009996,-0.008041, 0.081824, 0.014646,1,-0.001848,-0.000829,-0.005395,1, 0.183308, 0.066772, 9.804709,1,0
1777934856196,  4003.117,  4003.112,-0.018043, 0.004636,-0.998024,-0.000184, 0.000036,-0.009996,-0.008041, 0.081824, 0.014646,1,-0.001848,-0.000829,-0.005395,1, 0.183308, 0.066772, 9.804709,1,0
1777934856209,  4003.137,  4003.137,-0.020711, 0.002088,-0.994015,-0.000205, 0.000032,-0.009933,-0.019582, 0.088552, 0.056738,1, 0.001872,-0.000217,-0.002482,1, 0.183533, 0.068138, 9.804696,1,0
1777934856219,  4003.137,  4003.137,-0.020711, 0.002088,-0.994015,-0.000205, 0.000032,-0.009933,-0.019582, 0.088552, 0.056738,1, 0.001872,-0.000217,-0.002482,1, 0.183533, 0.068138, 9.804696,1,0
1777934856235,  4003.162,  4003.162,-0.020798,-0.004521,-0.999661,-0.000209,-0.000044,-0.010000,-0.020586, 0.024029, 0.001375,1,-0.000761, 0.000240, 0.000024,1, 0.183366, 0.068344, 9.804697,1,0
1777934856245,  4003.162,  4003.162,-0.020798,-0.004521,-0.999661,-0.000209,-0.000044,-0.010000,-0.020586, 0.024029, 0.001375,1,-0.000761, 0.000240, 0.000024,1, 0.183366, 0.068344, 9.804697,1,0
1777934856257,  4003.187,  4003.182,-0.021576,-0.006313,-0.996218,-0.000218,-0.000060,-0.009959,-0.043368, 0.020581, 0.069920,1, 0.000588,-0.000060, 0.000909,1, 0.183609, 0.068199, 9.804694,1,0
1777934856267,  4003.187,  4003.182,-0.021576,-0.006313,-0.996218,-0.000218,-0.000060,-0.009959,-0.043368, 0.020581, 0.069920,1, 0.000588,-0.000060, 0.000909,1, 0.183609, 0.068199, 9.804694,1,0
1777934856285,  4003.212,  4003.212,-0.022052,-0.006546,-0.994800,-0.000222,-0.000068,-0.009956,-0.032713, 0.004356, 0.049041,1,-0.000444, 0.000477, 0.000693,1, 0.183529, 0.068540, 9.804693,1,0
1777934856295,  4003.212,  4003.212,-0.022052,-0.006546,-0.994800,-0.000222,-0.000068,-0.009956,-0.032713, 0.004356, 0.049041,1,-0.000444, 0.000477, 0.000693,1, 0.183529, 0.068540, 9.804693,1,0
1777934856307,  4003.237,  4003.232,-0.019485,-0.006707,-0.996438,-0.000194,-0.000069,-0.009966,-0.002982,-0.002036, 0.032726,1, 0.000677, 0.000244, 0.001015,1, 0.183515, 0.068642, 9.804692,1,0
1777934856317,  4003.237,  4003.232,-0.019485,-0.006707,-0.996438,-0.000194,-0.000069,-0.009966,-0.002982,-0.002036, 0.032726,1, 0.000677, 0.000244, 0.001015,1, 0.183515, 0.068642, 9.804692,1,0
1777934856335,  4003.262,  4003.262,-0.018055,-0.008262,-0.995100,-0.000180,-0.000078,-0.009947, 0.006509,-0.012403, 0.046090,1, 0.000392,-0.000809, 0.000070,1, 0.183590, 0.068635, 9.804691,1,0
1777934856345,  4003.262,  4003.262,-0.018055,-0.008262,-0.995100,-0.000180,-0.000078,-0.009947, 0.006509,-0.012403, 0.046090,1, 0.000392,-0.000809, 0.000070,1, 0.183590, 0.068635, 9.804691,1,0
1777934856357,  4003.287,  4003.282,-0.017644,-0.009841,-0.995333,-0.000177,-0.000098,-0.009952, 0.007023,-0.036266, 0.039528,1,-0.000676, 0.000621, 0.000237,1, 0.183493, 0.068620, 9.804693,1,0
1777934856367,  4003.287,  4003.282,-0.017644,-0.009841,-0.995333,-0.000177,-0.000098,-0.009952, 0.007023,-0.036266, 0.039528,1,-0.000676, 0.000621, 0.000237,1, 0.183493, 0.068620, 9.804693,1,0
1777934856384,  4003.312,  4003.312,-0.017654,-0.008661,-0.995680,-0.000177,-0.000087,-0.009953, 0.010396,-0.016383, 0.040409,1,-0.000074, 0.001028,-0.001314,1, 0.183489, 0.068551, 9.804693,1,0
1777934856394,  4003.312,  4003.312,-0.017654,-0.008661,-0.995680,-0.000177,-0.000087,-0.009953, 0.010396,-0.016383, 0.040409,1,-0.000074, 0.001028,-0.001314,1, 0.183489, 0.068551, 9.804693,1,0
1777934856406,  4003.337,  4003.332,-0.016669,-0.006438,-0.996027,-0.000165,-0.000064,-0.009964, 0.020662,-0.001970, 0.033788,1, 0.000206,-0.000223,-0.001656,1, 0.183945, 0.067623, 9.804691,1,0
1777934856416,  4003.337,  4003.332,-0.016669,-0.006438,-0.996027,-0.000165,-0.000064,-0.009964, 0.020662,-0.001970, 0.033788,1, 0.000206,-0.000223,-0.001656,1, 0.183945, 0.067623, 9.804691,1,0
1777934856430,  4003.362,  4003.357,-0.017518,-0.006037,-0.995639,-0.000173,-0.000062,-0.009960, 0.012219, 0.008290, 0.040812,1,-0.000648,-0.000583,-0.001485,1, 0.184027, 0.067469, 9.804691,1,0
1777934856440,  4003.362,  4003.357,-0.017518,-0.006037,-0.995639,-0.000173,-0.000062,-0.009960, 0.012219, 0.008290, 0.040812,1,-0.000648,-0.000583,-0.001485,1, 0.184027, 0.067469, 9.804691,1,0
1777934856456,  4003.387,  4003.382,-0.018612,-0.007257,-0.995849,-0.000184,-0.000073,-0.009959, 0.006030, 0.004525, 0.039475,1, 0.000057, 0.001048,-0.001369,1, 0.183983, 0.067398, 9.804692,1,0
1777934856466,  4003.387,  4003.382,-0.018612,-0.007257,-0.995849,-0.000184,-0.000073,-0.009959, 0.006030, 0.004525, 0.039475,1, 0.000057, 0.001048,-0.001369,1, 0.183983, 0.067398, 9.804692,1,0
1777934856479,  4003.407,  4003.407,-0.019166,-0.005810,-0.995851,-0.000191,-0.000059,-0.009956,-0.003956, 0.010362, 0.038732,1,-0.000293,-0.000503,-0.000806,1, 0.184011, 0.067325, 9.804692,1,0
1777934856489,  4003.407,  4003.407,-0.019166,-0.005810,-0.995851,-0.000191,-0.000059,-0.009956,-0.003956, 0.010362, 0.038732,1,-0.000293,-0.000503,-0.000806,1, 0.184011, 0.067325, 9.804692,1,0
1777934856505,  4003.432,  4003.432,-0.019352,-0.005312,-0.995822,-0.000191,-0.000053,-0.009961,-0.005736, 0.015228, 0.039018,1, 0.000724,-0.000328,-0.000742,1, 0.184057, 0.067347, 9.804691,1,0
1777934856515,  4003.432,  4003.432,-0.019352,-0.005312,-0.995822,-0.000191,-0.000053,-0.009961,-0.005736, 0.015228, 0.039018,1, 0.000724,-0.000328,-0.000742,1, 0.184057, 0.067347, 9.804691,1,0
1777934856527,  4003.457,  4003.452,-0.020492,-0.006134,-0.995914,-0.000205,-0.000064,-0.009959,-0.008758, 0.013296, 0.041575,1,-0.000048,-0.000417,-0.000067,1, 0.184023, 0.067353, 9.804692,1,0
1777934856537,  4003.457,  4003.452,-0.020492,-0.006134,-0.995914,-0.000205,-0.000064,-0.009959,-0.008758, 0.013296, 0.041575,1,-0.000048,-0.000417,-0.000067,1, 0.184023, 0.067353, 9.804692,1,0
1777934856555,  4003.482,  4003.482,-0.020366,-0.007162,-0.995335,-0.000207,-0.000071,-0.009953,-0.015653,-0.002859, 0.043787,1, 0.000256, 0.000454,-0.000495,1, 0.184055, 0.067384, 9.804691,1,0
1777934856565,  4003.482,  4003.482,-0.020366,-0.007162,-0.995335,-0.000207,-0.000071,-0.009953,-0.015653,-0.002859, 0.043787,1, 0.000256, 0.000454,-0.000495,1, 0.184055, 0.067384, 9.804691,1,0
1777934856577,  4003.507,  4003.502,-0.020664,-0.007292,-0.995974,-0.000206,-0.000074,-0.009960,-0.017893,-0.000617, 0.041772,1,-0.000284, 0.000548,-0.000675,1, 0.184108, 0.067346, 9.804690,1,0
1777934856587,  4003.507,  4003.502,-0.020664,-0.007292,-0.995974,-0.000206,-0.000074,-0.009960,-0.017893,-0.000617, 0.041772,1,-0.000284, 0.000548,-0.000675,1, 0.184108, 0.067346, 9.804690,1,0
1777934856605,  4003.532,  4003.532,-0.019007,-0.006702,-0.995939,-0.000190,-0.000065,-0.009961,-0.002239, 0.001448, 0.037870,1, 0.000258,-0.000461,-0.000258,1, 0.184174, 0.067174, 9.804690,1,0
1777934856615,  4003.532,  4003.532,-0.019007,-0.006702,-0.995939,-0.000190,-0.000065,-0.009961,-0.002239, 0.001448, 0.037870,1, 0.000258,-0.000461,-0.000258,1, 0.184174, 0.067174, 9.804690,1,0
1777934856627,  4003.557,  4003.552,-0.018775,-0.006452,-0.995364,-0.000187,-0.000064,-0.009956, 0.005751, 0.006563, 0.040640,1,-0.000493,-0.000625,-0.000218,1, 0.184168, 0.067127, 9.804690,1,0
1777934856637,  4003.557,  4003.552,-0.018775,-0.006452,-0.995364,-0.000187,-0.000064,-0.009956, 0.005751, 0.006563, 0.040640,1,-0.000493,-0.000625,-0.000218,1, 0.184168, 0.067127, 9.804690,1,0
1777934856654,  4003.582,  4003.582,-0.018164,-0.006156,-0.996287,-0.000182,-0.000062,-0.009963, 0.005859, 0.006851, 0.034453,1, 0.000110, 0.000541, 0.000143,1, 0.183971, 0.067224, 9.804694,1,0
1777934856664,  4003.582,  4003.582,-0.018164,-0.006156,-0.996287,-0.000182,-0.000062,-0.009963, 0.005859, 0.006851, 0.034453,1, 0.000110, 0.000541, 0.000143,1, 0.183971, 0.067224, 9.804694,1,0
1777934856676,  4003.607,  4003.602,-0.017821,-0.007120,-0.996325,-0.000177,-0.000071,-0.009958, 0.009612, 0.009411, 0.048657,1, 0.000433, 0.000392, 0.000290,1, 0.184014, 0.067250, 9.804693,1,0
1777934856686,  4003.607,  4003.602,-0.017821,-0.007120,-0.996325,-0.000177,-0.000071,-0.009958, 0.009612, 0.009411, 0.048657,1, 0.000433, 0.000392, 0.000290,1, 0.184014, 0.067250, 9.804693,1,0
1777934856700,  4003.632,  4003.627,-0.017832,-0.007412,-0.995788,-0.000177,-0.000073,-0.009959, 0.009079,-0.005335, 0.039347,1, 0.000266, 0.000683,-0.000377,1, 0.183934, 0.067358, 9.804693,1,0
1777934856710,  4003.632,  4003.627,-0.017832,-0.007412,-0.995788,-0.000177,-0.000073,-0.009959, 0.009079,-0.005335, 0.039347,1, 0.000266, 0.000683,-0.000377,1, 0.183934, 0.067358, 9.804693,1,0
1777934856726,  4003.657,  4003.652,-0.018709,-0.008380,-0.995469,-0.000185,-0.000083,-0.009960, 0.005043,-0.011081, 0.035085,1, 0.000235, 0.000201,-0.000802,1, 0.183859, 0.067422, 9.804694,1,0
1777934856736,  4003.657,  4003.652,-0.018709,-0.008380,-0.995469,-0.000185,-0.000083,-0.009960, 0.005043,-0.011081, 0.035085,1, 0.000235, 0.000201,-0.000802,1, 0.183859, 0.067422, 9.804694,1,0
1777934856749,  4003.677,  4003.677,-0.018094,-0.007306,-0.995591,-0.000180,-0.000071,-0.009959, 0.006331,-0.004277, 0.041282,1,-0.000611,-0.000012,-0.000533,1, 0.183771, 0.067348, 9.804697,1,0
1777934856759,  4003.677,  4003.677,-0.018094,-0.007306,-0.995591,-0.000180,-0.000071,-0.009959, 0.006331,-0.004277, 0.041282,1,-0.000611,-0.000012,-0.000533,1, 0.183771, 0.067348, 9.804697,1,0
1777934856775,  4003.702,  4003.702,-0.018368,-0.006835,-0.995842,-0.000186,-0.000068,-0.009958, 0.003632, 0.000370, 0.038826,1,-0.000118, 0.000019,-0.000725,1, 0.183758, 0.067397, 9.804697,1,0
1777934856786,  4003.702,  4003.702,-0.018368,-0.006835,-0.995842,-0.000186,-0.000068,-0.009958, 0.003632, 0.000370, 0.038826,1,-0.000118, 0.000019,-0.000725,1, 0.183758, 0.067397, 9.804697,1,0
1777934856797,  4003.727,  4003.722,-0.018944,-0.005770,-0.995818,-0.000189,-0.000060,-0.009958, 0.001350, 0.000892, 0.042585,1, 0.000677, 0.000010,-0.000903,1, 0.183602, 0.067437, 9.804699,1,0
1777934856808,  4003.727,  4003.722,-0.018944,-0.005770,-0.995818,-0.000189,-0.000060,-0.009958, 0.001350, 0.000892, 0.042585,1, 0.000677, 0.000010,-0.000903,1, 0.183602, 0.067437, 9.804699,1,0
1777934856825,  4003.752,  4003.752,-0.019391,-0.005673,-0.995373,-0.000193,-0.000057,-0.009956,-0.006606, 0.011832, 0.043426,1,-0.000095,-0.000236,-0.000865,1, 0.183564, 0.067467, 9.804700,1,0
1777934856835,  4003.752,  4003.752,-0.019391,-0.005673,-0.995373,-0.000193,-0.000057,-0.009956,-0.006606, 0.011832, 0.043426,1,-0.000095,-0.000236,-0.000865,1, 0.183564, 0.067467, 9.804700,1,0
1777934856847,  4003.777,  4003.772,-0.019687,-0.006872,-0.995657,-0.000196,-0.000068,-0.009958,-0.008563, 0.000801, 0.036060,1,-0.000091, 0.000065,-0.000890,1, 0.183524, 0.067566, 9.804700,1,0
1777934856857,  4003.777,  4003.772,-0.019687,-0.006872,-0.995657,-0.000196,-0.000068,-0.009958,-0.008563, 0.000801, 0.036060,1,-0.000091, 0.000065,-0.000890,1, 0.183524, 0.067566, 9.804700,1,0
1777934856875,  4003.802,  4003.802,-0.019187,-0.007061,-0.995813,-0.000192,-0.000070,-0.009958,-0.004631,-0.001639, 0.039108,1, 0.000779, 0.001214,-0.001351,1, 0.183492, 0.067630, 9.804700,1,0
1777934856885,  4003.802,  4003.802,-0.019187,-0.007061,-0.995813,-0.000192,-0.000070,-0.009958,-0.004631,-0.001639, 0.039108,1, 0.000779, 0.001214,-0.001351,1, 0.183492, 0.067630, 9.804700,1,0
1777934856897,  4003.827,  4003.822,-0.018302,-0.005769,-0.996353,-0.000183,-0.000060,-0.009960,-0.001134, 0.009026, 0.041865,1,-0.000879, 0.000298,-0.000713,1, 0.183450, 0.067558, 9.804701,1,0
1777934856907,  4003.827,  4003.822,-0.018302,-0.005769,-0.996353,-0.000183,-0.000060,-0.009960,-0.001134, 0.009026, 0.041865,1,-0.000879, 0.000298,-0.000713,1, 0.183450, 0.067558, 9.804701,1,0
1777934856924,  4003.852,  4003.852,-0.018479,-0.006388,-0.996042,-0.000181,-0.000063,-0.009959, 0.002307, 0.004877, 0.036863,1,-0.000385,-0.000533,-0.000677,1, 0.183538, 0.067509, 9.804700,1,0
1777934856934,  4003.852,  4003.852,-0.018479,-0.006388,-0.996042,-0.000181,-0.000063,-0.009959, 0.002307, 0.004877, 0.036863,1,-0.000385,-0.000533,-0.000677,1, 0.183538, 0.067509, 9.804700,1,0
1777934856946,  4003.877,  4003.872,-0.018128,-0.005938,-0.995947,-0.000181,-0.000058,-0.009959, 0.005178, 0.004227, 0.041059,1,-0.000889, 0.000565,-0.000544,1, 0.183469, 0.067462, 9.804702,1,0
1777934856956,  4003.877,  4003.872,-0.018128,-0.005938,-0.995947,-0.000181,-0.000058,-0.009959, 0.005178, 0.004227, 0.041059,1,-0.000889, 0.000565,-0.000544,1, 0.183469, 0.067462, 9.804702,1,0
1777934856970,  4003.902,  4003.897,-0.018796,-0.006934,-0.995901,-0.000188,-0.000069,-0.009959,-0.000925,-0.000473, 0.038254,1,-0.000018,-0.000343,-0.000895,1, 0.183410, 0.067526, 9.804702,1,0
1777934856980,  4003.902,  4003.897,-0.018796,-0.006934,-0.995901,-0.000188,-0.000069,-0.009959,-0.000925,-0.000473, 0.038254,1,-0.000018,-0.000343,-0.000895,1, 0.183410, 0.067526, 9.804702,1,0
1777934856996,  4003.927,  4003.922,-0.018773,-0.007510,-0.996100,-0.000189,-0.000074,-0.009954,-0.004888, 0.001819, 0.043292,1, 0.000129,-0.000295, 0.000215,1, 0.183537, 0.067301, 9.804702,1,0
1777934857006,  4003.927,  4003.922,-0.018773,-0.007510,-0.996100,-0.000189,-0.000074,-0.009954,-0.004888, 0.001819, 0.043292,1, 0.000129,-0.000295, 0.000215,1, 0.183537, 0.067301, 9.804702,1,0
1777934857019,  4003.947,  4003.947,-0.018454,-0.007182,-0.995618,-0.000185,-0.000072,-0.009956, 0.002520,-0.003151, 0.041024,1,-0.000387,-0.000673,-0.000360,1, 0.183513, 0.067268, 9.804702,1,0
1777934857029,  4003.947,  4003.947,-0.018454,-0.007182,-0.995618,-0.000185,-0.000072,-0.009956, 0.002520,-0.003151, 0.041024,1,-0.000387,-0.000673,-0.000360,1, 0.183513, 0.067268, 9.804702,1,0
1777934857045,  4003.972,  4003.972,-0.017863,-0.007250,-0.996079,-0.000177,-0.000073,-0.009959, 0.008412,-0.003796, 0.036502,1, 0.000500,-0.000619,-0.000941,1, 0.183603, 0.067318, 9.804700,1,0
1777934857056,  4003.972,  4003.972,-0.017863,-0.007250,-0.996079,-0.000177,-0.000073,-0.009959, 0.008412,-0.003796, 0.036502,1, 0.000500,-0.000619,-0.000941,1, 0.183603, 0.067318, 9.804700,1,0
1777934857067,  4003.997,  4003.992,-0.017981,-0.006784,-0.996138,-0.000179,-0.000067,-0.009962, 0.011538, 0.006511, 0.039763,1,-0.000497,-0.000622,-0.000419,1, 0.183549, 0.067256, 9.804702,1,0
1777934857078,  4003.997,  4003.992,-0.017981,-0.006784,-0.996138,-0.000179,-0.000067,-0.009962, 0.011538, 0.006511, 0.039763,1,-0.000497,-0.000622,-0.000419,1, 0.183549, 0.067256, 9.804702,1,0
1777934857095,  4004.022,  4004.022,-0.018549,-0.006763,-0.995971,-0.000183,-0.000070,-0.009960, 0.001577, 0.001050, 0.037566,1,-0.000136,-0.000243,-0.000819,1, 0.183488, 0.067369, 9.804702,1,0
1777934857105,  4004.022,  4004.022,-0.018549,-0.006763,-0.995971,-0.000183,-0.000070,-0.009960, 0.001577, 0.001050, 0.037566,1,-0.000136,-0.000243,-0.000819,1, 0.183488, 0.067369, 9.804702,1,0
1777934857117,  4004.047,  4004.042,-0.019455,-0.007495,-0.995690,-0.000196,-0.000075,-0.009957,-0.007795,-0.005703, 0.044018,1, 0.000026,-0.000416,-0.001135,1, 0.183532, 0.067444, 9.804701,1,0
1777934857127,  4004.047,  4004.042,-0.019455,-0.007495,-0.995690,-0.000196,-0.000075,-0.009957,-0.007795,-0.005703, 0.044018,1, 0.000026,-0.000416,-0.001135,1, 0.183532, 0.067444, 9.804701,1,0
1777934857145,  4004.072,  4004.072,-0.019891,-0.006775,-0.995879,-0.000198,-0.000068,-0.009957,-0.011524, 0.000860, 0.038461,1,-0.001129,-0.000441,-0.000894,1, 0.183552, 0.067263, 9.804702,1,0
1777934857155,  4004.072,  4004.072,-0.019891,-0.006775,-0.995879,-0.000198,-0.000068,-0.009957,-0.011524, 0.000860, 0.038461,1,-0.001129,-0.000441,-0.000894,1, 0.183552, 0.067263, 9.804702,1,0
1777934857167,  4004.097,  4004.092,-0.019287,-0.005341,-0.995526,-0.000194,-0.000052,-0.009957,-0.008540, 0.009043, 0.037409,1, 0.000319, 0.000100,-0.000938,1, 0.183586, 0.067210, 9.804701,1,0
1777934857177,  4004.097,  4004.092,-0.019287,-0.005341,-0.995526,-0.000194,-0.000052,-0.009957,-0.008540, 0.009043, 0.037409,1, 0.000319, 0.000100,-0.000938,1, 0.183586, 0.067210, 9.804701,1,0
1777934857194,  4004.122,  4004.122,-0.018812,-0.005545,-0.995784,-0.000191,-0.000053,-0.009957,-0.000812, 0.012874, 0.039391,1, 0.000503,-0.000489,-0.000539,1, 0.183692, 0.067263, 9.804699,1,0
1777934857204,  4004.122,  4004.122,-0.018812,-0.005545,-0.995784,-0.000191,-0.000053,-0.009957,-0.000812, 0.012874, 0.039391,1, 0.000503,-0.000489,-0.000539,1, 0.183692, 0.067263, 9.804699,1,0
1777934857216,  4004.147,  4004.142,-0.018492,-0.006818,-0.995604,-0.000187,-0.000070,-0.009955,-0.005197, 0.003774, 0.040112,1,-0.000440, 0.000673,-0.000031,1, 0.183600, 0.067274, 9.804700,1,0
1777934857226,  4004.147,  4004.142,-0.018492,-0.006818,-0.995604,-0.000187,-0.000070,-0.009955,-0.005197, 0.003774, 0.040112,1,-0.000440, 0.000673,-0.000031,1, 0.183600, 0.067274, 9.804700,1,0
1777934857240,  4004.172,  4004.167,-0.018720,-0.007623,-0.996098,-0.000187,-0.000076,-0.009960, 0.000026,-0.007509, 0.036318,1,-0.000161,-0.000047,-0.000014,1, 0.183611, 0.067239, 9.804701,1,0
1777934857250,  4004.172,  4004.167,-0.018720,-0.007623,-0.996098,-0.000187,-0.000076,-0.009960, 0.000026,-0.007509, 0.036318,1,-0.000161,-0.000047,-0.000014,1, 0.183611, 0.067239, 9.804701,1,0
1777934857266,  4004.197,  4004.192,-0.018031,-0.007091,-0.996035,-0.000183,-0.000071,-0.009960, 0.002503,-0.000883, 0.039624,1, 0.000085, 0.000740,-0.000215,1, 0.183540, 0.067256, 9.804702,1,0
1777934857276,  4004.197,  4004.192,-0.018031,-0.007091,-0.996035,-0.000183,-0.000071,-0.009960, 0.002503,-0.000883, 0.039624,1, 0.000085, 0.000740,-0.000215,1, 0.183540, 0.067256, 9.804702,1,0
1777934857289,  4004.217,  4004.217,-0.017504,-0.007435,-0.995488,-0.000177,-0.000075,-0.009955, 0.011786,-0.005761, 0.042300,1,-0.000579, 0.000108,-0.000533,1, 0.183442, 0.067129, 9.804705,1,0
1777934857299,  4004.217,  4004.217,-0.017504,-0.007435,-0.995488,-0.000177,-0.000075,-0.009955, 0.011786,-0.005761, 0.042300,1,-0.000579, 0.000108,-0.000533,1, 0.183442, 0.067129, 9.804705,1,0
1777934857316,  4004.247,  4004.242,-0.018558,-0.006609,-0.995673,-0.000184,-0.000068,-0.009956, 0.010532,-0.000700, 0.040369,1,-0.000200, 0.000185,-0.000605,1, 0.183333, 0.067067, 9.804707,1,0
1777934857326,  4004.247,  4004.242,-0.018558,-0.006609,-0.995673,-0.000184,-0.000068,-0.009956, 0.010532,-0.000700, 0.040369,1,-0.000200, 0.000185,-0.000605,1, 0.183333, 0.067067, 9.804707,1,0
1777934857338,  4004.267,  4004.262,-0.018326,-0.006549,-0.995226,-0.000183,-0.000066,-0.009956, 0.005755, 0.002153, 0.035765,1,-0.000051, 0.000760,-0.000515,1, 0.183305, 0.067064, 9.804708,1,0
1777934857348,  4004.267,  4004.262,-0.018326,-0.006549,-0.995226,-0.000183,-0.000066,-0.009956, 0.005755, 0.002153, 0.035765,1,-0.000051, 0.000760,-0.000515,1, 0.183305, 0.067064, 9.804708,1,0
1777934857365,  4004.292,  4004.292,-0.018771,-0.006445,-0.995788,-0.000190,-0.000062,-0.009959,-0.000772, 0.004008, 0.039363,1, 0.000136, 0.000316,-0.000207,1, 0.183301, 0.067218, 9.804707,1,0
1777934857375,  4004.292,  4004.292,-0.018771,-0.006445,-0.995788,-0.000190,-0.000062,-0.009959,-0.000772, 0.004008, 0.039363,1, 0.000136, 0.000316,-0.000207,1, 0.183301, 0.067218, 9.804707,1,0
1777934857387,  4004.317,  4004.312,-0.019377,-0.006470,-0.995927,-0.000194,-0.000064,-0.009960,-0.012955,-0.000116, 0.042625,1, 0.000509, 0.000194,-0.000642,1, 0.183317, 0.067287, 9.804706,1,0
1777934857397,  4004.317,  4004.312,-0.019377,-0.006470,-0.995927,-0.000194,-0.000064,-0.009960,-0.012955,-0.000116, 0.042625,1, 0.000509, 0.000194,-0.000642,1, 0.183317, 0.067287, 9.804706,1,0
1777934857415,  4004.342,  4004.342,-0.018477,-0.006646,-0.995678,-0.000189,-0.000069,-0.009959, 0.002056, 0.001880, 0.040445,1,-0.000547,-0.000173,-0.000198,1, 0.183257, 0.067037, 9.804708,1,0
1777934857425,  4004.342,  4004.342,-0.018477,-0.006646,-0.995678,-0.000189,-0.000069,-0.009959, 0.002056, 0.001880, 0.040445,1,-0.000547,-0.000173,-0.000198,1, 0.183257, 0.067037, 9.804708,1,0
1777934857437,  4004.367,  4004.362,-0.018443,-0.006956,-0.995948,-0.000189,-0.000066,-0.009960,-0.001685,-0.003043, 0.035378,1,-0.000215,-0.000517,-0.000837,1, 0.183299, 0.067035, 9.804708,1,0
1777934857447,  4004.367,  4004.362,-0.018443,-0.006956,-0.995948,-0.000189,-0.000066,-0.009960,-0.001685,-0.003043, 0.035378,1,-0.000215,-0.000517,-0.000837,1, 0.183299, 0.067035, 9.804708,1,0
1777934857464,  4004.392,  4004.392,-0.018847,-0.006298,-0.995321,-0.000189,-0.000064,-0.009951,-0.001479, 0.005189, 0.043939,1,-0.000056, 0.000070,-0.000636,1, 0.183345, 0.066954, 9.804708,1,0
1777934857474,  4004.392,  4004.392,-0.018847,-0.006298,-0.995321,-0.000189,-0.000064,-0.009951,-0.001479, 0.005189, 0.043939,1,-0.000056, 0.000070,-0.000636,1, 0.183345, 0.066954, 9.804708,1,0
1777934857486,  4004.417,  4004.412,-0.019092,-0.006171,-0.995211,-0.000190,-0.000063,-0.009953,-0.001657,-0.003626, 0.039489,1,-0.000582, 0.000075,-0.000032,1, 0.183347, 0.066900, 9.804708,1,0
1777934857496,  4004.417,  4004.412,-0.019092,-0.006171,-0.995211,-0.000190,-0.000063,-0.009953,-0.001657,-0.003626, 0.039489,1,-0.000582, 0.000075,-0.000032,1, 0.183347, 0.066900, 9.804708,1,0
1777934857510,  4004.442,  4004.437,-0.018495,-0.006916,-0.996166,-0.000187,-0.000069,-0.009962, 0.001931,-0.000796, 0.035655,1, 0.000153, 0.000177,-0.000412,1, 0.183301, 0.067033, 9.804708,1,0
1777934857520,  4004.442,  4004.437,-0.018495,-0.006916,-0.996166,-0.000187,-0.000069,-0.009962, 0.001931,-0.000796, 0.035655,1, 0.000153, 0.000177,-0.000412,1, 0.183301, 0.067033, 9.804708,1,0
1777934857536,  4004.467,  4004.462,-0.018955,-0.006504,-0.995639,-0.000191,-0.000066,-0.009957, 0.002022,-0.002882, 0.041546,1,-0.000087,-0.000139,-0.001476,1, 0.183263, 0.066960, 9.804708,1,0
1777934857546,  4004.467,  4004.462,-0.018955,-0.006504,-0.995639,-0.000191,-0.000066,-0.009957, 0.002022,-0.002882, 0.041546,1,-0.000087,-0.000139,-0.001476,1, 0.183263, 0.066960, 9.804708,1,0
1777934857559,  4004.487,  4004.487,-0.018760,-0.006991,-0.995522,-0.000188,-0.000070,-0.009957,-0.000541,-0.001594, 0.041967,1, 0.000621, 0.000276,-0.000105,1, 0.183427, 0.066988, 9.804706,1,0
1777934857570,  4004.487,  4004.487,-0.018760,-0.006991,-0.995522,-0.000188,-0.000070,-0.009957,-0.000541,-0.001594, 0.041967,1, 0.000621, 0.000276,-0.000105,1, 0.183427, 0.066988, 9.804706,1,0
1777934857586,  4004.517,  4004.512,-0.018133,-0.006268,-0.996423,-0.000183,-0.000066,-0.009964, 0.001634,-0.001103, 0.044936,1, 0.000167,-0.000712,-0.000447,1, 0.183427, 0.067042, 9.804706,1,0
1777934857596,  4004.517,  4004.512,-0.018133,-0.006268,-0.996423,-0.000183,-0.000066,-0.009964, 0.001634,-0.001103, 0.044936,1, 0.000167,-0.000712,-0.000447,1, 0.183427, 0.067042, 9.804706,1,0
1777934857608,  4004.537,  4004.532,-0.018641,-0.006967,-0.995580,-0.000186,-0.000069,-0.009957,-0.001267,-0.004406, 0.040520,1,-0.000116,-0.000162, 0.000006,1, 0.183532, 0.066970, 9.804704,1,0
1777934857618,  4004.537,  4004.532,-0.018641,-0.006967,-0.995580,-0.000186,-0.000069,-0.009957,-0.001267,-0.004406, 0.040520,1,-0.000116,-0.000162, 0.000006,1, 0.183532, 0.066970, 9.804704,1,0
1777934857635,  4004.562,  4004.562,-0.018825,-0.007882,-0.995562,-0.000189,-0.000077,-0.009957,-0.001111,-0.010336, 0.041579,1, 0.000070,-0.000267,-0.000436,1, 0.183506, 0.066960, 9.804705,1,0
1777934857645,  4004.562,  4004.562,-0.018825,-0.007882,-0.995562,-0.000189,-0.000077,-0.009957,-0.001111,-0.010336, 0.041579,1, 0.000070,-0.000267,-0.000436,1, 0.183506, 0.066960, 9.804705,1,0
1777934857657,  4004.587,  4004.582,-0.019001,-0.006803,-0.995601,-0.000187,-0.000067,-0.009954,-0.004016, 0.001238, 0.043320,1, 0.000286,-0.000251,-0.000081,1, 0.183542, 0.067039, 9.804703,1,0
1777934857667,  4004.587,  4004.582,-0.019001,-0.006803,-0.995601,-0.000187,-0.000067,-0.009954,-0.004016, 0.001238, 0.043320,1, 0.000286,-0.000251,-0.000081,1, 0.183542, 0.067039, 9.804703,1,0
1777934857685,  4004.612,  4004.612,-0.018343,-0.005952,-0.995943,-0.000184,-0.000059,-0.009960, 0.003614, 0.008603, 0.037837,1,-0.000733, 0.000103,-0.000866,1, 0.183494, 0.066953, 9.804705,1,0
1777934857695,  4004.612,  4004.612,-0.018343,-0.005952,-0.995943,-0.000184,-0.000059,-0.009960, 0.003614, 0.008603, 0.037837,1,-0.000733, 0.000103,-0.000866,1, 0.183494, 0.066953, 9.804705,1,0
1777934857707,  4004.637,  4004.632,-0.018648,-0.006719,-0.995546,-0.000188,-0.000066,-0.009957, 0.003539, 0.003483, 0.038625,1,-0.000064, 0.000320,-0.000969,1, 0.183433, 0.066949, 9.804706,1,0
1777934857717,  4004.637,  4004.632,-0.018648,-0.006719,-0.995546,-0.000188,-0.000066,-0.009957, 0.003539, 0.003483, 0.038625,1,-0.000064, 0.000320,-0.000969,1, 0.183433, 0.066949, 9.804706,1,0
1777934857734,  4004.662,  4004.662,-0.018552,-0.006705,-0.995525,-0.000186,-0.000065,-0.009956, 0.001404, 0.001206, 0.041941,1, 0.000341, 0.000413,-0.000720,1, 0.183327, 0.066972, 9.804708,1,0
1777934857745,  4004.662,  4004.662,-0.018552,-0.006705,-0.995525,-0.000186,-0.000065,-0.009956, 0.001404, 0.001206, 0.041941,1, 0.000341, 0.000413,-0.000720,1, 0.183327, 0.066972, 9.804708,1,0
1777934857756,  4004.687,  4004.682,-0.018661,-0.006695,-0.995592,-0.000187,-0.000067,-0.009954,-0.000659,-0.004073, 0.045194,1, 0.000188,-0.001181,-0.000383,1, 0.183460, 0.067015, 9.804705,1,0
1777934857766,  4004.687,  4004.682,-0.018661,-0.006695,-0.995592,-0.000187,-0.000067,-0.009954,-0.000659,-0.004073, 0.045194,1, 0.000188,-0.001181,-0.000383,1, 0.183460, 0.067015, 9.804705,1,0
1777934857780,  4004.712,  4004.707,-0.018814,-0.006939,-0.995332,-0.000187,-0.000069,-0.009955,-0.000959,-0.000991, 0.043831,1,-0.000779, 0.000453,-0.000228,1, 0.183531, 0.067032, 9.804704,1,0
1777934857790,  4004.712,  4004.707,-0.018814,-0.006939,-0.995332,-0.000187,-0.000069,-0.009955,-0.000959,-0.000991, 0.043831,1,-0.000779, 0.000453,-0.000228,1, 0.183531, 0.067032, 9.804704,1,0
1777934857806,  4004.737,  4004.732,-0.017819,-0.007113,-0.995779,-0.000179,-0.000072,-0.009960, 0.000059,-0.005310, 0.040364,1, 0.000757,-0.000520,-0.000934,1, 0.183558, 0.067125, 9.804702,1,0
1777934857816,  4004.737,  4004.732,-0.017819,-0.007113,-0.995779,-0.000179,-0.000072,-0.009960, 0.000059,-0.005310, 0.040364,1, 0.000757,-0.000520,-0.000934,1, 0.183558, 0.067125, 9.804702,1,0
1777934857829,  4004.757,  4004.757,-0.018436,-0.007179,-0.995525,-0.000183,-0.000068,-0.009955, 0.002728,-0.003262, 0.041941,1, 0.000620, 0.000134,-0.000512,1, 0.183515, 0.067160, 9.804703,1,0
1777934857840,  4004.757,  4004.757,-0.018436,-0.007179,-0.995525,-0.000183,-0.000068,-0.009955, 0.002728,-0.003262, 0.041941,1, 0.000620, 0.000134,-0.000512,1, 0.183515, 0.067160, 9.804703,1,0
1777934857856,  4004.787,  4004.782,-0.019662,-0.007294,-0.995586,-0.000193,-0.000072,-0.009955,-0.004871,-0.006350, 0.043971,1, 0.000254, 0.000059,-0.000738,1, 0.183487, 0.067229, 9.804703,1,0
1777934857866,  4004.787,  4004.782,-0.019662,-0.007294,-0.995586,-0.000193,-0.000072,-0.009955,-0.004871,-0.006350, 0.043971,1, 0.000254, 0.000059,-0.000738,1, 0.183487, 0.067229, 9.804703,1,0
1777934857879,  4004.807,  4004.807,-0.019549,-0.006839,-0.995435,-0.000195,-0.000069,-0.009956,-0.008233, 0.000131, 0.042821,1, 0.000530,-0.000386,-0.001556,1, 0.183494, 0.067218, 9.804703,1,0
1777934857889,  4004.807,  4004.807,-0.019549,-0.006839,-0.995435,-0.000195,-0.000069,-0.009956,-0.008233, 0.000131, 0.042821,1, 0.000530,-0.000386,-0.001556,1, 0.183494, 0.067218, 9.804703,1,0
1777934857905,  4004.832,  4004.832,-0.018898,-0.006251,-0.995789,-0.000191,-0.000062,-0.009959,-0.001925, 0.005909, 0.039348,1,-0.000187, 0.000170,-0.000201,1, 0.183398, 0.067202, 9.804705,1,0
1777934857915,  4004.832,  4004.832,-0.018898,-0.006251,-0.995789,-0.000191,-0.000062,-0.009959,-0.001925, 0.005909, 0.039348,1,-0.000187, 0.000170,-0.000201,1, 0.183398, 0.067202, 9.804705,1,0
1777934857927,  4004.857,  4004.852,-0.019100,-0.006403,-0.995810,-0.000188,-0.000061,-0.009956,-0.003370, 0.006150, 0.041277,1,-0.000052,-0.000107, 0.000025,1, 0.183377, 0.067126, 9.804706,1,0
1777934857937,  4004.857,  4004.852,-0.019100,-0.006403,-0.995810,-0.000188,-0.000061,-0.009956,-0.003370, 0.006150, 0.041277,1,-0.000052,-0.000107, 0.000025,1, 0.183377, 0.067126, 9.804706,1,0
1777934857955,  4004.882,  4004.882,-0.018303,-0.006661,-0.995535,-0.000185,-0.000064,-0.009957, 0.003915, 0.001632, 0.041842,1, 0.000020,-0.000344, 0.000200,1, 0.183419, 0.066953, 9.804706,1,0
1777934857965,  4004.882,  4004.882,-0.018303,-0.006661,-0.995535,-0.000185,-0.000064,-0.009957, 0.003915, 0.001632, 0.041842,1, 0.000020,-0.000344, 0.000200,1, 0.183419, 0.066953, 9.804706,1,0
1777934857977,  4004.907,  4004.902,-0.019075,-0.007388,-0.995967,-0.000190,-0.000072,-0.009960,-0.001095,-0.003346, 0.039877,1,-0.000172, 0.000013, 0.000080,1, 0.183439, 0.066984, 9.804706,1,0
1777934857987,  4004.907,  4004.902,-0.019075,-0.007388,-0.995967,-0.000190,-0.000072,-0.009960,-0.001095,-0.003346, 0.039877,1,-0.000172, 0.000013, 0.000080,1, 0.183439, 0.066984, 9.804706,1,0
1777934858004,  4004.932,  4004.932,-0.018551,-0.007476,-0.995710,-0.000186,-0.000074,-0.009955, 0.001692,-0.006505, 0.040123,1,-0.000378,-0.000624,-0.000951,1, 0.183638, 0.066795, 9.804703,1,0
1777934858015,  4004.932,  4004.932,-0.018551,-0.007476,-0.995710,-0.000186,-0.000074,-0.009955, 0.001692,-0.006505, 0.040123,1,-0.000378,-0.000624,-0.000951,1, 0.183638, 0.066795, 9.804703,1,0
1777934858026,  4004.957,  4004.952,-0.018603,-0.007628,-0.995665,-0.000187,-0.000076,-0.009955,-0.000516,-0.006556, 0.039107,1, 0.000500,-0.000151,-0.001201,1, 0.183661, 0.066820, 9.804703,1,0
1777934858037,  4004.957,  4004.952,-0.018603,-0.007628,-0.995665,-0.000187,-0.000076,-0.009955,-0.000516,-0.006556, 0.039107,1, 0.000500,-0.000151,-0.001201,1, 0.183661, 0.066820, 9.804703,1,0
1777934858050,  4004.982,  4004.977,-0.018724,-0.006686,-0.995810,-0.000187,-0.000069,-0.009959, 0.000023, 0.001344, 0.039139,1,-0.000349, 0.000229,-0.000648,1, 0.183632, 0.066902, 9.804703,1,0
1777934858060,  4004.982,  4004.977,-0.018724,-0.006686,-0.995810,-0.000187,-0.000069,-0.009959, 0.000023, 0.001344, 0.039139,1,-0.000349, 0.000229,-0.000648,1, 0.183632, 0.066902, 9.804703,1,0
1777934858076,  4005.007,  4005.002,-0.018074,-0.006826,-0.995514,-0.000181,-0.000067,-0.009956, 0.006365,-0.001973, 0.035750,1,-0.000135,-0.000316,-0.000623,1, 0.183588, 0.066884, 9.804704,1,0
1777934858086,  4005.007,  4005.002,-0.018074,-0.006826,-0.995514,-0.000181,-0.000067,-0.009956, 0.006365,-0.001973, 0.035750,1,-0.000135,-0.000316,-0.000623,1, 0.183588, 0.066884, 9.804704,1,0
1777934858100,  4005.032,  4005.027,-0.018369,-0.006742,-0.995634,-0.000184,-0.000068,-0.009955, 0.003464, 0.000697, 0.040867,1,-0.000364, 0.000426,-0.000587,1, 0.183591, 0.066804, 9.804704,1,0
1777934858110,  4005.032,  4005.027,-0.018369,-0.006742,-0.995634,-0.000184,-0.000068,-0.009955, 0.003464, 0.000697, 0.040867,1,-0.000364, 0.000426,-0.000587,1, 0.183591, 0.066804, 9.804704,1,0
1777934858126,  4005.057,  4005.052,-0.018779,-0.006388,-0.995633,-0.000187,-0.000063,-0.009958,-0.004738,-0.004255, 0.034572,1, 0.000336, 0.000336,-0.000826,1, 0.183518, 0.066845, 9.804705,1,0
1777934858136,  4005.057,  4005.052,-0.018779,-0.006388,-0.995633,-0.000187,-0.000063,-0.009958,-0.004738,-0.004255, 0.034572,1, 0.000336, 0.000336,-0.000826,1, 0.183518, 0.066845, 9.804705,1,0
1777934858149,  4005.077,  4005.077,-0.018847,-0.006306,-0.995577,-0.000188,-0.000065,-0.009956,-0.001396, 0.004998, 0.041427,1,-0.000221,-0.000280,-0.000755,1, 0.183434, 0.066830, 9.804707,1,0
1777934858159,  4005.077,  4005.077,-0.018847,-0.006306,-0.995577,-0.000188,-0.000065,-0.009956,-0.001396, 0.004998, 0.041427,1,-0.000221,-0.000280,-0.000755,1, 0.183434, 0.066830, 9.804707,1,0
1777934858175,  4005.102,  4005.102,-0.018803,-0.005859,-0.996034,-0.000189,-0.000062,-0.009962,-0.000977, 0.009437, 0.036947,1, 0.000258, 0.000525,-0.000830,1, 0.183399, 0.066904, 9.804707,1,0
1777934858185,  4005.102,  4005.102,-0.018803,-0.005859,-0.996034,-0.000189,-0.000062,-0.009962,-0.000977, 0.009437, 0.036947,1, 0.000258, 0.000525,-0.000830,1, 0.183399, 0.066904, 9.804707,1,0
1777934858197,  4005.127,  4005.122,-0.019492,-0.007043,-0.995297,-0.000196,-0.000067,-0.009955,-0.006738, 0.004916, 0.041688,1, 0.000889,-0.000423,-0.000008,1, 0.183499, 0.067005, 9.804704,1,0
1777934858207,  4005.127,  4005.122,-0.019492,-0.007043,-0.995297,-0.000196,-0.000067,-0.009955,-0.006738, 0.004916, 0.041688,1, 0.000889,-0.000423,-0.000008,1, 0.183499, 0.067005, 9.804704,1,0
1777934858225,  4005.152,  4005.152,-0.019114,-0.006527,-0.995314,-0.000193,-0.000066,-0.009952,-0.004068, 0.002985, 0.044006,1, 0.000619, 0.000485, 0.000285,1, 0.183364, 0.067008, 9.804707,1,0
1777934858235,  4005.152,  4005.152,-0.019114,-0.006527,-0.995314,-0.000193,-0.000066,-0.009952,-0.004068, 0.002985, 0.044006,1, 0.000619, 0.000485, 0.000285,1, 0.183364, 0.067008, 9.804707,1,0
1777934858247,  4005.177,  4005.172,-0.018857,-0.007034,-0.994948,-0.000188,-0.000067,-0.009952,-0.002505,-0.000988, 0.039514,1,-0.000305,-0.000241,-0.000422,1, 0.183408, 0.067011, 9.804706,1,0
1777934858257,  4005.177,  4005.172,-0.018857,-0.007034,-0.994948,-0.000188,-0.000067,-0.009952,-0.002505,-0.000988, 0.039514,1,-0.000305,-0.000241,-0.000422,1, 0.183408, 0.067011, 9.804706,1,0
1777934858274,  4005.202,  4005.202,-0.018181,-0.007185,-0.995399,-0.000185,-0.000074,-0.009953, 0.005069,-0.003487, 0.043180,1, 0.000016, 0.000395,-0.000660,1, 0.183355, 0.066972, 9.804707,1,0
1777934858285,  4005.202,  4005.202,-0.018181,-0.007185,-0.995399,-0.000185,-0.000074,-0.009953, 0.005069,-0.003487, 0.043180,1, 0.000016, 0.000395,-0.000660,1, 0.183355, 0.066972, 9.804707,1,0
1777934858297,  4005.227,  4005.222,-0.018647,-0.007473,-0.996099,-0.000186,-0.000071,-0.009961, 0.003963, 0.001147, 0.037473,1,-0.000025, 0.000128,-0.000412,1, 0.183333, 0.066949, 9.804708,1,0
1777934858307,  4005.227,  4005.222,-0.018647,-0.007473,-0.996099,-0.000186,-0.000071,-0.009961, 0.003963, 0.001147, 0.037473,1,-0.000025, 0.000128,-0.000412,1, 0.183333, 0.066949, 9.804708,1,0
1777934858324,  4005.252,  4005.252,-0.019070,-0.006697,-0.996286,-0.000188,-0.000070,-0.009963,-0.003578, 0.001238, 0.034477,1,-0.000180,-0.000573,-0.000915,1, 0.183450, 0.066911, 9.804706,1,0
1777934858334,  4005.252,  4005.252,-0.019070,-0.006697,-0.996286,-0.000188,-0.000070,-0.009963,-0.003578, 0.001238, 0.034477,1,-0.000180,-0.000573,-0.000915,1, 0.183450, 0.066911, 9.804706,1,0
1777934858346,  4005.277,  4005.272,-0.018449,-0.006863,-0.995601,-0.000185,-0.000069,-0.009955, 0.001944,-0.001311, 0.041876,1, 0.000342, 0.000471,-0.000731,1, 0.183508, 0.066965, 9.804705,1,0
1777934858356,  4005.277,  4005.272,-0.018449,-0.006863,-0.995601,-0.000185,-0.000069,-0.009955, 0.001944,-0.001311, 0.041876,1, 0.000342, 0.000471,-0.000731,1, 0.183508, 0.066965, 9.804705,1,0
1777934858370,  4005.302,  4005.297,-0.018613,-0.006001,-0.995556,-0.000185,-0.000063,-0.009955, 0.001040, 0.008197, 0.041633,1, 0.000172,-0.000104,-0.000742,1, 0.183570, 0.067049, 9.804703,1,0
1777934858380,  4005.302,  4005.297,-0.018613,-0.006001,-0.995556,-0.000185,-0.000063,-0.009955, 0.001040, 0.008197, 0.041633,1, 0.000172,-0.000104,-0.000742,1, 0.183570, 0.067049, 9.804703,1,0
1777934858396,  4005.327,  4005.322,-0.018905,-0.006017,-0.995425,-0.000191,-0.000061,-0.009954,-0.001294, 0.003707, 0.035681,1, 0.000231, 0.000129,-0.001256,1, 0.183645, 0.067065, 9.804701,1,0
1777934858406,  4005.327,  4005.322,-0.018905,-0.006017,-0.995425,-0.000191,-0.000061,-0.009954,-0.001294, 0.003707, 0.035681,1, 0.000231, 0.000129,-0.001256,1, 0.183645, 0.067065, 9.804701,1,0
1777934858419,  4005.347,  4005.347,-0.019361,-0.006454,-0.995642,-0.000193,-0.000064,-0.009959,-0.006240, 0.003704, 0.040792,1, 0.000585,-0.000128,-0.000708,1, 0.183625, 0.067012, 9.804702,1,0
1777934858429,  4005.347,  4005.347,-0.019361,-0.006454,-0.995642,-0.000193,-0.000064,-0.009959,-0.006240, 0.003704, 0.040792,1, 0.000585,-0.000128,-0.000708,1, 0.183625, 0.067012, 9.804702,1,0
1777934858445,  4005.372,  4005.372,-0.018881,-0.006707,-0.995455,-0.000190,-0.000068,-0.009957,-0.001659, 0.001223, 0.042628,1, 0.000517, 0.000814,-0.000731,1, 0.183472, 0.067010, 9.804705,1,0
1777934858455,  4005.372,  4005.372,-0.018881,-0.006707,-0.995455,-0.000190,-0.000068,-0.009957,-0.001659, 0.001223, 0.042628,1, 0.000517, 0.000814,-0.000731,1, 0.183472, 0.067010, 9.804705,1,0
1777934858467,  4005.397,  4005.392,-0.018791,-0.007210,-0.995851,-0.000190,-0.000068,-0.009960,-0.001467, 0.006704, 0.035861,1,-0.000471, 0.000062,-0.000597,1, 0.183395, 0.067025, 9.804706,1,0
1777934858477,  4005.397,  4005.392,-0.018791,-0.007210,-0.995851,-0.000190,-0.000068,-0.009960,-0.001467, 0.006704, 0.035861,1,-0.000471, 0.000062,-0.000597,1, 0.183395, 0.067025, 9.804706,1,0
1777934858495,  4005.422,  4005.422,-0.019147,-0.006992,-0.995539,-0.000191,-0.000068,-0.009953,-0.004383,-0.001620, 0.041799,1, 0.000164, 0.000027,-0.000692,1, 0.183381, 0.066957, 9.804707,1,0
1777934858505,  4005.422,  4005.422,-0.019147,-0.006992,-0.995539,-0.000191,-0.000068,-0.009953,-0.004383,-0.001620, 0.041799,1, 0.000164, 0.000027,-0.000692,1, 0.183381, 0.066957, 9.804707,1,0
1777934858517,  4005.447,  4005.442,-0.019340,-0.007954,-0.996126,-0.000194,-0.000074,-0.009960, 0.000583,-0.002270, 0.045385,1,-0.000561,-0.000356,-0.000584,1, 0.183398, 0.066881, 9.804707,1,0
1777934858527,  4005.447,  4005.442,-0.019340,-0.007954,-0.996126,-0.000194,-0.000074,-0.009960, 0.000583,-0.002270, 0.045385,1,-0.000561,-0.000356,-0.000584,1, 0.183398, 0.066881, 9.804707,1,0
1777934858545,  4005.472,  4005.472,-0.017738,-0.007718,-0.996724,-0.000183,-0.000072,-0.009968, 0.009366,-0.008790, 0.030185,1, 0.000597, 0.000096,-0.000843,1, 0.183314, 0.066919, 9.804708,1,0
1777934858555,  4005.472,  4005.472,-0.017738,-0.007718,-0.996724,-0.000183,-0.000072,-0.009968, 0.009366,-0.008790, 0.030185,1, 0.000597, 0.000096,-0.000843,1, 0.183314, 0.066919, 9.804708,1,0
1777934858567,  4005.497,  4005.492,-0.019177,-0.006319,-0.994891,-0.000185,-0.000071,-0.009958, 0.009977, 0.015181, 0.050679,1,-0.000280, 0.000718,-0.001107,1, 0.183341, 0.066914, 9.804708,1,0
1777934858577,  4005.497,  4005.492,-0.019177,-0.006319,-0.994891,-0.000185,-0.000071,-0.009958, 0.009977, 0.015181, 0.050679,1,-0.000280, 0.000718,-0.001107,1, 0.183341, 0.066914, 9.804708,1,0
1777934858594,  4005.522,  4005.522,-0.017285,-0.007493,-0.996497,-0.000181,-0.000071,-0.009964, 0.013814,-0.006499, 0.032414,1,-0.000332, 0.000648,-0.000871,1, 0.183318, 0.066963, 9.804708,1,0
1777934858604,  4005.522,  4005.522,-0.017285,-0.007493,-0.996497,-0.000181,-0.000071,-0.009964, 0.013814,-0.006499, 0.032414,1,-0.000332, 0.000648,-0.000871,1, 0.183318, 0.066963, 9.804708,1,0
1777934858616,  4005.547,  4005.542,-0.018152,-0.008407,-0.995919,-0.000181,-0.000085,-0.009962,-0.016699,-0.016926, 0.052341,1, 0.000153,-0.000314,-0.001359,1, 0.183401, 0.067005, 9.804706,1,0
1777934858626,  4005.547,  4005.542,-0.018152,-0.008407,-0.995919,-0.000181,-0.000085,-0.009962,-0.016699,-0.016926, 0.052341,1, 0.000153,-0.000314,-0.001359,1, 0.183401, 0.067005, 9.804706,1,0
1777934858640,  4005.572,  4005.567,-0.018960,-0.003769,-0.994443,-0.000190,-0.000035,-0.009948,-0.002546, 0.029948, 0.052547,1, 0.000581, 0.000509,-0.001231,1, 0.183374, 0.066927, 9.804707,1,0
1777934858650,  4005.572,  4005.567,-0.018960,-0.003769,-0.994443,-0.000190,-0.000035,-0.009948,-0.002546, 0.029948, 0.052547,1, 0.000581, 0.000509,-0.001231,1, 0.183374, 0.066927, 9.804707,1,0
1777934858666,  4005.597,  4005.592,-0.018620,-0.004803,-0.995147,-0.000184,-0.000050,-0.009954, 0.018036, 0.018457, 0.022090,1, 0.000211, 0.000845,-0.000270,1, 0.183271, 0.066983, 9.804708,1,0
1777934858676,  4005.597,  4005.592,-0.018620,-0.004803,-0.995147,-0.000184,-0.000050,-0.009954, 0.018036, 0.018457, 0.022090,1, 0.000211, 0.000845,-0.000270,1, 0.183271, 0.066983, 9.804708,1,0
1777934858689,  4005.617,  4005.617,-0.018158,-0.005846,-0.996412,-0.000184,-0.000057,-0.009958, 0.005161, 0.009635, 0.033242,1, 0.000753,-0.000484, 0.000004,1, 0.183243, 0.066990, 9.804709,1,0
1777934858699,  4005.617,  4005.617,-0.018158,-0.005846,-0.996412,-0.000184,-0.000057,-0.009958, 0.005161, 0.009635, 0.033242,1, 0.000753,-0.000484, 0.000004,1, 0.183243, 0.066990, 9.804709,1,0
1777934858715,  4005.642,  4005.642,-0.019652,-0.008618,-0.995420,-0.000197,-0.000088,-0.009958,-0.009542,-0.017554, 0.042975,1, 0.000050,-0.000076, 0.000695,1, 0.183182, 0.066958, 9.804710,1,0
1777934858725,  4005.642,  4005.642,-0.019652,-0.008618,-0.995420,-0.000197,-0.000088,-0.009958,-0.009542,-0.017554, 0.042975,1, 0.000050,-0.000076, 0.000695,1, 0.183182, 0.066958, 9.804710,1,0
1777934858737,  4005.667,  4005.662,-0.019220,-0.007641,-0.995707,-0.000192,-0.000076,-0.009962,-0.011178,-0.007737, 0.041231,1,-0.000232,-0.000020,-0.001019,1, 0.183248, 0.066956, 9.804709,1,0
1777934858747,  4005.667,  4005.662,-0.019220,-0.007641,-0.995707,-0.000192,-0.000076,-0.009962,-0.011178,-0.007737, 0.041231,1,-0.000232,-0.000020,-0.001019,1, 0.183248, 0.066956, 9.804709,1,0
1777934858765,  4005.692,  4005.692,-0.018758,-0.006678,-0.996287,-0.000190,-0.000067,-0.009960,-0.000705, 0.001429, 0.034467,1,-0.000063, 0.000272,-0.001374,1, 0.183238, 0.066913, 9.804709,1,0
1777934858775,  4005.692,  4005.692,-0.018758,-0.006678,-0.996287,-0.000190,-0.000067,-0.009960,-0.000705, 0.001429, 0.034467,1,-0.000063, 0.000272,-0.001374,1, 0.183238, 0.066913, 9.804709,1,0
1777934858787,  4005.717,  4005.712,-0.017885,-0.006462,-0.995420,-0.000178,-0.000064,-0.009954, 0.009157, 0.007472, 0.031936,1,-0.000196,-0.000324,-0.000618,1, 0.183194, 0.066807, 9.804711,1,0
1777934858797,  4005.717,  4005.712,-0.017885,-0.006462,-0.995420,-0.000178,-0.000064,-0.009954, 0.009157, 0.007472, 0.031936,1,-0.000196,-0.000324,-0.000618,1, 0.183194, 0.066807, 9.804711,1,0
1777934858815,  4005.742,  4005.742,-0.018434,-0.006180,-0.996172,-0.000184,-0.000060,-0.009963, 0.002331, 0.006108, 0.035604,1,-0.000623,-0.000007,-0.000560,1, 0.183111, 0.066695, 9.804713,1,0
1777934858825,  4005.742,  4005.742,-0.018434,-0.006180,-0.996172,-0.000184,-0.000060,-0.009963, 0.002331, 0.006108, 0.035604,1,-0.000623,-0.000007,-0.000560,1, 0.183111, 0.066695, 9.804713,1,0
1777934858837,  4005.767,  4005.762,-0.019604,-0.007634,-0.995811,-0.000196,-0.000076,-0.009957,-0.010609,-0.000221, 0.039804,1, 0.000211, 0.000044,-0.000801,1, 0.183059, 0.066625, 9.804715,1,0
1777934858847,  4005.767,  4005.762,-0.019604,-0.007634,-0.995811,-0.000196,-0.000076,-0.009957,-0.010609,-0.000221, 0.039804,1, 0.000211, 0.000044,-0.000801,1, 0.183059, 0.066625, 9.804715,1,0
1777934858864,  4005.792,  4005.792,-0.019594,-0.006971,-0.995363,-0.000193,-0.000074,-0.009951,-0.009117,-0.001748, 0.043534,1,-0.000265,-0.000161,-0.000430,1, 0.183038, 0.066608, 9.804715,1,0
1777934858874,  4005.792,  4005.792,-0.019594,-0.006971,-0.995363,-0.000193,-0.000074,-0.009951,-0.009117,-0.001748, 0.043534,1,-0.000265,-0.000161,-0.000430,1, 0.183038, 0.066608, 9.804715,1,0
1777934858886,  4005.817,  4005.812,-0.018849,-0.006592,-0.995692,-0.000189,-0.000067,-0.009958, 0.000269, 0.000042, 0.036331,1,-0.000319,-0.000483,-0.001156,1, 0.182945, 0.066582, 9.804717,1,0
1777934858896,  4005.817,  4005.812,-0.018849,-0.006592,-0.995692,-0.000189,-0.000067,-0.009958, 0.000269, 0.000042, 0.036331,1,-0.000319,-0.000483,-0.001156,1, 0.182945, 0.066582, 9.804717,1,0
1777934858910,  4005.842,  4005.837,-0.018033,-0.005501,-0.996025,-0.000179,-0.000055,-0.009959, 0.006095, 0.012693, 0.037047,1, 0.000013,-0.001134,-0.000816,1, 0.182975, 0.066643, 9.804716,1,0
1777934858920,  4005.842,  4005.837,-0.018033,-0.005501,-0.996025,-0.000179,-0.000055,-0.009959, 0.006095, 0.012693, 0.037047,1, 0.000013,-0.001134,-0.000816,1, 0.182975, 0.066643, 9.804716,1,0
1777934858936,  4005.867,  4005.862,-0.019039,-0.006903,-0.994967,-0.000187,-0.000071,-0.009951, 0.004074, 0.006240, 0.037961,1,-0.000554,-0.000153,-0.000841,1, 0.183062, 0.066648, 9.804715,1,0
1777934858946,  4005.867,  4005.862,-0.019039,-0.006903,-0.994967,-0.000187,-0.000071,-0.009951, 0.004074, 0.006240, 0.037961,1,-0.000554,-0.000153,-0.000841,1, 0.183062, 0.066648, 9.804715,1,0
1777934858959,  4005.887,  4005.887,-0.020294,-0.008085,-0.995979,-0.000205,-0.000081,-0.009959,-0.015963,-0.012651, 0.037497,1,-0.000190, 0.000215,-0.000242,1, 0.183042, 0.066634, 9.804715,1,0
1777934858969,  4005.887,  4005.887,-0.020294,-0.008085,-0.995979,-0.000205,-0.000081,-0.009959,-0.015963,-0.012651, 0.037497,1,-0.000190, 0.000215,-0.000242,1, 0.183042, 0.066634, 9.804715,1,0
1777934858985,  4005.912,  4005.912,-0.020161,-0.006901,-0.995029,-0.000202,-0.000074,-0.009952,-0.014670,-0.001128, 0.046810,1, 0.000192, 0.000508,-0.001308,1, 0.183021, 0.066557, 9.804716,1,0
1777934858996,  4005.912,  4005.912,-0.020161,-0.006901,-0.995029,-0.000202,-0.000074,-0.009952,-0.014670,-0.001128, 0.046810,1, 0.000192, 0.000508,-0.001308,1, 0.183021, 0.066557, 9.804716,1,0
1777934859007,  4005.937,  4005.932,-0.017698,-0.007100,-0.996095,-0.000178,-0.000070,-0.009961, 0.010330, 0.005128, 0.034740,1, 0.000071, 0.000011,-0.000918,1, 0.183005, 0.066564, 9.804716,1,0
1777934859017,  4005.937,  4005.932,-0.017698,-0.007100,-0.996095,-0.000178,-0.000070,-0.009961, 0.010330, 0.005128, 0.034740,1, 0.000071, 0.000011,-0.000918,1, 0.183005, 0.066564, 9.804716,1,0
1777934859035,  4005.962,  4005.962,-0.016981,-0.006211,-0.995819,-0.000170,-0.000063,-0.009958, 0.016564, 0.005506, 0.039067,1,-0.000306, 0.000155,-0.000953,1, 0.183088, 0.066405, 9.804716,1,0
1777934859045,  4005.962,  4005.962,-0.016981,-0.006211,-0.995819,-0.000170,-0.000063,-0.009958, 0.016564, 0.005506, 0.039067,1,-0.000306, 0.000155,-0.000953,1, 0.183088, 0.066405, 9.804716,1,0
1777934859057,  4005.987,  4005.982,-0.018726,-0.007351,-0.996031,-0.000188,-0.000076,-0.009960,-0.001240,-0.003860, 0.043807,1,-0.000339,-0.000380,-0.001414,1, 0.183154, 0.066307, 9.804715,1,0
1777934859067,  4005.987,  4005.982,-0.018726,-0.007351,-0.996031,-0.000188,-0.000076,-0.009960,-0.001240,-0.003860, 0.043807,1,-0.000339,-0.000380,-0.001414,1, 0.183154, 0.066307, 9.804715,1,0
1777934859085,  4006.012,  4006.012,-0.019111,-0.006933,-0.995602,-0.000190,-0.000070,-0.009954,-0.004277,-0.001754, 0.041191,1,-0.000473, 0.000215,-0.000749,1, 0.183129, 0.066219, 9.804716,1,0
1777934859095,  4006.012,  4006.012,-0.019111,-0.006933,-0.995602,-0.000190,-0.000070,-0.009954,-0.004277,-0.001754, 0.041191,1,-0.000473, 0.000215,-0.000749,1, 0.183129, 0.066219, 9.804716,1,0
1777934859107,  4006.037,  4006.032,-0.019752,-0.006077,-0.996248,-0.000195,-0.000062,-0.009961,-0.003647, 0.022346, 0.049020,1,-0.000725, 0.000492,-0.001100,1, 0.183000, 0.066209, 9.804719,1,0
1777934859117,  4006.037,  4006.032,-0.019752,-0.006077,-0.996248,-0.000195,-0.000062,-0.009961,-0.003647, 0.022346, 0.049020,1,-0.000725, 0.000492,-0.001100,1, 0.183000, 0.066209, 9.804719,1,1
1777934859134,  4006.062,  4006.062,-0.019281,-0.006480,-0.995386,-0.000192,-0.000068,-0.009955,-0.006153, 0.002665, 0.043322,1, 0.000000, 0.000319,-0.000874,1, 0.182923, 0.066218, 9.804720,1,1
1777934859144,  4006.062,  4006.062,-0.019281,-0.006480,-0.995386,-0.000192,-0.000068,-0.009955,-0.006153, 0.002665, 0.043322,1, 0.000000, 0.000319,-0.000874,1, 0.182923, 0.066218, 9.804720,1,1
1777934859156,  4006.087,  4006.082,-0.019252,-0.006325,-0.995786,-0.000193,-0.000063,-0.009958,-0.003398, 0.006335, 0.037838,1, 0.000030, 0.000596,-0.000131,1, 0.182927, 0.066208, 9.804720,1,1
1777934859166,  4006.087,  4006.082,-0.019252,-0.006325,-0.995786,-0.000193,-0.000063,-0.009958,-0.003398, 0.006335, 0.037838,1, 0.000030, 0.000596,-0.000131,1, 0.182927, 0.066208, 9.804720,1,1
1777934859180,  4006.112,  4006.107,-0.018623,-0.006163,-0.995739,-0.000186,-0.000061,-0.009955, 0.000133, 0.005721, 0.039860,1, 0.000112, 0.000604,-0.000324,1, 0.182744, 0.066163, 9.804724,1,1
1777934859190,  4006.112,  4006.107,-0.018623,-0.006163,-0.995739,-0.000186,-0.000061,-0.009955, 0.000133, 0.005721, 0.039860,1, 0.000112, 0.000604,-0.000324,1, 0.182744, 0.066163, 9.804724,1,1
1777934859206,  4006.137,  4006.132,-0.018146,-0.007089,-0.995682,-0.000183,-0.000071,-0.009954, 0.004660,-0.010102, 0.041079,1, 0.000687,-0.000298,-0.000140,1, 0.182851, 0.066082, 9.804723,1,1
1777934859216,  4006.137,  4006.132,-0.018146,-0.007089,-0.995682,-0.000183,-0.000071,-0.009954, 0.004660,-0.010102, 0.041079,1, 0.000687,-0.000298,-0.000140,1, 0.182851, 0.066082, 9.804723,1,1
1777934859229,  4006.157,  4006.157,-0.017981,-0.007271,-0.995536,-0.000180,-0.000073,-0.009958, 0.006515,-0.005122, 0.041852,1,-0.000372, 0.000331,-0.000515,1, 0.182835, 0.066166, 9.804722,1,1
1777934859239,  4006.157,  4006.157,-0.017981,-0.007271,-0.995536,-0.000180,-0.000073,-0.009958, 0.006515,-0.005122, 0.041852,1,-0.000372, 0.000331,-0.000515,1, 0.182835, 0.066166, 9.804722,1,1
1777934859255,  4006.182,  4006.182,-0.018607,-0.007601,-0.995821,-0.000184,-0.000076,-0.009955, 0.000364,-0.008297, 0.039057,1,-0.000062,-0.000112,-0.000786,1, 0.182837, 0.066241, 9.804722,1,1
1777934859266,  4006.182,  4006.182,-0.018607,-0.007601,-0.995821,-0.000184,-0.000076,-0.009955, 0.000364,-0.008297, 0.039057,1,-0.000062,-0.000112,-0.000786,1, 0.182837, 0.066241, 9.804722,1,1
1777934859277,  4006.207,  4006.202,-0.019326,-0.006696,-0.995365,-0.000191,-0.000067,-0.009956,-0.000907,-0.003376, 0.038855,1,-0.000348,-0.000376,-0.000980,1, 0.182878, 0.066179, 9.804721,1,1
1777934859288,  4006.207,  4006.202,-0.019326,-0.006696,-0.995365,-0.000191,-0.000067,-0.009956,-0.000907,-0.003376, 0.038855,1,-0.000348,-0.000376,-0.000980,1, 0.182878, 0.066179, 9.804721,1,1
1777934859305,  4006.232,  4006.232,-0.019342,-0.006992,-0.996081,-0.000194,-0.000069,-0.009960,-0.006856,-0.002458, 0.036501,1, 0.000034,-0.000241,-0.001126,1, 0.182833, 0.066107, 9.804723,1,1
1777934859315,  4006.232,  4006.232,-0.019342,-0.006992,-0.996081,-0.000194,-0.000069,-0.009960,-0.006856,-0.002458, 0.036501,1, 0.000034,-0.000241,-0.001126,1, 0.182833, 0.066107, 9.804723,1,1
1777934859327,  4006.257,  4006.252,-0.019354,-0.005817,-0.995790,-0.000195,-0.000058,-0.009955,-0.009895, 0.005993, 0.038599,1,-0.000462, 0.000868,-0.000506,1, 0.182771, 0.066050, 9.804724,1,1
1777934859337,  4006.257,  4006.252,-0.019354,-0.005817,-0.995790,-0.000195,-0.000058,-0.009955,-0.009895, 0.005993, 0.038599,1,-0.000462, 0.000868,-0.000506,1, 0.182771, 0.066050, 9.804724,1,1
1777934859355,  4006.282,  4006.282,-0.019120,-0.006018,-0.995619,-0.000193,-0.000059,-0.009959,-0.004790, 0.007093, 0.041035,1, 0.000131, 0.000178, 0.000221,1, 0.182710, 0.066116, 9.804725,1,1
1777934859365,  4006.282,  4006.282,-0.019120,-0.006018,-0.995619,-0.000193,-0.000059,-0.009959,-0.004790, 0.007093, 0.041035,1, 0.000131, 0.000178, 0.000221,1, 0.182710, 0.066116, 9.804725,1,1
1777934859377,  4006.307,  4006.302,-0.018689,-0.006865,-0.995955,-0.000187,-0.000070,-0.009959,-0.004885, 0.003423, 0.038523,1, 0.000798, 0.000206,-0.000076,1, 0.182695, 0.066207, 9.804725,1,1
1777934859387,  4006.307,  4006.302,-0.018689,-0.006865,-0.995955,-0.000187,-0.000070,-0.009959,-0.004885, 0.003423, 0.038523,1, 0.000798, 0.000206,-0.000076,1, 0.182695, 0.066207, 9.804725,1,1
1777934859404,  4006.332,  4006.332,-0.018341,-0.006571,-0.995332,-0.000186,-0.000063,-0.009955, 0.002749, 0.001843, 0.043856,1, 0.000481, 0.000889, 0.000273,1, 0.182585, 0.066300, 9.804726,1,1
1777934859414,  4006.332,  4006.332,-0.018341,-0.006571,-0.995332,-0.000186,-0.000063,-0.009955, 0.002749, 0.001843, 0.043856,1, 0.000481, 0.000889, 0.000273,1, 0.182585, 0.066300, 9.804726,1,1
1777934859426,  4006.357,  4006.352,-0.018070,-0.007276,-0.996381,-0.000181,-0.000073,-0.009963, 0.010451,-0.008558, 0.043886,1, 0.000384, 0.000905,-0.000233,1, 0.182417, 0.066389, 9.804729,1,1
1777934859436,  4006.357,  4006.352,-0.018070,-0.007276,-0.996381,-0.000181,-0.000073,-0.009963, 0.010451,-0.008558, 0.043886,1, 0.000384, 0.000905,-0.000233,1, 0.182417, 0.066389, 9.804729,1,1
1777934859450,  4006.382,  4006.377,-0.018006,-0.006877,-0.995881,-0.000184,-0.000071,-0.009956, 0.005873,-0.001099, 0.038468,1,-0.000375, 0.000173,-0.001181,1, 0.182443, 0.066329, 9.804729,1,1
1777934859460,  4006.382,  4006.377,-0.018006,-0.006877,-0.995881,-0.000184,-0.000071,-0.009956, 0.005873,-0.001099, 0.038468,1,-0.000375, 0.000173,-0.001181,1, 0.182443, 0.066329, 9.804729,1,1
1777934859476,  4006.407,  4006.402,-0.018480,-0.006700,-0.995969,-0.000185,-0.000068,-0.009958,-0.000336,-0.011352, 0.042231,1,-0.000563, 0.000508,-0.000639,1, 0.182350, 0.066354, 9.804730,1,1
1777934859486,  4006.407,  4006.402,-0.018480,-0.006700,-0.995969,-0.000185,-0.000068,-0.009958,-0.000336,-0.011352, 0.042231,1,-0.000563, 0.000508,-0.000639,1, 0.182350, 0.066354, 9.804730,1,1
1777934859499,  4006.427,  4006.427,-0.018858,-0.006205,-0.995877,-0.000187,-0.000062,-0.009959,-0.002555, 0.005332, 0.038516,1, 0.000323, 0.000372,-0.000729,1, 0.182369, 0.066192, 9.804730,1,1
1777934859509,  4006.427,  4006.427,-0.018858,-0.006205,-0.995877,-0.000187,-0.000062,-0.009959,-0.002555, 0.005332, 0.038516,1, 0.000323, 0.000372,-0.000729,1, 0.182369, 0.066192, 9.804730,1,1
1777934859526,  4006.452,  4006.452,-0.019137,-0.005847,-0.996093,-0.000190,-0.000059,-0.009961,-0.005249, 0.008842, 0.036398,1,-0.000626, 0.000010,-0.001020,1, 0.182423, 0.066167, 9.804729,1,1
1777934859536,  4006.452,  4006.452,-0.019137,-0.005847,-0.996093,-0.000190,-0.000059,-0.009961,-0.005249, 0.008842, 0.036398,1,-0.000626, 0.000010,-0.001020,1, 0.182423, 0.066167, 9.804729,1,1
1777934859547,  4006.477,  4006.472,-0.019488,-0.006487,-0.995520,-0.000193,-0.000064,-0.009956,-0.008789,-0.000806, 0.040316,1,-0.000630,-0.000518, 0.000034,1, 0.182451, 0.066047, 9.804730,1,1
1777934859558,  4006.477,  4006.472,-0.019488,-0.006487,-0.995520,-0.000193,-0.000064,-0.009956,-0.008789,-0.000806, 0.040316,1,-0.000630,-0.000518, 0.000034,1, 0.182451, 0.066047, 9.804730,1,1
1777934859575,  4006.502,  4006.502,-0.019102,-0.006514,-0.995725,-0.000190,-0.000064,-0.009958,-0.004836, 0.002120, 0.040005,1, 0.001276,-0.000364,-0.000619,1, 0.182505, 0.066042, 9.804729,1,1
1777934859585,  4006.502,  4006.502,-0.019102,-0.006514,-0.995725,-0.000190,-0.000064,-0.009958,-0.004836, 0.002120, 0.040005,1, 0.001276,-0.000364,-0.000619,1, 0.182505, 0.066042, 9.804729,1,1
1777934859597,  4006.527,  4006.522,-0.018126,-0.006742,-0.995853,-0.000182,-0.000068,-0.009958,-0.001032,-0.002059, 0.040276,1, 0.000755, 0.000086,-0.000580,1, 0.182546, 0.066165, 9.804728,1,1
1777934859607,  4006.527,  4006.522,-0.018126,-0.006742,-0.995853,-0.000182,-0.000068,-0.009958,-0.001032,-0.002059, 0.040276,1, 0.000755, 0.000086,-0.000580,1, 0.182546, 0.066165, 9.804728,1,1
1777934859625,  4006.552,  4006.552,-0.018745,-0.007052,-0.996135,-0.000190,-0.000071,-0.009959,-0.001413,-0.002895, 0.035977,1, 0.000708, 0.000198,-0.000126,1, 0.182404, 0.066287, 9.804729,1,1
1777934859635,  4006.552,  4006.552,-0.018745,-0.007052,-0.996135,-0.000190,-0.000071,-0.009959,-0.001413,-0.002895, 0.035977,1, 0.000708, 0.000198,-0.000126,1, 0.182404, 0.066287, 9.804729,1,1
1777934859647,  4006.577,  4006.572,-0.018910,-0.007578,-0.995300,-0.000190,-0.000076,-0.009952, 0.001561,-0.000861, 0.042678,1,-0.000174, 0.000521,-0.000674,1, 0.182394, 0.066309, 9.804729,1,1
1777934859657,  4006.577,  4006.572,-0.018910,-0.007578,-0.995300,-0.000190,-0.000076,-0.009952, 0.001561,-0.000861, 0.042678,1,-0.000174, 0.000521,-0.000674,1, 0.182394, 0.066309, 9.804729,1,1
1777934859674,  4006.602,  4006.602,-0.018822,-0.006827,-0.996271,-0.000187,-0.000068,-0.009960,-0.002186,-0.000623, 0.034650,1,-0.000468,-0.000282,-0.001410,1, 0.182406, 0.066314, 9.804729,1,1
1777934859684,  4006.602,  4006.602,-0.018822,-0.006827,-0.996271,-0.000187,-0.000068,-0.009960,-0.002186,-0.000623, 0.034650,1,-0.000468,-0.000282,-0.001410,1, 0.182406, 0.066314, 9.804729,1,1
1777934859696,  4006.627,  4006.622,-0.018506,-0.006891,-0.995838,-0.000185,-0.000070,-0.009959,-0.002315, 0.002784, 0.042046,1, 0.000470,-0.000023,-0.000873,1, 0.182393, 0.066359, 9.804729,1,1
1777934859706,  4006.627,  4006.622,-0.018506,-0.006891,-0.995838,-0.000185,-0.000070,-0.009959,-0.002315, 0.002784, 0.042046,1, 0.000470,-0.000023,-0.000873,1, 0.182393, 0.066359, 9.804729,1,1
1777934859720,  4006.652,  4006.647,-0.019318,-0.006248,-0.995330,-0.000191,-0.000062,-0.009954,-0.007132, 0.004983, 0.043873,1,-0.000127,-0.000454,-0.000784,1, 0.182329, 0.066256, 9.804731,1,1
1777934859730,  4006.652,  4006.647,-0.019318,-0.006248,-0.995330,-0.000191,-0.000062,-0.009954,-0.007132, 0.004983, 0.043873,1,-0.000127,-0.000454,-0.000784,1, 0.182329, 0.066256, 9.804731,1,1
1777934859746,  4006.677,  4006.672,-0.018665,-0.006203,-0.995619,-0.000186,-0.000065,-0.009959,-0.001781, 0.001441, 0.035913,1,-0.000042, 0.000319,-0.000490,1, 0.182316, 0.066251, 9.804731,1,1
1777934859756,  4006.677,  4006.672,-0.018665,-0.006203,-0.995619,-0.000186,-0.000065,-0.009959,-0.001781, 0.001441, 0.035913,1,-0.000042, 0.000319,-0.000490,1, 0.182316, 0.066251, 9.804731,1,1
1777934859769,  4006.697,  4006.697,-0.018531,-0.006558,-0.995513,-0.000185,-0.000067,-0.009956, 0.000405, 0.001885, 0.042091,1, 0.000288, 0.000778,-0.000783,1, 0.182106, 0.066207, 9.804735,1,1
1777934859780,  4006.697,  4006.697,-0.018531,-0.006558,-0.995513,-0.000185,-0.000067,-0.009956, 0.000405, 0.001885, 0.042091,1, 0.000288, 0.000778,-0.000783,1, 0.182106, 0.066207, 9.804735,1,1
1777934859796,  4006.727,  4006.722,-0.018013,-0.007369,-0.996040,-0.000181,-0.000075,-0.009959, 0.002600,-0.001599, 0.043465,1,-0.000993, 0.001239,-0.000966,1, 0.182096, 0.066057, 9.804737,1,1
1777934859806,  4006.727,  4006.722,-0.018013,-0.007369,-0.996040,-0.000181,-0.000075,-0.009959, 0.002600,-0.001599, 0.043465,1,-0.000993, 0.001239,-0.000966,1, 0.182096, 0.066057, 9.804737,1,1
1777934859818,  4006.747,  4006.742,-0.019148,-0.007693,-0.995735,-0.000190,-0.000075,-0.009954, 0.005206,-0.001701, 0.032856,1,-0.000093,-0.000094,-0.000696,1, 0.182095, 0.066043, 9.804737,1,1
1777934859828,  4006.747,  4006.742,-0.019148,-0.007693,-0.995735,-0.000190,-0.000075,-0.009954, 0.005206,-0.001701, 0.032856,1,-0.000093,-0.000094,-0.000696,1, 0.182095, 0.066043, 9.804737,1,1
1777934859845,  4006.772,  4006.772,-0.019418,-0.008119,-0.995927,-0.000192,-0.000085,-0.009960,-0.008253,-0.013592, 0.038030,1,-0.000498,-0.000396,-0.001324,1, 0.182181, 0.066013, 9.804735,1,1
1777934859855,  4006.772,  4006.772,-0.019418,-0.008119,-0.995927,-0.000192,-0.000085,-0.009960,-0.008253,-0.013592, 0.038030,1,-0.000498,-0.000396,-0.001324,1, 0.182181, 0.066013, 9.804735,1,1
1777934859867,  4006.797,  4006.792,-0.017769,-0.006339,-0.995350,-0.000180,-0.000066,-0.009956, 0.002829,-0.007469, 0.040532,1,-0.000036,-0.000592,-0.001138,1, 0.182241, 0.066040, 9.804734,1,1
1777934859877,  4006.797,  4006.792,-0.017769,-0.006339,-0.995350,-0.000180,-0.000066,-0.009956, 0.002829,-0.007469, 0.040532,1,-0.000036,-0.000592,-0.001138,1, 0.182241, 0.066040, 9.804734,1,1
1777934859895,  4006.822,  4006.822,-0.018366,-0.005714,-0.996010,-0.000185,-0.000058,-0.009963, 0.002208, 0.010022, 0.037209,1, 0.000091,-0.000072,-0.001451,1, 0.182315, 0.066057, 9.804732,1,1
1777934859905,  4006.822,  4006.822,-0.018366,-0.005714,-0.996010,-0.000185,-0.000058,-0.009963, 0.002208, 0.010022, 0.037209,1, 0.000091,-0.000072,-0.001451,1, 0.182315, 0.066057, 9.804732,1,1
1777934859917,  4006.847,  4006.842,-0.019853,-0.006021,-0.996322,-0.000203,-0.000058,-0.009961,-0.004978, 0.010567, 0.041641,1,-0.000408,-0.000706,-0.000773,1, 0.182489, 0.065982, 9.804729,1,1
1777934859927,  4006.847,  4006.842,-0.019853,-0.006021,-0.996322,-0.000203,-0.000058,-0.009961,-0.004978, 0.010567, 0.041641,1,-0.000408,-0.000706,-0.000773,1, 0.182489, 0.065982, 9.804729,1,1
1777934859944,  4006.872,  4006.872,-0.021462,-0.006605,-0.996047,-0.000214,-0.000064,-0.009959,-0.028022, 0.001228, 0.036841,1,-0.000594,-0.000708, 0.000091,1, 0.182469, 0.065984, 9.804730,1,1
1777934859954,  4006.872,  4006.872,-0.021462,-0.006605,-0.996047,-0.000214,-0.000064,-0.009959,-0.028022, 0.001228, 0.036841,1,-0.000594,-0.000708, 0.000091,1, 0.182469, 0.065984, 9.804730,1,1
1777934859966,  4006.897,  4006.892,-0.021072,-0.006421,-0.995046,-0.000212,-0.000065,-0.009952,-0.028443,-0.000316, 0.044600,1,-0.000232, 0.000395, 0.000016,1, 0.182420, 0.065958, 9.804731,1,1
1777934859976,  4006.897,  4006.892,-0.021072,-0.006421,-0.995046,-0.000212,-0.000065,-0.009952,-0.028443,-0.000316, 0.044600,1,-0.000232, 0.000395, 0.000016,1, 0.182420, 0.065958, 9.804731,1,1
1777934859990,  4006.922,  4006.917,-0.018758,-0.006598,-0.995337,-0.000190,-0.000066,-0.009954,-0.001181, 0.001210, 0.043804,1,-0.000047, 0.000174, 0.000183,1, 0.182819, 0.065910, 9.804725,1,1
1777934860000,  4006.922,  4006.917,-0.018758,-0.006598,-0.995337,-0.000190,-0.000066,-0.009954,-0.001181, 0.001210, 0.043804,1,-0.000047, 0.000174, 0.000183,1, 0.182819, 0.065910, 9.804725,1,1
1777934860016,  4006.947,  4006.942,-0.014759,-0.003680,-0.995827,-0.000149,-0.000043,-0.009961, 0.019377, 0.011479, 0.043328,1,-0.000906,-0.000162, 0.000087,1, 0.182817, 0.065792, 9.804725,1,1
1777934860026,  4006.947,  4006.942,-0.014759,-0.003680,-0.995827,-0.000149,-0.000043,-0.009961, 0.019377, 0.011479, 0.043328,1,-0.000906,-0.000162, 0.000087,1, 0.182817, 0.065792, 9.804725,1,1
1777934860039,  4006.967,  4006.967,-0.015539,-0.006940,-0.996099,-0.000153,-0.000064,-0.009959, 0.030286,-0.002166, 0.036333,1, 0.001115, 0.000617, 0.001105,1, 0.182650, 0.065931, 9.804728,1,1
1777934860049,  4006.967,  4006.967,-0.015539,-0.006940,-0.996099,-0.000153,-0.000064,-0.009959, 0.030286,-0.002166, 0.036333,1, 0.001115, 0.000617, 0.001105,1, 0.182650, 0.065931, 9.804728,1,1
1777934860066,  4006.997,  4006.992,-0.018445,-0.008747,-0.994283,-0.000182,-0.000092,-0.009950, 0.008854,-0.017692, 0.047394,1, 0.000273,-0.000501, 0.000287,1, 0.182750, 0.065972, 9.804725,1,1
1777934860076,  4006.997,  4006.992,-0.018445,-0.008747,-0.994283,-0.000182,-0.000092,-0.009950, 0.008854,-0.017692, 0.047394,1, 0.000273,-0.000501, 0.000287,1, 0.182750, 0.065972, 9.804725,1,1
1777934860088,  4007.017,  4007.012,-0.019220,-0.009687,-0.995519,-0.000193,-0.000096,-0.009952,-0.002817,-0.028179, 0.040803,1, 0.001448,-0.000036,-0.000522,1, 0.182763, 0.066212, 9.804723,1,1
1777934860098,  4007.017,  4007.012,-0.019220,-0.009687,-0.995519,-0.000193,-0.000096,-0.009952,-0.002817,-0.028179, 0.040803,1, 0.001448,-0.000036,-0.000522,1, 0.182763, 0.066212, 9.804723,1,1
1777934860115,  4007.042,  4007.042,-0.019083,-0.007303,-0.996237,-0.000191,-0.000074,-0.009955,-0.004496,-0.005294, 0.034975,1, 0.000734, 0.000554,-0.001034,1, 0.182628, 0.066346, 9.804725,1,1
1777934860125,  4007.042,  4007.042,-0.019083,-0.007303,-0.996237,-0.000191,-0.000074,-0.009955,-0.004496,-0.005294, 0.034975,1, 0.000734, 0.000554,-0.001034,1, 0.182628, 0.066346, 9.804725,1,1
1777934860137,  4007.067,  4007.062,-0.018784,-0.004982,-0.995608,-0.000188,-0.000050,-0.009959,-0.006980, 0.006487, 0.041553,1,-0.000498,-0.000624,-0.001381,1, 0.182649, 0.066321, 9.804725,1,1
1777934860147,  4007.067,  4007.062,-0.018784,-0.004982,-0.995608,-0.000188,-0.000050,-0.009959,-0.006980, 0.006487, 0.041553,1,-0.000498,-0.000624,-0.001381,1, 0.182649, 0.066321, 9.804725,1,1
1777934860165,  4007.092,  4007.092,-0.020526,-0.005730,-0.996512,-0.000204,-0.000057,-0.009961,-0.018657, 0.010092, 0.032280,1, 0.000214, 0.000186,-0.000507,1, 0.182631, 0.066292, 9.804725,1,1
1777934860175,  4007.092,  4007.092,-0.020526,-0.005730,-0.996512,-0.000204,-0.000057,-0.009961,-0.018657, 0.010092, 0.032280,1, 0.000214, 0.000186,-0.000507,1, 0.182631, 0.066292, 9.804725,1,1
1777934860187,  4007.117,  4007.112,-0.019634,-0.005670,-0.995716,-0.000196,-0.000055,-0.009960,-0.011982, 0.011712, 0.046142,1,-0.000157,-0.000343,-0.000680,1, 0.182725, 0.066178, 9.804724,1,1
1777934860197,  4007.117,  4007.112,-0.019634,-0.005670,-0.995716,-0.000196,-0.000055,-0.009960,-0.011982, 0.011712, 0.046142,1,-0.000157,-0.000343,-0.000680,1, 0.182725, 0.066178, 9.804724,1,1
1777934860214,  4007.142,  4007.142,-0.019673,-0.007964,-0.996266,-0.000201,-0.000077,-0.009963,-0.010299,-0.011934, 0.034693,1,-0.000222,-0.000303, 0.000257,1, 0.182638, 0.066161, 9.804726,1,1
1777934860225,  4007.142,  4007.142,-0.019673,-0.007964,-0.996266,-0.000201,-0.000077,-0.009963,-0.010299,-0.011934, 0.034693,1,-0.000222,-0.000303, 0.000257,1, 0.182638, 0.066161, 9.804726,1,1
1777934860236,  4007.167,  4007.162,-0.017846,-0.008963,-0.996077,-0.000180,-0.000088,-0.009960, 0.000506,-0.017285, 0.039491,1, 0.000030, 0.000254,-0.000961,1, 0.182549, 0.066156, 9.804728,1,1
1777934860246,  4007.167,  4007.162,-0.017846,-0.008963,-0.996077,-0.000180,-0.000088,-0.009960, 0.000506,-0.017285, 0.039491,1, 0.000030, 0.000254,-0.000961,1, 0.182549, 0.066156, 9.804728,1,1
1777934860260,  4007.192,  4007.187,-0.016201,-0.007251,-0.994842,-0.000165,-0.000074,-0.009951, 0.023647,-0.005010, 0.048659,1,-0.000058,-0.000405,-0.000944,1, 0.182539, 0.066093, 9.804729,1,1
1777934860270,  4007.192,  4007.187,-0.016201,-0.007251,-0.994842,-0.000165,-0.000074,-0.009951, 0.023647,-0.005010, 0.048659,1,-0.000058,-0.000405,-0.000944,1, 0.182539, 0.066093, 9.804729,1,1
1777934860286,  4007.217,  4007.212,-0.016018,-0.007751,-0.995269,-0.000161,-0.000077,-0.009957, 0.024249,-0.013296, 0.043705,1,-0.000207,-0.000313,-0.001490,1, 0.182569, 0.066046, 9.804728,1,1
1777934860296,  4007.217,  4007.212,-0.016018,-0.007751,-0.995269,-0.000161,-0.000077,-0.009957, 0.024249,-0.013296, 0.043705,1,-0.000207,-0.000313,-0.001490,1, 0.182569, 0.066046, 9.804728,1,1
1777934860309,  4007.237,  4007.237,-0.017816,-0.006784,-0.995610,-0.000177,-0.000065,-0.009952, 0.007985,-0.000486, 0.041131,1, 0.000827,-0.000583,-0.002138,1, 0.182714, 0.066070, 9.804725,1,1
1777934860320,  4007.237,  4007.237,-0.017816,-0.006784,-0.995610,-0.000177,-0.000065,-0.009952, 0.007985,-0.000486, 0.041131,1, 0.000827,-0.000583,-0.002138,1, 0.182714, 0.066070, 9.804725,1,1
1777934860336,  4007.267,  4007.262,-0.019419,-0.006387,-0.995394,-0.000193,-0.000066,-0.009950, 0.003109, 0.000478, 0.039901,1,-0.000100, 0.000422,-0.001532,1, 0.182714, 0.066029, 9.804726,1,1
1777934860346,  4007.267,  4007.262,-0.019419,-0.006387,-0.995394,-0.000193,-0.000066,-0.009950, 0.003109, 0.000478, 0.039901,1,-0.000100, 0.000422,-0.001532,1, 0.182714, 0.066029, 9.804726,1,1
1777934860359,  4007.287,  4007.287,-0.018957,-0.004925,-0.995871,-0.000188,-0.000049,-0.009963,-0.003163, 0.017708, 0.038565,1, 0.000596, 0.000073,-0.001551,1, 0.182740, 0.066024, 9.804725,1,1
1777934860369,  4007.287,  4007.287,-0.018957,-0.004925,-0.995871,-0.000188,-0.000049,-0.009963,-0.003163, 0.017708, 0.038565,1, 0.000596, 0.000073,-0.001551,1, 0.182740, 0.066024, 9.804725,1,1
1777934860385,  4007.312,  4007.312,-0.019576,-0.004473,-0.995993,-0.000195,-0.000039,-0.009959,-0.009151, 0.022227, 0.037365,1, 0.000879,-0.000297,-0.000647,1, 0.182838, 0.066125, 9.804723,1,1
1777934860395,  4007.312,  4007.312,-0.019576,-0.004473,-0.995993,-0.000195,-0.000039,-0.009959,-0.009151, 0.022227, 0.037365,1, 0.000879,-0.000297,-0.000647,1, 0.182838, 0.066125, 9.804723,1,1
1777934860407,  4007.337,  4007.332,-0.021386,-0.005342,-0.995076,-0.000213,-0.000051,-0.009950,-0.015350, 0.013433, 0.043823,1,-0.000382,-0.000398,-0.000373,1, 0.182647, 0.066102, 9.804727,1,1
1777934860417,  4007.337,  4007.332,-0.021386,-0.005342,-0.995076,-0.000213,-0.000051,-0.009950,-0.015350, 0.013433, 0.043823,1,-0.000382,-0.000398,-0.000373,1, 0.182647, 0.066102, 9.804727,1,1
1777934860435,  4007.362,  4007.362,-0.022497,-0.007229,-0.996050,-0.000224,-0.000072,-0.009957,-0.037949,-0.004616, 0.036807,1, 0.000400, 0.000085, 0.000543,1, 0.182667, 0.066291, 9.804725,1,1
1777934860445,  4007.362,  4007.362,-0.022497,-0.007229,-0.996050,-0.000224,-0.000072,-0.009957,-0.037949,-0.004616, 0.036807,1, 0.000400, 0.000085, 0.000543,1, 0.182667, 0.066291, 9.804725,1,1
1777934860457,  4007.387,  4007.382,-0.021259,-0.007143,-0.996046,-0.000214,-0.000071,-0.009958,-0.030349,-0.004596, 0.049313,1, 0.000387,-0.000998,-0.000051,1, 0.182827, 0.066394, 9.804721,1,1
1777934860467,  4007.387,  4007.382,-0.021259,-0.007143,-0.996046,-0.000214,-0.000071,-0.009958,-0.030349,-0.004596, 0.049313,1, 0.000387,-0.000998,-0.000051,1, 0.182827, 0.066394, 9.804721,1,1
1777934860484,  4007.412,  4007.412,-0.019129,-0.004552,-0.995735,-0.000192,-0.000049,-0.009959,-0.004716, 0.021714, 0.039895,1, 0.000059,-0.000436,-0.000113,1, 0.182892, 0.066358, 9.804720,1,1
1777934860495,  4007.412,  4007.412,-0.019129,-0.004552,-0.995735,-0.000192,-0.000049,-0.009959,-0.004716, 0.021714, 0.039895,1, 0.000059,-0.000436,-0.000113,1, 0.182892, 0.066358, 9.804720,1,1
1777934860506,  4007.437,  4007.432,-0.016812,-0.005745,-0.995650,-0.000166,-0.000055,-0.009960, 0.019412, 0.021628, 0.035631,1,-0.000506, 0.000603, 0.000722,1, 0.182777, 0.066424, 9.804722,1,1
1777934860517,  4007.437,  4007.432,-0.016812,-0.005745,-0.995650,-0.000166,-0.000055,-0.009960, 0.019412, 0.021628, 0.035631,1,-0.000506, 0.000603, 0.000722,1, 0.182777, 0.066424, 9.804722,1,1
1777934860530,  4007.462,  4007.457,-0.016823,-0.009192,-0.995323,-0.000167,-0.000088,-0.009953, 0.017855,-0.023708, 0.043936,1,-0.000062,-0.000485, 0.001110,1, 0.182849, 0.066428, 9.804720,1,1
1777934860540,  4007.462,  4007.457,-0.016823,-0.009192,-0.995323,-0.000167,-0.000088,-0.009953, 0.017855,-0.023708, 0.043936,1,-0.000062,-0.000485, 0.001110,1, 0.182849, 0.066428, 9.804720,1,1
1777934860556,  4007.487,  4007.482,-0.017235,-0.010542,-0.995478,-0.000174,-0.000109,-0.009948, 0.013553,-0.039864, 0.046614,1, 0.000034,-0.000346, 0.000089,1, 0.182934, 0.066416, 9.804719,1,1
1777934860566,  4007.487,  4007.482,-0.017235,-0.010542,-0.995478,-0.000174,-0.000109,-0.009948, 0.013553,-0.039864, 0.046614,1, 0.000034,-0.000346, 0.000089,1, 0.182934, 0.066416, 9.804719,1,1
1777934860580,  4007.512,  4007.507,-0.017036,-0.007282,-0.996771,-0.000165,-0.000079,-0.009971, 0.015761,-0.004796, 0.029730,1, 0.000939,-0.000309,-0.000677,1, 0.182832, 0.066650, 9.804719,1,1
1777934860590,  4007.512,  4007.507,-0.017036,-0.007282,-0.996771,-0.000165,-0.000079,-0.009971, 0.015761,-0.004796, 0.029730,1, 0.000939,-0.000309,-0.000677,1, 0.182832, 0.066650, 9.804719,1,1
1777934860606,  4007.537,  4007.532,-0.018073,-0.006091,-0.995048,-0.000181,-0.000060,-0.009954, 0.013220, 0.002723, 0.036391,1, 0.000166,-0.000477,-0.001541,1, 0.183055, 0.066732, 9.804714,1,1
1777934860616,  4007.537,  4007.532,-0.018073,-0.006091,-0.995048,-0.000181,-0.000060,-0.009954, 0.013220, 0.002723, 0.036391,1, 0.000166,-0.000477,-0.001541,1, 0.183055, 0.066732, 9.804714,1,1
1777934860629,  4007.557,  4007.557,-0.019579,-0.006246,-0.994646,-0.000190,-0.000066,-0.009951,-0.008967, 0.005583, 0.050566,1, 0.000081,-0.000528,-0.000590,1, 0.183051, 0.066842, 9.804713,1,1
1777934860639,  4007.557,  4007.557,-0.019579,-0.006246,-0.994646,-0.000190,-0.000066,-0.009951,-0.008967, 0.005583, 0.050566,1, 0.000081,-0.000528,-0.000590,1, 0.183051, 0.066842, 9.804713,1,1
1777934860655,  4007.582,  4007.582,-0.020773,-0.006432,-0.996065,-0.000206,-0.000067,-0.009954,-0.020725, 0.003732, 0.036655,1, 0.000417, 0.000235,-0.000802,1, 0.182986, 0.066820, 9.804715,1,1
1777934860666,  4007.582,  4007.582,-0.020773,-0.006432,-0.996065,-0.000206,-0.000067,-0.009954,-0.020725, 0.003732, 0.036655,1, 0.000417, 0.000235,-0.000802,1, 0.182986, 0.066820, 9.804715,1,1
1777934860677,  4007.607,  4007.602,-0.021569,-0.006076,-0.994992,-0.000212,-0.000059,-0.009945,-0.014174, 0.002998, 0.026343,1,-0.000758,-0.000888,-0.001075,1, 0.183112, 0.066797, 9.804712,1,1
1777934860689,  4007.607,  4007.602,-0.021569,-0.006076,-0.994992,-0.000212,-0.000059,-0.009945,-0.014174, 0.002998, 0.026343,1,-0.000758,-0.000888,-0.001075,1, 0.183112, 0.066797, 9.804712,1,1
1777934860705,  4007.632,  4007.632,-0.019847,-0.006535,-0.996896,-0.000200,-0.000067,-0.009969,-0.011527, 0.002650, 0.028502,1,-0.000519, 0.000047,-0.001136,1, 0.183101, 0.066721, 9.804713,1,1
1777934860715,  4007.632,  4007.632,-0.019847,-0.006535,-0.996896,-0.000200,-0.000067,-0.009969,-0.011527, 0.002650, 0.028502,1,-0.000519, 0.000047,-0.001136,1, 0.183101, 0.066721, 9.804713,1,1
1777934860727,  4007.657,  4007.652,-0.019342,-0.005571,-0.996527,-0.000195,-0.000054,-0.009962,-0.007216, 0.012001, 0.052140,1,-0.000111,-0.000547,-0.000218,1, 0.183150, 0.066588, 9.804713,1,1
1777934860737,  4007.657,  4007.652,-0.019342,-0.005571,-0.996527,-0.000195,-0.000054,-0.009962,-0.007216, 0.012001, 0.052140,1,-0.000111,-0.000547,-0.000218,1, 0.183150, 0.066588, 9.804713,1,1
1777934860755,  4007.682,  4007.682,-0.020107,-0.006595,-0.995267,-0.000198,-0.000068,-0.009955,-0.013968, 0.001986, 0.044475,1, 0.000265,-0.000676,-0.000510,1, 0.183234, 0.066670, 9.804711,1,1
1777934860765,  4007.682,  4007.682,-0.020107,-0.006595,-0.995267,-0.000198,-0.000068,-0.009955,-0.013968, 0.001986, 0.044475,1, 0.000265,-0.000676,-0.000510,1, 0.183234, 0.066670, 9.804711,1,1
1777934860777,  4007.707,  4007.702,-0.019187,-0.007293,-0.995404,-0.000190,-0.000076,-0.009954,-0.001997,-0.006056, 0.036680,1,-0.000752, 0.000507,-0.000287,1, 0.183243, 0.066671, 9.804711,1,1
1777934860787,  4007.707,  4007.702,-0.019187,-0.007293,-0.995404,-0.000190,-0.000076,-0.009954,-0.001997,-0.006056, 0.036680,1,-0.000752, 0.000507,-0.000287,1, 0.183243, 0.066671, 9.804711,1,1
1777934860804,  4007.732,  4007.732,-0.018355,-0.007253,-0.995871,-0.000185,-0.000074,-0.009954, 0.003449,-0.004543, 0.038546,1, 0.000162,-0.000041,-0.000833,1, 0.183451, 0.066588, 9.804708,1,1
1777934860814,  4007.732,  4007.732,-0.018355,-0.007253,-0.995871,-0.000185,-0.000074,-0.009954, 0.003449,-0.004543, 0.038546,1, 0.000162,-0.000041,-0.000833,1, 0.183451, 0.066588, 9.804708,1,1
1777934860826,  4007.757,  4007.752,-0.017755,-0.005886,-0.995693,-0.000180,-0.000061,-0.009957, 0.009075, 0.004673, 0.039489,1, 0.000274, 0.000429,-0.000787,1, 0.183352, 0.066588, 9.804709,1,1
1777934860836,  4007.757,  4007.752,-0.017755,-0.005886,-0.995693,-0.000180,-0.000061,-0.009957, 0.009075, 0.004673, 0.039489,1, 0.000274, 0.000429,-0.000787,1, 0.183352, 0.066588, 9.804709,1,1
1777934860850,  4007.782,  4007.777,-0.017858,-0.007197,-0.995998,-0.000175,-0.000071,-0.009958, 0.008200,-0.003939, 0.037308,1, 0.000436, 0.000382, 0.000075,1, 0.183311, 0.066657, 9.804710,1,1
1777934860860,  4007.782,  4007.777,-0.017858,-0.007197,-0.995998,-0.000175,-0.000071,-0.009958, 0.008200,-0.003939, 0.037308,1, 0.000436, 0.000382, 0.000075,1, 0.183311, 0.066657, 9.804710,1,1
1777934860876,  4007.807,  4007.802,-0.018195,-0.008600,-0.995279,-0.000181,-0.000087,-0.009953, 0.010194,-0.016934, 0.042568,1,-0.000334,-0.000156,-0.000317,1, 0.183333, 0.066677, 9.804709,1,1
1777934860886,  4007.807,  4007.802,-0.018195,-0.008600,-0.995279,-0.000181,-0.000087,-0.009953, 0.010194,-0.016934, 0.042568,1,-0.000334,-0.000156,-0.000317,1, 0.183333, 0.066677, 9.804709,1,1
1777934860899,  4007.827,  4007.827,-0.017535,-0.007215,-0.995835,-0.000175,-0.000071,-0.009957, 0.011324,-0.004089, 0.038906,1, 0.000259,-0.000321,-0.000776,1, 0.183298, 0.066672, 9.804710,1,1
1777934860909,  4007.827,  4007.827,-0.017535,-0.007215,-0.995835,-0.000175,-0.000071,-0.009957, 0.011324,-0.004089, 0.038906,1, 0.000259,-0.000321,-0.000776,1, 0.183298, 0.066672, 9.804710,1,1
1777934860925,  4007.852,  4007.852,-0.018050,-0.007448,-0.996040,-0.000180,-0.000075,-0.009958, 0.001219, 0.004005, 0.038753,1,-0.000057, 0.000416,-0.000961,1, 0.183348, 0.066716, 9.804708,1,1
1777934860935,  4007.852,  4007.852,-0.018050,-0.007448,-0.996040,-0.000180,-0.000075,-0.009958, 0.001219, 0.004005, 0.038753,1,-0.000057, 0.000416,-0.000961,1, 0.183348, 0.066716, 9.804708,1,1
1777934860947,  4007.877,  4007.872,-0.019165,-0.007262,-0.995174,-0.000190,-0.000073,-0.009954, 0.000394,-0.010861, 0.039286,1,-0.000765,-0.001048,-0.001390,1, 0.183390, 0.066638, 9.804708,1,1
1777934860957,  4007.877,  4007.872,-0.019165,-0.007262,-0.995174,-0.000190,-0.000073,-0.009954, 0.000394,-0.010861, 0.039286,1,-0.000765,-0.001048,-0.001390,1, 0.183390, 0.066638, 9.804708,1,1
1777934860975,  4007.902,  4007.902,-0.019456,-0.007926,-0.995852,-0.000193,-0.000080,-0.009958,-0.007298,-0.011072, 0.038736,1,-0.000755,-0.000631,-0.001639,1, 0.183524, 0.066636, 9.804707,1,1
1777934860985,  4007.902,  4007.902,-0.019456,-0.007926,-0.995852,-0.000193,-0.000080,-0.009958,-0.007298,-0.011072, 0.038736,1,-0.000755,-0.000631,-0.001639,1, 0.183524, 0.066636, 9.804707,1,1
1777934860997,  4007.927,  4007.922,-0.018263,-0.005047,-0.996381,-0.000184,-0.000054,-0.009962, 0.003230, 0.000935, 0.037088,1,-0.000361,-0.000231,-0.002463,1, 0.183586, 0.066812, 9.804704,1,1
1777934861007,  4007.927,  4007.922,-0.018263,-0.005047,-0.996381,-0.000184,-0.000054,-0.009962, 0.003230, 0.000935, 0.037088,1,-0.000361,-0.000231,-0.002463,1, 0.183586, 0.066812, 9.804704,1,1
1777934861025,  4007.952,  4007.952,-0.018331,-0.005075,-0.995783,-0.000183,-0.000051,-0.009960, 0.003895, 0.016879, 0.039411,1,-0.000239, 0.000195,-0.001573,1, 0.183658, 0.066643, 9.804704,1,1
1777934861035,  4007.952,  4007.952,-0.018331,-0.005075,-0.995783,-0.000183,-0.000051,-0.009960, 0.003895, 0.016879, 0.039411,1,-0.000239, 0.000195,-0.001573,1, 0.183658, 0.066643, 9.804704,1,1
1777934861047,  4007.977,  4007.972,-0.020399,-0.005547,-0.994979,-0.000203,-0.000054,-0.009949,-0.005788, 0.014915, 0.042775,1, 0.000377, 0.000087,-0.000859,1, 0.183678, 0.066745, 9.804703,1,1
1777934861057,  4007.977,  4007.972,-0.020399,-0.005547,-0.994979,-0.000203,-0.000054,-0.009949,-0.005788, 0.014915, 0.042775,1, 0.000377, 0.000087,-0.000859,1, 0.183678, 0.066745, 9.804703,1,1
1777934861074,  4008.002,  4008.002,-0.020788,-0.006339,-0.996128,-0.000209,-0.000062,-0.009964,-0.020164, 0.004673, 0.036020,1,-0.000063,-0.000253, 0.000003,1, 0.183709, 0.066836, 9.804702,1,1
1777934861084,  4008.002,  4008.002,-0.020788,-0.006339,-0.996128,-0.000209,-0.000062,-0.009964,-0.020164, 0.004673, 0.036020,1,-0.000063,-0.000253, 0.000003,1, 0.183709, 0.066836, 9.804702,1,1
1777934861096,  4008.027,  4008.022,-0.020407,-0.005289,-0.995588,-0.000206,-0.000055,-0.009958,-0.020877, 0.008460, 0.045265,1,-0.000222, 0.000612,-0.000619,1, 0.183683, 0.066853, 9.804702,1,1
1777934861106,  4008.027,  4008.022,-0.020407,-0.005289,-0.995588,-0.000206,-0.000055,-0.009958,-0.020877, 0.008460, 0.045265,1,-0.000222, 0.000612,-0.000619,1, 0.183683, 0.066853, 9.804702,1,1
1777934861120,  4008.052,  4008.047,-0.018698,-0.005414,-0.996340,-0.000188,-0.000052,-0.009964, 0.000208, 0.013954, 0.033940,1, 0.000333, 0.000327,-0.000014,1, 0.183561, 0.067062, 9.804703,1,1
1777934861130,  4008.052,  4008.047,-0.018698,-0.005414,-0.996340,-0.000188,-0.000052,-0.009964, 0.000208, 0.013954, 0.033940,1, 0.000333, 0.000327,-0.000014,1, 0.183561, 0.067062, 9.804703,1,1
1777934861146,  4008.077,  4008.072,-0.018384,-0.007612,-0.995971,-0.000184,-0.000078,-0.009956, 0.006598, 0.007750, 0.037477,1, 0.000673, 0.000125, 0.000330,1, 0.183514, 0.067154, 9.804703,1,1
1777934861156,  4008.077,  4008.072,-0.018384,-0.007612,-0.995971,-0.000184,-0.000078,-0.009956, 0.006598, 0.007750, 0.037477,1, 0.000673, 0.000125, 0.000330,1, 0.183514, 0.067154, 9.804703,1,1
1777934861169,  4008.097,  4008.097,-0.018620,-0.010707,-0.995231,-0.000186,-0.000091,-0.009960, 0.000941,-0.037710, 0.044814,1, 0.000110, 0.000698, 0.000067,1, 0.183515, 0.067297, 9.804702,1,1
1777934861179,  4008.097,  4008.097,-0.018620,-0.010707,-0.995231,-0.000186,-0.000091,-0.009960, 0.000941,-0.037710, 0.044814,1, 0.000110, 0.000698, 0.000067,1, 0.183515, 0.067297, 9.804702,1,1
1777934861195,  4008.122,  4008.122,-0.018401,-0.007321,-0.995897,-0.000186,-0.000084,-0.009956, 0.003260,-0.004795, 0.038290,1,-0.000110, 0.001102,-0.000674,1, 0.183712, 0.066965, 9.804701,1,1
1777934861206,  4008.122,  4008.122,-0.018401,-0.007321,-0.995897,-0.000186,-0.000084,-0.009956, 0.003260,-0.004795, 0.038290,1,-0.000110, 0.001102,-0.000674,1, 0.183712, 0.066965, 9.804701,1,1
1777934861217,  4008.147,  4008.142,-0.017675,-0.005775,-0.995339,-0.000180,-0.000039,-0.009961, 0.004838, 0.006355, 0.044076,1,-0.000087, 0.000280,-0.000174,1, 0.183605, 0.067010, 9.804702,1,1
1777934861228,  4008.147,  4008.142,-0.017675,-0.005775,-0.995339,-0.000180,-0.000039,-0.009961, 0.004838, 0.006355, 0.044076,1,-0.000087, 0.000280,-0.000174,1, 0.183605, 0.067010, 9.804702,1,1
1777934861245,  4008.172,  4008.172,-0.019405,-0.005661,-0.995642,-0.000192,-0.000059,-0.009960,-0.006723, 0.011477, 0.040792,1,-0.000724, 0.000229,-0.000026,1, 0.183566, 0.066967, 9.804703,1,1
1777934861255,  4008.172,  4008.172,-0.019405,-0.005661,-0.995642,-0.000192,-0.000059,-0.009960,-0.006723, 0.011477, 0.040792,1,-0.000724, 0.000229,-0.000026,1, 0.183566, 0.066967, 9.804703,1,1
1777934861267,  4008.197,  4008.192,-0.019665,-0.008058,-0.995541,-0.000196,-0.000080,-0.009959,-0.004444,-0.003711, 0.038583,1, 0.000983,-0.000181, 0.000051,1, 0.183646, 0.066992, 9.804702,1,1
1777934861277,  4008.197,  4008.192,-0.019665,-0.008058,-0.995541,-0.000196,-0.000080,-0.009959,-0.004444,-0.003711, 0.038583,1, 0.000983,-0.000181, 0.000051,1, 0.183646, 0.066992, 9.804702,1,1
1777934861295,  4008.222,  4008.222,-0.018824,-0.007997,-0.995447,-0.000188,-0.000081,-0.009953,-0.000934,-0.011474, 0.042704,1,-0.000214, 0.000997,-0.000046,1, 0.183639, 0.066947, 9.804702,1,1
1777934861305,  4008.222,  4008.222,-0.018824,-0.007997,-0.995447,-0.000188,-0.000081,-0.009953,-0.000934,-0.011474, 0.042704,1,-0.000214, 0.000997,-0.000046,1, 0.183639, 0.066947, 9.804702,1,1
1777934861317,  4008.247,  4008.242,-0.017677,-0.006378,-0.995699,-0.000179,-0.000065,-0.009957, 0.006062,-0.003982, 0.034036,1,-0.000014,-0.000157,-0.000579,1, 0.183678, 0.066917, 9.804702,1,1
1777934861327,  4008.247,  4008.242,-0.017677,-0.006378,-0.995699,-0.000179,-0.000065,-0.009957, 0.006062,-0.003982, 0.034036,1,-0.000014,-0.000157,-0.000579,1, 0.183678, 0.066917, 9.804702,1,1
1777934861344,  4008.272,  4008.272,-0.016934,-0.006999,-0.996521,-0.000169,-0.000069,-0.009966, 0.017567,-0.001642, 0.032166,1, 0.000357, 0.000020,-0.000997,1, 0.183631, 0.067010, 9.804702,1,1
1777934861354,  4008.272,  4008.272,-0.016934,-0.006999,-0.996521,-0.000169,-0.000069,-0.009966, 0.017567,-0.001642, 0.032166,1, 0.000357, 0.000020,-0.000997,1, 0.183631, 0.067010, 9.804702,1,1
1777934861366,  4008.297,  4008.292,-0.018725,-0.006774,-0.995994,-0.000189,-0.000069,-0.009959, 0.006151, 0.004151, 0.043258,1, 0.000470,-0.000642,-0.000396,1, 0.183658, 0.067026, 9.804701,1,1
1777934861376,  4008.297,  4008.292,-0.018725,-0.006774,-0.995994,-0.000189,-0.000069,-0.009959, 0.006151, 0.004151, 0.043258,1, 0.000470,-0.000642,-0.000396,1, 0.183658, 0.067026, 9.804701,1,1
1777934861390,  4008.322,  4008.317,-0.019515,-0.007393,-0.995644,-0.000194,-0.000075,-0.009952,-0.007794,-0.005417, 0.040771,1,-0.000025, 0.000700,-0.000764,1, 0.183548, 0.067092, 9.804703,1,1
1777934861400,  4008.322,  4008.317,-0.019515,-0.007393,-0.995644,-0.000194,-0.000075,-0.009952,-0.007794,-0.005417, 0.040771,1,-0.000025, 0.000700,-0.000764,1, 0.183548, 0.067092, 9.804703,1,1
1777934861416,  4008.347,  4008.342,-0.019406,-0.006963,-0.995680,-0.000195,-0.000068,-0.009957,-0.010130, 0.003624, 0.047455,1,-0.000062,-0.000406,-0.000674,1, 0.183517, 0.067058, 9.804704,1,1
1777934861426,  4008.347,  4008.342,-0.019406,-0.006963,-0.995680,-0.000195,-0.000068,-0.009957,-0.010130, 0.003624, 0.047455,1,-0.000062,-0.000406,-0.000674,1, 0.183517, 0.067058, 9.804704,1,1
1777934861439,  4008.367,  4008.367,-0.018896,-0.004853,-0.996341,-0.000188,-0.000053,-0.009959,-0.001820, 0.019462, 0.033932,1,-0.000020, 0.000960,-0.000601,1, 0.183454, 0.067055, 9.804705,1,1
1777934861449,  4008.367,  4008.367,-0.018896,-0.004853,-0.996341,-0.000188,-0.000053,-0.009959,-0.001820, 0.019462, 0.033932,1,-0.000020, 0.000960,-0.000601,1, 0.183454, 0.067055, 9.804705,1,1
1777934861465,  4008.392,  4008.392,-0.019146,-0.006287,-0.996321,-0.000191,-0.000062,-0.009964,-0.004343, 0.005377, 0.034128,1, 0.000305,-0.000665, 0.000322,1, 0.183440, 0.067042, 9.804705,1,1
1777934861475,  4008.392,  4008.392,-0.019146,-0.006287,-0.996321,-0.000191,-0.000062,-0.009964,-0.004343, 0.005377, 0.034128,1, 0.000305,-0.000665, 0.000322,1, 0.183440, 0.067042, 9.804705,1,1
1777934861487,  4008.417,  4008.412,-0.019194,-0.007377,-0.996323,-0.000192,-0.000073,-0.009962,-0.004521, 0.002879, 0.041128,1,-0.001007, 0.000210, 0.000112,1, 0.183461, 0.066922, 9.804706,1,1
1777934861497,  4008.417,  4008.412,-0.019194,-0.007377,-0.996323,-0.000192,-0.000073,-0.009962,-0.004521, 0.002879, 0.041128,1,-0.001007, 0.000210, 0.000112,1, 0.183461, 0.066922, 9.804706,1,1
1777934861515,  4008.442,  4008.442,-0.018619,-0.007335,-0.995930,-0.000185,-0.000075,-0.009960, 0.000793,-0.005037, 0.037964,1,-0.000371, 0.000365,-0.000332,1, 0.183369, 0.066888, 9.804708,1,1
1777934861525,  4008.442,  4008.442,-0.018619,-0.007335,-0.995930,-0.000185,-0.000075,-0.009960, 0.000793,-0.005037, 0.037964,1,-0.000371, 0.000365,-0.000332,1, 0.183369, 0.066888, 9.804708,1,1
1777934861537,  4008.467,  4008.462,-0.018214,-0.007088,-0.996140,-0.000182,-0.000069,-0.009965, 0.005189, 0.001867, 0.033758,1,-0.000065,-0.000195,-0.000737,1, 0.183426, 0.066948, 9.804706,1,1
1777934861547,  4008.467,  4008.462,-0.018214,-0.007088,-0.996140,-0.000182,-0.000069,-0.009965, 0.005189, 0.001867, 0.033758,1,-0.000065,-0.000195,-0.000737,1, 0.183426, 0.066948, 9.804706,1,1
1777934861565,  4008.492,  4008.492,-0.017975,-0.006444,-0.995488,-0.000180,-0.000063,-0.009952, 0.007180, 0.003663, 0.042306,1,-0.000001,-0.000667,-0.000615,1, 0.183476, 0.066858, 9.804706,1,1
1777934861575,  4008.492,  4008.492,-0.017975,-0.006444,-0.995488,-0.000180,-0.000063,-0.009952, 0.007180, 0.003663, 0.042306,1,-0.000001,-0.000667,-0.000615,1, 0.183476, 0.066858, 9.804706,1,1
1777934861587,  4008.517,  4008.512,-0.018703,-0.007993,-0.995453,-0.000188,-0.000080,-0.009957,-0.002691,-0.007549, 0.037100,1, 0.000956,-0.000202,-0.000343,1, 0.183498, 0.066961, 9.804705,1,1
1777934861597,  4008.517,  4008.512,-0.018703,-0.007993,-0.995453,-0.000188,-0.000080,-0.009957,-0.002691,-0.007549, 0.037100,1, 0.000956,-0.000202,-0.000343,1, 0.183498, 0.066961, 9.804705,1,1
1777934861614,  4008.542,  4008.542,-0.019525,-0.006560,-0.995472,-0.000194,-0.000067,-0.009955,-0.007807, 0.002675, 0.042456,1,-0.000558,-0.000688,-0.000709,1, 0.183691, 0.066987, 9.804701,1,1
1777934861624,  4008.542,  4008.542,-0.019525,-0.006560,-0.995472,-0.000194,-0.000067,-0.009955,-0.007807, 0.002675, 0.042456,1,-0.000558,-0.000688,-0.000709,1, 0.183691, 0.066987, 9.804701,1,1
1777934861636,  4008.567,  4008.562,-0.018930,-0.006229,-0.996165,-0.000189,-0.000062,-0.009965,-0.002437, 0.004947, 0.038449,1, 0.000390,-0.000692,-0.000639,1, 0.183774, 0.067055, 9.804699,1,1
1777934861646,  4008.567,  4008.562,-0.018930,-0.006229,-0.996165,-0.000189,-0.000062,-0.009965,-0.002437, 0.004947, 0.038449,1, 0.000390,-0.000692,-0.000639,1, 0.183774, 0.067055, 9.804699,1,1
1777934861660,  4008.592,  4008.587,-0.018569,-0.005954,-0.995442,-0.000186,-0.000058,-0.009955, 0.001610, 0.008733, 0.042748,1, 0.000659,-0.000084,-0.000520,1, 0.183712, 0.067140, 9.804699,1,1
1777934861670,  4008.592,  4008.587,-0.018569,-0.005954,-0.995442,-0.000186,-0.000058,-0.009955, 0.001610, 0.008733, 0.042748,1, 0.000659,-0.000084,-0.000520,1, 0.183712, 0.067140, 9.804699,1,1
1777934861686,  4008.617,  4008.612,-0.019050,-0.006956,-0.995598,-0.000189,-0.000069,-0.009955, 0.002007, 0.000633, 0.039383,1, 0.000058,-0.000589,-0.000008,1, 0.183815, 0.067139, 9.804697,1,1
1777934861696,  4008.617,  4008.612,-0.019050,-0.006956,-0.995598,-0.000189,-0.000069,-0.009955, 0.002007, 0.000633, 0.039383,1, 0.000058,-0.000589,-0.000008,1, 0.183815, 0.067139, 9.804697,1,1
1777934861710,  4008.637,  4008.637,-0.018293,-0.007120,-0.995635,-0.000183,-0.000073,-0.009957, 0.004419,-0.002694, 0.040857,1,-0.000825, 0.000382,-0.000440,1, 0.183796, 0.067100, 9.804698,1,1
1777934861720,  4008.637,  4008.637,-0.018293,-0.007120,-0.995635,-0.000183,-0.000073,-0.009957, 0.004419,-0.002694, 0.040857,1,-0.000825, 0.000382,-0.000440,1, 0.183796, 0.067100, 9.804698,1,1
1777934861735,  4008.662,  4008.662,-0.018686,-0.007596,-0.995601,-0.000187,-0.000075,-0.009955, 0.000586,-0.007401, 0.041181,1, 0.000099, 0.000063,-0.000856,1, 0.183828, 0.067093, 9.804697,1,1
1777934861746,  4008.662,  4008.662,-0.018686,-0.007596,-0.995601,-0.000187,-0.000075,-0.009955, 0.000586,-0.007401, 0.041181,1, 0.000099, 0.000063,-0.000856,1, 0.183828, 0.067093, 9.804697,1,1
1777934861757,  4008.687,  4008.682,-0.018812,-0.006805,-0.995634,-0.000186,-0.000065,-0.009955, 0.002044,-0.000139, 0.038152,1,-0.000413, 0.000297,-0.000626,1, 0.183779, 0.067054, 9.804699,1,1
1777934861768,  4008.687,  4008.682,-0.018812,-0.006805,-0.995634,-0.000186,-0.000065,-0.009955, 0.002044,-0.000139, 0.038152,1,-0.000413, 0.000297,-0.000626,1, 0.183779, 0.067054, 9.804699,1,1
1777934861785,  4008.712,  4008.712,-0.018462,-0.005762,-0.995697,-0.000185,-0.000058,-0.009957, 0.002679, 0.010454, 0.040248,1, 0.000291, 0.000220,-0.000938,1, 0.183720, 0.066972, 9.804700,1,1
1777934861795,  4008.712,  4008.712,-0.018462,-0.005762,-0.995697,-0.000185,-0.000058,-0.009957, 0.002679, 0.010454, 0.040248,1, 0.000291, 0.000220,-0.000938,1, 0.183720, 0.066972, 9.804700,1,1
1777934861807,  4008.737,  4008.732,-0.018916,-0.005445,-0.995776,-0.000190,-0.000053,-0.009959,-0.005361, 0.007754, 0.038440,1,-0.000964, 0.000041, 0.000297,1, 0.183823, 0.066914, 9.804699,1,1
1777934861817,  4008.737,  4008.732,-0.018916,-0.005445,-0.995776,-0.000190,-0.000053,-0.009959,-0.005361, 0.007754, 0.038440,1,-0.000964, 0.000041, 0.000297,1, 0.183823, 0.066914, 9.804699,1,1
1777934861835,  4008.762,  4008.762,-0.019374,-0.007620,-0.995898,-0.000192,-0.000074,-0.009958,-0.006223,-0.007743, 0.038273,1, 0.000178,-0.000647,-0.000408,1, 0.183796, 0.066989, 9.804699,1,1
1777934861845,  4008.762,  4008.762,-0.019374,-0.007620,-0.995898,-0.000192,-0.000074,-0.009958,-0.006223,-0.007743, 0.038273,1, 0.000178,-0.000647,-0.000408,1, 0.183796, 0.066989, 9.804699,1,1
1777934861857,  4008.787,  4008.782,-0.018871,-0.006565,-0.995553,-0.000190,-0.000068,-0.009957, 0.001182,-0.004417, 0.034842,1,-0.000287, 0.000066,-0.000045,1, 0.183801, 0.067001, 9.804699,1,1
1777934861867,  4008.787,  4008.782,-0.018871,-0.006565,-0.995553,-0.000190,-0.000068,-0.009957, 0.001182,-0.004417, 0.034842,1,-0.000287, 0.000066,-0.000045,1, 0.183801, 0.067001, 9.804699,1,1
1777934861884,  4008.812,  4008.812,-0.018616,-0.006671,-0.995665,-0.000185,-0.000066,-0.009958, 0.001205, 0.001742, 0.040564,1, 0.000024, 0.000429,-0.000690,1, 0.183748, 0.067159, 9.804698,1,1
1777934861894,  4008.812,  4008.812,-0.018616,-0.006671,-0.995665,-0.000185,-0.000066,-0.009958, 0.001205, 0.001742, 0.040564,1, 0.000024, 0.000429,-0.000690,1, 0.183748, 0.067159, 9.804698,1,1
1777934861906,  4008.837,  4008.832,-0.018365,-0.006476,-0.996187,-0.000184,-0.000068,-0.009961,-0.000167,-0.005659, 0.041968,1,-0.000005,-0.000176,-0.000865,1, 0.183824, 0.067176, 9.804697,1,1
1777934861916,  4008.837,  4008.832,-0.018365,-0.006476,-0.996187,-0.000184,-0.000068,-0.009961,-0.000167,-0.005659, 0.041968,1,-0.000005,-0.000176,-0.000865,1, 0.183824, 0.067176, 9.804697,1,1
1777934861930,  4008.862,  4008.857,-0.018895,-0.006428,-0.996204,-0.000188,-0.000066,-0.009961,-0.001393, 0.004188, 0.035266,1, 0.000243,-0.000003,-0.000275,1, 0.183906, 0.067234, 9.804695,1,1
1777934861940,  4008.862,  4008.857,-0.018895,-0.006428,-0.996204,-0.000188,-0.000066,-0.009961,-0.001393, 0.004188, 0.035266,1, 0.000243,-0.000003,-0.000275,1, 0.183906, 0.067234, 9.804695,1,1
1777934861956,  4008.887,  4008.882,-0.018624,-0.006631,-0.995790,-0.000186,-0.000068,-0.009959,-0.004033,-0.001922, 0.038802,1, 0.000050,-0.000082,-0.000796,1, 0.183826, 0.067195, 9.804697,1,1
1777934861966,  4008.887,  4008.882,-0.018624,-0.006631,-0.995790,-0.000186,-0.000068,-0.009959,-0.004033,-0.001922, 0.038802,1, 0.000050,-0.000082,-0.000796,1, 0.183826, 0.067195, 9.804697,1,1
1777934861979,  4008.907,  4008.907,-0.019049,-0.006404,-0.995230,-0.000191,-0.000066,-0.009954,-0.003059, 0.004352, 0.044824,1,-0.000370,-0.000017,-0.000570,1, 0.183752, 0.067146, 9.804698,1,1
1777934861989,  4008.907,  4008.907,-0.019049,-0.006404,-0.995230,-0.000191,-0.000066,-0.009954,-0.003059, 0.004352, 0.044824,1,-0.000370,-0.000017,-0.000570,1, 0.183752, 0.067146, 9.804698,1,1
1777934862006,  4008.932,  4008.932,-0.019351,-0.006232,-0.995913,-0.000195,-0.000062,-0.009959,-0.005889, 0.005971, 0.038129,1,-0.000340, 0.000050,-0.000676,1, 0.183875, 0.067078, 9.804697,1,1
1777934862016,  4008.932,  4008.932,-0.019351,-0.006232,-0.995913,-0.000195,-0.000062,-0.009959,-0.005889, 0.005971, 0.038129,1,-0.000340, 0.000050,-0.000676,1, 0.183875, 0.067078, 9.804697,1,1
1777934862028,  4008.957,  4008.952,-0.019952,-0.006260,-0.996232,-0.000197,-0.000062,-0.009961,-0.006295,-0.000830, 0.037657,1, 0.000403, 0.000588,-0.000167,1, 0.183773, 0.067056, 9.804699,1,1
1777934862038,  4008.957,  4008.952,-0.019952,-0.006260,-0.996232,-0.000197,-0.000062,-0.009961,-0.006295,-0.000830, 0.037657,1, 0.000403, 0.000588,-0.000167,1, 0.183773, 0.067056, 9.804699,1,1
1777934862055,  4008.982,  4008.982,-0.018887,-0.006443,-0.995942,-0.000190,-0.000065,-0.009957,-0.001450, 0.003930, 0.037845,1, 0.000100,-0.000193,-0.000162,1, 0.183771, 0.067118, 9.804698,1,1
1777934862065,  4008.982,  4008.982,-0.018887,-0.006443,-0.995942,-0.000190,-0.000065,-0.009957,-0.001450, 0.003930, 0.037845,1, 0.000100,-0.000193,-0.000162,1, 0.183771, 0.067118, 9.804698,1,1
1777934862077,  4009.007,  4009.002,-0.018300,-0.007356,-0.996582,-0.000181,-0.000073,-0.009963,-0.001490, 0.000740, 0.038008,1, 0.000469, 0.000190,-0.000296,1, 0.183797, 0.067268, 9.804697,1,1
1777934862087,  4009.007,  4009.002,-0.018300,-0.007356,-0.996582,-0.000181,-0.000073,-0.009963,-0.001490, 0.000740, 0.038008,1, 0.000469, 0.000190,-0.000296,1, 0.183797, 0.067268, 9.804697,1,1
1777934862105,  4009.032,  4009.032,-0.018501,-0.007173,-0.995565,-0.000184,-0.000073,-0.009958, 0.002355,-0.002952, 0.041538,1,-0.000102,-0.000111,-0.000784,1, 0.183795, 0.067388, 9.804696,1,1
1777934862115,  4009.032,  4009.032,-0.018501,-0.007173,-0.995565,-0.000184,-0.000073,-0.009958, 0.002355,-0.002952, 0.041538,1,-0.000102,-0.000111,-0.000784,1, 0.183795, 0.067388, 9.804696,1,1
1777934862127,  4009.057,  4009.052,-0.018101,-0.006731,-0.995801,-0.000181,-0.000071,-0.009959, 0.002812,-0.002815, 0.038859,1, 0.000365, 0.000168,-0.000626,1, 0.183809, 0.067467, 9.804695,1,1
1777934862137,  4009.057,  4009.052,-0.018101,-0.006731,-0.995801,-0.000181,-0.000071,-0.009959, 0.002812,-0.002815, 0.038859,1, 0.000365, 0.000168,-0.000626,1, 0.183809, 0.067467, 9.804695,1,1
1777934862154,  4009.082,  4009.082,-0.018146,-0.006579,-0.995554,-0.000179,-0.000066,-0.009955, 0.005854, 0.002905, 0.041642,1,-0.000320,-0.000873,-0.000364,1, 0.183828, 0.067417, 9.804695,1,1
1777934862164,  4009.082,  4009.082,-0.018146,-0.006579,-0.995554,-0.000179,-0.000066,-0.009955, 0.005854, 0.002905, 0.041642,1,-0.000320,-0.000873,-0.000364,1, 0.183828, 0.067417, 9.804695,1,1
1777934862176,  4009.107,  4009.102,-0.018876,-0.005768,-0.995472,-0.000188,-0.000057,-0.009956, 0.001099, 0.008304, 0.042207,1, 0.000588, 0.000111,-0.000638,1, 0.183859, 0.067490, 9.804694,1,1
1777934862186,  4009.107,  4009.102,-0.018876,-0.005768,-0.995472,-0.000188,-0.000057,-0.009956, 0.001099, 0.008304, 0.042207,1, 0.000588, 0.000111,-0.000638,1, 0.183859, 0.067490, 9.804694,1,1
1777934862200,  4009.132,  4009.127,-0.020016,-0.006455,-0.995509,-0.000198,-0.000062,-0.009954,-0.012361, 0.004191, 0.042081,1, 0.000738, 0.000467,-0.000689,1, 0.183917, 0.067514, 9.804693,1,1
1777934862210,  4009.132,  4009.127,-0.020016,-0.006455,-0.995509,-0.000198,-0.000062,-0.009954,-0.012361, 0.004191, 0.042081,1, 0.000738, 0.000467,-0.000689,1, 0.183917, 0.067514, 9.804693,1,1
1777934862226,  4009.157,  4009.152,-0.019872,-0.006851,-0.995203,-0.000198,-0.000069,-0.009951,-0.012133, 0.000100, 0.040973,1,-0.000534,-0.000547,-0.000222,1, 0.184003, 0.067492, 9.804691,1,1
1777934862236,  4009.157,  4009.152,-0.019872,-0.006851,-0.995203,-0.000198,-0.000069,-0.009951,-0.012133, 0.000100, 0.040973,1,-0.000534,-0.000547,-0.000222,1, 0.184003, 0.067492, 9.804691,1,1
1777934862249,  4009.177,  4009.177,-0.019815,-0.007201,-0.995459,-0.000199,-0.000073,-0.009955,-0.010265,-0.003216, 0.042572,1,-0.000131,-0.000460,-0.000849,1, 0.184070, 0.067393, 9.804690,1,1
1777934862259,  4009.177,  4009.177,-0.019815,-0.007201,-0.995459,-0.000199,-0.000073,-0.009955,-0.010265,-0.003216, 0.042572,1,-0.000131,-0.000460,-0.000849,1, 0.184070, 0.067393, 9.804690,1,1
1777934862276,  4009.207,  4009.202,-0.018190,-0.006557,-0.995378,-0.000183,-0.000067,-0.009956, 0.001969,-0.002626, 0.042137,1,-0.000196, 0.000192,-0.000409,1, 0.184035, 0.067377, 9.804691,1,1
1777934862286,  4009.207,  4009.202,-0.018190,-0.006557,-0.995378,-0.000183,-0.000067,-0.009956, 0.001969,-0.002626, 0.042137,1,-0.000196, 0.000192,-0.000409,1, 0.184035, 0.067377, 9.804691,1,1
1777934862298,  4009.227,  4009.222,-0.017835,-0.007402,-0.995560,-0.000178,-0.000072,-0.009956, 0.008135,-0.002224, 0.037041,1, 0.000036, 0.000125,-0.000656,1, 0.184011, 0.067303, 9.804692,1,1
1777934862308,  4009.227,  4009.222,-0.017835,-0.007402,-0.995560,-0.000178,-0.000072,-0.009956, 0.008135,-0.002224, 0.037041,1, 0.000036, 0.000125,-0.000656,1, 0.184011, 0.067303, 9.804692,1,1
1777934862325,  4009.252,  4009.252,-0.017584,-0.006939,-0.995369,-0.000178,-0.000071,-0.009953, 0.011598,-0.000832, 0.043458,1,-0.000220,-0.000252,-0.000896,1, 0.184042, 0.067207, 9.804692,1,1
1777934862335,  4009.252,  4009.252,-0.017584,-0.006939,-0.995369,-0.000178,-0.000071,-0.009953, 0.011598,-0.000832, 0.043458,1,-0.000220,-0.000252,-0.000896,1, 0.184042, 0.067207, 9.804692,1,1
1777934862347,  4009.277,  4009.272,-0.018665,-0.006904,-0.995486,-0.000188,-0.000072,-0.009953, 0.004410,-0.003264, 0.039175,1,-0.000977, 0.000647,-0.001062,1, 0.183979, 0.067123, 9.804694,1,1
1777934862357,  4009.277,  4009.272,-0.018665,-0.006904,-0.995486,-0.000188,-0.000072,-0.009953, 0.004410,-0.003264, 0.039175,1,-0.000977, 0.000647,-0.001062,1, 0.183979, 0.067123, 9.804694,1,1
1777934862375,  4009.302,  4009.302,-0.019572,-0.007153,-0.995739,-0.000198,-0.000072,-0.009955,-0.008025,-0.003057, 0.039834,1,-0.000180,-0.000234,-0.001238,1, 0.183915, 0.067085, 9.804696,1,1
1777934862385,  4009.302,  4009.302,-0.019572,-0.007153,-0.995739,-0.000198,-0.000072,-0.009955,-0.008025,-0.003057, 0.039834,1,-0.000180,-0.000234,-0.001238,1, 0.183915, 0.067085, 9.804696,1,1
1777934862397,  4009.327,  4009.322,-0.019792,-0.006832,-0.995628,-0.000197,-0.000069,-0.009954,-0.009667,-0.006179, 0.045419,1, 0.000137, 0.000550,-0.001379,1, 0.183984, 0.067176, 9.804694,1,1
1777934862407,  4009.327,  4009.322,-0.019792,-0.006832,-0.995628,-0.000197,-0.000069,-0.009954,-0.009667,-0.006179, 0.045419,1, 0.000137, 0.000550,-0.001379,1, 0.183984, 0.067176, 9.804694,1,1
1777934862424,  4009.352,  4009.352,-0.018803,-0.006336,-0.996026,-0.000188,-0.000063,-0.009960,-0.000507, 0.005060, 0.037020,1, 0.000452, 0.000378,-0.000862,1, 0.183874, 0.067207, 9.804696,1,1
1777934862434,  4009.352,  4009.352,-0.018803,-0.006336,-0.996026,-0.000188,-0.000063,-0.009960,-0.000507, 0.005060, 0.037020,1, 0.000452, 0.000378,-0.000862,1, 0.183874, 0.067207, 9.804696,1,1
1777934862446,  4009.377,  4009.372,-0.018390,-0.005508,-0.995590,-0.000183,-0.000054,-0.009959, 0.003760, 0.015234, 0.038067,1, 0.000017,-0.000045,-0.000649,1, 0.183874, 0.067239, 9.804695,1,1
1777934862457,  4009.377,  4009.372,-0.018390,-0.005508,-0.995590,-0.000183,-0.000054,-0.009959, 0.003760, 0.015234, 0.038067,1, 0.000017,-0.000045,-0.000649,1, 0.183874, 0.067239, 9.804695,1,1
1777934862470,  4009.402,  4009.397,-0.018509,-0.005765,-0.995706,-0.000186,-0.000058,-0.009956, 0.002264, 0.010623, 0.040157,1, 0.000929, 0.000631,-0.000041,1, 0.183752, 0.067192, 9.804698,1,1
1777934862480,  4009.402,  4009.397,-0.018509,-0.005765,-0.995706,-0.000186,-0.000058,-0.009956, 0.002264, 0.010623, 0.040157,1, 0.000929, 0.000631,-0.000041,1, 0.183752, 0.067192, 9.804698,1,1
1777934862496,  4009.427,  4009.422,-0.018591,-0.006357,-0.995578,-0.000186,-0.000064,-0.009957, 0.000564, 0.002516, 0.042689,1,-0.000231,-0.000422,-0.000491,1, 0.183786, 0.067192, 9.804697,1,1
1777934862506,  4009.427,  4009.422,-0.018591,-0.006357,-0.995578,-0.000186,-0.000064,-0.009957, 0.000564, 0.002516, 0.042689,1,-0.000231,-0.000422,-0.000491,1, 0.183786, 0.067192, 9.804697,1,1
1777934862519,  4009.447,  4009.447,-0.018999,-0.006984,-0.995596,-0.000190,-0.000070,-0.009954,-0.002519,-0.001229, 0.041237,1, 0.000260, 0.000733, 0.000491,1, 0.183776, 0.067271, 9.804697,1,1
1777934862530,  4009.447,  4009.447,-0.018999,-0.006984,-0.995596,-0.000190,-0.000070,-0.009954,-0.002519,-0.001229, 0.041237,1, 0.000260, 0.000733, 0.000491,1, 0.183776, 0.067271, 9.804697,1,1
1777934862546,  4009.477,  4009.472,-0.019475,-0.007764,-0.995686,-0.000195,-0.000076,-0.009953,-0.004044,-0.002546, 0.043001,1, 0.001038,-0.000652,-0.000642,1, 0.183799, 0.067330, 9.804696,1,1
1777934862556,  4009.477,  4009.472,-0.019475,-0.007764,-0.995686,-0.000195,-0.000076,-0.009953,-0.004044,-0.002546, 0.043001,1, 0.001038,-0.000652,-0.000642,1, 0.183799, 0.067330, 9.804696,1,1
1777934862568,  4009.497,  4009.492,-0.019281,-0.007220,-0.995694,-0.000194,-0.000075,-0.009957,-0.004611,-0.010086, 0.038147,1, 0.000835,-0.000190,-0.000593,1, 0.183837, 0.067426, 9.804695,1,1
1777934862578,  4009.497,  4009.492,-0.019281,-0.007220,-0.995694,-0.000194,-0.000075,-0.009957,-0.004611,-0.010086, 0.038147,1, 0.000835,-0.000190,-0.000593,1, 0.183837, 0.067426, 9.804695,1,1
1777934862595,  4009.522,  4009.522,-0.019457,-0.008070,-0.996359,-0.000196,-0.000080,-0.009963,-0.006902,-0.011746, 0.033747,1, 0.000256, 0.000295,-0.001397,1, 0.183908, 0.067391, 9.804694,1,1
1777934862605,  4009.522,  4009.522,-0.019457,-0.008070,-0.996359,-0.000196,-0.000080,-0.009963,-0.006902,-0.011746, 0.033747,1, 0.000256, 0.000295,-0.001397,1, 0.183908, 0.067391, 9.804694,1,1
1777934862617,  4009.547,  4009.542,-0.018644,-0.006643,-0.995870,-0.000188,-0.000067,-0.009958,-0.005235, 0.003259, 0.042848,1,-0.000511,-0.000226,-0.001145,1, 0.183863, 0.067342, 9.804695,1,1
1777934862627,  4009.547,  4009.542,-0.018644,-0.006643,-0.995870,-0.000188,-0.000067,-0.009958,-0.005235, 0.003259, 0.042848,1,-0.000511,-0.000226,-0.001145,1, 0.183863, 0.067342, 9.804695,1,1
1777934862645,  4009.572,  4009.572,-0.018994,-0.006553,-0.995466,-0.000190,-0.000066,-0.009954,-0.002491, 0.003114, 0.042510,1,-0.000050,-0.000074,-0.001448,1, 0.183777, 0.067377, 9.804696,1,1
1777934862655,  4009.572,  4009.572,-0.018994,-0.006553,-0.995466,-0.000190,-0.000066,-0.009954,-0.002491, 0.003114, 0.042510,1,-0.000050,-0.000074,-0.001448,1, 0.183777, 0.067377, 9.804696,1,1
1777934862667,  4009.597,  4009.592,-0.018286,-0.006406,-0.995668,-0.000183,-0.000066,-0.009956, 0.001826, 0.000888, 0.039030,1,-0.000511, 0.000168,-0.000729,1, 0.183729, 0.067274, 9.804698,1,1
1777934862677,  4009.597,  4009.592,-0.018286,-0.006406,-0.995668,-0.000183,-0.000066,-0.009956, 0.001826, 0.000888, 0.039030,1,-0.000511, 0.000168,-0.000729,1, 0.183729, 0.067274, 9.804698,1,1
1777934862694,  4009.622,  4009.622,-0.019103,-0.006609,-0.995945,-0.000190,-0.000067,-0.009963,-0.003645, 0.002322, 0.037810,1,-0.001352,-0.000105,-0.000316,1, 0.183695, 0.067096, 9.804700,1,1
1777934862705,  4009.622,  4009.622,-0.019103,-0.006609,-0.995945,-0.000190,-0.000067,-0.009963,-0.003645, 0.002322, 0.037810,1,-0.001352,-0.000105,-0.000316,1, 0.183695, 0.067096, 9.804700,1,1
1777934862716,  4009.647,  4009.642,-0.018867,-0.006600,-0.995762,-0.000191,-0.000067,-0.009958,-0.001489, 0.000775, 0.038843,1,-0.000229,-0.000533,-0.000599,1, 0.183756, 0.067107, 9.804699,1,1
1777934862727,  4009.647,  4009.642,-0.018867,-0.006600,-0.995762,-0.000191,-0.000067,-0.009958,-0.001489, 0.000775, 0.038843,1,-0.000229,-0.000533,-0.000599,1, 0.183756, 0.067107, 9.804699,1,1
1777934862740,  4009.672,  4009.667,-0.018643,-0.007145,-0.995616,-0.000185,-0.000070,-0.009957, 0.000783,-0.003011, 0.041039,1, 0.000017, 0.000471,-0.000993,1, 0.183595, 0.067061, 9.804702,1,1
1777934862750,  4009.672,  4009.667,-0.018643,-0.007145,-0.995616,-0.000185,-0.000070,-0.009957, 0.000783,-0.003011, 0.041039,1, 0.000017, 0.000471,-0.000993,1, 0.183595, 0.067061, 9.804702,1,1
1777934862766,  4009.697,  4009.692,-0.018206,-0.007111,-0.996216,-0.000184,-0.000074,-0.009961, 0.003172,-0.007783, 0.038540,1,-0.000656,-0.000682,-0.001102,1, 0.183686, 0.067053, 9.804700,1,1
1777934862776,  4009.697,  4009.692,-0.018206,-0.007111,-0.996216,-0.000184,-0.000074,-0.009961, 0.003172,-0.007783, 0.038540,1,-0.000656,-0.000682,-0.001102,1, 0.183686, 0.067053, 9.804700,1,1
1777934862789,  4009.717,  4009.717,-0.018036,-0.005232,-0.995643,-0.000180,-0.000054,-0.009954, 0.006934, 0.015781, 0.040770,1, 0.000458, 0.000505,-0.001322,1, 0.183801, 0.067103, 9.804698,1,1
1777934862800,  4009.717,  4009.717,-0.018036,-0.005232,-0.995643,-0.000180,-0.000054,-0.009954, 0.006934, 0.015781, 0.040770,1, 0.000458, 0.000505,-0.001322,1, 0.183801, 0.067103, 9.804698,1,1
1777934862816,  4009.747,  4009.742,-0.019521,-0.006331,-0.995404,-0.000195,-0.000062,-0.009952,-0.004118, 0.012388, 0.040109,1, 0.000688, 0.000591,-0.000952,1, 0.183762, 0.067255, 9.804697,1,1
1777934862826,  4009.747,  4009.742,-0.019521,-0.006331,-0.995404,-0.000195,-0.000062,-0.009952,-0.004118, 0.012388, 0.040109,1, 0.000688, 0.000591,-0.000952,1, 0.183762, 0.067255, 9.804697,1,1
1777934862839,  4009.767,  4009.767,-0.021475,-0.007257,-0.995679,-0.000213,-0.000072,-0.009957,-0.026841,-0.003932, 0.040422,1,-0.000095,-0.000359,-0.001179,1, 0.183764, 0.067229, 9.804698,1,1
1777934862849,  4009.767,  4009.767,-0.021475,-0.007257,-0.995679,-0.000213,-0.000072,-0.009957,-0.026841,-0.003932, 0.040422,1,-0.000095,-0.000359,-0.001179,1, 0.183764, 0.067229, 9.804698,1,1
1777934862865,  4009.792,  4009.792,-0.021352,-0.006877,-0.996162,-0.000214,-0.000071,-0.009959,-0.025731,-0.000176, 0.035688,1, 0.000252, 0.000813,-0.001165,1, 0.183635, 0.067274, 9.804700,1,1
1777934862875,  4009.792,  4009.792,-0.021352,-0.006877,-0.996162,-0.000214,-0.000071,-0.009959,-0.025731,-0.000176, 0.035688,1, 0.000252, 0.000813,-0.001165,1, 0.183635, 0.067274, 9.804700,1,1
1777934862887,  4009.817,  4009.812,-0.018694,-0.004968,-0.995986,-0.000188,-0.000054,-0.009958,-0.009410, 0.007648, 0.037954,1,-0.000560, 0.000658,-0.001255,1, 0.183584, 0.067148, 9.804702,1,1
1777934862897,  4009.817,  4009.812,-0.018694,-0.004968,-0.995986,-0.000188,-0.000054,-0.009958,-0.009410, 0.007648, 0.037954,1,-0.000560, 0.000658,-0.001255,1, 0.183584, 0.067148, 9.804702,1,1
1777934862915,  4009.842,  4009.842,-0.016838,-0.004905,-0.996209,-0.000170,-0.000048,-0.009966, 0.018440, 0.019119, 0.035228,1, 0.000339, 0.000101, 0.000334,1, 0.183563, 0.067234, 9.804702,1,1
1777934862925,  4009.842,  4009.842,-0.016838,-0.004905,-0.996209,-0.000170,-0.000048,-0.009966, 0.018440, 0.019119, 0.035228,1, 0.000339, 0.000101, 0.000334,1, 0.183563, 0.067234, 9.804702,1,1
1777934862937,  4009.867,  4009.862,-0.016705,-0.007591,-0.995153,-0.000164,-0.000076,-0.009955, 0.020735, 0.001875, 0.038230,1, 0.000248,-0.000277, 0.000342,1, 0.183578, 0.067222, 9.804701,1,1
1777934862947,  4009.867,  4009.862,-0.016705,-0.007591,-0.995153,-0.000164,-0.000076,-0.009955, 0.020735, 0.001875, 0.038230,1, 0.000248,-0.000277, 0.000342,1, 0.183578, 0.067222, 9.804701,1,1
1777934862964,  4009.892,  4009.892,-0.017189,-0.009165,-0.995530,-0.000172,-0.000092,-0.009957, 0.015047,-0.022711, 0.041885,1,-0.000021,-0.000203,-0.000884,1, 0.183617, 0.067163, 9.804701,1,1
1777934862975,  4009.892,  4009.892,-0.017189,-0.009165,-0.995530,-0.000172,-0.000092,-0.009957, 0.015047,-0.022711, 0.041885,1,-0.000021,-0.000203,-0.000884,1, 0.183617, 0.067163, 9.804701,1,1
1777934862986,  4009.917,  4009.912,-0.017942,-0.007399,-0.995798,-0.000180,-0.000073,-0.009960, 0.004273,-0.013488, 0.040033,1, 0.000171, 0.000532,-0.001109,1, 0.183633, 0.067257, 9.804700,1,1
1777934862997,  4009.917,  4009.912,-0.017942,-0.007399,-0.995798,-0.000180,-0.000073,-0.009960, 0.004273,-0.013488, 0.040033,1, 0.000171, 0.000532,-0.001109,1, 0.183633, 0.067257, 9.804700,1,1
1777934863010,  4009.942,  4009.937,-0.018286,-0.006198,-0.996381,-0.000184,-0.000063,-0.009963, 0.004311, 0.006414, 0.033539,1, 0.000344,-0.000070,-0.001177,1, 0.183633, 0.067204, 9.804700,1,1
1777934863020,  4009.942,  4009.937,-0.018286,-0.006198,-0.996381,-0.000184,-0.000063,-0.009963, 0.004311, 0.006414, 0.033539,1, 0.000344,-0.000070,-0.001177,1, 0.183633, 0.067204, 9.804700,1,1
1777934863036,  4009.967,  4009.962,-0.019915,-0.005798,-0.995024,-0.000196,-0.000057,-0.009951,-0.006856, 0.014595, 0.036437,1,-0.001077, 0.000065,-0.001424,1, 0.183675, 0.067136, 9.804700,1,1
1777934863046,  4009.967,  4009.962,-0.019915,-0.005798,-0.995024,-0.000196,-0.000057,-0.009951,-0.006856, 0.014595, 0.036437,1,-0.001077, 0.000065,-0.001424,1, 0.183675, 0.067136, 9.804700,1,1
1777934863060,  4009.992,  4009.987,-0.021454,-0.008382,-0.995949,-0.000214,-0.000083,-0.009956,-0.026700,-0.015021, 0.037779,1, 0.000518,-0.000003,-0.000509,1, 0.183692, 0.067197, 9.804699,1,1
1777934863070,  4009.992,  4009.987,-0.021454,-0.008382,-0.995949,-0.000214,-0.000083,-0.009956,-0.026700,-0.015021, 0.037779,1, 0.000518,-0.000003,-0.000509,1, 0.183692, 0.067197, 9.804699,1,1
1777934863086,  4010.017,  4010.012,-0.020259,-0.006969,-0.995142,-0.000204,-0.000071,-0.009951,-0.022154,-0.008108, 0.046907,1,-0.000726,-0.000129,-0.001188,1, 0.183664, 0.067071, 9.804701,1,1
1777934863096,  4010.017,  4010.012,-0.020259,-0.006969,-0.995142,-0.000204,-0.000071,-0.009951,-0.022154,-0.008108, 0.046907,1,-0.000726,-0.000129,-0.001188,1, 0.183664, 0.067071, 9.804701,1,1
1777934863109,  4010.037,  4010.037,-0.018336,-0.005821,-0.995865,-0.000186,-0.000058,-0.009956, 0.003901, 0.010098, 0.038603,1, 0.000218, 0.000227,-0.001425,1, 0.183711, 0.067188, 9.804699,1,1
1777934863119,  4010.037,  4010.037,-0.018336,-0.005821,-0.995865,-0.000186,-0.000058,-0.009956, 0.003901, 0.010098, 0.038603,1, 0.000218, 0.000227,-0.001425,1, 0.183711, 0.067188, 9.804699,1,1
1777934863135,  4010.062,  4010.062,-0.018084,-0.005226,-0.995818,-0.000181,-0.000049,-0.009958, 0.006329, 0.015986, 0.039056,1, 0.000163, 0.000505,-0.000432,1, 0.183661, 0.067243, 9.804700,1,1
1777934863146,  4010.062,  4010.062,-0.018084,-0.005226,-0.995818,-0.000181,-0.000049,-0.009958, 0.006329, 0.015986, 0.039056,1, 0.000163, 0.000505,-0.000432,1, 0.183661, 0.067243, 9.804700,1,1
1777934863157,  4010.087,  4010.082,-0.019000,-0.006617,-0.995969,-0.000188,-0.000065,-0.009957, 0.000444, 0.012198, 0.045089,1, 0.000814, 0.001028, 0.000389,1, 0.183577, 0.067296, 9.804701,1,1
1777934863168,  4010.087,  4010.082,-0.019000,-0.006617,-0.995969,-0.000188,-0.000065,-0.009957, 0.000444, 0.012198, 0.045089,1, 0.000814, 0.001028, 0.000389,1, 0.183577, 0.067296, 9.804701,1,1
1777934863185,  4010.112,  4010.112,-0.019385,-0.007852,-0.995632,-0.000193,-0.000082,-0.009958,-0.006443,-0.009615, 0.040886,1,-0.000322,-0.000611,-0.000437,1, 0.183674, 0.067381, 9.804698,1,1
1777934863195,  4010.112,  4010.112,-0.019385,-0.007852,-0.995632,-0.000193,-0.000082,-0.009958,-0.006443,-0.009615, 0.040886,1,-0.000322,-0.000611,-0.000437,1, 0.183674, 0.067381, 9.804698,1,1
1777934863207,  4010.137,  4010.132,-0.018358,-0.006223,-0.995224,-0.000184,-0.000062,-0.009955, 0.000093,-0.002328, 0.040291,1,-0.000079,-0.000556,-0.000913,1, 0.183971, 0.067316, 9.804693,1,1
1777934863217,  4010.137,  4010.132,-0.018358,-0.006223,-0.995224,-0.000184,-0.000062,-0.009955, 0.000093,-0.002328, 0.040291,1,-0.000079,-0.000556,-0.000913,1, 0.183971, 0.067316, 9.804693,1,1
1777934863235,  4010.162,  4010.162,-0.018529,-0.005379,-0.996229,-0.000184,-0.000053,-0.009957, 0.002079, 0.014580, 0.035025,1, 0.000334, 0.000273,-0.000865,1, 0.183781, 0.067341, 9.804696,1,1
1777934863245,  4010.162,  4010.162,-0.018529,-0.005379,-0.996229,-0.000184,-0.000053,-0.009957, 0.002079, 0.014580, 0.035025,1, 0.000334, 0.000273,-0.000865,1, 0.183781, 0.067341, 9.804696,1,1
1777934863257,  4010.187,  4010.182,-0.018835,-0.006459,-0.995484,-0.000189,-0.000061,-0.009952, 0.003136, 0.009018, 0.035504,1,-0.000355, 0.000260, 0.000168,1, 0.183756, 0.067243, 9.804698,1,1
1777934863267,  4010.187,  4010.182,-0.018835,-0.006459,-0.995484,-0.000189,-0.000061,-0.009952, 0.003136, 0.009018, 0.035504,1,-0.000355, 0.000260, 0.000168,1, 0.183756, 0.067243, 9.804698,1,1
1777934863284,  4010.212,  4010.212,-0.019523,-0.008054,-0.995349,-0.000195,-0.000078,-0.009956,-0.007701,-0.011662, 0.043656,1,-0.000323,-0.000529,-0.000276,1, 0.183776, 0.067314, 9.804697,1,1
1777934863294,  4010.212,  4010.212,-0.019523,-0.008054,-0.995349,-0.000195,-0.000078,-0.009956,-0.007701,-0.011662, 0.043656,1,-0.000323,-0.000529,-0.000276,1, 0.183776, 0.067314, 9.804697,1,1
1777934863306,  4010.237,  4010.232,-0.018398,-0.007618,-0.995138,-0.000184,-0.000078,-0.009955,-0.001258,-0.019419, 0.039936,1,-0.000574,-0.000062,-0.000595,1, 0.183667, 0.067252, 9.804699,1,1
1777934863316,  4010.237,  4010.232,-0.018398,-0.007618,-0.995138,-0.000184,-0.000078,-0.009955,-0.001258,-0.019419, 0.039936,1,-0.000574,-0.000062,-0.000595,1, 0.183667, 0.067252, 9.804699,1,1
1777934863330,  4010.262,  4010.257,-0.017587,-0.006708,-0.995967,-0.000177,-0.000067,-0.009957, 0.011183, 0.001420, 0.037595,1, 0.000121, 0.000643,-0.001055,1, 0.183629, 0.067207, 9.804700,1,1
1777934863340,  4010.262,  4010.257,-0.017587,-0.006708,-0.995967,-0.000177,-0.000067,-0.009957, 0.011183, 0.001420, 0.037595,1, 0.000121, 0.000643,-0.001055,1, 0.183629, 0.067207, 9.804700,1,1
1777934863356,  4010.287,  4010.282,-0.018305,-0.005628,-0.995271,-0.000184,-0.000057,-0.009954, 0.011400, 0.007483, 0.035094,1,-0.000446, 0.000006,-0.000528,1, 0.183626, 0.067182, 9.804701,1,1
1777934863366,  4010.287,  4010.282,-0.018305,-0.005628,-0.995271,-0.000184,-0.000057,-0.009954, 0.011400, 0.007483, 0.035094,1,-0.000446, 0.000006,-0.000528,1, 0.183626, 0.067182, 9.804701,1,1
1777934863379,  4010.307,  4010.307,-0.019693,-0.006189,-0.995353,-0.000197,-0.000059,-0.009951,-0.009367, 0.006578, 0.043617,1, 0.000473,-0.000682,-0.001301,1, 0.183780, 0.067287, 9.804697,1,1
1777934863389,  4010.307,  4010.307,-0.019693,-0.006189,-0.995353,-0.000197,-0.000059,-0.009951,-0.009367, 0.006578, 0.043617,1, 0.000473,-0.000682,-0.001301,1, 0.183780, 0.067287, 9.804697,1,1
1777934863405,  4010.332,  4010.332,-0.020317,-0.007807,-0.996101,-0.000204,-0.000078,-0.009961,-0.015502,-0.009216, 0.036283,1, 0.000256,-0.000052,-0.000769,1, 0.183740, 0.067351, 9.804697,1,1
1777934863416,  4010.332,  4010.332,-0.020317,-0.007807,-0.996101,-0.000204,-0.000078,-0.009961,-0.015502,-0.009216, 0.036283,1, 0.000256,-0.000052,-0.000769,1, 0.183740, 0.067351, 9.804697,1,1
1777934863427,  4010.357,  4010.352,-0.019202,-0.006598,-0.995868,-0.000192,-0.000067,-0.009957,-0.004383, 0.007545, 0.041235,1,-0.000187, 0.000151,-0.000301,1, 0.183781, 0.067326, 9.804697,1,1
1777934863438,  4010.357,  4010.352,-0.019202,-0.006598,-0.995868,-0.000192,-0.000067,-0.009957,-0.004383, 0.007545, 0.041235,1,-0.000187, 0.000151,-0.000301,1, 0.183781, 0.067326, 9.804697,1,1
1777934863455,  4010.382,  4010.382,-0.018187,-0.007549,-0.995602,-0.000181,-0.000073,-0.009958, 0.005313,-0.006778, 0.041181,1,-0.000439, 0.000252,-0.000830,1, 0.183662, 0.067235, 9.804700,1,1
1777934863465,  4010.382,  4010.382,-0.018187,-0.007549,-0.995602,-0.000181,-0.000073,-0.009958, 0.005313,-0.006778, 0.041181,1,-0.000439, 0.000252,-0.000830,1, 0.183662, 0.067235, 9.804700,1,1
1777934863477,  4010.407,  4010.402,-0.017643,-0.007227,-0.995540,-0.000178,-0.000068,-0.009954, 0.010212,-0.003765, 0.043496,1,-0.000150, 0.000184,-0.000337,1, 0.183662, 0.067244, 9.804699,1,1
1777934863487,  4010.407,  4010.402,-0.017643,-0.007227,-0.995540,-0.000178,-0.000068,-0.009954, 0.010212,-0.003765, 0.043496,1,-0.000150, 0.000184,-0.000337,1, 0.183662, 0.067244, 9.804699,1,1
1777934863505,  4010.432,  4010.432,-0.017786,-0.006017,-0.995851,-0.000178,-0.000064,-0.009958, 0.009247, 0.008272, 0.038734,1,-0.000491, 0.000359,-0.001075,1, 0.183660, 0.067268, 9.804699,1,1
1777934863515,  4010.432,  4010.432,-0.017786,-0.006017,-0.995851,-0.000178,-0.000064,-0.009958, 0.009247, 0.008272, 0.038734,1,-0.000491, 0.000359,-0.001075,1, 0.183660, 0.067268, 9.804699,1,1
1777934863527,  4010.457,  4010.452,-0.019038,-0.005488,-0.996044,-0.000188,-0.000056,-0.009963, 0.000137, 0.008338, 0.041533,1,-0.000184,-0.000168,-0.000352,1, 0.183690, 0.067254, 9.804699,1,1
1777934863537,  4010.457,  4010.452,-0.019038,-0.005488,-0.996044,-0.000188,-0.000056,-0.009963, 0.000137, 0.008338, 0.041533,1,-0.000184,-0.000168,-0.000352,1, 0.183690, 0.067254, 9.804699,1,1
1777934863554,  4010.482,  4010.482,-0.019700,-0.006709,-0.995692,-0.000194,-0.000065,-0.009956,-0.009438, 0.001519, 0.040289,1,-0.000136,-0.000692, 0.000233,1, 0.183772, 0.067312, 9.804697,1,1
