Time,GPS_ts,fGPS_ts,scaledAccelX,scaledAccelY,scaledAccelZ,deltaVelX,deltaVelY,deltaVelZ,estLinearAccelX,estLinearAccelY,estLinearAccelZ,estLinearAccel:valid,estAngularRateX,estAngularRateY,estAngularRateZ,estAngularRate:valid,estGravityX,estGravityY,estGravityZ,estGravity:valid,flag
1778108618755,   618.511,   618.511, 0.011867,-0.019101,-0.996173, 0.000024,-0.000038,-0.001992,-0.008109,-0.001523, 0.034978,1,-0.001586,-0.000239,-0.000065,1,-0.124480, 0.185785, 9.804100,1,0
1778108618755,   618.516,   618.515, 0.012387,-0.018618,-0.995846, 0.000025,-0.000037,-0.001992, 0.000627, 0.003510, 0.028921,1,-0.001101, 0.001116,-0.000204,1,-0.124505, 0.185738, 9.804100,1,0
1778108618755,   618.521,   618.521, 0.012782,-0.018895,-0.995132, 0.000026,-0.000038,-0.001990, 0.000838, 0.000445, 0.045191,1, 0.000002,-0.000616,-0.000903,1,-0.124503, 0.185745, 9.804100,1,0
1778108618755,   618.526,   618.525, 0.012717,-0.019925,-0.995207, 0.000025,-0.000040,-0.001990, 0.000255,-0.005313, 0.043842,1,-0.000658, 0.000151, 0.000495,1,-0.124508, 0.185733, 9.804100,1,0
1778108618755,   618.531,   618.530, 0.012986,-0.018770,-0.996603, 0.000026,-0.000037,-0.001994, 0.002806, 0.001640, 0.030759,1,-0.001552, 0.000654,-0.000255,1,-0.124548, 0.185699, 9.804101,1,0
1778108618755,   618.536,   618.535, 0.012644,-0.017842,-0.994915, 0.000025,-0.000035,-0.001990, 0.007931, 0.012984, 0.038593,1,-0.000273,-0.000035, 0.000043,1,-0.124528, 0.185664, 9.804102,1,0
1778108618755,   618.540,   618.540, 0.012458,-0.019888,-0.995723, 0.000025,-0.000040,-0.001991,-0.002384,-0.009391, 0.039397,1,-0.000397,-0.000049,-0.001217,1,-0.124554, 0.185639, 9.804102,1,0
1778108618755,   618.545,   618.545, 0.013750,-0.019093,-0.996359, 0.000028,-0.000038,-0.001993, 0.010288,-0.001617, 0.033156,1,-0.000769,-0.000580,-0.000256,1,-0.124545, 0.185620, 9.804102,1,0
1778108618755,   618.550,   618.549, 0.012269,-0.018036,-0.995160, 0.000025,-0.000036,-0.001990,-0.003316, 0.003912, 0.034860,1,-0.000049,-0.000472,-0.000576,1,-0.124525, 0.185600, 9.804103,1,0
1778108618755,   618.555,   618.555, 0.012258,-0.018746,-0.995195, 0.000025,-0.000038,-0.001990,-0.004323, 0.001793, 0.044569,1, 0.000028, 0.000136,-0.001196,1,-0.124537, 0.185630, 9.804102,1,0
1778108618755,   618.558,   618.557, 0.012773,-0.020054,-0.995870, 0.000026,-0.000040,-0.001992,-0.001424,-0.001370, 0.041105,1, 0.000271, 0.000580,-0.000383,1,-0.124548, 0.185633, 9.804102,1,0
1778108618761,   646.270,   646.269, 0.011238,-0.022983,-0.992458, 0.000022,-0.000046,-0.001985,-0.000106,-0.011786, 0.033106,1,-0.000596, 0.000428,-0.000166,1,-0.124570, 0.185621, 9.804102,1,0
1778108618771,   646.275,   646.274, 0.011837,-0.020408,-0.995077, 0.000024,-0.000041,-0.001991,-0.008196,-0.014961, 0.045740,1,-0.001748,-0.000665, 0.000476,1,-0.124272, 0.185158, 9.804114,1,0
1778108618782,   646.569,   646.569, 0.011139,-0.020431,-0.996377, 0.000022,-0.000041,-0.001993,-0.014773,-0.015744, 0.033010,1,-0.001377,-0.000581, 0.000223,1,-0.124003, 0.184610, 9.804128,1,0
1778108618793,   646.574,   646.573, 0.012010,-0.020497,-0.995828, 0.000024,-0.000041,-0.001992,-0.005391,-0.016486, 0.040343,1, 0.000519, 0.000599, 0.001204,1,-0.123996, 0.184643, 9.804128,1,0
1778108618804,   646.579,   646.579, 0.011888,-0.020687,-0.995509, 0.000024,-0.000041,-0.001991,-0.007437,-0.018180, 0.041515,1,-0.000042, 0.000793, 0.000294,1,-0.124020, 0.184687, 9.804127,1,0
1778108618814,   646.583,   646.583, 0.013065,-0.019515,-0.995644, 0.000026,-0.000039,-0.001991, 0.004084,-0.006711, 0.040197,1,-0.001106, 0.000766, 0.000980,1,-0.124047, 0.184654, 9.804127,1,0
1778108618825,   646.588,   646.587, 0.012609,-0.018031,-0.996181, 0.000025,-0.000036,-0.001992, 0.005175, 0.004140, 0.035441,1,-0.001173,-0.000485, 0.001141,1,-0.124043, 0.184615, 9.804128,1,0
1778108618836,   646.593,   646.593, 0.012630,-0.018586,-0.995485, 0.000025,-0.000037,-0.001991,-0.000187, 0.002344, 0.041754,1, 0.000722, 0.000641, 0.000726,1,-0.124050, 0.184617, 9.804128,1,0
1778108618847,   646.598,   646.597, 0.012772,-0.017450,-0.995424, 0.000026,-0.000035,-0.001991, 0.003479, 0.003983, 0.043480,1,-0.000898, 0.000262, 0.000193,1,-0.124057, 0.184607, 9.804128,1,0
1778108618857,   646.602,   646.601, 0.012744,-0.015782,-0.995120, 0.000026,-0.000031,-0.001990, 0.003261, 0.021928, 0.040521,1,-0.001013,-0.000333,-0.000065,1,-0.124080, 0.184585, 9.804128,1,0
1778108618868,   646.607,   646.607, 0.012702,-0.016687,-0.995184, 0.000025,-0.000033,-0.001990, 0.000479, 0.020942, 0.044707,1, 0.000874, 0.000063, 0.001210,1,-0.124090, 0.184596, 9.804127,1,0
1778108618879,   646.612,   646.611, 0.012896,-0.016976,-0.995719, 0.000026,-0.000034,-0.001991,-0.001502, 0.013214, 0.036802,1,-0.000070, 0.000403, 0.000278,1,-0.124106, 0.184583, 9.804128,1,0
1778108618890,   646.616,   646.615, 0.013167,-0.016778,-0.996142, 0.000027,-0.000034,-0.001992, 0.002499, 0.017269, 0.036618,1, 0.000250, 0.000987,-0.000003,1,-0.124131, 0.184609, 9.804127,1,0
1778108618900,   646.621,   646.621, 0.012257,-0.016580,-0.995000, 0.000024,-0.000033,-0.001990,-0.003960, 0.022015, 0.046506,1, 0.000118, 0.000207, 0.000260,1,-0.124163, 0.184610, 9.804126,1,0
1778108618911,   646.626,   646.625, 0.012814,-0.017086,-0.995249, 0.000026,-0.000034,-0.001990, 0.003845, 0.023438, 0.048818,1, 0.000309,-0.000519,-0.000713,1,-0.124161, 0.184606, 9.804126,1,0
1778108618922,   646.630,   646.629, 0.012337,-0.017513,-0.996723, 0.000025,-0.000035,-0.001993,-0.000742, 0.010131, 0.042369,1, 0.001488,-0.000131,-0.000126,1,-0.124160, 0.184659, 9.804125,1,0
1778108618933,   646.635,   646.635, 0.012856,-0.017609,-0.997834, 0.000026,-0.000035,-0.001996, 0.009421, 0.016480, 0.011025,1, 0.000351,-0.000111,-0.000492,1,-0.124165, 0.184629, 9.804126,1,0
1778108618944,   646.640,   646.639, 0.013040,-0.016839,-0.996332, 0.000026,-0.000034,-0.001993, 0.002621, 0.021059, 0.023581,1, 0.000754,-0.000966,-0.000138,1,-0.124138, 0.184628, 9.804126,1,0
1778108618954,   646.644,   646.643, 0.012419,-0.018368,-0.994869, 0.000025,-0.000037,-0.001989, 0.001599, 0.005703, 0.046767,1, 0.001100, 0.000854, 0.000496,1,-0.124140, 0.184669, 9.804125,1,0
1778108618965,   646.649,   646.649, 0.013145,-0.019475,-0.995517, 0.000026,-0.000039,-0.001991, 0.004775,-0.006265, 0.041436,1,-0.000615, 0.000268,-0.000256,1,-0.124135, 0.184711, 9.804125,1,0
1778108618976,   646.654,   646.653, 0.012727,-0.018528,-0.995431, 0.000025,-0.000037,-0.001991,-0.002593,-0.003659, 0.035970,1,-0.001025, 0.000267,-0.000894,1,-0.124150, 0.184683, 9.804125,1,0
1778108618987,   646.658,   646.657, 0.012875,-0.019396,-0.996216, 0.000026,-0.000039,-0.001993, 0.006410, 0.004805, 0.039009,1, 0.000114,-0.000089,-0.000701,1,-0.124130, 0.184679, 9.804125,1,0
1778108618997,   646.663,   646.663, 0.011670,-0.020444,-0.995240, 0.000023,-0.000041,-0.001990,-0.009677,-0.015810, 0.044151,1,-0.000116, 0.000337,-0.000555,1,-0.124119, 0.184676, 9.804126,1,0
1778108619008,   646.668,   646.667, 0.011648,-0.020211,-0.995786, 0.000023,-0.000040,-0.001992,-0.008608,-0.015951, 0.046194,1,-0.000681, 0.001311,-0.000687,1,-0.124162, 0.184634, 9.804126,1,0
1778108619019,   646.672,   646.671, 0.012363,-0.020881,-0.995200, 0.000025,-0.000042,-0.001990,-0.003324,-0.013635, 0.035518,1, 0.000384,-0.000177,-0.000788,1,-0.124190, 0.184667, 9.804125,1,0
1778108619030,   646.677,   646.677, 0.011937,-0.020725,-0.995189, 0.000024,-0.000041,-0.001990,-0.007122,-0.018628, 0.044655,1,-0.001126,-0.000375, 0.000495,1,-0.124185, 0.184607, 9.804126,1,0
1778108619040,   646.682,   646.681, 0.012283,-0.022005,-0.995328, 0.000025,-0.000044,-0.001991,-0.014727,-0.026942, 0.041795,1,-0.000258, 0.000295,-0.000369,1,-0.124194, 0.184600, 9.804126,1,0
1778108619051,   646.686,   646.686, 0.012295,-0.021321,-0.996050, 0.000025,-0.000043,-0.001992,-0.003616,-0.024504, 0.036215,1, 0.000055,-0.000202,-0.000235,1,-0.124191, 0.184585, 9.804126,1,0
1778108619062,   646.691,   646.691, 0.012561,-0.020022,-0.995887, 0.000025,-0.000040,-0.001992,-0.001004,-0.011740, 0.037809,1, 0.000626,-0.000391, 0.000199,1,-0.124184, 0.184610, 9.804126,1,0
1778108619073,   646.696,   646.695, 0.012436,-0.020863,-0.995438, 0.000025,-0.000042,-0.001991,-0.004269,-0.021269, 0.035655,1, 0.000846, 0.000149,-0.000228,1,-0.124201, 0.184614, 9.804126,1,0
1778108619083,   646.700,   646.700, 0.012049,-0.019855,-0.995330, 0.000024,-0.000040,-0.001991,-0.006048,-0.010136, 0.043268,1,-0.001804, 0.000289, 0.000525,1,-0.124214, 0.184561, 9.804127,1,0
1778108619094,   646.705,   646.705, 0.012858,-0.018813,-0.996802, 0.000026,-0.000037,-0.001994, 0.001866, 0.000036, 0.028835,1,-0.000787, 0.000708, 0.000302,1,-0.124233, 0.184527, 9.804127,1,0
1778108619105,   646.710,   646.709, 0.012652,-0.018753,-0.995385, 0.000025,-0.000038,-0.001991,-0.003169, 0.002159, 0.038139,1, 0.000605, 0.000162, 0.001113,1,-0.124259, 0.184547, 9.804126,1,0
1778108619116,   646.714,   646.714, 0.012375,-0.019072,-0.995999, 0.000025,-0.000038,-0.001992,-0.002894,-0.002478, 0.036716,1,-0.000471, 0.000682, 0.000216,1,-0.124259, 0.184556, 9.804126,1,0
1778108619126,   646.719,   646.719, 0.012020,-0.018687,-0.995138, 0.000024,-0.000037,-0.001990,-0.006391, 0.001262, 0.045151,1,-0.000917,-0.000176, 0.000735,1,-0.124265, 0.184512, 9.804127,1,0
1778108619137,   646.724,   646.723, 0.013201,-0.017324,-0.995843, 0.000026,-0.000034,-0.001992, 0.004680, 0.008557, 0.043007,1,-0.000416, 0.000969, 0.000557,1,-0.124292, 0.184497, 9.804127,1,0
1778108619148,   646.728,   646.728, 0.013479,-0.017516,-0.995664, 0.000027,-0.000035,-0.001991, 0.007907, 0.012674, 0.040003,1,-0.000977,-0.000858, 0.000686,1,-0.124270, 0.184440, 9.804128,1,0
1778108619159,   646.733,   646.733, 0.012699,-0.017807,-0.995256, 0.000025,-0.000035,-0.001990, 0.000262, 0.009809, 0.044000,1,-0.000255,-0.000130, 0.001009,1,-0.124273, 0.184433, 9.804128,1,0
1778108619170,   646.799,   646.799, 0.012873,-0.017436,-0.996820, 0.000026,-0.000035,-0.001994, 0.001962, 0.013413, 0.028664,1,-0.001017,-0.000158, 0.000231,1,-0.124275, 0.184395, 9.804129,1,0
1778108619180,   646.804,   646.803, 0.010579,-0.022239,-0.996649, 0.000021,-0.000045,-0.001993,-0.026481,-0.017334, 0.017824,1, 0.001124,-0.000678,-0.000246,1,-0.124279, 0.184413, 9.804129,1,0
1778108619191,   646.809,   646.808, 0.014362,-0.018941,-0.994444, 0.000029,-0.000037,-0.001989, 0.016566,-0.001313, 0.051960,1,-0.000870,-0.000829, 0.000439,1,-0.124271, 0.184430, 9.804128,1,0
1778108619202,   646.813,   646.813, 0.009745,-0.020577,-0.989837, 0.000019,-0.000041,-0.001979,-0.028681,-0.017380, 0.097145,1, 0.001003, 0.000681,-0.000188,1,-0.124238, 0.184411, 9.804129,1,0
1778108619213,   646.818,   646.817, 0.014598,-0.022542,-0.999332, 0.000030,-0.000045,-0.001999, 0.019318,-0.037841, 0.031358,1,-0.000294, 0.001801, 0.000022,1,-0.124309, 0.184430, 9.804128,1,0
1778108619223,   646.823,   646.822, 0.011435,-0.018541,-0.997880, 0.000022,-0.000037,-0.001996,-0.012179, 0.002506, 0.018264,1,-0.000409, 0.000990,-0.000277,1,-0.124324, 0.184332, 9.804130,1,0
1778108619234,   646.827,   646.827, 0.014228,-0.019590,-0.997468, 0.000029,-0.000039,-0.001995, 0.015164,-0.007716, 0.022310,1, 0.001986, 0.000750,-0.000131,1,-0.124371, 0.184409, 9.804127,1,0
1778108619245,   646.832,   646.831, 0.012431,-0.020332,-0.992997, 0.000025,-0.000041,-0.001986,-0.014549,-0.021203, 0.062524,1, 0.001518, 0.000890, 0.000140,1,-0.124372, 0.184481, 9.804126,1,0
1778108619256,   646.837,   646.837, 0.011861,-0.021344,-0.993133, 0.000024,-0.000043,-0.001986,-0.008078,-0.024853, 0.064813,1,-0.001099, 0.000233,-0.000243,1,-0.124393, 0.184454, 9.804126,1,0
1778108619266,   646.841,   646.841, 0.014133,-0.018892,-0.996951, 0.000029,-0.000037,-0.001994, 0.014131,-0.000828, 0.027374,1,-0.000689, 0.002146,-0.000120,1,-0.124484, 0.184435, 9.804125,1,0
1778108619277,   646.846,   646.845, 0.012458,-0.018369,-0.998021, 0.000024,-0.000037,-0.001996, 0.007018,-0.006265, 0.015192,1,-0.000772, 0.000889, 0.000438,1,-0.124528, 0.184403, 9.804125,1,0
1778108619288,   646.851,   646.851, 0.014185,-0.018911,-0.997062, 0.000029,-0.000038,-0.001994, 0.014573,-0.001048, 0.026287,1, 0.000119, 0.000163, 0.000597,1,-0.124537, 0.184409, 9.804125,1,0
1778108619299,   646.856,   646.855, 0.013134,-0.017618,-0.994112, 0.000026,-0.000035,-0.001988, 0.005648,-0.000127, 0.041739,1,-0.000552,-0.000131, 0.000548,1,-0.124513, 0.184390, 9.804126,1,0
1778108619309,   646.860,   646.859, 0.013275,-0.018611,-0.995668, 0.000027,-0.000037,-0.001992, 0.006181, 0.013801, 0.054431,1, 0.001517,-0.000325,-0.000117,1,-0.124504, 0.184430, 9.804125,1,0
1778108619320,   646.865,   646.865, 0.014083,-0.016700,-0.997005, 0.000028,-0.000033,-0.001994, 0.013572, 0.020650, 0.026847,1, 0.000258,-0.000059,-0.001486,1,-0.124531, 0.184423, 9.804125,1,0
1778108619331,   646.870,   646.869, 0.013200,-0.017427,-0.997477, 0.000026,-0.000035,-0.001995,-0.001379, 0.033408, 0.026188,1, 0.001464, 0.000067,-0.000218,1,-0.124537, 0.184481, 9.804124,1,0
1778108619342,   646.874,   646.873, 0.013214,-0.017257,-0.997486, 0.000027,-0.000034,-0.001995, 0.013499, 0.003483, 0.021473,1, 0.000983, 0.000147,-0.000705,1,-0.124542, 0.184502, 9.804123,1,0
1778108619353,   646.879,   646.879, 0.012783,-0.015931,-0.995193, 0.000026,-0.000032,-0.001990, 0.000875, 0.028263, 0.044618,1,-0.000652,-0.001419, 0.000496,1,-0.124473, 0.184487, 9.804125,1,0
1778108619363,   646.884,   646.883, 0.012526,-0.018926,-0.995449, 0.000025,-0.000038,-0.001991, 0.000106, 0.009430, 0.046440,1, 0.000919, 0.000312, 0.000340,1,-0.124450, 0.184498, 9.804125,1,0
1778108619374,   646.888,   646.887, 0.013219,-0.018578,-0.996195, 0.000027,-0.000037,-0.001992, 0.001236,-0.000722, 0.035173,1, 0.000330, 0.000967, 0.001234,1,-0.124486, 0.184528, 9.804124,1,0
1778108619385,   646.893,   646.893, 0.012042,-0.016305,-0.996350, 0.000024,-0.000032,-0.001993,-0.006438, 0.024597, 0.033268,1,-0.001356,-0.000106, 0.000234,1,-0.124524, 0.184484, 9.804124,1,0
1778108619396,   646.898,   646.897, 0.012493,-0.017599,-0.994832, 0.000025,-0.000035,-0.001990,-0.004569, 0.020962, 0.034843,1, 0.000829,-0.000898,-0.000167,1,-0.124488, 0.184490, 9.804124,1,0
1778108619406,   647.192,   647.191, 0.012427,-0.019486,-0.994836, 0.000025,-0.000039,-0.001989,-0.003360, 0.001743, 0.038157,1, 0.000593,-0.000525, 0.000359,1,-0.124317, 0.184266, 9.804131,1,0
1778108619417,   647.197,   647.197, 0.011788,-0.019769,-0.995705, 0.000024,-0.000040,-0.001991,-0.008739,-0.009596, 0.039596,1,-0.000042, 0.000332, 0.000885,1,-0.124344, 0.184275, 9.804130,1,0
1778108619428,   647.202,   647.201, 0.012178,-0.018931,-0.997003, 0.000024,-0.000038,-0.001994,-0.005172,-0.009022, 0.034799,1,-0.000317,-0.000677,-0.000769,1,-0.124314, 0.184258, 9.804131,1,0
1778108619439,   647.206,   647.205, 0.012212,-0.018281,-0.995289, 0.000024,-0.000036,-0.001991,-0.007997, 0.007463, 0.033893,1,-0.000523,-0.000097,-0.000009,1,-0.124300, 0.184208, 9.804132,1,0
1778108619449,   647.211,   647.211, 0.012026,-0.020025,-0.995169, 0.000024,-0.000040,-0.001990,-0.006373,-0.012138, 0.044859,1, 0.000956,-0.000103,-0.000609,1,-0.124304, 0.184242, 9.804132,1,0
1778108619460,   647.216,   647.215, 0.012345,-0.020569,-0.995685, 0.000025,-0.000041,-0.001991,-0.006143,-0.021177, 0.043647,1,-0.000559,-0.000795, 0.000035,1,-0.124297, 0.184232, 9.804132,1,0
1778108619471,   647.220,   647.220, 0.012367,-0.019093,-0.996001, 0.000025,-0.000038,-0.001992,-0.003028,-0.003046, 0.036695,1, 0.000110,-0.000002, 0.000187,1,-0.124306, 0.184198, 9.804132,1,0
1778108619482,   647.225,   647.225, 0.012152,-0.018606,-0.996268, 0.000024,-0.000037,-0.001993,-0.005169, 0.001747, 0.034078,1, 0.000688, 0.000953, 0.000046,1,-0.124346, 0.184210, 9.804132,1,0
1778108619492,   647.230,   647.229, 0.012824,-0.019910,-0.995608, 0.000026,-0.000040,-0.001991,-0.003654,-0.009515, 0.034299,1, 0.000400, 0.000856,-0.000717,1,-0.124392, 0.184215, 9.804131,1,0
1778108619503,   647.234,   647.234, 0.012462,-0.019210,-0.994478, 0.000025,-0.000038,-0.001989,-0.002169,-0.004139, 0.051627,1,-0.000133,-0.000695, 0.000173,1,-0.124378, 0.184249, 9.804130,1,0
1778108619514,   647.239,   647.239, 0.012129,-0.018533,-0.995462, 0.000024,-0.000037,-0.001991,-0.005448, 0.002481, 0.041981,1,-0.000643,-0.000074, 0.000044,1,-0.124392, 0.184224, 9.804131,1,0
1778108619525,   647.244,   647.243, 0.013456,-0.019267,-0.995011, 0.000027,-0.000039,-0.001990,-0.000477,-0.002918, 0.048630,1, 0.000299,-0.000438, 0.000689,1,-0.124369, 0.184227, 9.804131,1,0
1778108619535,   647.248,   647.248, 0.013281,-0.019684,-0.996681, 0.000026,-0.000039,-0.001994, 0.005906,-0.008826, 0.030033,1,-0.000695,-0.001123,-0.000010,1,-0.124325, 0.184208, 9.804132,1,0
1778108619546,   647.253,   647.253, 0.012856,-0.018951,-0.996276, 0.000025,-0.000038,-0.001993, 0.001761,-0.001662, 0.034003,1,-0.000756,-0.000083,-0.000100,1,-0.124313, 0.184178, 9.804132,1,0
1778108619557,   647.258,   647.257, 0.013035,-0.018053,-0.995619, 0.000026,-0.000036,-0.001991,-0.000124, 0.009447, 0.037395,1, 0.001063,-0.000468, 0.000046,1,-0.124298, 0.184195, 9.804132,1,0
1778108619568,   647.262,   647.262, 0.013467,-0.019038,-0.994608, 0.000027,-0.000038,-0.001989, 0.007792,-0.002449, 0.050354,1, 0.000654,-0.001875, 0.000128,1,-0.124262, 0.184255, 9.804132,1,0
1778108619579,   647.267,   647.267, 0.012630,-0.018806,-0.995373, 0.000025,-0.000037,-0.001991,-0.000405,-0.000152, 0.042851,1, 0.000067, 0.000857,-0.000142,1,-0.124266, 0.184273, 9.804132,1,0
1778108619589,   647.272,   647.271, 0.013086,-0.017710,-0.996698, 0.000026,-0.000035,-0.001993, 0.003082, 0.006618, 0.029290,1,-0.001028, 0.001342, 0.000581,1,-0.124311, 0.184253, 9.804131,1,0
1778108619600,   647.276,   647.276, 0.013153,-0.017478,-0.995221, 0.000027,-0.000035,-0.001990, 0.004668, 0.012838, 0.044343,1,-0.000060, 0.000325, 0.000884,1,-0.124320, 0.184240, 9.804131,1,0
1778108619611,   647.281,   647.281, 0.012627,-0.018704,-0.994448, 0.000025,-0.000037,-0.001989,-0.000492, 0.000867, 0.051921,1, 0.000600,-0.000043,-0.000013,1,-0.124319, 0.184291, 9.804130,1,0
1778108619622,   647.286,   647.285, 0.013083,-0.018676,-0.995477, 0.000026,-0.000037,-0.001991, 0.000920,-0.000783, 0.048163,1,-0.000003,-0.000800,-0.001280,1,-0.124324, 0.184280, 9.804131,1,0
1778108619632,   647.291,   647.290, 0.012759,-0.017191,-0.997138, 0.000025,-0.000034,-0.001995, 0.000773, 0.015727, 0.025543,1,-0.000090, 0.000766,-0.001169,1,-0.124358, 0.184308, 9.804130,1,0
1778108619643,   647.295,   647.295, 0.013225,-0.017287,-0.996813, 0.000027,-0.000035,-0.001994, 0.005331, 0.014770, 0.028734,1, 0.000888, 0.000138,-0.000688,1,-0.124362, 0.184305, 9.804130,1,0
1778108619654,   647.300,   647.299, 0.012385,-0.018057,-0.994656, 0.000025,-0.000036,-0.001989, 0.001874, 0.005187, 0.048496,1,-0.000048,-0.000507,-0.000813,1,-0.124360, 0.184276, 9.804130,1,0
1778108619665,   647.305,   647.304, 0.012151,-0.018325,-0.995672, 0.000024,-0.000037,-0.001991,-0.005193, 0.004607, 0.039919,1,-0.001166,-0.000105,-0.000441,1,-0.124351, 0.184307, 9.804130,1,0
1778108619675,   647.309,   647.309, 0.011958,-0.017378,-0.995565, 0.000024,-0.000034,-0.001991,-0.007064, 0.013878, 0.040968,1,-0.000167,-0.000206,-0.000393,1,-0.124332, 0.184297, 9.804130,1,0
1778108619686,   647.314,   647.313, 0.012403,-0.019593,-0.995386, 0.000025,-0.000039,-0.001991,-0.006589, 0.001746, 0.046510,1,-0.000021, 0.001144, 0.000599,1,-0.124376, 0.184314, 9.804129,1,0
1778108619697,   647.319,   647.318, 0.012939,-0.019386,-0.996439, 0.000026,-0.000039,-0.001993, 0.002473,-0.005804, 0.032401,1, 0.000115, 0.000374, 0.000246,1,-0.124420, 0.184307, 9.804129,1,0
1778108619708,   647.323,   647.323, 0.012591,-0.018746,-0.996332, 0.000025,-0.000038,-0.001993,-0.000962, 0.000439, 0.033450,1,-0.000707, 0.000955,-0.000498,1,-0.124446, 0.184266, 9.804129,1,0
1778108619718,   647.328,   647.327, 0.012344,-0.019100,-0.994429, 0.000025,-0.000038,-0.001989, 0.003699, 0.006204, 0.046968,1, 0.000846,-0.000059, 0.000017,1,-0.124463, 0.184295, 9.804128,1,0
1778108619729,   647.333,   647.332, 0.011039,-0.020053,-0.995293, 0.000022,-0.000040,-0.001991,-0.016175,-0.012304, 0.043636,1, 0.001350,-0.000078, 0.000661,1,-0.124431, 0.184359, 9.804128,1,0
1778108619740,   647.337,   647.337, 0.012795,-0.019778,-0.996584, 0.000026,-0.000039,-0.001993, 0.001033,-0.009586, 0.030974,1,-0.000405,-0.000045, 0.000034,1,-0.124440, 0.184372, 9.804127,1,0
1778108619751,   647.342,   647.341, 0.011589,-0.017834,-0.995508, 0.000023,-0.000035,-0.001991,-0.000504, 0.010343, 0.034824,1,-0.001282,-0.000043,-0.000503,1,-0.124403, 0.184323, 9.804129,1,0
1778108619762,   647.347,   647.346, 0.011842,-0.019361,-0.995532, 0.000024,-0.000039,-0.001991,-0.008267,-0.005521, 0.041296,1, 0.001454, 0.000262,-0.000168,1,-0.124397, 0.184351, 9.804128,1,0
1778108619772,   647.351,   647.351, 0.012546,-0.020785,-0.995626, 0.000025,-0.000042,-0.001991,-0.001382,-0.019481, 0.040370,1,-0.000218, 0.000739, 0.000464,1,-0.124422, 0.184353, 9.804128,1,0
1778108619783,   647.356,   647.355, 0.012418,-0.018723,-0.995771, 0.000025,-0.000037,-0.001991,-0.006947,-0.003418, 0.034514,1,-0.000002, 0.000076, 0.000283,1,-0.124420, 0.184353, 9.804128,1,0
1778108619794,   647.422,   647.421, 0.013225,-0.019381,-0.996569, 0.000027,-0.000039,-0.001993,-0.002476, 0.005965, 0.038843,1, 0.000673,-0.000451,-0.000504,1,-0.124421, 0.184367, 9.804128,1,0
1778108619805,   647.427,   647.427, 0.012098,-0.018537,-0.996333, 0.000024,-0.000037,-0.001993,-0.005726, 0.002496, 0.033436,1,-0.000197,-0.001123, 0.000417,1,-0.124356, 0.184280, 9.804130,1,0
1778108619815,   647.432,   647.431, 0.012760,-0.018992,-0.995700, 0.000025,-0.000038,-0.001991,-0.000778, 0.003444, 0.035230,1,-0.000272, 0.000787, 0.000080,1,-0.124375, 0.184284, 9.804130,1,0
1778108619826,   647.436,   647.435, 0.012007,-0.019090,-0.995016, 0.000024,-0.000038,-0.001990, 0.003575,-0.005278, 0.039341,1, 0.000459, 0.000813, 0.000408,1,-0.124391, 0.184289, 9.804130,1,0
1778108619837,   647.441,   647.441, 0.012113,-0.020208,-0.996029, 0.000024,-0.000041,-0.001992,-0.005627,-0.013871, 0.036422,1,-0.000521, 0.000009,-0.000383,1,-0.124415, 0.184296, 9.804129,1,0
1778108619848,   647.446,   647.445, 0.012645,-0.017966,-0.996111, 0.000025,-0.000036,-0.001992, 0.004750, 0.000219, 0.029588,1,-0.000569, 0.000014, 0.000064,1,-0.124435, 0.184275, 9.804129,1,0
1778108619858,   647.450,   647.449, 0.012293,-0.018327,-0.994826, 0.000024,-0.000037,-0.001990,-0.003548, 0.008943, 0.044316,1,-0.001198,-0.000772,-0.000127,1,-0.124419, 0.184234, 9.804130,1,0
1778108619869,   647.455,   647.455, 0.011352,-0.019978,-0.995875, 0.000023,-0.000040,-0.001992,-0.013086,-0.011647, 0.037932,1, 0.000764, 0.000219,-0.001164,1,-0.124411, 0.184272, 9.804130,1,0
1778108619880,   647.460,   647.459, 0.013118,-0.018403,-0.995376, 0.000026,-0.000037,-0.001991,-0.001360,-0.003342, 0.035000,1, 0.000263,-0.000400, 0.000602,1,-0.124388, 0.184300, 9.804129,1,0
1778108619891,   647.464,   647.463, 0.011821,-0.017962,-0.995417, 0.000024,-0.000036,-0.001991,-0.000043, 0.005999, 0.043996,1,-0.000830,-0.000894,-0.000267,1,-0.124339, 0.184262, 9.804131,1,0
1778108619901,   647.469,   647.469, 0.011973,-0.019855,-0.994969, 0.000024,-0.000040,-0.001990,-0.006966,-0.010408, 0.046819,1, 0.000415, 0.000217,-0.000607,1,-0.124380, 0.184302, 9.804129,1,0
1778108619912,   647.474,   647.473, 0.012453,-0.018783,-0.996287, 0.000025,-0.000038,-0.001993, 0.000603,-0.008468, 0.037044,1,-0.001534, 0.000130, 0.000798,1,-0.124401, 0.184254, 9.804130,1,0
1778108619923,   647.478,   647.478, 0.012695,-0.017350,-0.996292, 0.000026,-0.000034,-0.001992, 0.000166, 0.014105, 0.033840,1, 0.000499,-0.001842, 0.000178,1,-0.124319, 0.184255, 9.804131,1,0
1778108619934,   647.483,   647.483, 0.012884,-0.019886,-0.996079, 0.000026,-0.000040,-0.001992, 0.002045,-0.010743, 0.035932,1, 0.000708,-0.000272,-0.000003,1,-0.124300, 0.184280, 9.804131,1,0
1778108619944,   647.488,   647.487, 0.013277,-0.019354,-0.995935, 0.000027,-0.000039,-0.001992, 0.002049,-0.004987, 0.035886,1, 0.000583,-0.000399, 0.000578,1,-0.124278, 0.184316, 9.804131,1,0
1778108619955,   647.492,   647.492, 0.012136,-0.019346,-0.995777, 0.000024,-0.000039,-0.001992,-0.005289,-0.005407, 0.038895,1,-0.000212, 0.001224,-0.000251,1,-0.124310, 0.184314, 9.804130,1,0
1778108619966,   647.497,   647.497, 0.013217,-0.018248,-0.996305, 0.000027,-0.000036,-0.001993, 0.005316, 0.005320, 0.033715,1,-0.001132,-0.000738,-0.000375,1,-0.124291, 0.184265, 9.804131,1,0
1778108619977,   647.502,   647.501, 0.012579,-0.018066,-0.994541, 0.000025,-0.000036,-0.001989, 0.002470, 0.008798, 0.049173,1,-0.000010,-0.000609, 0.000571,1,-0.124280, 0.184257, 9.804132,1,0
1778108619988,   647.506,   647.506, 0.012864,-0.019947,-0.995671, 0.000026,-0.000040,-0.001992, 0.001883,-0.011367, 0.039933,1,-0.000560, 0.001286, 0.000240,1,-0.124279, 0.184240, 9.804132,1,0
1778108619998,   647.511,   647.511, 0.013043,-0.018463,-0.997430, 0.000026,-0.000037,-0.001995, 0.003612, 0.003130, 0.022682,1,-0.002098, 0.000496, 0.000275,1,-0.124301, 0.184173, 9.804132,1,0
1778108620009,   647.516,   647.515, 0.012538,-0.017982,-0.994835, 0.000025,-0.000036,-0.001989,-0.001007, 0.008247, 0.028337,1, 0.000723,-0.001077,-0.000626,1,-0.124281, 0.184194, 9.804132,1,0
1778108620020,   647.520,   647.520, 0.012998,-0.019881,-0.994777, 0.000026,-0.000040,-0.001990, 0.003224,-0.010706, 0.048697,1, 0.000373,-0.000072,-0.000219,1,-0.124244, 0.184262, 9.804132,1,0
1778108620031,   647.816,   647.815, 0.011625,-0.020230,-0.995855, 0.000023,-0.000041,-0.001992,-0.001534,-0.008545, 0.049744,1, 0.000617, 0.000074, 0.000113,1,-0.124296, 0.183943, 9.804137,1,0
1778108620041,   647.821,   647.820, 0.013098,-0.019724,-0.996485, 0.000027,-0.000039,-0.001993, 0.004139,-0.009505, 0.031961,1,-0.000884,-0.001071,-0.000017,1,-0.124304, 0.183916, 9.804137,1,0
1778108620052,   647.825,   647.825, 0.012492,-0.017369,-0.996450, 0.000025,-0.000034,-0.001993,-0.001742, 0.013577, 0.032298,1, 0.000064,-0.001598, 0.000296,1,-0.124236, 0.183909, 9.804138,1,0
1778108620063,   647.830,   647.829, 0.011775,-0.020280,-0.994929, 0.000024,-0.000041,-0.001990,-0.004423,-0.002576, 0.044277,1, 0.001519, 0.000068, 0.000426,1,-0.124225, 0.183938, 9.804138,1,0
1778108620074,   647.835,   647.834, 0.012055,-0.020739,-0.995831, 0.000024,-0.000041,-0.001992,-0.006058,-0.019403, 0.038374,1,-0.000287, 0.000978,-0.000240,1,-0.124283, 0.183977, 9.804136,1,0
1778108620084,   647.839,   647.839, 0.013190,-0.018682,-0.996199, 0.000027,-0.000037,-0.001992, 0.005082, 0.000735, 0.034758,1,-0.001498,-0.000441, 0.000103,1,-0.124262, 0.183930, 9.804137,1,0
1778108620095,   647.844,   647.843, 0.013357,-0.018754,-0.995763, 0.000027,-0.000037,-0.001992, 0.007080, 0.000241, 0.033305,1,-0.000107, 0.001083,-0.000094,1,-0.124287, 0.183930, 9.804137,1,0
1778108620106,   647.849,   647.848, 0.012452,-0.019487,-0.993974, 0.000025,-0.000039,-0.001988,-0.002142,-0.007104, 0.056576,1, 0.000608,-0.000145,-0.000307,1,-0.124256, 0.184003, 9.804136,1,0
1778108620117,   647.853,   647.853, 0.012823,-0.019458,-0.995936, 0.000026,-0.000039,-0.001992, 0.001480,-0.006847, 0.037337,1,-0.001061, 0.000685, 0.000813,1,-0.124280, 0.183967, 9.804136,1,0
1778108620128,   647.858,   647.857, 0.012178,-0.018743,-0.996351, 0.000024,-0.000037,-0.001993, 0.000030,-0.001642, 0.035957,1,-0.000759, 0.000691, 0.000689,1,-0.124308, 0.183964, 9.804136,1,0
1778108620138,   647.863,   647.862, 0.012895,-0.018208,-0.996532, 0.000026,-0.000036,-0.001993, 0.002176, 0.005355, 0.031498,1, 0.000757,-0.000020, 0.000225,1,-0.124281, 0.183922, 9.804137,1,0
1778108620149,   647.867,   647.867, 0.012638,-0.019627,-0.995244, 0.000025,-0.000040,-0.001990,-0.000336,-0.008511, 0.044123,1, 0.000834, 0.000072,-0.000038,1,-0.124278, 0.183971, 9.804136,1,0
1778108620160,   647.872,   647.871, 0.013483,-0.019488,-0.996406, 0.000027,-0.000039,-0.001993, 0.000630,-0.011218, 0.043689,1,-0.001016, 0.000882, 0.000258,1,-0.124286, 0.183944, 9.804137,1,0
1778108620171,   647.877,   647.877, 0.012813,-0.018287,-0.995643, 0.000025,-0.000037,-0.001991, 0.001362, 0.004558, 0.040218,1, 0.000187,-0.000579,-0.000077,1,-0.124285, 0.183895, 9.804138,1,0
1778108620181,   647.881,   647.881, 0.013359,-0.017821,-0.995574, 0.000027,-0.000036,-0.001991, 0.006699, 0.009134, 0.040888,1,-0.000247, 0.000372, 0.000970,1,-0.124308, 0.183895, 9.804137,1,0
1778108620192,   647.886,   647.885, 0.012387,-0.020056,-0.996587, 0.000025,-0.000040,-0.001993,-0.006019,-0.013196, 0.039717,1,-0.000905,-0.000322, 0.000756,1,-0.124289, 0.183858, 9.804138,1,0
1778108620203,   647.891,   647.891, 0.012686,-0.018587,-0.996198, 0.000025,-0.000037,-0.001992, 0.000124, 0.001565, 0.034775,1,-0.000199,-0.000046, 0.000048,1,-0.124278, 0.183840, 9.804139,1,0
1778108620214,   647.896,   647.895, 0.012464,-0.017986,-0.995264, 0.000025,-0.000036,-0.001990, 0.001533, 0.009457, 0.038570,1, 0.000339,-0.001014,-0.000032,1,-0.124256, 0.183832, 9.804139,1,0
1778108620224,   647.900,   647.899, 0.012711,-0.019480,-0.995020, 0.000026,-0.000039,-0.001990,-0.001327, 0.003070, 0.051047,1, 0.000606,-0.000087, 0.000153,1,-0.124238, 0.183860, 9.804139,1,0
1778108620235,   647.905,   647.905, 0.012491,-0.018480,-0.996471, 0.000025,-0.000037,-0.001993,-0.001752, 0.002599, 0.032101,1,-0.001912,-0.000331,-0.000556,1,-0.124241, 0.183818, 9.804140,1,0
1778108620246,   647.910,   647.909, 0.012996,-0.017386,-0.995927, 0.000026,-0.000035,-0.001992, 0.001610, 0.012036, 0.030940,1,-0.001052, 0.000229,-0.000014,1,-0.124234, 0.183771, 9.804141,1,0
1778108620257,   647.914,   647.913, 0.012235,-0.018804,-0.995059, 0.000024,-0.000038,-0.001990,-0.003371, 0.009301, 0.041382,1, 0.000422, 0.000455, 0.001396,1,-0.124258, 0.183787, 9.804140,1,0
1778108620267,   647.919,   647.919, 0.012838,-0.019747,-0.995089, 0.000026,-0.000040,-0.001990, 0.001628,-0.009824, 0.045650,1, 0.000707, 0.000265,-0.000452,1,-0.124270, 0.183836, 9.804139,1,0
1778108620278,   647.924,   647.923, 0.012993,-0.017871,-0.996154, 0.000026,-0.000035,-0.001993, 0.002822,-0.001782, 0.035015,1,-0.000101, 0.000434,-0.000356,1,-0.124261, 0.183842, 9.804139,1,0
1778108620289,   647.928,   647.927, 0.012260,-0.018207,-0.995780, 0.000024,-0.000036,-0.001992,-0.002636, 0.003496, 0.040125,1,-0.000657,-0.000245,-0.000240,1,-0.124274, 0.183833, 9.804139,1,0
1778108620300,   647.933,   647.933, 0.012571,-0.018791,-0.994804, 0.000025,-0.000038,-0.001990,-0.000992,-0.000409, 0.048440,1, 0.000957, 0.000810,-0.000206,1,-0.124277, 0.183873, 9.804138,1,0
1778108620310,   647.938,   647.937, 0.012362,-0.019355,-0.995773, 0.000025,-0.000039,-0.001991,-0.007284,-0.011739, 0.044398,1, 0.000479, 0.001833, 0.000443,1,-0.124318, 0.183898, 9.804137,1,0
1778108620321,   647.942,   647.941, 0.013428,-0.018259,-0.995856, 0.000027,-0.000037,-0.001992, 0.002487,-0.008944, 0.035219,1,-0.000565, 0.001043, 0.000063,1,-0.124363, 0.183874, 9.804137,1,0
1778108620332,   647.947,   647.947, 0.012501,-0.018061,-0.995785, 0.000025,-0.000036,-0.001992,-0.001733, 0.006703, 0.038823,1,-0.000073,-0.001815,-0.000222,1,-0.124316, 0.183820, 9.804139,1,0
1778108620343,   647.952,   647.951, 0.011951,-0.020339,-0.995578, 0.000024,-0.000041,-0.001991,-0.003094,-0.006813, 0.041174,1, 0.000011, 0.000374,-0.000030,1,-0.124312, 0.183817, 9.804139,1,0
1778108620354,   647.956,   647.955, 0.012641,-0.020367,-0.996681, 0.000025,-0.000041,-0.001993,-0.004126,-0.015267, 0.037400,1, 0.000928,-0.000192,-0.000178,1,-0.124303, 0.183860, 9.804138,1,0
1778108620364,   647.961,   647.961, 0.012306,-0.018726,-0.996134, 0.000025,-0.000037,-0.001992,-0.003620, 0.000150, 0.035404,1,-0.001466,-0.000325, 0.000626,1,-0.124303, 0.183781, 9.804140,1,0
1778108620375,   647.966,   647.965, 0.012850,-0.019902,-0.995175, 0.000026,-0.000040,-0.001990, 0.002747,-0.002380, 0.038925,1, 0.001351,-0.000092,-0.000364,1,-0.124309, 0.183802, 9.804139,1,0
1778108620386,   647.970,   647.969, 0.012335,-0.020636,-0.995379, 0.000025,-0.000041,-0.001991,-0.004278,-0.013346, 0.045786,1, 0.000868,-0.000349, 0.000260,1,-0.124279, 0.183831, 9.804139,1,0
1778108620397,   647.975,   647.975, 0.012834,-0.020360,-0.997150, 0.000026,-0.000041,-0.001994, 0.001553,-0.015852, 0.025434,1,-0.000429,-0.000374,-0.000103,1,-0.124304, 0.183804, 9.804139,1,0
1778108620407,   647.980,   647.979, 0.012413,-0.019145,-0.996908, 0.000025,-0.000038,-0.001994,-0.000969,-0.010206, 0.023736,1,-0.000799,-0.000362, 0.000488,1,-0.124300, 0.183763, 9.804140,1,0
1778108620418,   648.045,   648.045, 0.015285,-0.019458,-0.994430, 0.000029,-0.000040,-0.001989, 0.025398,-0.006793, 0.052109,1, 0.000041, 0.000601, 0.000316,1,-0.124504, 0.184021, 9.804132,1,0
1778108620429,   648.050,   648.049, 0.011871,-0.015002,-0.999231, 0.000023,-0.000030,-0.001998, 0.021892, 0.043476, 0.007981,1,-0.002104,-0.001054,-0.000734,1,-0.124483, 0.183932, 9.804134,1,0
1778108620440,   648.054,   648.054, 0.015676,-0.016584,-1.000657, 0.000032,-0.000033,-0.002002, 0.029230, 0.021297,-0.008961,1, 0.000852, 0.000938,-0.000766,1,-0.124509, 0.183940, 9.804134,1,0
1778108620450,   648.059,   648.059, 0.009625,-0.021373,-0.995764, 0.000019,-0.000043,-0.001991,-0.030046,-0.025568, 0.039022,1, 0.002764,-0.002453,-0.000627,1,-0.124424, 0.184047, 9.804133,1,0
1778108620461,   648.064,   648.063, 0.011245,-0.019969,-0.991618, 0.000023,-0.000040,-0.001983, 0.016477, 0.000061, 0.041152,1,-0.001481,-0.001207,-0.001065,1,-0.124394, 0.184013, 9.804134,1,0
1778108620472,   648.068,   648.068, 0.009936,-0.023239,-0.994279, 0.000019,-0.000047,-0.001989,-0.026979,-0.043930, 0.053589,1,-0.001711, 0.001881,-0.000837,1,-0.124430, 0.183952, 9.804135,1,0
1778108620483,   648.073,   648.073, 0.012393,-0.020083,-0.998647, 0.000026,-0.000040,-0.001998,-0.002863,-0.013057, 0.010756,1,-0.001509,-0.001986,-0.000816,1,-0.124388, 0.183884, 9.804137,1,0
1778108620493,   648.078,   648.077, 0.012663,-0.019781,-0.995830, 0.000026,-0.000040,-0.001992,-0.040434, 0.000352, 0.041023,1,-0.000039, 0.001318,-0.000844,1,-0.124413, 0.183860, 9.804137,1,0
1778108620504,   648.083,   648.082, 0.006946,-0.022957,-0.992533, 0.000013,-0.000046,-0.001985,-0.056177,-0.041159, 0.070714,1, 0.001684,-0.002200, 0.000728,1,-0.124284, 0.183985, 9.804136,1,0
1778108620515,   648.087,   648.087, 0.012310,-0.021109,-0.992443, 0.000026,-0.000042,-0.001985,-0.003581,-0.023006, 0.071597,1, 0.000158, 0.000672,-0.000022,1,-0.124305, 0.184007, 9.804135,1,0
1778108620526,   648.092,   648.091, 0.008231,-0.025488,-0.998389, 0.000016,-0.000052,-0.001997,-0.044583,-0.053000, 0.046652,1, 0.000476,-0.000422, 0.000112,1,-0.124298, 0.184024, 9.804135,1,0
1778108620536,   648.097,   648.096, 0.014135,-0.019879,-1.002441, 0.000029,-0.000039,-0.002005, 0.014250,-0.010970,-0.026449,1,-0.001499, 0.001353, 0.000229,1,-0.124373, 0.183965, 9.804135,1,0
1778108620547,   648.101,   648.101, 0.008734,-0.017912,-0.995432, 0.000017,-0.000035,-0.001990,-0.038663, 0.008301, 0.042285,1, 0.001138,-0.000925,-0.000097,1,-0.124309, 0.183965, 9.804136,1,0
1778108620558,   648.106,   648.105, 0.012234,-0.025573,-0.992551, 0.000025,-0.000052,-0.001985,-0.004350,-0.042432, 0.078257,1, 0.002101, 0.002200,-0.000119,1,-0.124383, 0.184063, 9.804133,1,0
1778108620569,   648.111,   648.110, 0.011873,-0.022167,-0.993135, 0.000023,-0.000044,-0.001986,-0.007991,-0.033353, 0.064809,1,-0.001524, 0.001182, 0.000464,1,-0.124434, 0.184018, 9.804133,1,0
1778108620580,   648.115,   648.115, 0.012385,-0.020134,-0.999277, 0.000025,-0.000040,-0.001999,-0.003045,-0.013467, 0.004576,1,-0.001211, 0.001313, 0.000312,1,-0.124504, 0.183968, 9.804133,1,0
1778108620590,   648.120,   648.119, 0.013696,-0.017557,-0.998659, 0.000028,-0.000035,-0.001997,-0.008085, 0.001020,-0.005284,1,-0.001121, 0.000225, 0.002017,1,-0.124492, 0.183942, 9.804134,1,0
1778108620601,   648.125,   648.124, 0.009939,-0.019599,-0.994865, 0.000019,-0.000039,-0.001989,-0.026991,-0.008230, 0.047838,1, 0.001052, 0.000067, 0.000015,1,-0.124465, 0.183981, 9.804134,1,0
1778108620612,   648.129,   648.129, 0.012549,-0.020546,-0.992504, 0.000025,-0.000041,-0.001985,-0.001411,-0.017499, 0.070994,1,-0.000627, 0.000051, 0.000508,1,-0.124479, 0.183988, 9.804133,1,0
1778108620623,   648.134,   648.133, 0.012834,-0.017490,-0.995122, 0.000025,-0.000035,-0.001990,-0.006341, 0.000683, 0.051220,1,-0.002402,-0.000026, 0.001150,1,-0.124466, 0.183916, 9.804135,1,0
1778108620633,   648.139,   648.138, 0.014084,-0.016859,-0.997220, 0.000028,-0.000034,-0.001995, 0.013607, 0.018485, 0.024743,1,-0.000605, 0.000689,-0.000217,1,-0.124513, 0.183810, 9.804136,1,0
1778108620644,   648.435,   648.435, 0.014417,-0.015844,-0.997661, 0.000029,-0.000032,-0.001995, 0.016899, 0.028451, 0.020422,1, 0.000620,-0.001316, 0.000542,1,-0.124477, 0.183836, 9.804136,1,0
1778108620655,   648.440,   648.439, 0.013687,-0.019445,-0.997577, 0.000027,-0.000039,-0.001996, 0.005632,-0.014005, 0.025601,1,-0.000847, 0.000160,-0.000377,1,-0.124535, 0.183753, 9.804137,1,0
1778108620666,   648.444,   648.444, 0.012052,-0.017191,-0.997112, 0.000024,-0.000034,-0.001994,-0.006296, 0.015081, 0.025807,1,-0.000785,-0.000844,-0.000223,1,-0.124480, 0.183666, 9.804140,1,0
1778108620676,   648.449,   648.449, 0.013423,-0.018248,-0.994832, 0.000027,-0.000036,-0.001990, 0.007148, 0.004743, 0.048165,1, 0.000686,-0.000696, 0.000092,1,-0.124480, 0.183701, 9.804139,1,0
1778108620687,   648.454,   648.453, 0.012593,-0.021412,-0.995325, 0.000025,-0.000043,-0.001991,-0.002188,-0.034282, 0.042582,1,-0.000380,-0.000338,-0.000827,1,-0.124453, 0.183712, 9.804139,1,0
1778108620698,   648.458,   648.458, 0.012457,-0.020173,-0.996466, 0.000025,-0.000040,-0.001993,-0.002287,-0.014160, 0.032149,1,-0.000634,-0.000877, 0.000228,1,-0.124444, 0.183665, 9.804140,1,0
1778108620709,   648.463,   648.463, 0.012386,-0.018805,-0.995986, 0.000025,-0.000037,-0.001992,-0.002969,-0.000757, 0.036855,1,-0.000387,-0.000403,-0.000545,1,-0.124428, 0.183654, 9.804141,1,0
1778108620719,   648.468,   648.467, 0.011532,-0.021504,-0.994192, 0.000023,-0.000043,-0.001988,-0.009371,-0.013610, 0.054931,1, 0.001923, 0.000791, 0.000323,1,-0.124446, 0.183726, 9.804139,1,0
1778108620730,   648.472,   648.472, 0.011581,-0.022079,-0.995028, 0.000023,-0.000044,-0.001990,-0.010896,-0.032784, 0.046243,1,-0.000737, 0.000071,-0.001156,1,-0.124465, 0.183736, 9.804138,1,0
1778108620741,   648.477,   648.477, 0.012145,-0.020391,-0.995788, 0.000024,-0.000041,-0.001991,-0.005374,-0.016253, 0.038796,1,-0.000987, 0.000606, 0.000018,1,-0.124477, 0.183711, 9.804139,1,0
1778108620752,   648.482,   648.481, 0.012893,-0.020476,-0.996883, 0.000026,-0.000041,-0.001994,-0.005619,-0.013666, 0.037002,1, 0.000673,-0.000447, 0.000030,1,-0.124460, 0.183712, 9.804139,1,0
1778108620763,   648.486,   648.486, 0.012056,-0.021544,-0.996015, 0.000024,-0.000043,-0.001992,-0.006231,-0.027529, 0.036566,1, 0.001360, 0.000375, 0.000610,1,-0.124465, 0.183754, 9.804138,1,0
1778108620773,   648.491,   648.491, 0.012305,-0.021287,-0.996581, 0.000025,-0.000043,-0.001993,-0.003793,-0.024994, 0.031018,1,-0.000317, 0.000172, 0.000025,1,-0.124467, 0.183757, 9.804138,1,0
1778108620784,   648.496,   648.495, 0.012695,-0.018864,-0.996032, 0.000026,-0.000038,-0.001992, 0.005524,-0.006949, 0.024674,1,-0.000277,-0.000338, 0.000370,1,-0.124470, 0.183727, 9.804139,1,0
1778108620795,   648.501,   648.500, 0.012010,-0.018976,-0.994944, 0.000024,-0.000038,-0.001990,-0.006676,-0.002322, 0.047069,1, 0.001272,-0.000288, 0.001171,1,-0.124456, 0.183778, 9.804138,1,0
1778108620806,   648.505,   648.505, 0.012215,-0.019522,-0.995419, 0.000024,-0.000039,-0.001991,-0.004684,-0.007648, 0.042409,1, 0.000339, 0.000766, 0.000514,1,-0.124473, 0.183802, 9.804137,1,0
1778108620816,   648.510,   648.509, 0.012897,-0.018929,-0.996737, 0.000026,-0.000038,-0.001994,-0.001545,-0.010080, 0.034866,1,-0.001089, 0.000143, 0.000099,1,-0.124489, 0.183755, 9.804138,1,0
1778108620827,   648.515,   648.514, 0.012335,-0.017557,-0.996550, 0.000025,-0.000035,-0.001993,-0.003564, 0.011555, 0.031320,1,-0.000227, 0.001089,-0.000075,1,-0.124539, 0.183725, 9.804138,1,0
1778108620838,   648.519,   648.519, 0.012588,-0.017860,-0.995242, 0.000025,-0.000036,-0.001990,-0.001066, 0.008565, 0.044152,1,-0.000247,-0.000856, 0.000260,1,-0.124509, 0.183710, 9.804138,1,0
1778108620849,   648.524,   648.523, 0.012186,-0.019058,-0.995520, 0.000024,-0.000038,-0.001991,-0.011550,-0.004884, 0.045008,1,-0.000282,-0.000133, 0.001548,1,-0.124471, 0.183715, 9.804139,1,0
1778108620859,   648.529,   648.528, 0.013105,-0.017256,-0.995555, 0.000026,-0.000034,-0.001991, 0.004038, 0.014464, 0.041080,1,-0.001302, 0.000236, 0.001909,1,-0.124476, 0.183675, 9.804139,1,0
1778108620870,   648.533,   648.533, 0.012502,-0.015922,-0.995537, 0.000025,-0.000032,-0.001991,-0.001852, 0.027518, 0.041253,1, 0.000378,-0.000103, 0.000349,1,-0.124455, 0.183659, 9.804140,1,0
1778108620881,   648.538,   648.537, 0.012947,-0.018066,-0.995578, 0.000026,-0.000036,-0.001991,-0.005239, 0.019251, 0.042608,1, 0.001679, 0.000921, 0.000385,1,-0.124460, 0.183724, 9.804139,1,0
1778108620892,   648.543,   648.542, 0.013305,-0.018029,-0.995850, 0.000026,-0.000036,-0.001992, 0.006005, 0.006895, 0.038183,1,-0.001312, 0.000357, 0.000134,1,-0.124479, 0.183692, 9.804139,1,0
1778108620902,   648.547,   648.547, 0.013260,-0.015775,-0.995841, 0.000027,-0.000031,-0.001992, 0.005566, 0.028950, 0.038277,1,-0.001112,-0.000153, 0.000932,1,-0.124465, 0.183644, 9.804140,1,0
1778108620913,   648.552,   648.551, 0.013704,-0.017011,-0.995034, 0.000027,-0.000034,-0.001990, 0.005758, 0.021842, 0.047534,1, 0.001361, 0.000278,-0.000000,1,-0.124471, 0.183667, 9.804140,1,0
1778108620924,   648.557,   648.556, 0.013015,-0.018699,-0.995676, 0.000026,-0.000038,-0.001991, 0.003100, 0.000308, 0.039893,1,-0.000558, 0.000384,-0.000217,1,-0.124539, 0.183679, 9.804139,1,0
1778108620935,   648.561,   648.561, 0.013704,-0.017629,-0.997356, 0.000028,-0.000035,-0.001995, 0.009905, 0.010792, 0.023421,1,-0.001025,-0.001484,-0.000337,1,-0.124471, 0.183669, 9.804140,1,0
1778108620945,   648.566,   648.565, 0.013219,-0.016991,-0.995953, 0.000026,-0.000034,-0.001992, 0.007185, 0.015263, 0.029526,1,-0.001022,-0.000186,-0.000414,1,-0.124483, 0.183626, 9.804140,1,0
1778108620956,   648.571,   648.571, 0.013303,-0.018635,-0.995209, 0.000027,-0.000038,-0.001990, 0.005974, 0.000901, 0.044471,1, 0.000220,-0.000109,-0.000220,1,-0.124482, 0.183648, 9.804140,1,0
1778108620967,   648.575,   648.575, 0.012855,-0.019921,-0.994928, 0.000026,-0.000040,-0.001990, 0.001620,-0.011696, 0.047231,1, 0.000998,-0.000959, 0.000129,1,-0.124439, 0.183672, 9.804140,1,0
1778108620978,   648.580,   648.579, 0.012585,-0.017990,-0.996853, 0.000025,-0.000036,-0.001994,-0.000466,-0.001958, 0.031499,1,-0.001541,-0.000115,-0.000053,1,-0.124418, 0.183635, 9.804141,1,0
1778108620989,   648.585,   648.585, 0.013058,-0.017894,-0.994460, 0.000026,-0.000036,-0.001989, 0.003619, 0.008138, 0.051821,1, 0.000754, 0.000734,-0.000656,1,-0.124443, 0.183620, 9.804141,1,0
1778108620999,   648.590,   648.589, 0.012461,-0.021380,-0.995039, 0.000025,-0.000043,-0.001990, 0.002978,-0.014942, 0.050647,1, 0.002192,-0.000050,-0.000151,1,-0.124454, 0.183700, 9.804139,1,0
1778108621010,   648.594,   648.593, 0.012773,-0.020829,-0.996135, 0.000026,-0.000042,-0.001992,-0.001528,-0.025844, 0.042809,1,-0.000026, 0.000822,-0.000668,1,-0.124477, 0.183730, 9.804138,1,0
1778108621021,   648.599,   648.599, 0.013116,-0.019699,-0.995482, 0.000026,-0.000039,-0.001991, 0.004139,-0.009477, 0.041796,1,-0.000219,-0.000300,-0.000083,1,-0.124487, 0.183701, 9.804139,1,0
1778108621032,   648.604,   648.603, 0.012371,-0.020100,-0.994716, 0.000025,-0.000040,-0.001989, 0.000900,-0.005953, 0.043052,1, 0.001677,-0.000560,-0.000296,1,-0.124452, 0.183743, 9.804138,1,0
1778108621042,   648.668,   648.667, 0.012430,-0.016520,-0.996113, 0.000025,-0.000033,-0.001992, 0.002260, 0.015269, 0.035857,1,-0.000369,-0.000515,-0.000011,1,-0.124492, 0.183832, 9.804136,1,0
1778108621053,   648.673,   648.673, 0.013047,-0.016548,-0.996090, 0.000026,-0.000033,-0.001992, 0.003476, 0.021612, 0.035827,1, 0.002897,-0.000046,-0.000461,1,-0.124475, 0.183911, 9.804135,1,0
1778108621064,   648.678,   648.677, 0.012901,-0.017702,-0.996635, 0.000026,-0.000035,-0.001993, 0.002892, 0.013596, 0.043166,1, 0.002364, 0.000391,-0.000060,1,-0.124483, 0.183961, 9.804134,1,0
1778108621075,   648.682,   648.681, 0.013223,-0.016697,-0.996554, 0.000027,-0.000033,-0.001993, 0.008175, 0.009905, 0.028210,1,-0.002542, 0.000857,-0.000985,1,-0.124480, 0.183871, 9.804136,1,0
1778108621085,   648.687,   648.687, 0.012705,-0.016108,-0.996605, 0.000025,-0.000032,-0.001993, 0.000145, 0.025882, 0.030782,1, 0.001110,-0.000124,-0.000670,1,-0.124452, 0.183850, 9.804136,1,0
1778108621096,   648.692,   648.691, 0.012808,-0.018301,-0.995068, 0.000026,-0.000037,-0.001990, 0.002032, 0.010798, 0.041631,1, 0.000805, 0.000622,-0.000763,1,-0.124512, 0.183883, 9.804135,1,0
1778108621107,   648.696,   648.695, 0.013452,-0.019642,-0.995370, 0.000027,-0.000039,-0.001991, 0.001694,-0.003204, 0.041256,1, 0.001599, 0.000444,-0.000393,1,-0.124527, 0.183944, 9.804134,1,0
1778108621118,   648.701,   648.701, 0.013164,-0.018469,-0.996710, 0.000026,-0.000037,-0.001993, 0.004546, 0.002815, 0.029746,1,-0.000351, 0.000633,-0.000591,1,-0.124550, 0.183927, 9.804134,1,0
1778108621128,   648.706,   648.705, 0.013025,-0.017828,-0.995098, 0.000026,-0.000036,-0.001990, 0.003241, 0.011821, 0.037593,1, 0.000205, 0.000288,-0.000003,1,-0.124581, 0.183929, 9.804133,1,0
1778108621139,   648.710,   648.709, 0.012008,-0.020484,-0.995214, 0.000024,-0.000041,-0.001990,-0.002823, 0.002888, 0.048935,1, 0.001782, 0.000524,-0.000644,1,-0.124567, 0.183993, 9.804132,1,0
1778108621150,   648.715,   648.715, 0.012329,-0.021699,-0.995171, 0.000024,-0.000044,-0.001990,-0.003682,-0.028727, 0.044842,1, 0.000779,-0.000473,-0.000347,1,-0.124585, 0.184068, 9.804131,1,0
1778108621161,   648.720,   648.719, 0.013112,-0.019011,-0.995383, 0.000026,-0.000038,-0.001990, 0.001441,-0.023356, 0.035164,1,-0.000667,-0.000140,-0.000262,1,-0.124580, 0.184051, 9.804132,1,0
1778108621172,   648.724,   648.724, 0.012156,-0.020039,-0.995490, 0.000024,-0.000040,-0.001991,-0.005359,-0.012449, 0.041707,1, 0.000922,-0.000257,-0.000544,1,-0.124564, 0.184070, 9.804132,1,0
1778108621182,   648.729,   648.729, 0.012115,-0.021006,-0.994901, 0.000024,-0.000042,-0.001990,-0.005742,-0.021928, 0.047490,1, 0.000178,-0.000670,-0.000426,1,-0.124546, 0.184073, 9.804132,1,0
1778108621193,   648.734,   648.733, 0.012905,-0.020197,-0.996210, 0.000026,-0.000040,-0.001993, 0.001007,-0.027507, 0.034554,1,-0.000777, 0.000293,-0.000546,1,-0.124550, 0.184054, 9.804132,1,0
1778108621204,   648.738,   648.738, 0.012022,-0.020035,-0.995857, 0.000024,-0.000040,-0.001992,-0.006664,-0.012441, 0.038114,1, 0.000451, 0.000175,-0.000654,1,-0.124556, 0.184041, 9.804132,1,0
1778108621215,   648.743,   648.743, 0.012685,-0.021031,-0.995009, 0.000025,-0.000042,-0.001990,-0.000160,-0.022197, 0.046426,1, 0.000866, 0.000094,-0.000055,1,-0.124562, 0.184048, 9.804132,1,0
1778108621225,   648.747,   648.747, 0.011886,-0.021439,-0.995714, 0.000024,-0.000043,-0.001992,-0.007998,-0.026171, 0.039507,1, 0.000401,-0.000151,-0.000401,1,-0.124564, 0.184075, 9.804131,1,0
1778108621236,   648.752,   648.752, 0.012510,-0.020317,-0.996868, 0.000025,-0.000041,-0.001994,-0.001869,-0.015207, 0.028193,1,-0.001262,-0.000141, 0.001191,1,-0.124552, 0.184031, 9.804132,1,0
1778108621247,   648.757,   648.757, 0.013056,-0.019214,-0.995613, 0.000026,-0.000038,-0.001991, 0.003524,-0.004381, 0.040509,1, 0.000182,-0.001561, 0.000141,1,-0.124504, 0.184044, 9.804132,1,0
1778108621258,   648.762,   648.761, 0.012233,-0.020133,-0.994359, 0.000025,-0.000040,-0.001989,-0.005376,-0.011490, 0.048095,1,-0.000080,-0.000406, 0.000296,1,-0.124475, 0.184036, 9.804132,1,0
1778108621268,   649.058,   649.057, 0.013115,-0.018477,-0.996302, 0.000026,-0.000037,-0.001993,-0.006275,-0.012494, 0.039625,1,-0.001524, 0.000714, 0.000726,1,-0.124495, 0.183992, 9.804133,1,0
1778108621279,   649.063,   649.062, 0.012963,-0.018191,-0.996161, 0.000026,-0.000036,-0.001992, 0.002383, 0.005798, 0.035124,1,-0.000539, 0.000199, 0.000161,1,-0.124737, 0.184186, 9.804127,1,0
1778108621290,   649.067,   649.067, 0.012625,-0.017102,-0.995880, 0.000025,-0.000034,-0.001992,-0.000911, 0.016442, 0.037878,1,-0.001868,-0.000218, 0.000598,1,-0.124715, 0.184142, 9.804128,1,0
1778108621301,   649.072,   649.071, 0.013104,-0.019174,-0.994638, 0.000026,-0.000039,-0.001989, 0.007305, 0.005957, 0.046390,1, 0.001096, 0.000824,-0.000343,1,-0.124736, 0.184156, 9.804128,1,0
1778108621311,   649.077,   649.076, 0.013447,-0.019078,-0.995692, 0.000027,-0.000038,-0.001991, 0.007139,-0.002906, 0.039728,1, 0.000030,-0.000890,-0.000698,1,-0.124722, 0.184180, 9.804127,1,0
1778108621322,   649.081,   649.081, 0.012603,-0.018056,-0.996245, 0.000025,-0.000036,-0.001993,-0.001135, 0.007077, 0.034297,1,-0.001123,-0.000044, 0.000087,1,-0.124723, 0.184136, 9.804128,1,0
1778108621333,   649.086,   649.085, 0.012070,-0.018309,-0.995335, 0.000024,-0.000036,-0.001991,-0.004248, 0.013813, 0.044150,1, 0.000388, 0.000652,-0.000313,1,-0.124759, 0.184141, 9.804128,1,0
1778108621344,   649.091,   649.090, 0.012343,-0.020275,-0.995372, 0.000025,-0.000041,-0.001991,-0.003741,-0.014629, 0.042857,1, 0.001183, 0.000659,-0.000340,1,-0.124787, 0.184209, 9.804126,1,0
1778108621354,   649.095,   649.095, 0.012116,-0.019282,-0.996946, 0.000024,-0.000038,-0.001994,-0.005931,-0.004915, 0.027423,1,-0.001158,-0.001519, 0.000590,1,-0.124741, 0.184167, 9.804127,1,0
1778108621365,   649.100,   649.099, 0.012419,-0.018681,-0.995184, 0.000025,-0.000037,-0.001990,-0.003737,-0.000826, 0.036279,1,-0.000571, 0.000267,-0.000434,1,-0.124722, 0.184149, 9.804128,1,0
1778108621376,   649.105,   649.105, 0.012281,-0.019545,-0.995009, 0.000025,-0.000039,-0.001990,-0.004293,-0.007485, 0.046425,1, 0.000381,-0.000152, 0.000062,1,-0.124725, 0.184186, 9.804127,1,0
1778108621387,   649.109,   649.109, 0.011632,-0.020371,-0.994758, 0.000023,-0.000041,-0.001990,-0.010645,-0.015585, 0.048884,1,-0.000936, 0.000135, 0.001029,1,-0.124720, 0.184185, 9.804127,1,0
1778108621398,   649.114,   649.113, 0.011931,-0.019242,-0.997156, 0.000024,-0.000038,-0.001995,-0.007984,-0.005199, 0.033568,1,-0.000587, 0.000371,-0.000120,1,-0.124739, 0.184149, 9.804128,1,0
1778108621408,   649.119,   649.119, 0.012292,-0.018425,-0.995920, 0.000025,-0.000037,-0.001992,-0.004164, 0.003436, 0.037486,1, 0.000687,-0.001663, 0.001350,1,-0.124694, 0.184131, 9.804129,1,0
1778108621419,   649.124,   649.123, 0.011874,-0.020460,-0.994881, 0.000024,-0.000041,-0.001989,-0.012865,-0.010166, 0.044082,1, 0.001685, 0.000079,-0.000617,1,-0.124690, 0.184205, 9.804127,1,0
1778108621430,   649.128,   649.127, 0.012504,-0.020260,-0.995959, 0.000025,-0.000041,-0.001992,-0.004983,-0.017545, 0.039523,1,-0.000515,-0.000839,-0.000353,1,-0.124657, 0.184197, 9.804128,1,0
1778108621441,   649.133,   649.133, 0.012483,-0.018813,-0.995591, 0.000025,-0.000038,-0.001991,-0.002248,-0.000368, 0.040717,1,-0.001408, 0.000479,-0.000146,1,-0.124663, 0.184121, 9.804129,1,0
1778108621451,   649.138,   649.137, 0.012592,-0.019978,-0.995756, 0.000025,-0.000040,-0.001991,-0.006084,-0.008571, 0.039588,1, 0.000733,-0.000092,-0.000665,1,-0.124657, 0.184137, 9.804129,1,0
1778108621462,   649.142,   649.141, 0.012505,-0.020338,-0.995754, 0.000025,-0.000041,-0.001992,-0.003063,-0.010747, 0.028259,1, 0.001200,-0.000833, 0.000169,1,-0.124618, 0.184170, 9.804129,1,0
1778108621473,   649.147,   649.147, 0.012300,-0.019472,-0.996110, 0.000024,-0.000039,-0.001992,-0.003998,-0.006829, 0.035630,1,-0.000611,-0.000463, 0.000734,1,-0.124615, 0.184126, 9.804130,1,0
1778108621484,   649.152,   649.151, 0.013186,-0.018599,-0.995643, 0.000026,-0.000037,-0.001991, 0.001046, 0.001632, 0.036233,1,-0.000121, 0.000253, 0.000660,1,-0.124624, 0.184113, 9.804130,1,0
1778108621494,   649.156,   649.155, 0.012488,-0.018887,-0.994959, 0.000025,-0.000038,-0.001990, 0.000595, 0.003938, 0.049145,1,-0.000653, 0.001132, 0.000831,1,-0.124670, 0.184091, 9.804130,1,0
1778108621505,   649.161,   649.161, 0.012424,-0.019129,-0.994257, 0.000025,-0.000038,-0.001988,-0.002823,-0.003488, 0.053802,1, 0.000413,-0.000581, 0.001239,1,-0.124656, 0.184106, 9.804130,1,0
1778108621516,   649.166,   649.165, 0.013013,-0.017581,-0.996320, 0.000026,-0.000035,-0.001993, 0.007953, 0.006611, 0.031373,1,-0.001594,-0.000504,-0.000066,1,-0.124629, 0.184077, 9.804131,1,0
1778108621527,   649.170,   649.169, 0.012768,-0.017253,-0.995783, 0.000026,-0.000034,-0.001992, 0.003233, 0.013621, 0.031835,1, 0.000592,-0.000323, 0.000367,1,-0.124612, 0.184076, 9.804131,1,0
1778108621537,   649.175,   649.175, 0.013010,-0.018312,-0.995449, 0.000026,-0.000036,-0.001991, 0.002984, 0.004532, 0.042105,1,-0.000254, 0.001048, 0.000082,1,-0.124608, 0.184106, 9.804130,1,0
1778108621548,   649.180,   649.179, 0.013237,-0.018552,-0.996463, 0.000026,-0.000037,-0.001993, 0.005595, 0.000222, 0.037394,1, 0.000293,-0.000138,-0.000000,1,-0.124620, 0.184120, 9.804130,1,1
1778108621559,   649.184,   649.183, 0.013296,-0.016778,-0.996388, 0.000027,-0.000033,-0.001993, 0.004203, 0.007020, 0.031839,1,-0.001801,-0.001060, 0.000367,1,-0.124593, 0.184066, 9.804131,1,1
1778108621570,   649.189,   649.189, 0.012449,-0.017310,-0.996044, 0.000025,-0.000035,-0.001992,-0.002518, 0.014266, 0.036276,1,-0.000472, 0.000476,-0.000498,1,-0.124606, 0.184017, 9.804132,1,1
1778108621581,   649.194,   649.193, 0.012237,-0.019504,-0.995982, 0.000024,-0.000039,-0.001992, 0.000210,-0.002115, 0.035770,1, 0.001619,-0.000772,-0.000227,1,-0.124580, 0.184055, 9.804132,1,1
1778108621591,   649.198,   649.197, 0.013173,-0.019022,-0.996066, 0.000027,-0.000038,-0.001992, 0.005824,-0.007203, 0.035234,1,-0.000076,-0.000401,-0.000460,1,-0.124556, 0.184070, 9.804132,1,1
1778108621602,   649.203,   649.203, 0.013203,-0.017458,-0.996667, 0.000027,-0.000035,-0.001993, 0.004915, 0.012823, 0.030167,1,-0.000426, 0.000514,-0.000641,1,-0.124560, 0.184025, 9.804132,1,1
1778108621613,   649.208,   649.207, 0.012760,-0.019374,-0.994832, 0.000026,-0.000039,-0.001990,-0.001164, 0.002749, 0.045718,1, 0.000674,-0.000452, 0.000018,1,-0.124551, 0.184043, 9.804132,1,1
1778108621624,   649.212,   649.212, 0.013617,-0.019328,-0.995084, 0.000027,-0.000039,-0.001990, 0.008986,-0.005499, 0.045686,1,-0.000385,-0.000386,-0.000045,1,-0.124555, 0.184045, 9.804132,1,1
1778108621634,   649.217,   649.217, 0.012939,-0.019114,-0.996952, 0.000026,-0.000038,-0.001994, 0.002347,-0.003420, 0.027372,1,-0.000863,-0.000636, 0.000452,1,-0.124537, 0.184017, 9.804132,1,1
1778108621645,   649.222,   649.221, 0.012573,-0.018568,-0.995499, 0.000025,-0.000037,-0.001991,-0.000244, 0.005596, 0.039573,1,-0.000314,-0.000741, 0.000716,1,-0.124511, 0.184003, 9.804133,1,1
1778108621656,   649.226,   649.226, 0.011335,-0.019090,-0.994981, 0.000023,-0.000038,-0.001990,-0.013343,-0.003214, 0.046704,1,-0.000944,-0.000122,-0.000227,1,-0.124496, 0.183987, 9.804133,1,1
1778108621667,   649.291,   649.291, 0.011833,-0.018029,-0.995894, 0.000024,-0.000036,-0.001992,-0.008506, 0.007117, 0.037753,1, 0.000974, 0.000042, 0.000725,1,-0.124548, 0.183927, 9.804134,1,1
1778108621677,   649.296,   649.295, 0.012746,-0.019099,-0.995888, 0.000026,-0.000038,-0.001992,-0.002111, 0.008499, 0.040938,1, 0.001243,-0.000228,-0.000358,1,-0.124530, 0.183979, 9.804133,1,1
1778108621688,   649.301,   649.300, 0.013143,-0.018829,-0.995569, 0.000026,-0.000038,-0.001991, 0.004381,-0.000664, 0.040940,1,-0.001303, 0.000006,-0.000039,1,-0.124505, 0.183978, 9.804133,1,1
1778108621699,   649.305,   649.305, 0.013262,-0.018188,-0.995894, 0.000027,-0.000036,-0.001992, 0.005535, 0.005579, 0.037752,1,-0.000266, 0.000594, 0.000681,1,-0.124529, 0.183945, 9.804133,1,1
1778108621710,   649.310,   649.309, 0.013217,-0.018135,-0.996227, 0.000026,-0.000036,-0.001993,-0.002271, 0.011290, 0.044209,1,-0.000011,-0.000820,-0.000127,1,-0.124522, 0.183958, 9.804133,1,1
1778108621720,   649.315,   649.315, 0.013081,-0.018793,-0.997055, 0.000026,-0.000038,-0.001994, 0.003795,-0.000329, 0.026365,1,-0.000132,-0.000604,-0.000317,1,-0.124486, 0.183966, 9.804134,1,1
1778108621731,   649.319,   649.319, 0.012834,-0.017965,-0.996722, 0.000026,-0.000036,-0.001993, 0.001380, 0.007802, 0.029629,1, 0.000557, 0.000172,-0.000854,1,-0.124481, 0.183980, 9.804133,1,1
1778108621742,   649.324,   649.323, 0.013056,-0.017856,-0.994492, 0.000026,-0.000035,-0.001989, 0.004081, 0.012954, 0.040750,1, 0.002108,-0.000493,-0.000533,1,-0.124460, 0.184037, 9.804133,1,1
1778108621753,   649.329,   649.329, 0.011681,-0.018660,-0.994900, 0.000023,-0.000037,-0.001990,-0.009891, 0.001102, 0.047495,1, 0.000006,-0.000482,-0.000687,1,-0.124439, 0.184093, 9.804132,1,1
1778108621764,   649.334,   649.333, 0.013051,-0.019284,-0.997139, 0.000026,-0.000039,-0.001994,-0.001921, 0.000583, 0.039471,1,-0.000510,-0.000565,-0.000102,1,-0.124421, 0.184069, 9.804132,1,1
1778108621774,   649.338,   649.337, 0.012476,-0.018405,-0.997070, 0.000025,-0.000037,-0.001994, 0.002672,-0.004371, 0.027380,1,-0.000718,-0.000056,-0.000587,1,-0.124426, 0.184055, 9.804133,1,1
1778108621785,   649.343,   649.343, 0.012885,-0.017917,-0.995467, 0.000026,-0.000036,-0.001991, 0.001974, 0.008375, 0.041937,1, 0.001449,-0.000036,-0.000210,1,-0.124388, 0.184088, 9.804133,1,1
1778108621796,   649.348,   649.347, 0.012344,-0.019861,-0.994618, 0.000025,-0.000040,-0.001989,-0.004328,-0.006735, 0.053790,1, 0.001312, 0.000198,-0.001016,1,-0.124402, 0.184131, 9.804132,1,1
1778108621807,   649.352,   649.351, 0.012815,-0.020579,-0.996799, 0.000026,-0.000041,-0.001994,-0.004146,-0.018758, 0.037990,1, 0.000241, 0.000038,-0.000531,1,-0.124407, 0.184142, 9.804132,1,1
1778108621817,   649.357,   649.357, 0.013195,-0.019235,-0.996496, 0.000027,-0.000038,-0.001993, 0.004990,-0.004564, 0.031845,1,-0.000404, 0.000380, 0.000721,1,-0.124408, 0.184066, 9.804133,1,1
1778108621828,   649.362,   649.361, 0.012735,-0.019274,-0.995017, 0.000025,-0.000039,-0.001990, 0.002492, 0.000156, 0.041115,1, 0.001325,-0.000208, 0.000302,1,-0.124419, 0.184083, 9.804132,1,1
1778108621839,   649.366,   649.365, 0.012046,-0.021159,-0.994207, 0.000024,-0.000042,-0.001988,-0.000900,-0.008022, 0.052048,1, 0.000502, 0.000026,-0.000364,1,-0.124402, 0.184116, 9.804132,1,1
1778108621850,   649.371,   649.371, 0.012336,-0.020310,-0.995763, 0.000024,-0.000040,-0.001992,-0.003422,-0.015041, 0.039027,1,-0.000333,-0.000109,-0.000581,1,-0.124398, 0.184128, 9.804132,1,1
1778108621860,   649.376,   649.375, 0.012723,-0.018911,-0.996804, 0.000025,-0.000038,-0.001994,-0.003718,-0.005884, 0.032981,1,-0.000062, 0.000593,-0.000054,1,-0.124414, 0.184121, 9.804132,1,1
1778108621871,   649.380,   649.379, 0.012192,-0.018594,-0.995425, 0.000024,-0.000037,-0.001991, 0.004030, 0.006169, 0.034400,1, 0.000989, 0.000464, 0.000637,1,-0.124418, 0.184168, 9.804132,1,1
1778108621882,   649.385,   649.385, 0.011995,-0.019993,-0.994928, 0.000024,-0.000040,-0.001990,-0.006785,-0.011882, 0.047224,1, 0.000484, 0.000404, 0.000784,1,-0.124414, 0.184189, 9.804131,1,1
1778108621893,   649.681,   649.681, 0.013068,-0.018245,-0.996568, 0.000026,-0.000036,-0.001993, 0.003427, 0.005213, 0.031132,1,-0.001665, 0.000612,-0.000417,1,-0.124732, 0.184123, 9.804128,1,1
1778108621903,   649.686,   649.685, 0.012218,-0.018196,-0.994747, 0.000024,-0.000036,-0.001989,-0.000049, 0.004336, 0.042810,1, 0.000039, 0.000351,-0.000004,1,-0.124757, 0.184108, 9.804128,1,1
1778108621914,   649.690,   649.689, 0.011931,-0.019029,-0.994563, 0.000024,-0.000038,-0.001989,-0.003834, 0.005724, 0.049194,1, 0.000443, 0.000423,-0.000434,1,-0.124787, 0.184126, 9.804127,1,1
1778108621925,   649.695,   649.695, 0.012880,-0.019920,-0.995527, 0.000026,-0.000040,-0.001991, 0.001513,-0.011162, 0.041342,1, 0.000653,-0.000145,-0.000090,1,-0.124792, 0.184194, 9.804126,1,1
1778108621936,   649.700,   649.699, 0.012365,-0.017820,-0.997350, 0.000025,-0.000036,-0.001995, 0.007182, 0.007597, 0.019103,1,-0.001255,-0.001497,-0.000195,1,-0.124766, 0.184160, 9.804127,1,1
1778108621946,   649.704,   649.703, 0.013463,-0.017917,-0.996210, 0.000027,-0.000036,-0.001992, 0.003679, 0.013461, 0.031603,1, 0.000503, 0.000347,-0.000232,1,-0.124747, 0.184166, 9.804127,1,1
1778108621957,   649.709,   649.709, 0.011548,-0.019067,-0.994846, 0.000023,-0.000038,-0.001989,-0.011543,-0.002741, 0.048017,1, 0.001255, 0.000709, 0.000339,1,-0.124797, 0.184251, 9.804125,1,1
1778108621968,   649.714,   649.713, 0.012481,-0.018376,-0.995144, 0.000025,-0.000036,-0.001990,-0.002520, 0.002103, 0.044153,1,-0.000254, 0.000238, 0.000345,1,-0.124835, 0.184268, 9.804124,1,1
1778108621979,   649.718,   649.717, 0.012302,-0.018100,-0.995838, 0.000024,-0.000036,-0.001992,-0.001686, 0.003007, 0.039362,1, 0.000974,-0.000020,-0.000298,1,-0.124803, 0.184284, 9.804124,1,1
1778108621990,   649.723,   649.723, 0.013273,-0.018258,-0.996846, 0.000027,-0.000037,-0.001994, 0.005361, 0.005235, 0.028406,1, 0.000308,-0.000108,-0.000875,1,-0.124806, 0.184287, 9.804124,1,1
1778108622000,   649.728,   649.727, 0.012098,-0.019131,-0.996529, 0.000024,-0.000038,-0.001993, 0.000292,-0.002500, 0.035241,1, 0.000177,-0.000698,-0.000111,1,-0.124793, 0.184300, 9.804124,1,1
1778108622011,   649.732,   649.731, 0.012723,-0.020111,-0.995842, 0.000026,-0.000040,-0.001992,-0.001126,-0.007633, 0.031860,1, 0.000383, 0.001703, 0.000139,1,-0.124846, 0.184300, 9.804123,1,1
1778108622022,   649.737,   649.737, 0.013247,-0.018549,-0.996143, 0.000027,-0.000037,-0.001993, 0.005045, 0.002359, 0.035300,1,-0.001372,-0.000414, 0.000052,1,-0.124862, 0.184258, 9.804124,1,1
1778108622033,   649.742,   649.741, 0.012211,-0.019401,-0.995734, 0.000024,-0.000039,-0.001992, 0.001095,-0.001178, 0.039462,1,-0.000408, 0.001273,-0.000065,1,-0.124901, 0.184228, 9.804124,1,1
1778108622043,   649.746,   649.746, 0.013708,-0.020034,-0.997128, 0.000028,-0.000040,-0.001994, 0.009531,-0.012258, 0.025637,1,-0.000360,-0.000386, 0.000689,1,-0.124892, 0.184206, 9.804125,1,1
1778108622054,   649.751,   649.751, 0.012443,-0.019335,-0.997177, 0.000025,-0.000038,-0.001994,-0.002823,-0.005401, 0.025163,1, 0.000305,-0.001271, 0.000009,1,-0.124835, 0.184214, 9.804125,1,1
1778108622065,   649.756,   649.755, 0.012361,-0.019570,-0.994428, 0.000025,-0.000039,-0.001989,-0.001059,-0.002192, 0.034505,1, 0.000369,-0.000432,-0.000364,1,-0.124811, 0.184235, 9.804125,1,1
1778108622076,   649.760,   649.760, 0.012250,-0.020294,-0.993540, 0.000024,-0.000041,-0.001987,-0.004669,-0.014786, 0.060831,1, 0.000912, 0.000023, 0.000641,1,-0.124805, 0.184234, 9.804125,1,1
1778108622086,   649.765,   649.765, 0.012744,-0.019029,-0.994650, 0.000025,-0.000038,-0.001989, 0.000127,-0.002399, 0.049937,1,-0.000698, 0.001192,-0.000226,1,-0.124856, 0.184209, 9.804125,1,1
1778108622097,   649.770,   649.769, 0.013347,-0.017291,-0.997521, 0.000027,-0.000034,-0.001995, 0.003719, 0.008896, 0.028412,1,-0.000597, 0.000299,-0.000884,1,-0.124851, 0.184191, 9.804125,1,1
1778108622108,   649.774,   649.774, 0.012869,-0.018483,-0.994772, 0.000025,-0.000037,-0.001989, 0.001303, 0.002976, 0.048741,1, 0.001851, 0.000679, 0.000181,1,-0.124899, 0.184246, 9.804124,1,1
1778108622119,   649.779,   649.779, 0.012626,-0.020211,-0.993787, 0.000025,-0.000041,-0.001987,-0.001065,-0.013911, 0.058405,1, 0.002034,-0.001643,-0.000258,1,-0.124874, 0.184303, 9.804123,1,1
1778108622129,   649.784,   649.783, 0.013254,-0.019990,-0.996213, 0.000027,-0.000040,-0.001993, 0.006721,-0.021143, 0.043341,1,-0.000010, 0.001970,-0.000587,1,-0.124908, 0.184294, 9.804123,1,1
1778108622140,   649.788,   649.788, 0.012495,-0.018272,-0.997151, 0.000025,-0.000037,-0.001994,-0.002384, 0.005036, 0.025409,1,-0.001269,-0.000452, 0.000459,1,-0.124911, 0.184212, 9.804124,1,1
1778108622151,   649.793,   649.793, 0.013277,-0.018410,-0.995569, 0.000027,-0.000037,-0.001991, 0.005262, 0.003727, 0.040923,1, 0.001859, 0.001477, 0.000314,1,-0.124950, 0.184276, 9.804122,1,1
1778108622162,   649.798,   649.797, 0.013046,-0.019126,-0.995405, 0.000026,-0.000038,-0.001991,-0.005158,-0.015393, 0.036897,1, 0.001091,-0.002012, 0.000070,1,-0.124901, 0.184313, 9.804122,1,1
1778108622173,   649.802,   649.802, 0.012840,-0.018301,-0.995061, 0.000026,-0.000037,-0.001990, 0.000995, 0.004828, 0.045910,1,-0.000598, 0.000195, 0.000623,1,-0.124928, 0.184294, 9.804122,1,1
1778108622183,   649.807,   649.807, 0.011892,-0.017295,-0.995195, 0.000023,-0.000034,-0.001990,-0.008326, 0.014689, 0.044589,1, 0.000574, 0.000934, 0.000167,1,-0.124952, 0.184302, 9.804122,1,1
1778108622194,   649.812,   649.811, 0.012842,-0.018856,-0.997443, 0.000026,-0.000038,-0.001995, 0.008808, 0.003633, 0.040150,1, 0.000522, 0.001447,-0.000920,1,-0.124986, 0.184319, 9.804121,1,1
1778108622205,   649.817,   649.816, 0.013206,-0.017457,-0.997275, 0.000026,-0.000035,-0.001995, 0.004538, 0.013137, 0.024199,1,-0.000779,-0.001199,-0.000426,1,-0.124960, 0.184322, 9.804121,1,1
1778108622216,   649.821,   649.821, 0.013084,-0.017445,-0.995214, 0.000026,-0.000035,-0.001991, 0.003386, 0.013255, 0.044401,1, 0.000070,-0.000284,-0.000015,1,-0.124925, 0.184330, 9.804122,1,1
1778108622226,   649.826,   649.825, 0.012343,-0.018696,-0.993434, 0.000025,-0.000038,-0.001987,-0.001168, 0.004370, 0.057076,1, 0.000660,-0.000102,-0.000015,1,-0.124917, 0.184344, 9.804121,1,1
1778108622237,   649.831,   649.830, 0.012271,-0.019051,-0.994549, 0.000024,-0.000038,-0.001989,-0.004576,-0.002468, 0.050931,1, 0.000148, 0.000184,-0.000696,1,-0.124913, 0.184358, 9.804121,1,1
1778108622248,   649.835,   649.835, 0.013164,-0.019164,-0.996846, 0.000026,-0.000038,-0.001994, 0.004188,-0.003606, 0.028402,1,-0.001832,-0.000554,-0.000451,1,-0.124905, 0.184317, 9.804122,1,1
1778108622259,   649.840,   649.839, 0.012619,-0.016726,-0.996257, 0.000025,-0.000033,-0.001992, 0.001012, 0.020150, 0.030018,1,-0.001265,-0.000151,-0.000340,1,-0.124913, 0.184258, 9.804123,1,1
1778108622269,   649.845,   649.844, 0.011930,-0.018679,-0.994574, 0.000024,-0.000038,-0.001989,-0.007903, 0.001146, 0.050679,1, 0.001191,-0.000495,-0.000438,1,-0.124895, 0.184330, 9.804122,1,1
1778108622280,   649.910,   649.848, 0.012357,-0.018562,-0.995310, 0.000025,-0.000037,-0.001990,-0.005700,-0.014136, 0.050648,1, 0.000830, 0.001064, 0.000269,1,-0.124939, 0.184382, 9.804120,1,1
1778108622291,   649.914,   649.913, 0.012678,-0.019272,-0.995916, 0.000025,-0.000039,-0.001992, 0.000225, 0.000145, 0.042783,1, 0.000708,-0.000256,-0.000427,1,-0.125063, 0.184483, 9.804117,1,1
1778108622302,   649.919,   649.919, 0.013132,-0.019106,-0.995901, 0.000026,-0.000038,-0.001992, 0.003693,-0.002852, 0.037665,1, 0.000478,-0.000025, 0.000675,1,-0.125091, 0.184514, 9.804116,1,1
1778108622312,   649.924,   649.923, 0.012720,-0.017923,-0.996085, 0.000025,-0.000036,-0.001992,-0.000300, 0.010733, 0.030007,1,-0.000291, 0.000454, 0.000404,1,-0.125091, 0.184501, 9.804116,1,1
1778108622323,   649.928,   649.927, 0.013164,-0.018003,-0.995494, 0.000026,-0.000036,-0.001991,-0.001042, 0.009998, 0.036088,1,-0.001161,-0.000981,-0.000191,1,-0.125071, 0.184460, 9.804117,1,1
1778108622334,   649.933,   649.933, 0.012737,-0.018911,-0.994935, 0.000025,-0.000038,-0.001990,-0.000161,-0.000970, 0.047140,1, 0.001534, 0.000769, 0.000040,1,-0.125075, 0.184498, 9.804116,1,1
1778108622345,   649.938,   649.937, 0.012945,-0.018718,-0.995611, 0.000026,-0.000037,-0.001991,-0.002083,-0.003457, 0.045752,1,-0.000120, 0.000689, 0.000120,1,-0.125093, 0.184502, 9.804116,1,1
1778108622355,   649.942,   649.941, 0.014069,-0.019286,-0.996002, 0.000028,-0.000039,-0.001992, 0.005515,-0.000458, 0.039259,1, 0.000633,-0.000448,-0.000176,1,-0.125080, 0.184512, 9.804116,1,1
1778108622366,   649.947,   649.947, 0.013125,-0.018047,-0.995718, 0.000026,-0.000036,-0.001991, 0.003623, 0.007515, 0.039454,1, 0.000847, 0.000831, 0.000249,1,-0.125099, 0.184501, 9.804116,1,1
1778108622377,   649.952,   649.951, 0.012075,-0.019715,-0.996331, 0.000024,-0.000040,-0.001993,-0.008150,-0.000566, 0.041476,1, 0.000887, 0.000811,-0.000549,1,-0.125153, 0.184520, 9.804115,1,1
1778108622388,   649.956,   649.956, 0.012553,-0.018648,-0.996083, 0.000025,-0.000037,-0.001992,-0.002043, 0.001591, 0.035876,1,-0.001805,-0.000516,-0.000315,1,-0.125141, 0.184456, 9.804116,1,1
1778108622399,   649.961,   649.961, 0.012563,-0.017641,-0.995184, 0.000025,-0.000035,-0.001990,-0.001967, 0.011458, 0.044697,1, 0.000667, 0.000855,-0.000753,1,-0.125177, 0.184463, 9.804116,1,1
1778108622409,   649.966,   649.965, 0.012458,-0.020114,-0.995328, 0.000025,-0.000040,-0.001991,-0.003780,-0.008625, 0.044221,1, 0.000107, 0.000921,-0.000037,1,-0.125209, 0.184469, 9.804115,1,1
1778108622420,   649.970,   649.970, 0.012938,-0.019667,-0.996571, 0.000026,-0.000039,-0.001993, 0.001676,-0.008437, 0.031096,1,-0.000914,-0.000587, 0.000567,1,-0.125198, 0.184422, 9.804116,1,1
1778108622431,   649.975,   649.975, 0.012044,-0.017918,-0.996446, 0.000024,-0.000036,-0.001993,-0.007058, 0.008694, 0.032323,1,-0.000702, 0.000083,-0.000222,1,-0.125171, 0.184406, 9.804117,1,1
1778108622442,   649.980,   649.979, 0.012048,-0.018218,-0.994918, 0.000024,-0.000036,-0.001990,-0.006298, 0.004645, 0.045631,1, 0.000452, 0.001395,-0.000704,1,-0.125227, 0.184433, 9.804116,1,1
1778108622452,   649.984,   649.984, 0.012433,-0.018965,-0.995339, 0.000025,-0.000038,-0.001991,-0.003283,-0.001568, 0.043179,1, 0.000002, 0.000079,-0.000349,1,-0.125210, 0.184414, 9.804116,1,1
1778108622463,   649.989,   649.989, 0.012413,-0.019530,-0.995977, 0.000025,-0.000039,-0.001992,-0.003467,-0.007111, 0.036918,1,-0.000552,-0.000631,-0.000156,1,-0.125190, 0.184411, 9.804116,1,1
1778108622474,   649.994,   649.993, 0.011290,-0.018739,-0.995931, 0.000022,-0.000037,-0.001992,-0.009306,-0.000204, 0.032993,1, 0.000004,-0.000832,-0.000049,1,-0.125191, 0.184404, 9.804117,1,1
1778108622485,   649.998,   649.998, 0.012652,-0.018475,-0.995721, 0.000025,-0.000037,-0.001992,-0.001090, 0.003218, 0.039427,1,-0.000328,-0.000182,-0.000273,1,-0.125161, 0.184393, 9.804117,1,1
1778108622495,   650.003,   650.003, 0.012464,-0.019815,-0.995681, 0.000025,-0.000040,-0.001991,-0.002932,-0.009944, 0.039823,1,-0.001250, 0.000848,-0.000025,1,-0.125165, 0.184363, 9.804118,1,1
1778108622506,   650.008,   650.007, 0.012884,-0.019614,-0.995932, 0.000026,-0.000039,-0.001992, 0.003580,-0.006619, 0.039639,1,-0.000417, 0.000159,-0.000019,1,-0.125197, 0.184334, 9.804118,1,1
1778108622517,   650.304,   650.303, 0.012973,-0.019390,-0.995708, 0.000026,-0.000039,-0.001991, 0.000768,-0.005012, 0.037515,1,-0.000232, 0.000096, 0.000127,1,-0.125799, 0.184186, 9.804113,1,1
1778108622528,   650.308,   650.308, 0.012414,-0.019322,-0.995468, 0.000025,-0.000039,-0.001991,-0.004033,-0.005288, 0.041905,1,-0.000402,-0.000965,-0.000287,1,-0.125763, 0.184192, 9.804113,1,1
1778108622538,   650.313,   650.313, 0.013133,-0.019787,-0.995543, 0.000026,-0.000040,-0.001991, 0.003015,-0.009831, 0.041172,1, 0.000687, 0.000626, 0.000107,1,-0.125783, 0.184217, 9.804112,1,1
1778108622549,   650.318,   650.317, 0.012744,-0.018930,-0.996363, 0.000026,-0.000038,-0.001993, 0.000574,-0.007785, 0.026653,1,-0.000735,-0.000400,-0.000614,1,-0.125784, 0.184214, 9.804112,1,1
1778108622560,   650.322,   650.322, 0.012438,-0.018694,-0.995001, 0.000025,-0.000037,-0.001990,-0.003813, 0.000914, 0.046483,1, 0.000998, 0.000799, 0.000018,1,-0.125798, 0.184243, 9.804112,1,1
1778108622571,   650.327,   650.327, 0.012479,-0.019236,-0.994401, 0.000025,-0.000039,-0.001989,-0.003429,-0.004397, 0.052366,1,-0.000994, 0.000177,-0.000560,1,-0.125805, 0.184240, 9.804112,1,1
1778108622582,   650.332,   650.331, 0.012963,-0.018864,-0.995242, 0.000026,-0.000038,-0.001990,-0.002408,-0.009590, 0.048424,1,-0.000730,-0.000474,-0.000263,1,-0.125769, 0.184226, 9.804112,1,1
1778108622592,   650.336,   650.336, 0.012192,-0.018822,-0.995891, 0.000024,-0.000038,-0.001992,-0.006229,-0.000392, 0.037756,1, 0.000159, 0.000521,-0.000071,1,-0.125793, 0.184186, 9.804113,1,1
1778108622603,   650.341,   650.341, 0.013058,-0.019006,-0.995612, 0.000026,-0.000038,-0.001991, 0.002285,-0.002181, 0.040490,1, 0.001636,-0.000465,-0.000566,1,-0.125771, 0.184212, 9.804113,1,1
1778108622614,   650.346,   650.345, 0.012710,-0.018450,-0.996394, 0.000025,-0.000037,-0.001993, 0.002945, 0.002889, 0.040420,1,-0.000281,-0.000130,-0.000030,1,-0.125757, 0.184236, 9.804112,1,1
1778108622625,   650.351,   650.350, 0.012895,-0.018524,-0.995566, 0.000026,-0.000037,-0.001991, 0.000693, 0.002570, 0.040948,1,-0.000138, 0.000558,-0.000974,1,-0.125768, 0.184230, 9.804112,1,1
1778108622635,   650.355,   650.355, 0.012586,-0.018460,-0.995758, 0.000025,-0.000037,-0.001991,-0.002348, 0.003211, 0.039061,1, 0.000366,-0.000609,-0.000327,1,-0.125771, 0.184248, 9.804112,1,1
1778108622646,   650.359,   650.359, 0.011797,-0.018694,-0.995971, 0.000023,-0.000037,-0.001992,-0.010099, 0.000900, 0.036974,1,-0.000319, 0.000396,-0.000587,1,-0.125789, 0.184222, 9.804112,1,1
1778108622657,   650.365,   650.364, 0.012622,-0.019275,-0.996473, 0.000025,-0.000039,-0.001993,-0.002066,-0.004805, 0.032053,1, 0.000089, 0.000983,-0.000397,1,-0.125849, 0.184221, 9.804111,1,1
1778108622668,   650.369,   650.369, 0.011744,-0.018648,-0.995550, 0.000023,-0.000037,-0.001991,-0.010652, 0.001326, 0.041101,1,-0.001037,-0.001360,-0.000007,1,-0.125815, 0.184196, 9.804112,1,1
1778108622678,   650.374,   650.373, 0.011886,-0.019289,-0.994723, 0.000024,-0.000039,-0.001989,-0.004288, 0.001596, 0.056447,1, 0.001161, 0.000278,-0.000604,1,-0.125822, 0.184219, 9.804112,1,1
1778108622689,   650.379,   650.378, 0.012966,-0.019515,-0.996075, 0.000026,-0.000039,-0.001992, 0.001326,-0.007129, 0.035956,1, 0.000585, 0.000808,-0.000334,1,-0.125834, 0.184252, 9.804111,1,1
1778108622700,   650.383,   650.383, 0.012332,-0.018851,-0.995849, 0.000024,-0.000038,-0.001992,-0.004906,-0.000627, 0.038166,1,-0.000405, 0.000247,-0.000875,1,-0.125840, 0.184237, 9.804111,1,1
1778108622711,   650.388,   650.387, 0.012678,-0.018276,-0.995801, 0.000025,-0.000037,-0.001992, 0.000905, 0.004055, 0.031302,1,-0.001039,-0.000584, 0.000294,1,-0.125786, 0.184198, 9.804113,1,1
1778108622721,   650.393,   650.392, 0.012557,-0.018651,-0.994576, 0.000025,-0.000037,-0.001989,-0.002660, 0.001296, 0.050653,1, 0.000322,-0.000417,-0.000240,1,-0.125795, 0.184202, 9.804112,1,1
1778108622732,   650.397,   650.397, 0.012636,-0.018816,-0.994684, 0.000025,-0.000038,-0.001989,-0.001874,-0.000320, 0.049593,1,-0.000622,-0.000145, 0.000054,1,-0.125790, 0.184201, 9.804113,1,1
1778108622743,   650.402,   650.401, 0.012727,-0.018259,-0.996401, 0.000026,-0.000036,-0.001993, 0.001638,-0.003316, 0.041432,1,-0.001128, 0.000186,-0.000168,1,-0.125801, 0.184157, 9.804113,1,1
1778108622754,   650.407,   650.406, 0.012382,-0.017816,-0.995380, 0.000025,-0.000036,-0.001991,-0.004393, 0.009467, 0.042768,1, 0.000898,-0.000457,-0.000583,1,-0.125818, 0.184189, 9.804112,1,1
1778108622764,   650.411,   650.411, 0.012349,-0.019056,-0.995221, 0.000025,-0.000038,-0.001990,-0.004721,-0.002658, 0.044328,1, 0.001015,-0.000156,-0.000283,1,-0.125822, 0.184227, 9.804112,1,1
1778108622775,   650.416,   650.415, 0.012943,-0.020057,-0.995963, 0.000026,-0.000040,-0.001992,-0.002961,-0.006885, 0.043262,1,-0.000139, 0.000075,-0.000333,1,-0.125807, 0.184258, 9.804111,1,1
1778108622786,   650.421,   650.421, 0.012766,-0.018039,-0.996630, 0.000026,-0.000036,-0.001993,-0.000601, 0.007392, 0.030508,1, 0.000715, 0.000308,-0.000500,1,-0.125793, 0.184295, 9.804111,1,1
1778108622797,   650.425,   650.425, 0.012380,-0.017675,-0.995392, 0.000025,-0.000035,-0.001991,-0.004375, 0.010953, 0.042650,1,-0.000294,-0.000234,-0.000619,1,-0.125784, 0.184279, 9.804111,1,1
1778108622808,   650.430,   650.429, 0.012916,-0.018688,-0.995617, 0.000026,-0.000037,-0.001991,-0.001684,-0.000548, 0.036925,1,-0.000147, 0.000147,-0.000822,1,-0.125796, 0.184284, 9.804111,1,1
1778108622818,   650.435,   650.435, 0.012146,-0.019094,-0.995195, 0.000024,-0.000038,-0.001990,-0.006664,-0.002978, 0.044582,1,-0.000381, 0.000519,-0.000764,1,-0.125778, 0.184267, 9.804111,1,1
1778108622829,   650.440,   650.439, 0.012685,-0.020811,-0.996831, 0.000025,-0.000041,-0.001994,-0.007080,-0.010603, 0.038218,1, 0.001089, 0.001035, 0.000136,1,-0.125813, 0.184285, 9.804111,1,1
1778108622840,   650.444,   650.443, 0.013502,-0.022209,-0.998929, 0.000027,-0.000044,-0.001998, 0.005314,-0.033388, 0.016982,1, 0.000048, 0.000108,-0.000596,1,-0.125831, 0.184308, 9.804111,1,1
1778108622851,   650.449,   650.449, 0.011192,-0.019941,-0.999503, 0.000022,-0.000040,-0.001999,-0.016083,-0.011293, 0.002332,1,-0.001847,-0.000951,-0.000545,1,-0.125832, 0.184246, 9.804111,1,1
1778108622861,   650.454,   650.453, 0.011248,-0.020224,-0.992415, 0.000023,-0.000040,-0.001984,-0.025136,-0.012188, 0.051023,1, 0.000679,-0.000521, 0.000392,1,-0.125783, 0.184253, 9.804112,1,1
1778108622872,   650.458,   650.457, 0.011006,-0.021875,-0.989689, 0.000022,-0.000044,-0.001979,-0.008320,-0.025236, 0.087056,1, 0.001354, 0.000009, 0.000348,1,-0.125789, 0.184297, 9.804111,1,1
1778108622883,   650.463,   650.463, 0.011940,-0.021476,-0.992695, 0.000024,-0.000043,-0.001986,-0.008751,-0.026356, 0.069095,1,-0.001446, 0.001403,-0.000729,1,-0.125851, 0.184247, 9.804111,1,1
1778108622894,   650.468,   650.467, 0.012795,-0.018075,-1.000510, 0.000025,-0.000036,-0.002001,-0.000774,-0.008638, 0.009490,1,-0.003534, 0.000387, 0.000682,1,-0.125883, 0.184140, 9.804113,1,1
1778108622904,   650.532,   650.532, 0.014251,-0.018225,-0.999197, 0.000029,-0.000037,-0.001999, 0.013923, 0.005360, 0.005338,1,-0.000623, 0.000621,-0.000668,1,-0.125837, 0.184079, 9.804114,1,1
1778108622915,   650.537,   650.537, 0.013320,-0.017573,-0.997859, 0.000026,-0.000035,-0.001996, 0.004787, 0.011764, 0.018462,1, 0.001089,-0.000017,-0.000528,1,-0.125836, 0.184103, 9.804114,1,1
1778108622926,   650.542,   650.541, 0.012108,-0.018443,-0.993054, 0.000024,-0.000037,-0.001986,-0.001781, 0.010042, 0.052291,1, 0.001549,-0.000641,-0.000766,1,-0.125817, 0.184150, 9.804113,1,1
1778108622937,   650.546,   650.546, 0.012486,-0.019480,-0.993473, 0.000025,-0.000039,-0.001987,-0.003415,-0.006782, 0.061468,1, 0.002227, 0.000988,-0.000981,1,-0.125869, 0.184261, 9.804111,1,1
1778108622947,   650.551,   650.551, 0.011987,-0.020455,-0.995965, 0.000024,-0.000041,-0.001992,-0.008336,-0.016343, 0.037031,1,-0.000233, 0.000740,-0.000150,1,-0.125892, 0.184250, 9.804111,1,1
1778108622958,   650.556,   650.555, 0.012177,-0.020160,-0.999072, 0.000024,-0.000040,-0.001998,-0.007319,-0.010720, 0.006656,1,-0.001854, 0.000673,-0.000290,1,-0.125898, 0.184172, 9.804112,1,1
1778108622969,   650.561,   650.560, 0.012572,-0.020173,-0.997469, 0.000025,-0.000040,-0.001995,-0.002604,-0.013631, 0.022285,1, 0.001275,-0.000361, 0.000637,1,-0.125887, 0.184207, 9.804111,1,1
1778108622980,   650.565,   650.565, 0.011169,-0.020151,-0.993291, 0.000022,-0.000040,-0.001986,-0.016359,-0.013366, 0.063254,1, 0.001990, 0.000125,-0.000294,1,-0.125886, 0.184261, 9.804111,1,1
1778108622991,   650.570,   650.569, 0.011971,-0.021587,-0.992719, 0.000024,-0.000043,-0.001985,-0.013401,-0.020987, 0.075244,1, 0.000615, 0.000778,-0.000636,1,-0.125918, 0.184319, 9.804110,1,1
1778108623001,   650.575,   650.574, 0.012637,-0.021673,-0.995424, 0.000025,-0.000044,-0.001991,-0.002027,-0.028236, 0.042336,1,-0.000368, 0.000978, 0.000355,1,-0.125962, 0.184300, 9.804109,1,1
1778108623012,   650.579,   650.579, 0.013027,-0.018354,-0.998086, 0.000026,-0.000036,-0.001996, 0.001832, 0.004286, 0.016225,1,-0.000210,-0.001793, 0.000162,1,-0.125909, 0.184272, 9.804111,1,1
1778108623023,   650.584,   650.583, 0.011932,-0.018948,-0.995949, 0.000024,-0.000038,-0.001992,-0.008015, 0.007841, 0.020842,1, 0.001129, 0.000321,-0.000759,1,-0.125891, 0.184321, 9.804110,1,1
1778108623034,   650.589,   650.588, 0.011538,-0.019965,-0.993835, 0.000023,-0.000040,-0.001988,-0.012694,-0.011471, 0.057914,1, 0.000164,-0.001118, 0.000347,1,-0.125836, 0.184316, 9.804111,1,1
1778108623044,   650.593,   650.593, 0.012093,-0.020048,-0.993438, 0.000024,-0.000040,-0.001987,-0.007283,-0.012303, 0.061816,1,-0.000591, 0.001533,-0.000279,1,-0.125889, 0.184295, 9.804110,1,1
1778108623055,   650.598,   650.597, 0.012672,-0.019097,-0.996982, 0.000025,-0.000038,-0.001994, 0.000849,-0.002229, 0.041075,1,-0.001023, 0.001744, 0.000634,1,-0.125953, 0.184252, 9.804110,1,1
1778108623066,   650.603,   650.602, 0.012229,-0.019278,-0.998593, 0.000024,-0.000038,-0.001997,-0.006057,-0.004827, 0.011254,1,-0.000409,-0.000163, 0.000833,1,-0.125978, 0.184220, 9.804111,1,1
1778108623077,   650.607,   650.607, 0.012289,-0.019182,-0.996198, 0.000025,-0.000038,-0.001992,-0.005459,-0.003857, 0.034740,1, 0.000619,-0.000043, 0.000206,1,-0.125970, 0.184258, 9.804110,1,1
1778108623087,   650.612,   650.611, 0.012422,-0.019041,-0.992535, 0.000025,-0.000038,-0.001985,-0.005463,-0.010698, 0.068107,1, 0.001195, 0.000315,-0.000614,1,-0.125983, 0.184286, 9.804109,1,1
1778108623098,   650.617,   650.616, 0.012418,-0.019513,-0.995168, 0.000025,-0.000039,-0.001991,-0.004202,-0.006992, 0.044847,1,-0.001030, 0.000839, 0.000895,1,-0.125983, 0.184358, 9.804108,1,1
1778108623109,   650.621,   650.621, 0.013220,-0.018898,-0.998604, 0.000026,-0.000038,-0.001998, 0.003658,-0.001007, 0.011150,1,-0.000674,-0.000925, 0.000078,1,-0.125979, 0.184313, 9.804109,1,1
1778108623120,   650.626,   650.625, 0.013307,-0.016237,-0.998622, 0.000027,-0.000032,-0.001997, 0.006900, 0.013567, 0.000433,1, 0.000552,-0.000518, 0.000511,1,-0.125960, 0.184317, 9.804109,1,1
1778108623130,   650.631,   650.631, 0.012760,-0.016601,-0.993834, 0.000026,-0.000033,-0.001987,-0.000796, 0.021567, 0.057922,1, 0.000903,-0.001102, 0.000045,1,-0.125923, 0.184377, 9.804108,1,1
1778108623141,   650.927,   650.926, 0.012281,-0.019071,-0.993374, 0.000025,-0.000038,-0.001986,-0.005862,-0.002876, 0.062434,1, 0.000819,-0.000105,-0.000179,1,-0.126293, 0.184154, 9.804108,1,1
1778108623152,   650.931,   650.931, 0.012465,-0.020577,-0.994778, 0.000025,-0.000041,-0.001990,-0.004048,-0.017621, 0.048670,1, 0.000389,-0.000394, 0.000456,1,-0.126285, 0.184178, 9.804107,1,1
1778108623163,   650.936,   650.935, 0.012760,-0.018810,-0.997234, 0.000025,-0.000038,-0.001995,-0.006496,-0.003712, 0.040197,1,-0.001705,-0.000675, 0.000085,1,-0.126257, 0.184112, 9.804109,1,1
1778108623173,   650.941,   650.940, 0.011934,-0.018742,-0.996408, 0.000024,-0.000038,-0.001993,-0.009202, 0.000303, 0.032682,1,-0.000734,-0.000437, 0.000375,1,-0.126228, 0.184091, 9.804110,1,1
1778108623184,   650.945,   650.945, 0.012615,-0.018616,-0.995049, 0.000026,-0.000037,-0.001990,-0.002521, 0.001560, 0.046010,1, 0.001701,-0.000049, 0.000004,1,-0.126227, 0.184129, 9.804109,1,1
1778108623195,   650.950,   650.949, 0.013766,-0.019277,-0.994304, 0.000028,-0.000039,-0.001988, 0.000221,-0.004278, 0.049607,1,-0.000991,-0.000086,-0.000234,1,-0.126230, 0.184124, 9.804109,1,1
1778108623206,   650.955,   650.955, 0.012447,-0.018506,-0.995194, 0.000025,-0.000037,-0.001990,-0.004170, 0.002631, 0.044586,1,-0.000326, 0.000500, 0.000208,1,-0.126236, 0.184116, 9.804109,1,1
1778108623217,   650.959,   650.959, 0.012126,-0.017797,-0.995322, 0.000024,-0.000035,-0.001991,-0.007344, 0.009618, 0.043336,1, 0.001634, 0.001141,-0.000283,1,-0.126270, 0.184159, 9.804108,1,1
1778108623227,   650.964,   650.963, 0.012442,-0.020105,-0.996795, 0.000025,-0.000041,-0.001994,-0.003665,-0.004471, 0.040058,1, 0.001418,-0.001466, 0.000485,1,-0.126238, 0.184223, 9.804107,1,1
1778108623238,   650.969,   650.969, 0.013099,-0.018391,-0.996569, 0.000026,-0.000037,-0.001993, 0.002245, 0.003888, 0.031106,1,-0.000777,-0.000153,-0.000579,1,-0.126207, 0.184236, 9.804107,1,1
1778108623249,   650.974,   650.973, 0.012988,-0.018032,-0.996076, 0.000026,-0.000036,-0.001992,-0.003232, 0.007224, 0.032659,1, 0.000127, 0.000101,-0.000018,1,-0.126206, 0.184246, 9.804107,1,1
1778108623260,   650.978,   650.977, 0.013751,-0.019161,-0.995094, 0.000028,-0.000038,-0.001990, 0.003373, 0.004572, 0.046536,1,-0.000030, 0.000133,-0.000034,1,-0.126191, 0.184243, 9.804107,1,1
1778108623270,   650.983,   650.983, 0.013135,-0.019144,-0.996495, 0.000026,-0.000038,-0.001993, 0.002604,-0.003499, 0.031826,1,-0.000584, 0.000327,-0.000284,1,-0.126212, 0.184234, 9.804107,1,1
1778108623281,   650.988,   650.987, 0.013745,-0.017395,-0.997092, 0.000028,-0.000035,-0.001994, 0.007047, 0.006618, 0.027275,1,-0.000082,-0.000840, 0.000091,1,-0.126193, 0.184229, 9.804108,1,1
1778108623292,   650.992,   650.991, 0.013652,-0.017094,-0.994946, 0.000027,-0.000034,-0.001990, 0.004941, 0.017854, 0.032580,1, 0.000612,-0.001323,-0.000559,1,-0.126137, 0.184247, 9.804108,1,1
1778108623303,   650.997,   650.997, 0.013562,-0.018992,-0.994465, 0.000027,-0.000038,-0.001989, 0.006885,-0.001978, 0.051738,1, 0.000013,-0.000112,-0.000684,1,-0.126112, 0.184270, 9.804108,1,1
1778108623313,   651.002,   651.001, 0.013235,-0.019041,-0.996527, 0.000026,-0.000038,-0.001993, 0.007858,-0.008379, 0.036309,1,-0.001356,-0.000386, 0.000780,1,-0.126117, 0.184238, 9.804108,1,1
1778108623324,   651.006,   651.005, 0.013157,-0.017950,-0.996280, 0.000026,-0.000036,-0.001992, 0.002226, 0.009555, 0.030510,1,-0.000344, 0.000008,-0.000388,1,-0.126115, 0.184192, 9.804109,1,1
1778108623335,   651.011,   651.011, 0.013216,-0.018647,-0.995093, 0.000026,-0.000037,-0.001990, 0.003519, 0.001345, 0.045577,1, 0.000029, 0.000144,-0.000477,1,-0.126091, 0.184205, 9.804109,1,1
1778108623346,   651.016,   651.015, 0.012832,-0.019891,-0.994591, 0.000025,-0.000040,-0.001989, 0.000017,-0.006565, 0.044120,1, 0.001020,-0.000006, 0.000454,1,-0.126058, 0.184333, 9.804107,1,1
1778108623356,   651.020,   651.019, 0.013294,-0.019102,-0.995997, 0.000027,-0.000038,-0.001992, 0.006593,-0.007934, 0.045737,1, 0.000619,-0.000332,-0.000071,1,-0.126043, 0.184359, 9.804107,1,1
1778108623367,   651.025,   651.025, 0.013378,-0.018385,-0.996945, 0.000027,-0.000037,-0.001994, 0.005146, 0.004030, 0.027420,1,-0.001670,-0.000079,-0.000091,1,-0.126047, 0.184320, 9.804108,1,1
1778108623378,   651.030,   651.029, 0.013347,-0.019077,-0.995111, 0.000027,-0.000038,-0.001990, 0.004364, 0.000915, 0.033146,1, 0.001033,-0.000685,-0.001030,1,-0.125995, 0.184360, 9.804108,1,1
1778108623389,   651.034,   651.033, 0.012834,-0.020767,-0.996416, 0.000026,-0.000042,-0.001993,-0.001126,-0.010522, 0.038645,1, 0.000710,-0.000020,-0.000431,1,-0.125994, 0.184401, 9.804107,1,1
1778108623400,   651.039,   651.039, 0.012255,-0.019266,-0.996578, 0.000025,-0.000038,-0.001993,-0.005801,-0.004547, 0.031018,1,-0.001273,-0.000297, 0.001365,1,-0.125975, 0.184384, 9.804107,1,1
1778108623410,   651.044,   651.043, 0.012014,-0.019897,-0.995012, 0.000024,-0.000040,-0.001990,-0.008708,-0.008646, 0.037147,1,-0.000746,-0.000527, 0.000081,1,-0.125949, 0.184366, 9.804108,1,1
1778108623421,   651.048,   651.047, 0.011992,-0.020669,-0.994276, 0.000024,-0.000042,-0.001988,-0.004528,-0.015680, 0.048420,1, 0.000856, 0.000788,-0.000740,1,-0.125983, 0.184397, 9.804107,1,1
1778108623432,   651.053,   651.053, 0.011798,-0.021080,-0.996258, 0.000024,-0.000042,-0.001993,-0.010275,-0.022332, 0.034151,1, 0.000226,-0.000403, 0.000288,1,-0.125969, 0.184399, 9.804107,1,1
1778108623443,   651.058,   651.057, 0.012387,-0.020006,-0.996107, 0.000025,-0.000040,-0.001992,-0.006429,-0.018487, 0.034999,1, 0.000039,-0.000483, 0.000310,1,-0.125947, 0.184407, 9.804107,1,1
1778108623453,   651.062,   651.062, 0.011971,-0.020374,-0.994765, 0.000024,-0.000041,-0.001989,-0.008547,-0.015386, 0.048791,1, 0.000250, 0.000883,-0.001054,1,-0.125943, 0.184413, 9.804107,1,1
1778108623464,   651.067,   651.067, 0.011763,-0.021740,-0.994995, 0.000024,-0.000044,-0.001990,-0.010573,-0.028748, 0.046537,1, 0.001003,-0.000790, 0.000077,1,-0.125920, 0.184458, 9.804107,1,1
1778108623475,   651.072,   651.071, 0.011271,-0.020773,-0.997074, 0.000023,-0.000041,-0.001994,-0.013712,-0.027719, 0.033201,1,-0.001071,-0.000248, 0.000219,1,-0.125912, 0.184435, 9.804107,1,1
1778108623486,   651.076,   651.076, 0.011637,-0.018449,-0.996234, 0.000023,-0.000037,-0.001993,-0.011775, 0.003470, 0.034391,1,-0.000527,-0.000723, 0.000989,1,-0.125887, 0.184386, 9.804109,1,1
1778108623496,   651.081,   651.081, 0.010730,-0.017637,-0.993175, 0.000021,-0.000035,-0.001986,-0.020619, 0.011462, 0.064386,1, 0.001542,-0.001321,-0.000356,1,-0.125836, 0.184432, 9.804108,1,1
1778108623507,   651.086,   651.085, 0.012661,-0.019881,-0.993810, 0.000026,-0.000040,-0.001988,-0.011326,-0.011665, 0.063060,1, 0.000370, 0.000622, 0.000494,1,-0.125850, 0.184460, 9.804108,1,1
1778108623518,   651.090,   651.090, 0.013069,-0.017841,-0.996080, 0.000026,-0.000036,-0.001992, 0.002252, 0.009469, 0.035894,1,-0.001015, 0.001270, 0.000336,1,-0.125914, 0.184421, 9.804108,1,1
1778108623529,   651.155,   651.155, 0.012300,-0.020140,-0.996063, 0.000024,-0.000041,-0.001992,-0.005368,-0.012942, 0.036058,1, 0.000248,-0.000448,-0.001252,1,-0.125985, 0.184563, 9.804104,1,1
1778108623539,   651.160,   651.159, 0.013081,-0.019684,-0.997222, 0.000026,-0.000039,-0.001994, 0.008765,-0.012714, 0.020545,1, 0.000172, 0.000411,-0.000893,1,-0.125998, 0.184580, 9.804103,1,1
1778108623550,   651.165,   651.165, 0.012220,-0.019317,-0.995282, 0.000024,-0.000039,-0.001990,-0.006105,-0.004857, 0.043716,1, 0.001109,-0.000876,-0.000117,1,-0.125941, 0.184586, 9.804104,1,1
1778108623561,   651.169,   651.169, 0.011764,-0.021689,-0.994735, 0.000023,-0.000044,-0.001989,-0.010575,-0.028073, 0.049085,1, 0.001208, 0.000807,-0.000926,1,-0.125943, 0.184635, 9.804103,1,1
1778108623572,   651.174,   651.173, 0.011429,-0.023188,-0.997499, 0.000023,-0.000046,-0.001996,-0.008844,-0.046190, 0.035522,1,-0.000159,-0.000070,-0.000933,1,-0.125941, 0.184632, 9.804103,1,1
1778108623582,   651.179,   651.179, 0.012548,-0.022585,-0.997859, 0.000025,-0.000045,-0.001996,-0.002882,-0.036884, 0.018453,1, 0.000209,-0.001044,-0.000477,1,-0.125927, 0.184599, 9.804104,1,1
1778108623593,   651.184,   651.183, 0.011352,-0.023138,-0.997463, 0.000023,-0.000046,-0.001995,-0.009810,-0.036451, 0.031172,1, 0.002029,-0.000014,-0.000537,1,-0.125901, 0.184661, 9.804103,1,1
1778108623604,   651.188,   651.187, 0.010367,-0.023757,-0.996277, 0.000021,-0.000048,-0.001992,-0.018684,-0.040076, 0.032092,1,-0.000701,-0.000964, 0.000078,1,-0.125863, 0.184662, 9.804103,1,1
1778108623615,   651.193,   651.193, 0.010834,-0.023198,-0.993860, 0.000022,-0.000046,-0.001987,-0.019586,-0.042855, 0.057670,1,-0.001124, 0.000013, 0.000303,1,-0.125830, 0.184628, 9.804105,1,1
1778108623626,   651.198,   651.197, 0.011056,-0.021652,-0.992799, 0.000022,-0.000043,-0.001986,-0.020163,-0.040089, 0.072650,1,-0.000958, 0.000341, 0.000860,1,-0.125845, 0.184584, 9.804105,1,1
1778108623636,   651.202,   651.201, 0.011221,-0.021677,-0.995691, 0.000022,-0.000043,-0.001992,-0.017021,-0.028346, 0.055764,1,-0.001198, 0.000366, 0.001803,1,-0.125856, 0.184558, 9.804106,1,1
1778108623647,   651.207,   651.207, 0.011257,-0.020881,-0.997862, 0.000022,-0.000042,-0.001996,-0.015481,-0.020301, 0.018419,1,-0.001859,-0.000193, 0.001088,1,-0.125868, 0.184459, 9.804107,1,1
1778108623658,   651.212,   651.211, 0.011353,-0.018640,-0.993835, 0.000023,-0.000037,-0.001987,-0.007756, 0.006164, 0.037673,1,-0.000323, 0.000350, 0.001297,1,-0.125858, 0.184441, 9.804108,1,1
1778108623669,   651.216,   651.215, 0.011685,-0.019593,-0.992505, 0.000023,-0.000039,-0.001985,-0.017794, 0.000197, 0.072316,1, 0.001930, 0.001171, 0.000860,1,-0.125835, 0.184667, 9.804104,1,1
1778108623679,   651.221,   651.221, 0.011854,-0.019861,-0.993843, 0.000024,-0.000040,-0.001988,-0.009677,-0.010061, 0.057826,1,-0.000291, 0.001415, 0.000461,1,-0.125937, 0.184709, 9.804102,1,1
1778108623690,   651.226,   651.225, 0.013560,-0.016507,-0.999647, 0.000027,-0.000033,-0.002000, 0.000538, 0.002704, 0.015477,1,-0.003160, 0.001847, 0.000991,1,-0.126001, 0.184594, 9.804103,1,1
1778108623701,   651.230,   651.229, 0.013000,-0.015586,-0.998458, 0.000026,-0.000031,-0.001997, 0.002873, 0.031244,-0.000900,1,-0.000268, 0.000867, 0.001259,1,-0.126034, 0.184556, 9.804103,1,1
1778108623712,   651.235,   651.235, 0.012730,-0.017114,-0.994727, 0.000025,-0.000034,-0.001989,-0.001189, 0.016749, 0.049162,1,-0.000356,-0.000674, 0.000610,1,-0.126022, 0.184578, 9.804103,1,1
1778108623722,   651.240,   651.239, 0.013326,-0.018857,-0.993850, 0.000027,-0.000038,-0.001988, 0.001745, 0.004679, 0.061619,1,-0.000370,-0.000037, 0.000612,1,-0.126008, 0.184585, 9.804103,1,1
1778108623733,   651.244,   651.243, 0.014012,-0.017085,-0.997832, 0.000028,-0.000034,-0.001996, 0.008046, 0.004863, 0.034440,1,-0.001971,-0.000018, 0.000179,1,-0.126009, 0.184525, 9.804104,1,1
1778108623744,   651.249,   651.249, 0.014293,-0.014426,-0.998547, 0.000029,-0.000029,-0.001997, 0.014127, 0.042962, 0.011700,1,-0.000915, 0.000415,-0.000110,1,-0.126040, 0.184428, 9.804106,1,1
1778108623755,   651.253,   651.545, 0.012947,-0.014650,-0.996768, 0.000026,-0.000029,-0.001994, 0.000972, 0.040754, 0.029154,1, 0.000587,-0.001974, 0.000171,1,-0.125982, 0.184429, 9.804106,1,1
1778108623765,   651.550,   651.549, 0.011894,-0.020398,-0.995844, 0.000024,-0.000041,-0.001992,-0.012385,-0.013176, 0.041570,1, 0.000769,-0.000073,-0.000465,1,-0.125519, 0.184457, 9.804111,1,1
1778108623776,   651.554,   651.554, 0.012496,-0.019619,-0.995466, 0.000025,-0.000039,-0.001991,-0.002958,-0.007914, 0.041925,1, 0.000175, 0.000127,-0.000243,1,-0.125500, 0.184484, 9.804111,1,1
1778108623787,   651.559,   651.559, 0.011388,-0.018205,-0.994561, 0.000023,-0.000036,-0.001989,-0.013814, 0.005978, 0.050795,1, 0.000179,-0.000512,-0.000358,1,-0.125489, 0.184510, 9.804111,1,1
1778108623798,   651.564,   651.563, 0.012546,-0.019878,-0.994580, 0.000025,-0.000040,-0.001989,-0.000569,-0.004293, 0.055174,1, 0.001111,-0.000532,-0.000392,1,-0.125466, 0.184533, 9.804111,1,1
1778108623809,   651.568,   651.568, 0.012929,-0.020408,-0.996649, 0.000026,-0.000041,-0.001993, 0.001305,-0.015599, 0.030321,1,-0.000453, 0.000465,-0.000288,1,-0.125483, 0.184530, 9.804111,1,1
1778108623819,   651.573,   651.573, 0.012629,-0.019654,-0.996132, 0.000025,-0.000039,-0.001992,-0.001662,-0.008220, 0.035396,1,-0.000268, 0.000297,-0.000592,1,-0.125509, 0.184522, 9.804111,1,1
1778108623830,   651.578,   651.577, 0.012334,-0.019419,-0.995667, 0.000025,-0.000039,-0.001991, 0.003884,-0.000193, 0.040135,1, 0.000414, 0.000313, 0.000058,1,-0.125514, 0.184522, 9.804111,1,1
1778108623841,   651.582,   651.582, 0.011946,-0.020258,-0.994796, 0.000024,-0.000041,-0.001989,-0.008351,-0.014097, 0.048489,1, 0.000334, 0.000325,-0.000289,1,-0.125503, 0.184569, 9.804110,1,1
1778108623852,   651.587,   651.587, 0.012648,-0.021167,-0.997373, 0.000025,-0.000043,-0.001995,-0.001479,-0.023036, 0.023221,1,-0.000619,-0.000591, 0.000156,1,-0.125507, 0.184538, 9.804111,1,1
1778108623862,   651.592,   651.591, 0.012828,-0.017825,-0.996163, 0.000025,-0.000035,-0.001992, 0.000768, 0.001329, 0.031690,1,-0.000904,-0.000221,-0.000508,1,-0.125500, 0.184510, 9.804111,1,1
1778108623873,   651.597,   651.596, 0.013272,-0.018654,-0.994765, 0.000026,-0.000037,-0.001989, 0.004689, 0.001603, 0.048799,1,-0.000315,-0.001505,-0.000475,1,-0.125458, 0.184530, 9.804111,1,1
1778108623884,   651.601,   651.601, 0.013214,-0.020739,-0.995422, 0.000026,-0.000042,-0.001991, 0.004121,-0.018827, 0.042357,1, 0.001006, 0.000489, 0.000321,1,-0.125465, 0.184560, 9.804111,1,1
1778108623895,   651.606,   651.605, 0.013563,-0.018941,-0.997147, 0.000027,-0.000038,-0.001994, 0.009623,-0.008646, 0.037421,1,-0.001078, 0.000521,-0.000692,1,-0.125471, 0.184542, 9.804111,1,1
1778108623905,   651.611,   651.610, 0.013238,-0.017177,-0.995964, 0.000026,-0.000034,-0.001992, 0.004309, 0.016043, 0.037044,1, 0.000553, 0.000166, 0.000310,1,-0.125509, 0.184493, 9.804111,1,1
1778108623916,   651.615,   651.615, 0.013206,-0.018064,-0.994277, 0.000026,-0.000036,-0.001988, 0.004070, 0.007475, 0.053578,1, 0.001047,-0.001238,-0.000182,1,-0.125425, 0.184633, 9.804110,1,1
1778108623927,   651.620,   651.619, 0.012975,-0.018975,-0.995954, 0.000026,-0.000038,-0.001992, 0.002513, 0.003557, 0.047553,1, 0.001155,-0.001081, 0.000211,1,-0.125403, 0.184660, 9.804110,1,1
1778108623938,   651.625,   651.624, 0.013420,-0.017933,-0.996596, 0.000027,-0.000036,-0.001993, 0.006221, 0.008761, 0.030842,1,-0.001842,-0.000264,-0.000887,1,-0.125378, 0.184609, 9.804111,1,1
1778108623948,   651.629,   651.629, 0.012111,-0.017719,-0.995332, 0.000024,-0.000035,-0.001991,-0.006628, 0.010821, 0.043242,1,-0.000170, 0.000265, 0.000161,1,-0.125399, 0.184580, 9.804111,1,1
1778108623959,   651.634,   651.633, 0.012396,-0.019803,-0.995665, 0.000025,-0.000040,-0.001991,-0.003502,-0.005963, 0.046131,1, 0.001752, 0.000034, 0.001208,1,-0.125391, 0.184661, 9.804110,1,1
1778108623970,   651.639,   651.638, 0.012593,-0.020290,-0.996637, 0.000025,-0.000041,-0.001993,-0.001875,-0.014344, 0.030441,1,-0.000539, 0.000048, 0.000193,1,-0.125373, 0.184632, 9.804111,1,1
1778108623981,   651.643,   651.643, 0.012500,-0.017994,-0.997676, 0.000025,-0.000036,-0.001995,-0.002816, 0.008101, 0.020253,1,-0.001707,-0.000357, 0.000215,1,-0.125394, 0.184549, 9.804111,1,1
1778108623992,   651.648,   651.647, 0.012021,-0.018217,-0.994109, 0.000024,-0.000036,-0.001988,-0.001192, 0.014036, 0.046641,1, 0.002168,-0.000693, 0.000429,1,-0.125361, 0.184584, 9.804111,1,1
1778108624002,   651.653,   651.652, 0.011976,-0.019835,-0.994589, 0.000024,-0.000040,-0.001989,-0.007928,-0.009867, 0.050525,1, 0.000742,-0.000238,-0.000392,1,-0.125366, 0.184648, 9.804110,1,1
1778108624013,   651.657,   651.657, 0.012878,-0.019707,-0.996686, 0.000026,-0.000039,-0.001993, 0.000912,-0.008605, 0.029957,1,-0.000684, 0.000553,-0.000026,1,-0.125383, 0.184650, 9.804110,1,1
1778108624024,   651.662,   651.661, 0.012368,-0.016512,-0.996190, 0.000025,-0.000033,-0.001992,-0.002328, 0.013565, 0.026789,1,-0.000843, 0.001119, 0.000198,1,-0.125402, 0.184602, 9.804111,1,1
1778108624035,   651.667,   651.667, 0.011556,-0.018525,-0.994264, 0.000023,-0.000037,-0.001988,-0.012021, 0.002961, 0.053708,1, 0.000039,-0.001106, 0.000081,1,-0.125340, 0.184626, 9.804111,1,1
1778108624045,   651.671,   651.671, 0.012024,-0.019857,-0.994729, 0.000024,-0.000040,-0.001989,-0.007436,-0.010062, 0.049155,1, 0.000689, 0.000364,-0.000606,1,-0.125355, 0.184677, 9.804110,1,1
1778108624056,   651.676,   651.675, 0.011798,-0.017160,-0.996254, 0.000024,-0.000034,-0.001993,-0.003321, 0.007272, 0.035908,1,-0.001724,-0.000204, 0.000488,1,-0.125353, 0.184622, 9.804111,1,1
1778108624067,   651.681,   651.681, 0.012516,-0.017696,-0.995933, 0.000025,-0.000035,-0.001992,-0.002580, 0.011095, 0.037346,1, 0.000673, 0.000025,-0.000218,1,-0.125319, 0.184639, 9.804111,1,1
1778108624078,   651.686,   651.685, 0.011017,-0.019592,-0.994708, 0.000022,-0.000039,-0.001989,-0.012633, 0.001398, 0.044729,1, 0.001045, 0.000300, 0.000430,1,-0.125325, 0.184677, 9.804110,1,1
1778108624088,   651.690,   651.689, 0.013558,-0.020633,-0.995497, 0.000027,-0.000042,-0.001991,-0.003152,-0.009722, 0.043518,1, 0.000494, 0.001109, 0.000133,1,-0.125354, 0.184719, 9.804109,1,1
1778108624099,   651.695,   651.695, 0.012695,-0.018469,-0.997049, 0.000025,-0.000037,-0.001994,-0.000866, 0.003559, 0.026396,1,-0.000511, 0.000186, 0.000281,1,-0.125366, 0.184677, 9.804110,1,1
1778108624110,   651.700,   651.699, 0.012875,-0.017862,-0.996714, 0.000026,-0.000036,-0.001994, 0.002734, 0.011666, 0.034746,1, 0.000831, 0.000238,-0.000404,1,-0.125379, 0.184703, 9.804109,1,1
1778108624121,   651.704,   651.703, 0.012781,-0.019249,-0.995203, 0.000026,-0.000039,-0.001990,-0.000724, 0.001287, 0.038671,1, 0.000290, 0.000623, 0.000133,1,-0.125402, 0.184725, 9.804108,1,1
1778108624131,   651.709,   651.709, 0.013043,-0.019048,-0.995453, 0.000026,-0.000038,-0.001991, 0.002519,-0.002133, 0.042051,1,-0.002604,-0.000080,-0.000511,1,-0.125385, 0.184650, 9.804110,1,1
1778108624142,   651.714,   651.713, 0.013427,-0.018054,-0.995692, 0.000027,-0.000036,-0.001992, 0.004876, 0.006316, 0.044294,1,-0.000390, 0.000538, 0.000023,1,-0.125385, 0.184619, 9.804111,1,1
1778108624153,   651.779,   651.779, 0.012669,-0.018814,-0.995255, 0.000025,-0.000038,-0.001990,-0.001134, 0.000036, 0.043997,1,-0.000218,-0.001176, 0.000551,1,-0.125371, 0.184540, 9.804111,1,1
1778108624164,   651.784,   651.783, 0.012071,-0.017361,-0.994360, 0.000024,-0.000035,-0.001989,-0.000572, 0.012575, 0.047613,1, 0.000696,-0.000582,-0.000254,1,-0.125346, 0.184573, 9.804111,1,1
1778108624174,   651.788,   651.788, 0.011873,-0.019688,-0.995339, 0.000024,-0.000040,-0.001991,-0.008901,-0.008467, 0.043165,1, 0.000455,-0.000837,-0.000867,1,-0.125334, 0.184608, 9.804111,1,1
1778108624185,   651.793,   651.793, 0.012756,-0.019195,-0.997236, 0.000026,-0.000038,-0.001995,-0.000217,-0.003658, 0.024568,1,-0.001307,-0.000983, 0.000686,1,-0.125308, 0.184577, 9.804112,1,1
1778108624196,   651.798,   651.797, 0.012801,-0.017949,-0.995666, 0.000026,-0.000036,-0.001991, 0.000013, 0.010369, 0.024335,1,-0.000280,-0.000609,-0.000849,1,-0.125264, 0.184548, 9.804113,1,1
1778108624207,   651.802,   651.802, 0.012092,-0.018106,-0.995176, 0.000024,-0.000036,-0.001991,-0.006639, 0.007004, 0.044766,1, 0.000518,-0.000238, 0.000051,1,-0.125221, 0.184570, 9.804113,1,1
1778108624218,   651.807,   651.807, 0.012477,-0.018846,-0.994018, 0.000025,-0.000038,-0.001988,-0.002837,-0.000230, 0.056122,1, 0.000006,-0.001448, 0.000354,1,-0.125188, 0.184582, 9.804113,1,1
1778108624228,   651.812,   651.811, 0.011662,-0.017188,-0.996932, 0.000023,-0.000034,-0.001994,-0.000662,-0.000692, 0.035057,1,-0.001104, 0.000065, 0.000363,1,-0.125174, 0.184550, 9.804114,1,1
1778108624239,   651.816,   651.816, 0.013214,-0.016862,-0.995870, 0.000027,-0.000034,-0.001992, 0.004423, 0.019154, 0.037968,1, 0.001495, 0.000318, 0.000330,1,-0.125159, 0.184522, 9.804115,1,1
1778108624250,   651.821,   651.821, 0.012959,-0.017810,-0.994466, 0.000026,-0.000036,-0.001989, 0.001937, 0.009956, 0.051733,1, 0.002322,-0.000683, 0.000845,1,-0.125140, 0.184624, 9.804113,1,1
1778108624261,   651.826,   651.825, 0.012710,-0.019213,-0.997080, 0.000025,-0.000039,-0.001994, 0.011512, 0.002001, 0.037935,1,-0.001278, 0.000136,-0.000616,1,-0.125149, 0.184588, 9.804114,1,1
1778108624271,   651.830,   651.830, 0.013906,-0.018455,-0.998315, 0.000028,-0.000037,-0.001997, 0.011205, 0.003542, 0.013990,1,-0.001168,-0.000200, 0.000326,1,-0.125161, 0.184517, 9.804115,1,1
1778108624282,   651.835,   651.835, 0.012915,-0.017349,-0.995073, 0.000026,-0.000035,-0.001990, 0.001522, 0.014372, 0.045787,1, 0.000167,-0.001588,-0.000017,1,-0.125119, 0.184504, 9.804116,1,1
1778108624293,   651.840,   651.839, 0.012455,-0.020814,-0.995429, 0.000025,-0.000042,-0.001991,-0.001927,-0.010240, 0.057446,1, 0.002096, 0.000683,-0.000292,1,-0.125111, 0.184584, 9.804114,1,1
1778108624304,   651.845,   651.843, 0.013056,-0.021784,-0.996786, 0.000026,-0.000044,-0.001993,-0.002026,-0.031594, 0.039211,1,-0.000473,-0.000413,-0.000211,1,-0.125083, 0.184602, 9.804114,1,1
1778108624314,   651.849,   651.849, 0.012628,-0.017841,-0.998065, 0.000025,-0.000035,-0.001996,-0.001300, 0.009557, 0.016437,1,-0.001566, 0.000271,-0.000280,1,-0.125137, 0.184506, 9.804115,1,1
1778108624325,   651.854,   651.853, 0.012961,-0.020051,-0.994668, 0.000026,-0.000040,-0.001989,-0.002915,-0.000429, 0.041569,1, 0.001524,-0.001769,-0.001038,1,-0.125078, 0.184528, 9.804116,1,1
1778108624336,   651.859,   651.858, 0.011355,-0.022285,-0.994312, 0.000022,-0.000045,-0.001989,-0.013687,-0.033930, 0.053250,1, 0.000157, 0.000002, 0.000198,1,-0.125038, 0.184613, 9.804115,1,1
1778108624347,   651.863,   651.863, 0.011248,-0.020911,-0.995657, 0.000022,-0.000042,-0.001991,-0.014730,-0.020503, 0.040052,1,-0.001509, 0.000072,-0.000058,1,-0.125038, 0.184555, 9.804116,1,1
1778108624357,   651.868,   651.867, 0.011627,-0.020690,-0.997554, 0.000023,-0.000041,-0.001995,-0.010864,-0.014485, 0.022935,1,-0.001822,-0.000127, 0.000153,1,-0.125020, 0.184479, 9.804117,1,1
1778108624368,   651.873,   651.872, 0.012661,-0.019631,-0.996905, 0.000025,-0.000039,-0.001994,-0.000836,-0.008055, 0.027815,1, 0.000374,-0.001085,-0.000127,1,-0.124994, 0.184465, 9.804118,1,1
1778108624379,   652.168,   651.875, 0.012829,-0.018435,-0.994503, 0.000026,-0.000037,-0.001989,-0.015440,-0.007115, 0.046519,1,-0.000042,-0.001271, 0.000248,1,-0.124969, 0.184465, 9.804118,1,1
1778108624390,   652.173,   652.173, 0.013381,-0.018750,-0.995083, 0.000027,-0.000038,-0.001990, 0.005943, 0.000123, 0.045697,1,-0.000116,-0.001031,-0.000462,1,-0.125276, 0.183993, 9.804124,1,1
1778108624401,   652.178,   652.177, 0.013502,-0.016024,-0.996410, 0.000027,-0.000032,-0.001993,-0.001299, 0.022375, 0.032329,1,-0.001185,-0.000322, 0.000410,1,-0.125257, 0.183940, 9.804125,1,1
1778108624411,   652.182,   652.181, 0.012864,-0.016297,-0.994835, 0.000026,-0.000033,-0.001989, 0.005104, 0.031180, 0.037360,1,-0.000197,-0.000952, 0.000542,1,-0.125245, 0.183942, 9.804125,1,1
1778108624422,   652.187,   652.187, 0.012715,-0.018037,-0.996157, 0.000025,-0.000036,-0.001992,-0.000547, 0.007091, 0.035164,1, 0.000328,-0.000481,-0.000193,1,-0.125239, 0.183972, 9.804124,1,1
1778108624433,   652.192,   652.191, 0.013336,-0.017604,-0.996269, 0.000027,-0.000035,-0.001993, 0.001263, 0.009229, 0.037207,1, 0.000556,-0.000212, 0.000472,1,-0.125212, 0.184004, 9.804124,1,1
1778108624444,   652.196,   652.195, 0.013405,-0.016037,-0.994576, 0.000027,-0.000032,-0.001989, 0.007733, 0.022358, 0.045844,1,-0.000207,-0.000828, 0.000605,1,-0.125172, 0.183999, 9.804125,1,1
1778108624454,   652.201,   652.201, 0.013531,-0.017535,-0.994475, 0.000027,-0.000035,-0.001989, 0.007490, 0.012079, 0.051658,1, 0.001506, 0.000628,-0.000920,1,-0.125207, 0.184050, 9.804123,1,1
1778108624465,   652.206,   652.205, 0.013132,-0.019774,-0.997401, 0.000026,-0.000040,-0.001995, 0.000871,-0.007579, 0.032440,1,-0.000208, 0.001124,-0.000155,1,-0.125243, 0.184049, 9.804123,1,1
1778108624476,   652.210,   652.209, 0.013262,-0.016951,-0.997275, 0.000027,-0.000034,-0.001995,-0.001816, 0.004272, 0.019981,1,-0.000845, 0.000798, 0.000045,1,-0.125280, 0.184018, 9.804123,1,1
1778108624487,   652.215,   652.215, 0.012170,-0.017727,-0.994271, 0.000024,-0.000036,-0.001988,-0.005924, 0.010170, 0.053655,1,-0.000084, 0.000172, 0.000094,1,-0.125276, 0.184015, 9.804123,1,1
1778108624497,   652.220,   652.219, 0.012273,-0.020199,-0.994629, 0.000024,-0.000041,-0.001989,-0.002602,-0.000926, 0.057605,1, 0.000271, 0.000002,-0.000892,1,-0.125271, 0.184008, 9.804123,1,1
1778108624508,   652.224,   652.223, 0.012149,-0.020413,-0.997550, 0.000024,-0.000041,-0.001996,-0.003893,-0.015624, 0.034831,1,-0.001285,-0.000019, 0.000259,1,-0.125256, 0.183995, 9.804124,1,1
1778108624519,   652.229,   652.229, 0.013254,-0.018366,-0.997834, 0.000027,-0.000037,-0.001996, 0.004740, 0.003815, 0.018719,1,-0.001084,-0.001296,-0.000559,1,-0.125232, 0.183912, 9.804126,1,1
1778108624530,   652.234,   652.233, 0.012028,-0.020421,-0.996522, 0.000024,-0.000041,-0.001993,-0.007060,-0.004984, 0.028637,1, 0.000418, 0.000140,-0.001080,1,-0.125205, 0.183927, 9.804126,1,1
1778108624540,   652.238,   652.238, 0.011390,-0.021463,-0.994686, 0.000023,-0.000043,-0.001989,-0.013508,-0.026511, 0.049581,1, 0.000027, 0.000881,-0.000338,1,-0.125213, 0.183970, 9.804125,1,1
1778108624551,   652.243,   652.243, 0.012062,-0.020858,-0.996451, 0.000024,-0.000042,-0.001993,-0.006948,-0.020621, 0.032283,1,-0.001194, 0.000599,-0.000695,1,-0.125239, 0.183916, 9.804126,1,1
1778108624562,   652.248,   652.247, 0.011514,-0.018949,-0.994787, 0.000023,-0.000038,-0.001989,-0.004670, 0.001060, 0.041426,1,-0.000386,-0.000429,-0.000071,1,-0.125212, 0.183908, 9.804126,1,1
1778108624573,   652.252,   652.252, 0.012172,-0.020445,-0.995062, 0.000024,-0.000041,-0.001990,-0.005840,-0.016605, 0.045899,1,-0.000315, 0.000364, 0.000691,1,-0.125211, 0.183886, 9.804127,1,1
1778108624583,   652.257,   652.257, 0.011815,-0.020865,-0.995829, 0.000024,-0.000042,-0.001992,-0.009333,-0.020694, 0.038384,1, 0.001237,-0.000213,-0.000318,1,-0.125200, 0.183932, 9.804126,1,1
1778108624594,   652.262,   652.261, 0.012600,-0.018018,-0.996227, 0.000025,-0.000036,-0.001993,-0.002138, 0.001404, 0.039792,1,-0.001044,-0.000937,-0.000089,1,-0.125177, 0.183894, 9.804127,1,1
1778108624605,   652.266,   652.266, 0.012116,-0.018673,-0.996004, 0.000024,-0.000037,-0.001992,-0.006372, 0.000798, 0.036663,1, 0.000289,-0.000307,-0.000413,1,-0.125187, 0.183919, 9.804126,1,1
1778108624616,   652.271,   652.271, 0.012945,-0.019613,-0.994653, 0.000026,-0.000039,-0.001989, 0.001751,-0.008410, 0.049915,1,-0.000309, 0.000819, 0.000943,1,-0.125200, 0.183922, 9.804126,1,1
1778108624627,   652.276,   652.275, 0.012919,-0.019627,-0.996817, 0.000026,-0.000039,-0.001994,-0.004423,-0.006368, 0.035761,1,-0.000198,-0.001024, 0.000415,1,-0.125174, 0.183938, 9.804126,1,1
1778108624637,   652.280,   652.280, 0.013241,-0.017815,-0.996048, 0.000027,-0.000035,-0.001992, 0.004685, 0.009219, 0.036229,1,-0.000859,-0.000437,-0.000270,1,-0.125162, 0.183921, 9.804127,1,1
1778108624648,   652.285,   652.285, 0.013125,-0.017590,-0.995125, 0.000026,-0.000035,-0.001990, 0.003562, 0.011404, 0.045284,1,-0.000052, 0.000211, 0.000601,1,-0.125154, 0.183907, 9.804127,1,1
1778108624659,   652.290,   652.289, 0.012796,-0.019103,-0.995502, 0.000026,-0.000038,-0.001991,-0.007667, 0.000590, 0.041530,1, 0.000847,-0.000410, 0.000223,1,-0.125142, 0.183937, 9.804126,1,1
1778108624670,   652.294,   652.294, 0.012974,-0.018083,-0.996785, 0.000026,-0.000036,-0.001994, 0.002109, 0.006603, 0.029007,1,-0.000718,-0.000465, 0.000201,1,-0.125123, 0.183928, 9.804127,1,1
1778108624680,   652.299,   652.299, 0.012585,-0.016770,-0.996149, 0.000025,-0.000033,-0.001992,-0.001709, 0.019463, 0.035244,1, 0.000713, 0.000793,-0.000138,1,-0.125127, 0.183925, 9.804127,1,1
1778108624691,   652.304,   652.303, 0.013723,-0.018027,-0.994995, 0.000028,-0.000036,-0.001990, 0.007057, 0.010845, 0.044052,1, 0.001674,-0.000634,-0.000263,1,-0.125086, 0.183963, 9.804127,1,1
1778108624702,   652.309,   652.308, 0.012876,-0.019087,-0.995686, 0.000026,-0.000038,-0.001991, 0.001210,-0.003155, 0.039782,1,-0.000144,-0.000500, 0.000230,1,-0.125062, 0.184022, 9.804126,1,1
1778108624713,   652.313,   652.313, 0.013490,-0.018148,-0.996118, 0.000027,-0.000036,-0.001992, 0.007238, 0.005995, 0.035550,1,-0.002176,-0.000995,-0.000911,1,-0.125045, 0.183951, 9.804127,1,1
1778108624723,   652.318,   652.317, 0.011995,-0.016684,-0.996133, 0.000024,-0.000034,-0.001992, 0.006013, 0.019885, 0.035618,1, 0.000350,-0.000956, 0.000334,1,-0.125007, 0.183930, 9.804128,1,1
1778108624734,   652.323,   652.322, 0.012989,-0.019321,-0.994667, 0.000026,-0.000039,-0.001989, 0.002389,-0.005454, 0.049775,1, 0.001712, 0.000493,-0.000135,1,-0.124997, 0.184032, 9.804127,1,1
1778108624745,   652.327,   652.327, 0.012315,-0.019313,-0.995920, 0.000025,-0.000039,-0.001992,-0.004251,-0.005350, 0.037487,1,-0.000639, 0.000121,-0.000335,1,-0.125021, 0.184040, 9.804126,1,1
1778108624756,   652.332,   652.331, 0.012329,-0.017688,-0.996897, 0.000025,-0.000035,-0.001994, 0.002323, 0.007597, 0.034302,1,-0.000548, 0.000023,-0.000235,1,-0.125001, 0.184014, 9.804127,1,1
1778108624766,   652.337,   652.336, 0.012865,-0.018609,-0.996257, 0.000026,-0.000037,-0.001993, 0.001139, 0.001522, 0.034185,1, 0.001884, 0.000641,-0.001031,1,-0.125026, 0.184026, 9.804126,1,1
1778108624777,   652.403,   652.403, 0.013332,-0.018193,-0.995200, 0.000027,-0.000036,-0.001990, 0.005883, 0.005508, 0.044556,1,-0.000088,-0.000475, 0.000259,1,-0.124858, 0.183920, 9.804131,1,1
1778108624788,   652.408,   652.407, 0.012905,-0.019523,-0.994991, 0.000026,-0.000039,-0.001990, 0.000472, 0.000484, 0.047100,1, 0.000623, 0.000776, 0.000598,1,-0.124899, 0.183923, 9.804130,1,1
1778108624799,   652.412,   652.411, 0.013063,-0.019921,-0.995789, 0.000026,-0.000040,-0.001992,-0.001052,-0.011764, 0.042803,1, 0.000589, 0.000867, 0.000617,1,-0.124927, 0.183960, 9.804129,1,1
1778108624810,   652.417,   652.417, 0.013332,-0.017753,-0.996678, 0.000027,-0.000035,-0.001994, 0.005780, 0.009877, 0.030057,1,-0.000509, 0.001417,-0.000662,1,-0.124966, 0.183976, 9.804128,1,1
1778108624820,   652.422,   652.421, 0.013792,-0.017245,-0.997073, 0.000028,-0.000034,-0.001994, 0.008706, 0.018684, 0.034074,1,-0.000180,-0.000074,-0.000032,1,-0.124986, 0.183969, 9.804128,1,1
1778108624831,   652.426,   652.425, 0.012814,-0.018054,-0.995012, 0.000025,-0.000036,-0.001990, 0.003037, 0.012946, 0.033107,1, 0.000574, 0.000185,-0.000109,1,-0.124980, 0.183973, 9.804128,1,1
1778108624842,   652.431,   652.431, 0.012903,-0.017937,-0.994658, 0.000026,-0.000036,-0.001989, 0.001573, 0.008057, 0.049860,1,-0.000928,-0.000133, 0.000275,1,-0.124964, 0.183956, 9.804128,1,1
1778108624853,   652.436,   652.435, 0.013186,-0.016695,-0.995989, 0.000026,-0.000033,-0.001992,-0.000555, 0.012565, 0.034090,1,-0.000652, 0.000148, 0.001082,1,-0.124979, 0.183928, 9.804129,1,1
1778108624863,   652.440,   652.439, 0.013810,-0.017319,-0.995036, 0.000028,-0.000035,-0.001990, 0.009329, 0.017957, 0.048395,1, 0.000271,-0.000037, 0.000192,1,-0.124987, 0.183933, 9.804129,1,1
1778108624874,   652.445,   652.445, 0.013166,-0.018256,-0.996874, 0.000026,-0.000037,-0.001994, 0.004125, 0.004924, 0.028131,1,-0.000125, 0.000150,-0.000505,1,-0.124991, 0.183953, 9.804128,1,1
1778108624885,   652.450,   652.449, 0.013453,-0.017740,-0.996646, 0.000027,-0.000036,-0.001994,-0.000836, 0.002463, 0.039382,1,-0.000283, 0.001119,-0.000040,1,-0.125031, 0.183939, 9.804128,1,1
1778108624896,   652.454,   652.453, 0.012443,-0.016404,-0.994550, 0.000025,-0.000033,-0.001989, 0.005254, 0.020886, 0.041226,1,-0.000613, 0.000145,-0.000443,1,-0.125019, 0.183912, 9.804129,1,1
1778108624906,   652.459,   652.459, 0.012943,-0.017966,-0.993973, 0.000026,-0.000036,-0.001988, 0.001882, 0.007732, 0.056584,1,-0.000508, 0.000947,-0.000349,1,-0.125047, 0.183916, 9.804128,1,1
1778108624917,   652.464,   652.463, 0.012875,-0.018764,-0.996310, 0.000026,-0.000037,-0.001993,-0.005642,-0.002460, 0.044462,1,-0.000805, 0.000389, 0.000377,1,-0.125062, 0.183901, 9.804128,1,1
1778108624928,   652.468,   652.468, 0.012144,-0.017980,-0.996037, 0.000024,-0.000036,-0.001992,-0.005990, 0.007572, 0.036340,1,-0.000616,-0.000379,-0.000479,1,-0.125076, 0.183896, 9.804128,1,1
1778108624939,   652.473,   652.473, 0.012239,-0.017166,-0.995056, 0.000024,-0.000034,-0.001990,-0.005051, 0.015554, 0.045957,1, 0.000135, 0.000906,-0.001195,1,-0.125081, 0.183894, 9.804128,1,1
1778108624949,   652.478,   652.477, 0.011490,-0.019941,-0.994906, 0.000023,-0.000040,-0.001990,-0.001752,-0.008179, 0.048557,1, 0.001627, 0.000151,-0.000588,1,-0.125108, 0.183968, 9.804126,1,1
1778108624960,   652.482,   652.482, 0.012392,-0.020361,-0.995731, 0.000025,-0.000041,-0.001992,-0.003604,-0.015726, 0.039341,1,-0.000710,-0.000355,-0.000314,1,-0.125128, 0.183943, 9.804127,1,1
1778108624971,   652.487,   652.487, 0.012031,-0.019672,-0.996630, 0.000024,-0.000040,-0.001993,-0.007119,-0.009020, 0.030522,1,-0.001068,-0.000782,-0.000634,1,-0.125103, 0.183891, 9.804128,1,1
1778108624982,   652.492,   652.491, 0.011723,-0.020018,-0.995038, 0.000024,-0.000040,-0.001990,-0.008500, 0.001966, 0.045635,1, 0.001098,-0.000041,-0.000171,1,-0.125106, 0.183915, 9.804127,1,1
1778108624993,   652.496,   652.496, 0.012252,-0.021751,-0.996084, 0.000025,-0.000044,-0.001992,-0.005010,-0.029376, 0.035878,1,-0.000622, 0.000974, 0.000919,1,-0.125167, 0.183926, 9.804126,1,1
1778108625003,   652.791,   652.791, 0.012792,-0.019231,-0.997295, 0.000025,-0.000039,-0.001995, 0.000336,-0.005180, 0.024009,1,-0.000624, 0.000370,-0.000377,1,-0.125116, 0.183407, 9.804136,1,1
1778108625014,   652.796,   652.795, 0.012749,-0.017047,-0.995013, 0.000025,-0.000034,-0.001990, 0.000473, 0.007832, 0.033503,1,-0.000719, 0.000357, 0.000287,1,-0.125131, 0.183372, 9.804137,1,1
1778108625025,   652.800,   652.800, 0.011891,-0.017858,-0.993388, 0.000024,-0.000036,-0.001987,-0.008545, 0.008290, 0.062324,1, 0.001052, 0.001108,-0.000360,1,-0.125160, 0.183428, 9.804135,1,1
1778108625036,   652.805,   652.805, 0.013046,-0.018783,-0.993094, 0.000026,-0.000038,-0.001986, 0.002790,-0.000764, 0.065209,1,-0.000582,-0.000141,-0.000601,1,-0.125152, 0.183432, 9.804135,1,1
1778108625046,   652.810,   652.809, 0.013232,-0.017469,-0.997697, 0.000027,-0.000035,-0.001995, 0.011721, 0.008245, 0.028700,1, 0.000070, 0.000758,-0.000538,1,-0.125188, 0.183430, 9.804135,1,1
1778108625057,   652.814,   652.814, 0.013505,-0.017518,-0.997811, 0.000027,-0.000035,-0.001996, 0.007284, 0.011694, 0.018947,1, 0.000232,-0.000925,-0.000652,1,-0.125143, 0.183495, 9.804134,1,1
1778108625068,   652.819,   652.819, 0.014241,-0.019262,-0.996258, 0.000028,-0.000039,-0.001992, 0.014572,-0.005350, 0.034181,1, 0.000973,-0.002188, 0.000033,1,-0.125072, 0.183553, 9.804134,1,1
1778108625079,   652.824,   652.823, 0.011931,-0.020780,-0.995745, 0.000024,-0.000042,-0.001991,-0.003682,-0.022915, 0.042495,1, 0.000375,-0.000266,-0.000334,1,-0.125052, 0.183570, 9.804134,1,1
1778108625089,   652.828,   652.828, 0.013686,-0.020615,-0.996888, 0.000028,-0.000041,-0.001994, 0.009185,-0.018643, 0.028007,1,-0.000796,-0.000548,-0.000213,1,-0.125030, 0.183520, 9.804135,1,1
1778108625100,   652.833,   652.833, 0.012447,-0.019605,-0.994781, 0.000025,-0.000039,-0.001989,-0.002949,-0.008735, 0.048665,1, 0.000757,-0.000153,-0.000094,1,-0.125007, 0.183527, 9.804135,1,1
1778108625111,   652.838,   652.837, 0.013023,-0.020539,-0.993520, 0.000026,-0.000041,-0.001987, 0.007800,-0.010592, 0.056545,1, 0.000437, 0.000267, 0.000115,1,-0.125025, 0.183550, 9.804135,1,1
1778108625122,   652.843,   652.842, 0.013029,-0.019853,-0.995873, 0.000026,-0.000040,-0.001992, 0.002759,-0.011152, 0.037959,1,-0.000499, 0.000298,-0.000316,1,-0.125014, 0.183540, 9.804135,1,1
1778108625132,   652.847,   652.847, 0.012441,-0.017871,-0.995201, 0.000025,-0.000036,-0.001990,-0.002998, 0.008250, 0.044546,1,-0.000347,-0.000244, 0.000281,1,-0.125006, 0.183499, 9.804136,1,1
1778108625143,   652.852,   652.851, 0.013010,-0.018704,-0.995092, 0.000026,-0.000038,-0.001990, 0.006966, 0.006545, 0.041031,1,-0.000160, 0.000355,-0.001272,1,-0.125004, 0.183500, 9.804136,1,1
1778108625154,   652.857,   652.856, 0.013200,-0.019610,-0.995044, 0.000026,-0.000039,-0.001990, 0.004447,-0.008806, 0.046091,1,-0.000230, 0.000051,-0.000473,1,-0.125005, 0.183501, 9.804136,1,1
1778108625165,   652.861,   652.861, 0.013238,-0.019529,-0.996609, 0.000026,-0.000039,-0.001993, 0.004785,-0.008019, 0.030735,1, 0.000185, 0.000450,-0.000041,1,-0.125042, 0.183493, 9.804136,1,1
1778108625175,   652.866,   652.865, 0.013016,-0.017492,-0.996178, 0.000026,-0.000035,-0.001992, 0.004883, 0.002028, 0.017568,1,-0.000910, 0.000187,-0.000173,1,-0.125052, 0.183450, 9.804136,1,1
1778108625186,   652.871,   652.870, 0.011473,-0.018309,-0.992466, 0.000023,-0.000036,-0.001985,-0.012561, 0.003914, 0.071370,1, 0.002605,-0.000153,-0.000560,1,-0.125071, 0.183480, 9.804135,1,1
1778108625197,   652.875,   652.875, 0.011991,-0.020696,-0.994025, 0.000024,-0.000042,-0.001988,-0.007527,-0.019473, 0.056080,1,-0.000204, 0.001541,-0.000410,1,-0.125127, 0.183487, 9.804134,1,1
1778108625208,   652.880,   652.879, 0.012334,-0.018674,-0.999371, 0.000024,-0.000037,-0.001999,-0.002410,-0.016549, 0.020399,1,-0.000411, 0.000660, 0.000150,1,-0.125171, 0.183478, 9.804134,1,1
1778108625219,   652.885,   652.884, 0.013099,-0.016577,-0.999913, 0.000026,-0.000033,-0.002000, 0.003287, 0.020927,-0.001664,1, 0.000292, 0.000047, 0.000927,1,-0.125175, 0.183489, 9.804134,1,1
1778108625229,   652.889,   652.889, 0.011403,-0.017602,-0.995180, 0.000023,-0.000035,-0.001990,-0.013332, 0.010902, 0.044749,1, 0.001058,-0.000487, 0.000267,1,-0.125155, 0.183524, 9.804133,1,1
1778108625240,   652.894,   652.893, 0.013037,-0.020873,-0.993360, 0.000026,-0.000042,-0.001987,-0.002034,-0.012143, 0.061066,1, 0.001111,-0.000972,-0.000461,1,-0.125124, 0.183593, 9.804132,1,1
1778108625251,   652.899,   652.898, 0.012313,-0.019081,-0.994959, 0.000024,-0.000038,-0.001990,-0.004379,-0.003576, 0.046914,1,-0.001944, 0.000491, 0.000772,1,-0.125135, 0.183529, 9.804134,1,1
1778108625262,   652.903,   652.903, 0.012087,-0.017890,-0.996615, 0.000024,-0.000036,-0.001993,-0.006584, 0.008035, 0.030677,1,-0.000829,-0.000879, 0.000071,1,-0.125116, 0.183475, 9.804135,1,1
1778108625272,   652.908,   652.907, 0.012619,-0.018585,-0.997184, 0.000025,-0.000037,-0.001995, 0.000245, 0.008411, 0.017735,1,-0.000488,-0.000056, 0.000451,1,-0.125097, 0.183462, 9.804135,1,1
