Time,GPS_ts,fGPS_ts,scaledAccelX,scaledAccelY,scaledAccelZ,deltaVelX,deltaVelY,deltaVelZ,estLinearAccelX,estLinearAccelY,estLinearAccelZ,estLinearAccel:valid,estAngularRateX,estAngularRateY,estAngularRateZ,estAngularRate:valid,estGravityX,estGravityY,estGravityZ,estGravity:valid,flag
1778256575378,  1503.555,  1503.555, 0.045622, 0.003694,-0.995261, 0.000457, 0.000036,-0.009951,-0.001369, 0.002075, 0.036143,1,-0.002617, 0.000382, 0.000058,1,-0.448782,-0.034234, 9.796316,1,0
1778256575378,  1503.580,  1503.575, 0.046699, 0.004016,-0.995310, 0.000468, 0.000040,-0.009953, 0.011814, 0.001330, 0.041213,1,-0.002880, 0.000214, 0.000465,1,-0.448845,-0.034746, 9.796311,1,0
1778256575378,  1503.600,  1503.600, 0.046993, 0.003703,-0.995030, 0.000471, 0.000038,-0.009951, 0.011963, 0.001235, 0.038398,1,-0.001079, 0.000186, 0.000224,1,-0.448891,-0.035114, 9.796308,1,0
1778256575378,  1503.625,  1503.625, 0.046782, 0.005030,-0.995161, 0.000469, 0.000047,-0.009951, 0.009838, 0.014037, 0.037105,1,-0.001165, 0.000399, 0.000513,1,-0.448951,-0.035328, 9.796305,1,0
1778256575378,  1503.650,  1503.645, 0.046306, 0.004272,-0.994511, 0.000465, 0.000043,-0.009950, 0.005818, 0.008521, 0.035491,1,-0.000053,-0.001083, 0.000872,1,-0.448833,-0.035393, 9.796309,1,0
1778256575378,  1503.675,  1503.675, 0.045991, 0.004601,-0.995516, 0.000458, 0.000047,-0.009954, 0.002269, 0.009724, 0.033639,1, 0.000786,-0.000753, 0.000927,1,-0.448724,-0.035373, 9.796314,1,0
1778256575378,  1503.700,  1503.695, 0.044739, 0.004245,-0.995169, 0.000450, 0.000046,-0.009950,-0.000612, 0.010376, 0.036118,1, 0.002326,-0.000208, 0.000788,1,-0.448694,-0.035009, 9.796317,1,0
1778256575378,  1503.725,  1503.720, 0.044542, 0.004177,-0.995618, 0.000445, 0.000040,-0.009956,-0.012152, 0.006234, 0.032631,1, 0.003858, 0.000650, 0.000269,1,-0.449003,-0.034636, 9.796305,1,0
1778256575378,  1503.750,  1503.745, 0.044378, 0.004809,-0.995541, 0.000443, 0.000048,-0.009957,-0.011393, 0.016026, 0.034800,1, 0.005702,-0.000239, 0.000508,1,-0.448947,-0.033717, 9.796310,1,0
1778256575378,  1503.770,  1503.765, 0.044505, 0.003774,-0.994817, 0.000444, 0.000040,-0.009948,-0.018229, 0.013346, 0.032973,1, 0.006205,-0.000215,-0.000317,1,-0.448834,-0.032528, 9.796319,1,0
1778256575378,  1503.790,  1503.785, 0.044338, 0.002561,-0.994950, 0.000445, 0.000030,-0.009950,-0.015946, 0.004655, 0.042476,1, 0.006956, 0.000694, 0.000059,1,-0.448804,-0.031116, 9.796326,1,0
1778256575390,  1511.515,  1511.515, 0.045403,-0.004280,-0.995654, 0.000450,-0.000044,-0.009956, 0.001086,-0.000105, 0.032467,1, 0.000835, 0.000001,-0.000267,1,-0.444162, 0.041895, 9.796496,1,0
1778256575412,  1511.540,  1511.535, 0.045353,-0.003771,-0.994839, 0.000454,-0.000037,-0.009949,-0.000013, 0.001858, 0.033048,1, 0.000469,-0.000432,-0.000363,1,-0.443999, 0.041907, 9.796504,1,0
1778256575433,  1511.560,  1511.555, 0.045409,-0.003368,-0.995052, 0.000454,-0.000033,-0.009948, 0.001121, 0.000665, 0.040619,1, 0.001438,-0.000954,-0.000015,1,-0.443871, 0.042106, 9.796509,1,0
1778256575460,  1511.585,  1511.585, 0.045392,-0.003742,-0.994620, 0.000454,-0.000039,-0.009945, 0.001113, 0.005620, 0.042612,1, 0.000578, 0.000672, 0.000343,1,-0.444047, 0.042331, 9.796500,1,0
1778256575482,  1511.610,  1511.605, 0.045599,-0.003797,-0.995317, 0.000454,-0.000040,-0.009951, 0.002234, 0.003558, 0.031387,1, 0.001657,-0.000177, 0.000113,1,-0.444053, 0.042586, 9.796498,1,0
1778256575505,  1511.630,  1511.630, 0.045178,-0.003963,-0.994749, 0.000452,-0.000040,-0.009947,-0.000972, 0.004208, 0.041339,1, 0.002397,-0.000612, 0.000018,1,-0.443995, 0.043143, 9.796499,1,0
1778256575530,  1511.655,  1511.655, 0.045312,-0.004442,-0.995239, 0.000452,-0.000044,-0.009953, 0.000318,-0.000107, 0.036530,1, 0.002109, 0.000936, 0.000321,1,-0.444074, 0.043522, 9.796494,1,0
1778256575552,  1511.680,  1511.675, 0.045062,-0.004431,-0.994808, 0.000448,-0.000045,-0.009950,-0.004116, 0.002151, 0.041226,1, 0.002582,-0.000043,-0.000048,1,-0.444115, 0.043942, 9.796490,1,0
1778256575575,  1511.700,  1511.700, 0.044598,-0.003848,-0.994984, 0.000446,-0.000037,-0.009950,-0.006782, 0.006990, 0.039024,1, 0.002469,-0.000200, 0.000285,1,-0.444137, 0.044803, 9.796485,1,0
1778256575601,  1511.725,  1511.725, 0.045011,-0.003692,-0.994546, 0.000450,-0.000036,-0.009946,-0.002773, 0.008984, 0.043312,1, 0.003573, 0.000712,-0.000379,1,-0.444207, 0.045294, 9.796479,1,0
1778256575622,  1511.750,  1511.745, 0.045337,-0.004333,-0.995480, 0.000453,-0.000042,-0.009953,-0.000355, 0.004620, 0.033326,1, 0.004035,-0.000996, 0.000161,1,-0.444099, 0.046018, 9.796481,1,0
1778256575645,  1511.770,  1511.770, 0.044808,-0.004624,-0.994994, 0.000447,-0.000045,-0.009950,-0.004502, 0.001712, 0.038930,1, 0.004540,-0.000563,-0.000509,1,-0.443897, 0.047203, 9.796485,1,0
1778256575671,  1511.795,  1511.795, 0.044847,-0.004770,-0.994877, 0.000449,-0.000047,-0.009949,-0.004099, 0.001031, 0.040068,1, 0.004239,-0.000135, 0.000180,1,-0.443890, 0.047946, 9.796481,1,0
1778256575692,  1511.820,  1511.815, 0.045174,-0.005670,-0.995839, 0.000449,-0.000054,-0.009957,-0.000187,-0.002190, 0.035904,1, 0.004230,-0.000518, 0.000386,1,-0.443805, 0.048769, 9.796481,1,0
1778256575715,  1511.840,  1511.840, 0.044950,-0.005141,-0.994991, 0.000451,-0.000050,-0.009951,-0.002908,-0.000654, 0.038954,1, 0.003834,-0.000295,-0.000314,1,-0.443708, 0.049879, 9.796480,1,0
1778256575741,  1511.865,  1511.865, 0.045175,-0.005493,-0.995199, 0.000455,-0.000053,-0.009952,-0.000635,-0.003382, 0.036911,1, 0.003407,-0.000033, 0.000432,1,-0.443645, 0.050595, 9.796479,1,0
1778256575762,  1511.890,  1511.885, 0.044563,-0.005461,-0.995157, 0.000446,-0.000053,-0.009952,-0.006463,-0.003495, 0.038512,1, 0.003413, 0.000476,-0.000402,1,-0.443685, 0.051321, 9.796474,1,0
1778256575785,  1511.910,  1511.910, 0.044359,-0.005055,-0.995077, 0.000443,-0.000050,-0.009952,-0.008637, 0.002702, 0.038100,1, 0.003012,-0.000481, 0.000271,1,-0.443638, 0.052365, 9.796470,1,0
1778256575811,  1511.935,  1511.935, 0.044690,-0.005759,-0.994991, 0.000447,-0.000056,-0.009950,-0.005300,-0.003588, 0.038946,1, 0.003254, 0.000030, 0.000480,1,-0.443564, 0.052990, 9.796470,1,0
1778256575832,  1511.960,  1511.955, 0.044862,-0.005835,-0.995565, 0.000446,-0.000059,-0.009953,-0.006439,-0.001871, 0.036303,1, 0.003186, 0.000051,-0.000170,1,-0.443627, 0.053573, 9.796464,1,0
1778256575855,  1511.985,  1511.980, 0.044934,-0.006432,-0.995352, 0.000450,-0.000063,-0.009954,-0.002975,-0.008920, 0.035394,1, 0.001115,-0.000588, 0.000535,1,-0.443611, 0.054190, 9.796461,1,0
1778256575881,  1512.005,  1512.005, 0.045193,-0.005947,-0.994918, 0.000452,-0.000061,-0.009948,-0.000393,-0.003915, 0.039643,1, 0.001376,-0.000212, 0.000085,1,-0.443583, 0.054451, 9.796461,1,0
1778256575902,  1512.030,  1512.025, 0.045303,-0.005968,-0.995348, 0.000452,-0.000062,-0.009953, 0.000545,-0.003903, 0.037904,1,-0.000095,-0.000007, 0.000003,1,-0.443607, 0.054558, 9.796459,1,0
1778256575925,  1512.055,  1512.050, 0.045209,-0.006406,-0.995063, 0.000453,-0.000063,-0.009953,-0.000136,-0.008302, 0.038226,1,-0.000301,-0.000543,-0.000244,1,-0.443472, 0.054513, 9.796466,1,0
1778256575951,  1512.075,  1512.075, 0.045697,-0.005397,-0.994856, 0.000457,-0.000054,-0.009949, 0.004658, 0.001587, 0.040258,1,-0.000132,-0.000054,-0.000184,1,-0.443476, 0.054505, 9.796466,1,0
1778256575973,  1512.100,  1512.095, 0.045596,-0.005707,-0.995556, 0.000456,-0.000058,-0.009954, 0.007150,-0.004850, 0.039895,1,-0.001161, 0.000091, 0.000882,1,-0.443441, 0.054333, 9.796469,1,0
1778256575995,  1512.125,  1512.120, 0.044655,-0.005707,-0.995039, 0.000448,-0.000056,-0.009948,-0.005617,-0.001778, 0.038463,1,-0.001150,-0.000130, 0.000053,1,-0.443527, 0.054163, 9.796466,1,0
1778256576021,  1512.145,  1512.145, 0.044787,-0.005782,-0.995534, 0.000448,-0.000057,-0.009953,-0.004277,-0.002851, 0.033610,1,-0.002072,-0.000075,-0.000053,1,-0.443485, 0.053789, 9.796470,1,0
1778256576043,  1512.170,  1512.165, 0.044133,-0.005484,-0.995370, 0.000441,-0.000055,-0.009953,-0.009886,-0.001446, 0.036245,1,-0.001445,-0.000552, 0.000147,1,-0.443478, 0.053499, 9.796472,1,0
1778256576065,  1512.195,  1512.190, 0.044335,-0.005465,-0.995844, 0.000443,-0.000054,-0.009956,-0.008786,-0.000514, 0.030580,1,-0.001902, 0.000706,-0.000186,1,-0.443584, 0.053024, 9.796469,1,0
1778256576091,  1512.215,  1512.215, 0.044083,-0.005035,-0.995051, 0.000440,-0.000052,-0.009952,-0.011269, 0.003407, 0.038356,1,-0.001967, 0.000514, 0.000058,1,-0.443594, 0.052727, 9.796471,1,0
1778256576113,  1512.240,  1512.235, 0.044971,-0.004975,-0.995448, 0.000448,-0.000052,-0.009952,-0.002936,-0.000174, 0.043078,1,-0.001612, 0.000179, 0.000022,1,-0.443587, 0.052419, 9.796473,1,0
1778256576136,  1512.265,  1512.260, 0.045672,-0.005526,-0.995513, 0.000455,-0.000054,-0.009951, 0.004336,-0.002258, 0.033831,1,-0.001633,-0.001013, 0.000031,1,-0.443522, 0.051879, 9.796478,1,0
1778256576161,  1512.285,  1512.285, 0.046048,-0.005500,-0.995184, 0.000460,-0.000053,-0.009951, 0.008102,-0.002301, 0.037058,1,-0.001507,-0.000465,-0.000353,1,-0.443456, 0.051591, 9.796482,1,0
1778256576183,  1512.310,  1512.305, 0.045949,-0.005206,-0.994828, 0.000458,-0.000055,-0.009948, 0.007816, 0.005177, 0.038948,1,-0.001126,-0.000448,-0.000742,1,-0.443375, 0.051346, 9.796488,1,0
1778256576210,  1512.335,  1512.335, 0.045021,-0.004357,-0.994934, 0.000454,-0.000043,-0.009951,-0.001800, 0.008501, 0.039520,1, 0.000088, 0.000011,-0.001098,1,-0.443306, 0.051230, 9.796492,1,0
1778256576231,  1512.355,  1512.355, 0.044960,-0.004872,-0.995741, 0.000452,-0.000046,-0.009956,-0.002334, 0.003609, 0.031609,1, 0.000297,-0.000082,-0.001140,1,-0.443242, 0.051396, 9.796494,1,0
1778256576253,  1512.380,  1512.375, 0.044193,-0.004873,-0.995069, 0.000442,-0.000049,-0.009952,-0.003083, 0.004754, 0.042527,1, 0.001880,-0.000089,-0.000796,1,-0.443123, 0.051708, 9.796497,1,0
1778256576280,  1512.405,  1512.405, 0.044214,-0.005189,-0.994835, 0.000442,-0.000052,-0.009947,-0.009508, 0.001049, 0.040502,1, 0.000615, 0.000222,-0.000077,1,-0.443105, 0.051958, 9.796496,1,0
1778256576301,  1512.430,  1512.425, 0.044566,-0.004829,-0.995293, 0.000446,-0.000049,-0.009953,-0.012426, 0.006986, 0.033434,1, 0.001210,-0.000665, 0.000277,1,-0.443023, 0.052238, 9.796498,1,0
1778256576323,  1512.450,  1512.445, 0.045057,-0.004484,-0.994920, 0.000450,-0.000046,-0.009952,-0.005339, 0.002019, 0.032655,1, 0.001395, 0.000505,-0.000430,1,-0.443051, 0.052525, 9.796495,1,0
1778256576350,  1512.475,  1512.475, 0.045306,-0.004636,-0.994637, 0.000452,-0.000048,-0.009949, 0.001259, 0.007503, 0.042433,1, 0.001366,-0.000149,-0.000033,1,-0.443039, 0.053011, 9.796494,1,0
1778256576372,  1512.500,  1512.495, 0.045463,-0.005129,-0.995069, 0.000455,-0.000049,-0.009952, 0.000690, 0.002366, 0.041804,1, 0.002563,-0.000387, 0.000066,1,-0.443010, 0.053467, 9.796493,1,0
1778256576393,  1512.520,  1512.515, 0.045805,-0.005208,-0.994874, 0.000458,-0.000050,-0.009948, 0.004095, 0.005234, 0.032723,1, 0.002607,-0.000357,-0.000164,1,-0.442959, 0.054002, 9.796492,1,0
1778256576420,  1512.545,  1512.545, 0.045708,-0.005197,-0.994866, 0.000455,-0.000053,-0.009949, 0.005456, 0.003703, 0.040194,1, 0.003464,-0.000238,-0.000008,1,-0.442775, 0.054775, 9.796496,1,0
1778256576442,  1512.570,  1512.565, 0.044921,-0.005891,-0.995152, 0.000450,-0.000057,-0.009952,-0.003356, 0.007288, 0.033721,1, 0.004384,-0.000486, 0.000152,1,-0.442669, 0.055536, 9.796496,1,0
1778256576463,  1512.590,  1512.585, 0.044432,-0.006575,-0.996193, 0.000445,-0.000062,-0.009959,-0.003198, 0.004237, 0.035103,1, 0.004009,-0.001025, 0.000434,1,-0.442570, 0.056346, 9.796496,1,0
1778256576490,  1512.615,  1512.615, 0.043022,-0.007134,-0.995115, 0.000432,-0.000070,-0.009952,-0.020638,-0.012667, 0.037744,1, 0.003289, 0.000464,-0.000250,1,-0.442553, 0.057396, 9.796491,1,0
1778256576512,  1512.640,  1512.635, 0.041504,-0.009619,-0.994645, 0.000414,-0.000097,-0.009946,-0.032962,-0.031388, 0.038756,1, 0.003826, 0.000081,-0.001118,1,-0.442593, 0.058204, 9.796485,1,0
1778256576533,  1512.660,  1512.655, 0.043152,-0.010138,-0.994633, 0.000426,-0.000099,-0.009945,-0.027639,-0.040588, 0.037744,1, 0.005193,-0.000190,-0.003167,1,-0.442668, 0.059042, 9.796476,1,0
1778256576560,  1512.685,  1512.685, 0.045840,-0.010027,-0.994267, 0.000460,-0.000102,-0.009945, 0.006827,-0.038717, 0.046040,1,-0.000475, 0.000352,-0.003168,1,-0.442720, 0.059592, 9.796471,1,0
1778256576582,  1512.710,  1512.705, 0.047121,-0.007657,-0.994587, 0.000469,-0.000080,-0.009950, 0.020760,-0.034480, 0.033186,1,-0.005978, 0.000011,-0.002330,1,-0.442674, 0.058725, 9.796477,1,0
1778256576603,  1512.730,  1512.725, 0.047228,-0.008817,-0.994595, 0.000475,-0.000089,-0.009947, 0.018666,-0.020348, 0.048020,1,-0.012181, 0.001279,-0.001985,1,-0.442663, 0.057473, 9.796486,1,0
1778256576630,  1512.755,  1512.755, 0.046970,-0.012174,-0.995597, 0.000470,-0.000125,-0.009954, 0.017728,-0.066981, 0.033029,1,-0.023160,-0.000295,-0.000592,1,-0.442879, 0.051686, 9.796508,1,0
1778256576652,  1512.780,  1512.775, 0.047557,-0.007922,-0.994090, 0.000476,-0.000082,-0.009945, 0.023009,-0.039750, 0.038754,1,-0.027197, 0.001636,-0.000708,1,-0.443138, 0.046503, 9.796522,1,0
1778256576673,  1512.800,  1512.795, 0.046046,-0.009015,-0.994678, 0.000460,-0.000091,-0.009946, 0.016606,-0.040712, 0.047789,1,-0.031986, 0.001271,-0.001150,1,-0.443378, 0.040502, 9.796538,1,0
1778256576700,  1512.825,  1512.825, 0.045226,-0.009296,-0.994521, 0.000450,-0.000094,-0.009948,-0.000410,-0.059708, 0.043623,1,-0.037008, 0.001948,-0.002772,1,-0.443984, 0.030296, 9.796548,1,0
1778256576722,  1512.850,  1512.845, 0.046118,-0.006862,-0.995151, 0.000460,-0.000073,-0.009950,-0.001759,-0.070392, 0.031312,1,-0.038175, 0.002152,-0.004520,1,-0.444347, 0.022765, 9.796552,1,0
1778256576745,  1512.870,  1512.870, 0.049271,-0.006589,-0.993714, 0.000494,-0.000059,-0.009940, 0.038601,-0.052594, 0.051549,1,-0.043185, 0.001108,-0.005499,1,-0.444616, 0.010666, 9.796560,1,0
1778256576770,  1512.895,  1512.895, 0.051167,-0.011362,-0.993930, 0.000516,-0.000119,-0.009966, 0.056748,-0.108048, 0.049423,1,-0.043243, 0.003030,-0.008376,1,-0.445121, 0.002012, 9.796543,1,0
1778256576792,  1512.920,  1512.915, 0.049502,-0.010099,-0.993700, 0.000497,-0.000095,-0.009944, 0.044634,-0.119554, 0.046414,1,-0.047033, 0.003294,-0.010415,1,-0.445747,-0.007227, 9.796512,1,0
1778256576815,  1512.940,  1512.940, 0.050585,-0.006834,-0.994380, 0.000503,-0.000073,-0.009948, 0.048791,-0.085192, 0.044892,1,-0.049492, 0.002450,-0.014920,1,-0.447354,-0.019738, 9.796421,1,0
1778256576841,  1512.965,  1512.965, 0.057453,-0.004241,-0.993994, 0.000566,-0.000042,-0.009968, 0.115873,-0.069932, 0.048642,1,-0.051149, 0.000861,-0.018155,1,-0.447572,-0.029960, 9.796386,1,0
1778256576862,  1512.990,  1512.985, 0.057086,-0.001981,-0.993987, 0.000565,-0.000027,-0.009941, 0.109901,-0.063219, 0.063531,1,-0.056690, 0.001970,-0.018811,1,-0.447844,-0.040769, 9.796334,1,0
1778256576885,  1513.010,  1513.010, 0.055697, 0.002510,-0.993952, 0.000556, 0.000012,-0.009939, 0.097505,-0.032903, 0.048868,1,-0.069359, 0.003285,-0.017414,1,-0.448793,-0.059708, 9.796193,1,0
1778256576911,  1513.035,  1513.035, 0.055125, 0.007422,-0.995374, 0.000549, 0.000064,-0.009958, 0.091177, 0.000328, 0.034791,1,-0.080527, 0.003803,-0.013477,1,-0.449535,-0.074986, 9.796054,1,0
1778256576932,  1513.060,  1513.055, 0.057472, 0.006928,-0.994103, 0.000575, 0.000069,-0.009939, 0.117878,-0.028843, 0.045866,1,-0.093669, 0.002978,-0.010917,1,-0.450136,-0.092671, 9.795876,1,0
1778256576955,  1513.080,  1513.080, 0.051942,-0.002726,-0.992538, 0.000565,-0.000068,-0.009872, 0.058312,-0.147365, 0.062056,1,-0.119023,-0.001363,-0.007555,1,-0.451019,-0.124357, 9.795484,1,0
1778256576981,  1513.105,  1513.105, 0.068599, 0.000912,-0.998326, 0.000755, 0.000091,-0.010053, 0.222202,-0.134637, 0.005004,1,-0.116278,-0.003402,-0.011078,1,-0.450413,-0.147220, 9.795195,1,0
1778256577002,  1513.130,  1513.125, 0.120739,-0.013755,-0.982603, 0.001217,-0.000119,-0.009863, 0.597471,-0.401092,-0.089593,1,-0.127028,-0.001908,-0.014007,1,-0.451293,-0.170034, 9.794785,1,0
1778256577025,  1513.150,  1513.150, 0.114101, 0.028309,-0.961608, 0.001142, 0.000246,-0.009638, 0.668982, 0.074217, 0.364053,1,-0.125964, 0.007159,-0.020035,1,-0.450179,-0.207360, 9.794117,1,0
1778256577051,  1513.175,  1513.175, 0.123020, 0.023674,-0.998642, 0.001173, 0.000235,-0.009834, 0.753976, 0.003497, 0.000202,1,-0.115906, 0.007421,-0.015279,1,-0.452657,-0.232305, 9.793443,1,0
1778256577072,  1513.195,  1513.195, 0.118227, 0.018641,-1.054702, 0.001159, 0.000178,-0.010466, 0.707957,-0.066365,-0.550013,1,-0.091969,-0.008561,-0.031102,1,-0.451167,-0.252084, 9.793022,1,0
1778256577095,  1513.225,  1513.220, 0.134171, 0.011648,-0.955077, 0.001330, 0.000138,-0.009526, 0.866061,-0.159682, 0.426399,1,-0.073086,-0.009116,-0.035928,1,-0.449393,-0.276236, 9.792453,1,0
1778256577121,  1513.245,  1513.245, 0.136269, 0.003537,-0.973674, 0.001347,-0.000005,-0.009680, 0.889239,-0.253500, 0.243731,1,-0.055834,-0.012754,-0.043431,1,-0.446666,-0.289987, 9.792180,1,0
1778256577142,  1513.270,  1513.265, 0.157994, 0.044139,-1.025887, 0.001588, 0.000467,-0.010246, 1.130237, 0.073162,-0.298373,1,-0.045527,-0.007575,-0.056361,1,-0.444756,-0.300645, 9.791945,1,0
1778256577165,  1513.295,  1513.290, 0.131375, 0.013536,-0.969902, 0.001337, 0.000157,-0.009742, 0.845765,-0.178782, 0.280216,1,-0.033544,-0.006752,-0.056787,1,-0.442316,-0.312648, 9.791679,1,0
1778256577191,  1513.315,  1513.315, 0.118425,-0.003300,-0.979024, 0.001184,-0.000052,-0.009774, 0.745850,-0.374891, 0.316281,1,-0.033777,-0.006099,-0.060594,1,-0.441553,-0.316264, 9.791598,1,0
1778256577213,  1513.340,  1513.335, 0.123225, 0.032515,-1.014894, 0.001236, 0.000324,-0.010165, 0.769333,-0.069271,-0.096482,1,-0.032936,-0.007204,-0.067558,1,-0.439118,-0.325449, 9.791407,1,0
1778256577235,  1513.365,  1513.360, 0.118082, 0.026700,-1.000806, 0.001200, 0.000280,-0.010030, 0.721550,-0.074762,-0.023411,1,-0.046208,-0.005125,-0.065246,1,-0.436207,-0.338127, 9.791107,1,0
1778256577261,  1513.385,  1513.385, 0.104195, 0.012547,-0.967740, 0.001053, 0.000128,-0.009690, 0.586287,-0.223931, 0.300536,1,-0.054119, 0.000897,-0.066429,1,-0.435468,-0.348755, 9.790767,1,0
1778256577283,  1513.410,  1513.405, 0.090992, 0.032130,-1.009704, 0.000910, 0.000317,-0.010061, 0.506164,-0.117004, 0.080599,1,-0.064754, 0.005357,-0.063816,1,-0.435809,-0.361331, 9.790296,1,0
1778256577305,  1513.435,  1513.430, 0.084280, 0.027177,-1.022578, 0.000843, 0.000274,-0.010260, 0.388492,-0.113925,-0.238590,1,-0.069370, 0.012981,-0.064923,1,-0.438343,-0.382695, 9.789371,1,0
1778256577331,  1513.455,  1513.455, 0.079797, 0.028675,-0.988012, 0.000800, 0.000279,-0.009896, 0.342571,-0.113021, 0.099753,1,-0.066672, 0.010901,-0.071924,1,-0.440224,-0.396406, 9.788741,1,0
1778256577353,  1513.480,  1513.475, 0.078632, 0.038129,-0.989745, 0.000791, 0.000356,-0.009902, 0.333962,-0.075111, 0.181022,1,-0.066263, 0.006907,-0.070122,1,-0.441136,-0.410146, 9.788134,1,0
1778256577376,  1513.505,  1513.500, 0.078394, 0.051626,-1.013593, 0.000780, 0.000519,-0.010128, 0.326134, 0.078090,-0.152661,1,-0.063871, 0.007740,-0.073820,1,-0.442788,-0.430285, 9.787194,1,0
1778256577401,  1513.525,  1513.525, 0.067947, 0.046881,-1.006030, 0.000680, 0.000470,-0.010030, 0.223033, 0.021254,-0.078976,1,-0.050999, 0.002832,-0.075447,1,-0.443298,-0.440114, 9.786735,1,0
1778256577423,  1513.550,  1513.545, 0.057162, 0.040688,-0.988943, 0.000570, 0.000403,-0.009905, 0.099740,-0.020723,-0.017398,1,-0.050288, 0.008267,-0.069582,1,-0.443696,-0.450637, 9.786238,1,0
1778256577450,  1513.575,  1513.575, 0.056966, 0.039079,-0.981991, 0.000571, 0.000383,-0.009794, 0.112757,-0.080427, 0.155488,1,-0.043082, 0.008353,-0.073241,1,-0.446042,-0.465109, 9.785454,1,0
1778256577471,  1513.595,  1513.595, 0.062517, 0.049651,-1.007826, 0.000619, 0.000499,-0.010048, 0.166634, 0.014956,-0.098293,1,-0.034339, 0.006647,-0.077672,1,-0.446543,-0.473133, 9.785047,1,0
1778256577493,  1513.620,  1513.615, 0.087345, 0.037761,-0.994029, 0.000867, 0.000374,-0.009951, 0.341344,-0.123670,-0.146023,1,-0.016059, 0.009371,-0.082411,1,-0.447439,-0.478454, 9.784746,1,0
1778256577520,  1513.645,  1513.645, 0.094193, 0.040504,-0.974044, 0.000945, 0.000405,-0.009740, 0.474557,-0.083347, 0.232455,1, 0.002518, 0.012949,-0.093057,1,-0.449426,-0.480607, 9.784550,1,0
1778256577541,  1513.670,  1513.665, 0.121921, 0.013977,-0.994655, 0.001112, 0.000155,-0.009819, 0.493483,-0.123884, 0.067689,1, 0.009275, 0.014582,-0.098965,1,-0.451174,-0.480027, 9.784498,1,0
1778256577563,  1513.690,  1513.685, 0.131665, 0.036377,-0.989190, 0.001291, 0.000334,-0.009772, 0.721907,-0.342698, 0.034834,1, 0.021684, 0.013601,-0.103744,1,-0.452527,-0.476476, 9.784609,1,0
1778256577590,  1513.715,  1513.715, 0.123275, 0.061679,-1.005938, 0.001266, 0.000662,-0.010113, 0.754969, 0.131128,-0.080202,1, 0.014641, 0.010504,-0.105737,1,-0.454111,-0.473433, 9.784683,1,0
1778256577612,  1513.740,  1513.735, 0.098295, 0.014824,-0.983419, 0.000990, 0.000126,-0.009849, 0.582186,-0.423471,-0.138858,1, 0.017515, 0.011261,-0.108952,1,-0.455850,-0.468814, 9.784825,1,0
1778256577633,  1513.760,  1513.755, 0.114636, 0.047325,-0.963071, 0.001152, 0.000433,-0.009650, 0.550831,-0.185538, 0.381572,1, 0.015213, 0.004656,-0.106785,1,-0.455777,-0.466023, 9.784962,1,0
1778256577660,  1513.785,  1513.785, 0.125608, 0.034003,-1.004640, 0.001279, 0.000334,-0.010008, 0.773918,-0.131316,-0.067233,1, 0.011516, 0.019118,-0.120076,1,-0.458294,-0.464584, 9.784912,1,0
1778256577682,  1513.810,  1513.805, 0.084376, 0.036166,-0.960905, 0.000989, 0.000328,-0.009778, 0.327190, 0.094928, 0.670527,1, 0.019541, 0.022693,-0.139568,1,-0.461046,-0.461688, 9.784921,1,0
1778256577703,  1513.830,  1513.825, 0.103119, 0.016896,-1.043114, 0.001047, 0.000142,-0.010367, 0.437270,-0.385380,-0.114789,1, 0.004467, 0.013138,-0.110663,1,-0.463172,-0.460717, 9.784865,1,0
1778256577730,  1513.855,  1513.855, 0.110712, 0.068212,-1.027014, 0.001144, 0.000596,-0.010425, 0.623360, 0.206837,-0.286728,1,-0.002813,-0.005015,-0.093220,1,-0.462062,-0.462323, 9.784842,1,0
1778256577752,  1513.880,  1513.875, 0.122439, 0.064815,-0.922801, 0.001212, 0.000702,-0.009254, 0.625084, 0.417908, 0.393727,1,-0.008551,-0.019114,-0.114195,1,-0.458007,-0.464921, 9.784910,1,0
1778256577773,  1513.900,  1513.895, 0.142101,-0.006794,-0.958797, 0.001398,-0.000041,-0.009506, 0.843438,-0.214057, 0.734613,1,-0.019054,-0.010038,-0.099035,1,-0.454043,-0.468863, 9.784906,1,0
1778256577800,  1513.925,  1513.925, 0.159657, 0.005860,-1.073067, 0.001584,-0.000001,-0.010701, 1.109839,-0.415760,-0.738579,1,-0.005678, 0.020558,-0.098732,1,-0.456367,-0.473488, 9.784575,1,0
1778256577822,  1513.950,  1513.945, 0.216706, 0.110318,-0.860953, 0.002252, 0.001061,-0.008759, 1.761279, 0.370953, 0.860759,1, 0.054938, 0.008392,-0.119757,1,-0.457277,-0.468986, 9.784750,1,0
1778256577843,  1513.970,  1513.965, 0.279073, 0.022199,-0.990148, 0.002740, 0.000358,-0.009855, 1.945747, 0.381904, 0.677525,1, 0.048306, 0.028793,-0.110135,1,-0.460539,-0.462248, 9.784918,1,0
1778256577870,  1513.995,  1513.995, 0.179550,-0.025402,-1.084560, 0.001966,-0.000237,-0.010860, 1.290640,-0.694186,-0.850647,1, 0.094150, 0.030060,-0.114803,1,-0.470922,-0.442318, 9.785345,1,0
1778256577892,  1514.020,  1514.015, 0.093397, 0.083925,-0.931814, 0.000881, 0.000818,-0.009379, 0.271753,-0.037286,-0.460486,1, 0.102231, 0.015989,-0.131389,1,-0.474103,-0.424814, 9.785967,1,0
1778256577913,  1514.040,  1514.035, 0.099895, 0.066416,-0.906439, 0.000989, 0.000711,-0.008979, 0.445283, 0.584153, 1.294173,1, 0.088237,-0.019430,-0.123376,1,-0.471700,-0.408251, 9.786788,1,0
1778256577940,  1514.065,  1514.065, 0.143394, 0.006445,-1.073364, 0.001420, 0.000061,-0.010705, 0.941922,-0.329236,-0.738324,1, 0.063036,-0.019779,-0.111277,1,-0.463539,-0.390638, 9.787896,1,0
1778256577962,  1514.090,  1514.085, 0.180040, 0.014527,-1.009352, 0.001813, 0.000108,-0.010220, 1.203956,-0.248013,-0.580982,1, 0.078849,-0.017657,-0.113235,1,-0.458896,-0.377380, 9.788635,1,0
1778256577985,  1514.110,  1514.110, 0.164233, 0.039364,-0.906047, 0.001718, 0.000337,-0.009165, 1.158500, 0.029711, 0.904453,1, 0.092624,-0.034287,-0.127769,1,-0.450859,-0.353617, 9.789896,1,0
1778256578010,  1514.135,  1514.135, 0.144431, 0.043973,-0.979595, 0.001450, 0.000425,-0.009715, 0.972006, 0.092402, 0.184171,1, 0.084340,-0.030419,-0.115331,1,-0.443311,-0.336354, 9.790849,1,0
1778256578032,  1514.160,  1514.155, 0.161051, 0.008010,-1.039487, 0.001663, 0.000024,-0.010452, 1.089530,-0.120322,-0.395193,1, 0.077020,-0.022713,-0.102784,1,-0.438146,-0.322192, 9.791558,1,0
1778256578055,  1514.180,  1514.180, 0.120900, 0.049055,-0.960345, 0.001222, 0.000414,-0.009661, 0.761287, 0.180029, 0.375074,1, 0.092549,-0.067927,-0.116825,1,-0.422106,-0.298311, 9.793019,1,0
1778256578081,  1514.205,  1514.205, 0.120799, 0.052734,-0.992037, 0.001180, 0.000538,-0.009779, 0.776019, 0.231728, 0.065414,1, 0.076571,-0.078497,-0.092301,1,-0.406081,-0.283148, 9.794147,1,0
1778256578102,  1514.230,  1514.225, 0.192347, 0.017703,-1.015724, 0.001941, 0.000139,-0.010220, 1.240943,-0.074464,-0.265079,1, 0.073471,-0.044442,-0.074464,1,-0.394407,-0.269911, 9.794997,1,0
1778256578125,  1514.250,  1514.250, 0.170979, 0.083025,-0.916509, 0.001794, 0.000733,-0.009230, 1.288986, 0.566558, 0.807969,1, 0.088185,-0.005995,-0.072812,1,-0.387500,-0.244978, 9.795928,1,0
1778256578151,  1514.275,  1514.275, 0.188428, 0.067032,-0.956536, 0.001888, 0.000685,-0.009484, 1.454680, 0.426891, 0.415643,1, 0.084770, 0.059759,-0.045236,1,-0.394999,-0.227887, 9.796041,1,0
1778256578172,  1514.300,  1514.295, 0.260389, 0.041076,-0.864670, 0.002566, 0.000471,-0.008774, 1.889925, 0.138423, 0.053095,1, 0.099447, 0.109528,-0.042335,1,-0.412178,-0.210646, 9.795719,1,0
1778256578195,  1514.320,  1514.320, 0.206425, 0.064443,-0.887498, 0.002196, 0.000781,-0.008517, 1.574353, 0.451279, 1.091264,1, 0.121191, 0.136371,-0.020964,1,-0.454221,-0.177017, 9.794526,1,0
1778256578221,  1514.345,  1514.345, 0.144179, 0.002534,-0.965480, 0.001207, 0.000132,-0.009676, 0.932842,-0.133800, 0.325429,1, 0.120795, 0.175635, 0.002945,1,-0.486551,-0.154881, 9.793348,1,0
1778256578242,  1514.370,  1514.365, 0.030826,-0.041874,-1.094197, 0.000409,-0.000567,-0.010956, 0.295378,-1.032309,-0.271775,1, 0.132155, 0.092925,-0.025780,1,-0.510233,-0.129545, 9.792511,1,0
1778256578265,  1514.390,  1514.390, 0.035281, 0.002296,-1.069348, 0.000246, 0.000168,-0.010145,-0.172741,-0.074776,-0.694282,1, 0.117765, 0.021791,-0.031555,1,-0.519402,-0.093678, 9.792438,1,0
1778256578291,  1514.415,  1514.415, 0.030342,-0.081346,-1.252017, 0.000360,-0.000749,-0.012680,-0.226936,-0.877705,-2.485804,1, 0.099850, 0.056235,-0.056537,1,-0.526230,-0.076953, 9.792218,1,0
1778256578312,  1514.440,  1514.435, 0.059934, 0.031689,-0.755810, 0.000441, 0.000376,-0.007392, 0.226767,-0.382486, 1.352404,1, 0.114545, 0.062678,-0.079866,1,-0.541170,-0.057258, 9.791539,1,0
1778256578335,  1514.465,  1514.460,-0.015020,-0.069523,-0.898238,-0.000060,-0.000354,-0.008667,-0.699904,-0.719856, 0.982284,1, 0.066065, 0.009729,-0.042510,1,-0.552904,-0.036085, 9.790984,1,0
1778256578361,  1514.485,  1514.485,-0.051184,-0.072931,-1.047486,-0.000337,-0.000967,-0.010703,-1.054437,-0.738855,-0.481281,1, 0.064622,-0.034149,-0.105041,1,-0.551417,-0.021815, 9.791111,1,0
1778256578382,  1514.510,  1514.505,-0.064374, 0.024434,-1.069901,-0.000489, 0.000294,-0.011085,-1.180070, 0.365610,-1.335063,1, 0.053194,-0.030459,-0.094494,1,-0.544018,-0.008941, 9.791545,1,0
1778256578405,  1514.535,  1514.530, 0.041341,-0.128004,-1.054846, 0.000315,-0.001289,-0.010533,-0.128402,-1.253737,-0.552393,1, 0.040910,-0.008256,-0.107859,1,-0.533548, 0.002649, 9.792125,1,0
1778256578431,  1514.555,  1514.555, 0.026267, 0.066489,-0.811976, 0.000236, 0.000488,-0.008113,-0.271481, 0.661228, 1.829598,1, 0.036277,-0.027236,-0.112406,1,-0.528226, 0.010135, 9.792408,1,0
1778256578453,  1514.580,  1514.575, 0.041508,-0.091477,-1.175298, 0.000322,-0.000754,-0.011609,-0.424332,-0.079943,-0.841928,1, 0.013235,-0.019316,-0.079250,1,-0.521105, 0.011297, 9.792789,1,0
1778256578475,  1514.605,  1514.600, 0.003665, 0.018805,-0.882615,-0.000025, 0.000000,-0.008894,-0.487315, 0.203196, 1.137169,1, 0.044654,-0.001142,-0.124361,1,-0.523226, 0.019964, 9.792662,1,0
1778256578501,  1514.625,  1514.625,-0.004552, 0.033521,-0.911090, 0.000089, 0.000460,-0.009105,-0.565120, 0.351526, 0.858063,1, 0.020551,-0.022497,-0.086899,1,-0.519782, 0.023289, 9.792838,1,0
1778256578523,  1514.650,  1514.645, 0.025184,-0.034066,-0.984351, 0.000339,-0.000410,-0.010127,-0.016931,-0.576268,-1.385709,1, 0.034487, 0.031487,-0.108805,1,-0.525165, 0.027754, 9.792539,1,0
1778256578545,  1514.675,  1514.670, 0.032120, 0.013810,-1.029415, 0.000391, 0.000234,-0.010178,-0.210454, 0.181837,-0.302661,1, 0.065596,-0.015942,-0.113737,1,-0.524968, 0.048264, 9.792470,1,0
1778256578571,  1514.695,  1514.695, 0.009499,-0.046005,-1.156551,-0.000017,-0.000327,-0.011402,-0.434690,-0.388993,-1.549658,1, 0.098652, 0.045619,-0.111595,1,-0.529284, 0.065053, 9.792140,1,0
1778256578593,  1514.720,  1514.715, 0.000001, 0.012870,-0.927792,-0.000014, 0.000111,-0.009182,-0.805428,-0.498290, 0.652903,1, 0.152357, 0.024212,-0.153641,1,-0.535276, 0.091131, 9.791607,1,0
1778256578616,  1514.745,  1514.740,-0.033335, 0.027769,-1.014547,-0.000360, 0.000220,-0.010100,-0.862825, 0.400852,-0.158153,1, 0.148864, 0.025116,-0.133623,1,-0.536759, 0.132940, 9.791047,1,0
1778256578641,  1514.765,  1514.765,-0.026044,-0.125585,-0.998957,-0.000216,-0.001228,-0.010010,-0.794391,-1.074163,-0.005865,1, 0.186754,-0.002904,-0.163761,1,-0.538980, 0.162948, 9.790471,1,0
1778256578663,  1514.790,  1514.785, 0.030000, 0.025665,-0.914764, 0.000259, 0.000245,-0.009041,-0.243844, 0.021146, 0.446927,1, 0.178269,-0.045332,-0.172082,1,-0.535260, 0.197395, 9.790042,1,0
1778256578690,  1514.815,  1514.815, 0.118435,-0.039327,-1.005545, 0.001247,-0.000280,-0.010154, 0.632758,-0.145854,-0.071574,1, 0.157955,-0.031760,-0.148503,1,-0.527817, 0.244487, 9.789383,1,0
1778256578711,  1514.835,  1514.835, 0.175981,-0.162345,-1.041547, 0.001681,-0.001599,-0.010387, 1.200481,-1.320436,-0.425291,1, 0.178425,-0.014268,-0.201864,1,-0.525033, 0.276846, 9.788671,1,0
1778256578733,  1514.860,  1514.855, 0.264594,-0.027544,-0.924482, 0.002560,-0.000161,-0.009061, 1.622852,-0.092480, 0.943713,1, 0.152855,-0.039664,-0.191119,1,-0.517857, 0.305751, 9.788193,1,0
1778256578760,  1514.885,  1514.885, 0.247289,-0.156299,-1.007503, 0.002464,-0.001399,-0.009900, 1.909461,-1.197072,-0.092901,1, 0.122583, 0.006137,-0.192187,1,-0.516015, 0.339198, 9.787189,1,0
1778256578781,  1514.910,  1514.905, 0.211697,-0.035374,-0.895238, 0.002139,-0.000456,-0.008950, 1.839933,-0.700188, 0.750904,1, 0.126450,-0.029348,-0.229080,1,-0.515679, 0.361638, 9.786403,1,0
1778256578803,  1514.930,  1514.925, 0.145851,-0.069003,-1.004807, 0.001573,-0.000550,-0.010169, 1.759015, 0.055917,-0.304498,1, 0.092895,-0.022491,-0.189784,1,-0.513596, 0.381546, 9.785756,1,0
1778256578830,  1514.955,  1514.955, 0.137298,-0.139046,-0.981212, 0.001408,-0.001414,-0.010167, 0.842733,-0.955256, 0.162783,1, 0.134954,-0.072811,-0.234585,1,-0.501735, 0.412145, 9.785131,1,0
1778256578852,  1514.980,  1514.975, 0.174870,-0.070413,-1.013373, 0.001694,-0.000592,-0.009703, 1.138725, 0.470987, 1.163548,1, 0.134472,-0.093234,-0.232428,1,-0.488587, 0.438873, 9.784634,1,0
1778256578873,  1515.000,  1514.995, 0.234584,-0.166431,-0.965871, 0.002277,-0.001702,-0.009897, 1.783160,-0.891418,-1.107703,1, 0.156686,-0.054649,-0.245847,1,-0.477738, 0.465672, 9.783931,1,0
1778256578900,  1515.025,  1515.025, 0.231905,-0.065926,-0.941288, 0.002446,-0.000714,-0.009536, 1.805885,-0.135144, 0.551223,1, 0.170757,-0.054699,-0.254028,1,-0.467038, 0.516310, 9.781906,1,0
1778256578922,  1515.050,  1515.045, 0.198213,-0.115917,-0.931645, 0.002040,-0.001220,-0.009248, 1.746503,-0.839717,-0.457969,1, 0.186968,-0.030645,-0.259987,1,-0.464091, 0.551956, 9.780100,1,0
1778256578943,  1515.070,  1515.065, 0.168184,-0.078467,-1.039538, 0.001727,-0.000832,-0.010188, 1.512716,-0.099737, 0.678984,1, 0.183237,-0.036435,-0.267514,1,-0.461314, 0.590322, 9.777990,1,0
1778256578970,  1515.095,  1515.095, 0.152244,-0.120827,-0.993198, 0.001585,-0.001170,-0.010008, 1.032104,-0.550151, 0.035282,1, 0.196722,-0.011676,-0.268475,1,-0.461076, 0.640484, 9.774844,1,0
1778256578992,  1515.120,  1515.115, 0.086477,-0.095674,-1.116884, 0.000940,-0.000903,-0.011034, 0.071389,-0.146307, 0.064598,1, 0.151293,-0.056748,-0.239301,1,-0.455882, 0.668225, 9.773231,1,0
1778256579013,  1515.140,  1515.135, 0.034316,-0.053232,-0.926679, 0.000568,-0.000451,-0.009665, 0.036142,-0.218199,-0.729495,1, 0.128079,-0.037549,-0.231502,1,-0.450377, 0.690493, 9.771937,1,0
1778256579040,  1515.165,  1515.165, 0.052451,-0.062036,-1.070691, 0.000466,-0.000659,-0.010859, 0.077030, 0.102317,-0.728812,1, 0.064092,-0.057177,-0.222439,1,-0.436062, 0.712367, 9.771017,1,0
1778256579062,  1515.190,  1515.185, 0.117998,-0.071539,-0.942554, 0.001074,-0.000735,-0.009301, 0.836873, 0.066153, 0.885633,1, 0.069754,-0.041386,-0.207358,1,-0.431354, 0.725847, 9.770233,1,0
1778256579083,  1515.210,  1515.205, 0.168699,-0.070823,-1.044677, 0.001596,-0.000954,-0.010957, 1.912256,-0.328392,-0.346766,1, 0.078992, 0.007505,-0.202215,1,-0.430487, 0.738862, 9.769297,1,0
1778256579110,  1515.235,  1515.235,-0.048449,-0.092138,-1.021623,-0.000374,-0.000833,-0.010034,-0.908079,-0.147727,-0.250815,1, 0.072004,-0.045960,-0.148403,1,-0.431884, 0.757870, 9.767778,1,0
1778256579132,  1515.260,  1515.255, 0.078570, 0.007166,-0.892282, 0.000616, 0.000007,-0.008989,-0.654392, 0.555279,-0.106681,1, 0.061553,-0.053747,-0.130857,1,-0.422869, 0.767922, 9.767387,1,0
1778256579153,  1515.280,  1515.275, 0.238767,-0.100202,-0.895401, 0.002282,-0.001004,-0.008751, 1.090985, 0.592084, 2.222511,1, 0.058960,-0.057571,-0.160781,1,-0.414193, 0.777600, 9.766994,1,0
1778256579180,  1515.305,  1515.305, 0.310697,-0.124286,-0.940863, 0.003277,-0.001334,-0.009554, 2.632204,-0.432452, 0.539556,1, 0.044442, 0.003392,-0.131354,1,-0.415125, 0.787580, 9.766154,1,0
1778256579202,  1515.330,  1515.325, 0.284604,-0.083511,-0.927500, 0.002981,-0.001131,-0.009840, 2.387481,-1.315519, 0.497551,1, 0.055512, 0.017054,-0.099539,1,-0.418232, 0.795983, 9.765341,1,0
1778256579225,  1515.350,  1515.350, 0.120007,-0.018627,-1.080922, 0.001426,-0.000131,-0.011178, 0.752606, 0.621065,-0.835778,1, 0.052466, 0.016250,-0.121417,1,-0.425075, 0.805196, 9.764290,1,0
1778256579251,  1515.375,  1515.375, 0.125068,-0.024217,-1.033762, 0.001106,-0.000392,-0.011056, 0.793916, 0.570104,-0.373983,1, 0.056126, 0.027225,-0.118022,1,-0.433732, 0.809171, 9.763580,1,0
1778256579272,  1515.400,  1515.395, 0.056681,-0.053611,-0.821181, 0.000371,-0.000657,-0.008235, 0.818396,-0.362465, 2.099730,1, 0.052486,-0.064957,-0.108049,1,-0.428856, 0.820331, 9.762864,1,0
1778256579295,  1515.420,  1515.420, 0.060950,-0.102730,-1.189188, 0.000253,-0.000789,-0.011005, 0.190125,-0.175875,-1.899131,1, 0.027436,-0.063619,-0.089486,1,-0.405854, 0.832294, 9.762836,1,0
1778256579321,  1515.445,  1515.445, 0.070540,-0.084719,-1.152122, 0.000794,-0.000950,-0.011829, 0.295412, 0.012269,-1.536164,1, 0.077830,-0.056365,-0.082592,1,-0.394814, 0.845396, 9.762162,1,0
1778256579342,  1515.470,  1515.465, 0.068372,-0.110635,-1.056994, 0.000351,-0.001142,-0.010034,-0.167378, 0.158529, 1.254377,1, 0.099521,-0.107306,-0.081392,1,-0.380872, 0.863435, 9.761137,1,0
1778256579365,  1515.490,  1515.490, 0.098949,-0.053814,-0.971428, 0.001138,-0.000419,-0.010036, 0.605364, 0.359419, 0.233163,1, 0.105205,-0.050249,-0.099768,1,-0.363710, 0.890305, 9.759377,1,0
1778256579391,  1515.515,  1515.515, 0.147210,-0.105870,-0.953332, 0.001498,-0.001138,-0.009851, 1.081120,-0.127673, 0.408558,1, 0.140767,-0.003553,-0.121861,1,-0.362756, 0.914787, 9.757149,1,0
1778256579412,  1515.540,  1515.535, 0.136642,-0.135336,-1.067089, 0.001465,-0.001553,-0.010724, 0.912770,-0.574264, 0.288374,1, 0.138767, 0.015338,-0.082273,1,-0.367625, 0.940382, 9.754533,1,0
1778256579435,  1515.560,  1515.560, 0.180134,-0.057352,-0.931320, 0.001812,-0.000424,-0.009484, 1.384944, 0.416563, 0.617068,1, 0.175749, 0.051542,-0.066621,1,-0.383378, 0.984364, 9.749586,1,0
1778256579461,  1515.585,  1515.585, 0.279038,-0.028228,-0.990803, 0.002426,-0.000230,-0.009612, 2.341527, 0.734746, 0.029875,1, 0.169333, 0.073976,-0.085456,1,-0.397474, 1.016710, 9.745702,1,0
1778256579482,  1515.610,  1515.605, 0.226932,-0.091583,-1.077278, 0.001652,-0.000792,-0.009984, 1.958703,-0.029362, 0.335691,1, 0.133697, 0.025903,-0.057697,1,-0.405632, 1.044274, 9.742451,1,0
1778256579505,  1515.630,  1515.630, 0.228102,-0.080612,-0.981583, 0.002280,-0.000934,-0.010108, 1.821028, 0.285752, 0.112490,1, 0.092480, 0.013729, 0.008222,1,-0.416283, 1.079159, 9.738198,1,0
1778256579531,  1515.655,  1515.655, 0.193947, 0.048777,-0.989434, 0.002097, 0.000629,-0.009919, 1.481493, 1.571426, 0.033434,1, 0.077853, 0.029064, 0.057681,1,-0.421183, 1.095573, 9.736155,1,0
1778256579552,  1515.680,  1515.675, 0.226061, 0.058597,-1.150935, 0.001907, 0.000830,-0.010851, 1.635201, 0.224259,-1.413486,1, 0.009476, 0.032693, 0.103561,1,-0.425062, 1.104262, 9.735004,1,0
1778256579575,  1515.705,  1515.700, 0.183124,-0.024625,-1.061566, 0.002122,-0.000853,-0.011198, 1.361108, 0.865501,-0.676141,1,-0.024735, 0.065688, 0.177638,1,-0.436137, 1.106464, 9.734264,1,0
1778256579601,  1515.725,  1515.725, 0.149145, 0.012121,-0.975851, 0.001287, 0.000669,-0.009297, 1.014184, 1.223759, 0.164052,1, 0.000113, 0.110710, 0.237582,1,-0.451015, 1.105161, 9.733734,1,0
1778256579623,  1515.750,  1515.745, 0.052442,-0.058333,-1.009180, 0.000312,-0.000049,-0.008982, 0.360619, 2.523056,-0.367955,1,-0.093832, 0.048190, 0.289184,1,-0.457534, 1.093810, 9.734713,1,0
1778256579645,  1515.775,  1515.770, 0.013664, 0.201515,-0.900572, 0.000302, 0.001619,-0.010086,-0.322095, 3.058596, 0.904460,1,-0.062622, 0.021035, 0.331241,1,-0.455608, 1.080944, 9.736239,1,0
1778256579671,  1515.795,  1515.795, 0.073686,-0.038480,-1.072973, 0.000558,-0.000272,-0.009747, 0.268354, 0.694972,-0.785014,1,-0.094777, 0.029939, 0.371585,1,-0.453914, 1.069930, 9.737535,1,0
1778256579693,  1515.820,  1515.815, 0.085051, 0.007279,-1.036405, 0.001034,-0.000424,-0.010502, 0.229512, 2.055693, 1.716882,1,-0.102408, 0.013687, 0.423806,1,-0.449941, 1.054162, 9.739439,1,0
1778256579715,  1515.845,  1515.840, 0.186067, 0.067456,-0.909173, 0.001491, 0.000906,-0.009681, 1.369720, 1.689336, 0.826080,1,-0.107202, 0.100101, 0.475449,1,-0.456526, 1.025178, 9.742227,1,0
1778256579741,  1515.865,  1515.865, 0.125582, 0.152179,-0.969211, 0.001343, 0.001569,-0.009707, 0.776249, 2.499184, 0.239486,1,-0.177733, 0.012802, 0.548905,1,-0.453930, 1.002100, 9.744749,1,0
1778256579763,  1515.890,  1515.885, 0.153707, 0.189401,-0.887063, 0.001708, 0.002192,-0.009392, 0.882020, 2.097818,-0.258991,1,-0.171614, 0.047207, 0.559695,1,-0.447132, 0.976547, 9.747657,1,0
1778256579785,  1515.915,  1515.910, 0.092475, 0.065271,-0.870868, 0.001035, 0.000248,-0.007682, 0.461719, 1.583623, 1.210699,1,-0.228100, 0.000825, 0.574603,1,-0.443454, 0.937269, 9.751679,1,0
1778256579811,  1515.935,  1515.935, 0.079736, 0.054331,-1.150198, 0.000915, 0.001041,-0.011606, 0.344641, 1.444066,-1.525171,1,-0.146452, 0.047298, 0.656630,1,-0.436863, 0.907623, 9.754781,1,0
1778256579833,  1515.960,  1515.955, 0.075215, 0.006783,-0.975479, 0.000879,-0.000044,-0.008949, 0.368931, 1.344724, 0.727589,1,-0.140446, 0.018854, 0.696046,1,-0.432193, 0.877417, 9.757752,1,0
1778256579856,  1515.985,  1515.980,-0.063564, 0.031526,-1.241209,-0.000703, 0.000536,-0.012151,-1.038878, 1.150205,-2.410423,1,-0.143779, 0.028003, 0.679813,1,-0.414578, 0.837469, 9.762026,1,0
1778256579881,  1516.005,  1516.005,-0.032936, 0.176042,-1.042726,-0.000012, 0.002146,-0.011743,-0.736904, 2.539123,-0.461508,1,-0.132461, 0.036874, 0.726525,1,-0.413177, 0.809580, 9.764438,1,0
1778256579903,  1516.030,  1516.025,-0.026648, 0.004706,-0.906902,-0.000362, 0.000697,-0.008628,-0.401887, 2.279656, 0.033566,1,-0.153660, 0.017374, 0.707094,1,-0.406420, 0.788985, 9.766407,1,0
1778256579930,  1516.055,  1516.055,-0.069727, 0.199264,-0.940447,-0.000390, 0.001704,-0.010299,-1.075780, 2.712157, 0.546806,1,-0.179438,-0.017800, 0.710420,1,-0.389726, 0.753352, 9.769900,1,0
1778256579951,  1516.075,  1516.075,-0.093663,-0.028933,-1.290503,-0.001133,-0.000067,-0.011130,-1.299406, 0.453039,-2.883999,1,-0.170472, 0.019851, 0.710712,1,-0.379836, 0.732333, 9.771888,1,0
1778256579973,  1516.100,  1516.095,-0.045656, 0.186582,-1.122292,-0.000514, 0.000777,-0.012347,-1.447727, 1.227931,-0.203751,1,-0.139878, 0.037851, 0.716985,1,-0.376807, 0.706861, 9.773881,1,0
1778256580000,  1516.125,  1516.125, 0.020244,-0.032323,-1.198768,-0.000027, 0.000603,-0.010605,-0.324123,-0.202868,-0.080768,1,-0.071707, 0.051429, 0.681794,1,-0.373979, 0.680140, 9.775886,1,0
1778256580021,  1516.150,  1516.145,-0.054791,-0.015325,-1.175103,-0.000215,-0.000942,-0.011386,-0.929670, 1.517755, 1.982787,1,-0.139274,-0.026200, 0.682130,1,-0.364248, 0.655661, 9.777925,1,0
1778256580043,  1516.170,  1516.165,-0.044501,-0.090222,-0.881165,-0.000571, 0.000069,-0.008182, 0.037092, 0.353920,-3.260301,1,-0.096151, 0.021752, 0.669547,1,-0.357187, 0.639532, 9.779254,1,0
1778256580070,  1516.195,  1516.195, 0.060958, 0.122650,-0.919781, 0.000731, 0.000281,-0.010438, 0.258577, 1.815828, 0.761613,1,-0.207188,-0.057610, 0.644252,1,-0.336166, 0.607291, 9.782054,1,0
1778256580092,  1516.220,  1516.215, 0.090520, 0.140780,-0.859100, 0.001540, 0.001372,-0.010201,-0.100520, 0.013947, 0.118335,1,-0.055768,-0.001487, 0.603424,1,-0.322191, 0.595453, 9.783252,1,0
1778256580113,  1516.240,  1516.235, 0.212755, 0.000579,-1.220580, 0.001442, 0.000245,-0.010469, 1.369062, 0.797689,-0.678072,1,-0.213145,-0.034913, 0.613883,1,-0.311552, 0.565728, 9.785360,1,0
1778256580140,  1516.265,  1516.265, 0.203218,-0.002307,-0.775154, 0.002436,-0.000542,-0.009562, 1.682329, 0.512222, 2.185463,1,-0.123713, 0.041139, 0.571781,1,-0.310864, 0.531556, 9.787297,1,0
1778256580162,  1516.290,  1516.285, 0.213029,-0.123550,-0.985057, 0.002071,-0.000819,-0.008250, 2.692953,-0.217506,-1.474688,1,-0.150541, 0.083983, 0.576180,1,-0.324567, 0.505711, 9.788222,1,0
1778256580183,  1516.310,  1516.305, 0.207396,-0.045638,-0.753083, 0.002454,-0.001211,-0.009416, 1.751403, 1.340554, 2.539042,1,-0.138207, 0.090479, 0.573456,1,-0.334457, 0.475113, 9.789422,1,0
1778256580210,  1516.335,  1516.335, 0.388605,-0.138620,-1.001503, 0.003144, 0.000142,-0.007963, 3.464004,-0.929654,-0.030310,1,-0.157643, 0.133531, 0.517075,1,-0.350366, 0.425396, 9.791152,1,0
1778256580232,  1516.360,  1516.355, 0.139325,-0.083309,-1.058075, 0.002150,-0.001061,-0.011132, 1.989969, 1.588473, 0.387383,1,-0.297923, 0.180263, 0.485064,1,-0.379556, 0.375673, 9.792098,1,0
1778256580253,  1516.380,  1516.375, 0.180918,-0.139430,-1.052123, 0.001597,-0.000601,-0.009212, 2.302548,-0.277839,-2.285140,1,-0.378055, 0.130204, 0.490542,1,-0.405958, 0.324844, 9.792857,1,0
1778256580280,  1516.405,  1516.405, 0.185291, 0.012259,-0.589988, 0.001792, 0.000077,-0.006993, 1.378320, 0.378813, 4.007602,1,-0.249118, 0.078806, 0.379323,1,-0.440906, 0.251355, 9.793509,1,0
1778256580302,  1516.430,  1516.425,-0.031994,-0.046582,-1.100612, 0.000259,-0.000657,-0.012326, 0.416214,-0.242163,-4.587035,1,-0.324618, 0.113653, 0.339084,1,-0.452717, 0.189347, 9.794365,1,0
1778256580323,  1516.450,  1516.445,-0.064533,-0.159329,-0.788711,-0.000503,-0.001167,-0.006795,-0.656986,-1.535478, 1.098147,1,-0.303878, 0.068680, 0.286870,1,-0.474120, 0.138141, 9.794209,1,0
1778256580350,  1516.475,  1516.475, 0.001665,-0.187021,-1.367410,-0.000440,-0.001618,-0.012890,-0.462098,-1.758906,-3.615028,1,-0.232188, 0.059471, 0.162801,1,-0.480241, 0.068153, 9.794647,1,0
1778256580372,  1516.500,  1516.495,-0.092023,-0.202215,-0.830889,-0.000593,-0.002543,-0.009303,-0.813499,-1.215368,-0.283884,1,-0.183560, 0.044922, 0.100848,1,-0.491758, 0.028288, 9.794271,1,0
1778256580393,  1516.520,  1516.515,-0.073904,-0.225328,-0.961667,-0.000364,-0.002230,-0.010026,-1.545388,-0.995747, 0.651469,1,-0.164159,-0.004695, 0.034439,1,-0.493054,-0.001525, 9.794248,1,0
1778256580420,  1516.545,  1516.545, 0.017994,-0.178300,-1.117078, 0.000113,-0.001584,-0.010749,-0.315969,-1.781938,-1.160570,1,-0.133352,-0.008242,-0.125248,1,-0.492160,-0.037762, 9.794220,1,0
1778256580442,  1516.570,  1516.565, 0.044814,-0.274977,-1.037278, 0.000265,-0.002448,-0.010922,-0.091637,-1.707525,-0.676896,1,-0.053765, 0.028899,-0.180893,1,-0.495177,-0.050647, 9.794009,1,0
1778256580465,  1516.590,  1516.585, 0.136656,-0.123450,-0.804288, 0.001480,-0.001371,-0.008907, 0.688089,-1.847278, 1.049084,1,-0.012636, 0.069143,-0.251504,1,-0.505694,-0.061665, 9.793408,1,0
1778256580491,  1516.615,  1516.615, 0.118055,-0.199761,-0.886163, 0.001155,-0.001728,-0.007382, 0.636196,-2.025366, 1.102258,1,-0.021315, 0.019202,-0.344785,1,-0.522050,-0.067619, 9.792511,1,0
1778256580512,  1516.640,  1516.635,-0.021911,-0.096685,-1.184864,-0.000473,-0.001149,-0.011574, 0.002716,-2.539095,-1.605978,1,-0.010972, 0.011275,-0.403775,1,-0.524074,-0.075839, 9.792343,1,0
1778256580535,  1516.660,  1516.660,-0.026844,-0.099906,-0.995464,-0.000005,-0.001457,-0.010984,-0.791716,-1.070181, 0.029810,1,-0.011011, 0.014614,-0.451858,1,-0.528794,-0.091536, 9.791955,1,0
1778256580561,  1516.685,  1516.685, 0.131258,-0.197368,-0.878481, 0.001505,-0.002044,-0.008975, 0.756696,-2.036324, 1.176810,1,-0.042299,-0.018238,-0.479670,1,-0.529785,-0.102929, 9.791788,1,0
1778256580582,  1516.710,  1516.705, 0.249428,-0.168995,-0.797713, 0.002295,-0.001704,-0.007799, 2.255629,-2.692252, 0.460136,1,-0.025499, 0.008837,-0.492767,1,-0.529595,-0.114138, 9.791675,1,0
1778256580605,  1516.730,  1516.730, 0.203456,-0.203356,-1.095423, 0.002264,-0.002648,-0.011846, 1.462515,-2.127008,-0.951155,1,-0.045217, 0.033158,-0.500168,1,-0.533535,-0.135026, 9.791195,1,0
1778256580631,  1516.755,  1516.755, 0.121138,-0.188257,-1.188091, 0.001820,-0.001763,-0.012531, 0.644119,-1.990903,-1.860709,1,-0.006728, 0.062254,-0.525913,1,-0.545533,-0.145854, 9.790379,1,0
1778256580652,  1516.780,  1516.775, 0.180528,-0.131372,-1.070519, 0.001585,-0.001765,-0.010484, 0.449116,-1.532101,-1.541455,1, 0.003741, 0.044244,-0.524681,1,-0.555530,-0.154661, 9.789680,1,0
1778256580675,  1516.800,  1516.800, 0.294917,-0.269685,-0.957099, 0.002195,-0.002630,-0.009558, 2.305538,-2.808173, 0.401787,1, 0.032688, 0.159442,-0.540739,1,-0.591298,-0.163453, 9.787443,1,0
1778256580701,  1516.825,  1516.825, 0.217035,-0.128403,-0.122748, 0.002081,-0.001338,-0.001592, 1.538331,-1.427076, 8.583699,1,-0.013888,-0.098607,-0.513794,1,-0.586708,-0.169270, 9.787620,1,0
1778256580722,  1516.850,  1516.845,-0.233963,-0.064142,-2.282874,-0.002402,-0.001095,-0.018687,-1.522325,-0.510218, 5.458670,1,-0.026959,-0.231240,-0.482499,1,-0.545108,-0.184975, 9.789741,1,0
1778256580745,  1516.870,  1516.870, 0.022491,-0.130014,-1.256139, 0.000668,-0.002162,-0.017803,-0.325783,-1.490072,-2.529465,1, 0.067059, 0.129301,-0.539257,1,-0.550003,-0.213920, 9.788877,1,0
1778256580771,  1516.895,  1516.895, 0.117547,-0.095232,-0.198973, 0.000844,-0.000058, 0.000525, 0.610141,-1.148784, 7.838012,1, 0.062962,-0.111382,-0.479113,1,-0.538807,-0.213746, 9.789504,1,0
1778256580792,  1516.920,  1516.915, 0.037335,-0.182496,-1.330016, 0.000590,-0.002470,-0.014755,-0.718427,-0.509625,-3.474480,1,-0.109384, 0.006256,-0.453381,1,-0.524995,-0.236472, 9.789732,1,0
1778256580815,  1516.945,  1516.940,-0.064209,-0.155025,-0.802786,-0.000435,-0.001951,-0.008287,-1.170428,-1.776417, 1.915740,1,-0.077581, 0.028316,-0.454608,1,-0.541261,-0.259339, 9.788266,1,0
1778256580841,  1516.965,  1516.965,-0.201867,-0.062093,-1.092695,-0.002293,-0.000215,-0.010465,-2.519571,-0.883736,-0.927762,1,-0.068143,-0.005568,-0.418706,1,-0.539391,-0.277653, 9.787868,1,0
1778256580863,  1516.990,  1516.985,-0.237815,-0.031978,-0.668021,-0.002259,-0.000520,-0.007236,-2.432660,-0.042396,-0.080767,1,-0.057751,-0.006110,-0.407685,1,-0.537426,-0.290449, 9.787604,1,0
1778256580885,  1517.015,  1517.010,-0.236391,-0.041751,-1.020152,-0.002048,-0.000486,-0.010555,-2.834505,-0.721102,-0.216186,1,-0.085742,-0.087584,-0.407653,1,-0.513172,-0.315004, 9.788146,1,0
1778256580911,  1517.035,  1517.035,-0.208903, 0.007545,-1.380692,-0.001994, 0.000217,-0.013617,-2.551749,-0.259845,-3.751924,1,-0.117200,-0.039749,-0.380271,1,-0.501469,-0.338097, 9.787983,1,0
1778256580933,  1517.060,  1517.055,-0.101120,-0.018961,-0.734106,-0.001050, 0.000119,-0.007898,-1.673689, 0.008684, 0.683792,1,-0.084965,-0.046240,-0.354617,1,-0.490632,-0.358080, 9.787821,1,0
1778256580955,  1517.085,  1517.080,-0.067059, 0.026026,-1.012080,-0.000539,-0.000034,-0.010327,-1.126196,-0.133049,-0.137365,1,-0.156356,-0.061163,-0.327481,1,-0.466267,-0.393642, 9.787646,1,0
1778256580981,  1517.105,  1517.105,-0.009272, 0.018584,-1.215976,-0.000190, 0.000235,-0.011478,-0.562234,-0.230416,-2.138029,1,-0.110658, 0.076057,-0.337388,1,-0.473233,-0.416612, 9.786362,1,0
1778256581003,  1517.130,  1517.125,-0.122860, 0.079417,-0.891679,-0.001030, 0.000472,-0.009150,-1.108909,-0.630008, 0.657445,1,-0.130467, 0.049214,-0.313349,1,-0.483080,-0.443593, 9.784695,1,0
1778256581025,  1517.155,  1517.150,-0.137946,-0.048585,-1.257010,-0.001637,-0.000342,-0.011574,-1.825049,-0.964446,-2.543957,1,-0.178112,-0.046658,-0.296009,1,-0.470352,-0.493982, 9.782900,1,0
1778256581051,  1517.175,  1517.175,-0.153777, 0.061357,-1.134007,-0.001500, 0.000402,-0.012951,-1.969080, 0.067103,-1.339610,1,-0.228128,-0.034214,-0.290585,1,-0.459482,-0.542135, 9.780867,1,0
1778256581073,  1517.200,  1517.195, 0.174501,-0.089522,-0.693816, 0.001642,-0.000124,-0.005815, 0.789671,-0.672166, 1.957657,1,-0.181716,-0.041871,-0.262831,1,-0.448074,-0.582324, 9.779085,1,0
1778256581096,  1517.225,  1517.220, 0.339474,-0.068512,-0.929234, 0.002973,-0.000734,-0.009108, 2.886300,-1.304179, 0.663548,1,-0.159473, 0.076380,-0.274897,1,-0.444629,-0.637651, 9.775791,1,0
1778256581121,  1517.245,  1517.245, 0.242437,-0.059656,-0.974288, 0.003781,-0.001127,-0.009105, 1.902673,-1.239443, 0.218762,1,-0.088388, 0.206148,-0.338002,1,-0.480527,-0.657673, 9.772765,1,0
1778256581143,  1517.270,  1517.265,-0.149955,-0.002324,-1.270362,-0.001570,-0.000323,-0.013519,-1.800635,-1.671876,-2.016683,1,-0.043825, 0.009462,-0.442677,1,-0.483017,-0.673962, 9.771533,1,0
1778256581170,  1517.295,  1517.295,-0.004712,-0.203050,-0.787411,-0.000140,-0.002543,-0.008430,-0.537571,-2.664957, 2.049271,1, 0.040203, 0.066510,-0.450134,1,-0.492466,-0.673172, 9.771115,1,0
1778256581191,  1517.315,  1517.315, 0.006666,-0.151896,-0.793335, 0.000208,-0.001908,-0.006515,-0.415095,-2.153881, 1.992358,1, 0.023035,-0.080078,-0.542655,1,-0.476831,-0.664400, 9.772491,1,0
1778256581213,  1517.340,  1517.335, 0.047542,-0.214238,-1.179656, 0.000695,-0.002337,-0.013307, 0.357861,-2.210590,-4.788656,1, 0.135533, 0.027036,-0.616675,1,-0.466333,-0.646546, 9.774196,1,0
1778256581240,  1517.365,  1517.365, 0.202988,-0.269701,-0.865155, 0.001577,-0.001770,-0.006946, 1.524122,-3.243073, 1.292988,1, 0.309467, 0.026392,-0.675429,1,-0.466045,-0.589577, 9.777811,1,0
1778256581261,  1517.390,  1517.385,-0.003605,-0.202027,-1.131381, 0.000107,-0.002486,-0.011832,-0.141039,-1.642919, 1.105699,1, 0.333502, 0.023639,-0.769153,1,-0.459119,-0.540970, 9.780948,1,0
1778256581283,  1517.410,  1517.405, 0.030300,-0.269893,-1.160712, 0.000188,-0.001701,-0.010454,-0.277508,-1.503885,-1.351494,1, 0.361451, 0.065491,-0.824085,1,-0.461604,-0.478597, 9.784081,1,0
1778256581310,  1517.435,  1517.435, 0.005683,-0.001368,-0.773006, 0.000228, 0.000157,-0.008445,-0.415984,-0.401571, 2.206997,1, 0.384964, 0.065671,-0.812926,1,-0.472754,-0.377377, 9.787976,1,0
1778256581332,  1517.460,  1517.455, 0.154129,-0.177307,-1.144520, 0.001332,-0.001168,-0.010236, 0.171374,-1.052843, 0.233209,1, 0.314240, 0.012665,-0.834445,1,-0.472429,-0.317756, 9.790109,1,0
1778256581353,  1517.480,  1517.475, 0.216061, 0.041324,-0.870492, 0.002136, 0.000226,-0.009347, 1.392078,-2.343855,-0.286328,1, 0.305046, 0.032323,-0.809841,1,-0.471731,-0.268338, 9.791621,1,0
1778256581380,  1517.505,  1517.505, 0.120326, 0.039234,-1.036569, 0.001444,-0.000544,-0.010821, 0.712779, 0.155141,-0.372451,1, 0.122683,-0.006484,-0.727878,1,-0.466478,-0.226873, 9.792921,1,0
1778256581402,  1517.530,  1517.525, 0.175683, 0.073385,-0.995587, 0.001674, 0.001199,-0.009169, 1.196947,-1.178635,-1.206526,1, 0.104500, 0.000415,-0.695596,1,-0.461336,-0.210439, 9.793532,1,0
1778256581423,  1517.550,  1517.545, 0.169636, 0.061417,-0.961237, 0.001425, 0.000122,-0.010470, 1.344647,-1.302777, 0.293183,1, 0.086759,-0.015469,-0.620085,1,-0.451927,-0.204976, 9.794086,1,0
1778256581450,  1517.575,  1517.575, 0.130477,-0.041390,-0.970893, 0.001522,-0.001204,-0.010096, 0.831966,-0.609339, 0.273107,1, 0.009189,-0.017971,-0.575320,1,-0.446645,-0.203975, 9.794350,1,0
1778256581472,  1517.600,  1517.595, 0.147098, 0.014649,-1.032904, 0.001310, 0.000739,-0.009155, 0.660704,-1.109499, 0.344619,1, 0.053181,-0.047662,-0.563772,1,-0.437296,-0.201047, 9.794832,1,0
1778256581493,  1517.620,  1517.615, 0.196822, 0.024532,-0.855819, 0.001623, 0.000015,-0.008992, 1.427693,-1.726739,-0.139050,1, 0.086234,-0.011905,-0.537307,1,-0.427859,-0.199265, 9.795285,1,0
1778256581520,  1517.645,  1517.645, 0.095578,-0.013073,-0.482088, 0.001359,-0.000828,-0.005680, 0.526510,-0.324706, 5.068401,1, 0.011161,-0.129173,-0.478841,1,-0.406466,-0.196781, 9.796247,1,0
1778256581542,  1517.670,  1517.665, 0.075448, 0.004094,-1.559768, 0.001129,-0.000656,-0.016986,-0.488467,-0.803666,-6.060631,1,-0.069712,-0.045224,-0.449362,1,-0.383318,-0.212481, 9.796852,1,0
1778256581563,  1517.690,  1517.685, 0.161124,-0.040402,-0.699000, 0.001418,-0.000161,-0.005638, 1.773717,-0.572400,-1.386902,1,-0.068833, 0.060943,-0.424043,1,-0.393305,-0.231002, 9.796037,1,0
1778256581590,  1517.715,  1517.715, 0.096080,-0.023163,-0.973088, 0.000928,-0.000743,-0.009136, 0.554260,-0.502288, 0.252373,1,-0.260812,-0.024107,-0.342958,1,-0.386915,-0.283689, 9.794907,1,0
1778256581612,  1517.740,  1517.735,-0.175345, 0.034218,-0.972436,-0.001791,-0.000169,-0.010682,-1.123517,-0.680868,-0.870926,1,-0.220739, 0.017844,-0.322402,1,-0.387491,-0.332142, 9.793361,1,0
1778256581633,  1517.760,  1517.755,-0.280738, 0.014855,-0.942621,-0.002240,-0.000576,-0.009925,-2.151111,-0.052918, 1.026721,1,-0.204973, 0.013273,-0.294606,1,-0.389835,-0.378335, 9.791592,1,0
1778256581660,  1517.785,  1517.785,-0.258679,-0.098538,-1.037511,-0.002074,-0.001067,-0.009890,-2.924758,-1.397786,-0.385042,1,-0.175652,-0.015746,-0.319464,1,-0.387056,-0.437326, 9.789245,1,0
1778256581682,  1517.810,  1517.805,-0.204194,-0.048168,-1.594055,-0.002372,-0.000875,-0.015686,-1.968790,-0.837233,-4.654888,1,-0.142952, 0.065573,-0.325514,1,-0.390089,-0.468876, 9.787664,1,0
1778256581705,  1517.830,  1517.830,-0.043505,-0.035159,-0.710123,-0.000240,-0.000658,-0.008766,-0.857774,-0.844720, 2.820470,1,-0.120159, 0.170978,-0.322954,1,-0.435948,-0.504111, 9.783977,1,0
1778256581731,  1517.855,  1517.855,-0.050619,-0.144665,-0.719865,-0.000362,-0.000672,-0.005552,-0.947967,-1.933304, 2.723257,1,-0.110335, 0.066448,-0.354665,1,-0.453050,-0.518572, 9.782444,1,0
1778256581752,  1517.880,  1517.875,-0.146340,-0.142642,-1.016835,-0.001695,-0.000969,-0.010454,-1.229324,-0.689653,-1.588939,1,-0.092071, 0.076792,-0.379879,1,-0.465161,-0.539210, 9.780760,1,0
1778256581775,  1517.900,  1517.900,-0.096451, 0.021771,-0.702978,-0.000986, 0.000445,-0.007089,-1.413052,-0.357055, 2.885021,1,-0.108466,-0.004641,-0.395581,1,-0.466330,-0.574516, 9.778694,1,0
1778256581801,  1517.925,  1517.925,-0.025250, 0.002108,-0.856914,-0.000335,-0.000139,-0.008291,-0.701839,-0.571389, 1.374764,1,-0.126366,-0.084911,-0.406197,1,-0.450832,-0.596526, 9.778103,1,0
1778256581822,  1517.950,  1517.945, 0.101839, 0.007973,-1.075596, 0.000838,-0.000066,-0.011121, 0.042269,-1.696860,-2.265934,1,-0.095525,-0.029748,-0.417256,1,-0.435223,-0.621240, 9.777271,1,0
1778256581845,  1517.970,  1517.970, 0.277871,-0.108431,-1.080427, 0.002905,-0.001523,-0.011870, 2.267426,-1.716749,-0.821213,1,-0.124185, 0.100584,-0.416842,1,-0.459818,-0.657874, 9.773748,1,0
1778256581871,  1517.995,  1517.995, 0.174674,-0.225598,-1.238856, 0.001297,-0.002203,-0.011788, 1.234668,-2.886637,-2.377289,1,-0.028056, 0.192151,-0.485563,1,-0.483237,-0.675887, 9.771389,1,0
1778256581892,  1518.020,  1518.015, 0.087454,-0.146723,-0.920775, 0.000893,-0.001884,-0.009271, 0.256958,-1.921674, 1.100260,1,-0.075722, 0.184276,-0.542288,1,-0.511530,-0.693488, 9.768715,1,0
1778256581915,  1518.040,  1518.040, 0.039325,-0.194908,-1.093384, 0.000248,-0.001737,-0.011293,-0.138733,-2.623825,-0.955762,1, 0.004375, 0.085009,-0.594969,1,-0.525671,-0.713283, 9.766539,1,0
1778256581941,  1518.065,  1518.065, 0.119489,-0.141462,-0.951643, 0.001039,-0.001259,-0.009257, 0.641491,-2.104825, 0.433540,1, 0.003530, 0.042272,-0.600055,1,-0.530242,-0.718463, 9.765912,1,0
1778256581962,  1518.090,  1518.085, 0.117970,-0.270300,-1.211858, 0.001165,-0.002318,-0.012055, 0.890215,-1.926331, 0.799972,1, 0.085840,-0.000272,-0.635939,1,-0.520427,-0.714263, 9.766748,1,0
1778256581985,  1518.110,  1518.110, 0.301230,-0.262961,-1.207385, 0.002911,-0.002441,-0.012019, 2.438055,-3.279302,-2.072429,1, 0.094550, 0.078289,-0.732631,1,-0.516801,-0.698796, 9.768060,1,0
1778256582011,  1518.135,  1518.135, 0.251326,-0.157263,-0.806001, 0.002896,-0.001028,-0.007258, 1.944853,-2.219710, 1.865225,1, 0.204594, 0.062242,-0.766538,1,-0.520093,-0.672393, 9.769737,1,0
1778256582032,  1518.160,  1518.155,-0.142014,-0.179704,-1.637407,-0.001910,-0.001807,-0.016097,-2.696714,-2.546259, 0.550338,1, 0.164393,-0.114837,-0.906169,1,-0.489248,-0.652719, 9.772665,1,0
1778256582055,  1518.185,  1518.180,-0.023940,-0.226510,-1.208670,-0.000349,-0.001665,-0.012642,-0.712100,-2.831824,-2.077027,1, 0.308957, 0.061360,-0.913800,1,-0.477454,-0.602296, 9.776485,1,0
1778256582081,  1518.205,  1518.205, 0.128759,-0.261565,-0.608356, 0.001620,-0.002251,-0.006123, 0.790586,-3.128731, 3.813105,1, 0.264548,-0.010441,-0.891318,1,-0.470184,-0.556763, 9.779536,1,0
1778256582103,  1518.230,  1518.225, 0.143706,-0.411363,-0.881851, 0.001339,-0.003922,-0.008413, 1.674209,-3.383103, 2.951195,1, 0.338330,-0.029478,-0.933111,1,-0.453340,-0.503884, 9.783198,1,0
1778256582125,  1518.255,  1518.250,-0.008434,-0.330116,-1.387163, 0.000568,-0.002972,-0.013777,-0.515683,-3.671755,-3.815981,1, 0.331009,-0.010974,-1.050563,1,-0.431175,-0.425560, 9.787920,1,0
1778256582151,  1518.275,  1518.275, 0.237672,-0.465649,-1.351885, 0.002596,-0.003463,-0.013704, 1.875714,-4.923920,-3.467918,1, 0.529521, 0.205040,-1.164286,1,-0.460114,-0.342642, 9.789856,1,0
1778256582173,  1518.300,  1518.295, 0.251468,-0.238428,-0.508724, 0.002182,-0.002869,-0.004081, 2.319908,-3.066938, 5.365780,1, 0.510662, 0.060535,-1.184376,1,-0.475033,-0.260432, 9.791676,1,0
1778256582195,  1518.325,  1518.320, 0.063354,-0.532114,-1.424729, 0.000074,-0.004771,-0.013171, 0.156470,-5.384369,-4.177608,1, 0.445528, 0.032341,-1.204831,1,-0.465182,-0.153988, 9.794400,1,0
1778256582221,  1518.345,  1518.345, 0.052163,-0.463447,-1.238789,-0.000060,-0.004542,-0.012294, 0.038144,-4.634361,-2.353574,1, 0.451803, 0.084744,-1.231858,1,-0.475680,-0.077268, 9.794802,1,0
1778256582243,  1518.370,  1518.365,-0.059039,-0.072299,-1.157044,-0.000794,-0.000070,-0.010689,-0.263168,-2.316204, 3.266500,1, 0.437569,-0.024435,-1.163913,1,-0.474290,-0.002332, 9.795174,1,0
1778256582266,  1518.395,  1518.390,-0.024707,-0.150695,-1.079704,-0.000601,-0.001453,-0.011562,-0.714968,-1.405849,-0.793294,1, 0.325405, 0.012045,-1.082100,1,-0.473298, 0.080486, 9.794891,1,0
1778256582291,  1518.415,  1518.415, 0.074996, 0.049386,-0.606901, 0.000472,-0.000067,-0.005899, 0.265572, 0.602045, 3.843005,1, 0.237086,-0.061001,-1.025275,1,-0.468362, 0.123591, 9.794680,1,0
1778256582313,  1518.440,  1518.435,-0.084906,-0.252540,-1.494437,-0.001102,-0.002774,-0.014894,-1.251875,-0.036910, 1.671694,1, 0.134881,-0.090897,-0.866865,1,-0.452077, 0.146339, 9.795132,1,0
1778256582336,  1518.465,  1518.460,-0.126260, 0.003568,-0.815697,-0.001235,-0.000136,-0.008619,-1.699076, 0.178327, 1.795512,1,-0.042869, 0.028675,-0.778210,1,-0.462138, 0.140858, 9.794742,1,0
1778256582361,  1518.485,  1518.485,-0.215597, 0.039150,-0.716463,-0.002106, 0.000564,-0.007146,-2.565744, 0.510574, 2.769332,1,-0.123705,-0.096149,-0.721243,1,-0.448755, 0.121745, 9.795621,1,0
1778256582383,  1518.510,  1518.505,-0.104697, 0.138923,-1.298674,-0.000896, 0.001389,-0.014165,-2.534817, 0.564001,-3.690444,1,-0.265185,-0.050899,-0.605623,1,-0.430162, 0.073131, 9.796938,1,0
1778256582410,  1518.535,  1518.535, 0.054367, 0.172284,-0.541810, 0.000663, 0.001483,-0.007285, 0.099210, 1.685109, 4.483694,1,-0.300662,-0.032809,-0.413323,1,-0.432935,-0.014359, 9.797078,1,0
1778256582431,  1518.555,  1518.555, 0.027205, 0.198715,-0.951978, 0.000476, 0.001676,-0.008973,-0.155145, 1.878860, 0.461594,1,-0.376254,-0.079750,-0.332334,1,-0.419380,-0.082047, 9.797335,1,0
1778256582453,  1518.580,  1518.575, 0.044224, 0.198845,-1.361732, 0.000413, 0.002314,-0.013147,-0.729277, 1.369913,-3.760389,1,-0.351158,-0.011601,-0.259258,1,-0.412148,-0.152292, 9.796802,1,0
1778256582480,  1518.605,  1518.605, 0.027647, 0.170871,-1.020247,-0.000302, 0.001580,-0.010303,-0.136241, 1.437458,-0.209920,1,-0.296390,-0.030275,-0.162429,1,-0.406302,-0.247670, 9.795099,1,0
1778256582501,  1518.630,  1518.625, 0.139317, 0.116827,-0.940446, 0.001154, 0.001511,-0.009609, 0.518221, 0.799693,-2.138793,1,-0.186013, 0.008549,-0.128124,1,-0.400862,-0.287773, 9.794227,1,0
1778256582523,  1518.650,  1518.645, 0.104709, 0.111412,-0.689825, 0.001151, 0.001043,-0.008216, 0.513020, 0.992181, 2.517848,1,-0.063234, 0.021720,-0.108718,1,-0.404007,-0.308886, 9.793454,1,0
1778256582550,  1518.675,  1518.675,-0.069201, 0.058447,-1.111658,-0.000343, 0.000671,-0.010975,-1.080113, 0.274937,-1.107749,1, 0.103196,-0.005004,-0.115224,1,-0.401217,-0.295163, 9.793992,1,0
1778256582572,  1518.700,  1518.695,-0.101592,-0.115902,-1.091341,-0.001030,-0.000809,-0.010857,-2.230922,-0.118666,-1.606782,1, 0.241599,-0.011582,-0.146179,1,-0.401328,-0.253167, 9.795163,1,0
1778256582593,  1518.720,  1518.715, 0.069193,-0.183929,-0.819250,-0.000077,-0.000970,-0.007019,-0.301672,-1.414153, 1.184322,1, 0.400047,-0.043565,-0.222488,1,-0.397646,-0.182365, 9.796887,1,0
1778256582620,  1518.745,  1518.745, 0.117778,-0.189253,-0.841820, 0.000826,-0.001635,-0.008142, 0.781267,-1.919200, 1.543869,1, 0.527020,-0.100248,-0.319930,1,-0.370547,-0.047207, 9.799533,1,0
1778256582642,  1518.770,  1518.765, 0.188061,-0.133602,-1.076484, 0.001899,-0.001649,-0.011739, 1.029368,-0.805223, 1.819104,1, 0.547048,-0.121597,-0.385184,1,-0.347765, 0.056013, 9.800322,1,0
1778256582663,  1518.790,  1518.785, 0.209643,-0.211652,-1.086390, 0.002311,-0.001922,-0.009501, 1.387297,-1.801835, 0.910924,1, 0.573445,-0.108787,-0.404742,1,-0.333172, 0.170159, 9.799512,1,0
1778256582690,  1518.815,  1518.815, 0.294320,-0.104076,-1.279776, 0.002670,-0.000956,-0.011756, 2.575202,-0.695622,-2.754018,1, 0.604105,-0.040970,-0.453019,1,-0.310277, 0.343405, 9.795723,1,0
1778256582712,  1518.840,  1518.835, 0.290185,-0.122847,-0.775552, 0.002985,-0.001303,-0.008938, 3.762023,-0.344299, 0.419925,1, 0.595972, 0.027134,-0.490128,1,-0.321731, 0.463554, 9.790403,1,0
1778256582733,  1518.860,  1518.855, 0.307280,-0.144129,-1.099955, 0.002771,-0.001519,-0.011702, 1.553194,-0.436654, 0.937998,1, 0.564603, 0.043220,-0.439387,1,-0.328701, 0.567749, 9.784682,1,0
1778256582760,  1518.885,  1518.885, 0.098166,-0.141317,-0.913467, 0.000829,-0.001186,-0.008798, 0.619548,-0.695125, 0.818213,1, 0.382347,-0.019608,-0.360188,1,-0.343312, 0.702227, 9.775449,1,0
1778256582782,  1518.910,  1518.905, 0.079098,-0.020685,-0.989013, 0.000522,-0.000580,-0.010682, 0.510572, 0.445946, 0.933302,1, 0.372190,-0.035887,-0.326827,1,-0.340386, 0.786358, 9.769143,1,0
1778256582803,  1518.930,  1518.925, 0.101355,-0.015625,-0.866624, 0.000723,-0.000571,-0.009040, 0.520497,-0.082661, 0.096623,1, 0.381285, 0.006112,-0.303195,1,-0.342081, 0.866314, 9.762319,1,0
1778256582830,  1518.955,  1518.955, 0.121172,-0.048656,-0.856221, 0.000597,-0.000787,-0.008541, 0.852051, 0.486948, 1.356680,1, 0.394006,-0.059444,-0.237073,1,-0.335125, 0.976081, 9.752196,1,0
1778256582852,  1518.980,  1518.975, 0.082838,-0.051079,-1.267297, 0.000192, 0.000276,-0.012201, 0.259839,-0.296439,-1.559002,1, 0.351449,-0.074238,-0.211075,1,-0.322433, 1.046303, 9.745341,1,0
1778256582873,  1519.000,  1518.995, 0.066442,-0.058292,-0.886228, 0.000535, 0.000489,-0.008456,-0.016686,-0.601906,-1.028376,1, 0.362131,-0.033931,-0.168339,1,-0.313828, 1.113539, 9.738169,1,0
1778256582900,  1519.025,  1519.025, 0.026963, 0.001306,-1.141193, 0.000201, 0.000628,-0.011300,-0.034032, 1.209587,-1.462510,1, 0.317763,-0.065430,-0.070283,1,-0.296692, 1.206550, 9.727620,1,0
1778256582922,  1519.050,  1519.045, 0.228839,-0.158371,-1.319255, 0.001545,-0.001322,-0.014881,-0.175626, 1.881953,-7.388784,1, 0.224748, 0.072863, 0.008306,1,-0.297682, 1.247766, 9.722389,1,0
1778256582945,  1519.070,  1519.070, 0.288841,-0.129809,-0.239623, 0.002840,-0.000577,-0.000565, 2.514164, 0.053207, 7.361433,1, 0.357148, 0.010386, 0.041720,1,-0.318546, 1.337281, 9.709819,1,0
1778256582971,  1519.095,  1519.095, 0.219617, 0.072545,-1.043659, 0.002347, 0.001084,-0.009943, 1.844025, 2.086677,-0.530005,1, 0.263658,-0.024626, 0.062206,1,-0.308646, 1.383461, 9.703668,1,0
1778256582992,  1519.120,  1519.115, 0.033517,-0.047515,-0.999382, 0.000426,-0.001030,-0.009997, 0.454074, 2.367911,-1.130823,1, 0.344148, 0.081185, 0.150938,1,-0.319165, 1.437984, 9.695397,1,0
1778256583015,  1519.140,  1519.140,-0.028797,-0.067417,-1.048395,-0.000352,-0.000813,-0.009425,-0.611086, 0.855084,-0.598093,1, 0.288141, 0.009499, 0.226614,1,-0.327890, 1.525339, 9.681746,1,0
1778256583041,  1519.165,  1519.165,-0.123812,-0.041589,-0.959697,-0.001048,-0.001054,-0.010317,-1.528157, 1.168225, 0.262657,1, 0.284715,-0.064417, 0.273949,1,-0.310616, 1.585113, 9.672709,1,0
1778256583062,  1519.190,  1519.185,-0.084993, 0.079779,-1.043598,-0.000869, 0.000506,-0.010930,-1.728195, 0.907494,-1.555493,1, 0.315151,-0.048013, 0.313759,1,-0.296348, 1.645412, 9.663083,1,0
1778256583085,  1519.210,  1519.210, 0.086786, 0.149716,-0.947021, 0.000531, 0.000675,-0.009768, 0.581940, 3.193502, 0.362830,1, 0.222251,-0.039328, 0.351957,1,-0.266002, 1.732421, 9.648748,1,0
1778256583111,  1519.235,  1519.235, 0.086089, 0.135513,-1.211139, 0.001289, 0.001005,-0.011284, 0.589440, 3.110853,-2.237192,1, 0.190579, 0.038470, 0.366488,1,-0.253910, 1.788072, 9.638917,1,0
1778256583132,  1519.260,  1519.255, 0.069526, 0.116477,-0.804321, 0.001439, 0.001082,-0.009589, 0.028625, 2.569391, 0.175609,1, 0.235784, 0.075423, 0.449513,1,-0.247858, 1.846048, 9.628139,1,0
1778256583155,  1519.280,  1519.280, 0.089978, 0.150978,-0.925058, 0.001790, 0.001829,-0.009268, 0.640298, 3.402112, 0.541783,1, 0.330171, 0.096735, 0.528218,1,-0.241813, 1.932035, 9.611407,1,0
1778256583181,  1519.305,  1519.305, 0.034470, 0.270139,-0.928260, 0.000686, 0.002022,-0.011194, 0.099453, 4.622181, 0.500036,1, 0.288068, 0.106929, 0.589075,1,-0.238157, 1.982278, 9.601262,1,0
1778256583202,  1519.330,  1519.325,-0.026634, 0.040068,-0.901505,-0.000144, 0.000487,-0.008971, 0.055625, 2.564827,-1.916399,1, 0.154443, 0.116841, 0.624562,1,-0.237144, 2.002301, 9.597132,1,0
1778256583225,  1519.350,  1519.350, 0.045300, 0.144538,-1.194236, 0.000111, 0.001365,-0.011936, 0.233779, 3.471754,-2.124704,1, 0.020417, 0.083958, 0.878208,1,-0.207285, 2.055537, 9.586563,1,0
1778256583251,  1519.375,  1519.375, 0.129341, 0.240638,-1.180379, 0.001283, 0.002447,-0.010884, 1.072614, 4.422863,-1.990365,1, 0.020022, 0.129262, 0.935423,1,-0.193592, 2.064208, 9.584986,1,0
1778256583272,  1519.400,  1519.395, 0.158166, 0.325726,-1.190795, 0.001560, 0.002886,-0.012575, 0.272750, 4.720801,-1.274287,1,-0.047653, 0.072046, 1.094333,1,-0.168977, 2.055471, 9.587329,1,0
1778256583295,  1519.425,  1519.420, 0.249126, 0.491527,-0.949144, 0.003234, 0.004531,-0.011082, 2.282290, 6.836368, 0.287892,1,-0.269117, 0.279369, 1.230237,1,-0.161432, 2.008540, 9.597400,1,0
1778256583321,  1519.445,  1519.445, 0.187413, 0.406394,-0.819316, 0.002768, 0.004797,-0.007752, 1.672897, 5.962273, 1.569157,1,-0.258938, 0.288257, 1.344193,1,-0.165349, 1.969697, 9.605381,1,0
1778256583343,  1519.470,  1519.465, 0.240814, 0.474627,-1.171664, 0.002182, 0.004058,-0.013385, 0.793642, 5.420072,-0.720450,1,-0.342749, 0.361147, 1.438252,1,-0.171915, 1.908379, 9.617636,1,0
1778256583365,  1519.495,  1519.490, 0.037679, 0.321716,-0.946572, 0.001616, 0.003257,-0.010004, 0.172853, 4.965235, 0.353397,1,-0.447784, 0.366568, 1.548187,1,-0.198968, 1.797510, 9.638452,1,0
1778256583391,  1519.515,  1519.515, 0.069926, 0.219454,-1.131042, 0.000755, 0.002919,-0.010811, 0.472497, 3.886376,-1.442022,1,-0.413442, 0.351347, 1.564654,1,-0.215389, 1.722624, 9.651765,1,0
1778256583413,  1519.540,  1519.535, 0.033846, 0.187945,-0.949933, 0.001113, 0.001686,-0.009631, 0.712579, 2.889464,-0.199135,1,-0.369523, 0.336129, 1.537279,1,-0.230849, 1.649005, 9.664258,1,0
1778256583435,  1519.565,  1519.560, 0.000658, 0.077233,-1.105300, 0.000698, 0.001223,-0.010999,-0.239443, 2.299774,-1.157828,1,-0.404920, 0.301084, 1.418037,1,-0.248203, 1.531006, 9.683223,1,0
1778256583461,  1519.585,  1519.585,-0.097553,-0.013522,-0.861717,-0.001298, 0.000092,-0.009034,-1.212509, 1.337408, 1.241908,1,-0.338719, 0.249723, 1.348506,1,-0.257224, 1.460658, 9.693849,1,0
1778256583483,  1519.610,  1519.605,-0.171012, 0.098193,-0.797355,-0.000121, 0.001415,-0.008988,-0.087987, 0.181691,-2.748405,1,-0.391042, 0.226470, 1.250673,1,-0.263241, 1.390481, 9.704001,1,0
1778256583506,  1519.635,  1519.630,-0.144762,-0.098764,-0.903897,-0.001684, 0.000099,-0.008296,-1.693455, 0.351341, 0.849359,1,-0.189411, 0.167097, 1.060608,1,-0.274535, 1.314950, 9.714212,1,0
1778256583531,  1519.655,  1519.655,-0.014543,-0.093836,-1.215178,-0.001443,-0.001211,-0.010891,-0.418929, 0.358314,-2.197809,1,-0.281411, 0.173287, 0.977807,1,-0.277689, 1.270685, 9.720012,1,0
1778256583553,  1519.680,  1519.675,-0.178772,-0.108093,-0.763994,-0.001510,-0.000946,-0.008038, 0.308578, 1.329802,-1.465483,1,-0.282100, 0.171364, 0.891801,1,-0.283943, 1.233859, 9.724575,1,0
1778256583576,  1519.705,  1519.700,-0.186341,-0.089576,-0.888437,-0.002104,-0.000947,-0.008321,-2.105936, 0.332813, 1.014983,1,-0.094328, 0.066906, 0.718252,1,-0.277854, 1.208974, 9.727876,1,0
1778256583601,  1519.725,  1519.725,-0.014210,-0.063959,-1.369851,-0.001315,-0.001484,-0.013219,-0.416820, 0.561707,-3.703297,1,-0.162056, 0.114175, 0.634409,1,-0.278617, 1.184446, 9.730871,1,0
1778256583623,  1519.750,  1519.745,-0.204995,-0.217862,-0.892654,-0.001599,-0.001446,-0.008498, 0.344688, 1.349966, 0.639316,1,-0.189323, 0.071433, 0.612410,1,-0.282694, 1.166159, 9.732962,1,0
1778256583650,  1519.775,  1519.775,-0.086118,-0.242501,-1.051396,-0.001236,-0.002175,-0.010108,-1.130443,-1.234096,-0.575182,1,-0.118977, 0.083391, 0.516371,1,-0.286616, 1.140807, 9.735851,1,0
1778256583671,  1519.795,  1519.795,-0.008075,-0.104460,-1.021401,-0.000860,-0.001319,-0.009408,-0.365806, 0.095847,-0.278284,1,-0.198830, 0.059680, 0.469854,1,-0.286790, 1.114519, 9.738891,1,0
1778256583693,  1519.820,  1519.815,-0.020900,-0.177531,-1.056862, 0.000026,-0.001085,-0.009760,-0.249630, 0.205568,-0.377438,1,-0.194626, 0.074884, 0.410512,1,-0.288477, 1.089013, 9.741726,1,0
1778256583720,  1519.845,  1519.845,-0.044969,-0.167356,-0.731417,-0.000230,-0.001093,-0.007873,-0.723121,-0.582258, 2.572477,1,-0.060855, 0.023203, 0.337998,1,-0.281711, 1.057355, 9.745410,1,0
1778256583742,  1519.870,  1519.865, 0.144507,-0.083871,-1.065695, 0.001530,-0.000550,-0.010226,-0.209381,-1.034708,-0.866481,1,-0.136622, 0.081035, 0.276512,1,-0.290519, 1.033903, 9.747667,1,0
1778256583763,  1519.890,  1519.885, 0.153853,-0.066187,-0.931146, 0.001506,-0.000829,-0.009790, 0.171485,-1.090446, 1.069446,1,-0.115336, 0.084167, 0.259557,1,-0.300067, 1.013088, 9.749564,1,0
1778256583790,  1519.915,  1519.915, 0.095081,-0.033205,-0.992846, 0.001265,-0.000469,-0.010309, 0.621382, 0.653232, 0.016222,1,-0.114572, 0.059251, 0.180704,1,-0.312325, 0.975483, 9.753014,1,0
1778256583812,  1519.940,  1519.935, 0.062689,-0.193563,-1.038220, 0.000607,-0.002607,-0.009224,-0.136898, 0.026523, 0.392874,1,-0.084336, 0.084648, 0.145264,1,-0.323896, 0.951154, 9.755039,1,0
1778256583833,  1519.960,  1519.955, 0.152545,-0.106138,-0.967196, 0.000871,-0.001616,-0.009570,-0.048110,-1.137979,-0.074765,1,-0.063241, 0.043384, 0.109503,1,-0.333407, 0.929764, 9.756781,1,0
1778256583860,  1519.985,  1519.985, 0.179668,-0.044555,-0.906433, 0.001397,-0.001224,-0.010550, 1.413168, 0.460559, 0.870191,1,-0.148404, 0.063601, 0.059636,1,-0.350580, 0.892953, 9.759617,1,0
1778256583882,  1520.010,  1520.005, 0.136758,-0.188919,-0.974270, 0.000798,-0.001640,-0.008922, 2.008947,-0.009377,-0.976777,1,-0.070838, 0.084992, 0.008838,1,-0.367818, 0.880030, 9.760156,1,0
1778256583903,  1520.030,  1520.025, 0.093483,-0.222440,-0.922012, 0.000881,-0.002557,-0.010038, 1.400097,-0.239220, 0.827468,1,-0.012391, 0.078449, 0.007913,1,-0.383862, 0.869892, 9.760447,1,0
1778256583930,  1520.055,  1520.055, 0.129135,-0.257032,-0.909106, 0.000917,-0.002119,-0.008182, 0.861956,-1.654285, 0.844649,1,-0.019321, 0.040505,-0.084683,1,-0.405914, 0.865632, 9.759933,1,0
1778256583952,  1520.080,  1520.075,-0.016683,-0.196001,-1.002188, 0.000011,-0.001441,-0.010503, 0.506181,-0.553456,-0.457115,1,-0.048316, 0.002029,-0.099568,1,-0.407147, 0.862524, 9.760158,1,0
1778256583973,  1520.100,  1520.095, 0.037572,-0.239542,-1.005325, 0.000228,-0.001718,-0.009473, 1.407395, 0.168434,-1.685304,1, 0.014807, 0.077578,-0.151680,1,-0.420787, 0.870825, 9.758842,1,0
1778256584000,  1520.125,  1520.125, 0.035797,-0.230026,-0.996695, 0.000108,-0.002139,-0.009626,-0.081504,-1.369221,-0.017326,1, 0.043119, 0.035745,-0.132315,1,-0.434216, 0.887650, 9.756737,1,0
1778256584022,  1520.150,  1520.145,-0.031130,-0.112281,-0.878742, 0.000280,-0.000581,-0.008940, 0.509438,-0.526445,-0.649940,1,-0.003297,-0.015108,-0.135301,1,-0.436639, 0.896735, 9.755798,1,0
1778256584043,  1520.170,  1520.165,-0.085375,-0.155263,-1.163703,-0.000543,-0.000967,-0.011299, 0.615912, 0.438188,-0.441191,1, 0.010724,-0.017178,-0.135661,1,-0.432801, 0.905176, 9.755190,1,0
1778256584070,  1520.195,  1520.195, 0.034515,-0.187750,-1.123866, 0.000237,-0.001436,-0.009923,-0.098845,-0.916841,-1.268174,1, 0.061092, 0.007294,-0.117693,1,-0.437893, 0.926093, 9.752998,1,0
1778256584092,  1520.220,  1520.215, 0.030436,-0.061659,-1.037392, 0.000674,-0.000061,-0.009117, 0.020401,-0.183840, 0.220268,1, 0.027127,-0.033164,-0.082819,1,-0.436377, 0.935799, 9.752140,1,0
1778256584114,  1520.240,  1520.235, 0.102443,-0.088732,-0.933657, 0.001454,-0.000504,-0.009520, 0.203668, 0.211076, 0.214175,1, 0.050378,-0.020119,-0.078847,1,-0.434191, 0.951162, 9.750751,1,0
1778256584140,  1520.265,  1520.265,-0.006467,-0.074208,-1.011612, 0.000653,-0.000255,-0.010779,-0.492758, 0.249654,-0.172155,1, 0.142708,-0.032830,-0.060823,1,-0.428510, 0.981729, 9.747972,1,0
1778256584162,  1520.290,  1520.285, 0.127219, 0.010357,-0.846705, 0.001399,-0.000148,-0.009071, 0.094146,-0.368618,-1.132148,1, 0.192661, 0.008006,-0.033808,1,-0.430750, 1.006165, 9.745382,1,0
1778256584185,  1520.310,  1520.310, 0.136335, 0.028916,-1.052983, 0.001797, 0.000935,-0.010333, 0.917625, 1.314029,-0.582897,1, 0.156286,-0.025762,-0.019763,1,-0.418628, 1.035283, 9.742860,1,0
1778256584211,  1520.335,  1520.335, 0.149615,-0.027350,-0.839886, 0.001944, 0.000423,-0.008926, 1.043440, 0.793269, 1.503349,1, 0.208315, 0.008795, 0.001704,1,-0.424066, 1.067959, 9.739098,1,0
1778256584232,  1520.360,  1520.355, 0.227148, 0.128142,-0.892229, 0.001962, 0.000536,-0.009474, 0.900322, 0.074180, 1.450682,1, 0.177899,-0.037657, 0.049714,1,-0.421743, 1.094147, 9.736291,1,0
1778256584255,  1520.380,  1520.380, 0.139198, 0.052242,-1.183571, 0.001738, 0.000886,-0.011362, 0.948405, 1.626691,-1.872658,1, 0.120983, 0.012226, 0.104259,1,-0.416674, 1.118262, 9.733768,1,0
1778256584281,  1520.405,  1520.405, 0.183182, 0.070334,-0.859659, 0.002171, 0.000864,-0.010176, 1.380012, 1.823542, 1.301607,1, 0.099851,-0.015270, 0.163425,1,-0.415325, 1.137114, 9.731642,1,0
1778256584302,  1520.430,  1520.425, 0.254748, 0.165809,-0.995681, 0.002259, 0.001146,-0.010368, 0.035628, 0.701005, 0.186548,1, 0.175315, 0.017075, 0.190381,1,-0.413181, 1.159696, 9.729069,1,0
1778256584325,  1520.450,  1520.450, 0.139829, 0.102386,-0.916292, 0.001844, 0.001193,-0.009725, 0.968846, 2.181574, 0.741623,1, 0.067136,-0.024777, 0.265159,1,-0.400644, 1.179933, 9.727160,1,0
1778256584351,  1520.475,  1520.475, 0.037287, 0.021705,-0.967642, 0.000878, 0.001075,-0.009951,-0.023799, 1.406508, 0.236615,1, 0.154616,-0.024094, 0.305201,1,-0.387555, 1.198819, 9.725380,1,0
1778256584372,  1520.500,  1520.495, 0.137437, 0.086196,-1.209067, 0.001658, 0.001093,-0.011719,-0.459429, 0.958283,-1.817560,1, 0.125456, 0.009994, 0.329315,1,-0.380667, 1.212519, 9.723953,1,0
1778256584395,  1520.520,  1520.520, 0.095440,-0.009091,-0.929204, 0.001840, 0.000281,-0.009958, 0.556174, 1.132502, 0.610465,1, 0.100068, 0.039099, 0.387657,1,-0.379483, 1.225195, 9.722411,1,0
1778256584421,  1520.545,  1520.545, 0.102459, 0.004430,-0.838853, 0.001262, 0.000311,-0.008852, 0.623292, 1.281552, 1.494359,1, 0.109512, 0.036494, 0.374610,1,-0.381140, 1.241953, 9.720220,1,0
1778256584442,  1520.570,  1520.565, 0.045056, 0.051437,-0.963519, 0.001524, 0.000686,-0.010932,-0.461849, 1.711817,-0.370414,1, 0.026972, 0.058782, 0.415428,1,-0.381300, 1.253497, 9.718732,1,0
1778256584465,  1520.590,  1520.590,-0.092256, 0.023722,-0.840356,-0.000110, 0.000487,-0.008801,-1.284755, 1.498614, 1.476089,1, 0.135516, 0.026507, 0.447232,1,-0.379051, 1.270711, 9.716583,1,0
1778256584491,  1520.615,  1520.615,-0.016303, 0.026832,-1.050115,-0.001088,-0.000088,-0.009717,-0.535951, 1.542354,-0.582529,1, 0.053975, 0.054914, 0.448947,1,-0.375947, 1.281429, 9.715297,1,0
1778256584512,  1520.640,  1520.635,-0.075814, 0.002736,-0.972577,-0.000108, 0.000325,-0.009283, 2.263628, 2.419659, 0.170034,1,-0.022078, 0.046802, 0.444606,1,-0.371429, 1.289951, 9.714342,1,0
1778256584535,  1520.665,  1520.660, 0.117181, 0.085748,-1.087933, 0.001889, 0.001055,-0.011361, 1.273599, 1.958064,-1.201545,1, 0.045371, 0.097199, 0.484500,1,-0.365972, 1.308954, 9.712008,1,0
1778256584561,  1520.685,  1520.685, 0.247012, 0.082400,-0.919949, 0.001715, 0.000258,-0.009428, 2.057416, 2.124199, 0.689453,1,-0.041631, 0.044022, 0.496445,1,-0.364226, 1.315418, 9.711200,1,0
1778256584583,  1520.710,  1520.705, 0.161705, 0.110106,-1.096418, 0.001038, 0.000551,-0.010861, 1.220580, 1.880827,-2.500285,1, 0.024040, 0.123295, 0.500206,1,-0.367936, 1.324003, 9.709893,1,0
1778256584605,  1520.735,  1520.730, 0.228875, 0.097667,-0.977704, 0.001706, 0.000656,-0.009771, 1.865627, 2.288896, 0.120497,1,-0.074095, 0.097581, 0.538128,1,-0.379608, 1.329468, 9.708697,1,0
1778256584631,  1520.755,  1520.755, 0.083215, 0.024333,-0.923998, 0.002195, 0.000969,-0.009736, 0.428171, 1.573196, 0.646347,1, 0.010274, 0.096044, 0.522252,1,-0.388636, 1.335536, 9.707507,1,0
1778256584653,  1520.780,  1520.775, 0.094439, 0.009573,-1.269289, 0.000922, 0.000544,-0.013299,-1.319380, 1.759673, 0.447650,1,-0.052079, 0.024485, 0.562244,1,-0.384335, 1.330433, 9.708379,1,0
1778256584675,  1520.805,  1520.800,-0.069283,-0.008946,-0.863656, 0.000844, 0.000119,-0.009262,-1.063467, 1.213203, 1.242810,1,-0.099825, 0.047192, 0.561103,1,-0.383171, 1.298534, 9.712743,1,0
1778256584701,  1520.825,  1520.825,-0.024351, 0.051217,-1.141640,-0.000741,-0.000178,-0.010381,-0.618708, 1.778941,-1.479895,1,-0.213719, 0.043394, 0.543805,1,-0.379039, 1.270725, 9.716582,1,0
1778256584723,  1520.850,  1520.845,-0.002877, 0.051360,-0.861490, 0.000440, 0.000161,-0.009402, 2.220717, 2.216844,-1.736114,1,-0.238206, 0.137625, 0.552511,1,-0.382721, 1.233323, 9.721256,1,0
1778256584746,  1520.875,  1520.870, 0.217833, 0.133483,-0.919759, 0.000772, 0.000694,-0.008684, 1.749079, 2.494163, 0.707316,1,-0.261782, 0.102470, 0.526353,1,-0.388314, 1.177682, 9.727932,1,0
1778256584771,  1520.895,  1520.895, 0.113258,-0.002071,-1.261752, 0.001290, 0.000624,-0.012138, 0.718612, 1.120286,-2.641364,1,-0.253302, 0.089856, 0.522726,1,-0.392952, 1.133405, 9.733004,1,0
1778256584793,  1520.920,  1520.915, 0.075082,-0.034391,-1.007756, 0.000386,-0.000041,-0.009767,-0.597183, 0.155665, 0.549430,1,-0.183925, 0.078877, 0.504625,1,-0.398638, 1.092569, 9.737441,1,0
1778256584816,  1520.945,  1520.940, 0.017026,-0.116017,-1.027763, 0.000580,-0.000275,-0.010428,-0.232225,-0.103805,-0.335099,1,-0.157305, 0.059929, 0.437775,1,-0.399614, 1.029615, 9.744259,1,0
1778256584841,  1520.965,  1520.965, 0.012886,-0.042585,-0.929670, 0.000334,-0.000612,-0.009725,-0.284114, 0.580452, 0.630141,1,-0.153766, 0.098414, 0.402856,1,-0.412258, 0.993822, 9.747448,1,0
1778256584863,  1520.990,  1520.985,-0.029632,-0.118398,-0.759308, 0.000365,-0.001285,-0.007887, 1.378121, 1.066367, 1.732800,1,-0.221168, 0.061782, 0.369818,1,-0.418823, 0.961286, 9.750431,1,0
1778256584890,  1521.015,  1521.015, 0.109589, 0.017898,-1.177750, 0.000178,-0.000802,-0.011073, 0.653406, 1.101713,-1.796064,1,-0.208837, 0.071949, 0.294274,1,-0.422656, 0.920108, 9.754237,1,0
1778256584911,  1521.035,  1521.035, 0.108959,-0.024122,-0.863172, 0.001190,-0.000215,-0.009200, 0.640860, 0.668410, 1.290607,1,-0.111588, 0.043810, 0.274024,1,-0.428237, 0.901876, 9.755696,1,0
1778256584933,  1521.060,  1521.055, 0.164295,-0.003273,-0.865072, 0.001107, 0.000305,-0.008263,-0.047262,-1.399721,-1.862257,1,-0.036679, 0.030456, 0.221217,1,-0.434087, 0.893252, 9.756231,1,0
1778256584960,  1521.085,  1521.085, 0.059612,-0.122003,-1.127436, 0.000939,-0.000619,-0.011682, 0.150120,-0.316560,-1.298938,1,-0.041519,-0.015284, 0.187881,1,-0.433473, 0.878851, 9.757566,1,0
1778256584982,  1521.110,  1521.105, 0.136810,-0.089324,-1.092381, 0.001518,-0.000172,-0.010533,-0.427446,-0.963736, 1.221106,1,-0.011991,-0.007068, 0.171561,1,-0.429869, 0.874888, 9.758082,1,0
1778256585003,  1521.130,  1521.125,-0.020600,-0.108196,-0.935037, 0.000158,-0.000743,-0.009727, 0.255423, 1.113075, 0.278855,1,-0.077331,-0.015736, 0.151723,1,-0.426152, 0.866123, 9.759027,1,0
1778256585030,  1521.155,  1521.155, 0.164878,-0.006984,-1.093608, 0.000751,-0.000952,-0.010884, 1.197828, 0.791045,-0.964722,1,-0.061724, 0.041878, 0.126753,1,-0.420023, 0.857791, 9.760029,1,0
1778256585052,  1521.180,  1521.175, 0.148929,-0.108873,-1.163687, 0.000637,-0.001201,-0.010927, 1.414764, 0.959192, 0.071456,1,-0.074945, 0.019331, 0.124896,1,-0.422184, 0.850660, 9.760560,1,0
1778256585073,  1521.200,  1521.195, 0.110189, 0.068633,-0.850268, 0.001412, 0.000172,-0.008963,-0.274149, 0.198368,-0.828376,1, 0.037486, 0.032122, 0.127494,1,-0.424866, 0.845748, 9.760870,1,0
1778256585100,  1521.225,  1521.225, 0.012615,-0.104381,-1.071546, 0.000575, 0.000130,-0.009442,-0.298739,-0.189811,-0.746272,1,-0.015826,-0.004362, 0.120310,1,-0.421992, 0.833488, 9.762050,1,0
1778256585122,  1521.250,  1521.245, 0.079672,-0.036173,-1.149938, 0.001067, 0.000163,-0.011050,-0.823159,-0.542474, 0.374439,1,-0.017785, 0.022182, 0.128504,1,-0.422333, 0.823718, 9.762864,1,0
1778256585143,  1521.270,  1521.265, 0.020407,-0.133960,-0.983107, 0.000769,-0.000993,-0.010674,-0.823159,-0.542474, 0.374439,1,-0.017785, 0.022182, 0.128504,1,-0.422333, 0.823718, 9.762864,1,0
1778256585170,  1521.295,  1521.295, 0.068064, 0.025998,-0.992353,-0.000359,-0.000577,-0.008794, 0.245812, 1.047656, 0.033798,1,-0.112852,-0.017472, 0.152401,1,-0.420735, 0.789395, 9.765768,1,0
1778256585192,  1521.320,  1521.315, 0.112398,-0.047038,-1.273086, 0.000270,-0.001051,-0.012430, 0.537067, 1.161880,-2.329344,1,-0.137695, 0.008296, 0.134424,1,-0.416346, 0.768445, 9.767627,1,0
1778256585213,  1521.340,  1521.335, 0.229659, 0.002941,-0.873224, 0.002007,-0.000325,-0.008084,-0.266792,-0.290570, 1.132680,1, 0.004723,-0.003936, 0.147861,1,-0.417052, 0.756771, 9.768508,1,0
1778256585240,  1521.365,  1521.365, 0.111735,-0.094010,-0.855009, 0.001730,-0.000631,-0.008500, 0.671756,-0.176463, 1.384307,1,-0.037145, 0.000000, 0.101922,1,-0.423745, 0.744438, 9.769168,1,0
1778256585262,  1521.390,  1521.385, 0.203459,-0.016645,-1.239404, 0.002376, 0.000578,-0.013263, 0.534321, 0.089256,-3.665667,1,-0.072883, 0.094151, 0.122159,1,-0.432867, 0.729804, 9.769872,1,0
1778256585283,  1521.410,  1521.405, 0.110168,-0.086814,-0.353243, 0.001145,-0.000965,-0.004043, 2.171467, 0.661125, 1.307830,1,-0.067738, 0.122928, 0.143935,1,-0.456399, 0.718856, 9.769612,1,0
1778256585310,  1521.435,  1521.435, 0.155076, 0.050372,-1.191647, 0.000969, 0.000124,-0.010574, 1.069301, 1.205659,-1.915704,1,-0.089180, 0.000892, 0.101633,1,-0.451269, 0.709053, 9.770567,1,0
1778256585332,  1521.460,  1521.455, 0.236257,-0.026657,-0.913677, 0.001964,-0.000897,-0.009013, 0.474745, 0.704707,-0.275222,1,-0.000438, 0.060600, 0.116328,1,-0.462121, 0.701439, 9.770610,1,0
1778256585354,  1521.480,  1521.475, 0.023334,-0.106121,-0.871318, 0.001090,-0.000330,-0.008316, 1.471703,-0.698300, 2.214406,1, 0.022774, 0.031847, 0.114331,1,-0.471178, 0.705691, 9.769871,1,0
1778256585380,  1521.505,  1521.505, 0.167951,-0.016978,-1.118785, 0.000998,-0.000425,-0.012267, 1.179515, 0.525747,-1.200520,1,-0.050777, 0.012580, 0.114729,1,-0.467662, 0.690839, 9.771101,1,0
1778256585402,  1521.530,  1521.525, 0.128135,-0.120235,-0.866412, 0.000807,-0.001400,-0.008353, 0.950030, 0.282713,-0.397065,1,-0.098206, 0.027022, 0.124728,1,-0.472225, 0.680080, 9.771636,1,0
1778256585425,  1521.550,  1521.550, 0.169310,-0.004452,-0.902542, 0.001762,-0.000380,-0.008660, 1.179476, 0.631973, 0.920606,1,-0.098647, 0.002188, 0.092706,1,-0.480758, 0.672709, 9.771730,1,0
1778256585451,  1521.575,  1521.575,-0.036704,-0.065142,-0.912539,-0.000046,-0.000276,-0.009842,-0.833112, 0.030136, 0.823407,1, 0.021435,-0.046761, 0.073551,1,-0.471558, 0.669737, 9.772383,1,0
1778256585472,  1521.600,  1521.595,-0.044160,-0.089690,-1.099389,-0.000296,-0.000375,-0.011163, 1.023793,-0.566324,-3.054875,1,-0.030769, 0.048500, 0.034534,1,-0.474462, 0.664798, 9.772579,1,0
1778256585495,  1521.620,  1521.620, 0.073409,-0.093274,-0.790350, 0.000473,-0.000907,-0.007506, 0.249981,-0.253620, 2.022360,1,-0.030058,-0.051191, 0.056573,1,-0.468203, 0.660234, 9.773190,1,0
1778256585521,  1521.645,  1521.645,-0.006996,-0.075444,-1.045871, 0.000334,-0.000230,-0.009612,-0.529872,-0.078883,-0.483016,1, 0.015043,-0.015374, 0.016332,1,-0.460756, 0.661459, 9.773462,1,0
1778256585542,  1521.670,  1521.665, 0.062541,-0.142790,-1.175445, 0.000592,-0.001146,-0.011475, 0.034253,-0.065062,-0.464758,1,-0.030026,-0.014427, 0.007726,1,-0.457798, 0.660265, 9.773682,1,0
1778256585565,  1521.690,  1521.690, 0.088813,-0.044212,-0.751177, 0.000531,-0.000793,-0.009015, 0.413525, 0.228329, 2.407061,1, 0.063168,-0.013025, 0.008052,1,-0.457011, 0.663882, 9.773474,1,0
1778256585591,  1521.715,  1521.715, 0.061002,-0.048005,-1.098731, 0.000590,-0.000716,-0.009989, 0.148376, 0.188115,-1.000730,1,-0.042298,-0.033051, 0.006893,1,-0.448805, 0.657574, 9.774281,1,0
1778256585612,  1521.740,  1521.735, 0.090917, 0.062368,-0.859687, 0.001790,-0.000118,-0.009881,-0.631710,-0.470232, 1.387046,1, 0.131720, 0.022719,-0.025379,1,-0.451342, 0.664724, 9.773680,1,0
1778256585635,  1521.760,  1521.760, 0.066763,-0.084188,-1.023788, 0.000383,-0.000344,-0.009443, 0.207456,-0.168090,-0.265580,1, 0.024212,-0.015723, 0.010777,1,-0.446750, 0.658284, 9.774326,1,0
1778256585661,  1521.785,  1521.785, 0.205729, 0.023135,-0.917988, 0.001993,-0.000482,-0.009917, 1.569718, 0.881360, 0.772151,1,-0.003453, 0.042934,-0.008750,1,-0.449152, 0.654359, 9.774480,1,0
1778256585682,  1521.810,  1521.805, 0.206976,-0.014567,-1.061671, 0.001707,-0.000331,-0.009437, 1.548700,-0.498652,-1.023529,1, 0.034554, 0.043815,-0.002856,1,-0.457420, 0.656411, 9.773959,1,0
1778256585705,  1521.830,  1521.830, 0.074408,-0.070850,-0.864315, 0.001135,-0.000806,-0.009620, 0.267572,-0.040761, 1.297865,1,-0.009397,-0.012906, 0.026016,1,-0.461664, 0.653781, 9.773935,1,0
1778256585731,  1521.855,  1521.855, 0.127227,-0.097327,-1.028786, 0.000947,-0.000723,-0.008923, 0.786890,-0.297587,-0.315176,1, 0.022548, 0.013234, 0.030417,1,-0.461132, 0.657614, 9.773704,1,0
1778256585752,  1521.880,  1521.875, 0.102770,-0.040278,-1.090880, 0.000593,-0.000663,-0.010555, 0.223603, 0.659613,-0.283178,1,-0.046485,-0.037899, 0.035316,1,-0.455911, 0.651250, 9.774375,1,0
1778256585775,  1521.905,  1521.900, 0.044594, 0.001234,-1.042107, 0.000875, 0.000080,-0.010064,-0.003496, 0.659525,-0.444258,1,-0.026344,-0.041325, 0.039639,1,-0.439442, 0.646662, 9.775434,1,0
1778256585801,  1521.925,  1521.925, 0.205082,-0.000884,-0.785510, 0.001563,-0.000514,-0.009130, 1.579566, 0.632702, 2.072906,1,-0.017718,-0.044290, 0.038369,1,-0.430146, 0.640579, 9.776248,1,0
1778256585823,  1521.950,  1521.945, 0.185812, 0.048807,-1.126850, 0.001614, 0.000201,-0.010484, 1.027218, 0.036406,-3.931528,1,-0.039237,-0.021324, 0.058584,1,-0.422636, 0.633708, 9.777023,1,0
1778256585845,  1521.975,  1521.970, 0.110931,-0.057371,-0.911421, 0.001991,-0.000524,-0.010124, 0.660299, 0.066958, 0.839091,1,-0.051140,-0.011302, 0.050508,1,-0.427107, 0.628051, 9.777194,1,0
1778256585871,  1521.995,  1521.995, 0.090311,-0.021715,-0.944768, 0.000637, 0.000078,-0.008141, 0.457570, 0.420160, 0.511817,1, 0.056392, 0.035099, 0.048869,1,-0.429075, 0.634929, 9.776663,1,0
1778256585893,  1522.020,  1522.015, 0.166358,-0.034173,-0.860738, 0.001615,-0.000625,-0.008041, 0.124150, 0.426435,-1.771163,1,-0.018828, 0.041943, 0.060202,1,-0.432725, 0.628886, 9.776893,1,0
1778256585915,  1522.045,  1522.040,-0.031711,-0.015720,-0.949301, 0.000106,-0.000268,-0.009748,-0.738797, 0.483084, 0.467100,1, 0.046604,-0.027867, 0.055762,1,-0.426834, 0.638768, 9.776511,1,0
1778256585941,  1522.065,  1522.065, 0.069377, 0.001909,-1.182936, 0.000623,-0.000108,-0.011471, 0.258074, 0.660525,-1.824129,1,-0.012192,-0.008185, 0.077405,1,-0.421874, 0.641532, 9.776546,1,0
1778256585963,  1522.090,  1522.085, 0.212962, 0.010975,-0.838881, 0.002043, 0.000341,-0.006811, 0.987926, 0.748438,-1.104318,1, 0.004052, 0.039332, 0.068256,1,-0.429689, 0.650159, 9.775636,1,0
1778256585986,  1522.115,  1522.110, 0.116550, 0.046575,-1.033367, 0.001325,-0.000003,-0.012830, 0.709009, 1.113772,-0.358886,1,-0.018012, 0.015022, 0.107499,1,-0.434203, 0.656614, 9.775004,1,0
1778256586011,  1522.135,  1522.135, 0.189140, 0.034054,-1.305409, 0.001965, 0.000450,-0.010899, 1.405271, 0.995586,-3.027721,1, 0.002833, 0.133808, 0.113797,1,-0.453489, 0.661876, 9.773774,1,0
1778256586033,  1522.160,  1522.155,-0.003852, 0.021669,-1.092403, 0.000667,-0.000296,-0.010960, 0.189452, 0.743010, 3.770455,1, 0.045937, 0.014112, 0.130013,1,-0.460615, 0.666797, 9.773106,1,0
1778256586056,  1522.185,  1522.180, 0.058037,-0.029451,-1.080033, 0.000328,-0.000305,-0.010695, 0.101729, 0.378438,-0.818759,1, 0.043234, 0.049668, 0.152991,1,-0.468644, 0.668830, 9.772585,1,0
1778256586081,  1522.205,  1522.205, 0.053328,-0.010400,-1.188668, 0.000864,-0.000295,-0.011120, 0.046446, 0.565162,-1.884530,1,-0.028262, 0.059360, 0.170584,1,-0.478006, 0.666530, 9.772289,1,0
1778256586103,  1522.230,  1522.225, 0.114912, 0.025685,-0.850125, 0.001095, 0.000031,-0.010270, 0.654380, 1.023199, 3.037329,1,-0.003775,-0.012968, 0.171829,1,-0.476338, 0.668451, 9.772240,1,0
1778256586130,  1522.255,  1522.255, 0.155535,-0.057650,-1.251132, 0.001358,-0.000122,-0.010701, 1.050626, 0.101710,-2.496994,1,-0.022338, 0.059375, 0.140415,1,-0.476205, 0.666581, 9.772373,1,0
1778256586151,  1522.275,  1522.275, 0.075585, 0.005902,-0.898160, 0.000990,-0.000083,-0.010924, 0.261609, 0.718887, 0.964647,1,-0.003231, 0.021804, 0.158995,1,-0.479975, 0.661146, 9.772558,1,0
1778256586173,  1522.300,  1522.295, 0.063462,-0.028845,-0.971752, 0.000567,-0.000175,-0.009778, 0.447607, 0.309662, 1.173838,1,-0.040518, 0.005204, 0.156020,1,-0.479606, 0.656420, 9.772895,1,0
1778256586200,  1522.325,  1522.325, 0.000999,-0.077393,-1.253809, 0.000213,-0.000501,-0.011618,-0.469584,-0.115047,-2.521929,1,-0.063368, 0.017040, 0.137721,1,-0.479681, 0.642113, 9.773842,1,0
1778256586222,  1522.350,  1522.345, 0.042888,-0.019842,-0.829593, 0.000650,-0.000494,-0.010085, 0.488114, 0.611991,-0.984947,1,-0.036233, 0.031945, 0.142427,1,-0.480810, 0.640503, 9.773891,1,0
1778256586243,  1522.370,  1522.365, 0.166164,-0.037059,-1.286475, 0.001302, 0.000052,-0.010606, 0.314865, 0.261685,-3.263664,1,-0.115225, 0.021024, 0.136826,1,-0.481461, 0.625051, 9.774860,1,0
1778256586270,  1522.395,  1522.395, 0.088113, 0.036431,-0.655970, 0.001196, 0.000204,-0.009229, 0.374498, 0.968728, 3.342450,1,-0.024350, 0.014345, 0.138933,1,-0.489769, 0.610918, 9.775341,1,0
1778256586292,  1522.420,  1522.415, 0.174566,-0.017461,-1.003633, 0.001183, 0.000307,-0.009521, 0.389992,-0.449787,-0.421723,1,-0.051743, 0.027550, 0.123588,1,-0.490444, 0.599374, 9.776022,1,0
1778256586313,  1522.440,  1522.435, 0.090277,-0.008498,-1.027540, 0.000913,-0.000637,-0.010993, 0.486775, 0.410553, 1.147736,1,-0.045982, 0.030788, 0.103484,1,-0.495543, 0.586747, 9.776530,1,0
1778256586340,  1522.465,  1522.465, 0.061906, 0.017433,-0.698324, 0.000870, 0.000052,-0.007728, 0.101893, 0.738306, 2.928963,1,-0.042231, 0.033347, 0.096624,1,-0.506058, 0.566188, 9.777205,1,0
1778256586362,  1522.490,  1522.485, 0.102445,-0.090115,-1.302121, 0.001058,-0.000141,-0.010324, 0.311005, 0.074389,-1.313604,1,-0.137689,-0.019104, 0.090934,1,-0.506536, 0.548233, 9.778203,1,0
1778256586383,  1522.510,  1522.505, 0.163692, 0.051451,-0.728689, 0.001377, 0.000232,-0.009793, 0.893836, 0.027547,-2.520854,1,-0.063462, 0.095900, 0.094683,1,-0.516252, 0.535283, 9.778412,1,0
1778256586410,  1522.535,  1522.535, 0.111304,-0.078144,-1.093151, 0.001534,-0.000708,-0.009665, 0.565642,-0.251951,-0.941134,1,-0.133840,-0.006770, 0.105125,1,-0.525505, 0.510383, 9.779250,1,0
1778256586432,  1522.560,  1522.555, 0.093167,-0.012996,-1.241013, 0.000515,-0.000069,-0.013547, 0.250987, 0.249158,-1.116426,1,-0.047672, 0.033081, 0.097821,1,-0.527414, 0.493677, 9.780005,1,0
1778256586453,  1522.580,  1522.575, 0.127093,-0.044970,-0.895414, 0.001210,-0.000534,-0.007598,-0.343265, 0.301515, 0.236334,1,-0.094178, 0.020338, 0.102328,1,-0.531469, 0.470505, 9.780928,1,0
1778256586480,  1522.605,  1522.605, 0.121827, 0.051790,-0.768600, 0.001045,-0.000183,-0.009502, 0.661926, 0.959429, 2.244356,1,-0.083741,-0.004988, 0.070488,1,-0.532536, 0.449053, 9.781878,1,0
1778256586502,  1522.630,  1522.625, 0.125706,-0.095891,-0.945471, 0.000819,-0.000109,-0.006801, 0.782765,-0.468916,-2.525789,1,-0.124092,-0.003245, 0.064634,1,-0.533896, 0.430230, 9.782650,1,0
1778256586523,  1522.650,  1522.645,-0.011920, 0.021400,-0.757882, 0.000220,-0.000703,-0.010486, 0.563486, 1.213738, 4.056196,1,-0.030524,-0.029563, 0.051086,1,-0.530429, 0.417393, 9.783395,1,0
1778256586550,  1522.675,  1522.675, 0.052502,-0.103812,-1.251043, 0.000851,-0.000308,-0.010011,-0.011137,-0.617617,-2.484202,1,-0.059177, 0.005275, 0.043933,1,-0.526109, 0.398662, 9.784410,1,0
1778256586572,  1522.700,  1522.695,-0.013938,-0.049791,-1.071567,-0.000104,-0.000941,-0.010049, 0.781935,-0.254779, 2.094364,1, 0.021588,-0.007797, 0.033032,1,-0.523521, 0.393010, 9.784777,1,0
1778256586594,  1522.720,  1522.715,-0.007550,-0.101426,-0.942532, 0.000222,-0.000713,-0.008584,-0.305557,-0.314083,-1.656698,1,-0.010319,-0.060872, 0.040489,1,-0.508167, 0.380194, 9.786093,1,0
1778256586621,  1522.745,  1522.745, 0.067560,-0.074486,-1.202841, 0.000276,-0.000666,-0.013269, 0.165137,-0.365370,-2.008625,1,-0.011522, 0.010374, 0.030469,1,-0.497690, 0.364776, 9.787217,1,0
1778256586642,  1522.770,  1522.765, 0.163078, 0.048845,-0.703986, 0.001512, 0.000452,-0.006981, 0.842094,-1.309317, 0.139524,1, 0.015055, 0.055034, 0.026458,1,-0.505985, 0.364394, 9.786806,1,0
1778256586665,  1522.790,  1522.790, 0.048844,-0.022995,-1.005030, 0.000869,-0.000724,-0.011286,-0.020623, 0.127231,-0.068421,1,-0.057376,-0.029010, 0.003694,1,-0.498716, 0.350956, 9.787671,1,0
1778256586691,  1522.815,  1522.815, 0.023051,-0.075105,-1.038144, 0.000758,-0.000319,-0.009248,-0.273309,-0.389556,-0.392932,1,-0.003589, 0.012425,-0.001431,1,-0.499747, 0.346854, 9.787765,1,0
1778256586712,  1522.840,  1522.835, 0.080604,-0.062938,-1.057794, 0.000837,-0.000365,-0.009233, 0.487360, 0.429644, 0.807287,1,-0.044522,-0.024614, 0.004643,1,-0.500110, 0.339850, 9.787992,1,0
1778256586735,  1522.860,  1522.860, 0.060988,-0.021978,-0.903598, 0.000699,-0.000062,-0.009827, 0.103074, 0.115864, 0.927272,1, 0.009460,-0.024269, 0.001242,1,-0.494261, 0.331688, 9.788568,1,0
1778256586761,  1522.885,  1522.885, 0.082300, 0.022372,-1.034362, 0.000970,-0.000545,-0.011840, 0.313202, 0.545121,-0.354843,1,-0.087729,-0.018189, 0.007539,1,-0.493313, 0.323008, 9.788907,1,0
1778256586782,  1522.910,  1522.905, 0.287540, 0.025388,-0.759308, 0.002237,-0.000399,-0.009448, 0.306352,-0.992282, 0.585288,1, 0.069512, 0.056922,-0.010798,1,-0.494313, 0.321659, 9.788900,1,0
1778256586805,  1522.930,  1522.930, 0.075633,-0.020997,-0.959906, 0.001098,-0.000859,-0.010064, 0.237414, 0.106962, 0.375214,1,-0.068906,-0.015316,-0.015444,1,-0.503835, 0.310718, 9.788769,1,0
1778256586831,  1522.955,  1522.955,-0.006672,-0.032892,-1.018696, 0.000740, 0.000133,-0.009324,-0.567936,-0.021694,-0.200848,1, 0.000495, 0.009087,-0.022708,1,-0.502810, 0.300843, 9.789129,1,0
1778256586852,  1522.980,  1522.975, 0.041883,-0.170673,-1.252759, 0.000348,-0.001201,-0.011022, 0.494642,-0.087065,-0.635703,1,-0.111961,-0.034817,-0.034538,1,-0.501098, 0.284013, 9.789721,1,0
1778256586875,  1523.000,  1523.000, 0.114641,-0.062713,-0.821599, 0.001116,-0.000104,-0.007986, 0.623044,-0.346450, 1.733016,1,-0.006056, 0.026023,-0.033797,1,-0.502039, 0.268310, 9.790115,1,0
1778256586901,  1523.025,  1523.025, 0.075176, 0.006334,-0.826359, 0.000846,-0.000877,-0.010756, 0.234839, 0.321320, 1.686529,1,-0.100692,-0.037686,-0.025775,1,-0.501232, 0.256024, 9.790485,1,0
1778256586922,  1523.050,  1523.045, 0.149069,-0.014135,-1.099856, 0.001291, 0.000107,-0.010156, 0.081714,-2.474287,-1.956138,1, 0.025513,-0.000241,-0.067319,1,-0.500276, 0.253597, 9.790597,1,0
1778256586945,  1523.070,  1523.070, 0.181281, 0.008180,-0.924372, 0.001307,-0.000786,-0.011857, 1.273087, 0.321140, 0.725700,1,-0.057396, 0.026799,-0.081267,1,-0.505575, 0.239003, 9.790692,1,0
1778256586971,  1523.095,  1523.095, 0.078856,-0.123126,-1.212369, 0.001120,-0.000266,-0.008677, 0.258801,-0.966629,-2.099103,1, 0.041805, 0.083615,-0.100501,1,-0.517193, 0.241960, 9.790012,1,0
1778256586993,  1523.120,  1523.115, 0.147427,-0.128267,-0.617212, 0.000970,-0.001403,-0.007027, 1.519395, 0.970111, 2.097016,1,-0.023256, 0.033597,-0.079372,1,-0.525617, 0.227574, 9.789909,1,0
1778256587015,  1523.145,  1523.140, 0.059680,-0.231969,-0.925141, 0.000591,-0.000921,-0.006412, 0.042010,-2.033079, 0.716070,1, 0.043508,-0.022572,-0.144822,1,-0.542660, 0.242868, 9.788611,1,0
1778256587041,  1523.165,  1523.165,-0.006162,-0.146189,-0.975218,-0.000072,-0.001016,-0.009970,-0.597198,-1.189559, 0.225282,1, 0.034227,-0.020356,-0.130619,1,-0.536235, 0.244913, 9.788915,1,0
1778256587063,  1523.190,  1523.185,-0.043693,-0.121987,-1.056403,-0.000456,-0.001134,-0.009629,-0.696223,-0.510084, 0.235235,1,-0.023172,-0.055757,-0.101392,1,-0.530085, 0.249762, 9.789127,1,0
1778256587085,  1523.215,  1523.210,-0.018553,-0.043712,-1.083531, 0.000253,-0.000429,-0.011767,-0.693825,-0.175077,-0.835808,1, 0.026933,-0.071056,-0.111422,1,-0.509759, 0.254246, 9.790092,1,0
1778256587111,  1523.235,  1523.235, 0.192194,-0.062417,-1.070577, 0.001582,-0.001073,-0.011905, 1.370601,-0.345636,-0.709241,1, 0.044138, 0.022737,-0.138599,1,-0.515003, 0.267610, 9.789461,1,0
1778256587133,  1523.260,  1523.255, 0.150932,-0.101553,-1.142422, 0.001140,-0.000484,-0.009728, 0.926972,-1.344662, 0.188117,1, 0.063547,-0.013428,-0.128573,1,-0.512910, 0.281298, 9.789186,1,0
1778256587155,  1523.285,  1523.280, 0.130675,-0.032590,-0.959809, 0.000560,-0.000893,-0.011948, 0.768306,-0.024265, 0.376243,1, 0.080036, 0.020158,-0.161783,1,-0.513955, 0.297559, 9.788651,1,0
1778256587181,  1523.305,  1523.305,-0.084617,-0.172602,-1.026288,-0.000309,-0.001585,-0.008613,-1.342374,-1.378750,-0.276238,1, 0.104225,-0.036101,-0.177933,1,-0.511613, 0.316859, 9.788168,1,0
1778256587203,  1523.330,  1523.325, 0.045858,-0.081368,-0.854561, 0.000528,-0.000731,-0.010151,-0.928283,-0.732004, 0.697688,1, 0.157919,-0.046245,-0.201491,1,-0.499094, 0.338438, 9.788093,1,0
1778256587226,  1523.355,  1523.350, 0.127727,-0.222159,-1.205934, 0.001241,-0.001588,-0.009556, 0.761561,-1.802300,-2.039062,1, 0.206121,-0.009923,-0.198222,1,-0.490943, 0.382448, 9.786883,1,0
1778256587251,  1523.375,  1523.375, 0.099549,-0.078647,-0.827511, 0.001440,-0.000416,-0.008366, 0.488578,-0.365271, 1.670983,1, 0.246864, 0.020238,-0.187317,1,-0.488540, 0.413388, 9.785746,1,0
1778256587273,  1523.400,  1523.395, 0.069909,-0.070211,-1.105343, 0.001298,-0.000900,-0.010775, 1.522326,-0.047221,-0.142070,1, 0.172946, 0.030344,-0.189984,1,-0.500257, 0.452620, 9.783418,1,0
1778256587296,  1523.425,  1523.420, 0.085870,-0.087101,-1.071188, 0.000875,-0.000097,-0.009141, 0.330333,-0.351680,-0.724384,1, 0.225345, 0.039784,-0.165523,1,-0.513267, 0.509237, 9.779960,1,0
1778256587321,  1523.445,  1523.445, 0.144652, 0.030635,-0.737821, 0.000738,-0.000312,-0.009638, 0.903747, 0.839456, 2.542733,1, 0.186603,-0.020212,-0.159999,1,-0.514450, 0.544572, 9.777994,1,0
1778256587343,  1523.470,  1523.465,-0.021294,-0.030666,-1.189840, 0.000058, 0.000695,-0.009085,-0.547109,-0.739125,-1.385609,1, 0.093200,-0.072555,-0.097797,1,-0.507144, 0.575578, 9.776600,1,0
1778256587370,  1523.495,  1523.495, 0.091099, 0.122596,-0.973807, 0.000364, 0.000465,-0.012210, 0.398777, 1.803877, 0.225890,1, 0.054700,-0.028447, 0.013014,1,-0.493688, 0.603339, 9.775615,1,0
1778256587391,  1523.515,  1523.515, 0.104078,-0.008057,-1.088174, 0.001302, 0.000021,-0.010669, 0.525769, 0.536198,-0.896525,1, 0.077478,-0.023499, 0.043503,1,-0.494073, 0.617685, 9.774699,1,0
1778256587413,  1523.540,  1523.535, 0.170341, 0.099430,-0.922781, 0.001385, 0.000829,-0.009608, 0.155751, 0.851825, 0.461269,1, 0.102143, 0.025972, 0.087744,1,-0.489178, 0.624069, 9.774540,1,0
1778256587440,  1523.565,  1523.565, 0.006138, 0.090078,-1.212439,-0.000188, 0.000950,-0.012360,-0.422828, 1.500271,-2.114664,1,-0.055649,-0.029626, 0.146397,1,-0.481807, 0.615402, 9.775455,1,0
1778256587462,  1523.590,  1523.585,-0.113045, 0.103035,-0.831572,-0.000695, 0.000215,-0.009620,-0.742769,-0.103507,-3.501349,1,-0.070223, 0.003378, 0.158818,1,-0.480923, 0.609187, 9.775888,1,0
1778256587483,  1523.610,  1523.605,-0.060121,-0.019971,-1.039084,-0.000641, 0.000137,-0.010800,-1.125684, 1.507116, 1.486861,1,-0.075618,-0.054822, 0.157729,1,-0.469665, 0.592474, 9.777463,1,0
1778256587510,  1523.635,  1523.635, 0.028993,-0.086680,-1.011322, 0.000267,-0.000183,-0.007857,-0.181183,-0.269333,-0.139316,1,-0.044259, 0.017372, 0.154827,1,-0.465764, 0.579555, 9.778423,1,0
1778256587532,  1523.660,  1523.655, 0.058567, 0.080364,-0.737885, 0.000196, 0.000174,-0.009731, 0.630293, 1.414828, 0.364491,1,-0.057546, 0.038324, 0.158760,1,-0.466544, 0.571120, 9.778882,1,0
1778256587553,  1523.680,  1523.675,-0.137216,-0.039943,-1.131387,-0.000613,-0.000188,-0.011154,-0.869364, 0.551443,-0.251916,1,-0.055111,-0.006772, 0.152785,1,-0.467466, 0.564556, 9.779220,1,0
1778256587580,  1523.705,  1523.705,-0.068263, 0.082777,-0.913845, 0.000046, 0.000633,-0.010359,-1.138348, 1.371610, 0.817662,1,-0.004965, 0.044198, 0.111988,1,-0.470089, 0.559855, 9.779365,1,0
1778256587602,  1523.730,  1523.725, 0.076256,-0.113847,-1.029120,-0.000261,-0.000018,-0.007510, 0.493674, 0.310673, 1.364385,1, 0.023501,-0.040827, 0.107369,1,-0.472568, 0.564238, 9.778993,1,0
1778256587623,  1523.750,  1523.745, 0.042239, 0.007399,-1.232941, 0.000564,-0.000308,-0.013089,-1.533207, 0.335629,-2.030761,1, 0.038258, 0.051091, 0.090040,1,-0.470375, 0.565060, 9.779051,1,0
1778256587650,  1523.775,  1523.775,-0.000677,-0.020615,-0.827519, 0.000314,-0.000439,-0.009512,-0.486425, 0.364334, 1.663324,1, 0.013192,-0.009189, 0.109352,1,-0.479306, 0.567080, 9.778501,1,0
1778256587672,  1523.800,  1523.795, 0.130238,-0.076427,-0.903964, 0.000987,-0.000333,-0.007521, 0.195268,-0.574623,-2.046714,1, 0.037571, 0.033322, 0.098332,1,-0.485013, 0.573704, 9.777833,1,0
1778256587693,  1523.820,  1523.815, 0.022142, 0.065565,-0.797858,-0.000070,-0.000031,-0.009283, 0.342864, 0.358810, 2.254848,1, 0.058833,-0.002875, 0.077058,1,-0.482322, 0.581801, 9.777488,1,0
1778256587720,  1523.845,  1523.845,-0.029179,-0.052169,-1.600618, 0.000275,-0.000087,-0.015686,-0.762052, 0.070283,-5.918909,1, 0.002209, 0.033758, 0.073383,1,-0.476823, 0.582068, 9.777741,1,0
1778256587742,  1523.870,  1523.865, 0.169642,-0.032884,-0.601860, 0.000864,-0.000392,-0.007237, 1.945610, 1.231870, 5.848978,1, 0.030290,-0.008422, 0.061622,1,-0.484169, 0.591253, 9.776829,1,0
1778256587763,  1523.890,  1523.885, 0.094525,-0.198140,-1.509422, 0.000643,-0.000735,-0.011507, 0.718910,-0.372015,-2.876525,1,-0.059512,-0.032711, 0.048600,1,-0.480437, 0.594241, 9.776832,1,0
1778256587790,  1523.915,  1523.915, 0.027794, 0.024291,-0.558467, 0.000373,-0.000636,-0.008338,-0.199971, 0.833012, 4.300489,1, 0.034843,-0.018929, 0.032377,1,-0.471887, 0.595936, 9.777145,1,0
1778256587812,  1523.940,  1523.935, 0.094384,-0.218224,-1.367848, 0.000704,-0.000961,-0.010690,-0.383321,-0.558953, 0.082867,1,-0.057825,-0.075533, 0.024595,1,-0.460227, 0.592473, 9.777911,1,0
1778256587834,  1523.960,  1523.955, 0.191903,-0.072877,-1.054597, 0.001204,-0.001082,-0.011243,-0.026168,-0.410180,-3.342581,1,-0.031396,-0.002248, 0.041020,1,-0.452309, 0.587738, 9.778566,1,0
1778256587861,  1523.985,  1523.985, 0.064702,-0.041487,-0.685005, 0.000318,-0.000940,-0.007711, 0.187419, 0.177115, 3.061423,1,-0.023528,-0.065408, 0.035353,1,-0.444988, 0.583281, 9.779169,1,0
1778256587882,  1524.010,  1524.005, 0.087928,-0.077174,-0.872956, 0.000732,-0.000451,-0.008248,-0.608632,-0.831991,-1.074787,1,-0.029717,-0.046818, 0.035553,1,-0.433492, 0.577638, 9.780021,1,0
1778256587905,  1524.030,  1524.030, 0.031838,-0.055230,-1.075968,-0.000034,-0.000631,-0.012125,-0.113398, 0.026033,-0.770692,1,-0.069526,-0.098848,-0.003237,1,-0.422555, 0.565486, 9.781209,1,0
1778256587931,  1524.055,  1524.055,-0.022618,-0.187931,-1.248784,-0.000192,-0.001332,-0.010185,-0.634978,-1.281647,-2.464537,1,-0.032007,-0.025966,-0.003177,1,-0.412369, 0.560325, 9.781941,1,0
1778256587952,  1524.080,  1524.075, 0.042673, 0.026581,-0.723053, 0.000661,-0.001055,-0.011037,-0.343328, 0.025209, 1.980695,1, 0.035303,-0.028484,-0.060850,1,-0.402262, 0.553986, 9.782722,1,0
1778256587975,  1524.100,  1524.100, 0.076263,-0.290132,-1.305043, 0.001084,-0.001845,-0.009796, 0.350894,-2.286322,-3.015440,1, 0.028905,-0.021954,-0.086630,1,-0.396457, 0.559692, 9.782635,1,0
1778256588001,  1524.125,  1524.125, 0.246694,-0.114487,-0.905783, 0.001655,-0.001254,-0.010024, 2.017834,-0.551031, 0.899042,1, 0.142408, 0.074271,-0.137941,1,-0.403958, 0.576041, 9.781379,1,0
1778256588022,  1524.150,  1524.145,-0.048331,-0.232536,-0.932708, 0.000131,-0.002107,-0.007579, 0.332317, 0.160106, 2.222707,1, 0.102021,-0.007088,-0.145524,1,-0.413787, 0.597410, 9.779686,1,0
1778256588045,  1524.170,  1524.170,-0.131672,-0.134401,-0.899432,-0.000849,-0.001192,-0.008898,-1.696959,-0.672374, 0.956542,1, 0.251954,-0.001825,-0.197046,1,-0.406041, 0.653234, 9.776441,1,0
1778256588071,  1524.195,  1524.195, 0.065612,-0.217100,-1.295085, 0.000015,-0.002331,-0.013647, 0.232053,-1.443858,-2.926414,1, 0.185068, 0.015825,-0.217228,1,-0.412349, 0.690638, 9.773606,1,0
1778256588092,  1524.220,  1524.215, 0.100975,-0.076217,-0.454627, 0.000884,-0.000496,-0.004270, 1.055549,-0.485551, 1.948048,1, 0.286320, 0.047373,-0.207811,1,-0.423945, 0.738149, 9.769636,1,0
1778256588115,  1524.240,  1524.240, 0.009803,-0.059765,-1.143100, 0.000610,-0.001638,-0.013657,-0.316941, 0.202833,-1.443852,1, 0.138040,-0.048490,-0.168132,1,-0.411989, 0.792997, 9.765849,1,0
1778256588141,  1524.265,  1524.265, 0.013552,-0.114118,-1.230572, 0.000855,-0.000292,-0.010519,-0.286153,-0.294532,-2.304860,1, 0.191884, 0.027066,-0.104435,1,-0.420166, 0.830410, 9.762390,1,0
1778256588162,  1524.290,  1524.285, 0.054083, 0.017525,-0.784626, 0.000530,-0.000726,-0.009932, 0.764679, 1.253796, 2.726319,1, 0.169388, 0.023166,-0.054429,1,-0.424909, 0.862054, 9.759441,1,0
1778256588185,  1524.310,  1524.310,-0.081048, 0.011499,-1.336067,-0.000308, 0.000761,-0.010925,-1.218501, 1.006213,-3.345672,1, 0.124364, 0.004968,-0.003385,1,-0.423853, 0.897301, 9.756310,1,0
1778256588211,  1524.335,  1524.335, 0.033414, 0.071237,-0.863213, 0.000084, 0.000191,-0.009728,-0.093863, 1.606144, 1.290236,1, 0.109528, 0.033000, 0.025737,1,-0.422502, 0.910986, 9.755100,1,0
1778256588233,  1524.360,  1524.355, 0.037099,-0.095149,-0.957341, 0.000593,-0.000174,-0.006962, 0.892078,-0.046271, 2.848624,1, 0.062393,-0.039504, 0.043683,1,-0.426717, 0.924689, 9.753628,1,0
1778256588255,  1524.385,  1524.380, 0.034741, 0.002307,-1.062061, 0.000013, 0.000413,-0.010207,-0.070924, 0.952731,-0.661497,1, 0.057175,-0.007983, 0.084904,1,-0.411121, 0.931992, 9.753602,1,0
1778256588281,  1524.405,  1524.405, 0.040321,-0.066963,-0.963980,-0.000031,-0.000349,-0.010884,-0.011690, 0.276076, 0.300284,1, 0.022572,-0.034973, 0.122174,1,-0.405654, 0.933615, 9.753675,1,0
1778256588303,  1524.430,  1524.425, 0.129560, 0.033093,-0.932239, 0.001718, 0.000013,-0.009856,-0.980161, 0.949404,-1.271630,1, 0.002602, 0.041889, 0.128219,1,-0.407864, 0.935566, 9.753397,1,0
1778256588325,  1524.455,  1524.450, 0.143554, 0.003455,-0.738465, 0.001281,-0.000536,-0.009089, 0.995564, 0.970784, 2.511220,1,-0.052986,-0.042472, 0.143705,1,-0.410473, 0.935445, 9.753299,1,0
1778256588351,  1524.475,  1524.475,-0.058968,-0.075112,-1.468455,-0.000348, 0.000075,-0.012440,-0.988533, 0.197629,-4.647200,1,-0.057944, 0.023658, 0.161782,1,-0.410507, 0.932637, 9.753567,1,0
1778256588373,  1524.500,  1524.495, 0.064787, 0.129781,-0.350560, 0.000811, 0.000227,-0.005989, 0.655823, 1.166396, 4.677847,1, 0.029255, 0.047162, 0.165427,1,-0.416955, 0.934302, 9.753134,1,0
1778256588396,  1524.525,  1524.520,-0.065482,-0.045030,-1.371435,-0.000161, 0.000193,-0.012367,-1.050160, 0.481096,-3.694562,1,-0.097869,-0.058725, 0.163819,1,-0.405820, 0.919816, 9.754980,1,0
1778256588421,  1524.545,  1524.545, 0.142098, 0.020656,-1.120362, 0.001032,-0.000054,-0.011000, 0.988533, 1.111681,-1.230982,1,-0.069693, 0.072931, 0.177160,1,-0.406723, 0.907175, 9.756126,1,0
1778256588443,  1524.570,  1524.565, 0.114594,-0.072546,-0.897028, 0.001287,-0.000485,-0.008018, 1.642297, 1.329745, 3.229867,1,-0.122319,-0.007853, 0.188459,1,-0.411342, 0.893182, 9.757223,1,0
1778256588466,  1524.595,  1524.590, 0.077575, 0.060268,-1.098006, 0.001559, 0.000310,-0.010878, 0.346482, 1.466621,-1.009073,1,-0.086194, 0.064964, 0.190178,1,-0.415756, 0.873165, 9.758848,1,0
1778256588491,  1524.615,  1524.615, 0.077267, 0.007843,-0.909078, 0.000503,-0.000351,-0.011617, 0.338317, 0.935071, 0.845012,1,-0.133477, 0.000681, 0.221431,1,-0.418827, 0.854303, 9.760386,1,0
1778256588513,  1524.640,  1524.635,-0.025934,-0.013026,-1.049693, 0.000313, 0.000451,-0.008979,-0.547832,-0.454761,-3.416057,1,-0.116818, 0.028702, 0.193875,1,-0.422855, 0.839392, 9.761506,1,0
1778256588536,  1524.665,  1524.660, 0.096831, 0.006090,-0.631435, 0.000617,-0.000121,-0.008341, 0.515405, 0.877781, 3.570554,1,-0.079256, 0.051313, 0.166747,1,-0.435344, 0.815824, 9.762955,1,0
1778256588561,  1524.685,  1524.685, 0.043574,-0.062071,-0.908659, 0.000508,-0.000992,-0.009809,-0.011002, 0.196145, 0.852834,1,-0.141699,-0.019441, 0.138845,1,-0.437359, 0.800648, 9.764121,1,0
1778256588583,  1524.710,  1524.705, 0.059484,-0.095647,-0.855165, 0.000742,-0.001206,-0.008882, 0.105811,-0.034366,-1.242250,1,-0.061227, 0.066780, 0.095082,1,-0.445929, 0.789157, 9.764669,1,0
1778256588610,  1524.735,  1524.735, 0.021533,-0.040603,-0.942373,-0.000464,-0.001004,-0.010725,-0.238651, 0.373739, 0.524344,1,-0.115968,-0.041800, 0.082260,1,-0.448319, 0.768425, 9.766213,1,0
1778256588631,  1524.755,  1524.755,-0.044092,-0.113055,-1.468068,-0.000060,-0.000576,-0.012528,-0.884526,-0.345467,-4.630383,1,-0.039736, 0.073750, 0.052805,1,-0.454294, 0.762061, 9.766436,1,0
1778256588653,  1524.780,  1524.775, 0.056789, 0.019158,-0.555214, 0.000560,-0.000825,-0.008530, 0.032053, 0.826416, 2.976471,1,-0.016209, 0.067806, 0.059314,1,-0.465216, 0.751468, 9.766742,1,0
1778256588680,  1524.805,  1524.805,-0.012764,-0.166320,-1.166510, 0.000110,-0.000977,-0.009422,-0.590246,-0.888242,-1.672143,1,-0.008954, 0.016537, 0.022094,1,-0.465534, 0.742552, 9.767409,1,0
1778256588702,  1524.830,  1524.825, 0.067422,-0.019086,-0.673459, 0.000468,-0.000220,-0.007893, 0.606490, 0.321143, 0.207741,1,-0.064065, 0.031971, 0.046021,1,-0.472868, 0.731164, 9.767916,1,0
1778256588723,  1524.850,  1524.845,-0.005788,-0.074652,-0.929304,-0.000349,-0.000533,-0.009106, 0.399155, 0.925683, 1.637286,1,-0.100271,-0.041765, 0.046269,1,-0.470909, 0.718180, 9.768973,1,0
1778256588750,  1524.875,  1524.875, 0.041881,-0.028811,-1.310876, 0.000708,-0.000102,-0.012408,-0.055148, 0.418630,-3.084856,1,-0.077145, 0.046875, 0.034143,1,-0.467242, 0.698816, 9.770554,1,0
1778256588772,  1524.900,  1524.895, 0.081518,-0.024000,-0.702122, 0.000819,-0.000594,-0.008470, 0.974823, 1.246501, 5.015056,1,-0.037594,-0.023609, 0.048840,1,-0.468926, 0.687887, 9.771249,1,0
1778256588793,  1524.920,  1524.915, 0.065381,-0.113992,-1.798898, 0.000855,-0.000213,-0.015180, 0.349792,-0.244671,-2.685935,1,-0.095075,-0.005990, 0.048134,1,-0.470532, 0.679592, 9.771752,1,0
1778256588820,  1524.945,  1524.945, 0.256503, 0.008713,-0.775792, 0.001843,-0.000344,-0.010224, 2.015873, 0.745338, 2.163736,1,-0.027704, 0.095200, 0.084930,1,-0.502342, 0.659168, 9.771567,1,0
1778256588842,  1524.970,  1524.965,-0.002649,-0.105420,-1.165553, 0.000142,-0.000148,-0.009854,-0.099427, 0.097962, 3.708561,1,-0.041919,-0.049728, 0.045743,1,-0.499191, 0.658341, 9.771785,1,0
1778256588863,  1524.990,  1524.985, 0.035082, 0.042163,-1.122533, 0.000695, 0.000264,-0.012076,-0.461719, 0.361152,-3.509748,1,-0.028419, 0.025505, 0.028205,1,-0.495856, 0.648527, 9.772611,1,0
1778256588890,  1525.015,  1525.015, 0.161875, 0.008246,-0.745779, 0.001212,-0.000472,-0.008935, 1.077517, 0.719195, 2.458959,1,-0.050269, 0.034582, 0.040795,1,-0.510923, 0.636833, 9.772604,1,0
1778256588912,  1525.040,  1525.035, 0.123108,-0.116568,-1.246779, 0.000706,-0.000326,-0.009686, 0.707079,-0.380967, 1.474100,1,-0.043791,-0.044716, 0.044608,1,-0.507706, 0.633539, 9.772985,1,0
1778256588933,  1525.060,  1525.055, 0.219567, 0.028353,-1.219294, 0.001290,-0.000511,-0.014484,-0.123214, 0.574879,-3.736085,1,-0.040052, 0.013207, 0.049678,1,-0.500473, 0.624052, 9.773969,1,0
1778256588960,  1525.085,  1525.085, 0.069623,-0.079617,-0.628374, 0.000858,-0.000801,-0.006338, 0.176709,-0.163557, 3.611874,1,-0.062311,-0.069379, 0.069981,1,-0.503765, 0.615398, 9.774348,1,0
1778256588982,  1525.110,  1525.105,-0.152738,-0.049323,-1.421529,-0.001561,-0.000519,-0.013967,-2.029447, 0.388970,-1.758964,1,-0.095815,-0.152778, 0.066269,1,-0.476402, 0.605940, 9.776311,1,0
1778256589003,  1525.130,  1525.125,-0.131243,-0.113298,-1.208191,-0.001513,-0.001462,-0.012706,-1.639894, 0.670735,-2.386231,1,-0.141703,-0.142947, 0.097256,1,-0.450956, 0.584331, 9.778833,1,0
1778256589030,  1525.155,  1525.155, 0.102943,-0.062217,-1.268380, 0.001081,-0.000061,-0.010483, 0.567690,-0.051453,-2.657814,1,-0.125344, 0.044659, 0.050775,1,-0.443133, 0.554854, 9.780908,1,0
1778256589052,  1525.180,  1525.175, 0.247398,-0.012862,-0.353292, 0.002281,-0.000790,-0.005312, 2.928639, 0.796845, 5.403030,1,-0.048361, 0.033639, 0.017334,1,-0.451191, 0.542165, 9.781251,1,0
1778256589074,  1525.200,  1525.195,-0.064391,-0.039251,-1.031146,-0.000163,-0.000828,-0.009760, 0.836890, 0.423417, 5.115451,1,-0.085284,-0.134838, 0.050668,1,-0.440488, 0.526392, 9.782600,1,0
1778256589101,  1525.225,  1525.225, 0.046762,-0.101796,-1.507275, 0.001128,-0.000713,-0.014428, 0.017388,-0.492313,-4.997674,1,-0.026312, 0.151573,-0.010292,1,-0.445927, 0.505128, 9.783475,1,0
1778256589122,  1525.250,  1525.245, 0.028753,-0.090397,-0.826243,-0.000287,-0.000752,-0.007869, 0.115673, 0.448391, 6.526787,1,-0.014244,-0.050751,-0.002163,1,-0.453681, 0.501710, 9.783294,1,0
1778256589145,  1525.270,  1525.270, 0.021638,-0.156817,-1.435721, 0.000315,-0.001059,-0.012017,-0.233375,-1.038426,-4.295835,1, 0.038926, 0.099396,-0.085803,1,-0.448802, 0.500516, 9.783581,1,0
1778256589171,  1525.295,  1525.295, 0.176273,-0.006826,-0.729430, 0.001469,-0.000800,-0.009643, 1.266548, 0.433338, 2.629709,1, 0.003991, 0.052667,-0.048826,1,-0.463815, 0.500330, 9.782889,1,0
1778256589192,  1525.320,  1525.315,-0.000938,-0.126570,-1.240739, 0.000586,-0.000671,-0.010502, 0.810042,-0.565500,-0.204274,1,-0.013601,-0.007568,-0.059643,1,-0.474191, 0.503090, 9.782250,1,0
1778256589215,  1525.340,  1525.340, 0.027563,-0.069602,-0.945261, 0.000337,-0.000248,-0.009345,-0.215121,-0.172779, 0.511505,1, 0.025958,-0.010822,-0.050111,1,-0.485168, 0.510514, 9.781328,1,0
1778256589241,  1525.365,  1525.365, 0.056597,-0.039402,-0.891872,-0.000676,-0.000952,-0.010074, 0.081341, 0.123341, 1.035651,1, 0.033642,-0.048733,-0.070369,1,-0.472283, 0.510686, 9.781949,1,0
1778256589262,  1525.390,  1525.385, 0.087022,-0.122498,-1.161825, 0.001052,-0.000596,-0.009356, 0.131893,-0.592496,-2.985443,1,-0.010149, 0.026112,-0.049838,1,-0.479661, 0.512722, 9.781484,1,0
1778256589285,  1525.410,  1525.410, 0.061630, 0.008863,-0.553706, 0.000739,-0.000255,-0.007173, 0.127039, 0.597777, 4.351689,1, 0.000969,-0.088808,-0.007039,1,-0.474594, 0.510880, 9.781827,1,0
1778256589311,  1525.435,  1525.435, 0.046329,-0.009771,-1.149940, 0.000395,-0.000511,-0.011945,-0.014983, 0.417152,-1.495091,1,-0.051184,-0.045579,-0.034135,1,-0.467948, 0.511333, 9.782124,1,0
1778256589332,  1525.460,  1525.455, 0.091178,-0.080899,-1.059514, 0.001007,-0.000436,-0.009172,-0.375224, 0.304582,-2.596855,1,-0.008706, 0.028843,-0.022019,1,-0.472218, 0.508490, 9.782067,1,0
1778256589355,  1525.480,  1525.480, 0.201842,-0.032309,-1.005196, 0.000770,-0.001008,-0.011300, 1.506111, 0.188538,-0.075432,1,-0.018368, 0.041610,-0.045270,1,-0.474647, 0.504737, 9.782144,1,0
1778256589381,  1525.505,  1525.505, 0.148548,-0.003420,-1.220625, 0.001283,-0.000042,-0.011848, 0.967999, 0.469153,-2.188691,1,-0.025530, 0.081845,-0.020518,1,-0.491343, 0.501867, 9.781466,1,0
1778256589402,  1525.530,  1525.525, 0.080009, 0.017266,-0.556590, 0.001202, 0.000054,-0.006694, 0.254839,-0.817569, 1.637408,1, 0.116023, 0.119123,-0.012668,1,-0.510177, 0.512610, 9.779945,1,0
1778256589425,  1525.550,  1525.550,-0.062177, 0.012447,-0.782916,-0.000207,-0.000590,-0.009352,-1.118904, 0.636858, 2.102104,1,-0.031283,-0.091277, 0.001376,1,-0.506310, 0.513820, 9.780083,1,0
1778256589451,  1525.575,  1525.575,-0.131964,-0.088537,-1.502104,-0.000793,-0.000166,-0.013105,-1.798259,-0.355868,-4.950342,1, 0.059118, 0.070353,-0.006708,1,-0.506332, 0.514217, 9.780061,1,0
1778256589473,  1525.600,  1525.595, 0.185573, 0.050796,-0.641559, 0.001486,-0.000069,-0.007560, 0.229307, 0.024483, 3.054626,1, 0.059497, 0.076155, 0.018654,1,-0.522823, 0.519728, 9.778902,1,0
1778256589495,  1525.625,  1525.620, 0.169896,-0.016008,-0.956593, 0.001328, 0.000202,-0.008893, 1.135321, 0.364582, 0.397401,1, 0.005397, 0.002052, 0.000133,1,-0.530852, 0.521732, 9.778362,1,0
1778256589521,  1525.645,  1525.645, 0.077013,-0.106309,-1.182514, 0.000777,-0.000299,-0.009398, 0.225331,-0.522135,-1.818013,1, 0.008707, 0.031817, 0.026406,1,-0.530858, 0.520714, 9.778417,1,0
1778256589543,  1525.670,  1525.665, 0.033281, 0.019913,-0.574607, 0.000143,-0.000352,-0.008473, 0.123133, 0.780889, 0.347930,1,-0.044472, 0.027769, 0.062609,1,-0.533885, 0.513751, 9.778620,1,0
