Time,GPS_ts,fGPS_ts,scaledAccelX,scaledAccelY,scaledAccelZ,deltaVelX,deltaVelY,deltaVelZ,estLinearAccelX,estLinearAccelY,estLinearAccelZ,estLinearAccel:valid,estAngularRateX,estAngularRateY,estAngularRateZ,estAngularRate:valid,estGravityX,estGravityY,estGravityZ,estGravity:valid,flag
1778257233492,  2158.002,  2158.002, 0.041562,-0.042411,-0.994697, 0.000415,-0.000425,-0.009947,-0.000221,-0.008131, 0.035031,1,-0.001833, 0.000391, 0.000061,1,-0.407820, 0.407723, 9.789680,1,0
1778257233492,  2158.027,  2158.022, 0.041508,-0.040974,-0.993614, 0.000413,-0.000413,-0.009936,-0.002416, 0.003199, 0.046931,1,-0.002371, 0.000884,-0.000482,1,-0.407939, 0.407344, 9.789691,1,0
1778257233492,  2158.047,  2158.047, 0.041353,-0.041836,-0.994481, 0.000413,-0.000413,-0.009944,-0.002431,-0.003478, 0.037188,1,-0.002370,-0.000561,-0.000144,1,-0.407946, 0.406716, 9.789717,1,0
1778257233492,  2158.072,  2158.072, 0.041593,-0.042074,-0.994761, 0.000416,-0.000420,-0.009945, 0.000006,-0.006426, 0.034463,1,-0.004012,-0.000084,-0.000265,1,-0.407876, 0.406054, 9.789746,1,0
1778257233492,  2158.097,  2158.092, 0.041115,-0.041467,-0.994006, 0.000411,-0.000417,-0.009943,-0.002596,-0.003645, 0.037376,1,-0.003455,-0.000104, 0.000254,1,-0.407856, 0.405390, 9.789775,1,0
1778257233492,  2158.122,  2158.122, 0.040976,-0.041064,-0.994764, 0.000410,-0.000412,-0.009947,-0.006028, 0.001553, 0.034515,1,-0.004975,-0.000157, 0.000105,1,-0.407862, 0.404097, 9.789828,1,0
1778257233492,  2158.147,  2158.142, 0.040554,-0.041393,-0.994287, 0.000405,-0.000414,-0.009943,-0.012512, 0.000576, 0.034592,1,-0.005581, 0.000207,-0.000414,1,-0.407872, 0.403118, 9.789868,1,0
1778257233492,  2158.172,  2158.167, 0.040147,-0.041989,-0.994040, 0.000404,-0.000421,-0.009944,-0.014093,-0.009955, 0.041718,1,-0.006143, 0.000263,-0.000855,1,-0.407792, 0.401649, 9.789932,1,0
1778257233492,  2158.197,  2158.192, 0.041026,-0.040388,-0.994321, 0.000410,-0.000403,-0.009945,-0.006091, 0.006452, 0.034545,1,-0.006938, 0.000495,-0.000120,1,-0.407845, 0.400423, 9.789980,1,0
1778257233492,  2158.217,  2158.212, 0.041204,-0.041137,-0.993913, 0.000414,-0.000410,-0.009940,-0.000795, 0.004725, 0.037692,1,-0.006878, 0.000450,-0.000429,1,-0.407901, 0.399099, 9.790031,1,0
1778257233492,  2158.237,  2158.232, 0.041198,-0.041030,-0.994879, 0.000414,-0.000409,-0.009951,-0.001418,-0.007529, 0.034213,1,-0.006218, 0.000554,-0.000386,1,-0.408092, 0.397819, 9.790076,1,0
1778257233506,  2169.622,  2169.622, 0.040669,-0.049417,-0.993928, 0.000407,-0.000489,-0.009940,-0.009220,-0.006962, 0.039405,1,-0.002390, 0.000396,-0.000596,1,-0.408063, 0.477577, 9.786510,1,0
1778257233528,  2169.647,  2169.642, 0.040786,-0.048138,-0.994628, 0.000407,-0.000482,-0.009946,-0.009185, 0.000515, 0.041302,1,-0.001812, 0.000846,-0.000352,1,-0.408207, 0.477149, 9.786526,1,0
1778257233549,  2169.667,  2169.662, 0.040037,-0.048656,-0.993488, 0.000402,-0.000487,-0.009937,-0.012069, 0.004920, 0.036131,1,-0.001753,-0.000275,-0.000087,1,-0.408256, 0.476769, 9.786542,1,0
1778257233576,  2169.692,  2169.692, 0.039752,-0.049492,-0.993642, 0.000397,-0.000495,-0.009935,-0.018485,-0.009256, 0.042273,1,-0.003664,-0.000031,-0.001061,1,-0.408321, 0.475981, 9.786577,1,0
1778257233598,  2169.717,  2169.712, 0.040117,-0.047783,-0.994528, 0.000403,-0.000478,-0.009947,-0.010817, 0.003027, 0.023921,1,-0.003171,-0.000157,-0.000151,1,-0.408423, 0.475399, 9.786602,1,0
1778257233621,  2169.737,  2169.732, 0.040548,-0.047213,-0.992959, 0.000404,-0.000472,-0.009929,-0.013538, 0.007621, 0.041404,1,-0.003692, 0.000330,-0.000552,1,-0.408452, 0.474745, 9.786633,1,0
1778257233646,  2169.762,  2169.762, 0.040084,-0.048395,-0.993894, 0.000402,-0.000484,-0.009939,-0.015420,-0.001058, 0.039916,1,-0.004400, 0.000734,-0.000935,1,-0.408537, 0.473396, 9.786694,1,0
1778257233668,  2169.787,  2169.782, 0.040922,-0.048103,-0.994810, 0.000409,-0.000483,-0.009949,-0.011305,-0.004748, 0.028153,1,-0.006660, 0.000732,-0.000214,1,-0.408193, 0.472375, 9.786757,1,0
1778257233691,  2169.807,  2169.807, 0.042299,-0.048180,-0.994402, 0.000422,-0.000481,-0.009942, 0.006566,-0.001778, 0.035081,1,-0.005753,-0.000084,-0.000127,1,-0.408240, 0.470530, 9.786844,1,0
1778257233716,  2169.832,  2169.832, 0.042395,-0.047702,-0.993263, 0.000423,-0.000474,-0.009931, 0.007543, 0.001674, 0.046309,1,-0.005977, 0.000006,-0.000006,1,-0.408213, 0.469290, 9.786905,1,0
1778257233738,  2169.852,  2169.852, 0.043008,-0.046433,-0.993854, 0.000429,-0.000465,-0.009941, 0.013458, 0.013250, 0.040560,1,-0.003898, 0.000220,-0.000517,1,-0.408312, 0.468480, 9.786940,1,0
1778257233761,  2169.877,  2169.877, 0.041894,-0.046971,-0.994155, 0.000421,-0.000469,-0.009944, 0.002436, 0.007099, 0.037644,1,-0.001655, 0.000531,-0.000775,1,-0.408425, 0.467673, 9.786974,1,0
1778257233787,  2169.902,  2169.902, 0.042027,-0.046807,-0.993962, 0.000422,-0.000468,-0.009938, 0.003655, 0.008361, 0.039547,1,-0.002186,-0.000197,-0.000476,1,-0.408485, 0.467316, 9.786988,1,0
1778257233808,  2169.927,  2169.922, 0.041749,-0.047520,-0.994688, 0.000419,-0.000476,-0.009946, 0.005224, 0.002135, 0.026765,1,-0.001424, 0.000363,-0.000788,1,-0.408524, 0.466958, 9.787004,1,0
1778257233831,  2169.947,  2169.947, 0.040901,-0.046121,-0.993720, 0.000409,-0.000461,-0.009935,-0.007382, 0.014210, 0.041958,1,-0.000997, 0.000915,-0.000081,1,-0.408517, 0.466475, 9.787027,1,0
1778257233857,  2169.972,  2169.972, 0.039971,-0.045877,-0.994517, 0.000400,-0.000459,-0.009943,-0.016663, 0.016380, 0.034153,1,-0.000451,-0.000186,-0.000586,1,-0.408660, 0.466238, 9.787032,1,0
1778257233878,  2169.997,  2169.992, 0.040768,-0.045701,-0.994439, 0.000406,-0.000457,-0.009947,-0.014346, 0.015200, 0.029260,1, 0.001696,-0.000349,-0.000874,1,-0.408694, 0.466463, 9.787021,1,0
1778257233901,  2170.017,  2170.017, 0.041223,-0.046408,-0.993779, 0.000413,-0.000460,-0.009937,-0.004411, 0.011813, 0.041354,1, 0.001525, 0.000201, 0.000142,1,-0.408673, 0.466968, 9.786997,1,0
1778257233927,  2170.042,  2170.042, 0.041192,-0.047870,-0.995145, 0.000410,-0.000480,-0.009949,-0.004630,-0.002210, 0.027952,1, 0.001611,-0.000090, 0.000496,1,-0.408583, 0.467288, 9.786985,1,0
1778257233948,  2170.067,  2170.062, 0.041183,-0.046386,-0.994447, 0.000413,-0.000466,-0.009944,-0.002142, 0.002794, 0.032944,1, 0.001533, 0.000221, 0.000226,1,-0.408575, 0.467464, 9.786978,1,0
1778257233971,  2170.092,  2170.087, 0.041844,-0.046799,-0.993223, 0.000418,-0.000469,-0.009935, 0.001699, 0.008969, 0.046764,1, 0.002802,-0.000122, 0.000166,1,-0.408642, 0.467998, 9.786949,1,0
1778257233997,  2170.112,  2170.112, 0.041810,-0.047766,-0.994335, 0.000418,-0.000476,-0.009942, 0.001383,-0.000069, 0.035840,1, 0.002115, 0.000653, 0.000004,1,-0.408653, 0.468418, 9.786928,1,0
1778257234018,  2170.137,  2170.132, 0.041910,-0.048567,-0.994836, 0.000418,-0.000485,-0.009948,-0.001884,-0.002315, 0.031833,1, 0.002271, 0.001191, 0.000010,1,-0.408804, 0.468806, 9.786903,1,0
1778257234041,  2170.162,  2170.157, 0.040911,-0.048575,-0.993982, 0.000406,-0.000485,-0.009939,-0.007654,-0.007192, 0.039251,1, 0.001975,-0.000001, 0.000388,1,-0.408854, 0.469231, 9.786881,1,0
1778257234067,  2170.182,  2170.182, 0.042224,-0.048437,-0.993786, 0.000420,-0.000483,-0.009937, 0.005307,-0.005815, 0.041170,1, 0.000667,-0.000159,-0.000442,1,-0.408765, 0.469205, 9.786886,1,0
1778257234088,  2170.207,  2170.202, 0.041718,-0.047909,-0.994525, 0.000418,-0.000480,-0.009947,-0.001363, 0.000851, 0.033883,1, 0.001806, 0.000975,-0.001095,1,-0.408922, 0.469462, 9.786867,1,0
1778257234111,  2170.232,  2170.227, 0.041562,-0.047834,-0.992814, 0.000416,-0.000478,-0.009932,-0.001398, 0.001180, 0.050644,1, 0.003403, 0.000495,-0.001226,1,-0.409003, 0.470377, 9.786820,1,0
1778257234137,  2170.252,  2170.252, 0.042225,-0.048122,-0.993521, 0.000423,-0.000482,-0.009937, 0.005170,-0.000887, 0.043681,1, 0.002608,-0.000497,-0.000772,1,-0.408903, 0.471111, 9.786789,1,0
1778257234159,  2170.277,  2170.272, 0.042334,-0.049754,-0.995023, 0.000422,-0.000497,-0.009947, 0.009392,-0.023397, 0.024322,1,-0.000205,-0.000998,-0.000590,1,-0.408788, 0.471252, 9.786787,1,0
1778257234181,  2170.302,  2170.297, 0.041806,-0.047175,-0.993438, 0.000421,-0.000472,-0.009939, 0.001077, 0.008192, 0.044502,1,-0.002292,-0.000183,-0.001072,1,-0.408898, 0.470748, 9.786806,1,0
1778257234207,  2170.322,  2170.322, 0.040843,-0.047629,-0.993562, 0.000407,-0.000475,-0.009934,-0.008428, 0.003152, 0.043316,1,-0.003280, 0.000408,-0.000488,1,-0.408977, 0.470130, 9.786833,1,0
1778257234229,  2170.347,  2170.342, 0.040188,-0.049017,-0.993934, 0.000400,-0.000491,-0.009944,-0.016551,-0.008805, 0.040154,1,-0.003259, 0.000516,-0.001663,1,-0.409106, 0.469392, 9.786863,1,0
1778257234252,  2170.372,  2170.367, 0.039464,-0.047999,-0.994533, 0.000394,-0.000478,-0.009942,-0.022165,-0.001964, 0.033858,1,-0.002165, 0.000182,-0.001135,1,-0.409185, 0.468702, 9.786893,1,0
1778257234277,  2170.392,  2170.392, 0.040226,-0.045733,-0.994111, 0.000402,-0.000456,-0.009940,-0.014713, 0.019932, 0.038011,1,-0.000884,-0.000287,-0.001106,1,-0.409190, 0.468390, 9.786907,1,0
1778257234301,  2170.417,  2170.412, 0.041896,-0.047296,-0.993497, 0.000423,-0.000469,-0.009938,-0.004687, 0.025994, 0.047145,1, 0.002170, 0.000057,-0.001523,1,-0.409201, 0.468768, 9.786889,1,0
1778257234326,  2170.442,  2170.442, 0.042998,-0.050723,-0.994461, 0.000438,-0.000508,-0.009946, 0.012733,-0.028268, 0.034549,1, 0.000627,-0.000879, 0.000261,1,-0.408901, 0.469178, 9.786881,1,0
1778257234347,  2170.462,  2170.462, 0.047614,-0.047693,-0.993688, 0.000476,-0.000486,-0.009958, 0.058110, 0.001307, 0.042140,1,-0.001629, 0.000167, 0.000978,1,-0.408828, 0.468963, 9.786895,1,0
1778257234369,  2170.487,  2170.482, 0.045440,-0.050481,-0.993486, 0.000455,-0.000497,-0.009928, 0.045577,-0.000636, 0.046876,1,-0.003338,-0.000020, 0.001364,1,-0.408794, 0.468493, 9.786920,1,0
1778257234396,  2170.512,  2170.512, 0.046006,-0.051981,-0.993394, 0.000462,-0.000522,-0.009937, 0.042395,-0.042141, 0.045095,1,-0.004004,-0.000610, 0.001028,1,-0.408754, 0.467492, 9.786968,1,0
1778257234417,  2170.537,  2170.532, 0.047332,-0.057520,-0.995959, 0.000464,-0.000572,-0.009956, 0.046275,-0.088127, 0.040344,1,-0.007416,-0.001263, 0.001888,1,-0.408479, 0.466329, 9.787036,1,0
1778257234439,  2170.557,  2170.552, 0.044228,-0.054871,-0.994226, 0.000443,-0.000550,-0.009933, 0.030341,-0.096890, 0.022320,1,-0.014973,-0.000079, 0.005952,1,-0.408273, 0.463918, 9.787159,1,0
1778257234466,  2170.582,  2170.582, 0.041625,-0.052080,-0.993259, 0.000417,-0.000523,-0.009935,-0.000966,-0.051403, 0.046798,1,-0.027354,-0.001098, 0.005234,1,-0.409140, 0.458494, 9.787378,1,0
1778257234487,  2170.607,  2170.602, 0.037073,-0.056080,-0.992188, 0.000376,-0.000565,-0.009926,-0.035486,-0.094012, 0.047267,1,-0.038576, 0.001016, 0.006167,1,-0.409171, 0.451779, 9.787689,1,0
1778257234509,  2170.627,  2170.622, 0.034643,-0.053882,-0.992256, 0.000351,-0.000547,-0.009927,-0.050627,-0.091650, 0.060723,1,-0.054931, 0.001035, 0.006090,1,-0.409220, 0.442128, 9.788128,1,0
1778257234536,  2170.652,  2170.652, 0.035119,-0.052318,-0.990671, 0.000347,-0.000526,-0.009901,-0.065571,-0.089177, 0.073735,1,-0.081311, 0.005010, 0.006132,1,-0.410123, 0.421361, 9.789006,1,0
1778257234558,  2170.677,  2170.672, 0.033081,-0.050852,-0.997348, 0.000331,-0.000512,-0.009977,-0.082330,-0.088912, 0.026165,1,-0.097626, 0.007073, 0.005387,1,-0.411352, 0.403185, 9.789720,1,0
1778257234579,  2170.697,  2170.692, 0.036553,-0.056591,-0.995658, 0.000360,-0.000573,-0.009957,-0.073848,-0.146623, 0.013437,1,-0.108315, 0.004898,-0.000523,1,-0.412417, 0.382595, 9.790502,1,0
1778257234606,  2170.722,  2170.722, 0.038670,-0.054829,-0.990402, 0.000386,-0.000554,-0.009899,-0.034292,-0.185682, 0.079073,1,-0.122434, 0.005363,-0.001091,1,-0.413686, 0.348186, 9.791732,1,0
1778257234628,  2170.747,  2170.742, 0.037958,-0.041955,-0.995080, 0.000382,-0.000426,-0.009946,-0.031493,-0.104880, 0.077101,1,-0.134188, 0.007373,-0.003680,1,-0.415192, 0.322720, 9.792541,1,0
1778257234649,  2170.767,  2170.762, 0.035888,-0.043835,-0.997062, 0.000360,-0.000443,-0.009969,-0.055217,-0.119772, 0.009058,1,-0.147370, 0.008832,-0.006447,1,-0.417005, 0.294528, 9.793352,1,0
1778257234676,  2170.792,  2170.792, 0.038024,-0.039381,-0.991906, 0.000381,-0.000410,-0.009926,-0.044576,-0.132934, 0.067209,1,-0.168627, 0.007735,-0.004662,1,-0.417712, 0.247999, 9.794611,1,0
1778257234698,  2170.817,  2170.812, 0.045182,-0.021401,-0.991714, 0.000453,-0.000225,-0.009916, 0.005014,-0.031805, 0.065436,1,-0.181613, 0.008911,-0.004260,1,-0.419333, 0.213176, 9.795362,1,0
1778257234719,  2170.837,  2170.832, 0.048605,-0.022036,-0.997229, 0.000479,-0.000228,-0.009955, 0.032774,-0.016282, 0.049497,1,-0.193821, 0.009693,-0.002987,1,-0.421182, 0.175869, 9.796022,1,0
1778257234746,  2170.862,  2170.862, 0.050459,-0.016321,-0.998653, 0.000503,-0.000174,-0.009979, 0.071070,-0.036785, 0.003274,1,-0.203623, 0.010371,-0.000247,1,-0.424083, 0.116920, 9.796779,1,0
1778257234768,  2170.887,  2170.882, 0.049457,-0.002312,-0.991488, 0.000492,-0.000041,-0.009911, 0.058360, 0.005597, 0.059654,1,-0.202885, 0.010314,-0.000749,1,-0.426100, 0.076980, 9.797086,1,0
1778257234789,  2170.907,  2170.902, 0.050282, 0.004025,-0.996337, 0.000502, 0.000028,-0.009959, 0.063440, 0.043788, 0.059441,1,-0.198559, 0.011418,-0.002100,1,-0.428192, 0.037581, 9.797225,1,0
1778257234816,  2170.932,  2170.932, 0.050586, 0.011129,-0.996921, 0.000505, 0.000101,-0.009970, 0.065192, 0.096802, 0.020711,1,-0.182393, 0.009913,-0.003169,1,-0.431196,-0.018032, 9.797149,1,0
1778257234838,  2170.957,  2170.952, 0.048717, 0.016966,-0.993469, 0.000486, 0.000161,-0.009935, 0.054105, 0.108113, 0.054108,1,-0.167825, 0.008405,-0.004381,1,-0.432948,-0.051823, 9.796951,1,0
1778257234861,  2170.977,  2170.977, 0.047700, 0.020888,-0.994723, 0.000480, 0.000198,-0.009946, 0.031323, 0.112772, 0.041598,1,-0.144704, 0.008143,-0.006368,1,-0.436719,-0.096590, 9.796445,1,0
1778257234886,  2171.002,  2171.002, 0.044897, 0.021204,-0.998186, 0.000451, 0.000203,-0.009978, 0.002332, 0.088698, 0.007282,1,-0.133547, 0.006939,-0.006446,1,-0.438169,-0.123417, 9.796079,1,0
1778257234908,  2171.027,  2171.022, 0.090222,-0.008549,-1.040356, 0.000737, 0.000011,-0.009835, 0.233449,-0.262061,-0.436790,1,-0.102378,-0.015365,-0.016985,1,-0.438082,-0.145831, 9.795774,1,0
1778257234931,  2171.047,  2171.047, 0.097293, 0.039689,-1.032230, 0.001008, 0.000526,-0.010258, 0.518727, 0.221243,-0.327178,1,-0.084176,-0.001071,-0.022586,1,-0.435347,-0.170624, 9.795496,1,0
1778257234957,  2171.072,  2171.072, 0.090481,-0.011807,-0.949652, 0.000881,-0.000014,-0.009382, 0.450253,-0.297281, 0.482316,1,-0.062316, 0.004194,-0.021897,1,-0.437183,-0.183470, 9.795182,1,0
1778257234978,  2171.097,  2171.092, 0.070133, 0.044985,-1.026165, 0.000730, 0.000404,-0.010202, 0.245027,-0.024009, 0.037456,1,-0.057176,-0.000222,-0.034423,1,-0.436570,-0.194451, 9.794997,1,0
1778257235001,  2171.117,  2171.117, 0.055896, 0.041945,-1.013560, 0.000582, 0.000435,-0.010127, 0.107649, 0.198758,-0.145181,1,-0.084408, 0.017457,-0.010056,1,-0.441041,-0.215231, 9.794363,1,0
1778257235027,  2171.142,  2171.142, 0.014125, 0.002888,-0.982967, 0.000152, 0.000030,-0.009825,-0.303692,-0.199240, 0.154417,1,-0.077728, 0.007253,-0.014294,1,-0.442423,-0.230002, 9.793964,1,0
1778257235048,  2171.167,  2171.162, 0.039363, 0.053046,-1.002436, 0.000384, 0.000499,-0.010014,-0.135116, 0.117251, 0.117299,1,-0.073284, 0.001061,-0.018426,1,-0.442901,-0.243670, 9.793612,1,0
1778257235071,  2171.187,  2171.187, 0.051145, 0.037650,-1.011201, 0.000509, 0.000380,-0.010125, 0.058481, 0.105348,-0.123414,1,-0.064925,-0.002074,-0.006380,1,-0.443013,-0.265909, 9.793029,1,0
1778257235097,  2171.212,  2171.212, 0.066021, 0.020713,-0.992943, 0.000654, 0.000199,-0.009944, 0.205353,-0.072548, 0.055354,1,-0.055302,-0.005630,-0.016165,1,-0.441907,-0.277419, 9.792760,1,0
1778257235118,  2171.237,  2171.232, 0.083499, 0.021032,-0.987732, 0.000833, 0.000210,-0.009869, 0.340848,-0.071987, 0.128643,1,-0.051203,-0.000904,-0.017015,1,-0.441311,-0.287514, 9.792496,1,0
1778257235141,  2171.257,  2171.257, 0.082854, 0.018122,-1.001214, 0.000829, 0.000173,-0.010010, 0.371292,-0.121338,-0.026405,1,-0.037178,-0.001207,-0.020773,1,-0.441175,-0.300246, 9.792119,1,0
1778257235167,  2171.282,  2171.282, 0.083189, 0.019871,-0.992835, 0.000832, 0.000196,-0.009933, 0.374527,-0.111650, 0.055537,1,-0.034111, 0.001069,-0.031476,1,-0.441280,-0.307623, 9.791885,1,0
1778257235188,  2171.307,  2171.302, 0.076420, 0.003287,-0.993185, 0.000769, 0.000033,-0.009930, 0.337462,-0.258809, 0.076818,1,-0.041010,-0.000927,-0.034287,1,-0.440964,-0.315602, 9.791646,1,0
1778257235211,  2171.332,  2171.327, 0.076063, 0.016056,-0.999001, 0.000765, 0.000142,-0.009988, 0.304348,-0.171621,-0.005680,1,-0.055471, 0.005197,-0.035980,1,-0.441703,-0.330856, 9.791109,1,0
1778257235237,  2171.352,  2171.352, 0.071465, 0.029725,-0.996029, 0.000722, 0.000287,-0.009976, 0.258725,-0.049763, 0.023023,1,-0.063655, 0.002807,-0.039944,1,-0.442152,-0.343306, 9.790660,1,0
1778257235258,  2171.377,  2171.372, 0.069595, 0.011763,-0.993323, 0.000693, 0.000117,-0.009921, 0.234885,-0.168336, 0.067732,1,-0.075672, 0.002482,-0.043343,1,-0.442747,-0.356507, 9.790161,1,0
1778257235281,  2171.402,  2171.397, 0.070352, 0.003999,-0.993518, 0.000704, 0.000040,-0.009941, 0.246836,-0.341083, 0.046164,1,-0.099799, 0.004924,-0.046474,1,-0.443177,-0.383475, 9.789123,1,0
1778257235307,  2171.422,  2171.422, 0.076568, 0.015249,-0.989175, 0.000763, 0.000139,-0.009897, 0.307298,-0.252462, 0.087864,1,-0.119110, 0.005360,-0.049827,1,-0.443685,-0.405784, 9.788200,1,0
1778257235329,  2171.447,  2171.442, 0.092296, 0.001447,-0.975056, 0.000888,-0.000007,-0.009705, 0.381386,-0.240133, 0.084025,1,-0.141594, 0.006934,-0.049791,1,-0.444547,-0.432612, 9.787012,1,0
1778257235351,  2171.472,  2171.467, 0.121673, 0.015155,-0.995023, 0.001164, 0.000152,-0.009800, 0.746128,-0.325045, 0.027146,1,-0.165365, 0.017986,-0.057266,1,-0.447551,-0.478895, 9.784719,1,0
1778257235377,  2171.492,  2171.492, 0.148571, 0.037930,-0.994175, 0.001479, 0.000349,-0.009994, 1.007067,-0.137394, 0.033541,1,-0.188652, 0.017203,-0.067369,1,-0.450339,-0.515330, 9.782741,1,0
1778257235399,  2171.517,  2171.512, 0.065356,-0.003794,-1.004072, 0.000693,-0.000049,-0.009992, 0.651652,-0.545898,-0.096541,1,-0.186025, 0.016082,-0.074804,1,-0.453158,-0.552755, 9.780567,1,0
1778257235421,  2171.542,  2171.537, 0.063414, 0.066950,-1.001788, 0.000617, 0.000606,-0.010081, 0.169383, 0.054051,-0.046528,1,-0.183541,-0.006826,-0.067540,1,-0.452156,-0.608317, 9.777315,1,0
1778257235447,  2171.562,  2171.562, 0.114705, 0.085529,-0.979589, 0.001113, 0.000872,-0.009827, 0.674312, 0.200412, 0.168987,1,-0.171975,-0.004650,-0.085382,1,-0.450246,-0.643816, 9.775130,1,0
1778257235469,  2171.587,  2171.582, 0.162698, 0.011216,-0.996419, 0.001621, 0.000104,-0.009995, 1.029014,-0.386018,-0.017541,1,-0.146178,-0.004297,-0.109367,1,-0.448025,-0.674197, 9.773184,1,0
1778257235491,  2171.612,  2171.607, 0.180500, 0.013819,-1.000351, 0.001785, 0.000124,-0.009999, 1.323443,-0.573028,-0.039274,1,-0.108143, 0.006815,-0.119739,1,-0.446594,-0.712079, 9.770562,1,0
1778257235517,  2171.632,  2171.632, 0.188414, 0.055835,-0.996058, 0.001890, 0.000532,-0.009958, 1.401213,-0.180454, 0.001398,1,-0.083050, 0.009012,-0.141726,1,-0.446453,-0.730792, 9.769187,1,0
1778257235539,  2171.657,  2171.652, 0.149373, 0.051311,-0.908744, 0.001489, 0.000415,-0.009447, 1.174208,-0.124935, 0.543639,1,-0.066924, 0.011877,-0.158370,1,-0.445879,-0.746236, 9.768045,1,0
1778257235566,  2171.682,  2171.682, 0.134059,-0.001307,-0.985832, 0.001407,-0.000047,-0.009833, 0.865584,-0.779390, 0.098609,1,-0.075045, 0.020482,-0.165553,1,-0.449320,-0.769139, 9.766110,1,0
1778257235587,  2171.702,  2171.702, 0.138161, 0.048259,-1.025428, 0.001414, 0.000387,-0.010446, 0.905129,-0.311014,-0.291129,1,-0.088299, 0.017744,-0.176758,1,-0.449876,-0.787273, 9.764640,1,0
1778257235609,  2171.727,  2171.722, 0.172080, 0.059086,-0.984585, 0.001722, 0.000646,-0.009778, 1.180669,-0.090272, 0.080869,1,-0.087877, 0.018805,-0.188830,1,-0.450855,-0.805620, 9.763099,1,0
1778257235636,  2171.752,  2171.752, 0.179174, 0.017753,-0.982421, 0.001771, 0.000159,-0.009870, 1.305663,-0.655143, 0.126833,1,-0.075185, 0.015971,-0.203105,1,-0.451390,-0.831864, 9.760873,1,0
1778257235657,  2171.777,  2171.772, 0.221390, 0.041396,-1.038399, 0.002171, 0.000363,-0.010485, 1.511991,-0.642041,-0.651853,1,-0.064885, 0.017088,-0.215669,1,-0.450840,-0.846996, 9.759597,1,0
1778257235679,  2171.797,  2171.792, 0.254481, 0.063460,-0.941469, 0.002566, 0.000639,-0.009458, 2.015997,-0.301933,-0.047429,1,-0.041238, 0.026372,-0.231002,1,-0.451956,-0.858273, 9.758559,1,0
1778257235706,  2171.822,  2171.822, 0.199071, 0.051593,-0.984478, 0.002007, 0.000505,-0.009758, 1.499639,-0.360795, 0.103346,1,-0.011428, 0.024676,-0.253114,1,-0.452647,-0.867472, 9.757714,1,0
1778257235727,  2171.847,  2171.842, 0.169623, 0.054566,-1.000584, 0.001709, 0.000557,-0.010017, 1.260004,-0.276201,-0.259301,1, 0.017244, 0.014899,-0.269164,1,-0.451344,-0.868260, 9.757705,1,0
1778257235749,  2171.867,  2171.862, 0.169867, 0.025573,-1.009584, 0.001672, 0.000255,-0.010176, 1.073873,-0.397400,-0.005004,1, 0.043502, 0.008815,-0.271316,1,-0.448137,-0.863525, 9.758272,1,0
1778257235776,  2171.892,  2171.892, 0.194527, 0.074065,-0.945888, 0.001979, 0.000699,-0.009486, 1.461299,-0.123505, 0.483560,1, 0.076821, 0.014022,-0.287032,1,-0.446022,-0.847856, 9.759744,1,0
1778257235798,  2171.917,  2171.912, 0.193448, 0.037883,-0.978762, 0.001955, 0.000461,-0.009748, 1.584171, 0.006026, 0.273738,1, 0.091260, 0.032936,-0.288703,1,-0.445914,-0.832872, 9.761039,1,0
1778257235819,  2171.937,  2171.932, 0.085852, 0.015163,-1.079045, 0.000978, 0.000055,-0.010772, 0.825217,-0.777181, 0.056758,1, 0.108529, 0.032633,-0.296248,1,-0.448363,-0.815404, 9.762401,1,0
1778257235846,  2171.962,  2171.962, 0.112752, 0.107157,-0.949334, 0.001115, 0.000969,-0.009701, 0.658551, 0.261611, 0.454816,1, 0.118714, 0.016946,-0.297118,1,-0.446947,-0.785970, 9.764879,1,0
1778257235868,  2171.987,  2171.982, 0.128110, 0.104152,-0.967149, 0.001265, 0.001210,-0.009485, 0.685675, 0.771971, 1.057043,1, 0.096113, 0.001498,-0.274757,1,-0.443788,-0.768076, 9.766447,1,0
1778257235889,  2172.007,  2172.002, 0.181925, 0.027016,-1.085509, 0.001821, 0.000298,-0.010657, 1.139633, 0.008094,-0.268777,1, 0.092400, 0.011207,-0.266770,1,-0.440900,-0.751766, 9.767847,1,0
1778257235916,  2172.032,  2172.032, 0.216487, 0.023989,-1.076435, 0.002180, 0.000088,-0.010955, 1.681763,-0.488458,-0.786270,1, 0.133029, 0.032054,-0.275249,1,-0.441614,-0.719954, 9.770211,1,0
1778257235938,  2172.057,  2172.052, 0.189315, 0.128770,-0.863916, 0.001926, 0.001284,-0.008721, 1.593963, 0.482250, 1.086808,1, 0.152935, 0.023472,-0.260834,1,-0.442983,-0.692821, 9.772111,1,0
1778257235959,  2172.077,  2172.072, 0.200191, 0.010000,-1.015923, 0.001946, 0.000284,-0.009826, 1.642042, 0.142086, 0.862451,1, 0.160510, 0.031133,-0.255119,1,-0.444989,-0.663524, 9.774053,1,0
1778257235986,  2172.102,  2172.102, 0.239080, 0.034945,-1.064776, 0.002339, 0.000318,-0.010626, 1.894032,-0.274631,-0.665069,1, 0.207381, 0.039529,-0.255006,1,-0.451272,-0.611234, 9.777174,1,0
1778257236008,  2172.127,  2172.122, 0.131007, 0.090899,-0.891070, 0.001449, 0.000903,-0.009128, 1.573862, 0.601259, 0.376089,1, 0.217796, 0.019678,-0.232523,1,-0.453694,-0.573405, 9.779353,1,0
1778257236029,  2172.147,  2172.142, 0.197128,-0.007193,-0.976846, 0.001785,-0.000036,-0.009543, 1.240996,-0.644502, 0.424990,1, 0.211200, 0.039270,-0.239993,1,-0.457858,-0.533969, 9.781392,1,0
1778257236056,  2172.172,  2172.172, 0.159398, 0.086766,-1.000687, 0.001566, 0.000797,-0.009985, 1.104749, 0.366878,-0.029422,1, 0.183205, 0.002748,-0.212284,1,-0.458198,-0.478517, 9.784245,1,0
1778257236078,  2172.197,  2172.192, 0.227085,-0.020863,-1.008080, 0.002309,-0.000177,-0.009894, 1.710252,-0.243819,-0.118448,1, 0.173941, 0.033941,-0.186791,1,-0.462360,-0.444618, 9.785648,1,0
1778257236101,  2172.217,  2172.212, 0.198130, 0.089835,-0.853462, 0.001928, 0.000676,-0.008923, 1.555741,-0.302333, 0.775366,1, 0.171679, 0.008417,-0.204946,1,-0.461382,-0.412394, 9.787106,1,0
1778257236126,  2172.242,  2172.242, 0.237789, 0.023725,-0.922945, 0.002353, 0.000312,-0.009041, 1.856906,-0.143765, 0.736898,1, 0.122360, 0.064444,-0.151978,1,-0.476837,-0.372850, 9.787951,1,0
1778257236148,  2172.267,  2172.262, 0.145097, 0.069988,-0.970596, 0.001423, 0.000555,-0.009880, 1.021376,-0.236246,-0.125683,1, 0.091234, 0.079670,-0.169622,1,-0.490087,-0.356840, 9.787893,1,0
1778257236171,  2172.287,  2172.287, 0.068455, 0.056338,-0.973000, 0.000699, 0.000772,-0.009577, 0.162827, 0.204435, 0.245399,1, 0.018142, 0.055936,-0.106298,1,-0.510113,-0.347657, 9.787201,1,0
1778257236197,  2172.312,  2172.312, 0.061756,-0.019463,-1.118958, 0.000471,-0.000229,-0.011206, 0.089700,-0.540236,-1.186390,1,-0.010356, 0.040316,-0.130206,1,-0.517034,-0.349904, 9.786757,1,0
1778257236218,  2172.337,  2172.332, 0.000308, 0.046687,-1.090008,-0.000174, 0.000578,-0.010767,-0.542511, 0.847186,-0.317610,1,-0.016130, 0.003287,-0.108217,1,-0.519794,-0.351844, 9.786542,1,0
1778257236241,  2172.357,  2172.357, 0.018972,-0.010182,-0.982142, 0.000250,-0.000251,-0.009856,-0.339704,-0.451320, 0.154716,1,-0.007237, 0.019494,-0.093016,1,-0.526256,-0.351849, 9.786197,1,0
1778257236267,  2172.382,  2172.382,-0.028843, 0.117295,-0.953358,-0.000152, 0.001114,-0.009733,-0.810508, 0.805728, 0.437127,1, 0.022307, 0.016887,-0.085504,1,-0.528090,-0.343981, 9.786377,1,0
1778257236288,  2172.407,  2172.402,-0.009546,-0.046306,-1.073277,-0.000072,-0.000406,-0.010562,-0.532776,-0.367502,-0.344075,1, 0.059999, 0.008577,-0.074892,1,-0.531073,-0.332909, 9.786599,1,0
1778257236311,  2172.427,  2172.427, 0.013019, 0.058855,-1.071386, 0.000087, 0.000599,-0.010285,-0.401792, 0.267660,-0.719257,1, 0.098277,-0.004834,-0.108609,1,-0.529210,-0.306632, 9.787559,1,0
1778257236337,  2172.452,  2172.452, 0.096502,-0.019249,-0.966840, 0.000891,-0.000172,-0.010127, 0.418234,-0.476477, 0.306728,1, 0.121682,-0.005711,-0.097653,1,-0.527863,-0.284080, 9.788312,1,0
1778257236358,  2172.477,  2172.472, 0.166624, 0.060397,-0.970381, 0.001580, 0.000493,-0.009625, 0.772144,-0.435087, 1.021979,1, 0.173040,-0.048050,-0.141879,1,-0.521405,-0.253174, 9.789506,1,0
1778257236381,  2172.497,  2172.497, 0.314431,-0.059962,-1.036082, 0.003072,-0.000370,-0.010222, 2.567863,-0.805180,-0.369818,1, 0.125829, 0.003433,-0.120582,1,-0.515671,-0.213433, 9.790756,1,0
1778257236407,  2172.522,  2172.522, 0.343829,-0.064595,-0.962939, 0.003294,-0.000693,-0.009411, 2.861378,-0.821861, 0.348333,1, 0.153893,-0.015934,-0.164632,1,-0.509838,-0.183874, 9.791661,1,0
1778257236428,  2172.547,  2172.542, 0.466346,-0.098395,-1.039178, 0.004708,-0.000838,-0.010497, 3.994403,-0.077772,-0.468844,1, 0.110667, 0.006208,-0.129277,1,-0.509010,-0.159714, 9.792129,1,0
1778257236451,  2172.572,  2172.567, 0.491285, 0.037704,-0.970231, 0.004814, 0.000109,-0.009704, 4.312432, 0.240586, 0.278047,1, 0.107699,-0.008808,-0.138548,1,-0.505123,-0.125992, 9.792822,1,0
1778257236477,  2172.592,  2172.592, 0.508503,-0.006966,-0.937881, 0.005300, 0.000049,-0.009535, 4.484174,-0.178736, 0.595676,1, 0.096695,-0.025183,-0.099244,1,-0.501713,-0.107565, 9.793217,1,0
1778257236498,  2172.617,  2172.612, 0.499395, 0.008752,-1.020822, 0.005094, 0.000029,-0.010546, 4.118404, 0.129097,-0.493617,1, 0.061696,-0.011513,-0.085146,1,-0.497264,-0.094386, 9.793580,1,0
1778257236521,  2172.642,  2172.637, 0.461208, 0.059275,-0.939901, 0.004553, 0.000386,-0.009393, 4.028852, 0.503482, 0.576611,1, 0.050904,-0.017806,-0.058259,1,-0.493486,-0.076314, 9.793928,1,0
1778257236547,  2172.662,  2172.662, 0.371072, 0.036589,-0.984813, 0.003780, 0.000471,-0.009925, 3.145763, 0.294390, 0.136313,1, 0.076385, 0.013132,-0.042214,1,-0.493608,-0.062112, 9.794023,1,0
1778257236569,  2172.687,  2172.682,-0.113057, 0.069983,-0.873710,-0.001276, 0.000302,-0.009504,-0.689813, 0.652148, 2.374104,1, 0.118458,-0.053730,-0.030606,1,-0.487550,-0.042420, 9.794431,1,0
1778257236591,  2172.712,  2172.707,-0.076816, 0.018002,-1.039255,-0.000940, 0.000645,-0.009713,-1.234591, 0.159225,-0.396794,1, 0.121445, 0.014475,-0.000603,1,-0.481734,-0.013532, 9.794802,1,0
1778257236617,  2172.732,  2172.732, 0.001305, 0.009907,-0.983980,-0.000064,-0.000161,-0.010249,-0.474169, 0.094777, 0.145005,1, 0.046635, 0.025173,-0.000638,1,-0.487750,-0.000929, 9.794513,1,0
1778257236639,  2172.757,  2172.752, 0.034750,-0.029065,-0.888199, 0.000286,-0.000078,-0.008555,-0.349784,-0.141501, 0.096561,1, 0.065186, 0.080039, 0.007621,1,-0.499536, 0.014341, 9.793908,1,0
1778257236661,  2172.782,  2172.777,-0.012026,-0.003214,-1.003557,-0.000140, 0.000006,-0.009633,-0.630438, 0.005015,-0.048358,1, 0.075304, 0.046021, 0.005566,1,-0.513936, 0.038892, 9.793097,1,0
1778257236687,  2172.802,  2172.802, 0.106750,-0.005297,-1.103197, 0.000803,-0.000205,-0.010805, 0.522595, 0.005415,-1.026207,1, 0.093364, 0.062342,-0.026947,1,-0.526209, 0.060225, 9.792336,1,0
1778257236709,  2172.827,  2172.822, 0.131187,-0.030936,-0.915482, 0.001195,-0.000130,-0.008699, 0.444809, 0.118802,-0.022305,1, 0.102040, 0.053798,-0.005664,1,-0.535016, 0.081360, 9.791707,1,0
1778257236732,  2172.852,  2172.847, 0.139346, 0.003225,-1.165178, 0.001129, 0.000057,-0.011149, 0.821965, 0.137185,-1.635544,1, 0.055346, 0.037818, 0.025739,1,-0.545724, 0.107330, 9.790866,1,0
1778257236757,  2172.872,  2172.872, 0.152146, 0.071606,-1.059650, 0.001731, 0.000363,-0.011050, 0.943949, 0.819925,-0.601007,1, 0.029497,-0.020208, 0.048084,1,-0.547448, 0.118711, 9.790638,1,0
1778257236779,  2172.897,  2172.892, 0.264253, 0.073147,-1.017017, 0.002736, 0.000497,-0.010626, 1.400241, 0.969476, 0.794305,1, 0.077592, 0.005388, 0.072703,1,-0.546832, 0.134355, 9.790470,1,0
1778257236806,  2172.922,  2172.922, 0.334658, 0.036128,-1.036252, 0.003401, 0.000706,-0.009771, 2.735295, 0.502527,-0.371875,1, 0.048268,-0.000647, 0.104442,1,-0.546510, 0.149916, 9.790262,1,0
1778257236827,  2172.942,  2172.942, 0.358636, 0.072318,-1.048066, 0.003558, 0.000106,-0.010852, 2.974117, 0.861202,-0.487584,1,-0.048468,-0.002168, 0.153171,1,-0.542762, 0.150757, 9.790458,1,0
1778257236849,  2172.967,  2172.962, 0.119994, 0.114595,-0.822476, 0.001585, 0.000591,-0.009339, 2.185699, 0.295235, 2.390840,1,-0.016840, 0.000887, 0.185900,1,-0.543031, 0.146263, 9.790511,1,0
1778257236876,  2172.992,  2172.992, 0.020250,-0.065420,-1.332197, 0.000143,-0.000151,-0.011306,-0.343607,-0.526251,-3.273422,1,-0.169098, 0.034561, 0.201390,1,-0.543192, 0.110379, 9.790973,1,0
1778257236897,  2173.017,  2173.012, 0.061954,-0.004097,-0.900145, 0.000978,-0.000765,-0.009759,-0.525361, 0.763783, 2.723374,1,-0.120354,-0.001973, 0.219901,1,-0.544380, 0.083473, 9.791173,1,0
1778257236919,  2173.037,  2173.032, 0.085196,-0.009793,-0.942872, 0.000731, 0.000625,-0.007913, 1.081532,-0.373262,-0.629030,1,-0.140352, 0.023001, 0.197203,1,-0.548064, 0.061984, 9.791127,1,0
1778257236946,  2173.062,  2173.062, 0.018400, 0.052922,-1.028872, 0.000475,-0.000026,-0.012026,-0.373174, 0.554672,-0.298838,1,-0.117553, 0.000783, 0.176687,1,-0.553617, 0.032329, 9.790957,1,0
1778257236968,  2173.087,  2173.082,-0.082011, 0.036939,-0.811423,-0.000703, 0.000510,-0.008756,-0.784258,-0.561081,-0.958367,1,-0.012791, 0.017139, 0.161704,1,-0.556251, 0.028397, 9.790820,1,0
1778257236989,  2173.107,  2173.102,-0.012895,-0.043266,-1.091974,-0.000158,-0.000603,-0.011142,-1.286357, 0.617245, 2.136712,1,-0.040207,-0.031792, 0.123455,1,-0.551163, 0.021353, 9.791126,1,0
1778257237016,  2173.132,  2173.132, 0.016438,-0.098915,-0.943310, 0.000033,-0.000370,-0.008792,-0.383277,-0.945608, 0.540783,1, 0.045715,-0.033651, 0.090083,1,-0.543419, 0.025993, 9.791548,1,0
1778257237038,  2173.157,  2173.152, 0.160504,-0.028435,-1.219350, 0.001335,-0.000201,-0.011397, 0.577809, 0.489346,-0.113814,1,-0.034819,-0.044512, 0.091391,1,-0.532396, 0.024714, 9.792156,1,0
1778257237059,  2173.177,  2173.172, 0.152667, 0.090910,-0.894379, 0.001882, 0.000649,-0.010118, 0.843149, 0.037487,-0.352386,1, 0.088249, 0.043141, 0.065025,1,-0.533235, 0.033420, 9.792085,1,0
1778257237086,  2173.202,  2173.202, 0.170048,-0.018054,-1.122983, 0.001349,-0.000381,-0.010343, 1.135458,-0.135313,-1.220588,1,-0.004996,-0.020532, 0.061581,1,-0.531495, 0.041682, 9.792148,1,0
1778257237108,  2173.227,  2173.222, 0.123856, 0.031539,-0.951403, 0.001545,-0.000674,-0.011061, 0.280613, 0.663673, 1.927241,1, 0.088036,-0.002691, 0.083440,1,-0.531624, 0.050570, 9.792099,1,0
1778257237129,  2173.247,  2173.242, 0.162153,-0.057821,-0.975544, 0.001023, 0.000305,-0.008233, 1.462780,-0.431457,-1.773205,1, 0.001925,-0.020836, 0.086811,1,-0.530588, 0.056469, 9.792123,1,0
1778257237156,  2173.272,  2173.272, 0.101084, 0.035863,-0.910784, 0.001590, 0.000144,-0.010534, 0.469567, 0.414885, 0.860821,1, 0.034330,-0.046088, 0.058434,1,-0.520280, 0.064357, 9.792627,1,0
1778257237178,  2173.297,  2173.292, 0.267015, 0.010190,-0.904565, 0.002534, 0.000829,-0.008820, 2.340947, 0.686564,-2.494511,1, 0.008728, 0.007138, 0.070019,1,-0.520672, 0.070206, 9.792566,1,0
1778257237199,  2173.317,  2173.312, 0.247696,-0.002200,-0.872062, 0.002818,-0.000561,-0.010014, 1.842488, 0.410231, 1.865487,1, 0.014342,-0.014132, 0.109660,1,-0.519678, 0.074962, 9.792583,1,0
1778257237226,  2173.342,  2173.342, 0.295134,-0.043360,-1.254693, 0.002760, 0.000019,-0.011545, 2.372128,-0.340595,-2.511966,1, 0.032859, 0.037910, 0.092160,1,-0.523305, 0.085799, 9.792302,1,0
1778257237248,  2173.367,  2173.362, 0.204242, 0.075725,-0.810714, 0.002036, 0.000334,-0.009438, 1.226913, 0.035623, 2.740479,1, 0.068642,-0.000326, 0.102313,1,-0.525944, 0.096289, 9.792063,1,0
1778257237269,  2173.387,  2173.382, 0.135501,-0.000752,-1.220542, 0.001863,-0.000139,-0.012223, 0.748578,-0.100276,-0.567287,1,-0.000551,-0.000254, 0.092929,1,-0.522123, 0.104507, 9.792183,1,0
1778257237296,  2173.412,  2173.412, 0.101012,-0.074109,-0.860617, 0.001192,-0.000585,-0.008474, 0.463151,-0.603195, 1.351908,1, 0.082562,-0.028419, 0.096235,1,-0.526513, 0.126304, 9.791691,1,0
1778257237318,  2173.437,  2173.432, 0.153555,-0.000892,-1.039319, 0.001331, 0.000315,-0.009600, 1.381199,-0.028852,-0.640604,1, 0.067216,-0.004700, 0.077003,1,-0.523311, 0.142089, 9.791647,1,0
1778257237341,  2173.457,  2173.452, 0.124758,-0.012083,-0.871942, 0.001524,-0.000295,-0.009279, 1.904815,-0.185804,-0.135214,1, 0.112243, 0.016576, 0.027895,1,-0.524572, 0.157273, 9.791347,1,0
1778257237366,  2173.482,  2173.482, 0.105759,-0.088272,-0.901450, 0.001369,-0.001012,-0.010097, 0.511233,-0.686806, 0.950697,1, 0.096663,-0.008490, 0.037507,1,-0.525618, 0.181921, 9.790864,1,0
1778257237388,  2173.507,  2173.502, 0.114154,-0.028944,-0.943535, 0.001297,-0.000189,-0.008407, 1.115368,-0.214637, 1.805565,1, 0.114687, 0.012179, 0.018784,1,-0.529215, 0.200048, 9.790317,1,0
1778257237411,  2173.527,  2173.527, 0.175376,-0.092389,-0.999442, 0.001427,-0.000635,-0.009008, 1.183823,-0.684029,-0.011709,1, 0.088525, 0.040923,-0.008742,1,-0.537306, 0.224744, 9.789340,1,0
1778257237437,  2173.552,  2173.552, 0.151638,-0.057251,-0.964804, 0.001394,-0.000579,-0.010248, 0.944278,-0.326994, 0.327318,1, 0.089465, 0.025594, 0.011694,1,-0.543568, 0.237259, 9.788699,1,0
1778257237458,  2173.577,  2173.572, 0.139555, 0.021473,-0.806774, 0.001264,-0.000099,-0.008284, 1.134245,-0.414569, 1.417888,1, 0.063886, 0.023806, 0.017271,1,-0.546589, 0.247670, 9.788273,1,0
1778257237481,  2173.597,  2173.597, 0.095047, 0.056627,-0.894013, 0.001414, 0.000186,-0.010034, 0.385493, 0.809143, 1.020841,1, 0.037821,-0.003195,-0.025205,1,-0.546518, 0.254952, 9.788090,1,0
1778257237507,  2173.622,  2173.622, 0.131831,-0.068353,-1.044725, 0.001759,-0.000270,-0.010041, 0.741192,-0.414751,-0.457468,1, 0.047899, 0.008232,-0.008217,1,-0.551891, 0.257041, 9.787734,1,0
1778257237528,  2173.647,  2173.642, 0.080788,-0.066623,-1.067391, 0.001268,-0.000500,-0.010141, 1.212606, 0.386324, 1.656795,1,-0.015177,-0.044917, 0.019427,1,-0.546782, 0.254478, 9.788087,1,0
1778257237551,  2173.667,  2173.667, 0.107321,-0.021168,-1.088844, 0.001446, 0.000350,-0.010476, 0.507783, 0.043023,-0.889612,1,-0.023453,-0.029219, 0.033246,1,-0.543739, 0.249940, 9.788374,1,0
1778257237577,  2173.692,  2173.692, 0.114429, 0.069172,-0.837204, 0.001823, 0.000490,-0.009309, 0.582831, 0.923767, 1.578566,1,-0.018428,-0.043486, 0.020291,1,-0.537962, 0.244882, 9.788821,1,0
1778257237598,  2173.717,  2173.712, 0.075651,-0.054248,-0.986518, 0.001331,-0.000629,-0.009182, 0.259555, 0.092058,-1.353132,1,-0.000502,-0.037049, 0.042502,1,-0.532902, 0.238467, 9.789256,1,0
1778257237621,  2173.737,  2173.737, 0.119380,-0.037003,-1.051930, 0.001253,-0.000374,-0.009716, 0.646700,-0.134893,-0.525922,1,-0.061557,-0.032975, 0.038527,1,-0.522966, 0.226130, 9.790085,1,0
1778257237647,  2173.762,  2173.762, 0.076956,-0.012178,-0.954856, 0.001035, 0.000149,-0.009439, 0.234513, 0.103573, 0.426362,1,-0.010338,-0.001806, 0.049196,1,-0.520074, 0.222753, 9.790316,1,0
1778257237668,  2173.787,  2173.782, 0.054483, 0.008038,-1.008623, 0.000917,-0.000075,-0.009686,-0.268007, 0.194766, 0.778489,1,-0.023092,-0.051355, 0.050112,1,-0.512611, 0.219373, 9.790786,1,0
1778257237691,  2173.812,  2173.807, 0.034878, 0.041770,-1.011485, 0.000489,-0.000108,-0.010756,-0.165603, 0.626284,-0.128174,1,-0.024626,-0.036453, 0.019541,1,-0.506494, 0.215928, 9.791181,1,0
1778257237717,  2173.832,  2173.832, 0.004246,-0.096821,-1.107682, 0.000288,-0.000624,-0.009857,-0.459945,-0.729039,-1.071316,1, 0.005745,-0.027614, 0.034775,1,-0.500704, 0.220682, 9.791372,1,0
1778257237738,  2173.857,  2173.852, 0.124458, 0.039106,-1.047671, 0.001218, 0.000225,-0.010702, 0.037252,-0.458474,-0.270980,1, 0.002200,-0.017692, 0.040800,1,-0.496379, 0.224754, 9.791500,1,0
1778257237761,  2173.882,  2173.877, 0.141625, 0.030496,-0.889513, 0.001578, 0.000431,-0.009205, 0.892739, 0.533915, 1.068134,1, 0.071045, 0.002809, 0.040901,1,-0.496180, 0.237132, 9.791219,1,0
1778257237787,  2173.902,  2173.902, 0.123728,-0.019607,-1.069305, 0.001359,-0.000539,-0.010567, 0.716315, 0.051369,-0.695284,1,-0.004222,-0.003830, 0.022908,1,-0.496903, 0.243554, 9.791024,1,0
1778257237809,  2173.927,  2173.922, 0.030114, 0.027273,-0.847940, 0.000815, 0.000133,-0.009700, 0.213193, 0.541419, 0.084327,1, 0.019553,-0.000935, 0.051304,1,-0.495694, 0.252296, 9.790864,1,0
1778257237831,  2173.952,  2173.947,-0.013073,-0.025496,-0.949428, 0.000742,-0.000187,-0.009945,-0.622877, 0.012917, 0.479925,1, 0.067454,-0.018180, 0.068985,1,-0.494052, 0.265156, 9.790607,1,0
1778257237857,  2173.972,  2173.972, 0.157910, 0.090009,-1.007184, 0.001826, 0.001147,-0.010104, 1.048363, 1.152148,-0.086928,1, 0.079723, 0.049520, 0.044139,1,-0.501734, 0.271776, 9.790035,1,0
1778257237879,  2173.997,  2173.992, 0.099622, 0.031346,-0.924531, 0.000450, 0.000115,-0.009159, 0.732129, 0.425786, 1.851460,1, 0.078442,-0.006387, 0.068344,1,-0.502584, 0.282732, 9.789681,1,0
1778257237901,  2174.022,  2174.017, 0.179448,-0.055560,-1.099295, 0.001342,-0.000034,-0.010207, 1.253788,-0.253953,-0.991134,1, 0.031985, 0.022867, 0.068513,1,-0.506645, 0.292015, 9.789199,1,0
1778257237927,  2174.042,  2174.042, 0.053250,-0.018643,-0.931281, 0.000419,-0.000510,-0.009924, 0.019560, 0.114253, 0.656502,1, 0.022541,-0.044802, 0.082058,1,-0.501169, 0.297915, 9.789304,1,0
1778257237949,  2174.067,  2174.062, 0.224519, 0.080759,-1.037829, 0.002040, 0.000458,-0.010657, 0.161806,-0.068010, 0.249270,1, 0.058611, 0.009717, 0.081914,1,-0.498415, 0.305329, 9.789215,1,0
1778257237972,  2174.092,  2174.087, 0.121050,-0.056902,-1.052090, 0.001591,-0.000937,-0.009589, 0.679614,-0.251151,-0.528774,1,-0.042198, 0.025346, 0.094177,1,-0.508176, 0.305709, 9.788702,1,0
1778257237997,  2174.112,  2174.112, 0.177376, 0.046421,-1.062294, 0.001393,-0.000008,-0.011333, 1.228018, 0.759417,-0.628963,1,-0.041993, 0.040251, 0.100932,1,-0.512600, 0.303036, 9.788554,1,0
1778257238019,  2174.137,  2174.132, 0.076198,-0.013936,-1.093162, 0.000753, 0.000414,-0.010809, 1.175300,-0.100170,-0.998910,1,-0.067720, 0.030415, 0.096944,1,-0.518464, 0.300137, 9.788335,1,0
1778257238046,  2174.162,  2174.162, 0.128537,-0.018176,-0.982510, 0.001302, 0.000392,-0.010008, 0.723949, 0.114813, 0.152440,1, 0.038970, 0.102960, 0.066610,1,-0.539712, 0.294385, 9.787361,1,0
1778257238067,  2174.182,  2174.182, 0.100006,-0.020140,-0.740536, 0.000819,-0.000277,-0.007338, 0.432671, 0.092757, 2.524845,1,-0.017950, 0.008560, 0.077313,1,-0.548246, 0.289832, 9.787023,1,0
1778257238089,  2174.207,  2174.202, 0.040739,-0.012960,-1.074208, 0.000615,-0.000404,-0.011776,-0.179136,-0.569193,-0.844836,1, 0.011566, 0.032659, 0.055233,1,-0.552190, 0.287750, 9.786862,1,0
1778257238116,  2174.232,  2174.232, 0.064380,-0.050172,-0.996541, 0.000856,-0.000440,-0.009442, 0.075382,-0.206919, 0.013998,1,-0.022212,-0.000709, 0.040817,1,-0.555909, 0.284485, 9.786747,1,0
1778257238137,  2174.257,  2174.252, 0.104648,-0.023212,-0.811437, 0.000770,-0.000346,-0.008725, 1.076324,-0.730898, 0.356828,1, 0.024221,-0.005258, 0.023356,1,-0.557282, 0.288351, 9.786556,1,0
1778257238159,  2174.277,  2174.272, 0.076746,-0.064234,-1.112068, 0.001094,-0.000078,-0.010755, 0.878665,-0.010291,-0.478672,1,-0.028923,-0.020238,-0.010422,1,-0.550953, 0.287901, 9.786927,1,0
1778257238186,  2174.302,  2174.302, 0.047109,-0.029723,-1.031214, 0.000835,-0.000210,-0.010596,-0.079999, 0.000423,-0.325445,1, 0.029297,-0.053562, 0.015973,1,-0.540301, 0.292845, 9.787374,1,0
1778257238208,  2174.327,  2174.322, 0.193688,-0.042583,-1.112073, 0.001946,-0.000401,-0.009828,-0.475533,-0.112363, 0.559512,1, 0.061411,-0.011768,-0.011811,1,-0.536756, 0.296513, 9.787459,1,0
1778257238229,  2174.347,  2174.342, 0.211255,-0.010521,-0.762270, 0.001921,-0.000471,-0.008279, 0.745712, 0.080593, 0.816831,1, 0.088561, 0.028336,-0.019514,1,-0.542205, 0.301420, 9.787009,1,0
1778257238256,  2174.372,  2174.372, 0.214665,-0.016727,-1.206167, 0.001530,-0.000353,-0.012466, 1.557966, 0.140923,-2.041834,1,-0.015399, 0.014201,-0.002035,1,-0.547689, 0.304540, 9.786607,1,0
1778257238278,  2174.397,  2174.392,-0.007144,-0.080375,-0.877442,-0.000169,-0.000609,-0.008916, 1.534756, 0.755703,-0.022056,1,-0.007922, 0.033532,-0.007358,1,-0.554644, 0.307182, 9.786133,1,0
1778257238299,  2174.417,  2174.412, 0.127806,-0.060249,-1.136113, 0.000613,-0.000282,-0.011232, 0.449997, 1.214085,-0.024634,1,-0.013412, 0.041155,-0.004373,1,-0.561733, 0.310291, 9.785630,1,0
1778257238326,  2174.442,  2174.442, 0.088539,-0.086320,-0.894604, 0.000612,-0.000753,-0.008699, 0.290884,-0.529453, 1.011434,1, 0.024483, 0.051865, 0.006048,1,-0.578993, 0.317827, 9.784382,1,0
1778257238348,  2174.467,  2174.462, 0.008439, 0.053093,-0.906429, 0.000756, 0.000434,-0.009702,-1.095967,-0.099204, 1.577542,1,-0.004370,-0.033680, 0.006960,1,-0.576786, 0.321754, 9.784385,1,0
1778257238369,  2174.487,  2174.482, 0.069066, 0.027793,-1.176496, 0.000925, 0.000165,-0.011644,-0.592215, 0.325764,-1.964312,1,-0.059725,-0.005067, 0.023903,1,-0.572974, 0.319618, 9.784678,1,0
1778257238396,  2174.512,  2174.512, 0.087295,-0.021066,-0.909899, 0.000850,-0.000115,-0.008659, 0.281209, 0.114656, 0.861452,1, 0.046074, 0.018270, 0.053451,1,-0.575380, 0.322775, 9.784433,1,0
1778257238418,  2174.537,  2174.532, 0.081669,-0.032534,-1.085828, 0.000239,-0.000775,-0.010490, 0.903973, 1.284986, 2.097881,1, 0.006866,-0.035526, 0.025934,1,-0.573194, 0.320683, 9.784631,1,0
1778257238439,  2174.557,  2174.552, 0.121845,-0.037337,-1.164675, 0.000907,-0.000262,-0.010311,-0.335077, 0.665764, 0.127381,1, 0.045349,-0.022596, 0.059329,1,-0.572745, 0.323671, 9.784558,1,0
1778257238466,  2174.582,  2174.582, 0.178322, 0.010581,-0.979860, 0.001579,-0.000348,-0.010394, 1.168918, 0.421272, 0.175203,1,-0.082103, 0.025832, 0.047061,1,-0.580590, 0.315025, 9.784378,1,0
1778257238488,  2174.607,  2174.602,-0.020714,-0.025626,-1.036102, 0.000271, 0.000223,-0.010132, 0.773014, 0.434786, 0.353464,1,-0.034589, 0.002397, 0.060001,1,-0.584545, 0.316844, 9.784084,1,0
1778257238509,  2174.627,  2174.622, 0.052613, 0.005679,-1.121811, 0.000555, 0.000341,-0.011120,-0.237893, 0.622643,-1.307634,1,-0.027992, 0.009608, 0.078431,1,-0.584768, 0.313070, 9.784192,1,0
1778257238536,  2174.652,  2174.652, 0.071633,-0.039426,-0.922645, 0.000751, 0.000011,-0.008888, 0.113311,-0.075371, 0.735927,1,-0.006806, 0.017148, 0.081780,1,-0.589617, 0.311205, 9.783960,1,0
1778257238558,  2174.677,  2174.672, 0.031743, 0.010061,-1.067562, 0.000833,-0.000379,-0.010846,-0.704511, 0.091382, 0.164407,1, 0.014178,-0.026175, 0.075120,1,-0.592182, 0.311028, 9.783812,1,0
1778257238581,  2174.697,  2174.697, 0.039842, 0.046898,-1.120360, 0.000791, 0.000570,-0.011583,-0.205728, 0.764895,-1.203239,1,-0.033400, 0.006240, 0.106298,1,-0.596533, 0.304145, 9.783764,1,0
1778257238606,  2174.722,  2174.722, 0.121490, 0.048867,-0.816735, 0.001149, 0.000181,-0.008642, 0.598881, 0.785085, 1.774521,1,-0.034480,-0.034195, 0.110839,1,-0.591353, 0.304995, 9.784052,1,0
1778257238628,  2174.747,  2174.742, 0.104405,-0.027496,-1.100431, 0.000643,-0.000513,-0.010394,-0.877128, 0.925620, 1.010748,1, 0.039212,-0.051589, 0.094076,1,-0.580947, 0.307662, 9.784592,1,0
1778257238651,  2174.767,  2174.767, 0.201274,-0.020533,-1.190554, 0.001206,-0.000909,-0.011298, 1.401245, 0.103003,-1.890157,1,-0.120546,-0.045849, 0.074363,1,-0.571168, 0.300669, 9.785384,1,0
1778257238677,  2174.792,  2174.792, 0.084889, 0.016089,-1.026468, 0.000786,-0.000943,-0.010992, 0.272341, 0.459978,-0.280243,1,-0.088039,-0.053549, 0.112273,1,-0.558362, 0.299655, 9.786155,1,0
1778257238698,  2174.817,  2174.812, 0.081119,-0.005825,-0.984792, 0.001323, 0.000394,-0.009463, 0.959633, 0.423540,-1.052528,1,-0.038723, 0.025897, 0.109821,1,-0.556557, 0.300922, 9.786219,1,0
1778257238721,  2174.837,  2174.837, 0.081636,-0.017122,-0.981030, 0.001035, 0.000208,-0.009756, 0.240713, 0.134572, 0.165360,1, 0.021616,-0.004655, 0.112365,1,-0.559606, 0.303354, 9.785970,1,0
1778257238747,  2174.862,  2174.862,-0.009400,-0.032519,-0.815023, 0.000366, 0.000215,-0.007991,-0.654203,-0.016933, 1.793224,1, 0.051916, 0.003877, 0.100266,1,-0.562050, 0.303767, 9.785817,1,0
1778257238768,  2174.887,  2174.882, 0.109689, 0.031902,-1.121661, 0.001531, 0.000243,-0.011333, 0.132192,-0.341929,-0.123037,1, 0.001960, 0.014626, 0.082327,1,-0.561199, 0.300454, 9.785968,1,0
1778257238791,  2174.907,  2174.907, 0.003667,-0.028076,-0.669769, 0.000848, 0.000133,-0.007405,-0.528222, 0.022252, 3.217695,1, 0.089358,-0.043324, 0.094546,1,-0.562748, 0.300537, 9.785876,1,0
1778257238817,  2174.932,  2174.932, 0.000582,-0.033938,-1.034034, 0.000291,-0.000497,-0.011335,-0.554578,-0.034228,-0.354334,1, 0.045303,-0.012753, 0.088974,1,-0.559804, 0.300159, 9.786057,1,0
1778257238838,  2174.957,  2174.952, 0.158419, 0.064802,-1.042036, 0.001481,-0.000174,-0.011345,-0.778865,-0.176736,-0.436609,1, 0.089740,-0.020491, 0.084402,1,-0.557967, 0.299057, 9.786196,1,0
1778257238861,  2174.977,  2174.977, 0.138797, 0.071391,-0.594891, 0.001570, 0.000449,-0.007343, 0.799044, 0.995705, 3.952178,1, 0.013063,-0.032351, 0.063535,1,-0.561029, 0.296105, 9.786110,1,0
1778257238887,  2175.002,  2175.002, 0.165449, 0.031667,-1.069857, 0.001581, 0.000603,-0.009950, 1.067776, 0.605168,-0.705202,1, 0.025605,-0.005959, 0.068096,1,-0.554478, 0.295541, 9.786501,1,0
1778257238908,  2175.027,  2175.022, 0.177775,-0.106522,-0.969841, 0.001643,-0.001176,-0.009978, 0.659946, 0.457106,-1.432599,1,-0.055619, 0.028588, 0.069390,1,-0.556411, 0.286221, 9.786668,1,0
1778257238931,  2175.052,  2175.047, 0.254549, 0.004766,-0.923513, 0.001884,-0.000655,-0.009039, 1.936208, 0.331993, 0.729917,1,-0.056682, 0.059498, 0.063937,1,-0.561857, 0.283606, 9.786433,1,0
1778257238957,  2175.072,  2175.072, 0.238641, 0.022998,-0.890711, 0.002162,-0.000412,-0.009126, 1.771380, 0.505875, 1.051232,1,-0.064362, 0.028064, 0.038582,1,-0.569729, 0.278406, 9.786127,1,0
1778257238979,  2175.097,  2175.092, 0.095363,-0.109031,-1.255013, 0.000251,-0.000850,-0.011578, 1.120514, 0.843418,-0.698482,1,-0.097355,-0.000759, 0.061810,1,-0.567266, 0.267287, 9.786580,1,0
1778257239001,  2175.122,  2175.117, 0.088469,-0.073610,-1.085509, 0.000223,-0.001025,-0.010820, 0.302141,-0.466137,-0.858211,1,-0.077772,-0.005663, 0.021672,1,-0.565253, 0.253349, 9.787067,1,0
1778257239027,  2175.142,  2175.142, 0.303162,-0.037554,-1.039561, 0.002075,-0.000908,-0.010475, 2.408945,-0.122211,-0.407291,1,-0.117972, 0.010407, 0.029540,1,-0.564363, 0.242448, 9.787395,1,0
1778257239049,  2175.167,  2175.162, 0.100284,-0.100762,-0.951678, 0.000723,-0.000679,-0.008892, 1.765138, 0.505749, 2.174778,1,-0.081161,-0.007662, 0.027421,1,-0.565913, 0.233447, 9.787524,1,0
1778257239071,  2175.192,  2175.187, 0.185944,-0.085986,-1.046022, 0.001332,-0.001090,-0.010197, 1.260056,-0.618795,-0.470099,1,-0.069785,-0.024190, 0.020169,1,-0.562662, 0.222304, 9.787971,1,0
1778257239097,  2175.212,  2175.212, 0.243766, 0.040342,-1.135309, 0.001466,-0.000100,-0.011607, 1.826334, 0.608934,-1.345493,1,-0.075637, 0.027602, 0.026579,1,-0.565040, 0.211005, 9.788084,1,0
1778257239119,  2175.237,  2175.232,-0.015781,-0.052689,-0.805249,-0.000154,-0.000172,-0.008245, 1.088403, 0.106486,-0.318041,1,-0.057269,-0.013352, 0.042225,1,-0.562333, 0.201301, 9.788445,1,0
1778257239141,  2175.262,  2175.257, 0.100898,-0.123726,-1.247073, 0.000409,-0.000813,-0.011430, 0.434891,-1.023231,-2.440500,1,-0.059337,-0.011205, 0.013498,1,-0.554218, 0.188278, 9.789166,1,0
1778257239167,  2175.282,  2175.282, 0.243548,-0.019459,-0.912561, 0.001894,-0.000652,-0.009062, 1.827459,-0.009330, 0.839745,1,-0.065378, 0.065613, 0.000002,1,-0.562973, 0.179462, 9.788833,1,0
1778257239189,  2175.307,  2175.302, 0.008977,-0.139300,-1.196682,-0.000133,-0.001246,-0.011151, 1.457473, 0.411381,-0.204925,1,-0.097779, 0.008389, 0.031272,1,-0.567399, 0.168601, 9.788770,1,0
1778257239212,  2175.332,  2175.327, 0.158839, 0.005190,-1.120664, 0.000643,-0.000733,-0.010801, 0.988519, 0.214874,-1.201220,1,-0.097189, 0.026684, 0.020066,1,-0.569983, 0.160982, 9.788748,1,0
1778257239237,  2175.352,  2175.352, 0.272388, 0.066419,-0.866086, 0.002430,-0.000088,-0.009677, 2.092976, 0.812758, 1.294852,1,-0.050357, 0.059631,-0.020650,1,-0.580108, 0.159801, 9.788173,1,0
1778257239259,  2175.377,  2175.372, 0.165135,-0.046836,-1.130048, 0.001482,-0.001202,-0.011243, 1.452768, 0.115882, 0.794301,1,-0.001442, 0.014303,-0.026306,1,-0.585228, 0.162322, 9.787827,1,0
1778257239286,  2175.402,  2175.402, 0.289026,-0.042299,-1.125637, 0.002443,-0.000761,-0.011520, 2.237810,-0.254725,-1.251548,1, 0.006574, 0.053660, 0.016852,1,-0.598233, 0.160320, 9.787073,1,0
1778257239307,  2175.422,  2175.422, 0.282203,-0.004961,-0.695275, 0.003231,-0.000488,-0.007000, 2.162411, 0.117484, 2.968234,1, 0.043162, 0.017752,-0.007958,1,-0.605617, 0.167462, 9.786499,1,0
1778257239329,  2175.447,  2175.442, 0.244437,-0.043064,-1.028579, 0.002072,-0.000289,-0.010316, 0.880612, 0.227838, 0.054817,1, 0.027048,-0.003621,-0.033176,1,-0.604884, 0.170867, 9.786486,1,0
1778257239356,  2175.472,  2175.472, 0.110707,-0.031101,-0.707762, 0.001367,-0.000083,-0.007295, 0.485388,-0.120697, 2.845749,1, 0.064468,-0.091523,-0.020372,1,-0.597436, 0.186273, 9.786662,1,0
1778257239377,  2175.497,  2175.492, 0.131089,-0.015498,-1.143151, 0.001115,-0.000285,-0.012089, 0.587812, 0.193641,-1.314280,1, 0.038582,-0.038581,-0.045796,1,-0.582929, 0.196277, 9.787341,1,0
1778257239399,  2175.517,  2175.512, 0.100951,-0.058576,-1.136522, 0.001017,-0.000618,-0.010801, 0.258384,-0.446442,-1.688757,1, 0.034782,-0.015418,-0.034313,1,-0.578289, 0.207627, 9.787382,1,0
1778257239426,  2175.542,  2175.542, 0.126447, 0.031990,-1.004729, 0.001449, 0.000044,-0.010607, 0.669611, 0.535949,-0.065505,1, 0.038155,-0.039315,-0.028362,1,-0.569210, 0.223373, 9.787568,1,0
1778257239448,  2175.567,  2175.562, 0.064862, 0.025625,-0.985546, 0.000819, 0.000199,-0.010388,-0.393115,-0.352774, 1.547716,1, 0.079703,-0.038465,-0.035525,1,-0.562428, 0.235172, 9.787683,1,0
1778257239469,  2175.587,  2175.582,-0.052425,-0.104068,-1.202567,-0.000036,-0.000649,-0.011622,-0.661616, 0.081325,-1.914746,1,-0.047945,-0.029826,-0.002534,1,-0.553109, 0.233873, 9.788246,1,0
1778257239496,  2175.612,  2175.612, 0.016977,-0.058339,-1.056536,-0.000217,-0.000783,-0.010243,-0.381694,-0.336424,-0.572601,1, 0.002644,-0.008495,-0.004578,1,-0.547924, 0.235757, 9.788492,1,0
1778257239518,  2175.637,  2175.632,-0.085645,-0.096718,-1.090867,-0.000652,-0.000755,-0.010730,-0.062901, 0.822609, 1.037703,1,-0.100152,-0.064799, 0.010539,1,-0.541402, 0.226628, 9.789071,1,0
1778257239539,  2175.657,  2175.652, 0.032262,-0.019596,-1.020516, 0.000088,-0.000280,-0.010294,-0.080448, 0.751875,-1.485864,1,-0.064202,-0.044102, 0.029537,1,-0.530490, 0.215271, 9.789925,1,0
1778257239566,  2175.682,  2175.682, 0.163568, 0.038054,-0.952785, 0.001113, 0.000114,-0.009761, 1.079050, 0.569958, 0.446976,1,-0.103533,-0.022681, 0.023979,1,-0.524279, 0.193590, 9.790712,1,0
1778257239588,  2175.707,  2175.702, 0.268060, 0.017186,-0.735172, 0.002445,-0.000022,-0.007024, 2.132296, 0.050055, 1.790465,1,-0.060863, 0.050369, 0.016868,1,-0.531919, 0.182423, 9.790514,1,0
1778257239609,  2175.727,  2175.722, 0.345544, 0.060086,-1.054153, 0.003170, 0.000249,-0.010407, 1.530960, 0.178382, 1.468701,1,-0.068818, 0.046591, 0.048861,1,-0.541210, 0.168502, 9.790255,1,0
1778257239636,  2175.752,  2175.752, 0.158628, 0.030986,-1.038468, 0.002690, 0.000566,-0.010725, 0.999255, 0.445407,-0.394059,1,-0.055034, 0.049392, 0.067243,1,-0.557858, 0.139940, 9.789770,1,0
1778257239658,  2175.777,  2175.772, 0.150596, 0.030415,-0.846823, 0.002032, 0.000513,-0.008322, 0.237883,-0.211134, 0.431625,1,-0.039948, 0.004648, 0.067100,1,-0.564539, 0.129669, 9.789529,1,0
1778257239679,  2175.797,  2175.792, 0.153363,-0.043113,-1.206622, 0.001796,-0.000059,-0.011525, 0.914822, 0.647159, 0.430941,1,-0.094559, 0.000576, 0.066153,1,-0.562409, 0.114736, 9.789838,1,0
1778257239706,  2175.822,  2175.822, 0.164029,-0.009299,-0.962867, 0.001627,-0.000359,-0.010006, 1.043126, 0.013817, 0.347269,1,-0.030480, 0.025907, 0.050273,1,-0.566236, 0.104150, 9.789735,1,0
1778257239728,  2175.847,  2175.842, 0.083526, 0.009011,-0.997573, 0.000867, 0.000189,-0.010202, 1.419891,-0.023854, 0.359990,1,-0.029732,-0.022072, 0.066846,1,-0.563109, 0.102961, 9.789928,1,0
1778257239749,  2175.867,  2175.862, 0.231189,-0.005957,-1.103925, 0.001499,-0.000414,-0.010968, 0.105222,-0.008091, 0.608683,1, 0.041549,-0.040649, 0.041401,1,-0.555806, 0.104635, 9.790328,1,0
1778257239776,  2175.892,  2175.892, 0.147356, 0.024862,-1.148970, 0.001966, 0.000155,-0.011343, 0.899176, 0.358710,-1.476781,1, 0.089390, 0.007093, 0.005669,1,-0.546107, 0.117696, 9.790725,1,0
1778257239798,  2175.917,  2175.912, 0.152057,-0.038611,-0.811968, 0.002036,-0.000432,-0.008066, 0.894296,-0.067973, 1.356647,1, 0.107723,-0.004243,-0.007010,1,-0.547227, 0.134249, 9.790450,1,0
1778257239821,  2175.937,  2175.937, 0.073614,-0.032832,-1.077470, 0.000874,-0.000008,-0.010835, 0.187507,-0.170802,-0.775462,1, 0.046614,-0.055649,-0.005369,1,-0.532672, 0.152616, 9.790983,1,0
1778257239847,  2175.962,  2175.962, 0.189622, 0.015915,-1.057684, 0.001295, 0.000139,-0.010590, 1.328544, 0.319793,-0.581439,1, 0.056915, 0.001497,-0.030721,1,-0.531072, 0.165446, 9.790862,1,0
1778257239868,  2175.982,  2175.982, 0.160745,-0.070663,-1.093101, 0.001393,-0.000520,-0.010069, 1.050300,-0.517823,-0.928693,1, 0.035798,-0.007610,-0.016307,1,-0.525845, 0.176248, 9.790956,1,0
1778257239891,  2176.007,  2176.007, 0.123789,-0.008577,-0.971931, 0.001518,-0.000239,-0.009543, 0.697817, 0.109347, 0.259762,1, 0.049294,-0.027643,-0.013296,1,-0.515284, 0.194975, 9.791162,1,0
1778257239917,  2176.032,  2176.032, 0.040111,-0.105836,-1.047508, 0.000300,-0.000532,-0.010092,-0.118215,-0.833312,-0.481381,1, 0.070346,-0.029859,-0.000252,1,-0.510640, 0.206779, 9.791163,1,0
1778257239938,  2176.057,  2176.052, 0.096957,-0.056929,-1.026995, 0.000652,-0.000654,-0.010605, 0.941004,-0.288317, 1.200975,1, 0.062068,-0.039238,-0.019644,1,-0.504473, 0.214203, 9.791323,1,0
1778257239961,  2176.077,  2176.077, 0.192769,-0.024143,-0.872389, 0.001389,-0.000140,-0.008349, 1.392063,-0.016186, 1.236277,1, 0.062319, 0.019263,-0.020490,1,-0.498975, 0.222483, 9.791420,1,0
1778257239987,  2176.102,  2176.102, 0.202755,-0.028719,-1.034435, 0.002347,-0.000751,-0.010267, 1.485431,-0.062434,-0.353048,1,-0.039199, 0.033224,-0.028338,1,-0.503974, 0.217940, 9.791266,1,0
1778257240008,  2176.127,  2176.122, 0.052255,-0.004567,-1.079611, 0.000976,-0.000329,-0.010769,-0.044938,-0.243677, 2.334719,1, 0.005174,-0.051490,-0.012871,1,-0.500462, 0.213357, 9.791548,1,0
1778257240031,  2176.147,  2176.147, 0.080322,-0.031637,-1.136693, 0.000364, 0.000108,-0.011216, 0.290008,-0.117566,-1.355034,1,-0.043842, 0.025049,-0.015565,1,-0.498474, 0.191292, 9.792105,1,0
1778257240057,  2176.172,  2176.172, 0.153600,-0.036401,-0.855416, 0.001664,-0.000864,-0.008715, 1.006801,-0.178870, 1.403535,1,-0.096172,-0.008812,-0.007452,1,-0.499289, 0.175182, 9.792365,1,0
1778257240078,  2176.197,  2176.192, 0.169326,-0.008935,-1.008860, 0.001779,-0.000312,-0.010074, 0.092830,-0.008462,-1.669464,1,-0.107995,-0.013445, 0.003150,1,-0.493911, 0.154672, 9.792983,1,0
1778257240101,  2176.217,  2176.217, 0.145439, 0.011814,-0.913375, 0.001435,-0.000353,-0.010430, 0.934384, 0.244235, 0.836309,1,-0.141603,-0.025888, 0.001030,1,-0.491079, 0.123965, 9.793562,1,0
1778257240127,  2176.242,  2176.242, 0.177034,-0.033225,-1.059441, 0.001303, 0.000009,-0.009542, 1.245376,-0.214502,-0.595838,1,-0.094778,-0.006079,-0.010886,1,-0.490552, 0.108355, 9.793774,1,0
1778257240148,  2176.267,  2176.262, 0.245378,-0.025198,-1.041921, 0.002063,-0.000034,-0.010085, 0.793644,-0.161169, 0.334781,1,-0.109763, 0.005819,-0.004088,1,-0.486954, 0.087934, 9.794158,1,0
1778257240171,  2176.292,  2176.287, 0.062591,-0.005416,-1.027903, 0.001145,-0.000154,-0.009869, 0.122785, 0.016744,-0.286188,1,-0.076852,-0.000645,-0.018497,1,-0.491011, 0.067428, 9.794118,1,0
1778257240197,  2176.312,  2176.312, 0.191145,-0.014164,-1.170279, 0.001686,-0.000091,-0.011832, 1.380046,-0.085299,-1.682491,1,-0.068129, 0.042381,-0.013732,1,-0.495769, 0.051457, 9.793975,1,0
1778257240218,  2176.337,  2176.332, 0.182422,-0.048512,-0.719864, 0.001878,-0.000207,-0.006924, 1.155608,-0.873293, 1.340682,1,-0.027793, 0.026142,-0.043739,1,-0.503994, 0.046915, 9.793578,1,0
1778257240241,  2176.362,  2176.357, 0.085860,-0.027432,-1.166830, 0.000919,-0.000644,-0.012246, 0.335349,-0.224384,-1.649240,1,-0.064448,-0.031235,-0.049239,1,-0.505679, 0.042540, 9.793511,1,0
1778257240267,  2176.382,  2176.382, 0.108128,-0.048824,-0.912023, 0.000623, 0.000039,-0.008722, 0.557497,-0.424370, 0.849705,1, 0.135739,-0.008110,-0.047090,1,-0.502634, 0.058592, 9.793585,1,0
1778257240289,  2176.407,  2176.402, 0.128842,-0.130188,-1.160985, 0.000881,-0.000901,-0.010932,-0.352742,-0.305731,-0.579559,1, 0.013679,-0.072654,-0.067068,1,-0.489921, 0.068440, 9.794166,1,0
1778257240311,  2176.432,  2176.427, 0.049549,-0.022450,-0.991292, 0.000766,-0.000560,-0.010659, 0.007340,-0.118675, 0.073184,1, 0.126444,-0.048898,-0.089340,1,-0.477077, 0.105287, 9.794473,1,0
1778257240337,  2176.452,  2176.452, 0.190174,-0.059464,-0.854862, 0.001916,-0.000036,-0.008711, 1.390839,-0.449093, 1.410931,1, 0.218551,-0.008226,-0.114479,1,-0.473927, 0.140694, 9.794181,1,0
1778257240359,  2176.477,  2176.472, 0.168077,-0.117528,-1.172587, 0.001738,-0.000658,-0.010325, 1.258483,-0.164997,-1.743631,1, 0.114609, 0.006253,-0.114790,1,-0.475750, 0.168721, 9.793650,1,0
1778257240381,  2176.502,  2176.497, 0.137772, 0.031584,-0.900959, 0.001306,-0.000412,-0.011225, 0.873731, 0.520863, 0.957359,1, 0.153905, 0.007954,-0.095993,1,-0.477667, 0.215783, 9.792633,1,0
1778257240407,  2176.522,  2176.522, 0.214038,-0.108768,-0.976222, 0.002280,-0.000121,-0.008090, 1.614470,-0.820988, 0.218117,1, 0.215872, 0.006572,-0.092042,1,-0.484799, 0.252244, 9.791410,1,0
1778257240429,  2176.547,  2176.542, 0.041658,-0.033648,-1.131000, 0.000693,-0.000845,-0.011286, 0.106612, 0.933612, 2.532559,1, 0.168173,-0.069693,-0.067159,1,-0.473119, 0.278458, 9.791272,1,0
1778257240452,  2176.572,  2176.567, 0.141721,-0.020420,-1.028694, 0.000738,-0.000306,-0.010362, 0.919546, 0.114176,-0.297725,1, 0.135914, 0.016443,-0.025943,1,-0.470859, 0.318690, 9.790154,1,0
1778257240477,  2176.592,  2176.592, 0.170262,-0.042244,-0.815295, 0.001900,-0.000410,-0.007752, 1.198263,-0.074123, 1.794089,1, 0.092111,-0.027277,-0.021759,1,-0.470613, 0.342990, 9.789345,1,0
1778257240499,  2176.617,  2176.612, 0.112782, 0.035053,-1.114987, 0.001402, 0.000072,-0.012697, 0.876273,-0.005007,-0.429833,1, 0.122764, 0.005443,-0.023160,1,-0.464509, 0.364194, 9.788870,1,0
1778257240526,  2176.642,  2176.642, 0.193614,-0.064548,-1.111715, 0.002074,-0.000128,-0.009522, 1.428247,-0.251787,-1.114267,1, 0.042193, 0.017098, 0.027428,1,-0.470959, 0.382566, 9.787861,1,0
1778257240547,  2176.662,  2176.662, 0.068282, 0.040981,-0.682821, 0.000832, 0.000060,-0.008465, 0.201763, 0.790187, 3.091599,1, 0.064154,-0.025423, 0.019818,1,-0.467037, 0.390328, 9.787743,1,0
1778257240569,  2176.687,  2176.682, 0.119367,-0.063164,-1.265099, 0.000982,-0.000485,-0.012388,-0.162254,-0.339840,-2.235848,1,-0.011037,-0.020519, 0.009800,1,-0.460605, 0.391615, 9.787996,1,0
1778257240596,  2176.712,  2176.712, 0.081668,-0.072406,-0.919799, 0.000697,-0.000951,-0.009363, 0.336662,-0.321940, 0.767820,1,-0.031626,-0.001291, 0.047500,1,-0.464125, 0.387203, 9.788005,1,0
1778257240617,  2176.737,  2176.732, 0.050164, 0.066643,-0.861711, 0.000778, 0.000205,-0.010194, 0.232380,-0.030834, 1.798074,1, 0.012303,-0.015081, 0.054299,1,-0.460171, 0.389892, 9.788085,1,0
1778257240639,  2176.757,  2176.752, 0.131013,-0.007816,-1.244886, 0.001465, 0.000019,-0.012267, 0.222796, 0.229858,-2.425130,1,-0.071908,-0.005715, 0.043801,1,-0.455949, 0.378615, 9.788726,1,0
1778257240666,  2176.782,  2176.782, 0.146391, 0.036242,-0.863410, 0.001124, 0.000056,-0.009349, 0.982084, 0.725315, 1.322008,1, 0.005024, 0.010677, 0.054880,1,-0.453792, 0.370111, 9.789151,1,0
1778257240688,  2176.807,  2176.802, 0.106755,-0.059068,-1.021943, 0.001643,-0.000209,-0.008617, 0.796997, 0.258534,-1.087528,1,-0.052540, 0.026085, 0.030580,1,-0.461093, 0.364170, 9.789033,1,0
1778257240709,  2176.827,  2176.822, 0.152201, 0.039105,-0.921270, 0.001257, 0.000076,-0.010308, 0.971969, 0.383443, 0.185352,1, 0.005002,-0.003587, 0.027320,1,-0.459914, 0.359097, 9.789275,1,0
1778257240736,  2176.852,  2176.852, 0.124528,-0.146334,-1.142303, 0.001321,-0.000852,-0.009410, 0.754194,-1.078990,-1.413118,1,-0.034832, 0.038283, 0.034282,1,-0.468161, 0.355024, 9.789033,1,0
1778257240758,  2176.877,  2176.872, 0.193040, 0.030232,-0.717617, 0.001582,-0.000540,-0.009801, 1.911600, 0.537835, 1.217489,1, 0.031301, 0.059771, 0.038067,1,-0.476588, 0.358670, 9.788493,1,0
1778257240779,  2176.897,  2176.892, 0.081105,-0.069048,-1.092581, 0.000982,-0.000139,-0.009130,-0.125269,-0.065297, 1.602288,1, 0.026234,-0.011497, 0.039365,1,-0.482403, 0.368446, 9.787846,1,0
1778257240806,  2176.922,  2176.922, 0.085326, 0.021061,-0.918619, 0.000595,-0.000103,-0.010297, 0.367083, 0.589774, 0.779320,1, 0.069238,-0.040946, 0.028831,1,-0.468371, 0.385433, 9.787873,1,0
1778257240828,  2176.947,  2176.942, 0.185923,-0.068612,-1.032701, 0.002055, 0.000045,-0.008475, 0.286575,-0.104976,-3.088850,1, 0.053145, 0.023820,-0.006258,1,-0.469696, 0.403185, 9.787094,1,0
1778257240849,  2176.967,  2176.962, 0.118015, 0.073671,-0.882634, 0.001169, 0.000012,-0.010408, 1.211255, 0.387231, 1.911999,1, 0.131679,-0.018197, 0.019895,1,-0.466609, 0.428280, 9.786176,1,0
1778257240876,  2176.992,  2176.992, 0.079004,-0.022228,-1.297089, 0.000961,-0.000154,-0.012370, 0.313892, 0.234282,-2.934728,1, 0.101878, 0.029114, 0.011507,1,-0.461759, 0.455449, 9.785179,1,0
1778257240898,  2177.017,  2177.012, 0.218723, 0.055060,-0.842082, 0.001596, 0.000210,-0.009135, 1.757546, 0.042041, 1.236557,1, 0.131906, 0.022063, 0.044152,1,-0.463063, 0.482141, 9.783838,1,0
1778257240919,  2177.037,  2177.032, 0.142837, 0.041733,-1.273771, 0.001234,-0.000030,-0.012723, 1.395822, 0.985127, 1.695831,1, 0.097601,-0.008466, 0.074248,1,-0.460483, 0.501898, 9.782967,1,0
1778257240946,  2177.062,  2177.062, 0.127901, 0.048829,-1.049722, 0.001834, 0.000768,-0.009859, 0.782631, 1.005969,-0.513147,1, 0.108160, 0.065068, 0.119629,1,-0.473471, 0.530671, 9.780828,1,0
1778257240968,  2177.087,  2177.082, 0.113138, 0.002329,-0.815750, 0.000729,-0.000016,-0.007997, 1.207339, 1.210246, 3.787865,1, 0.068222,-0.043136, 0.137672,1,-0.471197, 0.548851, 9.779935,1,0
1778257240989,  2177.107,  2177.102, 0.170389, 0.066774,-1.257983, 0.001667, 0.001233,-0.011357, 0.694490, 0.828367,-1.855548,1, 0.071101, 0.066537, 0.116355,1,-0.477705, 0.568910, 9.778473,1,0
1778257241016,  2177.132,  2177.132, 0.101384, 0.122035,-0.809792, 0.000515, 0.000381,-0.009101, 0.511004, 1.776969, 1.836192,1,-0.003616,-0.008505, 0.187523,1,-0.482625, 0.580394, 9.777555,1,0
1778257241038,  2177.157,  2177.152, 0.062407, 0.064082,-1.120093, 0.001363, 0.000942,-0.010377, 0.327082, 0.812610,-2.393236,1,-0.001173, 0.043732, 0.198192,1,-0.486378, 0.584424, 9.777130,1,0
1778257241061,  2177.177,  2177.177, 0.148623, 0.079039,-0.866642, 0.001467, 0.000769,-0.009080, 0.963712, 1.354725, 1.278189,1,-0.026512, 0.022323, 0.243434,1,-0.494028, 0.579173, 9.777059,1,0
1778257241087,  2177.202,  2177.202, 0.094493, 0.054317,-0.947917, 0.000876, 0.000294,-0.010706, 0.430128, 1.104626, 0.481462,1,-0.085514,-0.006098, 0.267557,1,-0.495858, 0.569715, 9.777522,1,0
1778257241108,  2177.227,  2177.222, 0.013075, 0.095971,-1.229430, 0.000651, 0.001507,-0.011385,-0.158848, 0.899785,-2.045174,1,-0.097137, 0.033106, 0.277147,1,-0.497699, 0.555061, 9.778271,1,0
1778257241131,  2177.247,  2177.247, 0.172468, 0.161270,-0.694382, 0.000956, 0.001009,-0.009150, 1.195828, 2.105715, 2.970528,1,-0.137190, 0.009784, 0.309720,1,-0.495291, 0.520410, 9.780299,1,0
1778257241157,  2177.272,  2177.272, 0.040539, 0.060104,-0.965809, 0.000080, 0.001020,-0.008567,-0.091292, 1.090459, 0.310280,1,-0.160854,-0.035747, 0.290243,1,-0.487264, 0.496484, 9.781946,1,0
1778257241178,  2177.297,  2177.292, 0.022853, 0.159704,-0.756732, 0.000485, 0.001208,-0.008943,-0.698116, 2.313245,-0.120604,1,-0.161822, 0.020126, 0.293621,1,-0.481821, 0.461690, 9.783919,1,0
1778257241201,  2177.317,  2177.317,-0.011927, 0.091676,-0.798700,-0.000215, 0.000464,-0.008632,-0.584777, 1.320209, 1.953854,1,-0.186743,-0.084765, 0.303625,1,-0.464763, 0.415807, 9.786801,1,0
1778257241227,  2177.342,  2177.342,-0.075914, 0.061327,-1.427513,-0.000289, 0.001548,-0.012495,-1.199974, 0.983868,-4.210526,1,-0.185214,-0.011075, 0.309931,1,-0.454792, 0.377138, 9.788836,1,0
1778257241248,  2177.367,  2177.362, 0.113620, 0.100944,-1.078310, 0.000245, 0.000573,-0.012635, 0.048271, 1.492157,-1.074967,1,-0.219090, 0.028681, 0.337608,1,-0.453145, 0.336861, 9.790381,1,0
1778257241271,  2177.387,  2177.387,-0.033669, 0.158678,-0.574096, 0.000202, 0.001635,-0.006105,-0.789524, 1.844179, 4.161684,1,-0.206481,-0.008047, 0.300464,1,-0.458816, 0.282080, 9.791849,1,0
1778257241297,  2177.412,  2177.412,-0.022817, 0.101309,-1.258020,-0.000014, 0.001252,-0.010941,-0.684381, 1.247212,-2.544429,1,-0.225286, 0.021416, 0.258490,1,-0.461080, 0.247064, 9.792688,1,0
1778257241318,  2177.437,  2177.432,-0.044834,-0.023624,-0.806928,-0.000668,-0.000392,-0.010164,-0.867277, 1.330834, 1.141126,1,-0.212106, 0.023426, 0.243294,1,-0.463954, 0.205093, 9.793522,1,0
1778257241341,  2177.457,  2177.457,-0.094802,-0.100989,-1.050617,-0.000524,-0.000548,-0.008053,-1.396906,-0.828161,-0.508870,1,-0.214418,-0.007307, 0.193717,1,-0.466891, 0.155808, 9.794291,1,0
1778257241367,  2177.482,  2177.482, 0.013859,-0.007836,-0.910918,-0.000328, 0.000252,-0.009837,-0.328700, 0.053456, 0.861711,1,-0.116328, 0.017432, 0.118014,1,-0.465103, 0.126846, 9.794793,1,0
1778257241388,  2177.507,  2177.502,-0.043553,-0.112372,-0.966564, 0.000124,-0.001398,-0.008835, 0.474489,-0.796017, 0.641121,1,-0.099333, 0.033657, 0.060940,1,-0.472197, 0.108227, 9.794677,1,0
1778257241411,  2177.532,  2177.527,-0.002823,-0.170956,-1.119119, 0.000334,-0.001450,-0.011860,-0.507458,-1.584705,-1.180334,1, 0.021062, 0.049506,-0.037295,1,-0.481324, 0.092405, 9.794394,1,0
1778257241437,  2177.552,  2177.552, 0.004229,-0.114918,-0.922111,-0.000511,-0.001804,-0.010759,-0.444878,-1.038366, 0.751363,1,-0.020018,-0.003584,-0.085228,1,-0.486261, 0.087835, 9.794193,1,0
1778257241459,  2177.577,  2177.572,-0.045483,-0.235953,-0.901696, 0.000230,-0.001560,-0.008128,-0.541332,-3.086474,-1.168237,1,-0.012191, 0.020909,-0.143399,1,-0.488427, 0.092423, 9.794044,1,0
1778257241481,  2177.602,  2177.597, 0.021866,-0.073568,-0.809865,-0.000106,-0.001706,-0.010602,-0.272458,-0.636112, 1.852123,1,-0.001726,-0.033147,-0.225208,1,-0.485920, 0.084939, 9.794235,1,0
1778257241507,  2177.622,  2177.622,-0.027980,-0.134346,-1.223071, 0.000572,-0.001513,-0.011034,-0.763253,-1.235178,-2.200115,1,-0.060982, 0.007738,-0.226686,1,-0.489166, 0.080047, 9.794115,1,0
1778257241529,  2177.647,  2177.642, 0.065769,-0.120056,-0.889227,-0.000100,-0.001230,-0.009723, 0.645736,-1.765567, 0.945248,1, 0.022037,-0.027600,-0.217610,1,-0.484504, 0.074919, 9.794388,1,0
1778257241551,  2177.672,  2177.667,-0.038319,-0.065631,-1.333967,-0.000165,-0.000871,-0.012793,-0.856975,-0.584061,-3.287091,1,-0.094165, 0.032084,-0.211861,1,-0.482236, 0.056299, 9.794624,1,0
1778257241577,  2177.692,  2177.692,-0.002838,-0.091822,-0.834199, 0.000585,-0.000466,-0.008484,-0.516489,-0.848733, 1.613633,1, 0.025693, 0.050052,-0.212880,1,-0.490252, 0.052200, 9.794249,1,0
1778257241599,  2177.717,  2177.712, 0.019462,-0.068777,-1.310597,-0.000084,-0.000652,-0.012849,-0.780461,-0.143676, 1.128306,1,-0.062626,-0.003557,-0.196503,1,-0.491287, 0.040174, 9.794253,1,0
1778257241621,  2177.742,  2177.737, 0.046686,-0.195657,-1.072171, 0.000322,-0.000883,-0.007671,-0.048549,-1.880480,-0.720914,1, 0.026095, 0.060760,-0.210686,1,-0.508300, 0.038737, 9.793391,1,0
1778257241647,  2177.762,  2177.762,-0.020430, 0.082188,-0.767930,-0.000694,-0.000301,-0.010451,-0.707934, 0.839133, 2.262629,1, 0.017255, 0.016347,-0.200468,1,-0.508119, 0.033362, 9.793421,1,0
1778257241669,  2177.787,  2177.782,-0.129593,-0.076888,-1.302956,-0.000710, 0.000075,-0.010387,-2.089131,-1.119835,-2.278816,1,-0.014427,-0.009705,-0.189932,1,-0.508182, 0.034421, 9.793414,1,0
1778257241692,  2177.812,  2177.807, 0.010725, 0.059105,-0.651919,-0.000641, 0.000612,-0.008143,-0.402285, 0.617405, 3.400293,1, 0.064166,-0.026853,-0.129891,1,-0.506641, 0.039578, 9.793474,1,0
1778257241717,  2177.832,  2177.832, 0.050080,-0.032106,-1.229932,-0.000001,-0.000251,-0.011398,-0.018238,-0.272083,-2.268191,1,-0.004194, 0.011083,-0.089248,1,-0.509715, 0.042490, 9.793303,1,0
1778257241739,  2177.857,  2177.852, 0.129085, 0.078751,-0.860358, 0.000740, 0.000500,-0.009887, 0.126141, 1.611296, 2.593474,1, 0.023699,-0.005142,-0.068209,1,-0.509871, 0.044546, 9.793285,1,0
1778257241766,  2177.882,  2177.882,-0.009307,-0.017312,-1.347883,-0.000089,-0.000240,-0.012423,-0.591966,-0.127748,-3.424446,1,-0.069688, 0.001113,-0.029033,1,-0.500734, 0.039801, 9.793777,1,0
1778257241787,  2177.902,  2177.902, 0.049455, 0.067124,-1.021038, 0.000702, 0.001027,-0.009773,-0.020042, 0.694888,-0.219391,1, 0.019539, 0.050269,-0.008662,1,-0.506599, 0.037218, 9.793486,1,0
1778257241809,  2177.927,  2177.922,-0.036429,-0.027407,-0.935456, 0.000151,-0.000395,-0.009273,-0.331906, 1.148472, 3.419416,1,-0.061366,-0.048147, 0.020535,1,-0.502997, 0.030968, 9.793693,1,0
1778257241836,  2177.952,  2177.952, 0.067716,-0.095436,-1.267001, 0.000371, 0.000236,-0.010563, 0.165835,-0.908124,-2.631090,1, 0.031148, 0.013752,-0.004692,1,-0.498660, 0.028744, 9.793921,1,0
1778257241857,  2177.977,  2177.972,-0.089061,-0.057590,-0.891083,-0.000300,-0.001102,-0.008540, 0.644308, 0.211830, 3.559856,1,-0.003425,-0.030056,-0.000082,1,-0.498314, 0.022159, 9.793956,1,0
1778257241879,  2177.997,  2177.992,-0.017579,-0.186175,-1.168528, 0.000446,-0.000629,-0.010679,-0.927058,-1.219489,-2.760471,1,-0.018448,-0.009193,-0.016104,1,-0.497854, 0.023109, 9.793978,1,0
1778257241906,  2178.022,  2178.022, 0.144480, 0.016619,-1.066782, 0.000229,-0.000585,-0.012048, 0.914713, 0.184481,-0.667800,1,-0.057443,-0.005058,-0.061278,1,-0.502000, 0.019618, 9.793774,1,0
1778257241928,  2178.047,  2178.042, 0.006417,-0.051245,-0.641723, 0.000810,-0.000556,-0.006516,-0.380026,-1.962635, 0.700828,1, 0.085747, 0.095348,-0.069461,1,-0.510010, 0.030809, 9.793330,1,0
1778257241949,  2178.067,  2178.062, 0.020589, 0.000432,-1.187837, 0.000096,-0.000613,-0.013059, 0.048248, 1.090139, 2.918408,1, 0.037244, 0.003815,-0.099824,1,-0.510761, 0.033203, 9.793283,1,0
1778257241976,  2178.092,  2178.092, 0.047361,-0.196458,-1.030889, 0.000647,-0.001004,-0.008110,-0.059852,-1.881261,-0.317050,1, 0.065393, 0.004296,-0.097675,1,-0.524450, 0.047212, 9.792502,1,0
1778257241998,  2178.117,  2178.112,-0.055631, 0.062299,-1.061155,-0.000799,-0.000880,-0.013193,-0.156571, 0.968079, 1.856793,1, 0.057895, 0.000106,-0.088669,1,-0.521085, 0.052693, 9.792654,1,0
1778257242019,  2178.137,  2178.132,-0.017078,-0.089915,-1.260298, 0.000138,-0.000248,-0.010388,-0.885379,-0.298355,-1.701523,1, 0.050432,-0.000326,-0.100856,1,-0.525901, 0.064538, 9.792326,1,0
1778257242046,  2178.162,  2178.162, 0.074521, 0.041185,-0.774640,-0.000077, 0.000019,-0.009097, 0.197502, 0.482105, 2.195203,1, 0.053159, 0.008777,-0.057910,1,-0.533583, 0.079777, 9.791798,1,0
1778257242068,  2178.187,  2178.182,-0.102867,-0.037439,-0.964756,-0.000044, 0.000522,-0.008518,-1.051325,-0.021818,-1.071940,1, 0.036872, 0.019714,-0.060665,1,-0.538839, 0.091414, 9.791409,1,0
1778257242089,  2178.207,  2178.202,-0.057667, 0.052447,-1.005625,-0.001239, 0.000382,-0.011262,-1.081312, 0.119134, 1.082491,1, 0.071841,-0.014079,-0.052279,1,-0.532367, 0.099500, 9.791684,1,0
1778257242116,  2178.232,  2178.232,-0.080263,-0.116540,-1.026184,-0.000719,-0.000201,-0.008001,-1.317296,-1.035366,-0.271714,1, 0.034147,-0.020286,-0.030056,1,-0.529558, 0.108512, 9.791740,1,0
1778257242138,  2178.257,  2178.252,-0.014685, 0.137975,-0.832970, 0.000146, 0.000429,-0.011144,-0.599070, 0.693179, 0.122941,1, 0.032161, 0.008230,-0.033295,1,-0.523283, 0.110415, 9.792056,1,0
1778257242159,  2178.277,  2178.272, 0.141693,-0.076595,-1.235437, 0.000398, 0.000194,-0.009629, 0.308150,-0.641897,-0.825344,1,-0.032363,-0.017722,-0.017870,1,-0.526288, 0.113862, 9.791856,1,0
1778257242186,  2178.302,  2178.302,-0.077347, 0.106681,-0.434548,-0.000402, 0.000324,-0.006021,-1.286444, 1.169654, 5.530195,1, 0.053188,-0.043261, 0.034349,1,-0.526571, 0.125186, 9.791702,1,0
1778257242208,  2178.327,  2178.322, 0.172432, 0.028600,-1.308532, 0.000902, 0.000624,-0.012681,-1.508105, 0.704160,-3.155588,1,-0.028824,-0.023923, 0.045939,1,-0.522696, 0.123666, 9.791929,1,0
1778257242229,  2178.347,  2178.342,-0.102647, 0.016363,-0.923478,-0.000853,-0.000040,-0.008847,-0.179112, 0.621028, 1.202729,1, 0.057624,-0.024877, 0.057582,1,-0.522075, 0.124029, 9.791958,1,0
1778257242256,  2178.372,  2178.372,-0.010475, 0.055725,-0.992289,-0.000025, 0.000372,-0.009870,-0.604877, 0.659117, 0.062108,1,-0.060933,-0.037486, 0.068560,1,-0.500901, 0.110771, 9.793222,1,0
1778257242278,  2178.397,  2178.392, 0.083410,-0.012662,-1.018093, 0.001614, 0.000960,-0.008441, 0.770751, 0.783805,-1.039565,1,-0.106085,-0.016704, 0.091354,1,-0.499246, 0.097563, 9.793447,1,0
1778257242301,  2178.417,  2178.417, 0.249597, 0.048792,-1.124464, 0.001798, 0.000214,-0.012214, 1.948255, 0.556025,-1.233613,1,-0.095779, 0.072120, 0.114983,1,-0.501672, 0.074733, 9.793525,1,0
1778257242327,  2178.442,  2178.442, 0.135263, 0.055060,-1.000531, 0.002400, 0.000532,-0.010005, 0.809303, 0.599857,-0.019039,1,-0.102298, 0.070452, 0.119477,1,-0.519347, 0.056909, 9.792723,1,0
1778257242348,  2178.467,  2178.462, 0.059541, 0.055349,-1.016592, 0.000374, 0.000193,-0.010517, 0.587880,-0.405456, 0.988763,1,-0.061841, 0.033466, 0.110911,1,-0.523508, 0.047277, 9.792553,1,0
1778257242371,  2178.487,  2178.487,-0.024786,-0.021815,-1.037426, 0.000468, 0.000357,-0.010099,-0.762923,-0.188371,-0.380842,1,-0.053829,-0.016598, 0.110598,1,-0.519326, 0.024066, 9.792860,1,0
1778257242397,  2178.512,  2178.512, 0.193421,-0.022314,-0.958713, 0.000916,-0.000081,-0.010075, 1.376916,-0.206217, 0.391090,1,-0.051833,-0.001681, 0.087913,1,-0.519839, 0.011136, 9.792856,1,0
1778257242418,  2178.537,  2178.532,-0.000132,-0.157112,-0.873713, 0.000639,-0.000944,-0.007991,-0.017081,-1.023368,-0.294681,1,-0.082140,-0.066704, 0.063070,1,-0.509306,-0.001553, 9.793416,1,0
1778257242441,  2178.557,  2178.557, 0.172850, 0.053935,-0.980370, 0.001628, 0.000018,-0.012170, 1.188428, 0.515238, 0.179395,1,-0.050641,-0.005517, 0.001999,1,-0.506479,-0.015260, 9.793550,1,0
1778257242467,  2178.582,  2178.582, 0.088111,-0.133760,-1.192123, 0.000668,-0.000127,-0.008968, 0.356098,-1.332273,-1.897272,1, 0.019761, 0.041244,-0.003383,1,-0.509265,-0.019931, 9.793398,1,0
1778257242488,  2178.607,  2178.602,-0.003126, 0.029686,-1.125056, 0.000603,-0.000792,-0.013327,-0.019364,-0.160077, 0.916829,1,-0.026832, 0.010793,-0.041101,1,-0.507147,-0.028200, 9.793488,1,0
1778257242511,  2178.627,  2178.627,-0.020834,-0.152146,-1.070345,-0.000543,-0.000187,-0.008273,-0.711987,-1.519344,-0.703041,1, 0.070820,-0.024907,-0.073817,1,-0.506889,-0.025217, 9.793509,1,0
1778257242537,  2178.652,  2178.652, 0.076720,-0.051543,-1.014153,-0.000306,-0.001486,-0.012118, 0.251655,-0.531820,-0.151619,1, 0.010059,-0.007440,-0.079097,1,-0.500476,-0.026165, 9.793836,1,0
1778257242558,  2178.677,  2178.672, 0.048999,-0.091113,-0.900420, 0.000552,-0.000159,-0.008209,-0.505218,-0.993713,-1.478760,1, 0.040577, 0.019631,-0.107691,1,-0.503747,-0.017563, 9.793688,1,0
1778257242581,  2178.697,  2178.697, 0.002764,-0.007806,-0.947318, 0.000142,-0.000583,-0.010245,-0.474850,-0.078211, 0.503779,1, 0.042889,-0.011832,-0.129028,1,-0.501586,-0.000528, 9.793814,1,0
1778257242607,  2178.722,  2178.722, 0.041786,-0.144374,-0.947703, 0.000954,-0.000421,-0.007812,-0.096914,-1.399493, 0.499748,1, 0.156936, 0.025598,-0.158856,1,-0.507500, 0.020965, 9.793487,1,0
1778257242628,  2178.747,  2178.742, 0.007978,-0.050483,-1.105542, 0.000583,-0.000761,-0.011396, 0.097183, 0.613825, 1.053563,1, 0.046732, 0.008932,-0.138087,1,-0.509658, 0.033074, 9.793342,1,0
1778257242651,  2178.772,  2178.767, 0.072227,-0.120582,-0.903048,-0.000172,-0.000403,-0.007478, 0.200966,-1.121848, 0.937448,1, 0.195972, 0.030752,-0.139482,1,-0.507953, 0.066601, 9.793260,1,0
1778257242677,  2178.792,  2178.792,-0.073801, 0.099449,-1.194064, 0.000014,-0.000307,-0.013793,-0.017220, 0.773358, 1.926941,1, 0.095921, 0.003636,-0.126177,1,-0.506703, 0.068183, 9.793313,1,0
1778257242699,  2178.817,  2178.812, 0.048160,-0.001977,-0.696007, 0.000028, 0.000010,-0.006582, 0.421619,-1.174024, 2.876351,1, 0.178587,-0.004479,-0.100931,1,-0.514050, 0.097168, 9.792686,1,0
1778257242721,  2178.842,  2178.837,-0.039493,-0.021190,-1.378400,-0.000099,-0.000520,-0.012904,-0.888587,-0.106131,-3.724183,1,-0.049605,-0.037621,-0.059104,1,-0.500138, 0.100036, 9.793377,1,0
1778257242747,  2178.862,  2178.862, 0.061382, 0.056806,-0.876396, 0.000144, 0.000283,-0.009851, 0.110316, 0.655122, 1.199317,1, 0.002972,-0.050048,-0.028841,1,-0.490088, 0.098092, 9.793905,1,0
1778257242769,  2178.887,  2178.882, 0.075641,-0.092368,-1.140872, 0.000403, 0.000014,-0.008315, 0.018383, 0.926262,-0.319101,1,-0.150378,-0.041658, 0.009579,1,-0.484524, 0.088017, 9.794277,1,0
1778257242791,  2178.912,  2178.907, 0.008200, 0.115983,-0.972647, 0.000305, 0.000271,-0.012662,-0.390701, 1.204450, 0.256683,1,-0.115104,-0.006671, 0.022501,1,-0.470901, 0.063494, 9.795132,1,0
1778257242817,  2178.932,  2178.932, 0.045489,-0.224365,-1.035293, 0.001051,-0.000854,-0.007164,-0.026598,-2.144919,-0.357661,1,-0.084205,-0.015632, 0.029362,1,-0.472201, 0.052771, 9.795133,1,0
1778257242839,  2178.957,  2178.952, 0.170661, 0.058186,-0.857868, 0.001642, 0.000238,-0.010751, 1.789966, 0.644497,-0.206347,1,-0.060738, 0.093581, 0.033038,1,-0.479166, 0.030457, 9.794889,1,0
1778257242862,  2178.982,  2178.977, 0.095095,-0.151685,-0.902095, 0.001164,-0.000789,-0.006706, 0.438713,-1.482294, 0.947671,1,-0.028937, 0.044993, 0.064192,1,-0.495272, 0.004411, 9.794134,1,0
1778257242887,  2179.002,  2179.002, 0.086440, 0.115209,-0.792491, 0.000656,-0.000123,-0.010731, 0.354359, 1.114135, 2.022539,1,-0.164489,-0.030470, 0.047937,1,-0.492383,-0.020731, 9.794259,1,0
1778257242909,  2179.027,  2179.022, 0.084747,-0.057611,-0.979771, 0.001190, 0.000368,-0.008331,-0.183638,-1.214541,-4.113664,1,-0.111977, 0.039602, 0.032505,1,-0.496951,-0.030196, 9.794003,1,0
1778257242932,  2179.052,  2179.047, 0.048728, 0.120907,-0.812657, 0.000452,-0.000186,-0.011430,-0.017178, 1.140590, 1.824600,1,-0.114953,-0.051892,-0.002801,1,-0.493421,-0.048689, 9.794107,1,0
1778257242957,  2179.072,  2179.072, 0.140043,-0.076386,-1.376390, 0.001315, 0.000350,-0.011132, 0.876105,-0.799883,-3.703875,1,-0.033444, 0.028655,-0.005652,1,-0.498142,-0.051840, 9.793853,1,0
1778257242979,  2179.097,  2179.092, 0.023529, 0.018817,-1.005761, 0.000987,-0.000627,-0.011769, 0.978686, 0.758817, 2.323380,1,-0.009161, 0.032433,-0.040439,1,-0.501701,-0.060116, 9.793624,1,0
1778257243006,  2179.122,  2179.122, 0.117242, 0.022645,-0.947682, 0.001499, 0.000858,-0.008561, 0.645330, 0.157025, 0.499862,1, 0.045197, 0.074297,-0.001066,1,-0.506736,-0.063635, 9.793343,1,0
1778257243027,  2179.142,  2179.142,-0.022449, 0.061369,-1.097232,-0.000387, 0.000037,-0.012240,-0.727658, 0.531683,-0.966912,1,-0.085345,-0.129603,-0.005650,1,-0.503463,-0.072815, 9.793447,1,0
1778257243049,  2179.167,  2179.162, 0.059498,-0.025963,-0.802263, 0.000915, 0.000624,-0.008316,-0.401914, 0.409234,-5.259733,1, 0.034193, 0.049482,-0.052600,1,-0.498463,-0.075051, 9.793686,1,0
1778257243076,  2179.192,  2179.192, 0.016985, 0.087586,-0.666506, 0.000389,-0.000077,-0.008863,-0.328433, 0.782996, 3.257660,1,-0.093611,-0.095542,-0.028543,1,-0.492019,-0.078892, 9.793982,1,0
1778257243097,  2179.217,  2179.212, 0.136126,-0.045297,-1.045836, 0.000526,-0.000240,-0.010745, 0.610243,-1.032836,-1.439030,1, 0.017570,-0.020238,-0.041662,1,-0.483715,-0.071175, 9.794455,1,0
1778257243119,  2179.237,  2179.232, 0.071337, 0.026596,-0.932675, 0.001140,-0.000029,-0.009846, 1.038994, 0.919798,-0.295627,1,-0.007405, 0.015595,-0.061240,1,-0.480865,-0.074054, 9.794574,1,0
1778257243146,  2179.262,  2179.262, 0.010196,-0.107075,-0.851291, 0.000751,-0.000335,-0.007883,-0.377814,-1.113617, 1.446481,1, 0.075129,-0.046794,-0.054743,1,-0.476336,-0.061309, 9.794883,1,0
1778257243168,  2179.287,  2179.282, 0.044276,-0.074567,-1.233611, 0.000185,-0.000888,-0.011442, 0.578744, 0.524907,-0.432868,1,-0.065072,-0.035816,-0.061816,1,-0.468107,-0.064622, 9.795259,1,0
1778257243189,  2179.307,  2179.302, 0.123546,-0.015248,-1.007734, 0.000677,-0.000550,-0.010624,-0.761405,-0.580201, 0.369540,1, 0.037668, 0.002200,-0.055323,1,-0.465698,-0.055234, 9.795430,1,0
1778257243216,  2179.332,  2179.332, 0.002508,-0.046212,-1.073741, 0.000717,-0.000879,-0.011239,-0.445606,-0.504720,-0.734567,1,-0.010142, 0.028913,-0.059427,1,-0.471092,-0.051943, 9.795191,1,0
1778257243238,  2179.357,  2179.352, 0.042232,-0.030259,-0.762345, 0.000025, 0.000167,-0.007985, 0.598674,-1.540229,-0.148429,1, 0.025872,-0.029845,-0.055305,1,-0.469617,-0.042623, 9.795306,1,0
1778257243259,  2179.377,  2179.372, 0.053159,-0.021507,-0.981759, 0.000863,-0.000400,-0.010134, 0.393191, 0.700052,-0.559802,1,-0.044313, 0.023895,-0.076388,1,-0.469185,-0.040980, 9.795334,1,0
1778257243286,  2179.402,  2179.402,-0.060768,-0.058948,-0.819091, 0.000334, 0.000090,-0.007733,-1.063872,-0.603971, 1.762901,1, 0.100069, 0.010210,-0.081946,1,-0.468251,-0.022895, 9.795438,1,0
1778257243308,  2179.427,  2179.422, 0.003929,-0.126924,-0.952069, 0.000077,-0.000808,-0.006963, 0.026962, 0.049450, 2.115219,1, 0.025630,-0.078149,-0.097188,1,-0.463460,-0.014664, 9.795681,1,0
1778257243329,  2179.447,  2179.442, 0.134523,-0.030024,-1.182602, 0.000611,-0.000002,-0.012699, 0.304003,-1.235142,-2.306581,1, 0.104363,-0.032849,-0.110503,1,-0.452792,-0.000949, 9.796191,1,0
1778257243356,  2179.472,  2179.472, 0.049712,-0.058263,-0.986625, 0.001078,-0.000993,-0.010092, 0.036911,-0.560345, 0.120799,1, 0.052693,-0.005144,-0.067823,1,-0.450438, 0.012570, 9.796291,1,0
1778257243378,  2179.497,  2179.492, 0.100116, 0.077614,-1.037830, 0.000852, 0.000047,-0.012086, 0.121725,-0.677589, 0.636555,1, 0.071467,-0.007940,-0.047899,1,-0.444269, 0.023643, 9.796553,1,0
1778257243399,  2179.517,  2179.512,-0.030771,-0.031017,-1.133418, 0.000168, 0.000050,-0.010356, 0.358136, 0.019755,-3.111866,1,-0.036352,-0.031128,-0.062898,1,-0.441374, 0.025723, 9.796679,1,0
1778257243426,  2179.542,  2179.542, 0.056385, 0.068446,-0.783878, 0.000940, 0.000757,-0.008794, 0.110996, 0.705767, 2.109407,1, 0.041689, 0.006751,-0.022667,1,-0.442163, 0.035808, 9.796612,1,0
1778257243448,  2179.567,  2179.562,-0.032855,-0.061678,-1.124807,-0.000176,-0.000424,-0.009158, 0.568910, 1.010986, 1.997243,1,-0.060086,-0.057725,-0.018671,1,-0.438801, 0.034406, 9.796767,1,0
1778257243469,  2179.587,  2179.582, 0.118829, 0.084836,-0.873928, 0.000884, 0.001135,-0.009705, 0.141642,-0.763456,-4.185300,1, 0.039921, 0.026943,-0.027470,1,-0.433712, 0.036588, 9.796987,1,0
1778257243496,  2179.612,  2179.612, 0.025406, 0.031741,-0.832325, 0.000467,-0.000801,-0.009183,-0.177847, 0.347737, 1.634958,1,-0.048158,-0.053551,-0.011854,1,-0.425324, 0.034946, 9.797360,1,0
1778257243518,  2179.637,  2179.632, 0.113897, 0.080885,-0.924511, 0.001349, 0.000538,-0.010492, 0.502416,-0.064197,-2.402612,1, 0.053274, 0.052636,-0.009655,1,-0.429283, 0.040660, 9.797165,1,0
1778257243541,  2179.657,  2179.657, 0.108389,-0.037219,-1.200413, 0.000705,-0.000940,-0.011139, 0.631188,-0.325913,-1.974962,1,-0.062785, 0.007835, 0.037632,1,-0.431980, 0.037179, 9.797061,1,0
1778257243567,  2179.682,  2179.682, 0.043341, 0.023909,-0.988962, 0.000816, 0.000693,-0.008964,-0.007676, 0.268971, 0.098635,1, 0.021775, 0.036344, 0.023440,1,-0.433837, 0.035219, 9.796986,1,0
1778257243588,  2179.707,  2179.702, 0.119983, 0.010165,-0.900721, 0.001080,-0.000314,-0.009402, 1.271223, 0.902547, 2.097796,1,-0.011964, 0.053162, 0.037894,1,-0.447419, 0.032636, 9.796384,1,0
1778257243611,  2179.727,  2179.727, 0.018279,-0.052415,-1.204316, 0.000272, 0.000272,-0.010438,-0.274440,-0.491115,-2.014186,1,-0.018002, 0.021718, 0.031768,1,-0.454366, 0.022380, 9.796093,1,0
1778257243637,  2179.752,  2179.752, 0.123981, 0.036348,-0.777261, 0.000267,-0.000244,-0.009407, 0.760256, 0.373390, 2.173715,1,-0.031745, 0.015474, 0.036791,1,-0.456066, 0.015998, 9.796026,1,0
1778257243658,  2179.777,  2179.772, 0.048715,-0.041877,-1.137737, 0.001006, 0.000428,-0.009715,-1.071101,-0.471138,-1.861684,1,-0.101450,-0.024561, 0.040593,1,-0.454969, 0.011024, 9.796084,1,0
1778257243681,  2179.797,  2179.797, 0.183859, 0.058498,-0.983493, 0.001324,-0.000343,-0.011991, 1.345799, 0.582290, 0.151205,1,-0.036436, 0.012515, 0.031959,1,-0.457636, 0.007529, 9.795963,1,0
1778257243707,  2179.822,  2179.822, 0.006201,-0.064929,-1.227795, 0.000314,-0.000316,-0.009552,-0.393205,-0.626261,-2.244433,1,-0.017111,-0.004994, 0.039858,1,-0.453862, 0.009997, 9.796137,1,0
1778257243728,  2179.847,  2179.842, 0.077831, 0.152301,-0.794410, 0.000327, 0.000239,-0.010441, 0.159628, 0.531121, 2.778576,1, 0.010929,-0.036558, 0.034214,1,-0.447377, 0.010277, 9.796434,1,0
1778257243751,  2179.867,  2179.862, 0.009897, 0.080435,-1.084666, 0.001336, 0.000925,-0.010448,-0.177036,-0.106442,-2.198155,1,-0.047339, 0.024255, 0.020112,1,-0.448125, 0.009032, 9.796402,1,0
1778257243777,  2179.892,  2179.892, 0.032362, 0.005401,-0.895427, 0.000722, 0.000782,-0.008182,-0.133237, 0.060579, 1.015148,1, 0.051805,-0.007583, 0.023631,1,-0.450366, 0.009265, 9.796299,1,0
1778257243798,  2179.917,  2179.912, 0.018926,-0.049694,-1.252947, 0.000065,-0.000535,-0.011628,-0.028851, 0.256343,-0.967558,1,-0.054961,-0.041315, 0.035169,1,-0.445111,-0.000323, 9.796543,1,0
1778257243821,  2179.937,  2179.937, 0.089247, 0.075639,-0.834201, 0.001396, 0.000782,-0.008948, 0.425407, 0.736381, 1.615610,1, 0.042198, 0.040003, 0.028199,1,-0.451059,-0.004031, 9.796270,1,0
1778257243847,  2179.962,  2179.962, 0.084449, 0.093876,-0.565221, 0.001046,-0.000100,-0.008212, 0.376702, 0.917385, 4.253328,1,-0.033786,-0.061458, 0.023532,1,-0.449542,-0.004248, 9.796340,1,0
1778257243868,  2179.987,  2179.982, 0.106296,-0.061917,-1.194403, 0.000692, 0.000064,-0.011004,-0.119968, 0.245711,-3.447661,1, 0.027389,-0.003863, 0.002813,1,-0.449646,-0.006073, 9.796334,1,0
1778257243891,  2180.012,  2180.007, 0.107600, 0.009930,-0.787618, 0.000409,-0.000691,-0.009420, 0.603002, 0.092090, 2.072327,1, 0.016897, 0.036287, 0.002987,1,-0.453321,-0.004758, 9.796165,1,0
1778257243917,  2180.032,  2180.032, 0.085516,-0.009471,-1.090161, 0.001081,-0.000173,-0.010505, 0.378115,-0.093268,-0.895000,1,-0.005445, 0.039385,-0.014394,1,-0.461740,-0.000583, 9.795774,1,0
1778257243939,  2180.057,  2180.052, 0.158731,-0.035800,-0.718944, 0.001042,-0.000772,-0.009583, 0.373980, 0.272740, 1.077120,1, 0.085545, 0.054500,-0.031217,1,-0.471983, 0.002063, 9.795285,1,0
1778257243961,  2180.082,  2180.077, 0.078596,-0.094938,-1.067754, 0.000429,-0.000614,-0.009843, 0.292300,-0.921549,-0.676126,1, 0.010868,-0.001876,-0.039974,1,-0.478403, 0.009752, 9.794970,1,0
1778257243987,  2180.102,  2180.102,-0.055556,-0.098011,-1.103745,-0.000084,-0.000750,-0.010095,-1.020426,-0.944645,-1.028941,1, 0.024372,-0.015021,-0.049056,1,-0.475146, 0.017196, 9.795117,1,0
1778257244009,  2180.127,  2180.122,-0.056436,-0.053292,-1.112683,-0.000186,-0.000826,-0.011167,-0.966155, 0.713378, 1.590154,1, 0.034648,-0.043596,-0.051269,1,-0.468070, 0.027453, 9.795435,1,0
1778257244031,  2180.152,  2180.147,-0.001300,-0.059147,-1.241419, 0.000223, 0.000053,-0.011086,-0.470693,-0.535831,-2.378312,1, 0.041709,-0.024653,-0.080739,1,-0.457187, 0.045390, 9.795882,1,0
1778257244057,  2180.172,  2180.172, 0.151274, 0.023953,-0.761077, 0.000715,-0.000195,-0.009093, 1.027826, 0.296909, 2.332242,1, 0.068048, 0.014293,-0.077806,1,-0.455723, 0.064161, 9.795845,1,0
1778257244079,  2180.197,  2180.192,-0.014799,-0.128894,-1.410972,-0.000257,-0.000804,-0.011943,-0.113725,-0.548881,-0.647524,1, 0.058889,-0.056052,-0.081868,1,-0.450305, 0.076485, 9.796007,1,0
1778257244102,  2180.222,  2180.217, 0.052790,-0.002909,-0.663140, 0.000704,-0.000088,-0.008129, 0.058608, 0.063212, 3.292286,1, 0.092229, 0.042189,-0.087915,1,-0.460425, 0.094489, 9.795380,1,0
1778257244127,  2180.242,  2180.242, 0.011024,-0.059486,-0.823003, 0.000086,-0.001015,-0.007954,-0.348846,-0.477056, 1.724519,1, 0.011566,-0.075918,-0.079958,1,-0.454613, 0.106542, 9.795527,1,0
1778257244149,  2180.267,  2180.262, 0.081791,-0.096154,-1.165958, 0.000178,-0.000444,-0.011285,-0.714602,-0.567411,-2.947838,1, 0.079650,-0.003632,-0.095071,1,-0.446701, 0.116900, 9.795774,1,0
1778257244172,  2180.292,  2180.287, 0.005485, 0.017440,-0.854239, 0.000261,-0.000879,-0.010282,-0.393692, 0.301191, 1.418343,1, 0.012967,-0.042570,-0.054643,1,-0.446175, 0.130489, 9.795626,1,0
1778257244197,  2180.312,  2180.312,-0.011635,-0.102913,-1.252600, 0.000584,-0.000224,-0.010451,-0.559396,-0.869276,-2.488276,1, 0.079956, 0.009191,-0.061767,1,-0.445613, 0.142360, 9.795486,1,0
1778257244219,  2180.337,  2180.332, 0.146324, 0.052571,-1.083657, 0.000706, 0.000073,-0.012214, 1.069324, 0.692788, 1.042079,1, 0.036000, 0.044092,-0.065733,1,-0.450842, 0.149605, 9.795138,1,0
1778257244246,  2180.362,  2180.362, 0.053903,-0.105139,-1.215636, 0.000616,-0.000140,-0.009069, 0.065856,-0.872010,-2.126881,1, 0.021700, 0.049018,-0.026685,1,-0.464292, 0.159687, 9.794352,1,0
1778257244267,  2180.382,  2180.382, 0.097609,-0.003307,-0.878506, 0.000805,-0.000375,-0.010925, 0.492944, 0.126386, 1.179167,1, 0.067544, 0.064638,-0.041828,1,-0.466285, 0.160874, 9.794237,1,0
1778257244289,  2180.407,  2180.402,-0.037376,-0.091276,-1.187818, 0.000132,-0.000366,-0.009917,-0.460950, 0.002384, 1.630356,1,-0.014820,-0.041127,-0.015678,1,-0.471658, 0.161946, 9.793962,1,0
1778257244316,  2180.432,  2180.432, 0.113347,-0.004531,-0.873744, 0.000778, 0.000208,-0.008972, 0.637294, 0.115294, 1.225372,1, 0.044229, 0.034200, 0.005841,1,-0.475320, 0.161117, 9.793798,1,0
1778257244338,  2180.457,  2180.452,-0.043276,-0.103428,-1.270892, 0.000198,-0.000538,-0.010522, 0.380304, 0.673695, 0.021540,1,-0.067802,-0.020214,-0.003813,1,-0.474055, 0.155096, 9.793958,1,0
1778257244359,  2180.477,  2180.472, 0.000295,-0.056439,-0.832799, 0.000711,-0.000222,-0.008299,-1.041052,-0.011240,-2.096133,1,-0.014296,-0.006977, 0.014190,1,-0.470500, 0.155408, 9.794124,1,0
1778257244386,  2180.502,  2180.502, 0.083835, 0.032410,-1.124751, 0.000125,-0.000518,-0.012014, 0.353389, 0.471429,-1.235801,1,-0.085581,-0.010051,-0.008444,1,-0.468443, 0.150914, 9.794292,1,0
1778257244408,  2180.527,  2180.522, 0.087997, 0.001773,-0.780756, 0.000715, 0.000253,-0.007265, 0.176636,-0.793665,-2.299414,1,-0.013909, 0.033080, 0.004845,1,-0.475719, 0.148572, 9.793978,1,0
1778257244429,  2180.542,  2180.542, 0.053108, 0.003369,-0.642786, 0.000270,-0.000185,-0.007737, 0.047044, 0.180144, 3.490516,1, 0.002936,-0.012292, 0.006714,1,-0.473385, 0.147204, 9.794111,1,0
1778257244456,  2180.572,  2180.572,-0.034084,-0.080098,-1.223468, 0.000488,-0.000942,-0.011173,-0.811533,-0.639525,-2.204179,1,-0.048542,-0.011624,-0.015419,1,-0.477438, 0.144805, 9.793951,1,0
1778257244478,  2180.597,  2180.592, 0.116822, 0.061110,-0.651983, 0.000279,-0.000042,-0.009042, 0.361984, 0.409181, 1.844951,1, 0.041573, 0.027223,-0.004875,1,-0.483585, 0.149447, 9.793579,1,0
1778257244499,  2180.617,  2180.612,-0.042513,-0.026726,-1.235693,-0.000212,-0.000075,-0.011291, 0.182509, 0.060091, 0.262093,1, 0.030858,-0.007321,-0.031676,1,-0.481730, 0.153784, 9.793604,1,0
1778257244526,  2180.642,  2180.642, 0.051521,-0.025496,-0.892468, 0.000504, 0.000404,-0.007855, 0.022893,-0.084841, 1.041267,1, 0.103422, 0.080321,-0.027887,1,-0.484873, 0.168367, 9.793209,1,0
1778257244548,  2180.667,  2180.662,-0.003972, 0.032640,-1.067620, 0.000049,-0.000439,-0.011391, 0.213868, 0.777473, 3.286244,1, 0.031274,-0.045207,-0.024727,1,-0.483197, 0.175856, 9.793159,1,0
1778257244569,  2180.687,  2180.682, 0.022755,-0.057345,-1.197031, 0.000586, 0.000335,-0.009981,-0.273917,-0.533176,-3.023765,1, 0.077519, 0.034449,-0.017496,1,-0.487903, 0.188533, 9.792690,1,0
1778257244596,  2180.712,  2180.712, 0.073765, 0.057945,-0.797378,-0.000062,-0.000424,-0.009770, 0.239490, 0.771486, 1.972983,1, 0.062299,-0.017059,-0.006063,1,-0.483373, 0.205168, 9.792581,1,0
1778257244618,  2180.737,  2180.732, 0.032300,-0.072133,-1.089352, 0.000896,-0.000214,-0.009276,-0.594319, 0.092294,-1.925103,1, 0.048403, 0.006356,-0.005067,1,-0.484251, 0.216062, 9.792303,1,0
1778257244639,  2180.757,  2180.752, 0.080585, 0.106135,-0.718924, 0.000336, 0.000612,-0.009277,-0.125564, 0.692106, 1.413745,1, 0.077762, 0.003956, 0.028978,1,-0.489066, 0.230418, 9.791737,1,0
1778257244666,  2180.782,  2180.782,-0.067403,-0.044037,-1.392065,-0.000593, 0.000223,-0.012604,-1.137545,-0.196503,-3.859262,1,-0.010662,-0.039134, 0.040990,1,-0.475269, 0.235067, 9.792306,1,0
1778257244688,  2180.807,  2180.802, 0.073315, 0.160163,-0.426194, 0.000837, 0.001138,-0.006280,-0.002417, 0.217688, 0.284066,1, 0.109940, 0.088999, 0.053104,1,-0.481244, 0.243893, 9.791798,1,0
1778257244710,  2180.827,  2180.822,-0.058868, 0.023120,-1.139959,-0.000288,-0.000582,-0.011477,-0.377560, 1.240209, 4.816482,1,-0.008510,-0.081805, 0.064437,1,-0.472784, 0.244992, 9.792183,1,0
1778257244736,  2180.852,  2180.852, 0.100767, 0.058657,-1.252766, 0.001650, 0.000821,-0.011792, 0.516388, 0.819069,-2.493179,1,-0.006418, 0.068076, 0.049430,1,-0.473882, 0.243711, 9.792161,1,0
1778257244758,  2180.877,  2180.872, 0.035589, 0.019499,-1.027753, 0.000163,-0.000775,-0.011457, 0.372933, 0.739258, 5.499713,1, 0.045077,-0.018473, 0.065537,1,-0.474857, 0.249757, 9.791962,1,0
1778257244781,  2180.897,  2180.897, 0.100192,-0.019028,-1.261718, 0.001462, 0.000206,-0.011270, 0.495310, 0.064206,-2.581907,1, 0.065057, 0.115845, 0.071219,1,-0.490794, 0.252944, 9.791094,1,0
1778257244807,  2180.922,  2180.922, 0.109184, 0.105594,-0.484701, 0.000790,-0.000099,-0.007645, 0.571438, 1.290928, 5.037308,1,-0.016487, 0.004307, 0.077428,1,-0.499364, 0.255014, 9.790607,1,0
1778257244828,  2180.947,  2180.942,-0.071656,-0.097365,-1.231895,-0.000253,-0.000254,-0.010423,-0.924093, 0.319749,-1.507153,1,-0.054918,-0.052720, 0.064755,1,-0.493771, 0.255506, 9.790878,1,0
1778257244851,  2180.967,  2180.967, 0.084393, 0.038437,-0.816792, 0.000396, 0.000402,-0.009699, 0.334886, 0.634698, 1.780881,1, 0.055298, 0.031322, 0.064333,1,-0.493109, 0.259538, 9.790805,1,0
1778257244877,  2180.992,  2180.992,-0.108597, 0.015812,-0.881125,-0.000480,-0.000436,-0.009486,-1.552297, 0.414129, 1.150226,1,-0.022437,-0.067133, 0.076354,1,-0.485170, 0.258489, 9.791229,1,0
1778257244898,  2181.017,  2181.012, 0.208187, 0.094205,-0.892561, 0.001296, 0.000612,-0.010275, 0.325538, 0.225504,-2.079531,1, 0.051251, 0.040855, 0.041182,1,-0.487008, 0.259368, 9.791115,1,0
1778257244921,  2181.037,  2181.037, 0.073415,-0.011572,-0.969623, 0.000427,-0.000374,-0.010442, 0.225244, 0.144577, 0.282010,1,-0.026655, 0.002058, 0.077461,1,-0.494712, 0.257355, 9.790782,1,0
1778257244947,  2181.062,  2181.062, 0.115622,-0.069266,-1.303015, 0.001222,-0.000112,-0.010574, 0.630714,-0.421981,-2.987860,1, 0.014020, 0.092053, 0.065444,1,-0.505969, 0.257824, 9.790195,1,0
1778257244968,  2181.087,  2181.082, 0.027907, 0.073125,-0.645932, 0.000098,-0.000577,-0.008848, 0.444728, 0.907895, 4.837657,1, 0.000036,-0.002651, 0.087284,1,-0.509060, 0.252429, 9.790174,1,0
1778257244991,  2181.107,  2181.107,-0.075544,-0.130489,-1.286692,-0.000108,-0.000419,-0.010945,-1.238113,-1.033496,-2.827198,1, 0.048235,-0.013195, 0.045182,1,-0.496836, 0.247737, 9.790922,1,0
1778257245017,  2181.132,  2181.132, 0.179304, 0.067095,-0.788207, 0.000949, 0.000323,-0.009196, 1.253491, 0.904366, 2.060869,1, 0.021268, 0.058416, 0.032912,1,-0.506676, 0.247100, 9.790435,1,0
1778257245038,  2181.157,  2181.152, 0.010854,-0.104180,-1.099804, 0.000738,-0.000482,-0.009815,-0.083892, 0.167723, 1.463927,1,-0.066961,-0.047035, 0.038309,1,-0.504841, 0.245216, 9.790577,1,0
1778257245061,  2181.177,  2181.177, 0.082069, 0.042689,-1.092560, 0.001354, 0.000390,-0.011851, 0.299047, 0.663340,-0.923815,1, 0.005971, 0.022395, 0.003895,1,-0.506489, 0.244884, 9.790500,1,0
1778257245087,  2181.202,  2181.202, 0.138924,-0.024737,-0.968769, 0.001230, 0.000104,-0.009781, 0.846030, 0.004869, 0.289536,1, 0.032052, 0.001337, 0.026186,1,-0.516368, 0.248502, 9.789892,1,0
1778257245108,  2181.227,  2181.222,-0.007367, 0.044754,-1.063610, 0.000362, 0.000320,-0.010397,-0.200625,-1.194941,-1.031255,1, 0.085337, 0.011029, 0.024690,1,-0.514386, 0.253704, 9.789864,1,0
1778257245131,  2181.252,  2181.247, 0.047207, 0.038240,-0.817088, 0.000517, 0.000337,-0.009923,-0.052833, 0.622663, 1.777050,1, 0.017701,-0.023199, 0.033822,1,-0.515028, 0.248260, 9.789969,1,0
1778257245157,  2181.272,  2181.272, 0.003439,-0.146704,-1.000285, 0.000400, 0.000047,-0.007183,-0.480546,-1.189232,-0.019470,1, 0.093721, 0.022202, 0.032099,1,-0.514940, 0.252411, 9.789867,1,0
1778257245179,  2181.297,  2181.292, 0.098608, 0.050480,-0.999778, 0.000225, 0.000201,-0.010839, 0.853911, 0.584928, 1.419698,1, 0.009733,-0.005005, 0.012805,1,-0.513953, 0.248702, 9.790014,1,0
1778257245201,  2181.322,  2181.317, 0.023806,-0.045372,-1.143637, 0.000474,-0.000043,-0.009947,-0.278258,-0.202129,-1.424974,1,-0.021972, 0.010365, 0.030940,1,-0.512017, 0.242187, 9.790279,1,0
1778257245227,  2181.342,  2181.342, 0.016887,-0.017655,-0.769607, 0.000672, 0.000009,-0.008746,-0.346167, 0.065212, 2.243119,1, 0.010530,-0.000802, 0.042473,1,-0.511713, 0.238741, 9.790380,1,0
1778257245249,  2181.367,  2181.362,-0.011988,-0.111552,-1.120844,-0.000035,-0.000802,-0.009268, 0.710417, 1.186451, 2.051198,1,-0.064216,-0.033116, 0.039119,1,-0.513914, 0.234485, 9.790367,1,0
1778257245271,  2181.392,  2181.387, 0.031477,-0.006532,-1.111210, 0.000338,-0.000004,-0.010234,-0.200151, 0.162248,-1.106424,1,-0.068407, 0.001161, 0.084886,1,-0.508809, 0.224309, 9.790873,1,0
1778257245297,  2181.412,  2181.412, 0.099011, 0.021489,-0.919478, 0.000365, 0.000353,-0.011361, 0.456214, 0.428577, 0.773712,1,-0.040178, 0.023738, 0.083387,1,-0.515438, 0.216725, 9.790696,1,0
1778257245319,  2181.437,  2181.432,-0.030595,-0.062826,-1.154666, 0.000278, 0.000302,-0.009540,-0.682590,-0.237266, 0.740184,1,-0.068435,-0.000517, 0.087017,1,-0.514949, 0.212549, 9.790813,1,0
1778257245342,  2181.462,  2181.457, 0.048076, 0.084859,-0.899465, 0.000139,-0.000015,-0.011308,-0.041386, 1.028978, 0.970517,1,-0.110512,-0.030032, 0.070210,1,-0.511871, 0.193468, 9.791370,1,0
1778257245367,  2181.482,  2181.482, 0.037110,-0.048553,-1.422561, 0.000255, 0.000107,-0.012396,-0.155651,-0.287038,-4.159513,1,-0.040003, 0.075740, 0.066570,1,-0.521899, 0.187967, 9.790949,1,0
1778257245389,  2181.507,  2181.502, 0.064022, 0.179744,-0.683576, 0.000495, 0.000371,-0.009116,-0.539482, 0.257896, 5.251118,1, 0.022552, 0.021886, 0.088202,1,-0.524063, 0.185153, 9.790887,1,0
1778257245412,  2181.532,  2181.527,-0.099430,-0.063757,-1.479522,-0.000579,-0.000401,-0.013648,-1.489669,-0.452014,-4.717547,1,-0.023585, 0.018520, 0.062214,1,-0.515134, 0.172599, 9.791590,1,0
1778257245437,  2181.552,  2181.552, 0.101013, 0.041838,-0.764481, 0.001081, 0.000894,-0.007620, 0.468530, 0.581499, 2.294250,1, 0.008680, 0.034469, 0.089456,1,-0.523095, 0.171630, 9.791184,1,0
1778257245459,  2181.577,  2181.572, 0.062196, 0.009869,-1.254980, 0.000390, 0.000245,-0.013356, 1.177096, 0.628828,-0.752523,1,-0.079950, 0.006967, 0.067148,1,-0.522866, 0.167948, 9.791261,1,0
1778257245486,  2181.602,  2181.602, 0.061548, 0.023476,-0.784634, 0.001172, 0.000655,-0.006931, 0.061736, 0.399118, 2.095583,1, 0.049309, 0.076443, 0.091419,1,-0.544178, 0.170588, 9.790054,1,0
1778257245507,  2181.622,  2181.622, 0.045412, 0.140421,-0.687875, 0.000491,-0.000061,-0.009903,-0.100099, 1.543551, 3.044308,1,-0.028325,-0.004390, 0.082503,1,-0.545260, 0.165752, 9.790076,1,0
1778257245529,  2181.647,  2181.642, 0.022083,-0.013689,-1.280793, 0.000900, 0.000578,-0.010568,-0.862945,-0.621186,-3.889322,1,-0.001430, 0.053747, 0.068059,1,-0.553547, 0.162765, 9.789661,1,0
1778257245556,  2181.672,  2181.672, 0.035141, 0.050061,-0.764114,-0.000389, 0.000532,-0.008347,-0.211250, 0.649201, 2.296205,1, 0.014667,-0.021667, 0.080713,1,-0.555151, 0.158865, 9.789635,1,0
1778257245578,  2181.697,  2181.692,-0.014331, 0.022741,-1.126352, 0.000911, 0.000539,-0.010256,-0.479448,-0.400718,-1.092851,1,-0.028600, 0.005971, 0.066172,1,-0.551982, 0.155546, 9.789867,1,0
1778257245599,  2181.717,  2181.712, 0.103134, 0.033086,-0.885137, 0.000565, 0.000276,-0.009900, 0.352403, 0.419410, 0.311795,1,-0.027931, 0.014156, 0.078738,1,-0.553539, 0.151955, 9.789836,1,0
1778257245626,  2181.742,  2181.742, 0.087682,-0.027566,-1.199133, 0.000707,-0.000241,-0.012562, 0.306604,-0.130157,-1.969448,1,-0.030120, 0.040259, 0.067156,1,-0.554484, 0.139348, 9.789970,1,0
1778257245648,  2181.767,  2181.762, 0.065184,-0.019201,-0.607893, 0.000596, 0.000247,-0.006006, 0.141762, 0.021364, 0.518018,1, 0.008691, 0.058701, 0.055458,1,-0.569754, 0.136189, 9.789138,1,0
1778257245669,  2181.787,  2181.782,-0.002125, 0.050180,-0.941853,-0.000001,-0.000376,-0.011008,-0.006246, 1.381906, 3.843104,1,-0.065403,-0.044369, 0.053966,1,-0.566621, 0.123467, 9.789488,1,0
1778257245696,  2181.812,  2181.812,-0.016744,-0.092299,-1.198337, 0.000527, 0.000153,-0.009982,-0.723825,-0.796145,-1.961610,1,-0.036538,-0.017338, 0.036625,1,-0.559073, 0.107925, 9.790106,1,0
1778257245718,  2181.837,  2181.832, 0.089034,-0.008355,-0.740782, 0.000303,-0.001155,-0.009416, 0.734756, 0.603943, 1.978253,1,-0.029780,-0.017922, 0.033575,1,-0.555626, 0.094657, 9.790440,1,0
1778257245739,  2181.857,  2181.852,-0.007765,-0.116952,-1.105283, 0.000326,-0.000330,-0.009012, 0.036433,-0.207443,-0.898991,1,-0.085653,-0.032692, 0.024774,1,-0.549761, 0.085111, 9.790858,1,0
1778257245766,  2181.882,  2181.882, 0.156149, 0.073357,-0.769543, 0.001329, 0.000252,-0.010344, 0.989441, 0.786658, 2.244802,1,-0.051998,-0.018874, 0.011569,1,-0.541267, 0.065667, 9.791481,1,0
1778257245788,  2181.907,  2181.902, 0.117150,-0.165578,-1.331457, 0.000985,-0.000756,-0.010888,-0.459838,-1.004267, 0.252767,1,-0.092250,-0.044460, 0.008999,1,-0.534373, 0.051621, 9.791944,1,0
1778257245809,  2181.927,  2181.922, 0.152460, 0.117362,-1.052230, 0.000824, 0.000696,-0.012009,-0.157440,-1.170860,-2.195975,1,-0.041265, 0.035252,-0.000403,1,-0.534033, 0.036663, 9.792029,1,0
1778257245836,  2181.952,  2181.952,-0.065085,-0.024903,-0.881776,-0.000162,-0.000932,-0.008913,-1.169484,-0.235742, 1.144978,1,-0.109289,-0.031359,-0.013151,1,-0.530238, 0.005040, 9.792303,1,0
1778257245858,  2181.977,  2181.972, 0.096946,-0.033178,-0.861174, 0.000780,-0.000055,-0.008580,-0.504184,-0.752386, 0.471942,1,-0.026788,-0.009727,-0.026455,1,-0.525773,-0.009665, 9.792541,1,0
1778257245879,  2181.997,  2181.992, 0.078772,-0.018526,-1.109639, 0.000145,-0.000567,-0.011587, 0.692208,-0.209969, 0.525374,1,-0.089243,-0.037594,-0.043814,1,-0.520780,-0.033139, 9.792756,1,0
1778257245906,  2182.022,  2182.022, 0.022819,-0.118428,-1.158825, 0.000241,-0.000053,-0.009137,-0.296429,-1.215678,-1.571502,1,-0.046916, 0.005721,-0.021331,1,-0.520385,-0.055793, 9.792674,1,0
1778257245928,  2182.047,  2182.042, 0.082257, 0.032851,-0.867953, 0.000505,-0.000744,-0.010409, 0.229404, 0.381156, 1.513621,1,-0.085681,-0.006774,-0.048907,1,-0.519801,-0.076848, 9.792562,1,0
1778257245950,  2182.067,  2182.062, 0.067633,-0.133515,-1.173317, 0.000930,-0.000477,-0.009729,-0.202137,-1.068105,-0.832516,1,-0.047994, 0.005157,-0.067818,1,-0.518764,-0.088328, 9.792521,1,0
1778257245977,  2182.092,  2182.092, 0.164404, 0.026136,-0.702709, 0.001109, 0.000103,-0.007935, 1.085618, 0.148899, 2.900688,1,-0.087671,-0.005541,-0.074984,1,-0.526438,-0.110261, 9.791889,1,0
1778257245998,  2182.117,  2182.112, 0.031850,-0.099866,-1.135078, 0.001039,-0.000442,-0.010583,-0.381600,-0.171930,-1.533966,1,-0.081777, 0.032143,-0.099390,1,-0.529002,-0.125871, 9.791563,1,0
1778257246021,  2182.137,  2182.137,-0.016452,-0.057016,-0.696980,-0.000153,-0.000500,-0.007287,-0.690791,-0.699859, 2.956299,1, 0.002034,-0.008089,-0.086224,1,-0.529161,-0.140810, 9.791350,1,0
1778257246047,  2182.162,  2182.162,-0.015994,-0.150937,-1.429742,-0.000399,-0.001576,-0.014114,-0.683100,-1.635649,-4.229692,1,-0.104550, 0.009397,-0.109055,1,-0.526492,-0.158906, 9.791218,1,0
1778257246068,  2182.187,  2182.182, 0.031195, 0.022917,-0.652540, 0.000385, 0.000410,-0.006485, 0.330599,-0.809936,-0.043141,1,-0.028267, 0.059642,-0.071966,1,-0.535686,-0.163664, 9.790641,1,0
1778257246091,  2182.207,  2182.207,-0.020333, 0.011652,-1.132418, 0.000186,-0.000724,-0.012459,-0.735468,-0.069779,-1.314973,1,-0.160245,-0.017987,-0.083004,1,-0.535464,-0.189186, 9.790193,1,0
1778257246117,  2182.232,  2182.232, 0.042155,-0.029010,-1.028219, 0.000598, 0.000840,-0.008904,-0.127297,-0.478557,-0.293578,1,-0.027763, 0.040200,-0.095582,1,-0.541888,-0.195100, 9.789723,1,0
1778257246138,  2182.252,  2182.252, 0.059490, 0.008501,-0.814196, 0.000447,-0.000169,-0.009551, 0.039097,-0.121497, 1.804855,1,-0.072263,-0.009818,-0.073159,1,-0.543944,-0.207237, 9.789360,1,0
1778257246161,  2182.277,  2182.277, 0.046494,-0.042992,-1.235242, 0.000776,-0.000411,-0.011590,-0.096142,-0.644921,-2.325041,1,-0.032928, 0.092572,-0.119890,1,-0.554892,-0.224547, 9.788363,1,0
1778257246187,  2182.302,  2182.302,-0.005270, 0.074587,-0.549432, 0.000692, 0.000336,-0.006835,-0.612528, 0.503236, 4.399854,1,-0.005165, 0.022424,-0.093252,1,-0.561478,-0.228536, 9.787895,1,0
1778257246208,  2182.327,  2182.322, 0.067437,-0.071622,-1.321713, 0.000722,-0.000384,-0.011415,-0.157526,-1.175426,-1.070772,1,-0.047203, 0.007581,-0.096073,1,-0.560109,-0.234574, 9.787831,1,0
1778257246231,  2182.347,  2182.347, 0.084208, 0.040194,-0.745290, 0.000545, 0.000216,-0.008965, 0.259038, 0.154657, 2.478528,1, 0.050889, 0.001908,-0.106563,1,-0.566740,-0.238117, 9.787364,1,0
1778257246257,  2182.372,  2182.372,-0.031342,-0.009479,-1.058794,-0.000429,-0.000331,-0.010526,-0.868309,-0.330896,-0.595524,1,-0.038946,-0.047165,-0.106709,1,-0.559045,-0.239241, 9.787779,1,0
1778257246278,  2182.397,  2182.392, 0.044250, 0.021852,-0.896395, 0.000814,-0.000011,-0.009931,-1.356052,-0.826534,-0.551957,1, 0.079026, 0.000010,-0.111801,1,-0.556903,-0.232366, 9.788067,1,0
1778257246301,  2182.417,  2182.417, 0.096744, 0.014838,-0.976760, 0.000600, 0.000159,-0.010333, 0.394974,-0.085813, 0.209530,1,-0.007031,-0.017838,-0.115556,1,-0.553120,-0.231746, 9.788296,1,0
1778257246327,  2182.442,  2182.442, 0.003804,-0.051583,-1.383698, 0.000237, 0.000225,-0.011720,-0.515605,-0.734357,-3.781057,1, 0.027023, 0.040970,-0.131962,1,-0.554094,-0.227895, 9.788331,1,0
1778257246348,  2182.467,  2182.462, 0.060971, 0.067951,-0.735065, 0.000723,-0.000825,-0.009537, 0.835383, 0.388980, 3.086805,1, 0.055686, 0.076892,-0.120857,1,-0.570678,-0.222613, 9.787500,1,0
1778257246371,  2182.492,  2182.487, 0.002268,-0.070697,-1.329453, 0.000181,-0.000082,-0.012012,-0.560199,-0.906892,-3.250472,1, 0.075725, 0.116683,-0.100025,1,-0.586012,-0.211412, 9.786842,1,0
1778257246397,  2182.512,  2182.512, 0.099113,-0.040986,-0.691151, 0.000825,-0.000317,-0.007932, 0.368469,-0.609938, 3.007972,1, 0.092697, 0.060789,-0.103001,1,-0.605327,-0.205312, 9.785796,1,0
1778257246419,  2182.537,  2182.532,-0.030589,-0.024614,-1.164004,-0.000255,-0.000377,-0.010402,-1.089914,-0.353732, 2.863897,1, 0.004526,-0.067331,-0.085882,1,-0.598707,-0.201621, 9.786281,1,0
1778257246441,  2182.562,  2182.557, 0.006997, 0.044257,-0.802350, 0.000645, 0.000493,-0.010050,-0.538691, 0.236193, 1.917458,1, 0.085476, 0.012805,-0.120048,1,-0.607635,-0.195389, 9.785856,1,0
1778257246467,  2182.582,  2182.582, 0.067277, 0.008401,-0.943399, 0.000182,-0.000383,-0.009892, 0.052092,-0.108460, 0.534357,1,-0.018530,-0.016924,-0.092565,1,-0.607080,-0.191599, 9.785966,1,0
1778257246489,  2182.607,  2182.602, 0.146732,-0.013638,-0.903705, 0.001160,-0.000088,-0.009933,-0.647068,-1.027168,-1.697772,1, 0.052263, 0.026628,-0.109709,1,-0.609755,-0.184336, 9.785939,1,0
1778257246511,  2182.632,  2182.627, 0.146648, 0.100358,-0.788731, 0.001180, 0.000194,-0.009824, 0.822089, 0.800845, 2.050752,1,-0.093522,-0.060815,-0.070756,1,-0.614099,-0.186380, 9.785628,1,0
1778257246537,  2182.652,  2182.652,-0.066874,-0.042274,-1.180604,-0.000064, 0.000327,-0.010496,-1.261442,-0.595894,-1.791524,1, 0.017810,-0.030919,-0.049263,1,-0.604638,-0.180871, 9.786322,1,0
1778257246559,  2182.677,  2182.672,-0.137042,-0.002695,-0.994724,-0.001476,-0.000144,-0.009833,-0.378726, 0.625646,-0.271816,1,-0.032149,-0.068022,-0.074039,1,-0.596935,-0.190943, 9.786603,1,0
1778257246582,  2182.702,  2182.697,-0.021840,-0.097638,-1.260069, 0.000115,-0.000277,-0.010933,-0.788813,-1.161134,-2.569371,1,-0.005247, 0.004157,-0.046894,1,-0.574731,-0.203883, 9.787671,1,0
1778257246607,  2182.722,  2182.722, 0.046771, 0.122549,-0.297075, 0.000962, 0.000307,-0.006413,-0.111846, 0.988140, 6.874393,1,-0.045978,-0.071376,-0.057106,1,-0.568251,-0.215189, 9.787807,1,0
1778257246629,  2182.747,  2182.742, 0.062841,-0.108392,-1.296726, 0.000795,-0.000155,-0.011097,-0.075965,-0.399971,-1.855771,1,-0.103467,-0.074945,-0.056119,1,-0.558776,-0.225748, 9.788115,1,0
1778257246652,  2182.772,  2182.767, 0.119141, 0.057775,-0.832459, 0.000715,-0.000130,-0.009881, 0.612514, 0.324210, 1.624249,1,-0.059479,-0.023834,-0.065419,1,-0.555006,-0.244183, 9.787887,1,0
1778257246677,  2182.792,  2182.792,-0.041371,-0.058959,-1.308261, 0.000400,-0.000740,-0.012703,-0.966946,-0.829906,-3.042322,1,-0.058713, 0.048894,-0.053255,1,-0.562717,-0.253638, 9.787206,1,0
1778257246699,  2182.817,  2182.812, 0.029380, 0.099240,-0.510961, 0.000299, 0.000531,-0.006970, 0.468345,-0.842364, 3.667994,1, 0.004288, 0.015427,-0.025914,1,-0.569448,-0.257566, 9.786715,1,0
1778257246726,  2182.842,  2182.842,-0.019458,-0.088235,-1.339871, 0.000068,-0.000394,-0.011316,-0.758797,-1.140676,-3.353337,1,-0.081015, 0.032986,-0.058567,1,-0.568956,-0.278015, 9.786183,1,0
1778257246747,  2182.862,  2182.862, 0.023647,-0.113875,-1.028400,-0.000417,-0.001225,-0.009234,-0.332470,-1.405574,-0.299023,1,-0.054447, 0.029914,-0.075579,1,-0.565228,-0.290677, 9.786032,1,0
1778257246769,  2182.887,  2182.882,-0.019065,-0.032050,-1.162954, 0.000237,-0.000835,-0.011000,-1.617980,-0.246337, 0.297899,1,-0.102741,-0.027140,-0.066732,1,-0.562801,-0.302770, 9.785805,1,0
1778257246796,  2182.912,  2182.912, 0.001911, 0.012282,-1.062279,-0.000396, 0.000509,-0.010498,-0.531616,-0.194332,-0.631267,1, 0.024092,-0.028984,-0.119145,1,-0.549338,-0.314235, 9.786208,1,0
1778257246818,  2182.937,  2182.932, 0.021007,-0.214340,-1.148032, 0.000616,-0.001468,-0.009260,-0.521490, 0.246779, 1.538905,1,-0.037149,-0.029931,-0.104686,1,-0.549185,-0.320713, 9.786007,1,0
1778257246839,  2182.957,  2182.952, 0.143436,-0.045628,-1.195047, 0.001200,-0.000481,-0.012037, 0.045898,-1.323115,-2.532909,1, 0.007243, 0.006745,-0.098768,1,-0.550595,-0.322868, 9.785856,1,0
1778257246866,  2182.982,  2182.982, 0.014423, 0.024804,-0.825069, 0.000314, 0.000409,-0.008607,-0.427170,-0.081717, 1.693589,1,-0.036547,-0.015397,-0.068746,1,-0.568059,-0.326220, 9.784747,1,0
1778257246888,  2183.007,  2183.002, 0.029282, 0.083882,-0.979384, 0.000275, 0.000489,-0.011540,-0.549329,-1.158599,-1.328647,1, 0.061827, 0.021620,-0.098417,1,-0.563259,-0.322251, 9.785156,1,0
1778257246909,  2183.027,  2183.022, 0.133736,-0.101937,-1.217912, 0.000483,-0.000798,-0.010507, 0.093726,-0.047499, 0.966809,1,-0.022260, 0.015929,-0.096731,1,-0.566199,-0.326736, 9.784838,1,0
1778257246936,  2183.052,  2183.052, 0.056724,-0.006714,-0.383522, 0.001026, 0.000427,-0.004096,-0.020052,-0.384614, 6.023440,1, 0.118225,-0.001308,-0.120661,1,-0.576160,-0.315310, 9.784631,1,0
1778257246958,  2183.077,  2183.072,-0.009874,-0.056284,-1.330598, 0.000859,-0.001148,-0.013276,-1.510653, 0.275181,-2.289545,1,-0.021718,-0.012603,-0.125247,1,-0.565908,-0.318541, 9.785125,1,0
1778257246979,  2183.097,  2183.092, 0.052073,-0.030028,-1.120169,-0.000007,-0.000234,-0.011048, 0.954172,-1.114387,-2.409557,1, 0.080988, 0.036814,-0.152708,1,-0.571463,-0.304875, 9.785237,1,0
1778257247006,  2183.122,  2183.122, 0.063770,-0.101198,-0.782099, 0.000542,-0.000963,-0.008059, 1.348207,-0.137928, 0.758593,1, 0.071756, 0.050478,-0.113611,1,-0.586288,-0.292738, 9.784731,1,0
1778257247028,  2183.147,  2183.142, 0.094339, 0.103302,-1.073495, 0.000502, 0.001353,-0.011256, 0.451369,-1.702315,-3.975723,1, 0.135012, 0.069040,-0.122379,1,-0.596100,-0.261750, 9.785016,1,0
1778257247049,  2183.167,  2183.162,-0.042418,-0.031097,-0.866014,-0.000516,-0.000833,-0.008824,-0.337898, 1.085494, 2.887564,1, 0.053342,-0.059286,-0.113240,1,-0.592069,-0.253011, 9.785491,1,0
1778257247076,  2183.192,  2183.192, 0.067631,-0.042904,-1.156936, 0.000556, 0.000349,-0.009878, 0.080658,-0.648543,-1.558992,1, 0.097598, 0.008056,-0.115016,1,-0.582741,-0.224967, 9.786736,1,0
1778257247098,  2183.217,  2183.212,-0.049581, 0.090084,-1.096099,-0.000122,-0.000053,-0.012591,-1.015387,-0.041901, 0.050857,1, 0.112526,-0.022125,-0.099125,1,-0.574707,-0.212147, 9.787497,1,0
1778257247119,  2183.237,  2183.232, 0.175361,-0.036471,-0.837382, 0.000722, 0.000489,-0.006701,-0.497951,-1.251109, 0.459825,1, 0.099481,-0.061931,-0.082047,1,-0.567041,-0.196067, 9.788279,1,0
1778257247146,  2183.262,  2183.262, 0.112887, 0.082159,-1.249278, 0.000750,-0.000082,-0.012968, 0.540061, 0.630748,-2.462549,1, 0.027927, 0.061779,-0.085989,1,-0.568854,-0.174239, 9.788587,1,0
1778257247168,  2183.287,  2183.282, 0.099503, 0.095821,-0.633877, 0.000694, 0.000731,-0.006701, 0.426763,-0.209353, 3.474898,1, 0.111067,-0.000121,-0.044623,1,-0.572480,-0.154847, 9.788701,1,0
1778257247190,  2183.307,  2183.302,-0.120147, 0.048919,-1.444187,-0.000704,-0.000208,-0.013998,-0.863464, 0.368065, 0.149123,1,-0.004705,-0.088092, 0.018100,1,-0.563297,-0.148378, 9.789334,1,0
1778257247217,  2183.332,  2183.332, 0.149617, 0.084833,-1.125439, 0.001076, 0.001112,-0.010855, 0.902755, 0.694650,-1.247363,1, 0.028019, 0.051092, 0.006334,1,-0.566076,-0.136390, 9.789349,1,0
1778257247238,  2183.357,  2183.352,-0.005642, 0.082677,-0.884850, 0.000492, 0.000256,-0.009118,-0.750198, 1.308544, 6.010715,1,-0.024550,-0.050998, 0.064184,1,-0.559968,-0.133922, 9.789734,1,0
1778257247261,  2183.377,  2183.377, 0.123378, 0.053210,-1.417763, 0.000881, 0.001517,-0.012887, 0.647881, 0.371153,-4.114135,1,-0.063999, 0.059999, 0.040074,1,-0.563915,-0.152595, 9.789234,1,0
1778257247287,  2183.402,  2183.402,-0.030067, 0.157826,-0.744224, 0.000017, 0.000832,-0.009508,-0.865342, 1.383633, 2.490324,1,-0.101354, 0.026424, 0.083458,1,-0.571352,-0.167121, 9.788566,1,0
1778257247308,  2183.427,  2183.422,-0.006529, 0.030441,-1.025609,-0.000135, 0.000582,-0.010029,-0.241187, 0.075404,-0.433701,1,-0.119437,-0.012611, 0.102511,1,-0.572490,-0.181337, 9.788246,1,0
1778257247331,  2183.447,  2183.447,-0.035912, 0.063756,-1.001658,-0.000221, 0.000503,-0.009695,-0.926741, 0.417323,-0.035315,1,-0.133197,-0.027679, 0.103484,1,-0.573766,-0.211871, 9.787558,1,0
1778257247357,  2183.472,  2183.472,-0.030910, 0.026664,-0.953881,-0.000057, 0.001148,-0.008943,-0.872159, 0.029396, 0.432995,1,-0.086617,-0.010358, 0.133573,1,-0.568809,-0.234547, 9.787330,1,0
1778257247378,  2183.497,  2183.492,-0.000025,-0.032221,-1.079034, 0.000433,-0.000471,-0.009395,-0.666319, 0.582366, 1.483556,1,-0.146499,-0.027647, 0.110055,1,-0.570565,-0.260370, 9.786575,1,0
1778257247401,  2183.517,  2183.517, 0.060450, 0.060468,-1.061476,-0.000022, 0.000589,-0.010540, 0.032930, 0.295667,-0.623385,1,-0.117228, 0.018474, 0.077516,1,-0.560535,-0.300835, 9.785995,1,0
1778257247427,  2183.542,  2183.542,-0.032988, 0.041906,-1.033130, 0.000508,-0.000413,-0.011216,-0.933749, 1.227454, 1.629560,1,-0.167651,-0.002207, 0.083682,1,-0.560978,-0.315193, 9.785517,1,0
1778257247448,  2183.567,  2183.562, 0.004097, 0.053875,-0.784804,-0.000468, 0.000201,-0.008584, 0.143059,-0.413176, 2.205719,1,-0.116025,-0.014296, 0.053924,1,-0.561031,-0.356964, 9.784080,1,0
1778257247471,  2183.587,  2183.587,-0.058566,-0.070310,-1.186539,-0.000141, 0.000245,-0.010853,-1.121220,-1.084487,-1.852559,1,-0.058292,-0.028437,-0.003042,1,-0.545991,-0.396802, 9.783396,1,0
1778257247497,  2183.612,  2183.612, 0.019621, 0.043917,-0.920862, 0.000071,-0.000416,-0.010744,-0.349935, 0.012294, 0.752129,1,-0.161691,-0.041324,-0.010272,1,-0.541054,-0.423434, 9.782554,1,0
1778257247518,  2183.637,  2183.632, 0.023134,-0.038861,-0.983085,-0.000143, 0.000162,-0.009554,-0.184859,-1.557181,-2.336761,1,-0.038922,-0.009472,-0.047378,1,-0.538607,-0.436323, 9.782122,1,0
1778257247541,  2183.657,  2183.657,-0.025148, 0.018446,-0.696284, 0.000206,-0.000905,-0.008605,-0.784781,-0.270518, 2.953249,1,-0.071516,-0.040758,-0.092557,1,-0.536765,-0.453796, 9.781428,1,0
1778257247567,  2183.682,  2183.682,-0.007598,-0.200317,-1.444143,-0.000235,-0.000638,-0.011834,-0.607645,-2.423471,-4.380822,1, 0.020181, 0.036042,-0.145203,1,-0.534043,-0.458650, 9.781351,1,0
1778257247589,  2183.707,  2183.702, 0.161427,-0.074753,-0.569984, 0.001761,-0.001010,-0.005892, 0.200932,-0.079412, 2.022310,1, 0.003890, 0.106963,-0.163316,1,-0.552583,-0.460910, 9.780214,1,0
1778257247611,  2183.732,  2183.727, 0.049036,-0.024685,-1.000471, 0.000327,-0.000204,-0.010737,-0.076918,-0.695121,-0.030986,1, 0.051563, 0.009341,-0.200054,1,-0.557796,-0.451794, 9.780344,1,0
1778257247637,  2183.752,  2183.752, 0.043489,-0.149639,-1.223341, 0.000038,-0.001175,-0.011128,-0.132588,-1.913452,-2.216339,1, 0.068979, 0.031086,-0.249987,1,-0.559679,-0.444290, 9.780581,1,0
1778257247659,  2183.777,  2183.772, 0.073117,-0.087901,-0.873033, 0.000310,-0.001324,-0.008421, 0.703699,-0.488551, 2.454256,1, 0.070313, 0.040870,-0.241293,1,-0.569246,-0.437704, 9.780325,1,0
