Time,GPS_ts,fGPS_ts,scaledAccelX,scaledAccelY,scaledAccelZ,deltaVelX,deltaVelY,deltaVelZ,estLinearAccelX,estLinearAccelY,estLinearAccelZ,estLinearAccel:valid,estAngularRateX,estAngularRateY,estAngularRateZ,estAngularRate:valid,estGravityX,estGravityY,estGravityZ,estGravity:valid,flag
1778257718203,  2647.373,  2647.373, 0.030928,-0.051712,-0.993924, 0.000310,-0.000516,-0.009940,-0.001659,-0.023515, 0.042903,1, 0.009564,-0.000354, 0.000597,1,-0.304947, 0.483903, 9.789955,1,0
1778257718203,  2647.398,  2647.393, 0.029773,-0.053029,-0.993648, 0.000295,-0.000531,-0.009939,-0.005454,-0.030301, 0.041759,1, 0.006740,-0.000177, 0.000417,1,-0.304864, 0.485365, 9.789886,1,0
1778257718203,  2647.418,  2647.418, 0.029018,-0.051021,-0.993875, 0.000291,-0.000511,-0.009937,-0.020303,-0.013801, 0.043245,1, 0.002388, 0.000033,-0.000220,1,-0.304873, 0.486615, 9.789824,1,0
1778257718203,  2647.443,  2647.443, 0.030166,-0.049831,-0.995296, 0.000299,-0.000498,-0.009954,-0.008984,-0.001905, 0.029295,1,-0.000392,-0.001022, 0.000609,1,-0.304782, 0.486754, 9.789820,1,0
1778257718203,  2647.468,  2647.463, 0.030153,-0.052517,-0.994109, 0.000302,-0.000525,-0.009941,-0.011795,-0.024934, 0.041103,1,-0.001694, 0.000563, 0.000024,1,-0.304821, 0.486559, 9.789827,1,0
1778257718203,  2647.493,  2647.493, 0.029096,-0.051965,-0.993600, 0.000292,-0.000523,-0.009933,-0.019678,-0.024204, 0.045996,1,-0.007283, 0.000277, 0.000554,1,-0.305022, 0.485171, 9.789890,1,0
1778257718203,  2647.518,  2647.513, 0.029174,-0.049626,-0.994595, 0.000292,-0.000498,-0.009951,-0.021545,-0.010168, 0.032290,1,-0.009094, 0.000070, 0.000262,1,-0.305117, 0.483521, 9.789969,1,0
1778257718203,  2647.543,  2647.538, 0.029827,-0.050090,-0.993395, 0.000299,-0.000500,-0.009937,-0.012276,-0.009281, 0.048178,1,-0.010925, 0.000438,-0.000938,1,-0.304739, 0.481714, 9.790070,1,0
1778257718203,  2647.568,  2647.563, 0.029645,-0.051285,-0.995516, 0.000296,-0.000512,-0.009952,-0.011581,-0.020771, 0.043283,1,-0.013315, 0.000814,-0.000359,1,-0.304868, 0.479183, 9.790190,1,0
1778257718203,  2647.588,  2647.583, 0.029722,-0.049438,-0.995698, 0.000298,-0.000495,-0.009958,-0.011765,-0.007410, 0.022917,1,-0.014477, 0.000932,-0.000238,1,-0.304992, 0.476388, 9.790322,1,0
1778257718204,  2647.608,  2647.603, 0.029423,-0.048705,-0.993950, 0.000295,-0.000489,-0.009936,-0.016841,-0.005855, 0.039789,1,-0.016056, 0.001509,-0.000506,1,-0.305288, 0.473222, 9.790467,1,0
1778257718214,  2654.323,  2654.323, 0.030057,-0.049423,-0.992843, 0.000299,-0.000495,-0.009927, 0.002256, 0.002830, 0.022666,1,-0.004273,-0.000101,-0.000550,1,-0.312805, 0.342506, 9.795674,1,0
1778257718236,  2654.348,  2654.343, 0.030319,-0.033179,-0.993868, 0.000304,-0.000331,-0.009942,-0.014328, 0.012578, 0.046704,1,-0.004620, 0.000118,-0.000318,1,-0.313583, 0.341553, 9.795682,1,0
1778257718259,  2654.368,  2654.368, 0.030629,-0.034371,-0.994877, 0.000305,-0.000343,-0.009945,-0.013297, 0.003151, 0.039319,1,-0.005658,-0.000126,-0.000081,1,-0.313658, 0.340039, 9.795732,1,0
1778257718284,  2654.393,  2654.393, 0.030404,-0.035664,-0.995805, 0.000303,-0.000357,-0.009957,-0.015469,-0.010564, 0.030250,1,-0.005168, 0.000247,-0.000270,1,-0.313640, 0.339020, 9.795769,1,0
1778257718306,  2654.418,  2654.413, 0.029830,-0.032204,-0.994055, 0.000299,-0.000322,-0.009941,-0.019485, 0.012507, 0.044123,1,-0.004962, 0.000933, 0.000041,1,-0.313695, 0.338079, 9.795799,1,0
1778257718329,  2654.443,  2654.438, 0.030429,-0.032784,-0.995565, 0.000302,-0.000330,-0.009955,-0.015436, 0.015563, 0.032671,1,-0.003377, 0.000385, 0.000092,1,-0.313853, 0.336958, 9.795833,1,0
1778257718354,  2654.463,  2654.463, 0.030780,-0.033680,-0.995701, 0.000306,-0.000338,-0.009954,-0.012023, 0.006032, 0.031361,1,-0.004181,-0.000539, 0.000723,1,-0.313853, 0.336188, 9.795859,1,0
1778257718376,  2654.488,  2654.483, 0.032555,-0.033197,-0.995151, 0.000325,-0.000333,-0.009951, 0.001397,-0.000121, 0.033386,1,-0.003521,-0.000381, 0.000239,1,-0.313771, 0.335466, 9.795887,1,0
1778257718399,  2654.513,  2654.508, 0.031968,-0.032447,-0.994862, 0.000320,-0.000323,-0.009946,-0.000355, 0.016596, 0.039641,1,-0.002464,-0.000034,-0.000233,1,-0.313858, 0.334720, 9.795909,1,0
1778257718425,  2654.533,  2654.533, 0.032216,-0.033552,-0.995904, 0.000323,-0.000333,-0.009956, 0.002064, 0.005441, 0.029439,1,-0.001250, 0.000000, 0.000435,1,-0.313869, 0.334439, 9.795918,1,0
1778257718446,  2654.558,  2654.553, 0.033169,-0.034175,-0.995250, 0.000330,-0.000343,-0.009954, 0.013048,-0.002753, 0.028097,1,-0.001020, 0.000012, 0.000229,1,-0.313474, 0.333834, 9.795952,1,0
1778257718469,  2654.583,  2654.578, 0.032840,-0.033711,-0.994147, 0.000326,-0.000338,-0.009940, 0.008575, 0.002882, 0.046708,1,-0.000863, 0.000320, 0.000749,1,-0.313486, 0.333448, 9.795964,1,0
1778257718495,  2654.603,  2654.603, 0.031901,-0.032034,-0.994784, 0.000319,-0.000322,-0.009947,-0.000680, 0.019386, 0.040462,1, 0.001154,-0.000030, 0.000489,1,-0.313524, 0.333568, 9.795959,1,0
1778257718516,  2654.628,  2654.623, 0.031127,-0.034006,-0.994583, 0.000311,-0.000339,-0.009947,-0.008373, 0.004752, 0.031519,1, 0.001426, 0.000423,-0.000155,1,-0.313526, 0.333878, 9.795949,1,0
1778257718539,  2654.653,  2654.648, 0.031334,-0.033527,-0.994921, 0.000315,-0.000338,-0.009948,-0.006219, 0.005822, 0.039080,1, 0.002177,-0.000542,-0.000127,1,-0.313487, 0.334678, 9.795922,1,0
1778257718565,  2654.673,  2654.673, 0.031185,-0.033239,-0.995421, 0.000314,-0.000331,-0.009956,-0.007697, 0.009145, 0.034161,1, 0.002867, 0.000882, 0.000573,1,-0.313547, 0.335200, 9.795903,1,0
1778257718586,  2654.698,  2654.693, 0.030633,-0.033733,-0.994823, 0.000306,-0.000337,-0.009950,-0.009063, 0.011045, 0.038122,1, 0.002560, 0.000368, 0.000443,1,-0.313598, 0.335694, 9.795884,1,0
1778257718609,  2654.723,  2654.718, 0.030886,-0.033887,-0.994933, 0.000310,-0.000342,-0.009949,-0.010657, 0.004170, 0.038903,1, 0.003993,-0.000616, 0.000234,1,-0.313526, 0.336611, 9.795856,1,0
1778257718635,  2654.743,  2654.743, 0.031333,-0.033252,-0.995639, 0.000313,-0.000336,-0.009957,-0.006124, 0.010927, 0.031962,1, 0.003397,-0.000563, 0.000592,1,-0.313371, 0.337110, 9.795843,1,0
1778257718656,  2654.768,  2654.763, 0.031343,-0.033865,-0.994797, 0.000316,-0.000337,-0.009951,-0.000923, 0.012566, 0.030603,1, 0.004344,-0.000256, 0.000014,1,-0.313347, 0.337951, 9.795815,1,0
1778257718683,  2654.793,  2654.793, 0.030665,-0.034525,-0.995101, 0.000309,-0.000345,-0.009950,-0.012520, 0.000452, 0.037171,1, 0.005510,-0.000246, 0.000027,1,-0.313235, 0.339199, 9.795775,1,0
1778257718705,  2654.813,  2654.813, 0.030372,-0.034143,-0.994378, 0.000307,-0.000344,-0.009944,-0.015379, 0.005407, 0.044218,1, 0.006254,-0.000810,-0.000021,1,-0.313204, 0.340428, 9.795733,1,0
1778257718726,  2654.838,  2654.833, 0.030997,-0.034302,-0.995391, 0.000310,-0.000343,-0.009958,-0.012222, 0.015265, 0.032373,1, 0.006490,-0.001118, 0.000209,1,-0.313091, 0.341716, 9.795692,1,0
1778257718753,  2654.863,  2654.863, 0.031341,-0.034839,-0.994939, 0.000313,-0.000347,-0.009949,-0.005559, 0.001664, 0.038627,1, 0.005747,-0.001097, 0.000306,1,-0.312873, 0.343501, 9.795637,1,0
1778257718775,  2654.888,  2654.883, 0.031719,-0.034597,-0.994847, 0.000320,-0.000348,-0.009948, 0.001767, 0.003188, 0.041260,1, 0.006464,-0.001167, 0.000560,1,-0.312807, 0.344894, 9.795590,1,0
1778257718797,  2654.908,  2654.903, 0.032030,-0.035200,-0.994538, 0.000320,-0.000351,-0.009947, 0.001435, 0.003124, 0.037116,1, 0.006892, 0.000140,-0.000132,1,-0.312789, 0.346249, 9.795543,1,0
1778257718824,  2654.933,  2654.933, 0.032494,-0.035215,-0.994801, 0.000321,-0.000353,-0.009949, 0.005949, 0.002831, 0.039807,1, 0.007705, 0.000107, 0.000337,1,-0.312709, 0.348416, 9.795468,1,0
1778257718845,  2654.958,  2654.953, 0.031981,-0.035810,-0.995087, 0.000322,-0.000358,-0.009951, 0.011293, 0.008176, 0.034303,1, 0.007071,-0.000554, 0.000154,1,-0.312382, 0.349717, 9.795433,1,0
1778257718867,  2654.978,  2654.973, 0.032349,-0.036337,-0.994262, 0.000324,-0.000362,-0.009944, 0.002225,-0.000066, 0.037294,1, 0.006887, 0.000416, 0.000690,1,-0.312367, 0.351078, 9.795384,1,0
1778257718894,  2655.003,  2655.003, 0.031363,-0.035589,-0.994647, 0.000313,-0.000356,-0.009943,-0.004653, 0.004082, 0.041158,1, 0.007369,-0.000324, 0.000654,1,-0.312213, 0.353323, 9.795308,1,0
1778257718915,  2655.028,  2655.023, 0.030831,-0.037103,-0.995979, 0.000309,-0.000367,-0.009958,-0.005413, 0.001078, 0.028741,1, 0.006721, 0.000152, 0.000077,1,-0.312262, 0.354730, 9.795257,1,0
1778257718937,  2655.048,  2655.043, 0.031967,-0.036899,-0.994650, 0.000320,-0.000369,-0.009949,-0.003821,-0.007868, 0.030735,1, 0.006412,-0.000919,-0.000188,1,-0.312130, 0.355960, 9.795216,1,0
1778257718964,  2655.073,  2655.073, 0.032067,-0.036130,-0.994397, 0.000320,-0.000361,-0.009940, 0.002509, 0.003264, 0.043457,1, 0.006388,-0.000783, 0.000506,1,-0.311939, 0.357780, 9.795156,1,0
1778257718985,  2655.098,  2655.093, 0.031884,-0.036727,-0.995292, 0.000319,-0.000365,-0.009954, 0.004929,-0.003622, 0.036018,1, 0.004771,-0.000179, 0.000650,1,-0.311908, 0.358861, 9.795117,1,0
1778257719007,  2655.118,  2655.113, 0.031714,-0.036305,-0.994892, 0.000318,-0.000363,-0.009949,-0.006326, 0.009379, 0.038740,1, 0.005057,-0.000146, 0.000403,1,-0.311951, 0.359893, 9.795077,1,0
1778257719034,  2655.143,  2655.143, 0.031869,-0.036358,-0.994798, 0.000317,-0.000362,-0.009947, 0.000666, 0.004621, 0.039401,1, 0.004881,-0.000167, 0.001036,1,-0.311865, 0.361327, 9.795028,1,0
1778257719055,  2655.168,  2655.163, 0.031693,-0.037441,-0.995768, 0.000318,-0.000372,-0.009956,-0.001161, 0.000455, 0.037234,1, 0.003827, 0.000506, 0.000545,1,-0.311817, 0.362183, 9.794997,1,0
1778257719077,  2655.188,  2655.183, 0.031325,-0.037395,-0.994865, 0.000313,-0.000374,-0.009947,-0.005013,-0.004592, 0.033822,1, 0.002657, 0.000407, 0.000377,1,-0.311834, 0.362751, 9.794976,1,0
1778257719104,  2655.213,  2655.213, 0.031180,-0.037134,-0.994269, 0.000314,-0.000373,-0.009943,-0.006028,-0.000989, 0.044516,1, 0.001322,-0.000856, 0.001329,1,-0.311772, 0.363213, 9.794961,1,0
1778257719125,  2655.238,  2655.233, 0.031287,-0.038459,-0.995823, 0.000312,-0.000384,-0.009956,-0.005319,-0.012594, 0.028358,1, 0.000896,-0.000283, 0.000808,1,-0.311680, 0.363434, 9.794955,1,0
1778257719147,  2655.258,  2655.253, 0.031462,-0.037195,-0.994556, 0.000313,-0.000375,-0.009946,-0.005706,-0.009186, 0.040953,1,-0.000347, 0.000299, 0.000670,1,-0.311711, 0.363491, 9.794952,1,0
1778257719174,  2655.283,  2655.283, 0.031273,-0.036868,-0.993707, 0.000313,-0.000371,-0.009936,-0.005051, 0.002012, 0.050015,1, 0.000308, 0.000649, 0.000427,1,-0.311751, 0.363570, 9.794949,1,0
1778257719196,  2655.308,  2655.303, 0.031331,-0.038064,-0.996226, 0.000312,-0.000383,-0.009961,-0.005669,-0.008218, 0.027462,1, 0.000314,-0.000520,-0.000186,1,-0.311708, 0.363647, 9.794947,1,0
1778257719218,  2655.328,  2655.328, 0.030357,-0.037829,-0.993701, 0.000307,-0.000379,-0.009940,-0.013972,-0.007424, 0.050073,1,-0.001042, 0.000626, 0.000386,1,-0.311689, 0.363520, 9.794952,1,0
1778257719244,  2655.353,  2655.353, 0.030479,-0.036992,-0.994328, 0.000305,-0.000370,-0.009941,-0.012736, 0.000793, 0.043926,1,-0.001145,-0.000117, 0.000035,1,-0.311627, 0.363529, 9.794953,1,0
1778257719266,  2655.378,  2655.373, 0.031553,-0.038147,-0.995626, 0.000316,-0.000381,-0.009957,-0.002483,-0.002672, 0.039346,1,-0.002800,-0.000724, 0.000093,1,-0.311568, 0.363069, 9.794972,1,0
1778257719288,  2655.398,  2655.398, 0.032450,-0.038312,-0.995018, 0.000324,-0.000382,-0.009951, 0.006710,-0.013648, 0.037216,1,-0.003817, 0.000434, 0.000642,1,-0.311528, 0.361950, 9.795015,1,0
1778257719314,  2655.423,  2655.423, 0.032755,-0.036722,-0.993678, 0.000326,-0.000369,-0.009939, 0.009686, 0.000968, 0.050394,1,-0.005501, 0.000322,-0.000107,1,-0.311540, 0.360916, 9.795053,1,0
1778257719336,  2655.448,  2655.443, 0.031814,-0.036975,-0.995212, 0.000321,-0.000367,-0.009954, 0.004016, 0.000976, 0.034862,1,-0.006922, 0.000096,-0.000170,1,-0.311594, 0.359685, 9.795096,1,0
1778257719359,  2655.468,  2655.468, 0.031916,-0.037719,-0.995528, 0.000320,-0.000379,-0.009954, 0.001284,-0.012047, 0.032369,1,-0.007318,-0.000113, 0.000387,1,-0.311700, 0.357623, 9.795169,1,0
1778257719384,  2655.493,  2655.493, 0.032012,-0.036634,-0.995215, 0.000321,-0.000370,-0.009952, 0.002171,-0.002920, 0.035491,1,-0.008016, 0.000200,-0.000238,1,-0.311764, 0.356082, 9.795223,1,0
1778257719406,  2655.518,  2655.513, 0.031516,-0.035638,-0.994756, 0.000316,-0.000360,-0.009948,-0.001665,-0.006758, 0.040385,1,-0.008078, 0.001096,-0.000869,1,-0.311920, 0.354485, 9.795276,1,0
1778257719429,  2655.538,  2655.538, 0.031566,-0.035555,-0.995094, 0.000314,-0.000357,-0.009950,-0.002477, 0.004003, 0.036795,1,-0.007678,-0.000343, 0.000058,1,-0.312028, 0.352460, 9.795345,1,0
1778257719454,  2655.563,  2655.563, 0.030440,-0.035899,-0.994900, 0.000305,-0.000360,-0.009949,-0.013666,-0.000823, 0.038744,1,-0.006827, 0.000816,-0.000440,1,-0.312209, 0.351014, 9.795392,1,0
1778257719476,  2655.588,  2655.583, 0.029948,-0.035628,-0.994799, 0.000298,-0.000356,-0.009948,-0.019178, 0.000474, 0.043420,1,-0.007625, 0.000406,-0.000183,1,-0.312315, 0.349538, 9.795441,1,0
1778257719499,  2655.608,  2655.608, 0.030320,-0.034466,-0.995491, 0.000302,-0.000346,-0.009958,-0.015046, 0.009543, 0.033081,1,-0.007639, 0.000282,-0.000343,1,-0.312396, 0.347304, 9.795518,1,0
1778257719524,  2655.633,  2655.633, 0.030058,-0.033988,-0.995768, 0.000302,-0.000340,-0.009957,-0.017714, 0.012793, 0.030410,1,-0.006905, 0.000307,-0.000266,1,-0.312494, 0.345889, 9.795565,1,0
1778257719546,  2655.658,  2655.653, 0.030683,-0.035089,-0.994799, 0.000307,-0.000353,-0.009945,-0.016045, 0.001919, 0.044822,1,-0.006964, 0.000187,-0.000514,1,-0.312632, 0.344502, 9.795609,1,0
1778257719569,  2655.683,  2655.678, 0.030504,-0.033150,-0.995505, 0.000305,-0.000333,-0.009953,-0.013654, 0.017720, 0.033090,1,-0.005767, 0.000778,-0.000404,1,-0.312816, 0.342631, 9.795670,1,0
1778257719594,  2655.703,  2655.703, 0.031021,-0.033118,-0.994575, 0.000309,-0.000333,-0.009950,-0.008746, 0.016999, 0.042246,1,-0.005356, 0.001169,-0.000640,1,-0.312992, 0.341610, 9.795699,1,0
1778257719616,  2655.728,  2655.723, 0.031334,-0.034957,-0.994693, 0.000313,-0.000352,-0.009950,-0.002106, 0.001412, 0.041514,1,-0.005355,-0.000064,-0.000581,1,-0.313061, 0.340606, 9.795732,1,0
1778257719639,  2655.753,  2655.748, 0.031960,-0.034558,-0.995157, 0.000321,-0.000349,-0.009951, 0.000768, 0.000120, 0.036642,1,-0.005517, 0.000744, 0.000060,1,-0.312674, 0.338844, 9.795805,1,0
1778257719665,  2655.773,  2655.773, 0.032497,-0.033059,-0.995583, 0.000325,-0.000328,-0.009955, 0.005859, 0.013859, 0.032496,1,-0.004285, 0.000675,-0.001110,1,-0.312848, 0.337922, 9.795832,1,0
1778257719686,  2655.798,  2655.793, 0.032671,-0.034395,-0.995149, 0.000327,-0.000343,-0.009950, 0.002106, 0.010120, 0.046169,1,-0.004439,-0.000039,-0.000629,1,-0.312920, 0.336955, 9.795863,1,0
1778257719709,  2655.823,  2655.818, 0.033192,-0.034853,-0.995872, 0.000330,-0.000349,-0.009959, 0.012565,-0.005951, 0.029729,1,-0.003906, 0.000447, 0.000135,1,-0.312948, 0.335722, 9.795904,1,0
1778257719735,  2655.843,  2655.843, 0.032659,-0.033483,-0.994834, 0.000328,-0.000335,-0.009950, 0.007358, 0.006755, 0.039941,1,-0.003386,-0.000085,-0.000292,1,-0.312912, 0.335004, 9.795930,1,0
1778257719756,  2655.868,  2655.863, 0.032160,-0.034612,-0.995599, 0.000320,-0.000342,-0.009954, 0.000163, 0.006374, 0.043924,1,-0.004220, 0.000257,-0.000939,1,-0.312982, 0.334227, 9.795955,1,0
1778257719779,  2655.893,  2655.888, 0.032453,-0.033646,-0.995206, 0.000326,-0.000336,-0.009953, 0.005188, 0.003583, 0.036336,1,-0.002240,-0.000170,-0.000623,1,-0.313058, 0.333467, 9.795978,1,0
1778257719805,  2655.913,  2655.913, 0.032870,-0.033200,-0.995025, 0.000329,-0.000333,-0.009951, 0.009256, 0.007508, 0.038126,1,-0.001607, 0.000149,-0.001023,1,-0.313096, 0.333035, 9.795991,1,0
1778257719826,  2655.938,  2655.933, 0.032148,-0.031072,-0.995384, 0.000320,-0.000311,-0.009954,-0.000230, 0.017741, 0.037636,1,-0.000270,-0.000013,-0.000974,1,-0.313156, 0.332878, 9.795995,1,0
1778257719849,  2655.963,  2655.958, 0.030935,-0.031950,-0.996202, 0.000310,-0.000320,-0.009961,-0.009976, 0.019494, 0.026582,1, 0.001707, 0.000443, 0.000032,1,-0.313361, 0.332871, 9.795988,1,0
1778257719875,  2655.983,  2655.983, 0.030709,-0.033586,-0.995035, 0.000306,-0.000337,-0.009953,-0.012227, 0.003833, 0.038020,1, 0.002300,-0.000106, 0.000223,1,-0.313375, 0.333269, 9.795975,1,0
1778257719896,  2656.008,  2656.003, 0.031420,-0.033020,-0.995272, 0.000312,-0.000328,-0.009952,-0.006198, 0.016938, 0.040970,1, 0.002241,-0.000079, 0.000200,1,-0.313390, 0.333743, 9.795958,1,0
1778257719923,  2656.033,  2656.033, 0.031750,-0.033970,-0.995336, 0.000317,-0.000339,-0.009951,-0.001924, 0.001193, 0.035034,1, 0.002554,-0.000540, 0.000451,1,-0.313267, 0.334403, 9.795939,1,0
1778257719945,  2656.053,  2656.053, 0.031518,-0.033980,-0.994206, 0.000318,-0.000341,-0.009944,-0.004269, 0.001652, 0.046091,1, 0.001675, 0.001270, 0.000408,1,-0.313391, 0.334930, 9.795918,1,0
1778257719966,  2656.078,  2656.073, 0.031972,-0.034862,-0.995632, 0.000318,-0.000350,-0.009954,-0.001383,-0.004138, 0.046223,1, 0.002529, 0.000026, 0.000141,1,-0.313308, 0.335499, 9.795900,1,0
1778257719993,  2656.103,  2656.103, 0.032492,-0.033978,-0.995159, 0.000323,-0.000342,-0.009953, 0.005388, 0.003177, 0.036692,1, 0.003644, 0.000167,-0.000495,1,-0.313259, 0.336500, 9.795868,1,0
1778257720015,  2656.128,  2656.123, 0.032448,-0.034634,-0.994564, 0.000323,-0.000342,-0.009946,-0.002156, 0.002231, 0.042488,1, 0.003502,-0.000421, 0.000880,1,-0.313154, 0.337184, 9.795847,1,0
1778257720037,  2656.148,  2656.143, 0.032368,-0.035325,-0.994889, 0.000322,-0.000353,-0.009950,-0.003420,-0.004630, 0.036267,1, 0.002921, 0.000144, 0.000357,1,-0.312999, 0.337557, 9.795839,1,0
1778257720064,  2656.173,  2656.173, 0.031842,-0.033149,-0.994947, 0.000316,-0.000330,-0.009950,-0.000683, 0.013342, 0.038716,1, 0.002381,-0.000266,-0.000135,1,-0.312941, 0.338501, 9.795809,1,0
1778257720085,  2656.198,  2656.193, 0.031403,-0.035333,-0.994974, 0.000314,-0.000352,-0.009950,-0.006422, 0.003726, 0.038704,1, 0.003493,-0.000490, 0.000000,1,-0.312949, 0.339155, 9.795786,1,0
1778257720107,  2656.218,  2656.213, 0.030578,-0.035601,-0.995626, 0.000308,-0.000357,-0.009958,-0.006457,-0.009942, 0.038285,1, 0.003362, 0.000323, 0.000019,1,-0.312908, 0.339830, 9.795764,1,1
1778257720134,  2656.243,  2656.243, 0.030445,-0.034446,-0.994804, 0.000304,-0.000344,-0.009950,-0.014217, 0.002679, 0.040046,1, 0.002136,-0.001113, 0.000003,1,-0.312748, 0.340540, 9.795744,1,1
1778257720155,  2656.268,  2656.263, 0.031154,-0.034417,-0.995152, 0.000313,-0.000344,-0.009950,-0.006544, 0.007962, 0.047153,1, 0.001006,-0.000338, 0.000375,1,-0.312666, 0.340888, 9.795734,1,1
1778257720177,  2656.288,  2656.283, 0.032112,-0.033735,-0.995309, 0.000323,-0.000340,-0.009955, 0.002818, 0.006606, 0.028026,1, 0.001323,-0.000003, 0.000083,1,-0.312584, 0.341102, 9.795730,1,1
1778257720204,  2656.313,  2656.313, 0.032128,-0.033576,-0.994334, 0.000322,-0.000336,-0.009943, 0.002471, 0.011993, 0.044639,1, 0.000162, 0.000508, 0.001265,1,-0.312607, 0.341269, 9.795723,1,1
1778257720225,  2656.338,  2656.333, 0.031734,-0.034604,-0.995453, 0.000318,-0.000343,-0.009954, 0.000144, 0.012551, 0.044310,1, 0.000568,-0.000460, 0.001152,1,-0.312571, 0.341282, 9.795724,1,1
1778257720247,  2656.358,  2656.353, 0.031835,-0.034929,-0.995883, 0.000319,-0.000348,-0.009956, 0.001554, 0.001199, 0.027594,1, 0.001458,-0.000444, 0.000641,1,-0.312578, 0.341301, 9.795723,1,1
1778257720274,  2656.383,  2656.383, 0.031469,-0.034841,-0.994394, 0.000314,-0.000352,-0.009944,-0.003944,-0.000079, 0.044044,1, 0.001037,-0.000618, 0.001315,1,-0.312526, 0.341629, 9.795713,1,1
1778257720295,  2656.408,  2656.403, 0.031709,-0.034933,-0.995835, 0.000316,-0.000349,-0.009957,-0.000213, 0.005556, 0.040626,1, 0.000812,-0.000778, 0.002014,1,-0.312378, 0.341791, 9.795712,1,1
1778257720317,  2656.428,  2656.423, 0.031812,-0.034545,-0.995422, 0.000316,-0.000345,-0.009955,-0.002645,-0.001420, 0.030213,1, 0.001968, 0.000448, 0.001070,1,-0.312438, 0.342113, 9.795699,1,1
1778257720344,  2656.453,  2656.453, 0.032436,-0.033490,-0.994693, 0.000324,-0.000338,-0.009948, 0.005741, 0.014309, 0.041078,1, 0.003703,-0.000090, 0.000671,1,-0.312347, 0.342852, 9.795676,1,1
1778257720365,  2656.478,  2656.473, 0.031724,-0.034763,-0.994755, 0.000316,-0.000346,-0.009947,-0.003139, 0.007328, 0.033638,1, 0.002627,-0.000761, 0.000600,1,-0.312235, 0.343427, 9.795660,1,1
1778257720387,  2656.498,  2656.493, 0.031467,-0.034900,-0.994947, 0.000317,-0.000350,-0.009950, 0.001667, 0.002315, 0.042586,1, 0.003697, 0.000580, 0.000658,1,-0.312294, 0.344175, 9.795631,1,1
1778257720414,  2656.523,  2656.523, 0.030855,-0.033903,-0.995039, 0.000310,-0.000340,-0.009948,-0.009534, 0.012957, 0.037590,1, 0.005276, 0.000018, 0.000736,1,-0.312113, 0.345595, 9.795588,1,1
1778257720436,  2656.548,  2656.543, 0.031767,-0.035127,-0.995669, 0.000317,-0.000349,-0.009958, 0.002763, 0.006464, 0.032616,1, 0.005297,-0.000759, 0.000524,1,-0.311908, 0.346506, 9.795562,1,1
1778257720458,  2656.568,  2656.568, 0.032321,-0.034615,-0.994883, 0.000320,-0.000346,-0.009951, 0.005081, 0.008497, 0.039037,1, 0.005455,-0.000131, 0.000849,1,-0.311870, 0.348123, 9.795506,1,1
1778257720484,  2656.593,  2656.593, 0.031519,-0.034462,-0.994162, 0.000316,-0.000343,-0.009941,-0.002756, 0.011090, 0.046072,1, 0.005240, 0.000657, 0.001319,1,-0.311871, 0.349214, 9.795466,1,1
1778257720506,  2656.618,  2656.613, 0.031101,-0.035917,-0.995373, 0.000307,-0.000359,-0.009956,-0.001508, 0.000025, 0.035650,1, 0.006166, 0.000161, 0.000014,1,-0.311884, 0.350311, 9.795427,1,1
1778257720528,  2656.638,  2656.638, 0.031065,-0.036040,-0.994952, 0.000312,-0.000360,-0.009949,-0.007237,-0.001651, 0.038233,1, 0.006110, 0.000102, 0.001257,1,-0.311885, 0.351969, 9.795368,1,1
1778257720554,  2656.663,  2656.663, 0.031142,-0.036184,-0.994186, 0.000313,-0.000362,-0.009940,-0.006388,-0.001903, 0.045698,1, 0.005100,-0.000320, 0.000124,1,-0.311777, 0.353100, 9.795330,1,1
1778257720576,  2656.688,  2656.683, 0.031919,-0.035941,-0.995823, 0.000319,-0.000360,-0.009958,-0.003393, 0.002024, 0.026385,1, 0.006414, 0.000154, 0.000284,1,-0.311679, 0.354353, 9.795288,1,1
1778257720599,  2656.708,  2656.708, 0.032001,-0.035812,-0.995112, 0.000319,-0.000355,-0.009953, 0.002221, 0.004785, 0.036521,1, 0.006275, 0.000059, 0.001037,1,-0.311604, 0.356176, 9.795224,1,1
1778257720624,  2656.733,  2656.733, 0.031917,-0.036625,-0.994295, 0.000318,-0.000365,-0.009943, 0.001416,-0.002012, 0.044490,1, 0.006016,-0.000286, 0.000689,1,-0.311576, 0.357346, 9.795183,1,1
1778257720646,  2656.758,  2656.753, 0.031850,-0.035938,-0.994898, 0.000317,-0.000360,-0.009947,-0.000108, 0.009499, 0.041192,1, 0.008511,-0.000031, 0.000476,1,-0.311527, 0.358778, 9.795132,1,1
1778257720669,  2656.778,  2656.778, 0.031573,-0.037498,-0.995533, 0.000316,-0.000376,-0.009957,-0.001761,-0.007099, 0.032220,1, 0.007737,-0.000684, 0.001255,1,-0.311364, 0.360869, 9.795060,1,1
1778257720694,  2656.803,  2656.803, 0.031580,-0.037411,-0.994704, 0.000319,-0.000374,-0.009948,-0.001565,-0.004875, 0.040311,1, 0.006968,-0.000279, 0.000250,1,-0.311248, 0.362218, 9.795014,1,1
1778257720716,  2656.828,  2656.823, 0.031576,-0.036221,-0.994598, 0.000317,-0.000362,-0.009945, 0.002706, 0.004291, 0.042043,1, 0.005039,-0.000115, 0.000630,1,-0.311183, 0.363299, 9.794976,1,1
1778257720739,  2656.848,  2656.848, 0.032009,-0.037182,-0.995025, 0.000318,-0.000373,-0.009949, 0.002764,-0.000170, 0.037068,1, 0.003765,-0.000050, 0.000864,1,-0.311136, 0.364580, 9.794930,1,1
1778257720764,  2656.873,  2656.873, 0.032045,-0.037860,-0.995516, 0.000320,-0.000379,-0.009954, 0.003141,-0.006143, 0.032234,1, 0.002991,-0.000405, 0.000902,1,-0.311097, 0.365235, 9.794908,1,1
1778257720786,  2656.898,  2656.893, 0.031597,-0.038295,-0.994995, 0.000314,-0.000384,-0.009946, 0.002052,-0.008098, 0.036472,1, 0.003263,-0.000208, 0.000862,1,-0.311097, 0.365883, 9.794883,1,1
1778257720809,  2656.923,  2656.918, 0.032119,-0.037239,-0.994034, 0.000319,-0.000372,-0.009946, 0.003922, 0.001613, 0.046703,1, 0.003666,-0.000437, 0.000299,1,-0.311040, 0.366916, 9.794847,1,1
1778257720834,  2656.943,  2656.943, 0.031942,-0.037423,-0.995292, 0.000319,-0.000371,-0.009950, 0.002106, 0.000686, 0.034334,1, 0.003780, 0.000189, 0.001045,1,-0.311146, 0.367810, 9.794809,1,1
1778257720856,  2656.968,  2656.963, 0.031606,-0.037651,-0.995326, 0.000317,-0.000378,-0.009956, 0.000336,-0.005910, 0.039923,1, 0.004584, 0.000312, 0.000051,1,-0.311129, 0.368693, 9.794777,1,1
1778257720879,  2656.993,  2656.988, 0.031839,-0.036890,-0.994738, 0.000320,-0.000369,-0.009945, 0.001229, 0.007914, 0.039698,1, 0.004036,-0.000236, 0.000656,1,-0.310995, 0.369808, 9.794739,1,1
1778257720905,  2657.013,  2657.013, 0.031463,-0.038165,-0.994911, 0.000315,-0.000379,-0.009948,-0.002408,-0.003875, 0.037976,1, 0.003325,-0.000491,-0.000004,1,-0.310938, 0.370494, 9.794715,1,1
1778257720926,  2657.038,  2657.033, 0.031256,-0.037877,-0.994370, 0.000312,-0.000381,-0.009944,-0.006086,-0.008137, 0.043105,1, 0.003242, 0.000108,-0.000068,1,-0.310883, 0.371112, 9.794693,1,1
1778257720949,  2657.063,  2657.058, 0.031550,-0.037357,-0.995734, 0.000314,-0.000372,-0.009955,-0.001481, 0.005520, 0.029853,1, 0.002400,-0.000226, 0.000102,1,-0.310876, 0.371941, 9.794662,1,1
1778257720975,  2657.083,  2657.083, 0.031684,-0.038796,-0.995553, 0.000318,-0.000383,-0.009955,-0.000101,-0.008190, 0.031606,1, 0.001196,-0.000933,-0.000170,1,-0.310790, 0.372309, 9.794651,1,1
1778257720996,  2657.108,  2657.103, 0.031401,-0.037954,-0.994867, 0.000315,-0.000380,-0.009946, 0.000965,-0.006371, 0.036992,1, 0.001218,-0.000701, 0.000539,1,-0.310681, 0.372556, 9.794644,1,1
1778257721019,  2657.133,  2657.128, 0.030905,-0.037645,-0.994837, 0.000312,-0.000376,-0.009947,-0.007572, 0.003800, 0.038609,1, 0.001329,-0.001124, 0.000143,1,-0.310607, 0.373017, 9.794629,1,1
1778257721045,  2657.153,  2657.153, 0.031731,-0.037499,-0.995501, 0.000318,-0.000374,-0.009953, 0.000551, 0.005502, 0.032094,1, 0.001568,-0.000532,-0.000599,1,-0.310612, 0.373294, 9.794619,1,1
1778257721066,  2657.178,  2657.173, 0.031251,-0.039573,-0.994914, 0.000312,-0.000396,-0.009948,-0.002918,-0.013027, 0.031610,1, 0.000403,-0.000583,-0.000239,1,-0.310571, 0.373427, 9.794615,1,1
1778257721089,  2657.203,  2657.198, 0.030702,-0.036952,-0.993709, 0.000310,-0.000373,-0.009938,-0.009546, 0.011326, 0.049643,1, 0.000256,-0.000130, 0.000016,1,-0.310627, 0.373705, 9.794602,1,1
1778257721115,  2657.223,  2657.223, 0.030526,-0.036876,-0.994216, 0.000305,-0.000366,-0.009942,-0.011360, 0.012198, 0.044665,1, 0.001115, 0.000589,-0.000122,1,-0.310732, 0.373863, 9.794593,1,1
1778257721136,  2657.248,  2657.243, 0.030894,-0.038811,-0.995668, 0.000307,-0.000384,-0.009955,-0.011436,-0.007085, 0.026099,1, 0.000702,-0.000061,-0.000564,1,-0.310759, 0.373949, 9.794589,1,1
1778257721163,  2657.273,  2657.273, 0.030252,-0.038296,-0.993832, 0.000306,-0.000385,-0.009944,-0.014098,-0.001477, 0.048426,1, 0.000656,-0.000257, 0.000401,1,-0.310756, 0.374097, 9.794583,1,1
1778257721185,  2657.293,  2657.293, 0.029393,-0.037321,-0.994068, 0.000294,-0.000374,-0.009940,-0.022639, 0.008199, 0.046101,1, 0.000980, 0.001090,-0.000589,1,-0.310916, 0.374225, 9.794574,1,1
1778257721207,  2657.318,  2657.313, 0.027852,-0.038645,-0.996525, 0.000279,-0.000384,-0.009963,-0.033212,-0.000570, 0.031579,1,-0.000634, 0.000219,-0.000696,1,-0.310993, 0.374171, 9.794573,1,1
1778257721233,  2657.343,  2657.343, 0.027287,-0.037227,-0.994630, 0.000275,-0.000375,-0.009947,-0.043082, 0.009283, 0.040588,1, 0.000628,-0.000238,-0.000933,1,-0.310616, 0.374381, 9.794577,1,1
1778257721255,  2657.368,  2657.363, 0.028265,-0.036843,-0.994391, 0.000281,-0.000366,-0.009942,-0.037348, 0.019135, 0.047089,1, 0.002023,-0.000448,-0.001219,1,-0.310569, 0.374704, 9.794566,1,1
1778257721277,  2657.388,  2657.383, 0.029501,-0.038178,-0.995924, 0.000293,-0.000382,-0.009960,-0.022865, 0.006374, 0.034187,1, 0.001877, 0.000023,-0.001150,1,-0.310536, 0.375083, 9.794553,1,1
1778257721304,  2657.413,  2657.413, 0.029774,-0.037921,-0.994574, 0.000300,-0.000378,-0.009945,-0.018600, 0.003517, 0.041100,1, 0.000494, 0.000193, 0.000608,1,-0.310590, 0.375414, 9.794538,1,1
1778257721325,  2657.438,  2657.433, 0.030625,-0.038739,-0.994733, 0.000309,-0.000386,-0.009945,-0.018593,-0.005046, 0.048048,1,-0.000528, 0.001043, 0.000681,1,-0.310728, 0.375344, 9.794537,1,1
1778257721347,  2657.458,  2657.453, 0.032669,-0.039135,-0.995822, 0.000325,-0.000393,-0.009957,-0.006521,-0.008373, 0.028437,1,-0.002006,-0.000045, 0.000943,1,-0.310752, 0.375075, 9.794546,1,1
1778257721374,  2657.483,  2657.483, 0.035231,-0.038223,-0.992926, 0.000351,-0.000384,-0.009931, 0.034833,-0.000695, 0.057303,1,-0.004494,-0.000094, 0.001897,1,-0.310656, 0.374005, 9.794590,1,1
1778257721395,  2657.508,  2657.503, 0.036979,-0.038443,-0.994931, 0.000369,-0.000383,-0.009946, 0.047420, 0.007585, 0.052825,1,-0.006996, 0.000508, 0.001826,1,-0.310653, 0.372764, 9.794638,1,1
1778257721417,  2657.528,  2657.523, 0.036138,-0.039959,-0.994732, 0.000364,-0.000400,-0.009952, 0.049339,-0.016281, 0.036609,1,-0.011009, 0.001166, 0.002698,1,-0.310724, 0.370893, 9.794706,1,1
1778257721444,  2657.553,  2657.553, 0.037033,-0.040974,-0.994289, 0.000366,-0.000411,-0.009949, 0.052169,-0.034963, 0.044201,1,-0.019352, 0.001469, 0.004523,1,-0.311040, 0.366256, 9.794871,1,1
1778257721465,  2657.578,  2657.573, 0.037031,-0.041545,-0.995406, 0.000367,-0.000413,-0.009939, 0.046128,-0.048730, 0.029682,1,-0.026253, 0.000590, 0.005320,1,-0.311210, 0.361528, 9.795041,1,1
1778257721487,  2657.598,  2657.593, 0.036053,-0.041356,-0.995578, 0.000361,-0.000416,-0.009955, 0.048127,-0.047063, 0.035141,1,-0.032476, 0.001683, 0.005671,1,-0.311436, 0.355532, 9.795254,1,1
1778257721514,  2657.623,  2657.623, 0.035009,-0.041196,-0.994986, 0.000353,-0.000415,-0.009950, 0.031351,-0.058014, 0.038101,1,-0.039340, 0.002892, 0.005008,1,-0.312058, 0.344755, 9.795619,1,1
1778257721535,  2657.648,  2657.643, 0.033088,-0.038354,-0.993863, 0.000331,-0.000383,-0.009939, 0.018364,-0.041206, 0.060038,1,-0.040371, 0.002641, 0.004015,1,-0.312576, 0.336903, 9.795876,1,1
1778257721557,  2657.668,  2657.663, 0.031803,-0.038752,-0.996278, 0.000319,-0.000389,-0.009964, 0.005672,-0.042728, 0.036707,1,-0.040592, 0.002544, 0.001664,1,-0.313085, 0.328966, 9.796129,1,1
1778257721584,  2657.693,  2657.693, 0.032696,-0.032966,-0.994612, 0.000327,-0.000338,-0.009950, 0.006904,-0.004720, 0.042643,1,-0.038275, 0.002283,-0.000247,1,-0.313809, 0.317374, 9.796488,1,1
1778257721605,  2657.718,  2657.713, 0.034739,-0.028334,-0.993737, 0.000347,-0.000285,-0.009940, 0.018613, 0.031655, 0.054408,1,-0.035327, 0.001479,-0.001013,1,-0.314183, 0.310303, 9.796702,1,1
1778257721627,  2657.738,  2657.733, 0.033982,-0.028453,-0.997168, 0.000341,-0.000284,-0.009968, 0.020067, 0.031170, 0.043213,1,-0.033081, 0.002134,-0.001233,1,-0.314608, 0.303653, 9.796898,1,1
1778257721654,  2657.763,  2657.763, 0.032767,-0.028388,-0.995748, 0.000326,-0.000282,-0.009961, 0.004861, 0.018502, 0.032095,1,-0.028923, 0.002238,-0.000940,1,-0.316541, 0.295993, 9.797070,1,1
1778257721676,  2657.788,  2657.783, 0.030074,-0.025941,-0.993291, 0.000298,-0.000263,-0.009925,-0.022951, 0.031608, 0.058912,1,-0.023524, 0.001779,-0.001440,1,-0.316892, 0.291150, 9.797203,1,1
1778257721698,  2657.808,  2657.808, 0.029037,-0.025805,-0.997082, 0.000293,-0.000257,-0.009968,-0.032529, 0.032624, 0.019316,1,-0.018548, 0.001889,-0.002307,1,-0.317350, 0.285108, 9.797366,1,1
1778257721724,  2657.833,  2657.833, 0.025919,-0.026519,-0.997104, 0.000261,-0.000266,-0.009976,-0.063440, 0.022442, 0.019178,1,-0.014252, 0.001586,-0.002481,1,-0.317672, 0.282057, 9.797444,1,1
1778257721746,  2657.858,  2657.853, 0.024514,-0.021704,-0.993856, 0.000246,-0.000217,-0.009936,-0.074792, 0.063955, 0.054498,1,-0.010058, 0.001677,-0.001813,1,-0.317926, 0.279805, 9.797501,1,1
1778257721768,  2657.878,  2657.878, 0.024645,-0.025128,-0.996080, 0.000248,-0.000247,-0.009961,-0.076333, 0.031060, 0.029353,1,-0.008125, 0.000537,-0.000654,1,-0.318039, 0.277227, 9.797570,1,1
1778257721794,  2657.903,  2657.903, 0.024444,-0.027056,-0.996957, 0.000244,-0.000271,-0.009969,-0.078421, 0.010595, 0.020792,1,-0.007673, 0.000331,-0.000397,1,-0.318141, 0.275682, 9.797610,1,1
1778257721816,  2657.928,  2657.923, 0.025292,-0.024955,-0.994533, 0.000252,-0.000248,-0.009947,-0.074874, 0.031405, 0.042613,1,-0.005335, 0.000449, 0.000806,1,-0.318349, 0.274530, 9.797636,1,1
1778257721839,  2657.948,  2657.948, 0.026645,-0.024775,-0.995792, 0.000265,-0.000246,-0.009960,-0.055573, 0.029227, 0.032362,1,-0.002745, 0.000491, 0.000532,1,-0.316867, 0.272090, 9.797752,1,1
1778257721864,  2657.973,  2657.973, 0.027534,-0.026735,-0.996160, 0.000278,-0.000271,-0.009959,-0.046959, 0.009659, 0.028763,1,-0.001176,-0.000272,-0.000134,1,-0.316964, 0.271806, 9.797757,1,1
1778257721886,  2657.998,  2657.993, 0.031026,-0.024337,-0.994552, 0.000306,-0.000243,-0.009941,-0.032674, 0.015943, 0.050194,1, 0.001117, 0.000278,-0.000386,1,-0.317095, 0.271922, 9.797750,1,1
1778257721909,  2658.018,  2658.018, 0.033180,-0.026187,-0.997101, 0.000332,-0.000258,-0.009971, 0.008460, 0.015829, 0.019518,1, 0.003457,-0.000443,-0.000513,1,-0.316916, 0.272747, 9.797732,1,1
1778257721934,  2658.043,  2658.043, 0.033815,-0.030017,-0.995349, 0.000337,-0.000302,-0.009957, 0.014752,-0.020703, 0.036671,1, 0.007982, 0.000224,-0.000474,1,-0.316869, 0.273915, 9.797701,1,1
1778257721956,  2658.068,  2658.063, 0.033622,-0.026028,-0.994112, 0.000334,-0.000258,-0.009942, 0.010751, 0.015308, 0.050562,1, 0.011542,-0.000000,-0.002731,1,-0.316897, 0.275844, 9.797647,1,1
1778257721979,  2658.088,  2658.088, 0.034681,-0.027534,-0.995387, 0.000346,-0.000273,-0.009952, 0.023446, 0.009760, 0.036126,1, 0.018566,-0.002760,-0.004222,1,-0.316579, 0.280348, 9.797528,1,1
1778257722004,  2658.113,  2658.113, 0.037035,-0.026050,-0.995836, 0.000369,-0.000263,-0.009958, 0.046915, 0.028468, 0.031620,1, 0.023287,-0.002253,-0.004819,1,-0.316212, 0.284653, 9.797417,1,1
1778257722026,  2658.138,  2658.133, 0.036648,-0.027559,-0.994565, 0.000366,-0.000271,-0.009948, 0.049086, 0.033346, 0.043948,1, 0.027118,-0.001068,-0.003846,1,-0.315955, 0.289675, 9.797277,1,1
1778257722049,  2658.163,  2658.158, 0.034647,-0.028579,-0.995897, 0.000348,-0.000285,-0.009959, 0.024157, 0.016270, 0.030665,1, 0.029643,-0.000792,-0.005035,1,-0.315591, 0.297456, 9.797056,1,1
1778257722075,  2658.183,  2658.183, 0.033325,-0.028368,-0.995533, 0.000335,-0.000282,-0.009956, 0.011538, 0.024367, 0.034062,1, 0.031588,-0.002203,-0.005016,1,-0.315208, 0.303538, 9.796882,1,1
1778257722096,  2658.208,  2658.203, 0.036368,-0.029981,-0.993973, 0.000362,-0.000297,-0.009940, 0.028007, 0.015469, 0.048036,1, 0.032098,-0.002011,-0.003693,1,-0.314812, 0.309868, 9.796697,1,1
1778257722119,  2658.233,  2658.228, 0.036019,-0.029798,-0.995976, 0.000361,-0.000296,-0.009961, 0.038988, 0.025451, 0.029277,1, 0.027049,-0.001231,-0.001716,1,-0.314198, 0.318508, 9.796439,1,1
1778257722145,  2658.253,  2658.253, 0.033983,-0.031536,-0.995545, 0.000346,-0.000313,-0.009958, 0.019230, 0.013549, 0.033341,1, 0.024849,-0.001286, 0.001195,1,-0.313987, 0.323590, 9.796279,1,1
1778257722166,  2658.278,  2658.273, 0.033104,-0.032606,-0.995076, 0.000332,-0.000326,-0.009949, 0.008997, 0.004302, 0.038265,1, 0.022653,-0.000763, 0.001363,1,-0.313792, 0.328156, 9.796134,1,1
1778257722189,  2658.303,  2658.298, 0.034059,-0.031895,-0.995517, 0.000340,-0.000317,-0.009957, 0.020544, 0.021136, 0.033257,1, 0.021565,-0.000866, 0.001937,1,-0.313435, 0.334594, 9.795927,1,1
1778257722215,  2658.323,  2658.323, 0.033337,-0.033260,-0.994145, 0.000333,-0.000331,-0.009941, 0.013703, 0.012027, 0.046579,1, 0.021648,-0.000559, 0.003157,1,-0.313203, 0.338872, 9.795788,1,1
1778257722236,  2658.348,  2658.343, 0.029292,-0.032400,-0.996114, 0.000293,-0.000323,-0.009961,-0.019192, 0.014390, 0.038590,1, 0.021770,-0.001207, 0.003387,1,-0.314023, 0.342474, 9.795636,1,1
1778257722259,  2658.373,  2658.368, 0.027100,-0.035032,-0.996013, 0.000272,-0.000349,-0.009963,-0.047921, 0.005045, 0.027882,1, 0.024901,-0.001603, 0.002655,1,-0.313631, 0.349374, 9.795404,1,1
1778257722285,  2658.393,  2658.393, 0.026991,-0.034829,-0.993828, 0.000269,-0.000350,-0.009938,-0.048662, 0.012175, 0.049138,1, 0.027564,-0.001822, 0.001560,1,-0.313296, 0.354596, 9.795228,1,1
1778257722306,  2658.418,  2658.413, 0.029020,-0.031713,-0.995033, 0.000291,-0.000318,-0.009947,-0.027333, 0.043659, 0.054223,1, 0.029198,-0.002909, 0.002574,1,-0.312836, 0.360250, 9.795036,1,1
1778257722329,  2658.443,  2658.438, 0.029160,-0.034308,-0.996677, 0.000293,-0.000338,-0.009968,-0.026399, 0.031925, 0.020690,1, 0.031264,-0.001549, 0.002625,1,-0.312314, 0.369348, 9.794714,1,1
1778257722355,  2658.463,  2658.463, 0.029357,-0.035709,-0.995203, 0.000294,-0.000354,-0.009954,-0.024265, 0.024714, 0.034904,1, 0.034961,-0.000311, 0.003628,1,-0.312143, 0.375993, 9.794467,1,1
1778257722376,  2658.488,  2658.483, 0.030644,-0.039349,-0.994658, 0.000305,-0.000389,-0.009941,-0.017792, 0.006238, 0.047211,1, 0.035746,-0.001743, 0.003587,1,-0.311854, 0.382885, 9.794209,1,1
1778257722403,  2658.513,  2658.513, 0.032701,-0.038637,-0.995781, 0.000326,-0.000386,-0.009952, 0.009412, 0.013758, 0.028560,1, 0.038177,-0.001746, 0.002631,1,-0.311214, 0.393847, 9.793795,1,1
1778257722425,  2658.533,  2658.533, 0.033100,-0.043102,-0.994983, 0.000332,-0.000422,-0.009952, 0.013724,-0.022657, 0.036106,1, 0.037041,-0.001784, 0.003601,1,-0.310812, 0.401184, 9.793509,1,1
1778257722447,  2658.558,  2658.553, 0.034305,-0.043400,-0.994524, 0.000343,-0.000435,-0.009942, 0.025577,-0.038104, 0.047123,1, 0.037083,-0.001839, 0.002534,1,-0.309751, 0.404200, 9.793419,1,1
1778257722473,  2658.583,  2658.583, 0.034371,-0.042089,-0.994734, 0.000344,-0.000420,-0.009946, 0.028048, 0.004873, 0.037873,1, 0.037457,-0.001660, 0.001379,1,-0.308966, 0.418793, 9.792830,1,1
1778257722495,  2658.608,  2658.603, 0.034676,-0.046505,-0.993341, 0.000345,-0.000465,-0.009933, 0.027371,-0.036035, 0.040388,1, 0.037259,-0.002216, 0.000316,1,-0.308535, 0.426091, 9.792530,1,1
1778257722517,  2658.628,  2658.623, 0.033338,-0.046010,-0.994536, 0.000335,-0.000458,-0.009943, 0.026550,-0.016689, 0.057384,1, 0.036109,-0.002895,-0.000059,1,-0.307978, 0.433267, 9.792233,1,1
1778257722544,  2658.653,  2658.653, 0.031637,-0.047612,-0.995847, 0.000316,-0.000474,-0.009958, 0.002826,-0.024538, 0.025919,1, 0.034745,-0.001271, 0.000637,1,-0.307389, 0.443457, 9.791795,1,1
1778257722565,  2658.678,  2658.673, 0.030376,-0.047563,-0.993100, 0.000305,-0.000475,-0.009934,-0.011850,-0.015078, 0.041290,1, 0.032274,-0.002073,-0.000048,1,-0.306929, 0.449891, 9.791515,1,1
1778257722587,  2658.698,  2658.693, 0.029268,-0.049155,-0.995064, 0.000293,-0.000488,-0.009945,-0.017089,-0.024382, 0.044951,1, 0.028885,-0.001698, 0.000241,1,-0.306538, 0.455862, 9.791251,1,1
1778257722614,  2658.723,  2658.723, 0.029466,-0.045838,-0.995687, 0.000293,-0.000460,-0.009956,-0.017112, 0.013802, 0.026563,1, 0.027490,-0.000665, 0.000171,1,-0.306054, 0.464172, 9.790876,1,1
1778257722635,  2658.748,  2658.743, 0.027166,-0.048091,-0.993073, 0.000273,-0.000478,-0.009931,-0.038900, 0.019049, 0.046519,1, 0.026344,-0.001059, 0.000940,1,-0.306177, 0.470092, 9.790590,1,1
1778257722657,  2658.768,  2658.763, 0.027009,-0.051485,-0.996042, 0.000269,-0.000515,-0.009958,-0.041770,-0.016881, 0.038797,1, 0.023339,-0.002417, 0.001229,1,-0.305782, 0.474883, 9.790371,1,1
1778257722684,  2658.793,  2658.793, 0.028128,-0.049963,-0.995284, 0.000282,-0.000501,-0.009958,-0.029519,-0.009015, 0.029686,1, 0.023059,-0.000316, 0.000319,1,-0.305350, 0.481676, 9.790052,1,1
1778257722705,  2658.818,  2658.813, 0.029244,-0.049202,-0.992897, 0.000290,-0.000489,-0.009926,-0.027044, 0.001632, 0.052152,1, 0.020416,-0.001065, 0.000953,1,-0.305156, 0.485856, 9.789852,1,1
1778257722727,  2658.838,  2658.833, 0.031507,-0.051376,-0.994425, 0.000314,-0.000512,-0.009942,-0.006111,-0.005401, 0.044848,1, 0.019482,-0.001583, 0.000880,1,-0.304930, 0.489781, 9.789663,1,1
1778257722754,  2658.863,  2658.863, 0.033892,-0.051236,-0.995964, 0.000341,-0.000513,-0.009960, 0.027777,-0.007905, 0.022362,1, 0.017212,-0.001767, 0.000788,1,-0.304535, 0.495087, 9.789409,1,1
1778257722775,  2658.888,  2658.883, 0.032479,-0.054108,-0.993343, 0.000327,-0.000534,-0.009932, 0.020929,-0.017309, 0.045982,1, 0.016719,-0.000467, 0.001314,1,-0.304348, 0.498406, 9.789247,1,1
1778257722797,  2658.908,  2658.903, 0.031035,-0.055299,-0.993057, 0.000312,-0.000555,-0.009932, 0.012873,-0.037188, 0.054814,1, 0.015027,-0.000348, 0.000479,1,-0.304170, 0.501505, 9.789094,1,1
1778257722824,  2658.933,  2658.933, 0.031043,-0.053793,-0.995194, 0.000308,-0.000537,-0.009950, 0.000319,-0.022538, 0.029397,1, 0.011727, 0.000156,-0.000268,1,-0.304114, 0.505354, 9.788898,1,1
1778257722845,  2658.958,  2658.953, 0.031049,-0.056299,-0.993470, 0.000312,-0.000561,-0.009936, 0.005426,-0.033572, 0.041013,1, 0.006923,-0.000356, 0.000348,1,-0.303684, 0.507462, 9.788802,1,1
1778257722867,  2658.973,  2658.973, 0.031028,-0.056602,-0.993561, 0.000308,-0.000569,-0.009938, 0.000587,-0.046946, 0.045264,1, 0.003218, 0.000200,-0.000429,1,-0.303699, 0.508229, 9.788762,1,1
1778257722894,  2659.003,  2659.003, 0.030128,-0.052054,-0.994364, 0.000304,-0.000522,-0.009942,-0.008299,-0.002232, 0.037381,1,-0.001770, 0.000920, 0.000246,1,-0.303784, 0.508187, 9.788761,1,1
1778257722916,  2659.028,  2659.023, 0.029016,-0.053497,-0.994084, 0.000291,-0.000535,-0.009937,-0.019098,-0.009275, 0.041675,1,-0.002959,-0.000014,-0.000281,1,-0.303829, 0.507659, 9.788787,1,1
1778257722938,  2659.048,  2659.048, 0.029466,-0.053605,-0.995572, 0.000295,-0.000540,-0.009957,-0.014997,-0.019159, 0.025610,1,-0.005543, 0.000907,-0.000631,1,-0.303988, 0.506354, 9.788850,1,1
1778257722964,  2659.073,  2659.073, 0.029813,-0.052879,-0.994709, 0.000297,-0.000528,-0.009949,-0.011690,-0.013252, 0.034140,1,-0.006934, 0.000232,-0.000800,1,-0.304060, 0.505100, 9.788913,1,1
1778257722986,  2659.098,  2659.093, 0.028769,-0.052497,-0.993534, 0.000290,-0.000524,-0.009935,-0.013863,-0.000527, 0.046678,1,-0.008594, 0.000941,-0.000847,1,-0.304125, 0.503533, 9.788991,1,1
1778257723008,  2659.118,  2659.118, 0.030053,-0.053914,-0.994313, 0.000299,-0.000542,-0.009944,-0.009478,-0.027867, 0.038250,1,-0.011146, 0.001094,-0.000408,1,-0.304236, 0.500501, 9.789144,1,1
1778257723034,  2659.143,  2659.143, 0.030903,-0.050271,-0.995185, 0.000311,-0.000504,-0.009951,-0.001042, 0.006297, 0.029782,1,-0.011610, 0.000548,-0.000926,1,-0.304078, 0.499017, 9.789224,1,1
1778257723056,  2659.168,  2659.163, 0.032015,-0.051519,-0.993393, 0.000321,-0.000515,-0.009931, 0.008713, 0.000003, 0.046770,1,-0.013717, 0.000436,-0.000784,1,-0.304213, 0.496336, 9.789356,1,1
1778257723079,  2659.188,  2659.188, 0.032565,-0.051257,-0.995259, 0.000324,-0.000515,-0.009948, 0.014906,-0.010084, 0.029385,1,-0.014514, 0.001096,-0.000119,1,-0.304482, 0.492125, 9.789560,1,1
1778257723104,  2659.213,  2659.213, 0.032272,-0.050174,-0.994668, 0.000323,-0.000504,-0.009947, 0.011896,-0.002382, 0.035321,1,-0.015792, 0.001168,-0.000203,1,-0.304624, 0.489167, 9.789704,1,1
1778257723126,  2659.238,  2659.233, 0.031555,-0.049581,-0.993913, 0.000317,-0.000496,-0.009939, 0.011832,-0.000820, 0.037130,1,-0.015595, 0.000863,-0.000090,1,-0.304879, 0.486069, 9.789850,1,1
1778257723149,  2659.258,  2659.258, 0.031870,-0.047607,-0.994643, 0.000318,-0.000480,-0.009947, 0.007428, 0.014981, 0.035934,1,-0.015903, 0.001166,-0.000218,1,-0.305150, 0.481355, 9.790075,1,1
1778257723174,  2659.283,  2659.283, 0.030291,-0.046133,-0.995140, 0.000305,-0.000464,-0.009953,-0.008286, 0.026515, 0.031199,1,-0.013827, 0.000677, 0.000059,1,-0.305356, 0.478497, 9.790209,1,1
1778257723196,  2659.308,  2659.303, 0.029104,-0.048954,-0.993597, 0.000293,-0.000489,-0.009936,-0.017910, 0.009835, 0.041420,1,-0.013610, 0.000464,-0.000710,1,-0.305499, 0.475855, 9.790333,1,1
1778257723219,  2659.328,  2659.328, 0.028859,-0.047176,-0.995229, 0.000286,-0.000472,-0.009950,-0.022667, 0.009985, 0.030619,1,-0.012021, 0.001040,-0.000621,1,-0.305713, 0.472249, 9.790501,1,1
1778257723245,  2659.353,  2659.353, 0.028416,-0.045640,-0.995299, 0.000285,-0.000458,-0.009951,-0.027298, 0.022881, 0.030028,1,-0.010421, 0.000442,-0.000320,1,-0.305982, 0.470136, 9.790594,1,1
1778257723266,  2659.378,  2659.373, 0.029683,-0.047175,-0.994415, 0.000297,-0.000473,-0.009944,-0.022251, 0.001508, 0.038816,1,-0.011536, 0.000815,-0.000325,1,-0.306191, 0.467970, 9.790691,1,1
1778257723289,  2659.403,  2659.398, 0.030893,-0.047035,-0.994696, 0.000306,-0.000470,-0.009949,-0.003304, 0.003696, 0.036200,1,-0.010518, 0.000628,-0.000446,1,-0.306283, 0.464621, 9.790848,1,1
1778257723315,  2659.423,  2659.423, 0.030768,-0.044146,-0.994311, 0.000309,-0.000440,-0.009947,-0.004701, 0.030026, 0.040059,1,-0.009789, 0.000708,-0.000677,1,-0.306460, 0.462647, 9.790936,1,1
1778257723336,  2659.448,  2659.443, 0.032583,-0.047131,-0.995113, 0.000324,-0.000471,-0.009945, 0.000874, 0.011209, 0.043162,1,-0.009236, 0.000568,-0.000128,1,-0.306633, 0.460844, 9.791016,1,1
1778257723359,  2659.473,  2659.468, 0.033951,-0.046275,-0.995915, 0.000339,-0.000466,-0.009959, 0.026251, 0.004892, 0.024523,1,-0.008192, 0.000368,-0.000112,1,-0.306703, 0.458441, 9.791126,1,1
1778257723385,  2659.493,  2659.493, 0.034024,-0.045730,-0.994067, 0.000340,-0.000457,-0.009943, 0.026912, 0.008642, 0.042716,1,-0.007334, 0.000480,-0.000208,1,-0.306769, 0.456876, 9.791197,1,1
1778257723406,  2659.518,  2659.513, 0.033609,-0.046981,-0.994918, 0.000335,-0.000468,-0.009946, 0.022287, 0.004644, 0.043833,1,-0.007142,-0.000292,-0.000267,1,-0.306862, 0.455400, 9.791263,1,1
1778257723429,  2659.543,  2659.538, 0.033301,-0.047688,-0.996260, 0.000333,-0.000479,-0.009964, 0.019566,-0.014506, 0.021388,1,-0.007212, 0.000227,-0.001000,1,-0.307028, 0.452897, 9.791374,1,1
1778257723455,  2659.563,  2659.563, 0.030602,-0.046115,-0.993929, 0.000308,-0.000463,-0.009939,-0.006998,-0.000693, 0.044316,1,-0.008048, 0.001027,-0.000512,1,-0.307129, 0.451286, 9.791445,1,1
1778257723476,  2659.588,  2659.583, 0.028676,-0.046063,-0.993928, 0.000291,-0.000463,-0.009939,-0.021845,-0.005982, 0.049247,1,-0.009180, 0.000233,-0.000994,1,-0.307175, 0.449592, 9.791522,1,1
1778257723499,  2659.613,  2659.608, 0.027726,-0.045015,-0.995307, 0.000278,-0.000451,-0.009951,-0.035450, 0.005474, 0.031011,1,-0.010103,-0.000091,-0.000375,1,-0.307342, 0.446607, 9.791653,1,1
1778257723525,  2659.633,  2659.633, 0.028779,-0.044443,-0.994717, 0.000286,-0.000446,-0.009949,-0.025176, 0.008981, 0.036886,1,-0.010432, 0.000556,-0.000344,1,-0.307422, 0.444491, 9.791747,1,1
1778257723546,  2659.658,  2659.653, 0.029419,-0.045047,-0.994430, 0.000293,-0.000454,-0.009942,-0.026255, 0.004791, 0.044201,1,-0.010455, 0.000932,-0.000470,1,-0.307533, 0.442434, 9.791837,1,1
1778257723569,  2659.683,  2659.678, 0.028937,-0.044659,-0.995162, 0.000291,-0.000447,-0.009952,-0.024146, 0.001693, 0.032743,1,-0.010558, 0.001080,-0.000997,1,-0.307958, 0.439317, 9.791964,1,1
1778257723595,  2659.703,  2659.703, 0.029728,-0.044151,-0.993797, 0.000297,-0.000444,-0.009937,-0.016606, 0.004527, 0.046223,1,-0.010656, 0.000734, 0.000312,1,-0.308157, 0.437165, 9.792053,1,1
1778257723616,  2659.728,  2659.723, 0.031588,-0.044369,-0.996219, 0.000315,-0.000445,-0.009960,-0.009647, 0.001930, 0.035311,1,-0.011820, 0.000391,-0.000055,1,-0.308276, 0.434870, 9.792151,1,1
1778257723643,  2659.753,  2659.753, 0.033042,-0.043850,-0.995345, 0.000330,-0.000441,-0.009952, 0.016107, 0.001884, 0.031298,1,-0.011071, 0.000934,-0.000082,1,-0.307948, 0.431563, 9.792309,1,1
1778257723665,  2659.773,  2659.773, 0.032910,-0.042470,-0.994064, 0.000328,-0.000426,-0.009938, 0.014657, 0.013194, 0.043951,1,-0.011327, 0.001215, 0.000240,1,-0.308120, 0.429329, 9.792401,1,1
1778257723687,  2659.798,  2659.793, 0.032179,-0.042835,-0.995032, 0.000323,-0.000426,-0.009950, 0.012163, 0.005086, 0.042527,1,-0.010175, 0.000899,-0.000312,1,-0.308212, 0.427211, 9.792491,1,1
1778257723713,  2659.823,  2659.823, 0.032319,-0.044407,-0.995554, 0.000324,-0.000442,-0.009954, 0.008599,-0.011085, 0.029555,1,-0.010772, 0.000389,-0.000423,1,-0.308351, 0.424060, 9.792624,1,1
1778257723735,  2659.848,  2659.843, 0.032326,-0.042713,-0.993557, 0.000324,-0.000429,-0.009938, 0.003811,-0.013095, 0.043057,1,-0.011378,-0.000144,-0.000376,1,-0.308390, 0.421880, 9.792717,1,0
1778257723757,  2659.868,  2659.863, 0.031798,-0.040683,-0.993835, 0.000318,-0.000411,-0.009940, 0.007331, 0.013124, 0.046165,1,-0.011231, 0.001055,-0.000212,1,-0.308511, 0.419650, 9.792809,1,0
1778257723784,  2659.893,  2659.893, 0.031512,-0.041227,-0.995351, 0.000315,-0.000410,-0.009953, 0.000394, 0.012503, 0.031872,1,-0.010249, 0.000094, 0.000013,1,-0.308635, 0.416480, 9.792940,1,0
1778257723805,  2659.918,  2659.913, 0.031757,-0.041348,-0.994521, 0.000317,-0.000415,-0.009947, 0.004957, 0.003423, 0.036883,1,-0.009472, 0.000472,-0.000373,1,-0.308760, 0.414576, 9.793016,1,0
1778257723827,  2659.938,  2659.933, 0.031151,-0.040415,-0.993931, 0.000313,-0.000405,-0.009940, 0.001353, 0.009305, 0.044229,1,-0.008994, 0.000436, 0.000068,1,-0.308876, 0.412825, 9.793087,1,0
1778257723854,  2659.963,  2659.963, 0.030804,-0.040936,-0.995357, 0.000310,-0.000409,-0.009953,-0.007250, 0.008958, 0.032056,1,-0.009028, 0.000359,-0.000536,1,-0.309345, 0.410121, 9.793186,1,0
1778257723875,  2659.988,  2659.983, 0.030151,-0.041709,-0.994509, 0.000303,-0.000419,-0.009946,-0.014201,-0.003003, 0.036575,1,-0.008374, 0.000016, 0.000300,1,-0.309356, 0.408509, 9.793253,1,0
1778257723897,  2660.008,  2660.003, 0.030446,-0.040356,-0.994492, 0.000303,-0.000404,-0.009947,-0.016679, 0.006748, 0.042137,1,-0.007635, 0.000878,-0.000414,1,-0.309440, 0.406954, 9.793315,1,0
1778257723924,  2660.033,  2660.033, 0.029060,-0.040509,-0.995020, 0.000289,-0.000405,-0.009949,-0.024642, 0.007850, 0.035573,1,-0.006225, 0.000646,-0.000870,1,-0.309644, 0.404909, 9.793393,1,0
1778257723945,  2660.058,  2660.053, 0.029123,-0.040553,-0.994525, 0.000290,-0.000405,-0.009944,-0.027526, 0.004738, 0.042952,1,-0.007458, 0.000249, 0.000565,1,-0.309771, 0.403492, 9.793447,1,0
1778257723967,  2660.078,  2660.073, 0.030711,-0.041120,-0.995173, 0.000305,-0.000410,-0.009950,-0.014947, 0.000833, 0.037463,1,-0.008004,-0.001035,-0.000245,1,-0.309764, 0.401896, 9.793513,1,0
1778257723994,  2660.103,  2660.103, 0.031165,-0.041093,-0.994818, 0.000311,-0.000409,-0.009953,-0.004196,-0.003195, 0.037767,1,-0.007955, 0.000614,-0.000261,1,-0.309844, 0.399543, 9.793608,1,0
1778257724015,  2660.128,  2660.123, 0.029882,-0.039762,-0.994567, 0.000300,-0.000399,-0.009946,-0.007562, 0.003425, 0.044523,1,-0.007840, 0.001049,-0.000056,1,-0.310046, 0.398069, 9.793661,1,0
1778257724037,  2660.148,  2660.143, 0.029233,-0.039291,-0.995122, 0.000292,-0.000394,-0.009952,-0.021640, 0.012452, 0.038665,1,-0.008253, 0.000789,-0.000201,1,-0.309825, 0.396447, 9.793734,1,0
1778257724064,  2660.173,  2660.173, 0.030073,-0.040045,-0.995111, 0.000300,-0.000400,-0.009951,-0.015023, 0.001711, 0.035101,1,-0.008422, 0.000393,-0.000739,1,-0.309949, 0.394157, 9.793822,1,0
1778257724085,  2660.198,  2660.193, 0.031411,-0.039559,-0.994925, 0.000314,-0.000397,-0.009944,-0.009741,-0.003090, 0.043424,1,-0.008262,-0.000074, 0.000150,1,-0.309996, 0.392504, 9.793887,1,0
1778257724107,  2660.218,  2660.213, 0.032308,-0.037870,-0.996195, 0.000323,-0.000379,-0.009962, 0.006483, 0.014786, 0.028454,1,-0.008815, 0.000149,-0.000097,1,-0.310042, 0.390853, 9.793952,1,0
1778257724134,  2660.243,  2660.243, 0.032400,-0.038100,-0.994834, 0.000327,-0.000380,-0.009949, 0.007518, 0.015539, 0.038021,1,-0.005177, 0.000396,-0.000244,1,-0.310234, 0.389009, 9.794019,1,0
1778257724156,  2660.268,  2660.263, 0.032771,-0.037548,-0.995479, 0.000323,-0.000374,-0.009949, 0.012196, 0.015973, 0.046673,1,-0.001601, 0.000708,-0.000996,1,-0.310339, 0.388498, 9.794036,1,0
1778257724178,  2660.288,  2660.288, 0.032518,-0.037604,-0.996483, 0.000323,-0.000376,-0.009964, 0.008432, 0.019675, 0.021870,1, 0.001879, 0.000302,-0.000539,1,-0.310471, 0.388503, 9.794032,1,0
1778257724204,  2660.313,  2660.313, 0.031484,-0.038384,-0.995760, 0.000314,-0.000384,-0.009955,-0.001670, 0.012654, 0.028941,1, 0.003707,-0.000098,-0.000331,1,-0.310424, 0.389188, 9.794006,1,0
1778257724226,  2660.338,  2660.333, 0.030579,-0.037475,-0.994661, 0.000309,-0.000372,-0.009947,-0.000158, 0.026448, 0.045884,1, 0.003963,-0.001402, 0.000547,1,-0.310265, 0.390048, 9.793977,1,0
1778257724249,  2660.358,  2660.358, 0.028463,-0.040598,-0.994479, 0.000287,-0.000406,-0.009946,-0.031184,-0.007316, 0.041433,1, 0.005245, 0.000118, 0.000191,1,-0.310315, 0.390976, 9.793939,1,0
1778257724274,  2660.383,  2660.383, 0.026722,-0.043433,-0.996683, 0.000266,-0.000433,-0.009964,-0.048321,-0.034346, 0.019789,1, 0.002530, 0.000605,-0.000124,1,-0.310392, 0.391663, 9.793908,1,0
1778257724296,  2660.408,  2660.403, 0.042296,-0.053342,-0.991899, 0.000366,-0.000488,-0.009928,-0.015998,-0.038852, 0.037974,1,-0.002894,-0.000271,-0.000327,1,-0.310395, 0.391521, 9.793914,1,0
1778257724319,  2660.428,  2660.428, 0.027386,-0.023593,-0.988918, 0.000248,-0.000238,-0.009847,-0.041423, 0.158108, 0.096031,1,-0.004532, 0.003403, 0.002437,1,-0.310091, 0.389341, 9.794010,1,0
1778257724344,  2660.453,  2660.453, 0.038805,-0.021090,-0.980867, 0.000417,-0.000232,-0.009850, 0.069866, 0.179621, 0.175086,1,-0.001864,-0.002155,-0.014633,1,-0.310631, 0.386374, 9.794111,1,0
1778257724366,  2660.478,  2660.473, 0.033573,-0.076464,-1.002677, 0.000314,-0.000727,-0.009971,-0.011964,-0.256348,-0.134039,1,-0.016021, 0.002634, 0.005294,1,-0.310883, 0.381063, 9.794311,1,0
1778257724389,  2660.498,  2660.498, 0.027899,-0.017457,-0.979255, 0.000290,-0.000179,-0.009811,-0.037728, 0.203028, 0.191349,1,-0.031895, 0.000173,-0.003367,1,-0.311330, 0.373222, 9.794599,1,0
1778257724414,  2660.523,  2660.523, 0.038470,-0.030334,-0.992042, 0.000377,-0.000240,-0.009913, 0.065313, 0.070573, 0.066161,1,-0.035178, 0.002746,-0.005802,1,-0.312040, 0.366942, 9.794813,1,0
1778257724436,  2660.548,  2660.543, 0.036863,-0.048949,-0.998710, 0.000359,-0.000537,-0.010018, 0.024337,-0.238935,-0.057048,1,-0.033696,-0.001756, 0.001574,1,-0.311825, 0.360541, 9.795058,1,0
1778257724459,  2660.568,  2660.568, 0.048023,-0.012948,-0.986246, 0.000480,-0.000130,-0.009847, 0.158631, 0.223562, 0.123635,1,-0.043840, 0.000428, 0.001701,1,-0.312330, 0.349175, 9.795454,1,0
1778257724484,  2660.593,  2660.593, 0.046500,-0.027426,-0.996851, 0.000457,-0.000238,-0.009951, 0.143805, 0.074024, 0.019910,1,-0.043910, 0.002432, 0.001739,1,-0.312275, 0.341618, 9.795722,1,0
1778257724506,  2660.618,  2660.613, 0.056115,-0.036005,-0.999146, 0.000559,-0.000384,-0.009995, 0.224015,-0.083131, 0.003992,1,-0.049349,-0.001240, 0.010156,1,-0.312277, 0.333186, 9.796012,1,0
1778257724529,  2660.643,  2660.638, 0.063621,-0.023231,-0.991966, 0.000631,-0.000233,-0.009922, 0.311697, 0.091256, 0.068621,1,-0.057638, 0.002009, 0.017451,1,-0.312260, 0.317296, 9.796540,1,0
1778257724555,  2660.663,  2660.663, 0.061644,-0.042714,-0.996279, 0.000630,-0.000407,-0.009961, 0.292039,-0.111499, 0.026692,1,-0.062519, 0.001217, 0.012214,1,-0.312507, 0.305441, 9.796909,1,0
1778257724576,  2660.688,  2660.683, 0.059496,-0.050530,-0.996403, 0.000591,-0.000542,-0.009973, 0.259432,-0.282569, 0.046219,1,-0.059138, 0.006086, 0.008815,1,-0.313376, 0.294084, 9.797229,1,0
1778257724599,  2660.713,  2660.708, 0.061286,-0.027375,-0.999398, 0.000609,-0.000290,-0.009992, 0.287045, 0.012818,-0.003158,1,-0.044130, 0.002031, 0.001050,1,-0.314024, 0.279902, 9.797624,1,0
1778257724625,  2660.733,  2660.733, 0.063598,-0.038371,-0.990190, 0.000640,-0.000375,-0.009915, 0.309552,-0.103267, 0.087366,1,-0.037925,-0.000342,-0.007346,1,-0.314127, 0.271832, 9.797848,1,0
1778257724646,  2660.758,  2660.753, 0.058001,-0.048635,-0.989533, 0.000584,-0.000485,-0.009896, 0.283316,-0.247060, 0.070856,1,-0.035955, 0.001654,-0.012925,1,-0.314779, 0.265877, 9.797990,1,0
1778257724669,  2660.783,  2660.778, 0.054227,-0.085330,-0.952266, 0.000568,-0.000756,-0.009562, 0.215763,-0.581417, 0.459689,1,-0.007990, 0.007914,-0.021133,1,-0.316288, 0.255111, 9.798227,1,0
1778257724695,  2660.803,  2660.803, 0.133907, 0.026366,-0.952536, 0.001413,-0.000009,-0.009768, 0.995454, 0.505194, 0.457211,1,-0.071995, 0.013134,-0.031202,1,-0.318158, 0.244352, 9.798441,1,0
1778257724716,  2660.828,  2660.823, 0.068203,-0.121935,-1.054318, 0.000723,-0.001217,-0.010609, 0.895428,-0.617786,-0.928075,1,-0.085928, 0.015682,-0.024675,1,-0.321498, 0.229105, 9.798700,1,0
1778257724739,  2660.853,  2660.848, 0.050131,-0.047758,-0.928132, 0.000485,-0.000603,-0.009414, 0.168841,-0.264893, 0.697358,1,-0.117683,-0.004271,-0.011920,1,-0.322647, 0.199771, 9.799305,1,0
1778257724765,  2660.873,  2660.873, 0.089309, 0.014710,-0.948639, 0.000865, 0.000154,-0.009375, 0.552967, 0.317914, 0.496820,1,-0.170027, 0.005098,-0.019945,1,-0.323024, 0.168338, 9.799883,1,0
1778257724786,  2660.898,  2660.893, 0.137813,-0.053718,-1.028465, 0.001394,-0.000553,-0.010342, 0.969555,-0.221457,-0.351955,1,-0.209647, 0.024475,-0.026615,1,-0.326732, 0.128511, 9.800363,1,0
1778257724809,  2660.923,  2660.918, 0.143224,-0.058193,-0.977974, 0.001429,-0.000568,-0.009759, 1.069025,-0.503336, 0.210021,1,-0.242884, 0.033853,-0.001611,1,-0.336583, 0.059768, 9.800690,1,0
1778257724835,  2660.943,  2660.943, 0.145655,-0.033411,-1.009348, 0.001426,-0.000405,-0.009899, 1.087578,-0.309468,-0.097618,1,-0.255350, 0.028414,-0.014894,1,-0.341719, 0.010240, 9.800689,1,0
1778257724856,  2660.968,  2660.963, 0.215717,-0.007053,-1.026004, 0.002075,-0.000006,-0.010114, 1.460374,-0.177488,-0.614255,1,-0.254628, 0.025970,-0.030528,1,-0.345910,-0.040014, 9.800466,1,0
1778257724883,  2660.993,  2660.993, 0.208339,-0.011424,-0.971565, 0.002053,-0.000101,-0.009702, 1.691003,-0.218648, 0.271942,1,-0.241323, 0.032218,-0.029361,1,-0.353103,-0.114180, 9.799625,1,0
1778257724905,  2661.013,  2661.013, 0.211973, 0.012102,-0.963547, 0.002101, 0.000080,-0.009579, 1.718942,-0.034913, 0.349676,1,-0.231490, 0.045921,-0.031010,1,-0.361221,-0.160848, 9.798675,1,0
1778257724927,  2661.038,  2661.033, 0.212038, 0.030461,-1.029750, 0.002107, 0.000326,-0.010304, 1.721650, 0.225404,-0.302531,1,-0.227545, 0.048515,-0.033140,1,-0.370349,-0.206124, 9.797486,1,0
1778257724954,  2661.063,  2661.063, 0.223274,-0.014219,-0.977609, 0.002181,-0.000104,-0.009739, 1.809423,-0.398120, 0.208796,1,-0.154633, 0.018088,-0.052668,1,-0.380665,-0.263563, 9.795714,1,0
1778257724975,  2661.088,  2661.083, 0.287993, 0.037689,-1.011379, 0.002901, 0.000359,-0.010155, 2.407220,-0.010306,-0.125597,1,-0.104667,-0.000147,-0.079101,1,-0.380519,-0.285820, 9.795095,1,0
1778257724997,  2661.108,  2661.103, 0.298687, 0.036562,-0.982343, 0.002998, 0.000354,-0.009832, 2.537925, 0.160104, 0.117007,1,-0.075153, 0.031163,-0.074223,1,-0.383956,-0.303879, 9.794417,1,0
1778257725024,  2661.133,  2661.133, 0.262260, 0.012284,-0.998500, 0.002657, 0.000128,-0.009982, 2.178988,-0.198027, 0.001654,1,-0.031068, 0.033934,-0.086164,1,-0.393870,-0.319567, 9.793525,1,0
1778257725045,  2661.158,  2661.153, 0.238935,-0.024011,-1.041941, 0.002407,-0.000255,-0.010435, 1.965735,-0.402815,-0.366074,1,-0.005508, 0.035901,-0.102450,1,-0.400585,-0.321401, 9.793193,1,0
1778257725067,  2661.173,  2661.173, 0.233208,-0.024467,-1.016438, 0.002328,-0.000233,-0.010171, 1.881866,-0.559500,-0.174788,1, 0.026184, 0.032546,-0.121471,1,-0.406010,-0.318903, 9.793051,1,0
1778257725094,  2661.203,  2661.203, 0.256804, 0.030705,-0.965733, 0.002564, 0.000303,-0.009609, 2.105704,-0.008487, 0.322463,1, 0.038759, 0.021481,-0.120686,1,-0.413230,-0.308551, 9.793080,1,0
1778257725115,  2661.228,  2661.223, 0.241695, 0.008267,-1.034376, 0.002461, 0.000147,-0.010386, 2.029014,-0.044751,-0.336636,1, 0.038852, 0.007730,-0.114399,1,-0.414894,-0.302557, 9.793197,1,0
1778257725137,  2661.248,  2661.243, 0.223807,-0.065135,-0.975156, 0.002191,-0.000659,-0.009804, 1.730241,-0.795940,-0.248677,1, 0.045689,-0.007404,-0.127823,1,-0.413064,-0.294959, 9.793506,1,0
1778257725164,  2661.273,  2661.273, 0.244238, 0.016766,-0.911335, 0.002496, 0.000048,-0.009099, 1.983533,-0.116769, 0.856823,1, 0.052342,-0.010730,-0.149469,1,-0.411157,-0.279756, 9.794032,1,0
1778257725185,  2661.298,  2661.293, 0.188849, 0.026871,-1.044225, 0.001919, 0.000322,-0.010465, 1.645168, 0.242145,-0.246699,1, 0.039779,-0.023914,-0.119151,1,-0.406573,-0.272975, 9.794415,1,0
1778257725207,  2661.318,  2661.313, 0.174668,-0.048689,-0.970173, 0.001756,-0.000505,-0.009766, 1.223699,-0.487889,-0.286246,1, 0.051183,-0.020120,-0.119565,1,-0.401231,-0.265549, 9.794840,1,0
1778257725234,  2661.343,  2661.343, 0.164720, 0.071753,-0.867224, 0.001698, 0.000607,-0.008720, 1.219676, 0.454859, 1.290938,1, 0.059699,-0.024698,-0.154800,1,-0.394796,-0.247091, 9.795584,1,0
1778257725255,  2661.368,  2661.363, 0.144556,-0.045176,-0.989063, 0.001431,-0.000277,-0.009929, 1.074103, 0.174575, 0.121920,1, 0.035415,-0.007759,-0.122264,1,-0.391068,-0.240001, 9.795910,1,0
1778257725277,  2661.388,  2661.383, 0.071945,-0.082185,-0.972617, 0.000733,-0.000892,-0.009718, 0.871328,-1.338261, 0.001857,1, 0.052326, 0.036966,-0.139561,1,-0.395880,-0.231866, 9.795913,1,0
1778257725304,  2661.413,  2661.413, 0.007669, 0.059262,-0.950784, 0.000019, 0.000601,-0.009443,-0.325245, 0.365189, 0.472084,1, 0.059077, 0.049450,-0.148134,1,-0.401887,-0.214324, 9.796067,1,0
1778257725326,  2661.438,  2661.433, 0.059119,-0.080185,-0.886565, 0.000754,-0.000997,-0.009328, 0.506557,-0.792026, 0.860527,1, 0.079397, 0.116624,-0.134805,1,-0.418971,-0.199723, 9.795660,1,0
1778257725347,  2661.458,  2661.453,-0.049393,-0.021948,-1.043444,-0.000460,-0.000213,-0.009933,-0.308767,-1.118631, 0.550773,1, 0.086850, 0.067087,-0.191411,1,-0.433596,-0.182829, 9.795354,1,0
1778257725374,  2661.483,  2661.483,-0.149124, 0.028718,-1.044897,-0.001417, 0.000289,-0.010798,-1.912434, 0.124189,-0.451890,1, 0.110651, 0.050469,-0.192134,1,-0.451508,-0.154259, 9.795036,1,0
1778257725396,  2661.508,  2661.503,-0.201675,-0.071240,-0.919772,-0.002143,-0.000717,-0.009174,-2.528509,-1.266107,-0.204589,1, 0.116014,-0.042417,-0.229534,1,-0.448319,-0.134422, 9.795475,1,0
1778257725418,  2661.528,  2661.528,-0.079705,-0.001194,-0.853203,-0.000869, 0.000018,-0.008201,-1.212167,-0.115230, 1.429580,1, 0.105565,-0.071177,-0.239347,1,-0.428227,-0.100554, 9.796780,1,0
1778257725444,  2661.553,  2661.553,-0.006561,-0.012860,-1.416187,-0.000110, 0.000064,-0.013893,-0.488901,-0.217205,-4.091023,1, 0.065196, 0.015175,-0.216046,1,-0.424963,-0.089349, 9.797030,1,0
1778257725466,  2661.578,  2661.573, 0.096558,-0.076760,-0.895862, 0.000733,-0.000924,-0.009178, 0.029592,-1.384667,-1.399252,1, 0.117284, 0.055476,-0.253946,1,-0.433342,-0.072844, 9.796800,1,0
1778257725488,  2661.598,  2661.598, 0.133467, 0.005503,-0.800255, 0.001289, 0.000096,-0.007767, 0.858772, 0.018340, 1.948428,1, 0.145538, 0.083417,-0.269429,1,-0.452659,-0.031474, 9.796146,1,0
1778257725514,  2661.623,  2661.623, 0.098522,-0.127547,-1.015012, 0.001120,-0.001213,-0.010131, 0.501594,-1.262429,-0.158232,1, 0.140410, 0.049764,-0.285127,1,-0.466122,-0.007658, 9.795563,1,0
1778257725536,  2661.648,  2661.643, 0.138813,-0.005405,-0.929549, 0.001384,-0.000207,-0.009427, 0.631446,-0.951395,-0.241389,1, 0.171093, 0.034228,-0.343168,1,-0.473635, 0.021706, 9.795181,1,0
1778257725559,  2661.668,  2661.668, 0.113155,-0.003215,-1.034941, 0.001157, 0.000089,-0.010248, 0.633597, 0.022282,-0.354368,1, 0.102919, 0.007086,-0.285971,1,-0.476341, 0.056581, 9.794911,1,0
1778257725584,  2661.693,  2661.693, 0.029553,-0.131812,-1.079078, 0.000243,-0.001225,-0.010590,-0.185539,-1.220613,-0.787280,1, 0.118184, 0.003583,-0.316302,1,-0.475543, 0.075224, 9.794825,1,0
1778257725606,  2661.718,  2661.713, 0.106296, 0.097836,-0.924666, 0.000969, 0.000967,-0.009075, 0.423380, 0.500581, 0.694014,1, 0.117448,-0.012345,-0.330037,1,-0.476361, 0.095980, 9.794603,1,0
1778257725629,  2661.738,  2661.738, 0.053185,-0.093597,-1.061658, 0.000590,-0.000724,-0.010597, 0.047800,-0.805324,-0.616759,1, 0.074199,-0.012806,-0.255260,1,-0.473523, 0.114499, 9.794542,1,0
1778257725654,  2661.763,  2661.763, 0.100476,-0.084140,-1.023790, 0.000988,-0.001054,-0.010438, 0.509296,-0.699038,-0.245677,1, 0.093378, 0.006780,-0.312966,1,-0.476372, 0.128536, 9.794230,1,0
1778257725676,  2661.788,  2661.783, 0.091946, 0.043807,-0.964655, 0.001142, 0.000619,-0.009717, 0.976688, 1.288131, 0.523373,1, 0.068451, 0.006911,-0.264799,1,-0.478384, 0.143030, 9.793930,1,0
1778257725699,  2661.808,  2661.808, 0.078777,-0.172711,-1.090810, 0.000695,-0.001752,-0.010890, 0.292499,-1.530068,-0.903663,1, 0.117131, 0.018538,-0.277996,1,-0.480758, 0.166871, 9.793437,1,0
1778257725724,  2661.833,  2661.833, 0.100432, 0.077840,-0.939257, 0.000956, 0.000595,-0.009335, 0.501856, 0.948482, 0.582027,1, 0.106839, 0.008239,-0.281361,1,-0.483466, 0.188035, 9.792920,1,0
1778257725746,  2661.858,  2661.853, 0.089586,-0.155376,-1.038234, 0.000753,-0.001442,-0.010492, 0.219164, 0.027487, 0.118186,1, 0.094679,-0.010129,-0.213417,1,-0.481404, 0.203802, 9.792706,1,0
1778257725769,  2661.883,  2661.878, 0.143705,-0.049217,-0.916854, 0.001398,-0.000684,-0.009091, 0.924973,-0.249469, 0.800644,1, 0.131470,-0.013619,-0.287267,1,-0.484076, 0.236837, 9.791831,1,0
1778257725795,  2661.903,  2661.903, 0.196997, 0.052154,-0.986796, 0.002118, 0.000632,-0.009993, 1.451268, 0.762982, 0.114468,1, 0.095381,-0.031222,-0.225884,1,-0.479817, 0.254153, 9.791607,1,0
1778257725816,  2661.928,  2661.923, 0.231303,-0.156118,-0.898854, 0.002274,-0.001631,-0.008804, 1.994484,-1.796163,-0.322298,1, 0.114695,-0.013546,-0.252364,1,-0.480360, 0.274048, 9.791043,1,0
1778257725839,  2661.953,  2661.948, 0.281796, 0.048515,-0.920565, 0.002904, 0.000564,-0.009333, 2.289384, 0.779830, 0.762801,1, 0.096090,-0.046818,-0.246749,1,-0.472871, 0.306688, 9.790441,1,0
1778257725865,  2661.973,  2661.973, 0.274597,-0.184550,-1.047360, 0.002896,-0.001894,-0.010748, 2.220770,-1.487872,-0.481112,1, 0.103534,-0.017627,-0.243104,1,-0.471806, 0.324810, 9.789907,1,0
1778257725886,  2661.998,  2661.993, 0.172815,-0.008715,-1.016091, 0.001698, 0.000094,-0.009900, 1.868082, 0.349015,-0.248806,1, 0.095220,-0.066004,-0.269315,1,-0.465975, 0.343967, 9.789532,1,0
1778257725909,  2662.023,  2662.018, 0.130769,-0.143619,-0.993547, 0.001334,-0.001372,-0.009960, 0.825114,-1.042696, 0.045785,1, 0.080374,-0.031799,-0.249222,1,-0.456588, 0.367871, 9.789105,1,0
1778257725935,  2662.043,  2662.043, 0.045288,-0.006784,-1.029211, 0.000429, 0.000012,-0.010091, 0.000450, 0.314179,-0.303907,1, 0.067048,-0.084767,-0.261665,1,-0.441349, 0.382431, 9.789247,1,0
1778257725956,  2662.068,  2662.063, 0.011866,-0.131383,-0.912986, 0.000220,-0.001433,-0.009197, 0.103695,-0.957959, 0.134205,1, 0.078103,-0.038238,-0.250809,1,-0.433758, 0.396671, 9.789019,1,0
1778257725979,  2662.093,  2662.088,-0.055406,-0.088456,-1.075379,-0.000561,-0.000767,-0.010618,-0.958695,-0.454181,-0.756734,1, 0.069800,-0.058761,-0.235178,1,-0.413822, 0.415141, 9.789116,1,0
1778257726005,  2662.113,  2662.113,-0.104043,-0.108240,-0.908844,-0.000862,-0.001234,-0.009446,-1.430259,-0.637121, 0.876168,1, 0.059614,-0.059332,-0.238406,1,-0.408415, 0.425898, 9.788881,1,0
1778257726026,  2662.138,  2662.133,-0.202038,-0.074581,-1.018035,-0.002020,-0.000651,-0.010248,-2.231954, 0.100858,-0.070637,1, 0.028702,-0.058895,-0.238887,1,-0.397395, 0.431996, 9.789067,1,0
1778257726049,  2662.163,  2662.158,-0.246608,-0.077493,-0.835819,-0.002365,-0.000855,-0.008512,-2.810723,-0.330448, 1.592798,1,-0.024617,-0.048127,-0.234733,1,-0.391146, 0.428440, 9.789475,1,0
1778257726075,  2662.183,  2662.183,-0.217339,-0.004204,-0.988345,-0.002155,-0.000104,-0.009848,-2.518072, 0.377148, 0.097737,1,-0.073082,-0.025267,-0.218245,1,-0.386204, 0.415826, 9.790215,1,0
1778257726097,  2662.208,  2662.203,-0.209245,-0.066835,-0.972430,-0.002004,-0.000714,-0.009920,-2.050013,-0.210452,-0.750748,1,-0.096292, 0.021553,-0.204877,1,-0.391605, 0.396590, 9.790799,1,0
1778257726123,  2662.233,  2662.233,-0.179165, 0.014398,-0.998005,-0.001847, 0.000100,-0.009912,-2.147648, 0.508840, 0.004882,1,-0.116576,-0.006341,-0.198169,1,-0.390676, 0.363764, 9.792110,1,0
1778257726145,  2662.253,  2662.253,-0.135638,-0.020664,-0.995603,-0.001442,-0.000137,-0.009902,-1.724211, 0.140599, 0.029186,1,-0.123512, 0.028667,-0.176290,1,-0.395144, 0.339170, 9.792814,1,0
1778257726167,  2662.278,  2662.273,-0.087788,-0.007873,-0.968140,-0.000949,-0.000141,-0.009654,-1.499493,-0.165624, 0.358827,1,-0.108503,-0.012912,-0.180713,1,-0.395185, 0.315392, 9.793607,1,0
1778257726194,  2662.303,  2662.303,-0.023698, 0.040444,-1.008949,-0.000276, 0.000365,-0.010109,-0.630597, 0.686059,-0.100120,1,-0.092552, 0.002380,-0.159186,1,-0.398422, 0.286355, 9.794368,1,0
1778257726215,  2662.328,  2662.323, 0.020732,-0.048620,-0.994532, 0.000327,-0.000573,-0.010306,-0.124831,-0.282644,-0.895209,1,-0.053686, 0.018169,-0.153816,1,-0.402761, 0.271399, 9.794617,1,0
1778257726237,  2662.348,  2662.343, 0.117210, 0.017759,-0.892481, 0.001041, 0.000216,-0.008798, 0.217639,-0.045076, 0.594677,1,-0.008734,-0.000052,-0.168689,1,-0.402642, 0.265720, 9.794777,1,0
1778257726264,  2662.373,  2662.373, 0.147966,-0.011658,-0.979219, 0.001427,-0.000073,-0.009682, 1.046576, 0.154155, 0.191772,1, 0.028492, 0.007842,-0.150586,1,-0.404848, 0.269175, 9.794592,1,0
1778257726285,  2662.398,  2662.393, 0.192330,-0.069204,-1.123746, 0.001829,-0.000579,-0.011271, 1.678586,-0.404379,-1.720250,1, 0.074400, 0.031586,-0.162082,1,-0.412219, 0.279805, 9.793986,1,0
1778257726307,  2662.418,  2662.413, 0.156522, 0.007906,-0.960935, 0.001613, 0.000054,-0.009697, 1.356574,-0.030291, 0.071467,1, 0.137884, 0.041404,-0.184143,1,-0.418615, 0.299883, 9.793120,1,0
1778257726334,  2662.443,  2662.443,-0.001631, 0.003975,-1.116905,-0.000047, 0.000115,-0.010921,-0.436205, 0.371700,-1.161102,1, 0.126477,-0.001730,-0.150509,1,-0.420312, 0.336462, 9.791860,1,0
1778257726355,  2662.468,  2662.463, 0.024177,-0.040935,-0.975123, 0.000196,-0.000465,-0.009853,-0.964517,-0.592461,-0.839239,1, 0.159889,-0.001691,-0.166386,1,-0.418883, 0.364051, 9.790934,1,0
1778257726377,  2662.488,  2662.483, 0.083938, 0.054049,-0.913442, 0.000837, 0.000506,-0.009001, 0.000414, 0.794507, 1.759225,1, 0.164086,-0.035004,-0.151128,1,-0.415039, 0.396214, 9.789849,1,0
1778257726404,  2662.513,  2662.513, 0.108716,-0.125795,-1.072369, 0.001045,-0.001151,-0.010672, 0.656333,-0.802607,-0.727755,1, 0.150162,-0.010693,-0.124294,1,-0.409647, 0.435537, 9.788405,1,0
1778257726425,  2662.538,  2662.533, 0.208769,-0.038557,-0.775682, 0.002114,-0.000359,-0.007675, 1.811870,-0.382282, 0.999942,1, 0.164962,-0.009901,-0.156211,1,-0.412186, 0.466468, 9.786874,1,0
1778257726447,  2662.558,  2662.553, 0.239485,-0.097123,-0.785085, 0.002407,-0.000925,-0.008057, 1.813790, 0.005683, 2.207655,1, 0.127647,-0.044509,-0.132078,1,-0.407175, 0.494245, 9.785720,1,0
1778257726474,  2662.583,  2662.583, 0.190440,-0.046736,-1.787458, 0.001852,-0.000831,-0.016673, 1.476183, 0.059690,-7.743840,1, 0.006227, 0.024166,-0.141883,1,-0.392377, 0.518027, 9.785094,1,0
1778257726495,  2662.608,  2662.603, 0.273708,-0.045261,-0.631729, 0.002847,-0.000680,-0.006949, 1.737080,-0.156041, 0.245363,1, 0.105327, 0.070202,-0.092797,1,-0.408909, 0.536991, 9.783395,1,0
1778257726517,  2662.628,  2662.623, 0.340261,-0.124351,-1.094388, 0.003331,-0.001001,-0.010251, 2.647367, 0.618309, 2.165548,1, 0.052267, 0.002650,-0.101828,1,-0.409663, 0.552327, 9.782510,1,0
1778257726544,  2662.653,  2662.653, 0.305460,-0.089388,-0.909671, 0.003143,-0.001289,-0.009762, 2.568538,-0.312959, 0.860294,1, 0.059843, 0.057059,-0.141030,1,-0.429028, 0.565314, 9.780937,1,0
1778257726566,  2662.678,  2662.673, 0.179629,-0.125214,-0.846871, 0.002014,-0.001184,-0.008660, 1.688776,-1.380994, 0.754762,1, 0.042290, 0.042737,-0.127367,1,-0.437804, 0.573279, 9.780085,1,0
1778257726587,  2662.698,  2662.693, 0.067901,-0.060020,-1.002666, 0.000880,-0.000399,-0.009917, 0.661993, 0.145294, 1.238821,1, 0.000014, 0.004696,-0.132783,1,-0.442841, 0.574852, 9.779766,1,0
1778257726614,  2662.723,  2662.723, 0.052693,-0.184377,-1.019298, 0.000678,-0.001850,-0.010631, 0.070604,-1.242675,-0.215739,1,-0.024374, 0.011008,-0.162018,1,-0.446772, 0.564456, 9.780192,1,0
1778257726636,  2662.748,  2662.743, 0.050494,-0.191004,-1.080964, 0.000452,-0.001860,-0.010376, 0.116507,-0.472222, 0.422532,1,-0.068981,-0.009342,-0.167921,1,-0.448946, 0.550103, 9.780910,1,0
1778257726658,  2662.768,  2662.768, 0.057838,-0.151824,-0.940921, 0.000605,-0.001603,-0.009402, 0.106445,-0.965104, 0.554525,1,-0.096048, 0.050481,-0.215178,1,-0.462686, 0.520475, 9.781892,1,0
1778257726684,  2662.793,  2662.793, 0.059844,-0.158255,-0.959378, 0.000447,-0.001291,-0.009210, 0.115937,-1.050617, 0.374216,1,-0.125413, 0.059382,-0.218118,1,-0.473126, 0.497105, 9.782608,1,0
1778257726706,  2662.818,  2662.813,-0.012719,-0.104905,-0.983625,-0.000053,-0.001180,-0.009865,-0.509833,-1.148199, 0.231686,1,-0.152756, 0.041199,-0.240229,1,-0.484558, 0.469344, 9.783420,1,0
1778257726729,  2662.838,  2662.838,-0.037389,-0.064824,-1.150343,-0.000332,-0.000847,-0.011716,-0.858877,-0.212384,-1.495876,1,-0.183573, 0.031137,-0.232688,1,-0.493501, 0.417238, 9.785334,1,0
1778257726754,  2662.863,  2662.863,-0.003148,-0.036676,-0.948868, 0.000003,-0.000358,-0.009709,-0.531975, 0.022499, 0.481161,1,-0.200729, 0.012751,-0.230706,1,-0.501787, 0.375550, 9.786601,1,0
1778257726776,  2662.888,  2662.883,-0.020732,-0.090846,-0.950016,-0.000291,-0.000789,-0.009394,-0.463669,-0.355920,-0.711737,1,-0.259042, 0.022938,-0.209136,1,-0.508528, 0.323403, 9.788115,1,0
1778257726799,  2662.908,  2662.908,-0.037332,-0.039509,-0.859440,-0.000370,-0.000431,-0.008221,-0.881422,-0.139695, 1.361734,1,-0.303113, 0.011224,-0.192951,1,-0.515822, 0.237995, 9.790182,1,0
1778257726824,  2662.933,  2662.933,-0.083825,-0.015414,-1.074585,-0.000812,-0.000076,-0.010373,-1.340129, 0.036976,-0.746937,1,-0.299583, 0.031374,-0.198034,1,-0.519179, 0.178473, 9.791271,1,0
1778257726846,  2662.958,  2662.953,-0.163580,-0.019222,-1.040598,-0.001708,-0.000262,-0.010118,-2.255113,-0.365935, 0.596212,1,-0.235837, 0.001940,-0.205177,1,-0.520951, 0.127490, 9.791973,1,0
1778257726869,  2662.978,  2662.978,-0.118385, 0.020598,-1.075529,-0.001304, 0.000116,-0.010692,-1.677164, 0.277041,-0.754567,1,-0.154298,-0.026537,-0.210655,1,-0.515423, 0.069892, 9.792847,1,0
1778257726894,  2663.003,  2663.003,-0.062981,-0.024840,-0.949239,-0.000831,-0.000352,-0.009404,-1.127404,-0.192116, 0.484397,1,-0.084888,-0.027763,-0.214089,1,-0.508944, 0.048483, 9.793315,1,0
1778257726916,  2663.028,  2663.023, 0.016739, 0.047036,-1.185612, 0.000292, 0.000429,-0.011930,-0.687690,-0.049993,-0.631476,1,-0.045797,-0.012815,-0.232475,1,-0.502758, 0.037683, 9.793681,1,0
1778257726939,  2663.048,  2663.048, 0.014611,-0.020448,-1.021322, 0.000143,-0.000367,-0.010605,-0.359711,-0.161893,-0.222083,1, 0.076071, 0.006443,-0.244822,1,-0.503227, 0.040612, 9.793646,1,0
1778257726964,  2663.073,  2663.073, 0.061597,-0.007226,-0.900637, 0.000408,-0.000290,-0.008584, 0.101675,-0.015801, 0.961387,1, 0.094490, 0.001069,-0.255026,1,-0.502464, 0.057601, 9.793600,1,0
1778257726986,  2663.098,  2663.093, 0.178402,-0.071991,-1.163867, 0.001656,-0.000594,-0.011346, 0.530174,-0.053962,-0.420970,1, 0.110373, 0.043301,-0.215014,1,-0.505505, 0.074998, 9.793325,1,0
1778257727009,  2663.123,  2663.118, 0.144386, 0.047607,-0.990932, 0.001268, 0.000263,-0.009889, 0.904979, 0.578412, 0.074969,1, 0.159457,-0.019560,-0.272296,1,-0.510454, 0.116072, 9.792668,1,0
1778257727035,  2663.143,  2663.143, 0.228715, 0.063529,-0.951883, 0.002202, 0.000793,-0.009547, 1.733175, 0.760279, 0.457650,1, 0.135533, 0.034001,-0.210821,1,-0.510848, 0.141105, 9.792318,1,0
1778257727056,  2663.168,  2663.163, 0.255951,-0.031400,-0.990317, 0.002542,-0.000406,-0.009438, 2.280930,-1.148814, 1.609241,1, 0.169478,-0.016633,-0.215347,1,-0.515483, 0.169860, 9.791619,1,0
1778257727079,  2663.193,  2663.188, 0.372304, 0.123437,-1.200739, 0.003530, 0.001372,-0.012085, 3.147576, 1.414824,-1.983639,1, 0.110569, 0.003154,-0.139820,1,-0.503672, 0.207547, 9.791508,1,0
1778257727105,  2663.213,  2663.213, 0.364309,-0.101890,-0.925890, 0.003562,-0.000981,-0.009151, 3.068954,-0.767122, 0.711078,1, 0.177070,-0.026130,-0.102359,1,-0.502961, 0.237427, 9.790865,1,0
1778257727126,  2663.238,  2663.233, 0.420807, 0.153556,-1.134191, 0.004038, 0.001732,-0.010990, 2.645133, 1.522195,-0.493983,1, 0.125489,-0.008048,-0.097903,1,-0.494229, 0.260970, 9.790710,1,0
1778257727149,  2663.263,  2663.258, 0.234517, 0.006208,-1.083759, 0.002408, 0.000222,-0.010480, 1.802019, 0.349376,-0.838288,1, 0.095199,-0.073348,-0.084606,1,-0.495600, 0.291329, 9.789785,1,0
1778257727175,  2663.283,  2663.283, 0.316865,-0.055398,-1.244020, 0.003108,-0.000415,-0.012660, 2.622870,-0.242794,-2.409601,1, 0.051103,-0.037973, 0.053833,1,-0.483283, 0.302147, 9.790073,1,0
1778257727196,  2663.308,  2663.303, 0.409394, 0.092120,-0.681259, 0.003898, 0.000828,-0.006691, 3.165823, 0.121178, 2.631578,1, 0.055148, 0.016641, 0.092593,1,-0.482159, 0.317585, 9.789639,1,0
1778257727219,  2663.333,  2663.328, 0.366569, 0.086502,-0.907691, 0.003750, 0.001181,-0.008620, 3.098171, 1.174930, 0.887209,1, 0.008731, 0.067625, 0.062414,1,-0.498685, 0.327002, 9.788502,1,0
1778257727245,  2663.353,  2663.353, 0.354363,-0.016504,-0.870224, 0.003650,-0.000329,-0.008865, 2.963971, 0.164928, 1.253882,1,-0.024521, 0.050248, 0.105582,1,-0.512598, 0.326185, 9.787810,1,0
1778257727266,  2663.378,  2663.373, 0.058631,-0.022019,-0.840809, 0.000589,-0.000026,-0.007717, 0.505582, 0.575862, 4.006642,1,-0.085655,-0.081540, 0.173352,1,-0.501208, 0.320270, 9.788595,1,0
1778257727289,  2663.403,  2663.398,-0.091287,-0.085349,-1.597016,-0.000806,-0.000779,-0.013393,-1.371083,-0.539914,-5.870788,1,-0.176955,-0.043758, 0.148664,1,-0.474358, 0.291788, 9.790824,1,0
1778257727315,  2663.423,  2663.423, 0.281302,-0.076792,-2.339665, 0.003355,-0.001121,-0.025894, 2.255036,-0.483927,-13.154266,1,-0.081642, 0.260756, 0.091171,1,-0.511642, 0.266743, 9.789660,1,0
1778257727336,  2663.448,  2663.443, 0.157599, 0.171095, 0.436189, 0.002345, 0.000758, 0.002272, 1.157030, 1.027411,13.796807,1, 0.148120, 0.037527, 0.098679,1,-0.535391, 0.292654, 9.787650,1,0
1778257727363,  2663.473,  2663.473, 0.108822,-0.177775,-1.034869, 0.000734,-0.000791,-0.007654, 0.542697,-1.458177,-0.360138,1,-0.071938, 0.038247, 0.085988,1,-0.525594, 0.283103, 9.788462,1,0
1778257727385,  2663.493,  2663.493,-0.099678,-0.180032,-1.933513,-0.001140,-0.002523,-0.020066,-1.505769,-1.495040,-9.172612,1,-0.029505, 0.024897, 0.045108,1,-0.529000, 0.269623, 9.788659,1,0
1778257727407,  2663.518,  2663.513,-0.097922,-0.049511,-0.733512,-0.001493,-0.000037,-0.006531,-2.641759,-0.409968,-1.255036,1, 0.010443, 0.025734, 0.068440,1,-0.532725, 0.275903, 9.788282,1,0
1778257727434,  2663.543,  2663.543,-0.188354, 0.080419,-0.491718,-0.001353, 0.000435,-0.005824,-2.372583, 1.085635, 4.965948,1, 0.061512,-0.112559,-0.027337,1,-0.522092, 0.298900, 9.788179,1,0
1778257727455,  2663.568,  2663.563,-0.280713,-0.097262,-1.270113,-0.003170,-0.000763,-0.012771,-3.829555,-0.621031,-3.067337,1, 0.033617,-0.068012,-0.025510,1,-0.506558, 0.305695, 9.788786,1,0
1778257727477,  2663.588,  2663.583,-0.295848,-0.050420,-0.930022,-0.002574,-0.000840,-0.010569,-3.599000,-1.349029,-1.786108,1, 0.032142,-0.034953, 0.008969,1,-0.494194, 0.309878, 9.789287,1,0
1778257727504,  2663.613,  2663.613,-0.290090, 0.018696,-0.821347,-0.002893, 0.000587,-0.007588,-3.324297, 0.508654, 1.734858,1, 0.092509,-0.070693,-0.034677,1,-0.477316, 0.328137, 9.789529,1,0
1778257727525,  2663.638,  2663.633,-0.269354,-0.042520,-1.077067,-0.002567,-0.000428,-0.011219,-3.175677, 0.200029,-1.641018,1, 0.043779,-0.039496,-0.053987,1,-0.465937, 0.336926, 9.789779,1,0
1778257727547,  2663.658,  2663.653,-0.269748,-0.058980,-0.932026,-0.002421,-0.000635,-0.009645,-3.330337,-0.580513, 0.880528,1, 0.082544,-0.048057,-0.055763,1,-0.456319, 0.352529, 9.789682,1,0
1778257727574,  2663.683,  2663.683,-0.229393, 0.004620,-1.036609,-0.002150, 0.000036,-0.010691,-2.687867, 0.423561,-0.376116,1, 0.134550,-0.077317,-0.062741,1,-0.435951, 0.382355, 9.789491,1,0
1778257727595,  2663.708,  2663.703,-0.138598,-0.048077,-1.064034,-0.001485,-0.000382,-0.010215,-1.877294, 0.429260,-0.334625,1, 0.146585,-0.085179,-0.062699,1,-0.422706, 0.407602, 9.789053,1,0
1778257727617,  2663.728,  2663.723, 0.003995, 0.008332,-0.955107,-0.000003, 0.000055,-0.009997,-0.558632, 0.433166,-1.313645,1, 0.173007,-0.047922,-0.079278,1,-0.412221, 0.437470, 9.788211,1,0
1778257727644,  2663.753,  2663.753, 0.070523,-0.035906,-0.799341, 0.000788,-0.000278,-0.007963, 0.291843, 0.131916, 1.947675,1, 0.179273,-0.071337,-0.037076,1,-0.397582, 0.489569, 9.786349,1,0
1778257727665,  2663.778,  2663.773, 0.136876, 0.021680,-1.141748, 0.001388, 0.000213,-0.011605, 0.982308, 0.435953,-1.775971,1, 0.156847,-0.037901,-0.035083,1,-0.388144, 0.522450, 9.785028,1,0
1778257727687,  2663.798,  2663.793, 0.097638,-0.048474,-0.838864, 0.001051,-0.000264,-0.008157, 1.353053, 0.746514,-0.028270,1, 0.171937,-0.005788,-0.011087,1,-0.388906, 0.556675, 9.783111,1,0
1778257727714,  2663.823,  2663.823, 0.084025,-0.013680,-1.157022, 0.000842,-0.000321,-0.011315, 0.447195, 0.468179,-1.565633,1, 0.148038,-0.027070, 0.000121,1,-0.375962, 0.606945, 9.780626,1,0
1778257727735,  2663.848,  2663.843, 0.158364,-0.107831,-0.887749, 0.001584,-0.001022,-0.008979, 1.153187, 0.681714, 0.354419,1, 0.147250,-0.013279, 0.058372,1,-0.374649, 0.635076, 9.778891,1,0
1778257727757,  2663.868,  2663.863, 0.218162,-0.007611,-1.063536, 0.001955,-0.000319,-0.010255, 1.352843,-0.333726, 0.969088,1, 0.136920,-0.054352, 0.033547,1,-0.363231, 0.663646, 9.777424,1,0
1778257727784,  2663.893,  2663.893, 0.222236,-0.015918,-0.908417, 0.002337,-0.000041,-0.009392, 1.822506, 0.533523, 0.867330,1, 0.080477,-0.039190, 0.140093,1,-0.355355, 0.692292, 9.775727,1,0
1778257727806,  2663.918,  2663.913, 0.236157, 0.039420,-1.136898, 0.002275, 0.000074,-0.011395, 1.485131,-0.179522, 0.053316,1, 0.082232,-0.040030, 0.089517,1,-0.343405, 0.709844, 9.774896,1,0
1778257727827,  2663.938,  2663.933, 0.292913,-0.109918,-0.966544, 0.002857,-0.000848,-0.009738, 1.837018, 1.605569,-0.092842,1, 0.048341,-0.012486, 0.139215,1,-0.338456, 0.718209, 9.774457,1,0
1778257727854,  2663.963,  2663.963, 0.443774,-0.024203,-1.019565, 0.004181,-0.000599,-0.010037, 4.011668, 0.490444,-0.224835,1,-0.009884, 0.058012, 0.110788,1,-0.341816, 0.727604, 9.773645,1,0
1778257727876,  2663.988,  2663.983, 0.527790,-0.118594,-0.831863, 0.005322,-0.001145,-0.007865, 4.452458, 1.242532, 0.833803,1, 0.011396, 0.081559, 0.134350,1,-0.348706, 0.729163, 9.773286,1,0
1778257727898,  2664.008,  2664.008, 0.515404,-0.085867,-1.072278, 0.005358,-0.000735,-0.009947, 4.651333,-0.121066,-0.743660,1,-0.079026, 0.170741, 0.183391,1,-0.407947, 0.718776, 9.771762,1,0
1778257727924,  2664.033,  2664.033,-0.050007,-0.059836,-1.356258,-0.000331,-0.000792,-0.013453,-0.906262, 0.115475,-3.527725,1,-0.165786, 0.043778, 0.245196,1,-0.416672, 0.697433, 9.772940,1,0
1778257727946,  2664.058,  2664.053, 0.154432, 0.018284,-0.817910, 0.001102,-0.000247,-0.008572,-0.689875,-1.022924, 0.181527,1,-0.104132,-0.011514, 0.194036,1,-0.412055, 0.676150, 9.774632,1,0
1778257727969,  2664.078,  2664.078, 0.279993,-0.073255,-0.652797, 0.002469,-0.000042,-0.005557, 2.328975,-0.078556, 3.375117,1,-0.144653, 0.006928, 0.085752,1,-0.416859, 0.635446, 9.777158,1,0
1778257727994,  2664.103,  2664.103, 0.368948,-0.113298,-1.058262, 0.003776,-0.001364,-0.011313, 3.201051,-0.505474,-0.598968,1,-0.188471, 0.014185, 0.149011,1,-0.417243, 0.599933, 9.779386,1,0
1778257728016,  2664.128,  2664.123, 0.157579,-0.038458,-1.032297, 0.001535,-0.000460,-0.010905, 1.016002,-1.058645,-0.764013,1,-0.096687, 0.057449, 0.159069,1,-0.426106, 0.580692, 9.780165,1,0
1778257728039,  2664.148,  2664.148, 0.077805, 0.010221,-0.881695, 0.000813,-0.000188,-0.009018, 0.331962, 0.659525, 1.134723,1,-0.078178, 0.019804, 0.076323,1,-0.431531, 0.556963, 9.781306,1,0
1778257728064,  2664.173,  2664.173, 0.072653,-0.081619,-1.031052, 0.000429,-0.000633,-0.009360, 0.277612,-0.257402,-0.329226,1,-0.118229, 0.036197, 0.044364,1,-0.435924, 0.539391, 9.782097,1,0
1778257728086,  2664.198,  2664.193, 0.089364,-0.063265,-0.758043, 0.000965,-0.000900,-0.007862, 0.661090,-0.086246, 1.746853,1,-0.062693, 0.034715, 0.071629,1,-0.442178, 0.521819, 9.782769,1,0
1778257728109,  2664.218,  2664.218,-0.022372,-0.049748,-1.053634,-0.000084,-0.000196,-0.010257,-0.664131, 0.003732,-0.548403,1,-0.095823, 0.033897, 0.075516,1,-0.445677, 0.488711, 9.784320,1,0
1778257728134,  2664.243,  2664.243,-0.031043,-0.085828,-1.168784,-0.000388,-0.001262,-0.011610,-0.754050,-0.375488,-1.676625,1,-0.163275, 0.011145, 0.063743,1,-0.449877, 0.461198, 9.785463,1,0
1778257728156,  2664.268,  2664.263,-0.217045, 0.013876,-1.057059,-0.001772,-0.000563,-0.011738,-2.444917, 0.888557, 1.117095,1,-0.105339, 0.020802, 0.071808,1,-0.453364, 0.438971, 9.786325,1,0
1778257728179,  2664.288,  2664.288,-0.244202,-0.028927,-1.059502,-0.002547, 0.000251,-0.009735,-2.853223, 0.120775,-0.602587,1,-0.080522, 0.045461, 0.062877,1,-0.459752, 0.402036, 9.787614,1,0
1778257728205,  2664.313,  2664.313,-0.152839,-0.030220,-1.065535,-0.002002,-0.000637,-0.010708,-1.962750, 0.087991,-0.661207,1,-0.121297, 0.036395, 0.041536,1,-0.464991, 0.380629, 9.788222,1,0
1778257728226,  2664.338,  2664.333,-0.226383,-0.050524,-1.173722,-0.002732,-0.000707,-0.010998,-3.322610,-0.027508, 1.239911,1,-0.046512,-0.028023, 0.028417,1,-0.463586, 0.370197, 9.788689,1,0
1778257728249,  2664.363,  2664.358,-0.219025,-0.009507,-0.943892,-0.002053,-0.000170,-0.009999,-2.608002, 0.266218, 0.532833,1,-0.027419,-0.045227, 0.005334,1,-0.458684, 0.358599, 9.789351,1,0
1778257728275,  2664.383,  2664.383,-0.209275,-0.057435,-0.942983,-0.001902,-0.000732,-0.009997,-2.502226,-0.206954, 0.542336,1,-0.001435,-0.069876, 0.004359,1,-0.447758, 0.356253, 9.789943,1,0
1778257728296,  2664.408,  2664.403, 0.022143,-0.071535,-0.690879, 0.000467,-0.000886,-0.007819,-0.997089,-0.841823, 1.506240,1,-0.011418,-0.090844,-0.002325,1,-0.430388, 0.351798, 9.790883,1,0
1778257728319,  2664.433,  2664.428, 0.045159,-0.040242,-1.390801, 0.000672,-0.000479,-0.013408, 0.041405,-0.056381,-3.846510,1,-0.066847,-0.056995,-0.066961,1,-0.399748, 0.336087, 9.792733,1,0
1778257728345,  2664.453,  2664.453, 0.060418,-0.037968,-0.642773, 0.000865,-0.000133,-0.006953, 0.194252,-0.048834, 3.489767,1,-0.044235,-0.052140, 0.022259,1,-0.396598, 0.322150, 9.793330,1,0
1778257728366,  2664.478,  2664.473, 0.146760,-0.093392,-1.095762, 0.001369,-0.000867,-0.011506, 0.693291,-1.846216,-2.913378,1,-0.105362, 0.001589,-0.020565,1,-0.388407, 0.299253, 9.794385,1,0
1778257728389,  2664.503,  2664.498, 0.111484,-0.041055,-0.816780, 0.001187,-0.000145,-0.008333, 0.705280,-0.130093, 1.785305,1,-0.101689,-0.034686,-0.042027,1,-0.386958, 0.269297, 9.795312,1,0
1778257728415,  2664.523,  2664.523, 0.022170,-0.140642,-0.937865, 0.000307,-0.001443,-0.009028,-0.164766,-1.131485, 0.598755,1,-0.150474,-0.033357,-0.064679,1,-0.381193, 0.242970, 9.796226,1,0
1778257728436,  2664.548,  2664.543, 0.038396,-0.109561,-0.850148, 0.000554,-0.000896,-0.008734,-0.289051,-1.116398,-1.872032,1,-0.145152, 0.005794,-0.098921,1,-0.378564, 0.213563, 9.797013,1,0
1778257728459,  2664.573,  2664.568, 0.018024,-0.096121,-0.965071, 0.000044,-0.000743,-0.009198,-0.189455,-0.766403, 0.334106,1,-0.150702,-0.057283,-0.097098,1,-0.364473, 0.171404, 9.798375,1,0
1778257728485,  2664.593,  2664.593, 0.071694,-0.108685,-0.972212, 0.000536,-0.000988,-0.009566, 0.344602,-0.916169, 0.264804,1,-0.119958,-0.038269,-0.160596,1,-0.357357, 0.145741, 9.799053,1,0
1778257728506,  2664.618,  2664.613, 0.101009,-0.142249,-0.907665, 0.001002,-0.001313,-0.009655, 0.566523,-1.002041,-1.525445,1,-0.118965,-0.000548,-0.182632,1,-0.351190, 0.123475, 9.799582,1,0
1778257728529,  2664.643,  2664.638,-0.016797,-0.057791,-0.940099,-0.000182,-0.000267,-0.008742,-0.512571,-0.463491, 0.580714,1,-0.065300,-0.018501,-0.197646,1,-0.347340, 0.100988, 9.799976,1,0
1778257728555,  2664.663,  2664.663, 0.049959,-0.169073,-1.029249, 0.000357,-0.001636,-0.010040, 0.141643,-1.568711,-0.293430,1,-0.059024,-0.000766,-0.223051,1,-0.348323, 0.087239, 9.800074,1,0
1778257728577,  2664.688,  2664.683, 0.014662,-0.116782,-1.132002, 0.000302,-0.001179,-0.011364, 0.042278,-0.083242,-0.846139,1,-0.095227, 0.019561,-0.216802,1,-0.348026, 0.072649, 9.800203,1,0
1778257728603,  2664.713,  2664.713, 0.024515,-0.025960,-1.062207, 0.000101, 0.000032,-0.009776,-0.116115,-0.201222,-0.616671,1,-0.082242, 0.045926,-0.247874,1,-0.357996, 0.050511, 9.799983,1,0
1778257728625,  2664.733,  2664.733, 0.098290,-0.164430,-0.919322, 0.000878,-0.001849,-0.009267, 0.595929,-1.576336, 0.784203,1,-0.096733, 0.043043,-0.267673,1,-0.369342, 0.032843, 9.799638,1,0
1778257728647,  2664.758,  2664.753, 0.058216,-0.125106,-1.165377, 0.000541,-0.001221,-0.011914,-0.090631,-0.379807,-0.960514,1,-0.133310, 0.032751,-0.277046,1,-0.370931, 0.009246, 9.799628,1,0
1778257728674,  2664.783,  2664.783,-0.066247,-0.109296,-0.563848,-0.000573,-0.001142,-0.005440,-1.029943,-1.095603, 4.269780,1,-0.130702,-0.012761,-0.283343,1,-0.379864,-0.028194, 9.799250,1,0
1778257728695,  2664.808,  2664.803,-0.075939,-0.062704,-1.238634,-0.000710,-0.000290,-0.012507,-0.783875,-1.591204,-6.272372,1,-0.236802, 0.076906,-0.326916,1,-0.386756,-0.068311, 9.798782,1,0
1778257728717,  2664.828,  2664.823,-0.079212,-0.103588,-1.027323,-0.000804,-0.000809,-0.009210,-0.581945, 0.057996, 0.264816,1,-0.169281, 0.080391,-0.312184,1,-0.404262,-0.098546, 9.797818,1,0
1778257728744,  2664.853,  2664.853, 0.020633,-0.174511,-0.900577,-0.000035,-0.001636,-0.009227,-0.222902,-1.847586, 0.964833,1,-0.103896, 0.099465,-0.379539,1,-0.428180,-0.139966, 9.796298,1,0
1778257728765,  2664.878,  2664.873,-0.098231,-0.090918,-1.071640,-0.001262,-0.000889,-0.010527,-0.915075,-2.659549,-0.572361,1,-0.114844, 0.021942,-0.451875,1,-0.433913,-0.165415, 9.795650,1,0
1778257728787,  2664.898,  2664.893, 0.017652,-0.268443,-0.940171, 0.000000,-0.002157,-0.008857,-0.808902,-0.908245, 0.742017,1,-0.125401, 0.099050,-0.438697,1,-0.450545,-0.192855, 9.794396,1,0
1778257728814,  2664.923,  2664.923, 0.003463,-0.159907,-0.861829,-0.000172,-0.001630,-0.008695,-0.426277,-1.791274, 1.341648,1,-0.063936, 0.003879,-0.602549,1,-0.459933,-0.225997, 9.793251,1,0
1778257728835,  2664.948,  2664.943, 0.115582,-0.297729,-0.924450, 0.000958,-0.003243,-0.008983, 0.874886,-3.550041, 0.121399,1,-0.087096,-0.003603,-0.610921,1,-0.459554,-0.244642, 9.792821,1,0
1778257728857,  2664.968,  2664.963, 0.168409,-0.295209,-1.073328, 0.001713,-0.002687,-0.010113, 1.362426,-2.356270, 0.743025,1,-0.026692,-0.005463,-0.621864,1,-0.455311,-0.258395, 9.792666,1,0
1778257728884,  2664.993,  2664.993, 0.218156,-0.114301,-0.999473, 0.002075,-0.001179,-0.010015, 1.669937,-1.385821,-0.009663,1, 0.065834, 0.142718,-0.828982,1,-0.473194,-0.264093, 9.791666,1,0
1778257728905,  2665.018,  2665.013, 0.102921,-0.268634,-1.138081, 0.000650,-0.002856,-0.010739, 1.272696,-4.070238,-1.705721,1, 0.142683, 0.013965,-0.936314,1,-0.480922,-0.251796, 9.791614,1,0
1778257728927,  2665.038,  2665.033, 0.107407,-0.406199,-1.029229, 0.001009,-0.003887,-0.010476, 0.516343,-3.329401, 0.508979,1, 0.189353, 0.082603,-0.930467,1,-0.492644,-0.229040, 9.791590,1,0
1778257728954,  2665.063,  2665.063, 0.129729,-0.171282,-0.796218, 0.001470,-0.001782,-0.008404, 0.779164,-1.864558, 1.984274,1, 0.256790, 0.011276,-1.027992,1,-0.492789,-0.178461, 9.792635,1,0
1778257728975,  2665.088,  2665.083, 0.163195,-0.282543,-0.941193, 0.001946,-0.002866,-0.009688, 0.585350,-1.824145, 0.641212,1, 0.321347,-0.004851,-1.116481,1,-0.488363,-0.131740, 9.793596,1,0
1778257728997,  2665.108,  2665.103, 0.138163,-0.231064,-0.813181, 0.001321,-0.002607,-0.008396, 1.629476,-4.833254,-1.054245,1, 0.381834,-0.030408,-1.166886,1,-0.483929,-0.072849, 9.794432,1,0
1778257729024,  2665.133,  2665.133, 0.153544,-0.501764,-1.126114, 0.001220,-0.004931,-0.010656, 1.034834,-4.897246,-1.248105,1, 0.442348,-0.052412,-1.251521,1,-0.469366, 0.035293, 9.795347,1,0
1778257729046,  2665.158,  2665.153, 0.146609,-0.378592,-1.159473, 0.001094,-0.004456,-0.011468, 0.156542,-4.378889,-0.519909,1, 0.486501,-0.023221,-1.287669,1,-0.466256, 0.115072, 9.794884,1,0
1778257729067,  2665.178,  2665.173,-0.106236,-0.321049,-0.922136,-0.001106,-0.003790,-0.010204,-0.192632,-2.832183, 0.978657,1, 0.495409,-0.007528,-1.355214,1,-0.469562, 0.195537, 9.793450,1,0
1778257729094,  2665.203,  2665.203,-0.216818,-0.210673,-1.161272,-0.002204,-0.001804,-0.010568,-2.577471,-1.765371,-1.596552,1, 0.471942,-0.101042,-1.499346,1,-0.449493, 0.313183, 9.791336,1,0
1778257729116,  2665.228,  2665.223,-0.181667,-0.351521,-1.250084,-0.002014,-0.003052,-0.012188,-2.780790,-1.756895,-1.495012,1, 0.408275,-0.145707,-1.394933,1,-0.433871, 0.380461, 9.789658,1,0
1778257729138,  2665.248,  2665.248,-0.111086,-0.216129,-0.831916,-0.000993,-0.001878,-0.008593,-1.507782,-1.656585, 1.628458,1, 0.387739,-0.113341,-1.265887,1,-0.416729, 0.473311, 9.786352,1,0
1778257729164,  2665.273,  2665.273, 0.074223,-0.064054,-0.768166, 0.000281,-0.000362,-0.007289, 0.318097,-0.110921, 2.251285,1, 0.308601,-0.091477,-1.247355,1,-0.408982, 0.525214, 9.784031,1,0
1778257729186,  2665.298,  2665.293, 0.025116,-0.179955,-1.203771, 0.000089,-0.001342,-0.012204, 1.038630,-0.589431, 0.081311,1, 0.185194,-0.073234,-1.197480,1,-0.408237, 0.563702, 9.781920,1,0
1778257729209,  2665.318,  2665.318, 0.112224,-0.064178,-1.026671, 0.000801,-0.000887,-0.010807, 0.689685,-0.038361,-0.288010,1, 0.109887,-0.014111,-0.989381,1,-0.412281, 0.593139, 9.780010,1,0
1778257729234,  2665.343,  2665.343, 0.202175,-0.035635,-0.770465, 0.002353,-0.000872,-0.008147, 1.564012, 0.247723, 2.223808,1, 0.075443,-0.071691,-0.941609,1,-0.418216, 0.598309, 9.779443,1,0
1778257729256,  2665.368,  2665.363, 0.185465,-0.072351,-0.775715, 0.002124,-0.000625,-0.008160, 2.133271, 0.583785, 0.964737,1, 0.000147,-0.039921,-0.848897,1,-0.417203, 0.589776, 9.780005,1,0
1778257729279,  2665.388,  2665.388, 0.217242,-0.087337,-1.008813, 0.001959,-0.000804,-0.009693, 1.720174,-0.284992,-0.111697,1,-0.104475,-0.089250,-0.720473,1,-0.408780, 0.567301, 9.781690,1,0
1778257729304,  2665.413,  2665.413, 0.188903,-0.082778,-1.186389, 0.001873,-0.000652,-0.011707, 1.443645,-0.258823,-1.851994,1, 0.008953,-0.014359,-0.693207,1,-0.409638, 0.552327, 9.782511,1,0
1778257729326,  2665.438,  2665.433, 0.194245,-0.132147,-1.105633, 0.001483,-0.001072,-0.010119, 1.653324,-0.279320, 0.791742,1, 0.021795,-0.037278,-0.651533,1,-0.414515, 0.552925, 9.782271,1,0
1778257729349,  2665.458,  2665.458, 0.156297,-0.080386,-0.857448, 0.001705,-0.000656,-0.008761, 1.118040,-0.224572, 1.372954,1, 0.143217,-0.014268,-0.646091,1,-0.415426, 0.567355, 9.781406,1,0
1778257729374,  2665.483,  2665.483, 0.160525,-0.112470,-0.871381, 0.001626,-0.001654,-0.008674, 1.153429,-0.516317, 1.234705,1, 0.131448,-0.034757,-0.665698,1,-0.420944, 0.589840, 9.779840,1,0
1778257729396,  2665.508,  2665.503,-0.003772,-0.121355,-0.873771, 0.000185,-0.001287,-0.009255, 0.053828,-0.974746,-0.507069,1, 0.224176,-0.027178,-0.655726,1,-0.421513, 0.621111, 9.777880,1,0
1778257729419,  2665.528,  2665.528, 0.008729,-0.158912,-1.115720, 0.000340,-0.001615,-0.011071,-0.331935,-0.892545,-1.166370,1, 0.176231,-0.047165,-0.585121,1,-0.417311, 0.670555, 9.774794,1,0
1778257729445,  2665.553,  2665.553, 0.077367,-0.073028,-0.837499, 0.000498,-0.000518,-0.008536, 0.341675,-0.020688, 1.560006,1, 0.179108,-0.052618,-0.557425,1,-0.416633, 0.700296, 9.772737,1,0
1778257729466,  2665.578,  2665.573,-0.073246,-0.096975,-1.351502,-0.000562,-0.001163,-0.013719,-1.598210, 0.342698,-1.589592,1, 0.058919,-0.126248,-0.519258,1,-0.400748, 0.714915, 9.772343,1,0
1778257729489,  2665.603,  2665.598, 0.055094,-0.094933,-1.203882, 0.000085,-0.000692,-0.011744, 0.147748,-0.214297,-2.033506,1,-0.020208,-0.026542,-0.380178,1,-0.392586, 0.715572, 9.772626,1,0
1778257729515,  2665.623,  2665.623, 0.047325, 0.053195,-0.610777, 0.000388, 0.000156,-0.006780, 0.078613, 1.224588, 3.784145,1,-0.096202,-0.068612,-0.299204,1,-0.384022, 0.699563, 9.774125,1,0
1778257729536,  2665.648,  2665.643, 0.168196,-0.121951,-1.286931, 0.001561,-0.000831,-0.012107, 0.686160, 0.338441,-3.189260,1,-0.220254, 0.013161,-0.249671,1,-0.383422, 0.659114, 9.776959,1,0
1778257729559,  2665.673,  2665.668, 0.205898, 0.098157,-0.469962, 0.001837, 0.000500,-0.006306, 1.617031, 1.561310, 5.171338,1,-0.211362, 0.042625,-0.127006,1,-0.403708, 0.591981, 9.780437,1,0
1778257729585,  2665.693,  2665.693, 0.027801,-0.059518,-1.202136, 0.000530,-0.001099,-0.010933,-0.128894,-0.043397,-2.005419,1,-0.396260,-0.044437,-0.085952,1,-0.400289, 0.527825, 9.784250,1,0
1778257729606,  2665.718,  2665.713, 0.070925, 0.087112,-1.013470, 0.000522, 0.001030,-0.010921,-0.711637, 1.685695,-1.617311,1,-0.377900,-0.005436, 0.023231,1,-0.397546, 0.461238, 9.787727,1,0
1778257729629,  2665.743,  2665.738, 0.095548, 0.109381,-0.845164, 0.000926, 0.001094,-0.008067, 0.546552, 1.453111, 1.503252,1,-0.233044,-0.042532, 0.034261,1,-0.388964, 0.373113, 9.791827,1,0
1778257729655,  2665.763,  2665.763, 0.068738, 0.063450,-1.018223, 0.001184, 0.000089,-0.011140, 0.294239, 0.948778,-0.191515,1,-0.268680,-0.065543, 0.028938,1,-0.377775, 0.318202, 9.794204,1,0
1778257729676,  2665.788,  2665.783, 0.140935,-0.057951,-1.113018, 0.000904,-0.000306,-0.010123, 0.546888,-0.295688,-1.049185,1,-0.196734,-0.017776, 0.085179,1,-0.373687, 0.278094, 9.795581,1,0
1778257729699,  2665.813,  2665.808, 0.052289,-0.002968,-0.915906, 0.000780,-0.000297,-0.009625, 0.137473, 0.214480, 0.814467,1,-0.080835, 0.036704, 0.065254,1,-0.376403, 0.241142, 9.796456,1,0
1778257729725,  2665.833,  2665.833, 0.113618,-0.014966,-0.911997, 0.001249, 0.000119,-0.009400, 0.730050, 0.086652, 0.852710,1,-0.013546, 0.013490, 0.051730,1,-0.384542, 0.233062, 9.796336,1,0
1778257729746,  2665.858,  2665.853, 0.049191,-0.096516,-0.869463, 0.000308,-0.000667,-0.008318, 0.956724,-0.549599, 0.588664,1, 0.081803, 0.000102, 0.016265,1,-0.387559, 0.242288, 9.795993,1,0
1778257729769,  2665.883,  2665.878,-0.020375,-0.069029,-0.707123, 0.000316,-0.000965,-0.008248,-0.576408,-0.403290, 2.861086,1, 0.185055,-0.079244,-0.045454,1,-0.374163, 0.279373, 9.795527,1,0
1778257729795,  2665.903,  2665.903, 0.069049,-0.098508,-1.024248, 0.000888,-0.000991,-0.010214, 0.314323,-0.650965,-0.249579,1, 0.227953,-0.089181,-0.086399,1,-0.360121, 0.322071, 9.794742,1,0
1778257729817,  2665.928,  2665.923, 0.091630,-0.132831,-0.814954, 0.000677,-0.001458,-0.008582, 0.944065,-1.415831, 0.131844,1, 0.359263,-0.047962,-0.135435,1,-0.350320, 0.381865, 9.792949,1,0
1778257729844,  2665.953,  2665.953, 0.153543,-0.228016,-1.184867, 0.001707,-0.002331,-0.011943, 1.170683,-1.765525,-1.829966,1, 0.347057,-0.046169,-0.181947,1,-0.333898, 0.481164, 9.789145,1,0
1778257729865,  2665.973,  2665.973, 0.209704,-0.198822,-1.211884, 0.001897,-0.001732,-0.011862, 1.718539,-1.406484,-2.098780,1, 0.369553, 0.022117,-0.223880,1,-0.339027, 0.554561, 9.785086,1,0
1778257729887,  2665.998,  2665.993, 0.098319,-0.106338,-1.061809, 0.000577,-0.001443,-0.011473, 0.605729,-0.921418,-0.522493,1, 0.369896,-0.003873,-0.218399,1,-0.341336, 0.629442, 9.780475,1,0
1778257729914,  2666.023,  2666.023, 0.044680,-0.136444,-1.100155, 0.001117,-0.001791,-0.011506, 0.088841,-0.612495,-1.015313,1, 0.360374, 0.010304,-0.242578,1,-0.350200, 0.736500, 9.772682,1,0
1778257729935,  2666.048,  2666.043, 0.201396,-0.081666,-0.798783, 0.001864,-0.000632,-0.007856, 0.181304,-0.745096, 0.768766,1, 0.323097,-0.052322,-0.240074,1,-0.349552, 0.807030, 9.767134,1,0
1778257729957,  2666.068,  2666.063, 0.138902,-0.151567,-1.166783, 0.000851,-0.001445,-0.010842, 1.536638,-0.230699,-1.210350,1, 0.271348,-0.101432,-0.214035,1,-0.341391, 0.866531, 9.762323,1,0
1778257729984,  2666.093,  2666.093, 0.308814,-0.132900,-0.941964, 0.002907,-0.001323,-0.009969, 2.690892,-0.365484, 0.518353,1, 0.283022, 0.036964,-0.136448,1,-0.339089, 0.946466, 9.754978,1,0
1778257730005,  2666.118,  2666.113, 0.357380, 0.037202,-0.903661, 0.003003,-0.000205,-0.009301, 2.751993, 0.190027, 4.602914,1, 0.252165,-0.096867,-0.088220,1,-0.326151, 0.996939, 9.750391,1,0
1778257730027,  2666.138,  2666.133, 0.277155,-0.033816,-1.264329, 0.002495,-0.000863,-0.012257, 2.914997, 1.019637,-1.279282,1, 0.200273,-0.016698,-0.065693,1,-0.318268, 1.031458, 9.747060,1,0
1778257730054,  2666.163,  2666.163, 0.261976,-0.081670,-0.644227, 0.002731,-0.000906,-0.007129, 2.248277, 0.281835, 3.423697,1, 0.187443,-0.048507, 0.033168,1,-0.319210, 1.088592, 9.740814,1,0
1778257730075,  2666.188,  2666.183, 0.124866, 0.054871,-1.343794, 0.001076,-0.000223,-0.013061, 0.672043, 0.311310, 0.190530,1, 0.149775,-0.102928, 0.071361,1,-0.299457, 1.124641, 9.737346,1,0
1778257730097,  2666.208,  2666.203, 0.406091, 0.067738,-1.731866, 0.003428, 0.000060,-0.019048,-0.479556, 1.753378,-7.894475,1, 0.105270, 0.088729, 0.097052,1,-0.297640, 1.150738, 9.734351,1,0
1778257730124,  2666.233,  2666.233, 0.397449,-0.061140, 0.168100, 0.004475,-0.001852, 0.000348, 3.560843, 0.623471,11.372746,1, 0.256587, 0.021792, 0.121463,1,-0.336998, 1.231127, 9.723227,1,0
1778257730145,  2666.258,  2666.253, 0.263468, 0.045363,-1.449290, 0.002940, 0.001196,-0.014670, 0.988417, 0.850533,-1.160383,1, 0.115982, 0.023728, 0.097388,1,-0.330591, 1.268787, 9.718604,1,0
1778257730167,  2666.278,  2666.273, 0.226505,-0.009531,-0.823749, 0.002335, 0.000714,-0.008483, 1.600560,-0.273404,-2.404831,1, 0.181846, 0.166930, 0.181703,1,-0.351424, 1.309091, 9.712526,1,0
1778257730194,  2666.303,  2666.303, 0.097023,-0.008953,-0.974144, 0.001054, 0.000832,-0.008550, 0.591120, 1.281544, 0.150790,1, 0.262060, 0.030701, 0.267291,1,-0.360135, 1.377747, 9.702705,1,0
1778257730216,  2666.328,  2666.323,-0.073522, 0.016380,-1.034799,-0.000836,-0.000559,-0.011279,-0.003920, 2.000333,-1.853831,1, 0.206596, 0.018702, 0.298423,1,-0.356476, 1.414676, 9.697526,1,0
1778257730237,  2666.348,  2666.343,-0.112191,-0.022672,-1.075078,-0.001062,-0.000527,-0.011193,-0.884672, 2.497009, 0.141964,1, 0.171984,-0.012516, 0.343061,1,-0.347122, 1.448000, 9.692945,1,0
1778257730264,  2666.373,  2666.373,-0.036767,-0.127377,-1.130740,-0.000644,-0.000759,-0.010750,-0.685843, 0.239593,-1.401244,1, 0.128492,-0.018340, 0.364334,1,-0.322988, 1.493071, 9.686939,1,0
1778257730286,  2666.398,  2666.393, 0.230072, 0.106458,-0.862212, 0.001869, 0.001048,-0.008905, 0.690778, 0.866551, 0.775280,1, 0.182656, 0.036586, 0.330356,1,-0.314885, 1.525578, 9.682140,1,0
1778257730307,  2666.418,  2666.413, 0.142993, 0.139620,-1.045805, 0.001195, 0.001253,-0.010347, 0.002792,-0.184634, 0.181005,1, 0.130534,-0.004054, 0.387594,1,-0.305221, 1.554597, 9.677833,1,0
1778257730334,  2666.443,  2666.443, 0.148875, 0.255046,-0.864411, 0.001562, 0.001814,-0.010474, 1.158176, 4.089372, 1.195500,1, 0.118934, 0.059824, 0.454615,1,-0.301331, 1.592321, 9.671820,1,0
1778257730356,  2666.468,  2666.463,-0.046611,-0.123031,-0.965214, 0.000110,-0.001262,-0.009436, 0.930762, 3.682498, 0.075696,1, 0.134227, 0.073198, 0.443609,1,-0.300445, 1.628313, 9.665853,1,0
1778257730378,  2666.488,  2666.488, 0.102571,-0.132947,-1.063460, 0.000725,-0.001379,-0.009923, 0.710595, 0.382433,-0.772898,1, 0.216080, 0.079831, 0.465200,1,-0.295238, 1.693276, 9.654845,1,0
1778257730404,  2666.513,  2666.513, 0.023372,-0.115307,-0.957775, 0.000099,-0.000889,-0.008746,-0.056096, 0.603876, 0.255221,1, 0.241467, 0.012757, 0.513227,1,-0.282861, 1.742535, 9.646447,1,0
1778257730426,  2666.538,  2666.533,-0.065955, 0.065360,-1.338845,-0.000658, 0.000657,-0.013394,-2.675045, 1.573440,-2.271140,1, 0.218284,-0.066465, 0.551610,1,-0.258466, 1.791800, 9.638103,1,0
1778257730449,  2666.558,  2666.558, 0.203676, 0.147962,-0.898710, 0.001875, 0.001167,-0.010183, 1.772676, 3.318911, 0.811151,1, 0.344404, 0.046151, 0.584592,1,-0.222641, 1.878869, 9.622404,1,0
1778257730474,  2666.583,  2666.583, 0.427845, 0.226347,-0.959455, 0.003841, 0.002370,-0.008844, 1.435507, 2.156391, 2.105367,1, 0.301012, 0.060720, 0.536341,1,-0.217035, 1.913833, 9.615640,1,0
1778257730496,  2666.608,  2666.603, 0.189602,-0.071783,-1.229434, 0.001816,-0.001186,-0.012540, 3.300818, 4.008599,-0.697071,1, 0.231380, 0.103299, 0.627819,1,-0.202457, 1.995583, 9.599325,1,0
1778257730519,  2666.628,  2666.628, 0.189736, 0.009931,-0.938164, 0.001709,-0.000460,-0.008672, 1.664143, 2.164499, 0.384050,1, 0.212886, 0.118750, 0.744817,1,-0.195260, 2.074067, 9.582824,1,0
1778257730544,  2666.653,  2666.653, 0.194732, 0.133508,-1.098852, 0.001563, 0.000472,-0.010008, 1.722287, 3.419962,-1.201076,1, 0.110337, 0.146825, 0.730887,1,-0.186945, 2.114496, 9.574150,1,0
1778257730566,  2666.678,  2666.673, 0.088568, 0.059005,-1.044184, 0.001193, 0.000702,-0.010694, 2.099083, 4.648961, 0.090790,1, 0.007769, 0.129616, 0.806784,1,-0.176577, 2.144435, 9.567685,1,0
1778257730589,  2666.698,  2666.698, 0.160056, 0.052526,-1.135291, 0.001237, 0.000622,-0.011005, 1.408609, 2.691522,-1.572669,1, 0.130866, 0.196027, 0.888460,1,-0.160817, 2.180860, 9.559727,1,0
1778257730614,  2666.723,  2666.723, 0.196890, 0.148659,-1.065787, 0.001566, 0.001839,-0.009881, 1.769400, 3.643219,-0.893113,1, 0.027138, 0.232753, 0.933500,1,-0.162018, 2.186679, 9.558377,1,0
1778257730636,  2666.748,  2666.743, 0.111337, 0.120399,-1.045435, 0.001071, 0.001431,-0.010168, 3.030372, 2.375325,-2.038844,1,-0.089498, 0.207716, 0.981794,1,-0.156897, 2.184614, 9.558934,1,0
1778257730659,  2666.768,  2666.768, 0.134584, 0.131885,-1.081413, 0.000763, 0.002090,-0.010028, 1.160147, 3.464279,-1.043034,1,-0.057794, 0.277025, 1.062023,1,-0.160766, 2.169711, 9.562264,1,0
1778257730685,  2666.793,  2666.793, 0.211627, 0.157624,-1.023644, 0.001565, 0.001269,-0.010201, 1.910312, 3.695957,-0.471920,1,-0.176578, 0.249261, 1.071061,1,-0.165301, 2.145377, 9.567676,1,0
1778257730706,  2666.818,  2666.813, 0.127466, 0.056231,-1.107864, 0.000290, 0.000616,-0.010335, 0.975495, 3.724693,-2.786007,1,-0.260295, 0.279511, 1.139737,1,-0.169948, 2.104475, 9.576674,1,0
1778257730729,  2666.843,  2666.838, 0.200474, 0.198008,-1.180240, 0.001581, 0.001435,-0.011586, 1.793752, 3.996333,-1.986734,1,-0.277199, 0.263575, 1.104084,1,-0.173042, 2.046684, 9.589136,1,0
1778257730755,  2666.863,  2666.863, 0.058989, 0.166304,-0.874111, 0.001723, 0.002173,-0.009669, 0.399670, 3.635320, 1.025842,1,-0.217492, 0.282195, 1.103050,1,-0.180395, 1.998419, 9.599175,1,0
1778257730776,  2666.888,  2666.883, 0.120189, 0.033056,-1.025020, 0.002298, 0.001204,-0.010204,-0.272256, 2.943020,-1.112863,1,-0.197809, 0.287840, 1.073593,1,-0.196039, 1.956411, 9.607518,1,0
1778257730799,  2666.913,  2666.908,-0.172933, 0.021603,-0.998422,-0.000609, 0.000514,-0.009866,-1.905248, 2.109679,-0.172201,1,-0.185567, 0.218216, 1.042364,1,-0.209732, 1.892839, 9.619956,1,0
1778257730825,  2666.933,  2666.933, 0.022699, 0.101202,-1.002525,-0.000925, 0.000454,-0.010275, 0.005136, 2.855774,-0.205872,1,-0.180556, 0.242391, 0.975064,1,-0.219103, 1.858465, 9.626447,1,0
1778257730846,  2666.958,  2666.953,-0.057098, 0.020604,-0.971305,-0.000703,-0.000217,-0.009090, 1.816996, 1.614705, 0.085178,1,-0.142220, 0.209494, 0.896980,1,-0.228857, 1.834500, 9.630816,1,0
1778257730869,  2666.983,  2666.978, 0.273441, 0.070624,-0.880742, 0.001459, 0.000813,-0.008995, 2.439229, 2.514252, 0.995790,1,-0.046604, 0.233808, 0.812449,1,-0.244773, 1.820868, 9.633012,1,0
1778257730895,  2667.003,  2667.003, 0.160364,-0.029825,-0.824616, 0.002561,-0.000120,-0.008692, 1.320283, 1.534387, 1.544955,1, 0.035942, 0.153610, 0.744195,1,-0.252735, 1.828574, 9.631346,1,0
1778257730916,  2667.028,  2667.023, 0.207397,-0.081267,-1.104572, 0.001938,-0.000671,-0.011501,-0.540987, 1.185681,-1.971987,1, 0.083357, 0.219422, 0.707821,1,-0.267246, 1.840163, 9.628747,1,0
1778257730939,  2667.053,  2667.048,-0.019644,-0.082696,-1.003411, 0.000710,-0.000862,-0.010565,-0.483248, 1.048950,-0.215825,1, 0.037329, 0.172794, 0.690713,1,-0.291811, 1.861703, 9.623892,1,0
1778257730965,  2667.073,  2667.073,-0.037990, 0.012839,-1.109016,-0.000467,-0.000240,-0.010003,-0.679142, 1.999892,-1.254690,1, 0.057432, 0.264114, 0.601165,1,-0.311092, 1.876325, 9.620447,1,0
1778257730986,  2667.098,  2667.093,-0.060540, 0.019885,-1.237628,-0.000188,-0.000639,-0.012501, 1.276720, 2.772749, 2.110797,1,-0.001517, 0.194995, 0.601606,1,-0.329070, 1.888364, 9.617494,1,0
1778257731009,  2667.123,  2667.118, 0.091198, 0.072240,-0.980557,-0.000004, 0.000290,-0.009706, 0.544215, 2.596767, 0.000771,1,-0.059115, 0.201912, 0.652151,1,-0.352391, 1.887254, 9.616885,1,0
1778257731035,  2667.143,  2667.143, 0.073531, 0.026685,-0.878075, 0.000929, 0.000769,-0.009100, 0.364321, 2.145077, 1.006506,1,-0.050216, 0.128671, 0.619771,1,-0.356999, 1.882522, 9.617642,1,0
1778257731057,  2667.168,  2667.163, 0.177460, 0.042843,-1.026361, 0.001058, 0.001052,-0.010490,-0.221764, 1.700025,-1.526815,1,-0.106902, 0.137192, 0.625807,1,-0.358819, 1.866948, 9.620610,1,0
1778257731084,  2667.193,  2667.193, 0.068096,-0.065205,-0.977937, 0.001272,-0.000221,-0.009413, 0.301237, 1.197268, 0.035852,1,-0.147811, 0.137503, 0.644434,1,-0.367002, 1.832931, 9.626841,1,0
1778257731105,  2667.213,  2667.213, 0.012886, 0.104992,-1.023197, 0.000020, 0.000563,-0.010693,-0.243846, 2.833941,-0.402014,1,-0.218045, 0.139138, 0.647192,1,-0.370758, 1.798397, 9.633208,1,0
1778257731127,  2667.238,  2667.233,-0.013788,-0.001777,-0.925923, 0.000126,-0.000226,-0.009423, 1.268201, 2.842436,-1.339916,1,-0.239981, 0.185716, 0.650614,1,-0.379877, 1.759415, 9.640049,1,0
1778257731154,  2667.263,  2667.263, 0.064935, 0.110005,-0.959022,-0.000103, 0.000554,-0.009660, 0.253914, 2.781653, 0.245276,1,-0.300836, 0.116754, 0.642568,1,-0.382983, 1.694415, 9.651563,1,0
1778257731175,  2667.288,  2667.283, 0.100926, 0.156052,-0.854129, 0.000150, 0.000507,-0.009246, 0.591506, 1.153084,-1.943777,1,-0.212727, 0.180124, 0.614173,1,-0.395337, 1.653470, 9.658164,1,0
1778257731197,  2667.308,  2667.303, 0.077747, 0.019404,-0.998156, 0.000688, 0.000690,-0.010319,-0.647296, 0.560424, 0.458564,1,-0.252961, 0.110305, 0.645719,1,-0.401265, 1.613064, 9.664750,1,0
1778257731224,  2667.333,  2667.333,-0.048873, 0.027694,-0.875177, 0.000383, 0.000360,-0.009440,-0.888229, 1.825568, 1.091543,1,-0.142814, 0.109435, 0.571531,1,-0.409487, 1.550329, 9.674667,1,0
1778257731245,  2667.358,  2667.353, 0.032356,-0.070728,-1.230202, 0.000268,-0.000433,-0.012081,-0.529308, 1.480906, 1.244414,1,-0.221621, 0.052204, 0.559958,1,-0.409824, 1.512749, 9.680600,1,0
1778257731267,  2667.378,  2667.373, 0.018487,-0.032120,-1.005829, 0.000202,-0.000696,-0.010446, 0.937763, 2.440899,-1.755523,1,-0.179799, 0.137930, 0.534471,1,-0.415529, 1.471541, 9.686707,1,0
1778257731294,  2667.403,  2667.403, 0.227350, 0.054068,-0.916205, 0.001550, 0.000475,-0.009222, 1.805363, 1.963118, 0.707224,1,-0.177772, 0.116164, 0.493547,1,-0.425512, 1.428074, 9.692777,1,0
1778257731315,  2667.428,  2667.423, 0.182495, 0.043473,-0.963006, 0.000779, 0.000307,-0.009049, 1.334979, 0.849020,-0.676744,1,-0.139741, 0.081272, 0.457806,1,-0.430728, 1.403520, 9.696133,1,0
1778257731337,  2667.448,  2667.443, 0.110560,-0.076873,-1.063210, 0.001256, 0.000035,-0.010885,-0.425196, 0.904646, 1.212045,1,-0.092865, 0.056650, 0.442812,1,-0.430580, 1.383931, 9.698955,1,0
1778257731364,  2667.473,  2667.473, 0.053830,-0.128968,-0.983046, 0.000887,-0.001199,-0.010046, 0.099869, 0.093562, 0.062302,1,-0.044506, 0.065950, 0.391407,1,-0.428363, 1.357466, 9.702792,1,0
1778257731385,  2667.498,  2667.493, 0.034221,-0.185320,-0.866703, 0.000846,-0.001372,-0.008314, 0.987099, 1.653623, 1.988922,1,-0.104555, 0.043106, 0.361165,1,-0.430014, 1.342474, 9.704804,1,0
1778257731407,  2667.518,  2667.513, 0.011302, 0.058321,-1.183722,-0.000137,-0.000607,-0.012304, 0.596565, 1.242065, 0.105250,1,-0.045484,-0.011531, 0.356228,1,-0.417640, 1.330975, 9.706929,1,0
1778257731434,  2667.543,  2667.543, 0.211331, 0.023349,-1.161624, 0.001630, 0.000126,-0.011864, 1.655367, 1.543185,-1.682406,1,-0.055625, 0.080753, 0.323436,1,-0.418253, 1.312874, 9.709367,1,0
1778257731456,  2667.568,  2667.563, 0.154395, 0.010128,-1.171769, 0.001024, 0.000261,-0.010803, 0.440629, 0.016761, 1.386915,1,-0.026143, 0.018948, 0.321027,1,-0.415439, 1.307838, 9.710168,1,0
1778257731477,  2667.588,  2667.583, 0.066645,-0.167891,-0.977421, 0.001649,-0.000591,-0.009783, 0.277305, 1.401245,-0.769102,1,-0.064451, 0.086627, 0.302400,1,-0.420736, 1.293600, 9.711846,1,0
1778257731504,  2667.613,  2667.613,-0.028972,-0.057631,-0.859905,-0.000375,-0.001010,-0.008398,-0.705338, 0.711989, 1.281217,1,-0.111176, 0.010198, 0.316759,1,-0.420244, 1.274142, 9.714439,1,0
1778257731526,  2667.638,  2667.633,-0.057590,-0.068981,-1.069382,-0.000756,-0.001555,-0.010811, 0.105806, 1.528543,-0.432413,1,-0.123866, 0.018845, 0.302427,1,-0.414853, 1.255000, 9.717163,1,0
1778257731547,  2667.658,  2667.653, 0.155292, 0.063264,-0.843991, 0.000815,-0.000104,-0.008256,-0.760564,-0.481540,-0.766223,1,-0.035239,-0.007136, 0.289929,1,-0.404660, 1.240420, 9.719464,1,0
1778257731574,  2667.683,  2667.683, 0.089431,-0.159674,-0.967347, 0.001337,-0.000778,-0.009408, 0.473870,-0.347813, 0.235925,1,-0.073564,-0.018752, 0.208147,1,-0.401765, 1.216045, 9.722665,1,0
1778257731596,  2667.708,  2667.703, 0.158974,-0.169256,-1.139297, 0.001849,-0.000932,-0.011868,-0.055808,-0.532955,-1.135616,1,-0.101538, 0.016509, 0.213788,1,-0.397542, 1.193735, 9.725602,1,0
1778257731619,  2667.728,  2667.728, 0.153075,-0.174562,-0.749179, 0.001672,-0.001637,-0.007892, 1.092156,-0.542135, 2.381102,1,-0.042902, 0.074538, 0.142579,1,-0.410774, 1.168593, 9.728106,1,0
1778257731644,  2667.753,  2667.753, 0.277427,-0.069001,-1.048777, 0.001824,-0.001391,-0.009700, 2.301028, 0.473450,-0.555059,1,-0.160831, 0.096988, 0.122760,1,-0.422159, 1.145296, 9.730389,1,0
1778257731666,  2667.778,  2667.773, 0.153384,-0.071644,-0.980731, 0.001230,-0.001430,-0.009220, 0.966588,-0.922632, 1.737222,1,-0.027935, 0.029729, 0.117634,1,-0.429709, 1.134320, 9.731344,1,0
1778257731689,  2667.798,  2667.798, 0.019552,-0.194330,-1.156486, 0.000624,-0.001078,-0.011158,-0.237021,-0.788009,-1.607947,1,-0.002904,-0.023592, 0.085468,1,-0.427721, 1.117743, 9.733350,1,0
1778257731714,  2667.823,  2667.823,-0.012047,-0.229742,-1.011872,-0.000117,-0.002322,-0.010974,-0.541600,-1.141004,-0.188885,1,-0.018752,-0.019010, 0.036630,1,-0.422737, 1.111463, 9.734286,1,0
1778257731736,  2667.848,  2667.843, 0.071393,-0.210516,-0.783870, 0.000667,-0.002141,-0.008295, 0.329870, 0.254552, 1.037830,1,-0.086575,-0.024805, 0.011373,1,-0.416822, 1.103812, 9.735412,1,0
1778257731759,  2667.868,  2667.868, 0.208587,-0.150841,-1.088531, 0.001715,-0.001693,-0.010275, 1.625746,-0.378319,-0.939232,1,-0.084012, 0.030000,-0.026693,1,-0.420817, 1.098284, 9.735866,1,0
1778257731784,  2667.893,  2667.893, 0.042005,-0.145090,-0.843379, 0.001082,-0.000980,-0.009240,-0.006196,-0.327743, 1.465620,1, 0.025603,-0.032983,-0.035339,1,-0.417222, 1.095845, 9.736295,1,0
1778257731806,  2667.918,  2667.913,-0.005145,-0.165205,-1.066085, 0.000721,-0.000986,-0.010600, 0.693593,-0.205488,-0.576832,1,-0.067468,-0.003979,-0.051358,1,-0.414209, 1.091492, 9.736913,1,0
1778257731829,  2667.938,  2667.938, 0.117600,-0.138691,-1.132493, 0.001021,-0.001965,-0.011667, 0.738274,-0.271314,-1.368776,1,-0.034383, 0.022747,-0.025628,1,-0.415882, 1.087747, 9.737260,1,0
1778257731854,  2667.963,  2667.963, 0.210298,-0.091457,-1.043090, 0.002006,-0.000505,-0.009680, 1.638558, 0.188000,-0.491982,1,-0.017948, 0.064813,-0.008105,1,-0.425804, 1.084316, 9.737214,1,0
1778257731876,  2667.988,  2667.983, 0.090992,-0.065422,-0.987212, 0.001092,-0.000060,-0.009670, 0.577256, 0.043920, 2.802091,1,-0.034041,-0.042913, 0.006107,1,-0.421668, 1.083370, 9.737499,1,0
1778257731899,  2668.008,  2668.008, 0.048977,-0.136194,-1.236934, 0.000450,-0.001268,-0.012583, 0.061651,-0.264997,-2.391143,1, 0.024198, 0.004769, 0.030683,1,-0.418698, 1.071405, 9.738951,1,0
1778257731925,  2668.033,  2668.033, 0.137163, 0.017274,-0.953933, 0.000999,-0.000459,-0.008998, 0.928801, 1.231972, 0.385128,1,-0.057526, 0.034002, 0.040586,1,-0.417221, 1.060842, 9.740170,1,0
1778257731946,  2668.058,  2668.053, 0.133907,-0.008159,-1.109481, 0.001790, 0.000234,-0.010681,-0.025089, 0.328482,-0.168851,1,-0.022883, 0.000802, 0.042753,1,-0.418466, 1.059423, 9.740272,1,0
1778257731969,  2668.083,  2668.078, 0.111103,-0.110996,-0.889001, 0.001076,-0.000657,-0.009781, 0.672566,-0.037260, 1.023105,1, 0.028868,-0.027729, 0.062032,1,-0.415913, 1.052216, 9.741162,1,0
1778257731995,  2668.103,  2668.103, 0.185920, 0.121492,-1.053132, 0.001385, 0.000122,-0.010017, 1.411806, 2.237907,-0.585730,1,-0.087919,-0.001421, 0.074359,1,-0.411153, 1.043845, 9.742265,1,0
1778257732016,  2668.128,  2668.123, 0.218252, 0.081106,-1.200869, 0.002023, 0.000834,-0.011565, 0.406953,-0.230400,-1.313960,1, 0.016623, 0.001950, 0.104412,1,-0.406640, 1.044487, 9.742386,1,0
1778257732039,  2668.153,  2668.148, 0.142012,-0.086430,-0.971445, 0.001657,-0.000579,-0.010520, 0.980689, 0.196960, 0.215530,1, 0.084640, 0.041918, 0.153541,1,-0.412761, 1.047367, 9.741818,1,0
1778257732065,  2668.173,  2668.173, 0.158878, 0.096125,-0.829013, 0.001580, 0.000546,-0.007948, 1.146751, 1.990163, 1.612021,1,-0.042482,-0.017073, 0.209896,1,-0.410077, 1.046461, 9.742029,1,0
1778257732086,  2668.198,  2668.193, 0.038563, 0.115554,-1.113713, 0.000837, 0.001041,-0.010707,-0.026097, 1.732041,-0.923433,1, 0.020884,-0.043686, 0.214415,1,-0.400592, 1.049958, 9.742048,1,0
1778257732109,  2668.223,  2668.218, 0.084441, 0.049339,-0.860941, 0.001056, 0.000787,-0.009508, 0.427413, 1.537929, 1.298654,1, 0.039597, 0.037466, 0.255998,1,-0.400972, 1.055633, 9.741419,1,0
1778257732135,  2668.243,  2668.243, 0.185956, 0.077196,-1.003988, 0.001535, 0.001010,-0.008905, 1.421102, 1.813672,-0.104513,1,-0.022208, 0.028988, 0.290118,1,-0.402423, 1.056316, 9.741285,1,0
1778257732156,  2668.268,  2668.263, 0.100237,-0.013844,-1.465029, 0.001264, 0.000587,-0.014202,-0.260700, 1.545053,-1.317757,1,-0.002985,-0.002640, 0.299429,1,-0.395126, 1.053463, 9.741893,1,0
1778257732179,  2668.293,  2668.288, 0.191230, 0.012940,-0.736104, 0.001395,-0.000323,-0.007772, 1.468027, 1.182487, 2.522448,1, 0.037733, 0.084304, 0.340939,1,-0.408768, 1.057199, 9.740925,1,0
1778257732205,  2668.313,  2668.313, 0.186854,-0.038734,-0.955959, 0.001992, 0.000033,-0.008649, 1.415751, 0.677733, 0.365796,1,-0.010450, 0.074674, 0.323153,1,-0.417892, 1.057692, 9.740484,1,0
1778257732226,  2668.338,  2668.333, 0.158023, 0.024129,-0.963115, 0.002175, 0.000869,-0.010518, 1.583575, 1.514738,-3.498230,1,-0.061651, 0.159754, 0.345283,1,-0.435894, 1.053224, 9.740180,1,0
1778257732249,  2668.363,  2668.358, 0.095517, 0.022312,-0.635237, 0.000633, 0.000066,-0.005321, 0.491607, 1.276971, 3.509676,1,-0.013638, 0.008119, 0.362143,1,-0.444128, 1.058256, 9.739263,1,0
1778257732275,  2668.383,  2668.383,-0.040105, 0.132741,-1.381516,-0.000481, 0.000660,-0.013968,-0.829182, 2.354798,-3.807851,1,-0.076468, 0.073621, 0.306874,1,-0.437135, 1.051105, 9.740353,1,0
1778257732297,  2668.408,  2668.403, 0.162318, 0.038915,-0.474534, 0.001137,-0.000732,-0.006184, 1.914377, 1.197304, 1.599867,1, 0.029491, 0.125725, 0.346423,1,-0.459314, 1.055171, 9.738893,1,0
1778257732324,  2668.433,  2668.433, 0.088013, 0.015676,-1.177628, 0.001520, 0.000759,-0.010705, 0.403896, 1.201193,-1.808856,1,-0.049042, 0.050952, 0.322960,1,-0.459720, 1.046414, 9.739819,1,0
1778257732345,  2668.453,  2668.453, 0.164920, 0.047332,-0.926787, 0.001330, 0.000407,-0.009719, 1.152961, 1.500989, 0.651944,1,-0.059996, 0.056670, 0.347705,1,-0.464960, 1.035474, 9.740739,1,0
1778257732367,  2668.478,  2668.473, 0.087450, 0.054964,-1.096952, 0.001092, 0.001253,-0.009596,-0.240502, 0.824278,-2.287036,1,-0.116247, 0.001625, 0.392655,1,-0.463465, 1.017721, 9.742681,1,0
