Time,GPS_ts,fGPS_ts,scaledAccelX,scaledAccelY,scaledAccelZ,deltaVelX,deltaVelY,deltaVelZ,estLinearAccelX,estLinearAccelY,estLinearAccelZ,estLinearAccel:valid,estAngularRateX,estAngularRateY,estAngularRateZ,estAngularRate:valid,estGravityX,estGravityY,estGravityZ,estGravity:valid,flag
1778256906001,  1796.700,  1796.700, 0.036031,-0.075752,-0.992672, 0.000362,-0.000755,-0.009926,-0.036134, 0.004002, 0.035623,1, 0.001525, 0.000282, 0.000465,1,-0.389483, 0.746922, 9.770404,1,0
1778256906001,  1796.725,  1796.720, 0.037403,-0.076255,-0.992401, 0.000374,-0.000762,-0.009923,-0.027313,-0.005666, 0.037317,1, 0.002608, 0.000419, 0.001645,1,-0.389503, 0.747429, 9.770365,1,0
1778256906001,  1796.745,  1796.745, 0.039030,-0.073878,-0.991818, 0.000389,-0.000741,-0.009919,-0.006719, 0.023670, 0.043894,1, 0.003684,-0.000235, 0.000808,1,-0.389463, 0.748281, 9.770301,1,0
1778256906001,  1796.770,  1796.770, 0.040756,-0.074826,-0.993658, 0.000406,-0.000745,-0.009937, 0.010256, 0.015150, 0.025794,1, 0.004352, 0.000411, 0.000017,1,-0.389434, 0.749074, 9.770241,1,0
1778256906001,  1796.795,  1796.790, 0.041115,-0.076727,-0.991782, 0.000409,-0.000770,-0.009920, 0.008071,-0.001552, 0.035350,1, 0.005915,-0.000367, 0.000317,1,-0.389417, 0.750118, 9.770162,1,0
1778256906001,  1796.820,  1796.820, 0.041515,-0.076524,-0.991390, 0.000416,-0.000767,-0.009917, 0.017805, 0.001147, 0.047835,1, 0.005584,-0.000372, 0.001091,1,-0.389300, 0.751765, 9.770040,1,0
1778256906001,  1796.845,  1796.840, 0.042926,-0.077559,-0.991549, 0.000427,-0.000777,-0.009916, 0.024897,-0.009137, 0.050001,1, 0.006276,-0.000264,-0.000502,1,-0.389253, 0.752949, 9.769951,1,0
1778256906001,  1796.870,  1796.865, 0.043025,-0.076686,-0.993824, 0.000428,-0.000767,-0.009936, 0.032948, 0.002559, 0.023747,1, 0.006204,-0.000688,-0.000664,1,-0.388898, 0.754772, 9.769824,1,0
1778256906002,  1796.895,  1796.890, 0.041673,-0.075504,-0.992200, 0.000420,-0.000758,-0.009925, 0.024710, 0.008530, 0.033346,1, 0.005769, 0.000019,-0.000826,1,-0.388904, 0.756033, 9.769727,1,0
1778256906002,  1796.915,  1796.910, 0.042276,-0.076504,-0.992699, 0.000421,-0.000764,-0.009926, 0.018374, 0.008349, 0.039242,1, 0.005013,-0.001158,-0.000542,1,-0.388774, 0.757127, 9.769647,1,0
1778256906002,  1796.935,  1796.930, 0.042268,-0.078093,-0.992627, 0.000423,-0.000780,-0.009931, 0.029417,-0.003457, 0.025684,1, 0.004259,-0.000999, 0.000263,1,-0.388651, 0.757979, 9.769586,1,0
1778256906012,  1842.135,  1842.130, 0.041001,-0.034856,-0.994912, 0.000409,-0.000347,-0.009948, 0.025969,-0.007535, 0.035218,1, 0.004599,-0.001235, 0.000276,1,-0.388501, 0.758438, 9.769556,1,0
1778256906039,  1842.160,  1842.160, 0.040877,-0.033495,-0.995632, 0.000408,-0.000334,-0.009958,-0.010363, 0.028468, 0.027706,1,-0.002940, 0.001270,-0.001060,1,-0.411271, 0.356850, 9.791522,1,0
1778256906061,  1842.185,  1842.180, 0.041357,-0.032757,-0.994629, 0.000414,-0.000327,-0.009945,-0.003276, 0.029697, 0.031739,1,-0.004122, 0.000325,-0.000180,1,-0.411357, 0.355981, 9.791550,1,0
1778256906082,  1842.205,  1842.200, 0.041259,-0.033305,-0.993094, 0.000413,-0.000332,-0.009934,-0.003353, 0.035469, 0.046482,1,-0.004124, 0.000683,-0.000656,1,-0.411562, 0.355144, 9.791572,1,0
1778256906109,  1842.230,  1842.230, 0.041022,-0.033508,-0.995160, 0.000411,-0.000331,-0.009947,-0.009324, 0.025563, 0.032422,1,-0.003695, 0.000635,-0.000254,1,-0.411628, 0.354050, 9.791609,1,0
1778256906131,  1842.255,  1842.250, 0.040490,-0.032810,-0.995751, 0.000408,-0.000328,-0.009956,-0.010397, 0.027852, 0.026804,1,-0.002118, 0.000791, 0.000657,1,-0.411826, 0.353564, 9.791617,1,0
1778256906153,  1842.275,  1842.270, 0.041413,-0.033742,-0.994201, 0.000415,-0.000339,-0.009944,-0.010792, 0.025394, 0.025406,1,-0.001384, 0.000595, 0.000031,1,-0.411807, 0.352488, 9.791657,1,0
1778256906180,  1842.300,  1842.300, 0.041737,-0.033468,-0.993755, 0.000417,-0.000337,-0.009938,-0.002521, 0.024038, 0.046257,1,-0.000243,-0.000022,-0.000178,1,-0.411817, 0.352240, 9.791666,1,0
1778256906201,  1842.325,  1842.320, 0.043216,-0.033372,-0.994706, 0.000430,-0.000332,-0.009946, 0.007790, 0.028336, 0.039370,1,-0.000286,-0.000379,-0.000284,1,-0.411776, 0.352093, 9.791673,1,0
1778256906223,  1842.345,  1842.340, 0.043394,-0.034909,-0.994289, 0.000435,-0.000347,-0.009944, 0.012594, 0.017461, 0.035746,1,-0.002167,-0.000540,-0.000119,1,-0.411779, 0.351783, 9.791684,1,0
1778256906250,  1842.370,  1842.370, 0.042922,-0.034862,-0.995540, 0.000428,-0.000351,-0.009953, 0.009081, 0.009659, 0.028773,1,-0.000598, 0.000569,-0.000212,1,-0.411857, 0.351520, 9.791690,1,0
1778256906271,  1842.395,  1842.390, 0.042135,-0.033140,-0.994234, 0.000421,-0.000329,-0.009944,-0.001260, 0.030024, 0.034879,1, 0.000486, 0.000231,-0.000463,1,-0.411991, 0.351373, 9.791690,1,0
1778256906293,  1842.415,  1842.410, 0.041537,-0.034163,-0.993729, 0.000417,-0.000340,-0.009938,-0.001788, 0.021244, 0.046771,1, 0.000661, 0.000397, 0.000122,1,-0.412036, 0.351532, 9.791682,1,0
1778256906320,  1842.440,  1842.440, 0.042330,-0.034529,-0.995374, 0.000424,-0.000347,-0.009954, 0.003047, 0.012863, 0.030401,1,-0.000467,-0.000345, 0.000120,1,-0.412062, 0.351466, 9.791683,1,0
1778256906341,  1842.465,  1842.460, 0.042270,-0.034496,-0.994566, 0.000423,-0.000340,-0.009946, 0.005151, 0.022653, 0.036262,1,-0.000415,-0.000101, 0.000247,1,-0.411991, 0.351327, 9.791691,1,0
1778256906363,  1842.485,  1842.480, 0.042593,-0.035156,-0.993960, 0.000427,-0.000352,-0.009940, 0.009993, 0.010938, 0.038963,1,-0.001014,-0.000617, 0.000125,1,-0.412074, 0.350565, 9.791715,1,0
1778256906390,  1842.510,  1842.510, 0.042039,-0.034317,-0.994652, 0.000421,-0.000343,-0.009946, 0.000382, 0.013638, 0.037529,1,-0.001930,-0.000515,-0.000519,1,-0.411864, 0.350115, 9.791740,1,0
1778256906411,  1842.535,  1842.530, 0.039420,-0.032817,-0.994834, 0.000398,-0.000326,-0.009946,-0.007613, 0.037728, 0.032749,1,-0.000821, 0.000033,-0.001043,1,-0.411874, 0.349929, 9.791746,1,0
1778256906433,  1842.555,  1842.550, 0.038766,-0.034938,-0.994601, 0.000388,-0.000349,-0.009948,-0.029167, 0.015804, 0.038453,1,-0.000282,-0.000113,-0.000375,1,-0.411855, 0.349814, 9.791751,1,0
1778256906460,  1842.580,  1842.580, 0.038757,-0.033851,-0.994228, 0.000389,-0.000340,-0.009943,-0.031810, 0.018077, 0.041699,1, 0.001503,-0.000075,-0.000529,1,-0.411888, 0.350086, 9.791740,1,0
1778256906481,  1842.605,  1842.600, 0.038566,-0.033212,-0.994686, 0.000387,-0.000333,-0.009947,-0.034370, 0.024898, 0.039744,1, 0.001900,-0.000169,-0.001002,1,-0.411821, 0.350362, 9.791733,1,0
1778256906504,  1842.625,  1842.625, 0.038865,-0.032813,-0.994385, 0.000388,-0.000327,-0.009948,-0.030873, 0.029323, 0.040111,1, 0.004774, 0.000234,-0.001277,1,-0.412019, 0.351260, 9.791693,1,0
1778256906530,  1842.650,  1842.650, 0.039607,-0.033511,-0.994435, 0.000395,-0.000333,-0.009943,-0.023680, 0.023223, 0.039590,1, 0.003777, 0.001008,-0.001536,1,-0.412128, 0.351971, 9.791662,1,0
1778256906551,  1842.675,  1842.670, 0.042931,-0.034266,-0.996042, 0.000428,-0.000344,-0.009959,-0.005267, 0.017181, 0.024365,1, 0.003923,-0.000333,-0.001339,1,-0.411727, 0.352209, 9.791671,1,0
1778256906574,  1842.695,  1842.695, 0.044700,-0.034802,-0.995103, 0.000442,-0.000344,-0.009951, 0.026746, 0.011381, 0.033033,1, 0.000047,-0.000500,-0.000406,1,-0.411594, 0.352674, 9.791659,1,0
1778256906600,  1842.720,  1842.720, 0.047164,-0.038307,-0.994109, 0.000470,-0.000383,-0.009944, 0.051035,-0.023402, 0.042802,1,-0.004373,-0.000568,-0.000171,1,-0.411465, 0.352127, 9.791684,1,0
1778256906622,  1842.745,  1842.740, 0.051050,-0.040064,-0.997680, 0.000509,-0.000398,-0.009978, 0.079101,-0.046170, 0.015319,1,-0.007284,-0.000820,-0.000340,1,-0.411340, 0.350983, 9.791731,1,0
1778256906644,  1842.765,  1842.765, 0.052692,-0.042394,-0.997122, 0.000527,-0.000423,-0.009973, 0.105657,-0.067933, 0.013432,1,-0.015845,-0.001025,-0.002021,1,-0.411045, 0.347314, 9.791874,1,0
1778256906670,  1842.790,  1842.790, 0.051592,-0.049147,-0.992042, 0.000519,-0.000497,-0.009924, 0.094926,-0.138078, 0.063387,1,-0.023665, 0.000540,-0.002648,1,-0.411035, 0.343148, 9.792022,1,0
1778256906692,  1842.815,  1842.810, 0.043948,-0.044127,-1.000593, 0.000439,-0.000445,-0.009999, 0.045664,-0.099275, 0.027109,1,-0.029391, 0.003758,-0.005778,1,-0.411458, 0.337816, 9.792189,1,0
1778256906714,  1842.835,  1842.835, 0.035409,-0.052405,-1.001093, 0.000364,-0.000523,-0.010016,-0.065678,-0.184805,-0.024941,1,-0.032665, 0.004079,-0.013414,1,-0.413063, 0.328081, 9.792453,1,0
1778256906740,  1842.860,  1842.860, 0.031714,-0.039694,-0.983795, 0.000320,-0.000411,-0.009836,-0.102740,-0.067052, 0.144886,1,-0.036305, 0.002777,-0.017447,1,-0.413848, 0.321054, 9.792652,1,0
1778256906762,  1842.885,  1842.880, 0.053268,-0.001376,-0.988034, 0.000545,-0.000059,-0.009945,-0.023870, 0.154113, 0.081222,1,-0.044003, 0.000534,-0.014365,1,-0.415438, 0.313329, 9.792835,1,0
1778256906785,  1842.905,  1842.905, 0.058032,-0.035659,-0.995172, 0.000581,-0.000314,-0.009933, 0.155094,-0.051401, 0.034057,1,-0.060566,-0.002495,-0.003821,1,-0.413935, 0.296397, 9.793426,1,0
1778256906810,  1842.930,  1842.930, 0.062721,-0.039937,-0.976238, 0.000637,-0.000413,-0.009772, 0.200548,-0.105277, 0.220076,1,-0.056042, 0.004225,-0.009127,1,-0.414675, 0.284614, 9.793744,1,0
1778256906832,  1842.955,  1842.950, 0.051080,-0.026659,-1.007620, 0.000509,-0.000249,-0.010049, 0.114399, 0.060756, 0.029593,1,-0.058582, 0.004035,-0.008138,1,-0.415463, 0.272794, 9.794047,1,0
1778256906855,  1842.980,  1842.975, 0.050357,-0.024334,-1.001356, 0.000511,-0.000246,-0.010018, 0.077048, 0.019026,-0.025544,1,-0.057587, 0.001440,-0.012295,1,-0.416838, 0.255848, 9.794446,1,0
1778256906880,  1843.000,  1843.000, 0.048274,-0.022544,-0.989246, 0.000481,-0.000222,-0.009899, 0.056592, 0.025207, 0.093504,1,-0.061740, 0.000629,-0.008871,1,-0.416836, 0.244348, 9.794740,1,0
1778256906902,  1843.025,  1843.020, 0.047778,-0.022520,-0.993217, 0.000481,-0.000235,-0.009925, 0.065822,-0.012401, 0.109837,1,-0.067283, 0.002700,-0.005619,1,-0.417357, 0.231552, 9.795029,1,0
1778256906925,  1843.050,  1843.045, 0.044899,-0.014782,-1.000990, 0.000446,-0.000155,-0.010019, 0.022131, 0.067813,-0.020941,1,-0.073067, 0.004450,-0.006527,1,-0.418323, 0.210485, 9.795463,1,0
1778256906950,  1843.070,  1843.070, 0.043198,-0.014102,-0.996331, 0.000435,-0.000143,-0.009963, 0.003956, 0.059560, 0.025001,1,-0.074313, 0.002923,-0.002287,1,-0.420004, 0.195366, 9.795704,1,0
1778256906972,  1843.095,  1843.090, 0.041507,-0.042790,-1.009645, 0.000301,-0.000382,-0.010012,-0.096989,-0.020255, 0.306064,1,-0.075373,-0.000283,-0.005504,1,-0.420350, 0.181524, 9.795956,1,0
1778256906995,  1843.120,  1843.115, 0.011808,-0.019790,-1.011857, 0.000013,-0.000134,-0.009945,-0.307354,-0.025709,-0.126856,1,-0.031418, 0.015476,-0.023192,1,-0.423648, 0.167353, 9.796065,1,0
1778256907021,  1843.140,  1843.140,-0.016542,-0.007998,-0.988971,-0.000109,-0.000185,-0.010118,-0.588130, 0.085661, 0.097524,1,-0.010786, 0.007916,-0.031520,1,-0.426173, 0.163717, 9.796018,1,0
1778256907042,  1843.165,  1843.160,-0.005677,-0.012065,-1.002127,-0.000113,-0.000041,-0.009914,-0.567604, 0.064136,-0.265853,1, 0.013584,-0.002882,-0.038371,1,-0.426655, 0.165970, 9.795959,1,0
1778256907065,  1843.190,  1843.185, 0.014385,-0.007392,-0.978006, 0.000149,-0.000097,-0.009785,-0.283822, 0.103130, 0.204905,1, 0.054403,-0.010914,-0.043211,1,-0.424574, 0.177263, 9.795851,1,0
1778256907091,  1843.210,  1843.210, 0.041853, 0.021792,-1.011370, 0.000379, 0.000258,-0.010012,-0.013278, 0.399229,-0.122420,1, 0.044355,-0.001715,-0.032911,1,-0.423684, 0.186859, 9.795712,1,0
1778256907112,  1843.235,  1843.230, 0.047368,-0.016922,-0.997971, 0.000487,-0.000132,-0.009942, 0.076313, 0.231702, 0.021619,1,-0.001223,-0.002698,-0.006853,1,-0.423348, 0.189388, 9.795677,1,0
1778256907135,  1843.260,  1843.255, 0.046942,-0.010896,-0.995014, 0.000458,-0.000116,-0.009900, 0.036432, 0.075524, 0.038032,1,-0.039923, 0.009268, 0.013808,1,-0.424196, 0.181154, 9.795796,1,0
1778256907161,  1843.280,  1843.280, 0.042130, 0.006199,-1.002229, 0.000432, 0.000071,-0.010005,-0.011766, 0.234563,-0.032615,1,-0.038777, 0.005818, 0.013998,1,-0.425093, 0.172566, 9.795913,1,0
1778256907182,  1843.305,  1843.300, 0.044726,-0.021717,-0.993644, 0.000439,-0.000206,-0.009919,-0.028180, 0.049533,-0.003544,1,-0.022994, 0.004698, 0.014648,1,-0.425964, 0.167096, 9.795969,1,0
1778256907209,  1843.330,  1843.330, 0.048220,-0.018491,-0.994015, 0.000489,-0.000192,-0.009937, 0.047337,-0.017033, 0.048080,1,-0.001119,-0.001983, 0.009131,1,-0.425474, 0.164283, 9.796039,1,0
1778256907231,  1843.350,  1843.350, 0.054057,-0.007877,-0.989498, 0.000554,-0.000084,-0.009906, 0.104613, 0.088792, 0.092341,1, 0.015626, 0.000677, 0.007948,1,-0.425526, 0.166538, 9.795998,1,0
1778256907252,  1843.375,  1843.370, 0.042921,-0.013973,-0.984517, 0.000490,-0.000112,-0.009894, 0.085939, 0.097672, 0.031392,1, 0.029149,-0.001076, 0.003470,1,-0.425384, 0.171721, 9.795915,1,0
1778256907279,  1843.400,  1843.400, 0.047407,-0.006040,-1.000324, 0.000458,-0.000039,-0.009955, 0.039584, 0.122399,-0.014093,1, 0.042311, 0.003098, 0.003937,1,-0.425416, 0.182953, 9.795710,1,0
1778256907301,  1843.425,  1843.420, 0.034512,-0.015462,-0.987998, 0.000332,-0.000181,-0.009883,-0.059150,-0.035467, 0.073630,1, 0.049358, 0.003424, 0.000829,1,-0.425779, 0.192085, 9.795520,1,0
1778256907322,  1843.445,  1843.440, 0.039783,-0.007478,-1.019979, 0.000376,-0.000050,-0.010144,-0.088856, 0.056372,-0.023801,1, 0.050383,-0.003397, 0.000110,1,-0.425500, 0.202091, 9.795330,1,0
1778256907349,  1843.470,  1843.470, 0.054050,-0.026857,-1.011418, 0.000529,-0.000252,-0.010132, 0.105894,-0.048433,-0.123511,1, 0.052190,-0.008923, 0.005075,1,-0.424001, 0.216360, 9.795091,1,0
1778256907371,  1843.495,  1843.490, 0.068652,-0.038241,-0.971798, 0.000670,-0.000364,-0.009699, 0.189968,-0.142935, 0.202339,1, 0.043800,-0.009419, 0.000735,1,-0.421872, 0.225634, 9.794973,1,0
1778256907393,  1843.515,  1843.510, 0.076278,-0.037865,-0.991569, 0.000764,-0.000376,-0.009893, 0.319494,-0.112132, 0.195801,1, 0.021493,-0.002645, 0.005090,1,-0.420890, 0.231472, 9.794879,1,0
1778256907420,  1843.540,  1843.540, 0.068156,-0.040385,-1.005490, 0.000691,-0.000413,-0.010065, 0.247401,-0.164256,-0.065620,1,-0.005607, 0.003554, 0.006076,1,-0.421088, 0.231615, 9.794868,1,0
1778256907441,  1843.565,  1843.560, 0.054493,-0.010696,-0.985725, 0.000562,-0.000103,-0.009852, 0.178430, 0.061666, 0.064187,1,-0.000957, 0.002652, 0.001821,1,-0.421966, 0.230959, 9.794845,1,0
1778256907463,  1843.585,  1843.580, 0.046173,-0.020152,-1.000930, 0.000462,-0.000206,-0.009998, 0.064962, 0.107147, 0.100939,1, 0.002430,-0.000920, 0.003042,1,-0.421871, 0.230946, 9.794849,1,0
1778256907490,  1843.610,  1843.610, 0.054461,-0.029542,-0.994880, 0.000523,-0.000270,-0.010049, 0.111689,-0.057065, 0.038342,1, 0.014491,-0.004384,-0.000621,1,-0.422259, 0.233094, 9.794782,1,0
1778256907511,  1843.635,  1843.630, 0.066426,-0.012549,-0.988171, 0.000639,-0.000121,-0.009886, 0.233260, 0.024369,-0.078079,1, 0.019444,-0.010489,-0.003920,1,-0.420289, 0.237075, 9.794771,1,0
1778256907533,  1843.655,  1843.650, 0.082010,-0.014613,-0.983079, 0.000829,-0.000183,-0.009914, 0.306487, 0.111417, 0.184107,1, 0.025950,-0.007145,-0.002903,1,-0.418579, 0.242085, 9.794722,1,0
1778256907560,  1843.680,  1843.680, 0.069921,-0.017209,-0.997815, 0.000708,-0.000161,-0.009932, 0.267610, 0.083551, 0.009260,1, 0.040236, 0.000400,-0.001927,1,-0.418102, 0.253582, 9.794451,1,0
1778256907581,  1843.705,  1843.700, 0.070807,-0.019327,-1.000956, 0.000715,-0.000203,-0.010027, 0.268608, 0.051512, 0.058828,1, 0.053690,-0.003782,-0.004568,1,-0.417951, 0.263103, 9.794207,1,0
1778256907603,  1843.725,  1843.720, 0.072875,-0.012374,-0.994265, 0.000728,-0.000111,-0.009939, 0.283665, 0.117612,-0.056812,1, 0.064422,-0.010335,-0.006197,1,-0.416074, 0.275057, 9.793958,1,0
1778256907630,  1843.750,  1843.750, 0.075426,-0.016226,-0.977830, 0.000760,-0.000166,-0.009801, 0.325653, 0.133509, 0.204298,1, 0.065663,-0.006909, 0.002536,1,-0.413804, 0.294681, 9.793483,1,0
1778256907651,  1843.775,  1843.770, 0.064097,-0.032115,-0.979428, 0.000649,-0.000295,-0.009804, 0.256733, 0.051331, 0.153908,1, 0.053253,-0.005143, 0.007769,1,-0.412582, 0.306091, 9.793185,1,0
1778256907673,  1843.795,  1843.790, 0.082729,-0.057639,-1.005050, 0.000822,-0.000578,-0.010051, 0.269854,-0.067402, 0.062318,1, 0.043876,-0.007741, 0.010334,1,-0.411395, 0.315131, 9.792948,1,0
1778256907700,  1843.820,  1843.820, 0.148334,-0.070208,-1.040393, 0.001457,-0.000701,-0.010373, 1.050074,-0.358750,-0.410023,1, 0.063356,-0.040304,-0.012352,1,-0.403346, 0.331718, 9.792735,1,0
1778256907721,  1843.845,  1843.840, 0.189473,-0.046830,-0.936474, 0.001902,-0.000474,-0.009444, 1.378738,-0.063096, 0.243048,1, 0.059774,-0.025090,-0.016512,1,-0.397011, 0.344154, 9.792564,1,0
1778256907744,  1843.865,  1843.865, 0.179714,-0.074603,-0.957404, 0.001811,-0.000728,-0.009485, 1.367499,-0.374764, 0.403266,1, 0.034267,-0.001016,-0.011748,1,-0.394913, 0.357914, 9.792156,1,0
1778256907770,  1843.890,  1843.890, 0.153825,-0.069676,-1.036469, 0.001550,-0.000728,-0.010358, 1.112214,-0.320996,-0.372349,1, 0.024031, 0.012352,-0.021644,1,-0.396704, 0.363009, 9.791897,1,0
1778256907792,  1843.915,  1843.910, 0.117936,-0.031935,-0.977367, 0.001198,-0.000290,-0.009765, 0.911026, 0.067434, 0.003177,1, 0.014798, 0.011052,-0.018299,1,-0.399575, 0.366507, 9.791649,1,0
1778256907814,  1843.935,  1843.935, 0.101847,-0.071601,-0.976421, 0.001022,-0.000675,-0.009758, 0.598172,-0.336276, 0.216207,1,-0.015818, 0.002918,-0.012739,1,-0.400713, 0.365377, 9.791645,1,0
1778256907840,  1843.960,  1843.960, 0.120044,-0.078982,-1.023225, 0.001189,-0.000828,-0.010202, 0.776262,-0.414851,-0.242562,1,-0.045572, 0.000057,-0.019906,1,-0.400988, 0.358253, 9.791897,1,0
1778256907862,  1843.985,  1843.980, 0.161498,-0.036283,-0.989786, 0.001601,-0.000365,-0.009919, 1.050200,-0.049269,-0.149317,1,-0.075594,-0.005135,-0.009135,1,-0.400439, 0.345280, 9.792385,1,0
1778256907884,  1844.005,  1844.005, 0.163675,-0.039051,-0.967052, 0.001647,-0.000394,-0.009662, 1.208276,-0.061836, 0.309818,1,-0.102392,-0.015970,-0.004864,1,-0.396333, 0.317922, 9.793479,1,0
1778256907910,  1844.030,  1844.030, 0.170964,-0.042289,-0.975700, 0.001693,-0.000423,-0.009750, 1.281041,-0.114697, 0.225725,1,-0.113731, 0.004195,-0.010888,1,-0.395687, 0.296457, 9.794178,1,0
1778256907932,  1844.055,  1844.050, 0.159829,-0.053391,-0.988193, 0.001623,-0.000563,-0.009878, 1.268260,-0.291477, 0.181722,1,-0.125305, 0.017070,-0.007367,1,-0.398580, 0.272071, 9.794768,1,0
1778256907955,  1844.075,  1844.075, 0.131142,-0.028159,-1.000874, 0.001322,-0.000287,-0.009991, 0.883280,-0.035951,-0.019788,1,-0.118227, 0.013913,-0.011584,1,-0.403225, 0.236501, 9.795502,1,0
1778256907980,  1844.100,  1844.100, 0.111914,-0.019470,-0.995068, 0.001122,-0.000197,-0.009970, 0.692095, 0.026514, 0.037568,1,-0.116212, 0.013207,-0.016196,1,-0.405830, 0.213804, 9.795917,1,0
1778256908002,  1844.125,  1844.120, 0.107511,-0.050361,-1.020472, 0.001018,-0.000488,-0.010139, 0.600115,-0.194038,-0.166579,1,-0.119118, 0.016620,-0.016177,1,-0.408853, 0.190286, 9.796275,1,0
1778256908025,  1844.145,  1844.145, 0.108061,-0.020749,-1.005054, 0.001070,-0.000250,-0.010089, 0.647465,-0.042587,-0.059550,1,-0.103639, 0.002882,-0.022536,1,-0.412355, 0.157626, 9.796709,1,0
1778256908050,  1844.170,  1844.170, 0.105165,-0.013192,-0.948219, 0.001070,-0.000122,-0.009516, 0.619744, 0.011791, 0.498139,1,-0.099333,-0.005495,-0.028648,1,-0.411415, 0.138022, 9.797044,1,0
1778256908072,  1844.195,  1844.190, 0.107127,-0.062590,-1.004416, 0.001077,-0.000653,-0.010025, 0.637182,-0.359597, 0.337629,1,-0.117606, 0.005487,-0.036503,1,-0.411931, 0.116347, 9.797304,1,0
1778256908095,  1844.220,  1844.215, 0.083526,-0.026107,-1.034239, 0.000844,-0.000326,-0.010386, 0.404551,-0.176301,-0.344864,1,-0.145903, 0.014551,-0.033202,1,-0.415026, 0.075129, 9.797576,1,0
1778256908120,  1844.240,  1844.240, 0.073741, 0.014921,-0.977813, 0.000750, 0.000138,-0.009755, 0.304154, 0.196164, 0.208492,1,-0.157715, 0.026525,-0.028376,1,-0.419832, 0.044887, 9.797556,1,0
1778256908142,  1844.265,  1844.260, 0.090684, 0.057561,-0.920893, 0.000885, 0.000559,-0.009809,-0.145244,-2.393657,-0.078431,1,-0.172961, 0.068989, 0.039352,1,-0.428546, 0.000847, 9.797282,1,0
1778256908165,  1844.290,  1844.285, 0.113867, 0.149963,-1.093724, 0.000854, 0.001545,-0.010360, 0.679419, 1.414036,-0.929039,1,-0.129721, 0.008685,-0.060718,1,-0.437496,-0.060732, 9.796698,1,0
1778256908190,  1844.310,  1844.310, 0.108528, 0.061286,-0.935991, 0.000946, 0.000558,-0.009618, 0.624636, 0.496070, 0.617286,1,-0.187119, 0.003322,-0.078957,1,-0.439742,-0.110890, 9.796158,1,0
1778256908212,  1844.335,  1844.330, 0.159315,-0.096301,-0.999955, 0.001571,-0.000865,-0.009634, 1.153955,-1.230584, 1.217557,1,-0.251006, 0.007486,-0.028173,1,-0.441279,-0.161421, 9.795386,1,0
1778256908235,  1844.360,  1844.355, 0.087352, 0.150054,-1.196058, 0.000859, 0.001550,-0.011697, 0.410621, 1.242556,-1.935499,1,-0.229344, 0.035293,-0.017849,1,-0.447092,-0.236146, 9.793607,1,0
1778256908261,  1844.380,  1844.380, 0.033653, 0.143783,-0.925675, 0.000479, 0.001465,-0.009578,-0.119675, 1.139936, 0.714836,1,-0.155706, 0.000784,-0.029051,1,-0.449694,-0.274987, 9.792474,1,0
1778256908282,  1844.405,  1844.400, 0.015692, 0.023558,-0.980772, 0.000104, 0.000296,-0.009636,-0.338282, 0.038907, 0.484077,1,-0.098124,-0.001472,-0.046427,1,-0.448248,-0.300642, 9.791786,1,0
1778256908305,  1844.430,  1844.425, 0.042782, 0.062964,-1.015981, 0.000440, 0.000625,-0.010192,-0.029224, 0.298433,-0.172187,1,-0.038646,-0.012503,-0.024273,1,-0.448359,-0.320271, 9.791159,1,0
1778256908331,  1844.450,  1844.450, 0.075871, 0.069753,-1.046747, 0.000710, 0.000753,-0.010464, 0.298862, 0.363636,-0.473781,1, 0.018384,-0.015214,-0.052550,1,-0.444649,-0.319908, 9.791340,1,0
1778256908352,  1844.475,  1844.470, 0.116465, 0.016783,-0.953937, 0.001195, 0.000191,-0.009607, 0.678359, 0.137183, 0.506166,1, 0.063058,-0.018058,-0.067987,1,-0.441595,-0.312007, 9.791733,1,0
1778256908375,  1844.500,  1844.495, 0.119502,-0.038671,-1.037083, 0.001191,-0.000299,-0.010313, 0.735093,-0.671925,-0.377765,1, 0.089532,-0.000941,-0.063074,1,-0.436736,-0.289991, 9.792627,1,0
1778256908401,  1844.520,  1844.520, 0.134110,-0.038951,-0.965140, 0.001323,-0.000413,-0.009734, 0.876689,-0.657623, 0.328176,1, 0.085928, 0.009841,-0.084453,1,-0.438709,-0.273085, 9.793025,1,0
1778256908422,  1844.545,  1844.540, 0.104059, 0.030225,-0.986853, 0.001030, 0.000309,-0.009810, 0.647500,-0.048459, 0.541113,1, 0.052675, 0.005134,-0.084895,1,-0.438038,-0.261264, 9.793378,1,0
1778256908449,  1844.570,  1844.570, 0.100173, 0.013596,-1.067321, 0.000986, 0.000117,-0.010740, 0.542212,-0.125834,-0.673503,1,-0.013683, 0.000073,-0.067513,1,-0.440091,-0.259683, 9.793327,1,0
1778256908471,  1844.590,  1844.590, 0.107400, 0.009711,-1.029778, 0.001012, 0.000102,-0.010157, 0.612813,-0.168198,-0.305459,1,-0.035665, 0.007367,-0.074319,1,-0.440588,-0.264647, 9.793173,1,0
1778256908492,  1844.615,  1844.610, 0.132792,-0.012949,-0.910072, 0.001278,-0.000184,-0.009197, 0.782140,-0.431035, 0.301342,1,-0.060279,-0.010313,-0.066974,1,-0.439203,-0.276000, 9.792921,1,0
1778256908519,  1844.640,  1844.640, 0.244647,-0.005554,-0.943794, 0.002238, 0.000084,-0.008933, 1.961236,-0.351451, 0.536902,1,-0.103330, 0.015791,-0.061478,1,-0.438365,-0.300293, 9.792244,1,0
1778256908541,  1844.665,  1844.660, 0.283321, 0.068474,-1.019307, 0.003016, 0.000642,-0.010484, 2.543137, 0.469624,-0.797167,1,-0.110184, 0.038969,-0.055361,1,-0.445096,-0.323128, 9.791213,1,0
1778256908562,  1844.685,  1844.680, 0.068960,-0.008292,-1.031104, 0.000750,-0.000036,-0.010464, 1.199094,-0.078775,-0.301309,1,-0.106144, 0.023806,-0.043795,1,-0.449679,-0.342786, 9.790336,1,0
1778256908589,  1844.710,  1844.710, 0.044828, 0.076610,-0.926726, 0.000395, 0.000700,-0.009141,-0.015298, 0.391174, 0.701393,1,-0.062003, 0.013425,-0.046986,1,-0.455272,-0.362112, 9.789381,1,0
1778256908611,  1844.735,  1844.730, 0.133435, 0.104502,-1.028900, 0.001332, 0.001062,-0.010454, 0.572329, 0.784337, 0.346677,1,-0.068445, 0.008695,-0.028966,1,-0.456554,-0.375808, 9.788805,1,0
1778256908633,  1844.755,  1844.750, 0.204931, 0.020663,-1.076847, 0.002043, 0.000288,-0.010662, 1.194419, 0.234194,-0.659323,1,-0.026997, 0.014857,-0.033871,1,-0.458579,-0.384906, 9.788357,1,0
1778256908660,  1844.780,  1844.780, 0.169475, 0.075916,-0.879920, 0.001735, 0.000604,-0.009037, 1.198032, 0.367506, 1.159343,1, 0.076717, 0.021118,-0.070147,1,-0.464527,-0.374689, 9.788473,1,0
1778256908681,  1844.805,  1844.800, 0.136907, 0.031640,-0.911638, 0.001272, 0.000534,-0.008795, 0.751112, 0.599493, 1.717054,1, 0.117365, 0.064836,-0.062417,1,-0.472733,-0.353762, 9.788859,1,0
1778256908703,  1844.825,  1844.820, 0.159718,-0.038405,-1.196130, 0.001688,-0.000447,-0.011949, 0.976899,-0.535535,-0.286778,1, 0.146032, 0.080397,-0.059766,1,-0.488884,-0.327915, 9.788965,1,0
1778256908730,  1844.850,  1844.850, 0.156853, 0.038246,-1.089759, 0.001518, 0.000348,-0.011079, 1.039760, 0.090032,-0.897066,1, 0.191886, 0.029366,-0.066342,1,-0.499293,-0.279156, 9.789952,1,0
1778256908751,  1844.875,  1844.870, 0.169238, 0.014812,-0.987664, 0.001567, 0.000232,-0.009731, 0.784393, 0.367345, 1.168557,1, 0.179207, 0.005818,-0.079703,1,-0.500430,-0.243803, 9.790838,1,0
1778256908773,  1844.895,  1844.890, 0.160159,-0.058811,-1.073933, 0.001609,-0.000572,-0.010641, 1.274147,-0.511893,-0.077398,1, 0.153411, 0.032492,-0.080913,1,-0.505331,-0.213292, 9.791299,1,0
1778256908800,  1844.920,  1844.920, 0.121233, 0.000504,-0.990173, 0.001399,-0.000108,-0.010057, 0.674076,-0.178620, 0.081130,1, 0.094094, 0.016142,-0.066462,1,-0.515280,-0.180740, 9.791435,1,0
1778256908821,  1844.945,  1844.940, 0.104862,-0.004275,-1.054647, 0.001148, 0.000061,-0.010513, 0.271117, 0.217980,-0.368535,1, 0.056451, 0.028168,-0.046867,1,-0.518482,-0.169137, 9.791473,1,0
1778256908843,  1844.965,  1844.960, 0.110201,-0.036108,-0.933977, 0.001106,-0.000334,-0.009469, 0.468713,-0.486909,-0.257704,1, 0.036620, 0.046767,-0.068753,1,-0.526370,-0.162245, 9.791169,1,0
1778256908870,  1844.990,  1844.990, 0.051273, 0.019517,-0.911810, 0.000476, 0.000181,-0.009039,-0.025386, 0.036186, 0.849383,1, 0.003908,-0.007604,-0.047183,1,-0.527942,-0.155168, 9.791200,1,0
1778256908891,  1845.015,  1845.010, 0.065611,-0.074470,-1.014753, 0.000653,-0.000887,-0.009929, 0.171152,-0.635778, 0.127965,1, 0.023854, 0.020402,-0.049166,1,-0.530856,-0.151829, 9.791094,1,0
1778256908913,  1845.035,  1845.030, 0.004960, 0.040782,-0.990613, 0.000188, 0.000377,-0.010169,-0.018870,-0.186512,-0.919209,1, 0.037667, 0.003760,-0.096658,1,-0.534654,-0.146742, 9.790965,1,0
1778256908940,  1845.060,  1845.060, 0.026889, 0.001149,-1.020857, 0.000232, 0.000047,-0.010227,-0.268809,-0.127989,-0.219997,1, 0.040360,-0.005901,-0.074559,1,-0.532284,-0.138127, 9.791220,1,0
1778256908961,  1845.085,  1845.080, 0.001108,-0.007300,-0.986530, 0.000224,-0.000245,-0.009954, 0.102463,-0.858466,-0.580911,1, 0.073209, 0.018837,-0.124544,1,-0.535883,-0.127448, 9.791168,1,0
1778256908984,  1845.105,  1845.105, 0.041920, 0.033097,-0.922316, 0.000383, 0.000455,-0.009067,-0.125011, 0.216974, 0.746564,1, 0.071483, 0.002546,-0.105632,1,-0.536146,-0.105545, 9.791414,1,0
1778256909010,  1845.130,  1845.130,-0.000590,-0.068584,-1.036407,-0.000071,-0.000589,-0.010263,-0.543033,-0.767256,-0.372221,1, 0.064918, 0.016669,-0.120174,1,-0.537730,-0.092859, 9.791456,1,0
1778256909032,  1845.155,  1845.150,-0.061432, 0.057892,-0.978892,-0.000677, 0.000449,-0.009638,-1.450288,-0.354642, 0.081529,1, 0.080658,-0.012067,-0.146341,1,-0.536316,-0.079033, 9.791655,1,0
1778256909054,  1845.175,  1845.175,-0.046131, 0.009814,-1.063500,-0.000560, 0.000310,-0.010296,-0.987856, 0.030277,-0.637577,1, 0.054977, 0.020736,-0.119666,1,-0.536083,-0.064452, 9.791775,1,0
1778256909080,  1845.200,  1845.200,-0.033090,-0.056620,-0.926103,-0.000333,-0.000689,-0.009593,-0.861844,-0.611692, 0.709788,1, 0.065649,-0.008842,-0.147834,1,-0.537039,-0.054642, 9.791781,1,0
1778256909102,  1845.225,  1845.220, 0.024814, 0.025296,-1.024639, 0.000320, 0.000300,-0.010188,-0.348962, 0.307616, 0.311178,1, 0.048532, 0.004852,-0.137061,1,-0.537556,-0.044996, 9.791802,1,0
1778256909124,  1845.245,  1845.245, 0.063427,-0.084437,-1.041194, 0.000571,-0.000777,-0.010229, 0.082601,-0.860305,-0.418878,1, 0.069639, 0.008696,-0.129939,1,-0.539666,-0.030318, 9.791742,1,0
1778256909150,  1845.270,  1845.270, 0.100888, 0.017757,-0.980841, 0.000918, 0.000047,-0.009901, 0.146910,-0.447891,-0.297850,1, 0.077874,-0.013463,-0.150783,1,-0.538213,-0.023864, 9.791841,1,0
1778256909172,  1845.295,  1845.290, 0.132316,-0.031215,-1.061151, 0.001150,-0.000183,-0.010531, 0.466698, 0.245533, 0.353891,1, 0.094711,-0.014481,-0.144356,1,-0.535279, 0.000344, 9.792030,1,0
1778256909195,  1845.315,  1845.315, 0.147737,-0.101825,-0.916228, 0.001458,-0.001080,-0.009345, 0.913656,-0.969887, 0.806871,1, 0.153840,-0.019050,-0.189356,1,-0.534569, 0.033150, 9.792013,1,0
1778256909220,  1845.340,  1845.340, 0.213696, 0.032109,-0.905485, 0.002187, 0.000260,-0.009028, 1.563101, 0.370138, 0.912250,1, 0.137712,-0.035678,-0.195658,1,-0.531463, 0.059212, 9.792059,1,0
1778256909242,  1845.365,  1845.360, 0.185941,-0.155450,-1.094001, 0.001889,-0.001444,-0.011048, 1.218603,-0.582169,-1.167568,1, 0.129476,-0.016732,-0.200981,1,-0.527729, 0.083404, 9.792085,1,0
1778256909265,  1845.385,  1845.385, 0.245214,-0.055803,-0.888819, 0.002339,-0.000813,-0.009072, 1.881855,-0.420856, 1.075545,1, 0.198496,-0.018715,-0.243599,1,-0.522390, 0.132171, 9.791835,1,0
1778256909290,  1845.410,  1845.410, 0.215858,-0.023846,-0.993115, 0.002049,-0.000097,-0.009663, 1.598600,-0.072444, 0.052485,1, 0.187987,-0.025433,-0.230060,1,-0.517566, 0.166884, 9.791560,1,0
1778256909312,  1845.435,  1845.430, 0.223762,-0.159521,-1.028073, 0.002087,-0.001556,-0.010557, 1.170458,-1.361978,-0.869366,1, 0.181981,-0.011423,-0.271561,1,-0.513395, 0.200483, 9.791150,1,0
1778256909335,  1845.460,  1845.455, 0.188334, 0.008391,-1.060988, 0.001854, 0.000126,-0.010260, 1.337504, 0.332788,-0.614534,1, 0.187266,-0.020842,-0.286120,1,-0.509001, 0.255875, 9.790089,1,0
1778256909360,  1845.480,  1845.480, 0.150007,-0.146853,-1.047021, 0.001522,-0.001546,-0.010214, 1.022208,-0.306547, 0.217838,1, 0.210896,-0.032401,-0.268575,1,-0.505907, 0.273947, 9.789760,1,0
1778256909382,  1845.505,  1845.500, 0.171323,-0.001823,-1.090927, 0.001697,-0.000003,-0.010907, 0.861889, 0.165882, 0.123370,1, 0.201846,-0.058729,-0.287186,1,-0.499013, 0.330558, 9.788365,1,0
1778256909405,  1845.530,  1845.525, 0.330597,-0.130005,-0.873354, 0.003223,-0.001470,-0.009057, 2.753510,-0.896236, 1.222475,1, 0.202295,-0.046949,-0.261745,1,-0.487389, 0.384575, 9.786978,1,0
1778256909430,  1845.550,  1845.550, 0.375970,-0.044023,-0.872791, 0.003677,-0.000700,-0.008842, 3.208796,-0.021656, 1.227237,1, 0.155279,-0.080199,-0.270155,1,-0.476060, 0.414486, 9.786315,1,0
1778256909452,  1845.575,  1845.570, 0.388208,-0.102413,-0.974346, 0.003900,-0.001105,-0.009700, 3.585727,-0.817740,-1.540081,1, 0.142834,-0.001318,-0.272162,1,-0.474390, 0.437293, 9.785403,1,0
1778256909475,  1845.600,  1845.595, 0.408993,-0.079796,-0.942617, 0.003832,-0.000567,-0.009003, 3.541303,-0.320368, 0.540579,1, 0.096866,-0.033912,-0.256469,1,-0.468868, 0.464794, 9.784402,1,0
1778256909501,  1845.620,  1845.620, 0.409327,-0.061231,-1.037700, 0.004226,-0.000735,-0.010160, 3.546970,-0.122198,-0.392532,1, 0.066025,-0.034970,-0.241808,1,-0.466439, 0.479965, 9.783785,1,0
1778256909522,  1845.645,  1845.640, 0.423007,-0.085576,-1.136070, 0.004200,-0.000695,-0.010957, 3.326798, 0.014812,-1.418046,1, 0.049001,-0.033362,-0.221358,1,-0.458691, 0.490758, 9.783616,1,0
1778256909545,  1845.670,  1845.665, 0.374103,-0.055601,-1.120134, 0.003599,-0.000649,-0.011121, 3.210895,-0.035221,-1.202091,1, 0.075068,-0.028242,-0.170847,1,-0.457214, 0.512155, 9.782588,1,0
1778256909571,  1845.690,  1845.690, 0.405007, 0.027678,-0.908609, 0.004282, 0.000214,-0.009562, 3.514828, 0.797198, 0.871464,1, 0.099922,-0.015748,-0.152737,1,-0.456696, 0.528662, 9.781734,1,0
1778256909592,  1845.715,  1845.710, 0.360415,-0.009649,-0.745862, 0.003698, 0.000051,-0.007694, 3.451735,-0.099922, 0.468204,1, 0.099173,-0.020075,-0.142851,1,-0.455875, 0.547893, 9.780714,1,0
1778256909615,  1845.740,  1845.735, 0.112638,-0.051773,-1.036618, 0.001409,-0.000504,-0.009793, 0.656701, 0.061484,-0.385885,1, 0.057211,-0.035274,-0.097133,1,-0.446978, 0.570846, 9.779813,1,0
1778256909641,  1845.760,  1845.760,-0.005111,-0.103124,-1.171093, 0.000419,-0.000893,-0.011176,-0.494112,-0.431071,-1.705107,1, 0.055380,-0.003285,-0.065557,1,-0.444011, 0.581858, 9.779299,1,0
1778256909662,  1845.785,  1845.780, 0.034318,-0.068223,-0.993247, 0.000300,-0.000471,-0.009715,-0.561097,-0.247426,-0.519146,1, 0.050978, 0.016464,-0.066292,1,-0.445270, 0.590619, 9.778716,1,0
1778256909689,  1845.810,  1845.810, 0.074414,-0.069801,-0.785115, 0.000790,-0.000775,-0.008521, 0.676737, 0.090023, 2.243911,1, 0.040759, 0.061796,-0.076252,1,-0.459351, 0.602069, 9.777367,1,0
1778256909711,  1845.830,  1845.830, 0.124925,-0.067791,-0.886366, 0.001208,-0.000863,-0.008477, 0.757543,-0.060771, 1.084577,1,-0.013470, 0.035920,-0.052407,1,-0.468776, 0.603536, 9.776829,1,0
1778256909732,  1845.855,  1845.850, 0.122660,-0.095548,-1.105013, 0.001327,-0.000950,-0.011449, 0.751990, 0.043623,-0.589762,1,-0.009465, 0.100523,-0.081767,1,-0.486677, 0.601957, 9.776052,1,0
1778256909759,  1845.880,  1845.880, 0.044669,-0.028476,-1.065920, 0.000436,-0.000193,-0.010203,-0.066026, 0.325514,-0.678107,1, 0.008615, 0.045468,-0.084314,1,-0.505657, 0.604908, 9.774906,1,0
1778256909781,  1845.905,  1845.900, 0.085889,-0.028452,-0.923375, 0.000693,-0.000296,-0.008877, 0.596451, 0.985987,-0.076498,1, 0.018341, 0.038058,-0.052575,1,-0.513767, 0.605576, 9.774442,1,0
1778256909802,  1845.925,  1845.920, 0.170239, 0.007527,-0.855348, 0.001879,-0.000121,-0.008648, 0.219437, 0.953641, 2.117341,1, 0.080290, 0.027297,-0.051227,1,-0.519731, 0.613146, 9.773654,1,0
1778256909829,  1845.950,  1845.950, 0.141758, 0.036999,-1.160232, 0.001300, 0.000281,-0.010825, 0.868187, 0.984820,-1.605015,1,-0.000464, 0.000111, 0.026341,1,-0.521937, 0.622015, 9.772976,1,0
1778256909851,  1845.975,  1845.970, 0.170669, 0.044287,-1.162675, 0.001364, 0.000427,-0.011592, 0.834623, 1.042074,-1.168975,1, 0.055730, 0.008976, 0.086521,1,-0.523017, 0.631944, 9.772282,1,0
1778256909873,  1845.995,  1845.990, 0.108221, 0.122970,-0.787235, 0.001002, 0.000849,-0.008306, 1.586647, 1.524432, 0.106749,1, 0.081367, 0.035129, 0.094353,1,-0.529922, 0.644856, 9.771066,1,0
1778256909900,  1846.020,  1846.020, 0.077484,-0.030029,-0.828166, 0.000815, 0.000043,-0.007929, 0.228801, 0.373326, 1.647928,1, 0.082152,-0.021518, 0.119903,1,-0.530135, 0.670565, 9.769323,1,0
1778256909921,  1846.045,  1846.040,-0.071735, 0.146861,-1.136613,-0.000429, 0.001335,-0.012530,-0.559853, 2.281440,-2.741151,1, 0.102410, 0.028112, 0.184409,1,-0.528793, 0.687988, 9.768185,1,0
1778256909943,  1846.065,  1846.060,-0.048503, 0.101135,-0.884765,-0.000569, 0.001589,-0.008853,-0.825277, 1.625489,-1.088436,1, 0.059747, 0.032485, 0.254945,1,-0.533211, 0.705966, 9.766662,1,0
1778256909970,  1846.090,  1846.090,-0.151947, 0.065787,-0.949614,-0.001326, 0.000518,-0.009885,-2.023879, 1.386129, 0.451500,1, 0.115160, 0.017871, 0.204871,1,-0.533865, 0.744909, 9.763733,1,0
1778256909991,  1846.115,  1846.110,-0.210370,-0.007358,-1.020273,-0.002381, 0.000348,-0.009550,-2.653408, 0.461207,-0.272224,1, 0.076310,-0.001756, 0.297655,1,-0.533588, 0.766730, 9.762059,1,0
1778256910013,  1846.135,  1846.130,-0.151689, 0.111797,-1.042555,-0.001444, 0.000798,-0.011674,-2.864446, 1.804513,-0.284920,1, 0.115584,-0.013435, 0.341662,1,-0.522617, 0.788994, 9.760879,1,0
1778256910040,  1846.160,  1846.160,-0.062936, 0.141535,-0.987241,-0.000712, 0.001748,-0.009157,-1.135871, 2.212461, 0.076627,1, 0.147660, 0.020443, 0.320101,1,-0.518477, 0.829592, 9.757732,1,0
1778256910061,  1846.185,  1846.180,-0.027684, 0.154624,-1.041114,-0.000428, 0.000764,-0.010213,-1.298342, 0.821516, 1.195192,1, 0.123626,-0.023786, 0.391830,1,-0.507825, 0.855167, 9.756084,1,0
1778256910083,  1846.205,  1846.200,-0.082765, 0.052299,-1.043046,-0.000792, 0.000677,-0.010588,-1.426308, 1.130459, 0.196453,1, 0.100145,-0.030436, 0.443409,1,-0.496690, 0.877621, 9.754663,1,0
1778256910110,  1846.230,  1846.230,-0.042231, 0.126463,-1.038158,-0.000546, 0.001657,-0.011217,-0.894817, 2.137516,-0.427182,1, 0.069594,-0.004772, 0.466503,1,-0.479189, 0.900213, 9.753480,1,0
1778256910131,  1846.255,  1846.250, 0.130639, 0.057906,-0.961440, 0.001054, 0.000851,-0.009430, 0.476351, 2.066038, 0.430847,1, 0.001695,-0.016761, 0.510368,1,-0.468525, 0.911050, 9.752993,1,0
1778256910153,  1846.275,  1846.270, 0.102518, 0.106181,-1.204285, 0.001409, 0.000464,-0.011411, 0.579700, 1.784454, 0.340743,1, 0.003811,-0.033422, 0.577426,1,-0.450635, 0.916364, 9.753337,1,0
1778256910180,  1846.300,  1846.300, 0.201255, 0.116550,-0.815812, 0.001926, 0.001250,-0.008282, 1.533835, 2.056524, 1.753717,1,-0.057811, 0.029246, 0.604568,1,-0.438948, 0.912605, 9.754223,1,0
1778256910201,  1846.325,  1846.320, 0.207214, 0.007254,-1.068680, 0.002314, 0.000518,-0.010559, 2.353275, 2.461162,-1.188521,1,-0.179494, 0.022506, 0.700311,1,-0.433103, 0.894300, 9.756179,1,0
1778256910224,  1846.345,  1846.345, 0.336017, 0.168758,-0.936138, 0.003080, 0.001468,-0.009182, 2.867103, 2.514363, 0.579151,1,-0.257276, 0.028219, 0.809989,1,-0.426752, 0.852527, 9.760198,1,0
1778256910250,  1846.370,  1846.370, 0.215136, 0.214768,-1.199743, 0.002064, 0.001760,-0.011534, 1.688344, 2.921284,-2.001841,1,-0.329932, 0.064010, 0.830231,1,-0.421248, 0.805992, 9.764390,1,0
1778256910272,  1846.395,  1846.390, 0.340564, 0.153659,-0.984246, 0.003274, 0.001728,-0.009039, 3.750149, 2.185489,-0.524477,1,-0.370612, 0.093411, 0.875372,1,-0.425754, 0.748970, 9.768734,1,0
1778256910294,  1846.415,  1846.415, 0.139741, 0.156057,-0.954552, 0.001518, 0.000840,-0.009840, 0.947240, 2.196927, 0.413854,1,-0.372831, 0.071568, 0.924745,1,-0.423412, 0.656172, 9.775507,1,0
1778256910320,  1846.440,  1846.440, 0.148103, 0.018596,-1.080791, 0.001681,-0.000061,-0.010582, 1.025689, 0.786801,-0.820247,1,-0.384792, 0.096054, 0.930414,1,-0.427902, 0.593725, 9.779304,1,0
1778256910342,  1846.465,  1846.460, 0.151110, 0.152339,-0.853502, 0.001511, 0.000818,-0.009418, 0.995902, 1.088446, 0.980474,1,-0.257329, 0.116753, 0.891605,1,-0.436960, 0.541805, 9.781917,1,0
1778256910364,  1846.485,  1846.485, 0.055202, 0.061813,-1.094745, 0.000831, 0.000071,-0.010920, 0.085403, 1.081700,-0.951290,1,-0.304170, 0.080302, 0.824043,1,-0.457194, 0.467240, 9.784838,1,0
1778256910390,  1846.510,  1846.510,-0.053707,-0.092698,-0.995290,-0.000984,-0.000172,-0.009691,-0.994701,-0.478278, 0.025537,1,-0.194409, 0.098555, 0.823999,1,-0.469948, 0.425949, 9.786118,1,0
1778256910412,  1846.535,  1846.530,-0.089558, 0.078350,-0.900217,-0.000247, 0.000398,-0.009103,-1.162069, 0.882311, 1.366222,1,-0.260754, 0.044150, 0.768497,1,-0.476982, 0.379860, 9.787675,1,0
1778256910435,  1846.555,  1846.555, 0.061437,-0.100445,-1.063353, 0.000001,-0.000345,-0.008773, 0.114296,-0.663362,-0.638726,1,-0.280913, 0.056830, 0.746325,1,-0.489200, 0.314076, 9.789404,1,0
1778256910460,  1846.580,  1846.580, 0.045549, 0.002924,-0.956301, 0.000223, 0.000119,-0.010142,-0.042165, 0.292379, 0.412791,1,-0.309441, 0.029277, 0.730418,1,-0.489140, 0.255194, 9.791119,1,0
1778256910482,  1846.605,  1846.600, 0.094591,-0.002180,-0.910628, 0.000989,-0.000034,-0.008894, 0.730394, 1.582432, 0.847686,1,-0.338986, 0.028801, 0.680837,1,-0.496571, 0.194364, 9.792141,1,0
1778256910505,  1846.625,  1846.625, 0.154153,-0.099331,-1.050362, 0.001570, 0.000052,-0.009364, 1.008835,-0.864837,-0.507400,1,-0.332635, 0.065812, 0.650533,1,-0.504716, 0.099939, 9.793143,1,0
1778256910530,  1846.650,  1846.650, 0.097854,-0.021420,-0.707335, 0.001217,-0.000138,-0.008065, 0.448993,-0.160572, 2.856633,1,-0.286775, 0.047374, 0.567656,1,-0.512011, 0.041473, 9.793187,1,0
1778256910552,  1846.675,  1846.670, 0.008933,-0.229894,-1.076617, 0.000101,-0.002183,-0.010718,-0.181437,-1.876337,-0.161384,1,-0.248290, 0.021294, 0.456358,1,-0.519800,-0.009815, 9.792859,1,0
1778256910575,  1846.700,  1846.695, 0.076618,-0.222616,-1.044824, 0.000624,-0.002293,-0.010599, 0.223966,-2.239202,-0.453929,1,-0.140959, 0.042437, 0.269612,1,-0.528769,-0.060024, 9.792200,1,0
1778256910600,  1846.720,  1846.720,-0.008463,-0.291302,-0.810434, 0.000820,-0.002488,-0.008895,-0.616643,-2.925022, 1.844234,1,-0.004680, 0.014467, 0.134452,1,-0.534129,-0.068246, 9.791856,1,0
1778256910622,  1846.745,  1846.740, 0.070538,-0.346605,-1.081769, 0.000887,-0.003729,-0.011397, 0.191609,-2.309647,-0.024950,1,-0.012071,-0.039772,-0.020184,1,-0.528392,-0.070121, 9.792153,1,0
1778256910645,  1846.770,  1846.765, 0.157038,-0.357023,-0.944074, 0.001290,-0.002697,-0.008412, 1.012063,-3.553709, 0.534079,1, 0.106173, 0.021854,-0.182468,1,-0.528609,-0.049505, 9.792268,1,0
1778256910670,  1846.790,  1846.790, 0.214514,-0.268022,-1.054322, 0.001641,-0.002517,-0.010724, 1.573582,-2.672762,-0.547153,1, 0.059638, 0.055811,-0.243674,1,-0.531791,-0.042919, 9.792127,1,0
1778256910692,  1846.815,  1846.810, 0.155583,-0.243532,-0.977297, 0.002009,-0.002685,-0.010020, 0.776899,-0.801335, 1.848025,1, 0.006668, 0.037039,-0.302660,1,-0.541654,-0.041377, 9.791593,1,0
1778256910715,  1846.840,  1846.835, 0.168339,-0.232360,-1.249039, 0.001500,-0.002324,-0.012465, 1.093412,-2.338024,-2.458276,1,-0.106856, 0.076220,-0.310026,1,-0.559744,-0.063230, 9.790459,1,0
1778256910741,  1846.860,  1846.860, 0.186151,-0.021543,-0.938364, 0.001756, 0.000313,-0.008716, 1.251691,-0.292322, 0.587306,1,-0.113747, 0.075067,-0.328079,1,-0.576077,-0.085204, 9.789344,1,0
1778256910762,  1846.885,  1846.880, 0.029862,-0.082642,-1.281590,-0.000118,-0.000496,-0.012070,-0.136193,-1.020266, 0.186232,1,-0.137409, 0.012601,-0.312905,1,-0.577742,-0.114997, 9.788941,1,0
1778256910785,  1846.910,  1846.905, 0.035225, 0.055165,-0.942717, 0.000042, 0.000099,-0.011505,-0.241998, 0.372738, 0.542695,1,-0.173990, 0.026499,-0.327779,1,-0.588085,-0.174276, 9.787450,1,0
1778256910811,  1846.930,  1846.930,-0.149539,-0.019617,-0.972560,-0.001276, 0.000071,-0.009086,-2.052989,-0.393159, 0.249482,1,-0.155441,-0.024890,-0.313927,1,-0.585538,-0.206211, 9.786982,1,0
1778256910832,  1846.955,  1846.950,-0.079786,-0.133442,-1.013641,-0.000710,-0.001035,-0.010232,-1.256051,-1.197217,-1.453296,1,-0.157809, 0.027510,-0.322662,1,-0.584074,-0.241382, 9.786264,1,0
1778256910855,  1846.980,  1846.975,-0.101902,-0.035022,-0.940536,-0.001017,-0.000079,-0.009761,-1.588067,-0.620937, 0.561518,1,-0.091553, 0.023304,-0.368301,1,-0.589156,-0.281031, 9.784902,1,0
1778256910881,  1847.000,  1847.000,-0.161534,-0.188644,-1.033836,-0.002099,-0.001720,-0.009357,-2.172928,-2.148252,-0.354059,1,-0.088306, 0.011945,-0.413346,1,-0.588805,-0.301813, 9.784304,1,0
1778256910902,  1847.025,  1847.020,-0.081896,-0.123245,-1.031588,-0.000759,-0.001266,-0.011184,-1.558474,-1.904034,-0.635422,1,-0.062843, 0.031080,-0.482511,1,-0.590653,-0.320232, 9.783607,1,0
1778256910929,  1847.050,  1847.050, 0.019000,-0.241278,-1.043933, 0.000103,-0.002172,-0.009513,-0.415093,-2.696552,-0.454875,1, 0.005408, 0.048174,-0.574731,1,-0.602318,-0.331358, 9.782525,1,0
1778256910951,  1847.070,  1847.070, 0.036908,-0.275091,-1.099157, 0.000031,-0.003189,-0.011705,-0.243343,-3.032229,-0.996816,1, 0.046784, 0.068069,-0.676897,1,-0.606648,-0.334339, 9.782156,1,0
1778256910972,  1847.095,  1847.090, 0.102472,-0.162535,-0.924475, 0.001357,-0.002086,-0.009578, 0.736362,-3.262282, 0.501966,1, 0.058389, 0.074661,-0.720807,1,-0.618924,-0.330489, 9.781518,1,0
1778256910999,  1847.120,  1847.120, 0.194849,-0.332440,-1.175786, 0.001809,-0.002979,-0.011222, 1.286287,-3.587549,-1.749259,1, 0.095613, 0.088776,-0.781532,1,-0.626479,-0.326006, 9.781187,1,0
1778256911021,  1847.145,  1847.140, 0.242259,-0.033936,-0.829025, 0.002298,-0.001004,-0.008843, 1.980952,-2.468307, 0.845276,1, 0.076014, 0.046474,-0.809024,1,-0.634002,-0.322403, 9.780822,1,0
1778256911043,  1847.165,  1847.160, 0.261552,-0.130648,-1.151545, 0.003049,-0.001602,-0.011340, 1.670872,-1.937417,-2.740879,1, 0.029471, 0.079256,-0.797315,1,-0.640105,-0.319443, 9.780521,1,0
1778256911069,  1847.190,  1847.190, 0.345007,-0.158505,-0.803762, 0.003968,-0.002662,-0.009540, 2.714893,-1.862117, 1.896784,1, 0.152643, 0.091367,-0.816972,1,-0.670515,-0.304705, 9.778955,1,0
1778256911091,  1847.215,  1847.210, 0.154190,-0.022211,-0.893847, 0.001598,-0.000463,-0.008666, 1.760891,-2.050980, 1.711561,1, 0.180542, 0.035160,-0.819584,1,-0.679488,-0.287455, 9.778857,1,0
1778256911113,  1847.235,  1847.230,-0.006922,-0.022825,-0.968481, 0.000309,-0.000516,-0.009427,-0.304219,-2.687299,-1.041076,1, 0.221469,-0.012998,-0.792981,1,-0.674465,-0.254198, 9.780126,1,0
1778256911140,  1847.260,  1847.260, 0.092502,-0.064752,-0.917430, 0.000979,-0.000865,-0.009302, 0.244900,-0.827321, 0.785452,1, 0.347047,-0.057844,-0.731111,1,-0.659984,-0.183052, 9.782704,1,0
1778256911161,  1847.285,  1847.280, 0.271830,-0.091736,-1.039361, 0.002060,-0.000634,-0.011046, 1.160584,-1.707334,-0.393278,1, 0.387882,-0.022767,-0.761101,1,-0.649378,-0.124275, 9.784337,1,0
1778256911183,  1847.305,  1847.300, 0.302672,-0.097520,-0.985912, 0.002290,-0.000506,-0.009640, 1.438618,-2.573113,-0.368507,1, 0.379359, 0.033126,-0.755185,1,-0.649950,-0.062903, 9.784886,1,0
1778256911210,  1847.330,  1847.330, 0.172324,-0.012985,-0.759691, 0.001513,-0.000373,-0.008295, 1.043437,-0.107024, 2.335270,1, 0.387491,-0.046700,-0.719896,1,-0.645075, 0.030907, 9.785362,1,0
1778256911231,  1847.355,  1847.350, 0.072759,-0.137924,-0.960436, 0.000645,-0.000945,-0.010809, 0.703189, 0.185583,-1.364617,1, 0.345376,-0.001886,-0.705152,1,-0.644199, 0.089608, 9.785058,1,0
1778256911253,  1847.375,  1847.370,-0.013075,-0.235566,-1.105304, 0.000087,-0.001751,-0.010277, 0.086330,-0.038251,-0.228253,1, 0.304733,-0.024421,-0.682717,1,-0.642783, 0.143505, 9.784510,1,0
1778256911280,  1847.400,  1847.400, 0.056181,-0.154145,-1.189480, 0.000454,-0.001223,-0.011350,-0.082175,-1.296731,-1.880988,1, 0.253498,-0.042142,-0.587413,1,-0.632210, 0.221629, 9.783740,1,0
1778256911301,  1847.425,  1847.420,-0.061154,-0.016045,-0.693196, 0.000091,-0.000802,-0.008330, 0.239010, 0.130095, 1.452732,1, 0.260956,-0.061796,-0.560472,1,-0.625705, 0.268922, 9.782973,1,0
1778256911323,  1847.445,  1847.440, 0.055384,-0.134301,-1.122343, 0.000525,-0.001567,-0.011603,-0.024040,-1.709211,-1.773834,1, 0.191947,-0.030619,-0.504744,1,-0.615869, 0.306734, 9.782485,1,0
1778256911350,  1847.470,  1847.470,-0.067148,-0.096186,-1.006395,-0.000430,-0.000877,-0.010099,-1.268965,-0.592146,-0.088033,1, 0.189189,-0.039620,-0.441277,1,-0.609941, 0.356140, 9.781182,1,0
1778256911371,  1847.495,  1847.490,-0.065122,-0.030968,-0.824303,-0.000872,-0.000444,-0.008451,-0.778305,-0.751748, 0.188142,1, 0.135683,-0.057275,-0.423253,1,-0.602594, 0.376716, 9.780867,1,0
1778256911393,  1847.515,  1847.510,-0.161378,-0.115753,-0.738338,-0.001360,-0.000606,-0.006206,-0.798950,-1.157396, 0.636876,1, 0.112843,-0.104897,-0.432726,1,-0.593371, 0.395139, 9.780704,1,0
1778256911420,  1847.540,  1847.540,-0.051872,-0.124330,-1.004320,-0.000919,-0.001466,-0.010999,-1.068770,-0.816599,-0.066654,1, 0.023268,-0.126212,-0.383942,1,-0.556643, 0.402705, 9.782554,1,0
1778256911441,  1847.565,  1847.560, 0.100450,-0.105973,-0.823828, 0.001127,-0.001119,-0.007847, 0.275658,-1.297664, 3.037031,1, 0.076317,-0.073871,-0.408979,1,-0.543909, 0.412603, 9.782858,1,0
1778256911464,  1847.585,  1847.585, 0.149672,-0.034048,-1.260769, 0.001187,-0.000868,-0.012914, 0.933181, 0.081105,-2.580654,1,-0.014631,-0.001765,-0.404055,1,-0.535081, 0.413861, 9.783292,1,0
1778256911490,  1847.610,  1847.610, 0.049966,-0.227564,-0.584964, 0.001388,-0.001924,-0.006251,-0.048845,-1.807102, 4.046093,1, 0.135801,-0.016487,-0.406703,1,-0.538880, 0.428066, 9.782472,1,0
1778256911512,  1847.635,  1847.630, 0.006433,-0.127528,-1.344901, 0.000285,-0.000411,-0.011967,-0.503717,-0.796689,-0.618002,1, 0.089215,-0.057984,-0.462447,1,-0.534624, 0.442173, 9.782078,1,0
1778256911534,  1847.655,  1847.655,-0.122396,-0.182884,-1.163681,-0.001034,-0.001704,-0.011365,-1.732969,-1.318583,-1.631168,1, 0.170009,-0.027691,-0.454609,1,-0.532495, 0.479416, 9.780439,1,0
1778256911560,  1847.680,  1847.680,-0.007539,-0.135224,-1.010137,-0.000523,-0.000739,-0.009417,-0.604372,-0.808603,-0.127450,1, 0.276003,-0.041553,-0.487117,1,-0.529939, 0.525264, 9.778223,1,0
1778256911582,  1847.705,  1847.700, 0.110929,-0.128441,-1.197504, 0.000620,-0.000922,-0.010794,-0.340526, 0.304959, 1.514639,1, 0.283558,-0.064826,-0.445325,1,-0.524589, 0.575489, 9.775684,1,0
1778256911604,  1847.725,  1847.725, 0.020534,-0.148793,-1.037871,-0.000225,-0.001238,-0.009450,-0.316284,-0.804700,-0.406957,1, 0.353037,-0.073881,-0.386614,1,-0.516155, 0.664808, 9.770466,1,0
1778256911630,  1847.750,  1847.750,-0.098741,-0.022301,-0.983865,-0.001530,-0.000303,-0.009071,-1.467615, 0.507787, 0.118521,1, 0.365986,-0.132834,-0.347334,1,-0.495964, 0.737311, 9.766308,1,0
1778256911652,  1847.775,  1847.770, 0.003623, 0.133848,-1.164614,-0.000731, 0.001181,-0.011925,-1.886977, 0.294518,-1.378886,1, 0.398674,-0.128453,-0.260066,1,-0.472366, 0.812938, 9.761475,1,0
1778256911675,  1847.795,  1847.795,-0.046318, 0.130135,-0.816473,-0.000660, 0.000833,-0.008741,-0.902268, 2.193348, 1.746507,1, 0.424175,-0.105793,-0.200196,1,-0.445341, 0.930044, 9.752286,1,0
1778256911700,  1847.820,  1847.820, 0.006697, 0.101839,-0.972440, 0.000177, 0.000181,-0.009629,-0.360472, 1.999909, 0.209700,1, 0.358965,-0.152515,-0.112550,1,-0.421777, 1.012197, 9.745150,1,0
1778256911722,  1847.845,  1847.840, 0.018136, 0.141710,-0.992070, 0.000793, 0.000940,-0.010460,-1.305978, 1.874300, 0.608468,1, 0.413636,-0.124328,-0.018470,1,-0.398448, 1.094887, 9.737188,1,0
1778256911745,  1847.865,  1847.865, 0.143978, 0.017871,-1.156148, 0.001457, 0.000709,-0.009731, 1.025755, 1.375272,-1.612663,1, 0.392311,-0.027568, 0.095502,1,-0.384897, 1.212274, 9.723818,1,0
1778256911770,  1847.890,  1847.890, 0.137055, 0.089199,-1.010215, 0.000926, 0.000511,-0.010158, 0.967655, 2.138577,-0.189244,1, 0.284588, 0.043336, 0.202993,1,-0.376923, 1.272882, 9.716382,1,0
1778256911792,  1847.915,  1847.910, 0.169874, 0.188510,-1.026433, 0.001823, 0.001563,-0.010319, 1.861217, 1.978965, 0.013608,1, 0.184023, 0.060046, 0.297344,1,-0.382192, 1.318233, 9.710128,1,0
1778256911815,  1847.940,  1847.935, 0.152172, 0.129823,-0.895741, 0.001876, 0.000913,-0.008787, 1.107152, 2.620466, 0.921792,1, 0.040217, 0.043003, 0.452353,1,-0.384533, 1.349138, 9.705790,1,0
1778256911840,  1847.960,  1847.960, 0.116888, 0.149961,-0.897162, 0.001208, 0.000869,-0.009635, 0.770554, 2.811967, 0.909061,1,-0.105874, 0.074113, 0.592259,1,-0.375488, 1.338789, 9.707576,1,0
1778256911862,  1847.985,  1847.980, 0.068080, 0.198340,-1.069892, 0.000986, 0.001438,-0.011283, 0.183588, 3.548679, 0.521917,1,-0.189348, 0.008467, 0.623231,1,-0.376924, 1.311183, 9.711287,1,0
1778256911885,  1848.010,  1848.005, 0.172648, 0.179548,-1.116309, 0.001569, 0.001761,-0.011193, 1.305493, 3.028605,-1.230639,1,-0.253164, 0.088739, 0.691149,1,-0.387561, 1.260859, 9.717531,1,0
1778256911911,  1848.030,  1848.030, 0.043331, 0.096668,-1.101611, 0.000317, 0.000687,-0.011302, 0.035841, 2.179828,-1.081927,1,-0.244541, 0.067980, 0.694621,1,-0.388466, 1.225135, 9.722064,1,0
1778256911932,  1848.055,  1848.050, 0.018701,-0.215609,-0.964031, 0.000424,-0.000887,-0.007996,-0.008057, 1.031779,-1.503901,1,-0.230600, 0.101148, 0.657321,1,-0.392826, 1.190032, 9.726248,1,0
1778256911955,  1848.080,  1848.075,-0.077411,-0.201377,-1.124947,-0.000316,-0.000832,-0.010755,-1.151384,-0.829064,-1.300379,1,-0.136740, 0.059792, 0.600180,1,-0.391901, 1.142284, 9.732008,1,0
1778256911981,  1848.100,  1848.100, 0.004558,-0.159656,-0.998961, 0.000336,-0.000625,-0.009528,-0.350955,-0.447409,-0.061820,1,-0.132698, 0.091696, 0.569916,1,-0.396461, 1.114890, 9.735000,1,0
1778256912002,  1848.125,  1848.120,-0.058131,-0.006681,-0.935540,-0.000206,-0.000467,-0.008694,-0.239138,-0.047295,-0.361305,1,-0.137270, 0.078242, 0.538237,1,-0.401372, 1.088767, 9.737755,1,0
1778256912025,  1848.150,  1848.145, 0.052583,-0.039332,-1.017745,-0.000017,-0.000655,-0.009871, 0.107851, 0.673873,-0.239960,1,-0.109609, 0.090959, 0.491510,1,-0.408977, 1.056831, 9.740956,1,0
1778256912051,  1848.170,  1848.170, 0.050522,-0.049479,-0.972135, 0.000156,-0.000892,-0.009477, 0.077470, 0.554741, 0.209002,1,-0.095057, 0.096010, 0.453323,1,-0.419462, 1.037617, 9.742576,1,0
1778256912072,  1848.195,  1848.190, 0.045709, 0.005557,-1.200382,-0.000014, 0.000124,-0.011740, 0.094291, 0.157527,-0.202817,1,-0.056138, 0.107534, 0.437153,1,-0.431977, 1.020457, 9.743841,1,0
1778256912095,  1848.220,  1848.215,-0.002708,-0.162502,-1.296584,-0.000688,-0.000488,-0.010792,-0.469204,-0.601126,-2.968896,1,-0.102379, 0.064848, 0.424698,1,-0.443314, 0.989898, 9.746485,1,0
1778256912121,  1848.240,  1848.240, 0.054423,-0.019682,-1.103748,-0.000202,-0.000123,-0.009993, 0.085108, 0.781029,-1.076236,1,-0.138226, 0.131357, 0.389400,1,-0.451469, 0.970309, 9.748080,1,0
1778256912142,  1848.265,  1848.260, 0.140540,-0.067927,-1.204251, 0.000997, 0.000021,-0.011867,-0.198444, 0.895194, 0.745444,1,-0.151032, 0.056028, 0.370286,1,-0.453037, 0.953040, 9.749711,1,0
1778256912169,  1848.290,  1848.290, 0.151435,-0.049125,-0.822657, 0.001455,-0.000546,-0.009239, 1.025457, 0.447346, 1.684204,1,-0.068520, 0.067527, 0.358181,1,-0.460650, 0.927497, 9.751817,1,0
1778256912191,  1848.310,  1848.310, 0.097207,-0.014558,-0.900634, 0.000554, 0.000002,-0.008917, 0.492441, 0.773210, 0.920694,1,-0.071496, 0.042947, 0.329826,1,-0.461209, 0.914239, 9.753042,1,0
1778256912212,  1848.335,  1848.330, 0.081800,-0.127404,-0.908275, 0.001578,-0.001527,-0.010711, 0.566602, 1.256346,-0.938829,1,-0.118984, 0.089178, 0.291208,1,-0.469414, 0.897736, 9.754184,1,0
1778256912239,  1848.360,  1848.360, 0.155481,-0.292609,-0.964387, 0.001136,-0.001443,-0.007678, 1.048721,-1.981192, 0.297323,1,-0.024420, 0.023391, 0.260876,1,-0.476015, 0.887958, 9.754759,1,0
1778256912261,  1848.385,  1848.380, 0.108071,-0.065513,-0.851504, 0.001417,-0.001412,-0.009579, 0.088353, 0.346656,-0.004483,1,-0.060931, 0.039693, 0.220894,1,-0.473880, 0.874364, 9.756091,1,0
1778256912283,  1848.405,  1848.400, 0.122363,-0.197023,-0.838494, 0.001144,-0.002325,-0.009040, 0.978934, 0.357684, 0.351897,1,-0.082477, 0.035508, 0.172478,1,-0.478326, 0.863758, 9.756819,1,0
1778256912309,  1848.430,  1848.430, 0.049661,-0.055206,-0.620642, 0.000509,-0.001666,-0.007929, 0.010416, 0.311195, 3.671471,1,-0.056089,-0.018856, 0.159454,1,-0.475573, 0.851083, 9.758067,1,0
1778256912331,  1848.455,  1848.450, 0.117042, 0.023067,-1.111380, 0.001362, 0.000068,-0.011272,-0.162179,-1.084955, 0.455479,1,-0.043996,-0.023210, 0.095264,1,-0.473595, 0.844017, 9.758777,1,0
1778256912353,  1848.475,  1848.470, 0.127982,-0.020841,-1.025261, 0.000924,-0.000819,-0.011470, 0.129538,-0.472953, 0.754876,1,-0.040406,-0.015662, 0.093243,1,-0.470471, 0.836183, 9.759603,1,0
1778256912380,  1848.500,  1848.500, 0.035509, 0.025131,-0.998489, 0.000377,-0.000627,-0.011179,-0.121284, 1.072129,-0.031293,1,-0.057906,-0.027529, 0.058162,1,-0.468505, 0.823967, 9.760736,1,0
1778256912401,  1848.525,  1848.520,-0.029015,-0.081245,-0.990701,-0.000212,-0.000221,-0.009894,-0.252487, 0.971350,-2.846283,1,-0.092003, 0.005456, 0.038580,1,-0.465320, 0.817202, 9.761457,1,0
1778256912423,  1848.545,  1848.540,-0.122324,-0.031832,-0.745275,-0.000232,-0.000469,-0.008620,-0.884340, 0.813377, 1.011105,1,-0.023147,-0.012582, 0.039239,1,-0.463545, 0.818511, 9.761432,1,0
1778256912450,  1848.570,  1848.570, 0.041168,-0.012363,-1.094207, 0.000385, 0.000245,-0.010748,-0.049945, 0.703672,-0.969145,1, 0.042201,-0.017572, 0.065294,1,-0.452949, 0.826315, 9.761271,1,0
1778256912471,  1848.595,  1848.590,-0.000696,-0.041657,-0.992953,-0.000275,-0.000967,-0.010330,-0.901891, 1.049370, 1.607582,1, 0.091844,-0.028375, 0.064857,1,-0.443376, 0.835739, 9.760909,1,0
1778256912493,  1848.615,  1848.610, 0.015395,-0.051657,-0.869630,-0.000044,-0.000546,-0.009314, 0.354796, 1.451068, 0.694385,1, 0.082925,-0.022646, 0.074129,1,-0.439339, 0.848578, 9.759984,1,0
1778256912520,  1848.640,  1848.640,-0.028470,-0.024578,-1.000280,-0.000141, 0.000264,-0.010223,-0.704966, 0.625152,-0.050354,1, 0.065135,-0.022993, 0.122983,1,-0.424719, 0.868374, 9.758889,1,0
1778256912541,  1848.665,  1848.660,-0.007720,-0.037902,-1.027787,-0.000190,-0.001160,-0.009792, 0.418220, 0.648513, 0.724356,1, 0.040569,-0.026357, 0.124458,1,-0.419851, 0.876092, 9.758410,1,0
1778256912563,  1848.685,  1848.680, 0.005957,-0.036211,-1.025627,-0.000008,-0.000973,-0.010390,-0.454857, 1.534135, 0.199883,1, 0.023823,-0.022491, 0.146775,1,-0.413405, 0.883268, 9.758039,1,0
1778256912590,  1848.710,  1848.710, 0.025114,-0.067310,-0.831130, 0.000506,-0.001323,-0.009084,-0.167876, 0.223755, 1.607349,1,-0.028216, 0.040093, 0.189077,1,-0.414871, 0.883218, 9.757981,1,0
1778256912611,  1848.735,  1848.730, 0.101221, 0.096063,-0.997048, 0.001041, 0.000653,-0.009666,-0.072498, 0.417990, 1.579386,1,-0.068637,-0.001276, 0.215307,1,-0.417440, 0.877172, 9.758417,1,0
1778256912633,  1848.755,  1848.750, 0.076371, 0.074484,-0.969494, 0.001315, 0.000379,-0.009803,-0.071932, 0.001560, 0.247218,1,-0.079343, 0.060365, 0.246834,1,-0.423548, 0.863542, 9.759369,1,0
1778256912660,  1848.780,  1848.780, 0.081505, 0.038947,-1.031685, 0.000998,-0.000170,-0.009706, 0.363825, 1.211461,-0.355579,1,-0.214966, 0.066283, 0.271404,1,-0.436812, 0.823216, 9.762269,1,0
1778256912681,  1848.805,  1848.800, 0.080226, 0.030751,-0.863182, 0.001182, 0.000339,-0.009766, 0.783682, 0.824455,-1.585736,1,-0.235024, 0.117522, 0.284499,1,-0.450523, 0.785081, 9.764787,1,0
1778256912704,  1848.825,  1848.825,-0.028852, 0.059333,-0.947589, 0.000394, 0.000268,-0.010120,-0.748163, 1.306418, 0.476094,1,-0.280954, 0.046709, 0.299841,1,-0.465985, 0.716265, 9.769350,1,0
1778256912730,  1848.850,  1848.850,-0.012632, 0.074981,-0.978523, 0.000213, 0.000643,-0.010785,-0.598139, 1.407998, 0.176014,1,-0.276656, 0.060506, 0.294074,1,-0.475514, 0.664525, 9.772547,1,0
1778256912752,  1848.875,  1848.870,-0.128347,-0.108650,-0.952793,-0.001095,-0.001333,-0.009289,-1.109779, 1.105711, 1.304038,1,-0.302865,-0.004335, 0.289018,1,-0.478860, 0.610042, 9.775936,1,0
1778256912774,  1848.895,  1848.895,-0.012949,-0.102396,-0.999461,-0.000066,-0.000920,-0.010376,-0.613502,-0.464693,-0.021667,1,-0.290877, 0.021780, 0.236678,1,-0.486787, 0.530778, 9.780169,1,0
1778256912800,  1848.920,  1848.920, 0.033283,-0.124407,-0.976887, 0.000225,-0.000894,-0.008944,-0.164778,-0.730383, 0.202101,1,-0.259425, 0.040311, 0.202237,1,-0.492115, 0.481868, 9.782434,1,0
1778256912822,  1848.945,  1848.940,-0.019323,-0.116965,-1.021725, 0.000022,-0.001167,-0.010391,-0.550598, 0.472017,-0.014165,1,-0.263694, 0.025601, 0.172703,1,-0.494661, 0.431978, 9.784636,1,0
1778256912844,  1848.965,  1848.965,-0.138944,-0.167459,-0.889847,-0.000878,-0.001960,-0.008618,-1.858566,-1.263826, 1.060369,1,-0.197929,-0.015051, 0.090681,1,-0.495409, 0.372363, 9.787047,1,0
1778256912870,  1848.990,  1848.990,-0.149658,-0.082660,-1.020541,-0.001319,-0.000725,-0.010111,-1.957800,-0.467410,-0.219712,1,-0.182419,-0.024467, 0.061342,1,-0.489322, 0.337616, 9.788614,1,0
1778256912892,  1849.015,  1849.010, 0.015005,-0.135970,-1.133883,-0.000165,-0.001020,-0.010009,-0.740419,-1.172303,-0.423686,1,-0.160961,-0.020855, 0.023961,1,-0.489270, 0.308849, 9.789566,1,0
1778256912915,  1849.035,  1849.035, 0.018315,-0.109546,-0.967918, 0.000228,-0.001058,-0.008830,-0.308089,-0.789908, 0.298349,1,-0.104369,-0.030824,-0.029893,1,-0.486767, 0.281077, 9.790528,1,0
1778256912940,  1849.060,  1849.060, 0.117301,-0.145448,-1.128024, 0.000525,-0.001024,-0.010095, 0.667092,-1.157202,-1.271095,1,-0.056849, 0.012330,-0.059279,1,-0.483668, 0.267291, 9.791067,1,0
1778256912962,  1849.085,  1849.080, 0.242224,-0.027840,-1.046040, 0.001683,-0.000679,-0.011235, 0.470893,-0.406626, 1.478799,1,-0.021602, 0.000977,-0.077380,1,-0.481972, 0.257479, 9.791414,1,0
1778256912985,  1849.105,  1849.105, 0.238604,-0.054779,-1.052183, 0.001865,-0.000806,-0.010459, 1.856110,-0.293391,-0.526721,1,-0.075183,-0.022417,-0.096583,1,-0.483172, 0.241315, 9.791767,1,0
1778256913010,  1849.130,  1849.130, 0.193450,-0.125622,-1.191547, 0.001659,-0.001062,-0.010819, 1.417161,-0.996816,-1.893008,1,-0.045398, 0.004075,-0.114274,1,-0.480152, 0.233524, 9.792104,1,0
1778256913032,  1849.155,  1849.150, 0.156903,-0.035964,-0.875010, 0.002186,-0.000340,-0.009381, 1.725523,-0.087833,-0.633290,1,-0.068453,-0.018496,-0.117951,1,-0.477230, 0.222419, 9.792505,1,0
1778256913055,  1849.180,  1849.175, 0.225473,-0.086113,-0.876955, 0.002392,-0.000604,-0.009445, 1.739804,-0.635208, 1.193093,1,-0.001734, 0.003464,-0.125111,1,-0.471520, 0.209027, 9.793077,1,0
1778256913080,  1849.200,  1849.200, 0.281054,-0.069252,-0.979131, 0.002631,-0.000743,-0.010471, 2.286302,-0.477406, 0.191310,1,-0.036212,-0.022272,-0.112132,1,-0.469278, 0.200432, 9.793365,1,0
1778256913102,  1849.225,  1849.220, 0.203745,-0.056517,-0.926473, 0.001518,-0.000636,-0.009426, 2.171985,-0.589161,-0.338623,1,-0.030255,-0.006051,-0.118229,1,-0.467015, 0.193333, 9.793615,1,0
1778256913125,  1849.250,  1849.245, 0.125151,-0.021302,-1.018718, 0.001213,-0.000400,-0.009986, 0.766707,-0.019742,-0.196209,1,-0.019188,-0.050495,-0.150585,1,-0.459120, 0.188336, 9.794086,1,0
1778256913151,  1849.270,  1849.270, 0.130726,-0.083827,-0.925467, 0.001195,-0.000692,-0.009814, 0.826792,-0.634862, 0.718559,1, 0.038898,-0.028736,-0.149503,1,-0.454416, 0.188287, 9.794307,1,0
1778256913172,  1849.295,  1849.290, 0.210832,-0.044255,-1.002390, 0.001937,-0.000907,-0.010376, 0.812382,-0.983407, 1.144959,1, 0.072875,-0.009492,-0.167942,1,-0.456428, 0.194526, 9.794091,1,0
1778256913195,  1849.320,  1849.315, 0.177085,-0.076842,-1.032410, 0.001865,-0.000801,-0.010238, 1.273540,-0.549624,-0.330894,1, 0.028067, 0.026265,-0.161661,1,-0.463996, 0.204578, 9.793530,1,0
1778256913221,  1849.340,  1849.340, 0.132780,-0.095994,-0.882946, 0.001284,-0.001044,-0.009039, 0.837589,-0.725834, 1.134529,1, 0.065720,-0.012459,-0.184960,1,-0.464279, 0.217319, 9.793242,1,0
1778256913242,  1849.365,  1849.360,-0.026523,-0.097482,-0.958852,-0.000269,-0.000869,-0.009382, 0.937802,-0.370686,-1.031761,1, 0.044285,-0.056837,-0.204773,1,-0.456774, 0.229739, 9.793312,1,0
1778256913265,  1849.390,  1849.385, 0.031101,-0.107478,-1.002243,-0.000246,-0.000691,-0.009935,-0.149141,-0.799692,-0.035820,1, 0.135063, 0.002326,-0.209878,1,-0.454381, 0.258212, 9.792714,1,0
1778256913291,  1849.410,  1849.410,-0.019806,-0.172639,-0.953242,-0.000423,-0.001530,-0.008962,-0.648804,-1.418408, 0.444145,1, 0.133121,-0.015179,-0.225091,1,-0.454301, 0.278425, 9.792164,1,0
1778256913312,  1849.435,  1849.430, 0.104548,-0.071654,-1.009238, 0.001053,-0.000816,-0.010918,-1.113891,-0.539752, 0.143866,1, 0.114442,-0.038564,-0.216228,1,-0.448555, 0.296542, 9.791897,1,0
1778256913335,  1849.460,  1849.455, 0.087260,-0.125299,-1.007425, 0.000928,-0.000832,-0.009987, 0.409175,-0.908218,-0.088231,1, 0.097177,-0.020449,-0.209830,1,-0.446131, 0.323279, 9.791162,1,0
1778256913361,  1849.480,  1849.480, 0.078685,-0.120954,-0.978127, 0.000604,-0.001009,-0.010257, 0.328515,-0.850898, 0.198745,1, 0.079225,-0.016731,-0.224632,1,-0.442848, 0.337409, 9.790833,1,0
1778256913382,  1849.505,  1849.500,-0.002677,-0.088423,-0.996442,-0.000111,-0.000952,-0.009636, 0.522566,-1.112690,-0.277038,1, 0.074634,-0.030776,-0.225586,1,-0.440160, 0.351222, 9.790469,1,0
1778256913409,  1849.530,  1849.530, 0.038080,-0.067833,-0.892268, 0.000388,-0.000534,-0.008831,-0.060297,-0.298346, 1.040020,1, 0.108538,-0.007069,-0.231379,1,-0.433780, 0.369928, 9.790065,1,0
1778256913431,  1849.550,  1849.550, 0.059000,-0.077505,-0.893891, 0.000625,-0.000637,-0.008165, 0.144021,-0.378854, 1.023519,1, 0.075841,-0.010911,-0.237107,1,-0.434523, 0.383246, 9.789519,1,0
1778256913452,  1849.575,  1849.570, 0.121939,-0.043876,-1.066445, 0.001291,-0.000802,-0.011755, 0.240588,-0.577441, 0.275382,1, 0.074025,-0.000911,-0.206183,1,-0.434757, 0.394179, 9.789075,1,0
1778256913479,  1849.600,  1849.600, 0.106699,-0.065217,-1.062392, 0.000692,-0.000704,-0.010975, 0.604947,-0.237536,-0.630049,1, 0.030771, 0.011564,-0.180809,1,-0.442003, 0.402731, 9.788403,1,0
1778256913501,  1849.625,  1849.620,-0.033489,-0.013743,-0.896578,-0.000214,-0.000317,-0.008700, 1.008191, 0.733338, 0.724276,1, 0.025108, 0.011796,-0.170551,1,-0.446108, 0.405317, 9.788110,1,0
1778256913523,  1849.645,  1849.640, 0.028250,-0.085228,-1.089732, 0.000047,-0.000662,-0.010131,-0.262036, 0.580402, 1.095514,1,-0.029144,-0.022465,-0.127585,1,-0.444926, 0.397999, 9.788464,1,0
1778256913550,  1849.670,  1849.670, 0.066621,-0.093264,-1.002841, 0.000199,-0.000748,-0.009848, 0.196739,-0.535877,-0.045821,1,-0.122013, 0.031326,-0.057414,1,-0.457865, 0.374951, 9.788777,1,0
1778256913571,  1849.695,  1849.690,-0.147167, 0.043163,-1.037625,-0.001125, 0.000748,-0.010115,-1.005837,-0.002205,-1.102116,1,-0.160469, 0.018457,-0.036597,1,-0.461061, 0.350161, 9.789545,1,0
1778256913593,  1849.715,  1849.710,-0.190569, 0.040067,-0.965432,-0.001458, 0.000379,-0.009781,-2.561645,-0.186795,-0.982920,1,-0.179572,-0.012258,-0.001765,1,-0.458847, 0.320294, 9.790672,1,0
1778256913620,  1849.740,  1849.740,-0.241466, 0.090387,-0.863420,-0.001810, 0.000587,-0.009556,-2.815596, 1.161891, 1.325290,1,-0.172903,-0.083477, 0.016064,1,-0.445010, 0.270128, 9.792823,1,0
1778256913641,  1849.765,  1849.760,-0.191139,-0.049526,-1.016574,-0.002217, 0.000031,-0.010168,-1.861378, 0.662149,-3.360560,1,-0.202771,-0.006698, 0.012144,1,-0.439229, 0.233529, 9.794025,1,0
1778256913663,  1849.785,  1849.780,-0.180742,-0.033210,-0.738859,-0.002467,-0.000493,-0.008114,-1.332823, 0.536451, 1.714321,1,-0.157176,-0.006882, 0.021436,1,-0.435164, 0.200521, 9.794938,1,0
1778256913690,  1849.810,  1849.810,-0.177214,-0.004805,-0.944777,-0.001752, 0.000319,-0.008849,-2.167423, 0.123854, 0.530645,1,-0.080896,-0.004487,-0.010826,1,-0.429410, 0.168435, 9.795796,1,0
1778256913711,  1849.835,  1849.830,-0.099105,-0.008022,-1.057257,-0.001671,-0.000555,-0.010497,-1.597787,-0.167090, 0.968276,1,-0.026462, 0.008110,-0.001255,1,-0.427893, 0.149189, 9.796174,1,0
1778256913733,  1849.855,  1849.850,-0.087543,-0.042977,-1.068380,-0.001548,-0.000387,-0.010084,-1.959334, 0.224149, 0.839171,1, 0.004405,-0.003804,-0.037428,1,-0.428191, 0.139179, 9.796309,1,0
1778256913760,  1849.880,  1849.880,-0.111964, 0.030340,-0.892950,-0.001426,-0.000005,-0.009984,-1.525956, 0.435561, 1.039491,1, 0.027871,-0.000167,-0.064088,1,-0.427983, 0.138797, 9.796323,1,0
1778256913781,  1849.905,  1849.900,-0.039339,-0.076342,-1.030380,-0.000046,-0.000550,-0.009650,-1.832436,-0.288488, 1.289595,1, 0.069989,-0.018890,-0.074493,1,-0.427822, 0.148770, 9.796184,1,0
1778256913803,  1849.925,  1849.920,-0.025123,-0.046875,-1.033135, 0.000114,-0.000229,-0.009909,-0.957260,-0.376060, 0.802378,1, 0.081662,-0.032815,-0.077023,1,-0.423613, 0.159679, 9.796195,1,0
1778256913830,  1849.950,  1849.950, 0.029654,-0.006773,-0.891760, 0.000602,-0.000110,-0.009465,-0.126291, 0.104219, 1.051113,1, 0.046357,-0.054454,-0.056500,1,-0.415428, 0.172013, 9.796337,1,0
1778256913851,  1849.975,  1849.970, 0.140094,-0.062984,-1.239727, 0.000968,-0.000333,-0.010207, 0.663929, 0.175244, 0.578617,1, 0.028607,-0.070990,-0.044774,1,-0.407155, 0.177748, 9.796582,1,0
1778256913873,  1849.995,  1849.990, 0.162717,-0.049200,-0.939759, 0.001270,-0.000354,-0.008861, 2.012904, 0.527118,-1.031942,1, 0.053308, 0.017078,-0.039134,1,-0.408091, 0.180559, 9.796492,1,0
1778256913900,  1850.020,  1850.020, 0.051246,-0.009749,-0.786022, 0.000539,-0.000241,-0.008903, 0.099083, 0.089823, 2.088348,1, 0.024251,-0.014665, 0.005857,1,-0.403005, 0.186192, 9.796597,1,0
1778256913921,  1850.045,  1850.040, 0.191629, 0.058222,-1.029338, 0.001614, 0.000409,-0.009731, 1.220667, 0.495283, 1.473396,1, 0.045131,-0.016217, 0.008766,1,-0.404997, 0.187781, 9.796484,1,0
1778256913944,  1850.065,  1850.065, 0.204430,-0.017933,-1.193285, 0.001992,-0.000568,-0.011197, 1.600076, 0.015023,-1.905696,1,-0.022387, 0.041763, 0.018839,1,-0.406205, 0.189812, 9.796395,1,0
1778256913970,  1850.090,  1850.090, 0.229534,-0.056957,-0.854827, 0.002496,-0.000640,-0.008140, 1.838579,-0.358078, 1.412935,1, 0.042873, 0.059303, 0.018714,1,-0.414222, 0.201842, 9.795818,1,0
1778256913992,  1850.115,  1850.110, 0.261956, 0.021051,-1.012639, 0.003151,-0.000183,-0.011889, 1.588624,-0.044651, 0.373867,1, 0.033827, 0.028114, 0.033418,1,-0.417971, 0.211600, 9.795453,1,0
1778256914014,  1850.135,  1850.135, 0.298388, 0.007575,-0.893693, 0.003226,-0.000067,-0.009807, 2.498282, 0.297027, 1.030640,1, 0.035455,-0.021431, 0.021491,1,-0.427222, 0.223872, 9.794782,1,0
1778256914040,  1850.160,  1850.160, 0.241035, 0.007318,-0.994562, 0.002892,-0.000261,-0.011259, 1.933797, 0.307707, 0.041057,1, 0.050876,-0.004156,-0.006541,1,-0.429825, 0.237520, 9.794346,1,0
1778256914062,  1850.185,  1850.180, 0.212155,-0.077656,-0.898045, 0.001751,-0.000579,-0.008976, 2.217222, 0.280840, 0.201029,1, 0.065407, 0.006813,-0.018437,1,-0.433402, 0.252460, 9.793815,1,0
1778256914084,  1850.205,  1850.205, 0.205154,-0.063362,-0.923658, 0.001576,-0.000682,-0.009780, 1.578902,-0.349282, 0.735320,1, 0.067628, 0.006943,-0.015617,1,-0.433201, 0.274177, 9.793240,1,0
1778256914110,  1850.230,  1850.230, 0.170495,-0.081559,-0.971197, 0.001340,-0.000718,-0.008941, 1.240611,-0.512106, 0.268743,1, 0.069207,-0.032604,-0.032685,1,-0.430385, 0.289825, 9.792913,1,0
1778256914132,  1850.255,  1850.250, 0.188873,-0.083722,-1.038404, 0.002174,-0.000910,-0.011204, 0.843664,-0.354973,-0.591851,1, 0.088889, 0.002559,-0.053739,1,-0.427448, 0.307786, 9.792494,1,0
1778256914155,  1850.275,  1850.275, 0.079250,-0.047732,-0.942835, 0.001237,-0.000783,-0.009963, 0.348424,-0.130154, 0.545384,1, 0.147675,-0.002524,-0.066769,1,-0.428745, 0.342461, 9.791286,1,0
1778256914180,  1850.300,  1850.300, 0.103700,-0.054785,-1.056927, 0.001421,-0.000822,-0.010828, 0.586375,-0.171084,-0.574564,1, 0.159044, 0.000584,-0.100142,1,-0.430708, 0.370998, 9.790160,1,0
1778256914202,  1850.325,  1850.320,-0.003040,-0.148921,-1.010746,-0.000917,-0.001431,-0.009236,-0.006301,-0.364981, 0.392598,1, 0.201696,-0.022327,-0.112465,1,-0.430445, 0.403686, 9.788878,1,0
1778256914225,  1850.345,  1850.345,-0.007199,-0.097663,-1.116458,-0.000175,-0.001203,-0.010549,-0.498829,-0.502636,-1.161998,1, 0.169911, 0.011833,-0.147420,1,-0.428816, 0.460207, 9.786455,1,0
1778256914250,  1850.370,  1850.370, 0.039939,-0.101671,-1.026530,-0.000081,-0.001393,-0.009983,-0.036390,-0.504095,-0.281934,1, 0.164194,-0.008725,-0.138209,1,-0.428004, 0.497885, 9.784646,1,0
1778256914272,  1850.395,  1850.390,-0.023068,-0.061753,-0.915034,-0.000115,-0.000353,-0.009391, 0.249060,-0.578461,-0.546693,1, 0.177512,-0.014685,-0.148270,1,-0.427123, 0.535146, 9.782718,1,0
1778256914295,  1850.420,  1850.415, 0.003122,-0.097953,-0.951789,-0.000115,-0.000808,-0.009464,-0.395872,-0.383642, 0.446509,1, 0.177206,-0.012942,-0.143915,1,-0.426352, 0.582269, 9.780060,1,0
1778256914320,  1850.440,  1850.440,-0.010232,-0.072008,-1.003236, 0.000211,-0.000626,-0.009462,-0.526334,-0.103072,-0.059570,1, 0.131988,-0.012065,-0.129297,1,-0.425868, 0.607017, 9.778576,1,0
1778256914342,  1850.465,  1850.460, 0.078488,-0.112943,-1.014179, 0.001042,-0.001239,-0.009804,-0.399043, 0.607295,-0.493829,1, 0.096768, 0.010541,-0.100005,1,-0.427918, 0.624161, 9.777408,1,0
1778256914365,  1850.490,  1850.485, 0.091641,-0.087474,-0.916939, 0.000531,-0.001110,-0.009370, 0.469976,-0.213114, 0.783935,1, 0.052304,-0.006833,-0.085941,1,-0.428679, 0.646227, 9.775940,1,0
1778256914391,  1850.510,  1850.510, 0.158451,-0.095663,-1.183059, 0.001077,-0.001373,-0.011140, 1.121282,-0.281266,-1.826792,1, 0.008208, 0.039307,-0.082115,1,-0.433989, 0.657014, 9.774987,1,0
1778256914412,  1850.535,  1850.530,-0.006104,-0.060999,-0.836271, 0.000201, 0.000010,-0.008466, 0.793665,-0.043166,-0.043520,1,-0.022307,-0.007799,-0.052641,1,-0.434040, 0.663350, 9.774557,1,0
1778256914435,  1850.560,  1850.555, 0.005591,-0.033757,-1.073021, 0.000180,-0.000006,-0.011333,-0.370721, 0.335835,-0.748048,1, 0.016580,-0.025163,-0.030476,1,-0.424834, 0.667356, 9.774689,1,0
1778256914461,  1850.580,  1850.580, 0.037285,-0.163765,-1.099772, 0.000270,-0.000342,-0.009455,-0.056518,-0.942156,-1.010033,1, 0.034859, 0.009400,-0.009989,1,-0.422472, 0.664902, 9.774959,1,0
1778256914482,  1850.605,  1850.600, 0.132796,-0.009385,-0.877669, 0.001465,-0.000543,-0.008844, 0.473863, 0.319739, 2.658522,1, 0.007917,-0.009265,-0.021973,1,-0.422346, 0.662832, 9.775105,1,0
1778256914505,  1850.630,  1850.625, 0.163297,-0.017553,-1.189438, 0.001223,-0.000457,-0.012013, 1.185265, 0.479624,-1.888288,1,-0.046876,-0.010345, 0.009002,1,-0.415793, 0.650314, 9.776226,1,0
1778256914531,  1850.650,  1850.650, 0.111795, 0.031588,-0.926526, 0.001018,-0.000068,-0.010244, 0.676627, 0.953697, 0.690364,1,-0.041001, 0.030695, 0.013304,1,-0.420637, 0.642663, 9.776525,1,0
1778256914552,  1850.675,  1850.670, 0.003294,-0.056451,-1.032373,-0.000136,-0.000376,-0.009982,-0.132220, 0.826962, 0.694391,1,-0.010933, 0.006491, 0.006077,1,-0.421145, 0.638459, 9.776778,1,0
1778256914575,  1850.700,  1850.695,-0.043450,-0.112308,-0.952549,-0.000284,-0.000885,-0.009654,-0.845921,-0.465279, 0.435675,1, 0.003846,-0.017170, 0.019199,1,-0.419248, 0.636230, 9.777005,1,0
1778256914601,  1850.720,  1850.720, 0.002786,-0.150414,-1.097847,-0.000112,-0.001347,-0.010385,-0.393107,-0.838022,-0.989297,1,-0.003511, 0.023326, 0.032442,1,-0.421084, 0.636971, 9.776877,1,0
1778256914622,  1850.745,  1850.740, 0.090096, 0.083433,-0.888010, 0.001093, 0.000876,-0.009301,-0.030367,-0.451701, 0.465994,1, 0.029138, 0.039361, 0.038194,1,-0.423826, 0.640025, 9.776560,1,0
1778256914649,  1850.770,  1850.770,-0.004893, 0.020735,-0.884200, 0.000687, 0.000644,-0.009102,-0.471475, 0.851469, 1.105003,1, 0.084663,-0.021918, 0.047110,1,-0.422716, 0.650825, 9.775895,1,0
1778256914671,  1850.790,  1850.790,-0.009208,-0.016376,-1.020077, 0.000013, 0.000415,-0.010042,-0.508055, 0.496192,-0.227827,1, 0.092895,-0.022919, 0.073341,1,-0.416890, 0.659775, 9.775545,1,0
1778256914692,  1850.815,  1850.810, 0.011182,-0.008725,-0.859312, 0.000133,-0.000910,-0.008695,-0.074929, 0.169814,-0.462646,1, 0.138269, 0.027061, 0.081415,1,-0.420973, 0.670736, 9.774624,1,0
1778256914719,  1850.840,  1850.840, 0.078013, 0.012543,-1.161548, 0.000552,-0.000352,-0.010666, 0.353539, 0.813024,-1.617205,1, 0.045956,-0.013957, 0.049402,1,-0.410966, 0.691511, 9.773602,1,0
1778256914741,  1850.865,  1850.860, 0.081960,-0.036035,-0.586462, 0.001150, 0.000265,-0.006744, 1.637506, 0.726360,-0.873816,1, 0.083306, 0.058821, 0.073607,1,-0.419698, 0.709818, 9.771918,1,0
1778256914763,  1850.885,  1850.880, 0.042886,-0.098314,-0.963791, 0.000393,-0.000228,-0.009091, 1.069845, 0.865669, 2.718790,1, 0.077704,-0.009150, 0.089751,1,-0.421840, 0.734228, 9.770022,1,0
1778256914790,  1850.910,  1850.910, 0.055599,-0.048933,-1.109417, 0.000714, 0.000108,-0.011381, 0.131326, 0.286503,-1.111773,1, 0.157590, 0.018310, 0.093519,1,-0.414256, 0.771394, 9.767483,1,0
1778256914811,  1850.935,  1850.930, 0.104179, 0.033872,-0.898582, 0.000774,-0.000111,-0.008643,-0.302266,-0.569063, 0.981356,1, 0.219999,-0.008187, 0.111434,1,-0.416787, 0.798856, 9.765168,1,0
1778256914833,  1850.955,  1850.950, 0.171756, 0.113591,-1.151782, 0.001424, 0.000843,-0.012273,-0.628379,-0.621859,-0.223280,1, 0.135207,-0.010555, 0.131541,1,-0.411046, 0.822676, 9.763433,1,0
1778256914860,  1850.980,  1850.980, 0.093283, 0.046245,-0.999185, 0.001377, 0.000454,-0.010019, 0.500225, 1.304160,-0.037774,1, 0.104134, 0.007246, 0.164746,1,-0.414349, 0.854102, 9.760594,1,0
1778256914881,  1851.005,  1851.000, 0.065192, 0.008225,-1.178725, 0.000550,-0.000630,-0.012535, 0.428178, 1.982458, 0.413004,1, 0.124215, 0.006524, 0.152515,1,-0.412803, 0.878863, 9.758462,1,0
1778256914903,  1851.025,  1851.020, 0.032068,-0.054628,-0.857764, 0.000195,-0.001058,-0.008321, 0.936306, 1.884479, 1.309319,1, 0.137178, 0.031055, 0.193898,1,-0.417631, 0.899244, 9.756399,1,0
1778256914930,  1851.050,  1851.050, 0.107956,-0.015440,-1.129712, 0.000741,-0.000305,-0.010586, 0.642294, 0.771307,-1.324436,1, 0.036027, 0.041661, 0.186592,1,-0.417139, 0.924084, 9.754099,1,0
1778256914951,  1851.075,  1851.070, 0.023850,-0.001602,-0.830737, 0.000437, 0.000526,-0.008742, 0.110286, 1.402936, 0.409040,1, 0.084366,-0.001976, 0.217634,1,-0.415962, 0.931565, 9.753438,1,0
1778256914973,  1851.095,  1851.090, 0.028870,-0.032223,-0.995892, 0.000782, 0.000449,-0.010352, 0.130176, 1.167025,-0.802787,1,-0.025934, 0.051774, 0.226626,1,-0.413277, 0.941773, 9.752571,1,0
1778256915000,  1851.120,  1851.120, 0.007990,-0.103778,-0.979365, 0.000395, 0.000021,-0.009552,-0.333167,-0.067609, 0.147549,1, 0.088594, 0.039360, 0.260151,1,-0.411958, 0.953196, 9.751517,1,0
1778256915021,  1851.145,  1851.140, 0.114362, 0.149049,-0.995545, 0.001143, 0.000990,-0.010982,-0.827078, 0.095209, 1.305709,1, 0.054964, 0.024555, 0.274932,1,-0.414586, 0.952259, 9.751497,1,0
1778256915043,  1851.165,  1851.160, 0.089447, 0.136904,-0.895479, 0.000960, 0.001756,-0.009517,-0.016537,-0.986004,-0.716083,1,-0.030378, 0.031110, 0.288626,1,-0.413968, 0.943725, 9.752354,1,0
1778256915070,  1851.190,  1851.190, 0.018418, 0.102601,-1.011245, 0.000966, 0.001594,-0.010443,-0.232167, 1.932658,-0.162873,1,-0.040217, 0.005196, 0.301938,1,-0.412060, 0.925633, 9.754169,1,0
1778256915091,  1851.215,  1851.210, 0.135493,-0.012426,-0.942515, 0.000799,-0.000819,-0.009778, 0.335056, 1.667749, 0.185731,1,-0.013552, 0.061396, 0.333080,1,-0.419020, 0.913176, 9.755046,1,0
1778256915113,  1851.235,  1851.230, 0.077498, 0.079377,-1.050962, 0.000535,-0.000173,-0.009610,-0.258942, 0.172249, 1.619392,1, 0.008161, 0.044405, 0.344391,1,-0.422733, 0.902852, 9.755846,1,0
1778256915140,  1851.260,  1851.260, 0.063207, 0.182757,-1.125440, 0.000237, 0.001311,-0.012068,-0.348390, 0.407070,-1.453295,1,-0.043877, 0.014964, 0.334040,1,-0.421653, 0.885185, 9.757512,1,0
1778256915162,  1851.285,  1851.280,-0.013401,-0.050780,-0.884970, 0.000145,-0.000816,-0.009210, 0.087600, 1.351958, 0.453758,1,-0.125399, 0.081050, 0.355688,1,-0.431573, 0.849815, 9.760222,1,0
1778256915184,  1851.305,  1851.305, 0.007285,-0.051417,-1.115559,-0.000221,-0.000395,-0.009816,-0.355086, 0.325294,-1.177706,1,-0.133255, 0.005769, 0.338119,1,-0.425811, 0.825844, 9.762533,1,0
1778256915210,  1851.330,  1851.330, 0.115742,-0.014741,-0.928401, 0.000916,-0.000990,-0.010119, 0.708316, 0.667066, 0.659182,1,-0.102005, 0.071190, 0.327511,1,-0.428089, 0.808898, 9.763852,1,0
1778256915232,  1851.355,  1851.350,-0.040160,-0.047076,-1.065981, 0.000499, 0.000415,-0.010487, 0.574933, 0.807115, 1.095128,1,-0.137372, 0.018209, 0.310509,1,-0.428214, 0.795619, 9.764937,1,0
1778256915254,  1851.375,  1851.375, 0.004084,-0.029182,-1.013493, 0.000344, 0.000540,-0.010320,-0.393184, 0.491110,-0.172778,1, 0.047098, 0.071409, 0.331397,1,-0.434634, 0.779208, 9.765977,1,0
1778256915280,  1851.400,  1851.400,-0.011196,-0.106023,-0.651496,-0.000289,-0.000554,-0.006994,-0.549243,-0.267430, 3.377320,1, 0.021683, 0.016402, 0.301797,1,-0.439212, 0.773394, 9.766234,1,0
1778256915302,  1851.425,  1851.420,-0.042922, 0.027446,-1.269436, 0.000682, 0.000670,-0.011920,-0.708010,-0.106646,-1.035966,1,-0.076580,-0.014499, 0.279140,1,-0.434135, 0.762298, 9.767334,1,0
1778256915324,  1851.445,  1851.445,-0.013537, 0.051860,-0.862436, 0.000247, 0.000984,-0.009550,-0.570834, 1.259230, 1.310451,1, 0.039947, 0.060579, 0.306332,1,-0.439234, 0.752322, 9.767879,1,0
1778256915350,  1851.470,  1851.470,-0.020235,-0.079528,-0.899409, 0.000027,-0.000056,-0.008163,-0.638128,-0.029699, 0.947836,1,-0.009431,-0.012455, 0.299740,1,-0.439154, 0.750306, 9.768038,1,0
1778256915372,  1851.495,  1851.490, 0.200625, 0.098596,-1.073069, 0.001349,-0.000033,-0.011506,-0.140862, 0.295655,-0.072709,1, 0.019507, 0.016168, 0.281729,1,-0.436984, 0.746678, 9.768414,1,0
1778256915395,  1851.515,  1851.515, 0.045962, 0.132928,-0.999175, 0.000840, 0.000592,-0.010466, 0.011293, 2.038937,-0.029402,1,-0.091538, 0.035752, 0.269666,1,-0.439923, 0.732890, 9.769325,1,0
1778256915420,  1851.540,  1851.540, 0.076709, 0.078679,-1.183412, 0.000975, 0.000801,-0.012680, 0.304461, 1.498401,-1.835882,1,-0.081236, 0.062336, 0.288392,1,-0.449067, 0.724705, 9.769520,1,0
1778256915442,  1851.565,  1851.560, 0.081043,-0.001337,-0.957282, 0.000288,-0.000760,-0.009408,-0.362670, 1.138888, 2.996944,1,-0.006978, 0.014238, 0.281975,1,-0.450166, 0.722398, 9.769641,1,0
1778256915465,  1851.585,  1851.585, 0.093134, 0.019255,-1.153195, 0.000549,-0.000513,-0.010528, 0.464077, 0.901874,-1.538608,1,-0.136938, 0.028375, 0.243625,1,-0.449585, 0.709132, 9.770639,1,0
1778256915490,  1851.610,  1851.610, 0.139565, 0.078625,-0.938939, 0.001088,-0.000481,-0.010136, 0.920342, 1.472732, 0.563389,1,-0.145217, 0.012617, 0.261160,1,-0.448137, 0.697537, 9.771541,1,0
1778256915512,  1851.635,  1851.630, 0.021956,-0.169411,-1.157195,-0.000051,-0.000972,-0.010445, 0.614004, 1.659809,-1.113835,1,-0.121444, 0.028998, 0.241527,1,-0.447023, 0.686614, 9.772365,1,0
1778256915535,  1851.660,  1851.655, 0.072584,-0.091294,-1.007049, 0.000122,-0.001142,-0.009637, 0.264890,-0.218122,-0.102753,1,-0.106424, 0.006462, 0.228010,1,-0.446627, 0.674175, 9.773249,1,0
1778256915560,  1851.680,  1851.680, 0.121943,-0.089938,-1.110919, 0.000624,-0.001609,-0.011030, 0.753220,-0.221454,-1.120034,1,-0.139923, 0.034706, 0.216597,1,-0.443230, 0.656480, 9.774609,1,0
1778256915582,  1851.705,  1851.700, 0.056048,-0.088655,-1.184844, 0.000325, 0.000146,-0.010559, 0.104094, 0.651472, 0.415379,1,-0.183010,-0.015886, 0.226320,1,-0.440719, 0.638968, 9.775882,1,0
1778256915605,  1851.730,  1851.725, 0.084085,-0.098285,-0.935664, 0.000546,-0.000496,-0.009565, 0.378667,-0.341239, 0.600971,1,-0.054372, 0.024801, 0.219664,1,-0.446260, 0.621230, 9.776774,1,0
1778256915631,  1851.750,  1851.750,-0.031380,-0.108505,-1.037826,-0.000244,-0.000879,-0.010197,-0.754397,-0.459268,-0.399813,1,-0.102491, 0.017816, 0.216749,1,-0.446798, 0.601922, 9.777957,1,0
1778256915652,  1851.775,  1851.770, 0.097032, 0.058257,-1.111223, 0.001143, 0.000824,-0.010963, 0.072044,-1.365474,-0.867391,1,-0.096480, 0.067092, 0.185207,1,-0.452560, 0.584199, 9.778767,1,0
1778256915675,  1851.800,  1851.795, 0.010477, 0.023855,-0.839388, 0.000624, 0.000605,-0.009325,-0.358564, 0.787291, 1.548564,1,-0.053411, 0.055300, 0.180360,1,-0.462708, 0.551953, 9.780166,1,0
1778256915701,  1851.820,  1851.820,-0.046023,-0.060597,-0.708020, 0.000001, 0.000121,-0.007021,-0.917099,-0.058511, 2.837619,1,-0.033243,-0.003184, 0.161795,1,-0.465395, 0.534943, 9.780983,1,0
1778256915722,  1851.845,  1851.840, 0.087135, 0.063529,-1.021152, 0.000897, 0.000042,-0.011369,-0.334501,-1.464213,-1.207266,1,-0.068898, 0.014717, 0.152177,1,-0.464442, 0.510915, 9.782312,1,0
1778256915745,  1851.870,  1851.865, 0.027004, 0.070632,-0.806627, 0.001082, 0.000475,-0.008457,-0.208115, 1.165349, 1.873521,1,-0.097798, 0.015166, 0.115626,1,-0.473691, 0.469702, 9.783935,1,0
1778256915771,  1851.890,  1851.890, 0.070566,-0.000534,-1.069637, 0.001004, 0.000501,-0.010489, 0.215297, 0.443214,-0.704776,1,-0.093309, 0.029652, 0.108216,1,-0.477495, 0.445709, 9.784872,1,0
1778256915792,  1851.915,  1851.910, 0.174796,-0.042767,-0.957790, 0.001520,-0.000765,-0.009370,-0.697633,-0.452780, 1.398870,1,-0.065967, 0.038693, 0.096366,1,-0.484174, 0.420693, 9.785651,1,0
1778256915815,  1851.940,  1851.935, 0.102245,-0.020752,-1.078449, 0.000804,-0.000333,-0.010987, 0.514166, 0.176651,-0.788885,1,-0.162580, 0.025319, 0.080686,1,-0.489204, 0.375223, 9.787251,1,0
1778256915841,  1851.960,  1851.960, 0.051419,-0.018875,-0.970225, 0.001045,-0.000712,-0.010591, 0.007720, 0.167247, 0.273068,1,-0.143253, 0.037683, 0.069022,1,-0.497622, 0.347995, 9.787832,1,0
1778256915862,  1851.985,  1851.980, 0.113075,-0.092523,-1.101834, 0.000551,-0.000776,-0.010155,-0.068283, 0.476457,-0.163560,1,-0.138841, 0.039590, 0.068963,1,-0.505315, 0.319689, 9.788404,1,0
1778256915889,  1852.010,  1852.010, 0.158293,-0.026694,-0.961839, 0.000710,-0.000815,-0.009747, 1.041754, 0.018702, 0.356913,1,-0.201858, 0.009874, 0.021519,1,-0.510861, 0.274226, 9.789495,1,0
1778256915911,  1852.030,  1852.030, 0.109267,-0.032541,-1.109892, 0.000892,-0.000800,-0.011419, 0.562998,-0.071390,-1.094008,1,-0.199367, 0.008270, 0.017119,1,-0.508791, 0.241542, 9.790463,1,0
1778256915932,  1852.055,  1852.050, 0.024862,-0.071332,-0.938234,-0.000414,-0.000848,-0.009148, 0.313789, 0.403055, 1.454090,1,-0.161937, 0.002865, 0.016274,1,-0.513928, 0.211255, 9.790895,1,0
1778256915959,  1852.080,  1852.080, 0.152963,-0.087657,-1.157646, 0.000847,-0.000969,-0.010970, 0.982545,-0.685683,-1.561187,1,-0.199905, 0.004362,-0.016708,1,-0.517675, 0.167708, 9.791541,1,0
1778256915981,  1852.105,  1852.100,-0.009117,-0.096813,-0.920344,-0.000124,-0.000456,-0.008385, 1.098347,-0.005243,-1.214630,1,-0.201743, 0.011024,-0.036787,1,-0.520775, 0.135518, 9.791875,1,0
1778256916003,  1852.125,  1852.120, 0.035414,-0.078248,-1.063179, 0.000230,-0.000983,-0.010627, 0.277261,-0.339128, 1.222658,1,-0.127558, 0.000875,-0.046128,1,-0.521740, 0.108004, 9.792166,1,0
1778256916030,  1852.150,  1852.150,-0.004178,-0.008424,-1.033913,-0.000036,-0.000152,-0.010220,-0.566568,-0.015557,-0.346903,1,-0.137513, 0.032016,-0.068489,1,-0.526612, 0.062653, 9.792300,1,0
1778256916051,  1852.175,  1852.170,-0.008513,-0.111364,-0.907988, 0.000538,-0.001030,-0.009711,-0.236434,-0.482730, 0.416263,1,-0.140405, 0.004693,-0.066979,1,-0.529193, 0.035555, 9.792296,1,0
1778256916073,  1852.195,  1852.190,-0.021659,-0.100408,-0.919465, 0.000098,-0.001224,-0.009149, 0.805173,-0.588364,-0.981169,1,-0.134788, 0.020943,-0.097433,1,-0.529395, 0.007776, 9.792347,1,0
1778256916100,  1852.220,  1852.220,-0.031477,-0.029583,-0.909390,-0.000353,-0.000740,-0.008989,-0.834730,-0.312576, 0.874430,1,-0.126092, 0.010675,-0.125593,1,-0.526369,-0.026610, 9.792478,1,0
1778256916121,  1852.245,  1852.240, 0.005392,-0.105241,-0.976084, 0.000716,-0.001096,-0.010576,-0.587276,-0.488359,-0.595567,1,-0.099700, 0.014536,-0.145830,1,-0.527079,-0.046602, 9.792364,1,0
1778256916143,  1852.265,  1852.260, 0.022672,-0.150267,-0.974111, 0.000873,-0.001704,-0.010103,-0.377602,-0.673642,-0.428370,1,-0.093754,-0.007630,-0.155342,1,-0.523553,-0.066312, 9.792439,1,0
1778256916170,  1852.290,  1852.290, 0.048309,-0.102161,-0.935812, 0.001042,-0.001125,-0.009269,-0.058029,-1.083299, 0.614706,1,-0.018261, 0.054575,-0.206920,1,-0.533427,-0.082362, 9.791785,1,0
1778256916191,  1852.315,  1852.310, 0.135170,-0.113985,-0.733606, 0.001639,-0.000588,-0.008027,-0.092477,-0.452741, 2.095391,1,-0.061278, 0.035237,-0.209109,1,-0.543250,-0.091396, 9.791165,1,0
1778256916213,  1852.335,  1852.330, 0.086521,-0.133246,-1.108119, 0.001217,-0.000818,-0.011080, 0.112791,-0.552565,-0.222249,1,-0.064700, 0.000740,-0.228955,1,-0.542846,-0.098547, 9.791118,1,0
1778256916240,  1852.360,  1852.360, 0.039679,-0.128607,-0.932059, 0.001100,-0.001138,-0.009479,-0.156317,-1.361379, 0.650584,1, 0.021668, 0.018667,-0.256387,1,-0.545937,-0.099948, 9.790932,1,0
1778256916261,  1852.385,  1852.380, 0.154618,-0.152714,-1.091989, 0.000909,-0.000981,-0.010636, 0.026588,-1.149232, 0.117716,1,-0.001326, 0.004953,-0.270886,1,-0.545332,-0.101995, 9.790944,1,0
1778256916283,  1852.405,  1852.400, 0.205551,-0.135073,-1.067324, 0.001628,-0.001039,-0.011038,-0.567377,-0.282511, 0.412627,1, 0.005825,-0.017631,-0.266230,1,-0.544643,-0.102015, 9.790982,1,0
1778256916310,  1852.430,  1852.430, 0.125542,-0.193115,-1.010929, 0.001655,-0.001437,-0.009991, 0.685787,-1.987719,-0.122806,1, 0.041007,-0.010861,-0.268808,1,-0.544944,-0.093095, 9.791055,1,0
1778256916331,  1852.455,  1852.450, 0.191235,-0.131137,-1.239160, 0.001157,-0.001171,-0.012168,-0.285702,-1.440181, 0.050151,1, 0.020771, 0.017719,-0.274206,1,-0.546659,-0.092728, 9.790962,1,0
1778256916353,  1852.475,  1852.470, 0.158689,-0.087225,-0.862923, 0.001370,-0.000426,-0.009572,-0.491472,-1.188611, 1.156268,1, 0.052849, 0.046092,-0.317776,1,-0.555275,-0.084602, 9.790551,1,0
1778256916380,  1852.500,  1852.500, 0.098549,-0.227879,-0.981151, 0.001470,-0.001748,-0.010066, 0.410964,-2.312814, 0.168793,1, 0.088190, 0.009783,-0.313699,1,-0.555700,-0.075889, 9.790599,1,0
1778256916402,  1852.525,  1852.520, 0.107848,-0.094802,-1.012462, 0.000599,-0.000481,-0.010219,-0.558337,-1.904490, 1.250602,1, 0.061706, 0.006293,-0.334337,1,-0.557541,-0.067208, 9.790558,1,0
1778256916424,  1852.545,  1852.545, 0.092470,-0.194347,-1.041441, 0.000771,-0.001189,-0.010753, 0.347070,-1.960573,-0.422538,1, 0.140869,-0.005889,-0.359640,1,-0.559506,-0.050931, 9.790544,1,0
1778256916450,  1852.570,  1852.570, 0.042548,-0.282531,-0.812218, 0.000635,-0.001996,-0.008036,-0.137757,-2.812855, 1.825703,1, 0.134125,-0.056794,-0.364915,1,-0.553189,-0.038638, 9.790958,1,0
1778256916472,  1852.595,  1852.590, 0.124499,-0.128237,-1.161393, 0.000714,-0.000835,-0.010899, 0.356717,-1.731504,-0.722159,1, 0.024216,-0.024149,-0.371317,1,-0.546914,-0.032833, 9.791332,1,0
1778256916494,  1852.615,  1852.615, 0.220963,-0.152261,-0.941752, 0.001526,-0.000943,-0.009505, 1.616994,-1.509303, 0.555775,1, 0.110645, 0.002825,-0.373842,1,-0.549980,-0.013336, 9.791206,1,0
1778256916520,  1852.640,  1852.640, 0.154487,-0.238195,-1.093261, 0.001756,-0.002128,-0.011426, 0.966603,-2.341818,-0.929928,1, 0.098499,-0.000973,-0.380182,1,-0.548360,-0.003517, 9.791306,1,0
1778256916542,  1852.665,  1852.660, 0.097784,-0.110704,-0.964904, 0.000191,-0.000708,-0.008578,-0.390772,-1.848656, 1.963599,1, 0.106309,-0.007690,-0.366662,1,-0.551507, 0.006885, 9.791127,1,0
1778256916565,  1852.685,  1852.685, 0.080145,-0.135010,-1.200814, 0.000722,-0.000524,-0.012204, 0.242022,-1.307064,-1.984429,1, 0.130942,-0.022186,-0.383567,1,-0.543258, 0.020351, 9.791570,1,0
1778256916590,  1852.710,  1852.710, 0.032060,-0.224376,-0.899543, 0.000784,-0.001467,-0.009580,-0.228913,-2.171956, 0.970037,1, 0.155454,-0.041554,-0.379002,1,-0.542048, 0.032612, 9.791604,1,0
1778256916612,  1852.735,  1852.730, 0.138979,-0.088437,-1.114424, 0.000967,-0.000294,-0.011390,-0.276385,-1.846881,-0.333221,1, 0.033759,-0.039682,-0.359187,1,-0.532760, 0.040309, 9.792085,1,0
1778256916635,  1852.755,  1852.755, 0.138995,-0.232442,-0.923833, 0.001074,-0.001615,-0.009178, 0.836362,-2.226243, 0.732645,1, 0.127274,-0.036905,-0.372964,1,-0.525626, 0.056576, 9.792390,1,0
1778256916660,  1852.780,  1852.780, 0.167964,-0.173538,-1.228755, 0.001876,-0.001669,-0.012160, 1.124903,-1.639656,-2.257438,1, 0.044151, 0.000658,-0.365997,1,-0.522358, 0.062937, 9.792526,1,0
1778256916682,  1852.805,  1852.800, 0.227600,-0.071584,-0.690585, 0.001550,-0.000334,-0.007511, 0.167914,-1.059109, 0.915175,1, 0.075277, 0.039788,-0.369195,1,-0.530436, 0.072813, 9.792024,1,0
1778256916705,  1852.825,  1852.825, 0.248429,-0.254671,-1.094835, 0.002243,-0.001714,-0.010356, 1.906633,-2.403834,-0.944770,1, 0.083247,-0.002335,-0.349151,1,-0.529658, 0.095640, 9.791869,1,0
1778256916730,  1852.850,  1852.850, 0.082477,-0.111338,-0.935360, 0.002349,-0.001874,-0.011250, 0.273247,-0.985290, 0.618683,1, 0.085285, 0.036353,-0.341105,1,-0.536822, 0.108635, 9.791344,1,0
1778256916752,  1852.875,  1852.870, 0.149730,-0.097151,-0.925952, 0.001273,-0.001040,-0.009907,-0.475739,-0.903505, 1.682107,1, 0.113240, 0.007946,-0.313796,1,-0.541887, 0.131502, 9.790784,1,0
1778256916775,  1852.900,  1852.895, 0.039105,-0.097566,-1.078271, 0.000889,-0.001117,-0.011524,-0.150498,-0.799726,-0.783386,1, 0.174683,-0.009641,-0.336495,1,-0.533853, 0.161944, 9.790770,1,0
1778256916800,  1852.920,  1852.920, 0.017877,-0.102231,-0.876015, 0.000757,-0.001149,-0.008619,-0.354389,-0.817024, 1.199805,1, 0.157042,-0.051876,-0.314774,1,-0.528270, 0.189880, 9.790570,1,0
1778256916822,  1852.945,  1852.940, 0.209558,-0.104288,-0.935727, 0.002293,-0.001057,-0.010055, 0.246910,-0.636038, 1.134520,1, 0.167848,-0.028020,-0.295249,1,-0.522137, 0.219561, 9.790278,1,0
1778256916845,  1852.970,  1852.965, 0.039222,-0.060182,-0.947287, 0.001663,-0.000780,-0.009727,-0.131743,-0.326989, 0.499789,1, 0.170892,-0.047602,-0.268944,1,-0.515120, 0.268076, 9.789442,1,0
1778256916871,  1852.990,  1852.990,-0.057823,-0.038226,-1.022967,-0.000151,-0.000578,-0.010157,-1.079485,-0.078659,-0.243110,1, 0.185816, 0.002600,-0.256464,1,-0.512760, 0.301578, 9.788591,1,0
1778256916892,  1853.015,  1853.010,-0.032856, 0.041296,-0.892788, 0.001578, 0.000097,-0.009312,-0.677014,-0.920829,-0.344510,1, 0.244110, 0.007023,-0.253359,1,-0.511284, 0.339687, 9.787419,1,0
1778256916915,  1853.040,  1853.035,-0.093985,-0.012383,-0.890153,-0.000981, 0.000312,-0.008552,-1.427534, 0.271240, 1.056300,1, 0.288228,-0.038733,-0.219654,1,-0.504927, 0.401301, 9.785418,1,0
1778256916941,  1853.060,  1853.060, 0.024522,-0.101073,-1.119561,-0.000517,-0.000866,-0.010833,-0.260760,-0.555724,-1.194999,1, 0.217905,-0.029984,-0.162534,1,-0.500530, 0.441987, 9.783890,1,0
1778256916962,  1853.085,  1853.080,-0.011960,-0.017497,-0.892124, 0.000182, 0.000006,-0.009082, 0.584644, 0.483620, 0.351826,1, 0.212775,-0.067212,-0.167793,1,-0.492288, 0.486249, 9.782208,1,0
1778256916985,  1853.110,  1853.105,-0.013309,-0.135799,-1.036185,-0.000348,-0.001062,-0.010781,-0.604449,-0.788679,-0.381378,1, 0.208590,-0.066594,-0.115638,1,-0.472054, 0.549369, 9.779864,1,0
1778256917011,  1853.130,  1853.130, 0.116470,-0.091661,-1.271427, 0.000057,-0.001158,-0.011459, 0.676004,-0.315916,-2.690244,1, 0.140332,-0.010588,-0.101045,1,-0.466033, 0.587193, 9.777955,1,0
1778256917032,  1853.155,  1853.150, 0.046322,-0.109125,-0.927176, 0.000213,-0.000726,-0.009264, 1.945768, 1.262708, 1.063700,1, 0.085134,-0.016085,-0.051778,1,-0.460090, 0.617558, 9.776365,1,0
1778256917055,  1853.180,  1853.175, 0.182543,-0.048331,-1.120266, 0.000946,-0.000775,-0.009738, 1.330531, 0.198303,-1.213284,1, 0.112139, 0.005572,-0.042786,1,-0.459870, 0.675694, 9.772530,1,0
1778256917081,  1853.200,  1853.200, 0.207353, 0.096322,-0.956946, 0.001695, 0.000053,-0.010256, 1.574140, 1.646649, 0.386265,1, 0.103287, 0.018679, 0.010405,1,-0.459852, 0.705284, 9.770440,1,0
1778256917102,  1853.225,  1853.220, 0.078616,-0.019344,-0.902055, 0.000272,-0.000695,-0.008223, 0.615775, 0.487046, 0.961909,1, 0.170008,-0.002348, 0.031653,1,-0.462256, 0.739458, 9.767799,1,0
1778256917129,  1853.250,  1853.250, 0.156600, 0.092332,-1.223141, 0.001220, 0.000150,-0.012565, 1.075249, 1.677909,-2.229584,1, 0.026265, 0.026507, 0.073324,1,-0.461113, 0.773364, 9.765227,1,0
1778256917151,  1853.270,  1853.270, 0.134093, 0.051019,-1.026401, 0.002052, 0.000631,-0.010494, 0.843683, 1.294186,-0.302466,1, 0.093201, 0.043583, 0.120710,1,-0.472492, 0.796765, 9.762802,1,0
1778256917172,  1853.295,  1853.290, 0.157644, 0.094874,-1.315995, 0.001353, 0.000154,-0.011916,-0.905803, 0.916638, 3.323567,1, 0.158959,-0.050311, 0.119006,1,-0.466871, 0.822976, 9.760898,1,0
1778256917199,  1853.320,  1853.320, 0.053811, 0.074843,-0.936702, 0.002044, 0.001114,-0.011476, 0.064519, 1.562346, 0.574707,1, 0.039735, 0.028954, 0.220022,1,-0.463507, 0.829944, 9.760468,1,0
1778256917221,  1853.345,  1853.340, 0.168889, 0.151066,-1.132206, 0.001973, 0.001091,-0.011684,-1.707988, 0.566581, 1.163988,1, 0.119996,-0.000294, 0.215076,1,-0.461887, 0.848488, 9.758950,1,0
1778256917243,  1853.365,  1853.360, 0.029173, 0.059017,-0.827618, 0.001776, 0.000989,-0.009555, 0.887713, 1.301538,-1.073657,1,-0.015008, 0.034938, 0.241321,1,-0.457698, 0.847820, 9.759206,1,0
1778256917270,  1853.390,  1853.390, 0.009642,-0.064627,-0.941489,-0.000133,-0.000306,-0.008528,-0.362799, 0.219529, 0.525891,1, 0.034218,-0.018061, 0.261113,1,-0.456084, 0.854741, 9.758677,1,0
1778256917291,  1853.415,  1853.410,-0.025804,-0.021122,-1.056811, 0.000204, 0.000546,-0.011053, 0.169741, 2.402786,-1.096286,1,-0.122889,-0.010850, 0.321503,1,-0.448579, 0.842672, 9.760075,1,0
1778256917313,  1853.435,  1853.430, 0.036601, 0.036392,-0.959051,-0.000009, 0.000260,-0.009114, 0.998038, 2.348858,-1.579478,1,-0.111320, 0.041113, 0.326693,1,-0.446723, 0.829419, 9.761295,1,0
1778256917340,  1853.460,  1853.460, 0.143795, 0.173608,-1.179553, 0.000448, 0.000706,-0.011028, 0.968226, 2.516752,-1.804674,1,-0.191238, 0.054487, 0.354030,1,-0.442694, 0.808795, 9.763209,1,0
1778256917361,  1853.485,  1853.480, 0.181712, 0.162864,-0.964254, 0.000760, 0.000810,-0.008915, 1.763883, 1.424451,-2.119366,1,-0.144524, 0.115415, 0.380299,1,-0.455326, 0.791253, 9.764066,1,0
1778256917383,  1853.505,  1853.500, 0.177645, 0.177480,-0.797388, 0.001578, 0.001242,-0.008790,-1.272058, 0.760379, 4.625465,1,-0.009237, 0.024786, 0.414574,1,-0.461298, 0.781724, 9.764553,1,0
1778256917410,  1853.530,  1853.530, 0.041348,-0.010190,-1.164726, 0.001273, 0.000932,-0.011816,-0.052223, 0.647847,-1.654681,1,-0.033625, 0.044564, 0.404245,1,-0.458128, 0.747322, 9.767395,1,0
1778256917431,  1853.555,  1853.550,-0.046118, 0.003375,-0.872396, 0.000444, 0.001391,-0.007568,-0.660616, 0.881855, 1.734325,1,-0.104876,-0.005276, 0.420854,1,-0.461233, 0.728291, 9.768686,1,0
1778256917453,  1853.575,  1853.570,-0.016239,-0.079242,-1.068422, 0.000475,-0.000285,-0.010925, 0.633961, 2.551613,-0.015889,1,-0.180616, 0.028257, 0.399733,1,-0.454065, 0.703527, 9.770837,1,0
1778256917480,  1853.600,  1853.600, 0.083721, 0.105558,-0.884359, 0.000224, 0.000416,-0.009327, 0.367134, 1.713609, 1.100023,1,-0.141572, 0.031524, 0.405599,1,-0.453994, 0.674623, 9.772879,1,0
1778256917501,  1853.625,  1853.620,-0.001731, 0.031073,-1.042547,-0.000284,-0.000609,-0.010534, 0.512376, 1.414789,-0.852192,1,-0.155885, 0.017876, 0.397404,1,-0.451184, 0.652533, 9.774508,1,0
1778256917523,  1853.645,  1853.640, 0.197197, 0.098373,-1.015159, 0.001045, 0.000216,-0.009986,-0.476751, 0.548218, 0.616072,1,-0.049879, 0.015672, 0.356538,1,-0.451173, 0.635026, 9.775662,1,0
1778256917550,  1853.670,  1853.670, 0.048651, 0.042408,-0.982862, 0.001394, 0.001031,-0.010204, 0.024665, 1.029025, 0.138416,1,-0.069686, 0.014639, 0.321012,1,-0.452448, 0.611385, 9.777110,1,0
1778256917571,  1853.695,  1853.690, 0.085741, 0.116021,-0.964248, 0.001393, 0.000580,-0.010671,-1.636149,-0.661121,-0.485926,1, 0.070319, 0.055942, 0.303389,1,-0.456062, 0.602276, 9.777508,1,0
1778256917593,  1853.715,  1853.710,-0.241475,-0.103292,-0.972879,-0.001294,-0.000055,-0.009317, 0.065136, 0.173838,-0.409248,1,-0.095346, 0.001032, 0.294520,1,-0.460120, 0.590033, 9.778064,1,0
1778256917620,  1853.740,  1853.740,-0.039916,-0.136067,-1.162133,-0.001210,-0.001361,-0.010793,-0.842234,-0.752127,-1.617667,1,-0.031805, 0.001166, 0.237803,1,-0.450388, 0.581582, 9.779023,1,0
1778256917642,  1853.765,  1853.760,-0.076636,-0.154976,-0.827549,-0.001046,-0.001096,-0.008322, 1.059911, 1.256030, 1.317647,1,-0.069786,-0.003649, 0.206868,1,-0.446788, 0.575064, 9.779574,1,0
1778256917664,  1853.785,  1853.785, 0.167852,-0.004224,-1.012695, 0.000561,-0.000472,-0.009247, 1.200722, 0.540135,-0.151887,1,-0.056024, 0.030171, 0.161800,1,-0.445981, 0.580039, 9.779317,1,0
1778256917690,  1853.810,  1853.810, 0.238713, 0.095149,-0.954662, 0.002109, 0.000227,-0.010575, 1.890659, 1.510386, 0.417242,1,-0.119625, 0.043156, 0.158248,1,-0.451371, 0.573796, 9.779438,1,0
1778256917712,  1853.835,  1853.830, 0.186299, 0.026286,-1.000424, 0.000890,-0.000417,-0.009541,-1.122221, 0.066157, 2.751435,1, 0.015462,-0.038713, 0.152728,1,-0.447797, 0.578064, 9.779351,1,0
1778256917734,  1853.855,  1853.855, 0.005398, 0.032221,-1.071001, 0.001396, 0.000521,-0.011514,-0.394141, 0.879244,-0.722689,1,-0.045473, 0.004269, 0.126553,1,-0.446985, 0.562028, 9.780323,1,0
1778256917760,  1853.880,  1853.880,-0.109694,-0.095622,-0.865447,-0.000820,-0.000223,-0.008152,-1.524682,-0.382589, 1.293489,1,-0.003175, 0.006573, 0.172295,1,-0.448830, 0.555273, 9.780624,1,0
1778256917782,  1853.905,  1853.900,-0.087716, 0.035059,-0.969370, 0.000305, 0.001038,-0.009678, 1.250549,-0.395178,-2.008177,1,-0.160105, 0.012938, 0.163175,1,-0.445743, 0.533302, 9.781988,1,0
1778256917805,  1853.925,  1853.925, 0.034283,-0.111756,-1.176342,-0.000383,-0.000570,-0.011705,-0.110968,-0.596784,-1.752254,1,-0.118334, 0.024065, 0.192864,1,-0.447611, 0.495762, 9.783877,1,0
1778256917830,  1853.950,  1853.950, 0.223840, 0.054244,-0.892574, 0.001205,-0.000254,-0.008919, 1.745640, 0.999414, 1.032017,1,-0.239765, 0.006653, 0.185614,1,-0.449406, 0.460256, 9.785529,1,0
1778256917852,  1853.975,  1853.970, 0.140171,-0.081658,-1.161955, 0.000035,-0.000667,-0.010276, 0.345395, 1.452170,-0.504854,1,-0.268264,-0.026370, 0.188524,1,-0.441982, 0.416929, 9.787809,1,0
1778256917875,  1853.995,  1853.995, 0.252973, 0.023725,-0.944618, 0.002092,-0.000383,-0.009937, 2.037216, 0.596097, 0.526325,1,-0.326694, 0.005003, 0.188145,1,-0.443536, 0.353516, 9.790235,1,0
1778256917900,  1854.020,  1854.020,-0.075377, 0.027645,-0.990547, 0.001026, 0.000653,-0.010395,-1.180328, 0.590014, 0.077576,1,-0.201926,-0.020731, 0.160944,1,-0.440318, 0.312838, 9.791763,1,0
1778256917922,  1854.045,  1854.040, 0.003977, 0.073454,-0.632446, 0.002153, 0.000139,-0.008359,-0.884704,-0.084927, 0.799616,1,-0.121816, 0.035912, 0.162681,1,-0.444202, 0.275257, 9.792717,1,0
1778256917945,  1854.065,  1854.065,-0.063464,-0.139431,-1.104375,-0.000721,-0.000584,-0.009523,-1.061854,-1.148345,-1.035877,1,-0.139086, 0.011750, 0.105935,1,-0.440250, 0.214702, 9.794410,1,0
1778256917970,  1854.090,  1854.090, 0.141046,-0.013336,-0.977786, 0.002615,-0.000495,-0.010536, 1.604964,-0.381960, 1.244043,1,-0.176874,-0.005879, 0.096675,1,-0.443477, 0.178396, 9.794993,1,0
1778256917992,  1854.115,  1854.110, 0.145703,-0.131427,-1.194638, 0.000274,-0.000875,-0.011422, 0.630794,-1.078306,-0.974518,1,-0.174265,-0.006895, 0.068853,1,-0.440605, 0.147737, 9.795633,1,0
1778256918015,  1854.140,  1854.135, 0.160360,-0.133114,-1.043358, 0.001380,-0.001041,-0.009910, 1.128406,-1.181980,-0.436041,1,-0.050395, 0.022245,-0.018323,1,-0.444893, 0.121821, 9.795795,1,0
1778256918041,  1854.160,  1854.160,-0.030575, 0.010631,-0.942243, 0.001036,-0.001172,-0.011215,-0.745457, 0.213239, 0.555663,1,-0.113548,-0.042464,-0.040731,1,-0.444309, 0.105386, 9.796013,1,0
1778256918062,  1854.185,  1854.180, 0.012581,-0.020064,-0.952964, 0.001461,-0.001073,-0.010696,-1.081707,-1.102130, 0.499734,1, 0.064590, 0.014806,-0.094030,1,-0.442507, 0.108651, 9.796059,1,0
1778256918085,  1854.210,  1854.205,-0.088619,-0.061177,-0.861601,-0.000442,-0.000813,-0.008964,-1.313390,-0.488795, 1.346531,1, 0.050786, 0.015533,-0.128873,1,-0.444860, 0.112548, 9.795908,1,0
1778256918111,  1854.230,  1854.230, 0.200248,-0.194003,-1.266683, 0.000102,-0.001274,-0.011366, 1.519209,-1.785767,-2.626043,1, 0.031631, 0.011000,-0.180806,1,-0.444961, 0.117483, 9.795846,1,0
1778256918132,  1854.255,  1854.250, 0.075019,-0.042467,-0.929120,-0.000447,-0.000183,-0.009368, 0.738179,-1.383257, 1.812976,1, 0.089023, 0.007505,-0.204992,1,-0.447548, 0.128163, 9.795594,1,0
1778256918155,  1854.280,  1854.275, 0.120692,-0.258865,-1.037105, 0.001018,-0.001991,-0.010221, 0.741430,-2.398587,-0.374847,1, 0.095879,-0.021628,-0.212482,1,-0.441594, 0.142709, 9.795663,1,0
1778256918181,  1854.300,  1854.300, 0.024087,-0.020986,-0.940257, 0.000742,-0.000940,-0.009588,-0.201776,-0.058266, 0.574982,1, 0.012086,-0.022962,-0.207509,1,-0.437366, 0.147619, 9.795780,1,0
1778256918202,  1854.325,  1854.320, 0.018237,-0.124055,-1.049096, 0.001166,-0.001884,-0.010543,-0.047671, 0.286151, 1.842030,1, 0.051799,-0.020588,-0.171659,1,-0.436646, 0.157628, 9.795656,1,0
1778256918225,  1854.350,  1854.345,-0.080086, 0.045877,-0.994830,-0.000334, 0.000559,-0.009297,-1.221383, 0.615468, 0.039603,1, 0.054427, 0.035563,-0.189265,1,-0.437215, 0.166999, 9.795475,1,0
1778256918251,  1854.370,  1854.370, 0.164709,-0.193690,-1.125844,-0.000030,-0.000825,-0.010534, 1.178059,-1.730181,-1.245319,1, 0.035648, 0.005216,-0.172686,1,-0.437442, 0.170145, 9.795411,1,0
1778256918272,  1854.395,  1854.390, 0.149711,-0.067070,-0.992605,-0.000190, 0.000236,-0.007728, 0.999240,-0.971509, 2.839677,1,-0.011042,-0.033423,-0.158375,1,-0.440111, 0.172084, 9.795258,1,0
1778256918295,  1854.420,  1854.415, 0.148569,-0.049497,-1.149368, 0.001945,-0.000663,-0.012640, 1.019738,-0.321604,-1.475919,1,-0.031756, 0.003082,-0.129285,1,-0.437386, 0.162622, 9.795542,1,0
1778256918321,  1854.440,  1854.440,-0.146589,-0.001796,-0.849452,-0.000376,-0.000214,-0.008802,-1.879069, 0.138125, 1.465190,1,-0.032133, 0.001407,-0.125881,1,-0.441625, 0.154557, 9.795482,1,0
1778256918342,  1854.465,  1854.460,-0.055738, 0.012446,-0.953454, 0.000744,-0.000126,-0.009946,-0.149195,-0.115267,-2.213720,1,-0.061999, 0.001034,-0.134682,1,-0.441717, 0.142744, 9.795657,1,0
1778256918369,  1854.490,  1854.490,-0.065190,-0.031735,-0.862083,-0.001149, 0.000150,-0.008193,-1.080873,-0.183518, 1.341722,1,-0.031628,-0.023431,-0.088608,1,-0.440885, 0.126589, 9.795917,1,0
1778256918391,  1854.510,  1854.510, 0.251734,-0.174652,-1.075038, 0.001220,-0.001118,-0.009726, 2.033435,-1.594837,-0.746246,1,-0.047388,-0.003569,-0.098466,1,-0.435162, 0.116296, 9.796300,1,0
1778256918413,  1854.535,  1854.530, 0.258411,-0.131105,-1.092997, 0.001195,-0.000430,-0.009718,-0.412892, 0.122493,-0.020622,1,-0.105404,-0.009151,-0.075828,1,-0.433671, 0.100602, 9.796540,1,0
1778256918439,  1854.560,  1854.560, 0.014951,-0.081894,-0.886936, 0.001451,-0.001595,-0.010175,-0.285909,-0.712685, 1.098816,1,-0.055467,-0.044472,-0.098676,1,-0.431172, 0.088552, 9.796766,1,0
1778256918461,  1854.585,  1854.580, 0.137341,-0.086358,-0.881186, 0.002327,-0.001221,-0.009640,-0.768030, 0.067840,-0.893777,1,-0.020489, 0.050678,-0.113664,1,-0.436291, 0.083083, 9.796588,1,0
1778256918483,  1854.605,  1854.600,-0.088125, 0.079905,-0.863872,-0.000216,-0.000147,-0.008723, 1.495286,-1.335688, 1.554750,1, 0.043887, 0.011464,-0.124716,1,-0.439839, 0.084391, 9.796418,1,0
1778256918510,  1854.630,  1854.630, 0.130790,-0.050998,-1.182636,-0.000029, 0.000139,-0.011308, 0.845836,-0.419988,-1.801108,1, 0.040699, 0.009876,-0.147773,1,-0.437119, 0.081193, 9.796567,1,0
1778256918531,  1854.655,  1854.650, 0.028105,-0.027821,-0.937718,-0.000487, 0.000205,-0.009218, 0.427368,-1.447071,-0.976368,1, 0.046355, 0.000767,-0.138002,1,-0.439172, 0.084469, 9.796447,1,0
1778256918553,  1854.675,  1854.670, 0.158983,-0.198171,-1.068257, 0.001351,-0.001224,-0.010193,-1.336154, 0.142940,-0.068692,1,-0.046237,-0.004492,-0.146243,1,-0.440621, 0.082494, 9.796399,1,0
1778256918580,  1854.700,  1854.700,-0.151390, 0.002687,-1.007240, 0.000133,-0.001254,-0.011397,-1.921069, 0.115288,-0.081122,1,-0.021608,-0.012997,-0.143271,1,-0.436079, 0.088062, 9.796554,1,0
1778256918601,  1854.725,  1854.720,-0.026339, 0.027676,-0.777219, 0.001181,-0.000710,-0.009183,-1.005939,-0.378011, 0.545367,1, 0.063209, 0.011227,-0.151406,1,-0.436932, 0.097414, 9.796427,1,0
1778256918623,  1854.745,  1854.740, 0.059175,-0.025295,-1.103386,-0.000300, 0.000396,-0.009359, 2.387935,-1.051756,-0.937231,1, 0.042052,-0.000354,-0.158515,1,-0.437658, 0.103126, 9.796336,1,0
1778256918650,  1854.770,  1854.770, 0.195739,-0.169347,-0.922018, 0.001327,-0.001173,-0.009839, 1.478385,-1.550313, 0.754193,1, 0.064089,-0.010746,-0.138019,1,-0.440871, 0.112215, 9.796092,1,0
1778256918671,  1854.795,  1854.790, 0.216641,-0.089357,-0.955948, 0.001807,-0.000563,-0.010488,-0.665762,-0.130146,-0.644024,1,-0.012848, 0.053893,-0.142812,1,-0.449975, 0.117600, 9.795615,1,0
1778256918693,  1854.815,  1854.810,-0.043237,-0.013983,-0.821754, 0.000846,-0.000973,-0.008105,-0.485663, 0.583560, 2.125950,1, 0.032947, 0.040010,-0.138004,1,-0.461816, 0.124602, 9.794977,1,0
1778256918720,  1854.840,  1854.840,-0.053830, 0.079133,-0.899908,-0.000835, 0.000219,-0.009741,-0.987096, 0.907908, 0.969926,1, 0.025557,-0.011422,-0.134517,1,-0.458907, 0.132483, 9.795011,1,0
1778256918741,  1854.865,  1854.860,-0.116781, 0.019579,-0.966699,-0.000702, 0.000243,-0.009052, 1.085313,-1.590147,-1.985110,1, 0.093571, 0.028798,-0.142626,1,-0.463187, 0.141632, 9.794682,1,0
1778256918763,  1854.885,  1854.880, 0.216647,-0.145410,-1.030098, 0.000237,-0.000229,-0.008838,-0.181152,-0.549784,-1.040658,1,-0.019880,-0.018261,-0.108440,1,-0.470685, 0.142602, 9.794310,1,0
1778256918790,  1854.910,  1854.910, 0.072290,-0.054172,-1.006838, 0.002183,-0.001198,-0.011452, 0.238819,-0.380707,-0.079491,1,-0.008088,-0.026947,-0.081445,1,-0.469303, 0.150168, 9.794263,1,0
1778256918811,  1854.935,  1854.930, 0.002786, 0.002194,-0.892278, 0.001348,-0.000099,-0.009724,-1.678585, 0.463616, 0.113265,1, 0.022573, 0.011062,-0.096034,1,-0.468709, 0.152583, 9.794254,1,0
1778256918833,  1854.955,  1854.950,-0.125077, 0.050168,-1.034438,-0.000965, 0.000090,-0.010807, 1.063076,-0.021508,-1.760557,1,-0.014091,-0.030896,-0.088989,1,-0.463198, 0.151386, 9.794535,1,0
1778256918860,  1854.980,  1854.980, 0.173597,-0.052920,-0.835490, 0.000459,-0.000184,-0.008738, 1.238662,-0.368200, 1.601159,1, 0.024026,-0.001875,-0.072677,1,-0.463721, 0.151407, 9.794510,1,0
1778256918882,  1855.005,  1855.000, 0.129067,-0.032588,-1.168163, 0.000114, 0.000281,-0.011671, 0.407287,-0.420612,-1.211634,1,-0.038171,-0.001323,-0.059793,1,-0.462371, 0.149495, 9.794603,1,0
1778256918904,  1855.025,  1855.025, 0.145012,-0.102012,-0.884698, 0.001384,-0.000863,-0.008126, 0.956668,-0.850692, 1.118532,1, 0.010968,-0.000025,-0.053077,1,-0.465440, 0.149968, 9.794451,1,0
1778256918930,  1855.050,  1855.050,-0.084454, 0.088343,-0.910592, 0.000017,-0.000035,-0.010203,-1.285434, 1.011160, 0.865062,1,-0.030247,-0.056661,-0.043022,1,-0.455476, 0.143801, 9.795012,1,0
1778256918952,  1855.075,  1855.070,-0.100940, 0.060644,-0.807958, 0.000149, 0.000129,-0.008922, 0.249756, 0.138588,-1.249406,1, 0.035769, 0.011845,-0.042429,1,-0.453218, 0.147851, 9.795055,1,0
1778256918974,  1855.095,  1855.090, 0.133331,-0.071241,-1.079953,-0.000156,-0.000354,-0.010432, 0.521278,-0.153895, 0.823749,1,-0.030636,-0.015852,-0.021519,1,-0.449054, 0.144691, 9.795295,1,0
1778256919000,  1855.120,  1855.120, 0.179972,-0.014194,-1.037748, 0.001504,-0.000580,-0.010951, 1.321992, 0.001948,-0.381208,1,-0.056353,-0.017799,-0.023864,1,-0.442382, 0.139355, 9.795675,1,0
1778256919022,  1855.145,  1855.140, 0.151656,-0.078898,-1.067574, 0.001263,-0.000360,-0.010134,-2.147875, 0.020327,-0.710724,1,-0.020132,-0.032239,-0.042011,1,-0.439490, 0.139412, 9.795805,1,0
1778256919045,  1855.165,  1855.165, 0.024205,-0.011441,-1.050440, 0.001274,-0.000755,-0.010618,-0.203942, 0.025813,-0.505551,1,-0.048052, 0.021877,-0.021754,1,-0.442003, 0.136479, 9.795733,1,0
1778256919070,  1855.190,  1855.190,-0.034969, 0.006960,-0.885769,-0.000542, 0.000221,-0.008767,-0.787770, 0.205852, 1.109157,1, 0.043526, 0.028259,-0.019506,1,-0.445731, 0.138931, 9.795530,1,0
1778256919092,  1855.215,  1855.210,-0.122645, 0.045108,-1.075202,-0.001281, 0.000613,-0.010922, 1.189567,-0.533620,-2.082365,1,-0.018893, 0.013889,-0.029285,1,-0.446180, 0.136794, 9.795540,1,0
1778256919115,  1855.235,  1855.235, 0.245175,-0.175375,-0.954159, 0.000886,-0.000869,-0.008420, 1.945399,-1.580748, 0.437815,1, 0.046086, 0.027811,-0.042100,1,-0.459836, 0.140470, 9.794856,1,0
1778256919140,  1855.260,  1855.260,-0.008406, 0.029611,-0.900816, 0.001857,-0.000811,-0.010374,-0.542883, 0.429864, 0.960857,1,-0.030440,-0.011651,-0.036567,1,-0.460096, 0.138472, 9.794872,1,0
1778256919162,  1855.285,  1855.280,-0.011305,-0.061650,-0.969315, 0.001053,-0.000973,-0.010411,-0.822857, 0.126199, 0.211841,1, 0.034843, 0.013281,-0.027052,1,-0.464563, 0.144050, 9.794580,1,0
1778256919185,  1855.305,  1855.305,-0.071917,-0.012426,-0.897613,-0.000564, 0.000153,-0.008023,-1.180116, 0.025847, 0.991459,1,-0.010666, 0.016773,-0.019787,1,-0.475382, 0.147340, 9.794013,1,0
1778256919210,  1855.330,  1855.330, 0.161959,-0.097732,-0.972705, 0.000278,-0.000057,-0.009058, 1.116601,-0.810060, 0.255199,1, 0.032184, 0.009485,-0.024210,1,-0.471981, 0.149333, 9.794147,1,0
1778256919232,  1855.355,  1855.350, 0.198951,-0.029497,-1.154269, 0.000373, 0.000068,-0.010988,-0.097561,-0.767561,-0.764659,1,-0.029835,-0.003462,-0.051016,1,-0.471432, 0.145434, 9.794232,1,0
1778256919255,  1855.380,  1855.375, 0.082423,-0.067305,-0.879548, 0.001532,-0.001312,-0.009464, 0.327635,-0.513311, 1.168346,1,-0.018250, 0.001820,-0.038393,1,-0.480729, 0.146102, 9.793771,1,0
1778256919281,  1855.400,  1855.400,-0.151344, 0.006394,-1.118768,-0.000198,-0.000287,-0.011570,-1.966399, 0.204578,-1.177611,1,-0.011619, 0.016508,-0.037258,1,-0.482749, 0.141454, 9.793739,1,0
1778256919302,  1855.425,  1855.420,-0.227752, 0.093925,-0.632971,-0.000649, 0.000251,-0.007681, 0.802467,-0.460940,-0.349098,1, 0.030839, 0.043231,-0.046981,1,-0.490097, 0.142005, 9.793366,1,0
1778256919325,  1855.450,  1855.445, 0.142009,-0.143718,-1.107592,-0.000482,-0.000087,-0.009606, 0.897533,-1.268327,-1.068640,1, 0.012556,-0.016840,-0.043726,1,-0.494591, 0.141389, 9.793149,1,0
1778256919351,  1855.470,  1855.470, 0.071247,-0.093006,-1.033189, 0.001576,-0.001055,-0.011753, 0.203582,-0.772838,-0.338967,1, 0.006137,-0.004011,-0.037147,1,-0.495279, 0.139964, 9.793135,1,0
1778256919372,  1855.495,  1855.490, 0.038022,-0.080044,-1.029460, 0.000736,-0.000726,-0.010257,-1.313690, 0.760122, 1.775970,1, 0.025353,-0.036270,-0.031511,1,-0.493498, 0.143027, 9.793180,1,0
1778256919395,  1855.520,  1855.515,-0.079986, 0.005785,-1.057274, 0.000141,-0.000917,-0.011049,-1.273567, 0.195050,-0.574854,1,-0.026578,-0.013317,-0.063309,1,-0.488781, 0.137387, 9.793498,1,0
1778256919421,  1855.540,  1855.540, 0.045575, 0.025364,-0.745031,-0.000471, 0.000377,-0.008373,-0.039717, 0.388136, 2.487313,1, 0.050233,-0.019242,-0.054639,1,-0.486081, 0.140881, 9.793583,1,0
1778256919442,  1855.565,  1855.560, 0.038327,-0.019879,-1.171315,-0.000269, 0.000379,-0.010735, 1.936940,-1.846972,-2.260239,1,-0.012515, 0.002785,-0.066441,1,-0.483917, 0.141362, 9.793683,1,0
1778256919465,  1855.590,  1855.585, 0.224845,-0.082952,-1.016970, 0.001324,-0.000213,-0.010441, 1.711904,-0.671345,-0.179851,1,-0.011726, 0.012902,-0.066060,1,-0.493501, 0.141664, 9.793200,1,0
1778256919491,  1855.610,  1855.610,-0.118795, 0.018583,-0.862211, 0.000653,-0.000666,-0.009598,-1.661510, 0.322641, 1.337663,1,-0.015871, 0.025024,-0.062857,1,-0.497334, 0.139812, 9.793033,1,0
1778256919512,  1855.635,  1855.630,-0.149716, 0.023992,-0.931501, 0.000389,-0.000516,-0.010845,-1.229706,-0.466865,-0.739939,1, 0.028532, 0.040386,-0.087601,1,-0.501258, 0.142885, 9.792789,1,0
1778256919535,  1855.660,  1855.650, 0.012686,-0.005850,-1.083459,-0.000809, 0.000169,-0.010085, 1.063163,-0.585397,-0.285862,1,-0.020175, 0.005199,-0.100337,1,-0.502411, 0.142066, 9.792742,1,0
1778256919561,  1855.680,  1855.680, 0.151086,-0.149894,-0.748435, 0.000801,-0.000951,-0.007622, 0.981668,-1.318627, 2.453088,1, 0.091718,-0.025954,-0.087358,1,-0.499202, 0.154070, 9.792724,1,0
1778256919582,  1855.705,  1855.700, 0.190509,-0.101603,-1.245501, 0.000747,-0.000228,-0.011827,-0.677702,-0.305108,-3.229029,1,-0.013259,-0.020158,-0.094496,1,-0.492117, 0.152860, 9.793101,1,0
1778256919609,  1855.730,  1855.730, 0.132577,-0.128642,-0.988751, 0.001441,-0.001587,-0.009148, 0.803814,-1.100027, 0.096411,1,-0.025045,-0.032952,-0.091613,1,-0.495340, 0.160593, 9.792815,1,0
1778256919631,  1855.750,  1855.750,-0.136691, 0.036015,-0.883472,-0.000205,-0.000608,-0.009799,-1.825416, 0.515743, 1.129403,1, 0.029321,-0.025181,-0.105036,1,-0.484205, 0.163312, 9.793327,1,0
1778256919653,  1855.775,  1855.770,-0.034206, 0.014065,-0.793439, 0.000716,-0.000844,-0.008902, 0.991058,-0.714587, 0.506594,1, 0.080437, 0.023552,-0.106881,1,-0.487790, 0.170197, 9.793032,1,0
1778256919679,  1855.800,  1855.800, 0.071813,-0.019880,-1.226614,-0.000528, 0.000664,-0.010951, 0.214001,-0.022310,-2.236113,1, 0.053257, 0.046178,-0.103592,1,-0.491741, 0.174146, 9.792765,1,0
1778256919701,  1855.825,  1855.820, 0.076940,-0.155349,-0.998601,-0.000773,-0.000766,-0.008876, 0.957346,-0.745594, 0.741360,1, 0.024795,-0.009551,-0.116313,1,-0.495374, 0.177174, 9.792527,1,0
1778256919723,  1855.845,  1855.840, 0.109608,-0.066432,-1.005635, 0.001158,-0.000782,-0.010766,-1.411331, 0.393617, 0.570966,1,-0.010785,-0.019003,-0.084328,1,-0.491696, 0.178574, 9.792687,1,0
1778256919750,  1855.870,  1855.870,-0.012129, 0.002467,-1.029676, 0.000708,-0.000575,-0.010500,-0.613143, 0.204540,-0.305144,1,-0.014598, 0.033155,-0.094589,1,-0.494862, 0.179976, 9.792502,1,0
1778256919771,  1855.895,  1855.890,-0.031114,-0.019211,-1.068765, 0.001132,-0.000951,-0.010444,-0.809959, 0.398794, 2.256713,1, 0.017944,-0.024141,-0.077041,1,-0.495245, 0.185180, 9.792386,1,0
1778256919793,  1855.915,  1855.910,-0.064506, 0.066770,-0.960018,-0.000210, 0.000472,-0.010385, 1.716774,-1.511904,-3.257438,1, 0.042068, 0.052965,-0.085118,1,-0.497572, 0.185281, 9.792266,1,0
1778256919820,  1855.940,  1855.940, 0.241813,-0.126820,-1.103208, 0.000601,-0.000402,-0.010032, 1.866587,-1.057843,-1.026890,1, 0.005102, 0.007993,-0.089606,1,-0.505091, 0.185851, 9.791870,1,0
1778256919841,  1855.965,  1855.960, 0.322967,-0.141540,-1.050144, 0.001248,-0.000776,-0.009415,-0.555229, 0.395459, 2.433303,1,-0.003948, 0.000496,-0.069810,1,-0.508636, 0.188619, 9.791634,1,0
1778256919863,  1855.985,  1855.980, 0.032133,-0.016711,-0.978167, 0.001756,-0.000966,-0.011630,-0.555229, 0.395459, 2.433303,1,-0.003948, 0.000496,-0.069810,1,-0.508636, 0.188619, 9.791634,1,0
1778256919890,  1856.010,  1856.010,-0.079377,-0.011380,-0.925000,-0.000814,-0.000158,-0.009083,-1.290000, 0.084240, 0.720191,1, 0.063068, 0.048855,-0.098729,1,-0.513158, 0.197640, 9.791220,1,0
1778256919911,  1856.035,  1856.030,-0.107462,-0.042968,-1.149876,-0.000915,-0.000339,-0.010858, 0.699362,-0.542324,-1.125117,1, 0.018882,-0.025585,-0.084842,1,-0.511261, 0.199797, 9.791276,1,0
1778256919933,  1856.055,  1856.050, 0.142497,-0.077562,-1.049393, 0.000039, 0.000005,-0.010138, 0.152460,-0.832288,-2.265069,1, 0.013964, 0.016128,-0.096303,1,-0.513453, 0.201864, 9.791119,1,0
1778256919960,  1856.080,  1856.080, 0.204874,-0.066732,-1.071958, 0.002137,-0.001028,-0.011209, 1.487252,-0.440058,-0.721912,1, 0.019904, 0.070408,-0.080389,1,-0.524105, 0.214869, 9.790277,1,0
1778256919981,  1856.105,  1856.100, 0.166606,-0.084815,-1.108795, 0.001471,-0.001171,-0.010852,-2.484587, 0.729501, 3.975481,1, 0.034136,-0.043766,-0.060451,1,-0.522155, 0.221743, 9.790228,1,0
1778256920003,  1856.125,  1856.120,-0.144723, 0.071925,-0.850224, 0.000172,-0.000169,-0.010328,-0.301609,-0.061082,-1.798109,1, 0.079765,-0.010962,-0.095005,1,-0.519096, 0.234931, 9.790083,1,0
1778256920030,  1856.150,  1856.150,-0.001594,-0.071601,-1.094009,-0.001449, 0.000013,-0.009009,-0.529704,-0.447734,-0.938708,1, 0.109393, 0.011999,-0.089106,1,-0.514521, 0.257693, 9.789752,1,0
1778256920051,  1856.175,  1856.170, 0.051641,-0.074150,-0.954005,-0.001161, 0.000074,-0.008066, 1.611631,-0.550052, 0.249608,1, 0.103152,-0.027754,-0.081396,1,-0.512540, 0.273869, 9.789417,1,0
1778256920073,  1856.195,  1856.190, 0.243742,-0.088525,-1.032515, 0.001837,-0.000774,-0.011467,-1.908366, 0.596421, 0.963271,1, 0.105060,-0.035997,-0.074062,1,-0.506722, 0.290270, 9.789248,1,0
1778256920100,  1856.220,  1856.220,-0.029670,-0.046383,-1.004588, 0.001140,-0.000559,-0.009848,-0.805490,-0.140548,-0.063546,1, 0.084368, 0.034267,-0.079175,1,-0.515676, 0.316815, 9.787956,1,0
1778256920122,  1856.245,  1856.240, 0.034515,-0.024623,-1.046807, 0.001108,-0.000745,-0.010705,-0.878942, 0.753752, 1.468799,1, 0.084174, 0.015179,-0.053966,1,-0.521311, 0.330917, 9.787191,1,0
1778256920144,  1856.265,  1856.265,-0.158209, 0.014859,-0.955439,-0.001011, 0.000148,-0.010233,-2.075948, 0.492998, 0.416799,1, 0.080200, 0.017708,-0.032232,1,-0.524737, 0.350487, 9.786327,1,0
1778256920170,  1856.290,  1856.290, 0.068186,-0.104005,-1.183090,-0.000823,-0.000144,-0.009977, 0.139755,-0.660522,-1.816374,1, 0.054038, 0.026629,-0.012276,1,-0.529764, 0.361088, 9.785670,1,0
