Time,GPS_ts,fGPS_ts,scaledAccelX,scaledAccelY,scaledAccelZ,deltaVelX,deltaVelY,deltaVelZ,estLinearAccelX,estLinearAccelY,estLinearAccelZ,estLinearAccel:valid,estAngularRateX,estAngularRateY,estAngularRateZ,estAngularRate:valid,estGravityX,estGravityY,estGravityZ,estGravity:valid,flag
1778257557416,  2477.333,  2477.333,-0.027898, 0.157143,-1.011811,-0.000303, 0.001576,-0.010014,-0.719788, 1.436685,-0.126542,1, 0.036439, 0.007995,-0.038369,1,-0.446443,-0.103277, 9.795938,1,0
1778257557416,  2477.358,  2477.353,-0.041812, 0.014337,-1.054360,-0.000393, 0.000036,-0.010545,-0.749402,-0.206649,-0.755362,1, 0.032545, 0.006314,-0.049983,1,-0.448117,-0.095172, 9.795944,1,0
1778257557416,  2477.378,  2477.378,-0.067568, 0.117954,-0.996496,-0.000678, 0.001128,-0.010041,-1.107826, 1.079912, 0.023948,1, 0.085118,-0.016648,-0.152063,1,-0.444658,-0.074383, 9.796282,1,0
1778257557416,  2477.403,  2477.403,-0.042553, 0.130011,-0.938391,-0.000458, 0.001265,-0.009364,-0.859170, 1.208181, 0.593988,1, 0.045503,-0.015107,-0.212054,1,-0.441351,-0.065667, 9.796494,1,0
1778257557416,  2477.428,  2477.423,-0.031255, 0.135170,-1.044654,-0.000282, 0.001364,-0.010439,-0.683626, 1.154537,-0.002088,1, 0.001915, 0.000190,-0.292714,1,-0.439816,-0.064004, 9.796574,1,0
1778257557416,  2477.453,  2477.453,-0.055276, 0.156393,-1.038763,-0.000543, 0.001561,-0.010450,-0.984700, 1.454915,-0.390448,1,-0.063126, 0.018274,-0.406541,1,-0.443098,-0.081315, 9.796297,1,0
1778257557417,  2477.478,  2477.473,-0.052566, 0.167709,-0.944803,-0.000525, 0.001685,-0.009449,-1.007354, 1.514230, 0.396213,1,-0.109381,-0.002152,-0.489869,1,-0.443620,-0.104869, 9.796049,1,0
1778257557417,  2477.503,  2477.498,-0.011155, 0.160051,-0.979845,-0.000150, 0.001615,-0.009749,-0.549608, 1.412735, 0.186504,1,-0.211518, 0.002697,-0.641883,1,-0.439958,-0.164387, 9.795397,1,0
1778257557417,  2477.528,  2477.523, 0.011681, 0.169841,-1.000811, 0.000127, 0.001708,-0.010040,-0.274316, 1.413778,-0.172282,1,-0.290366, 0.026598,-0.737922,1,-0.440862,-0.223677, 9.794182,1,0
1778257557417,  2477.548,  2477.543,-0.001345, 0.135885,-0.947099, 0.000006, 0.001339,-0.009527,-0.396133, 1.302369, 0.274559,1,-0.350389, 0.054868,-0.811022,1,-0.445797,-0.295926, 9.792042,1,0
1778257557417,  2477.568,  2477.563,-0.006691, 0.099684,-0.978135,-0.000058, 0.000902,-0.009735,-0.527271, 0.715674, 0.502192,1,-0.385393, 0.061369,-0.868838,1,-0.451933,-0.376057, 9.789010,1,0
1778257557432,  2493.543,  2493.543, 0.039615,-0.020651,-0.996019, 0.000396,-0.000201,-0.009955,-0.001761,-0.021986, 0.029608,1, 0.037736,-0.001832, 0.001230,1,-0.390195, 0.181714, 9.797199,1,0
1778257557453,  2493.568,  2493.563, 0.039383,-0.020622,-0.994246, 0.000393,-0.000205,-0.009944,-0.006102,-0.010769, 0.035468,1, 0.034343,-0.001847, 0.001026,1,-0.389800, 0.188578, 9.797085,1,0
1778257557475,  2493.588,  2493.583, 0.039195,-0.021687,-0.994927, 0.000393,-0.000214,-0.009951,-0.007909,-0.012422, 0.043424,1, 0.032415,-0.001856, 0.001013,1,-0.389515, 0.195107, 9.796968,1,0
1778257557502,  2493.613,  2493.613, 0.039793,-0.020669,-0.995553, 0.000397,-0.000207,-0.009956, 0.001197, 0.000326, 0.033786,1, 0.028700,-0.001818, 0.001505,1,-0.388980, 0.203918, 9.796810,1,0
1778257557523,  2493.638,  2493.633, 0.038873,-0.023222,-0.994645, 0.000390,-0.000232,-0.009947,-0.002327,-0.004054, 0.039240,1, 0.025649,-0.001564, 0.001425,1,-0.388611, 0.209132, 9.796715,1,0
1778257557545,  2493.658,  2493.653, 0.039115,-0.024760,-0.994980, 0.000390,-0.000246,-0.009946,-0.006136,-0.027159, 0.043724,1, 0.023338,-0.001148, 0.001762,1,-0.388354, 0.213858, 9.796623,1,0
1778257557572,  2493.683,  2493.683, 0.038584,-0.025144,-0.995745, 0.000385,-0.000252,-0.009956,-0.009573,-0.027168, 0.031594,1, 0.019822,-0.000958, 0.001568,1,-0.387925, 0.220032, 9.796504,1,0
1778257557593,  2493.708,  2493.703, 0.038914,-0.025495,-0.994363, 0.000391,-0.000256,-0.009946,-0.009858,-0.029250, 0.040420,1, 0.017791,-0.001851, 0.000672,1,-0.387609, 0.224323, 9.796419,1,0
1778257557616,  2493.728,  2493.728, 0.040106,-0.025008,-0.994715, 0.000399,-0.000251,-0.009944, 0.005937,-0.016820, 0.041513,1, 0.013973,-0.000861, 0.000649,1,-0.387340, 0.228863, 9.796325,1,0
1778257557642,  2493.753,  2493.753, 0.039857,-0.024870,-0.995280, 0.000399,-0.000249,-0.009953, 0.011541,-0.016387, 0.041403,1, 0.012195,-0.001655, 0.000549,1,-0.387214, 0.230089, 9.796301,1,0
1778257557663,  2493.778,  2493.773, 0.040221,-0.024925,-0.994814, 0.000400,-0.000249,-0.009950, 0.002235,-0.012437, 0.039537,1, 0.009304,-0.000330, 0.000553,1,-0.386987, 0.233069, 9.796239,1,0
1778257557686,  2493.798,  2493.798, 0.039693,-0.025528,-0.994900, 0.000394,-0.000252,-0.009947, 0.002383,-0.015470, 0.039567,1, 0.005731,-0.000887, 0.000746,1,-0.386843, 0.235055, 9.796198,1,0
1778257557712,  2493.823,  2493.823, 0.039366,-0.025562,-0.995182, 0.000396,-0.000258,-0.009951,-0.000797,-0.014872, 0.036779,1, 0.003467, 0.000469, 0.001137,1,-0.386864, 0.235914, 9.796176,1,0
1778257557734,  2493.848,  2493.843, 0.039508,-0.024205,-0.994847, 0.000393,-0.000241,-0.009951, 0.004392,-0.006244, 0.031631,1, 0.001401, 0.000471, 0.001236,1,-0.386882, 0.236370, 9.796165,1,0
1778257557756,  2493.868,  2493.868, 0.039942,-0.023818,-0.994801, 0.000399,-0.000238,-0.009950, 0.004825, 0.003045, 0.040492,1, 0.000723,-0.000154, 0.001446,1,-0.386863, 0.236646, 9.796159,1,0
1778257557782,  2493.893,  2493.893, 0.039912,-0.023782,-0.994748, 0.000397,-0.000239,-0.009945, 0.004543, 0.003332, 0.041011,1,-0.001906, 0.000073, 0.001535,1,-0.386863, 0.236496, 9.796162,1,0
1778257557804,  2493.918,  2493.913, 0.039162,-0.024422,-0.995349, 0.000394,-0.000244,-0.009951, 0.002012, 0.000192, 0.041083,1,-0.002012, 0.000182, 0.002240,1,-0.387013, 0.236676, 9.796152,1,0
1778257557826,  2493.938,  2493.938, 0.038945,-0.023389,-0.994655, 0.000391,-0.000237,-0.009946,-0.005126, 0.006719, 0.041928,1,-0.001915,-0.000107, 0.002190,1,-0.387038, 0.236030, 9.796166,1,0
1778257557852,  2493.963,  2493.963, 0.039149,-0.024407,-0.995092, 0.000389,-0.000242,-0.009950,-0.003134,-0.003584, 0.037655,1,-0.001986, 0.000238, 0.000746,1,-0.387063, 0.235710, 9.796173,1,0
1778257557874,  2493.988,  2493.983, 0.039068,-0.024391,-0.995763, 0.000389,-0.000245,-0.009960,-0.009810,-0.004185, 0.025336,1,-0.001329,-0.000023, 0.000922,1,-0.387108, 0.235524, 9.796176,1,0
1778257557897,  2494.008,  2494.008, 0.038704,-0.022559,-0.994389, 0.000387,-0.000226,-0.009946,-0.007652, 0.014257, 0.044543,1, 0.000526,-0.000008,-0.000061,1,-0.387208, 0.235507, 9.796172,1,0
1778257557922,  2494.033,  2494.033, 0.038317,-0.023723,-0.994587, 0.000383,-0.000235,-0.009946,-0.011396, 0.003128, 0.042597,1, 0.001542,-0.000441, 0.000075,1,-0.387146, 0.235823, 9.796167,1,0
1778257557944,  2494.058,  2494.053, 0.037645,-0.024997,-0.995254, 0.000376,-0.000252,-0.009953,-0.013903,-0.011636, 0.031536,1, 0.001395, 0.000257,-0.000178,1,-0.387261, 0.236046, 9.796157,1,0
1778257557967,  2494.083,  2494.078, 0.038458,-0.023173,-0.994229, 0.000385,-0.000232,-0.009942,-0.010129, 0.008927, 0.046094,1,-0.000141,-0.000234,-0.000415,1,-0.387267, 0.236170, 9.796154,1,0
1778257557992,  2494.103,  2494.103, 0.039100,-0.023509,-0.994277, 0.000390,-0.000234,-0.009941,-0.003615, 0.005601, 0.045641,1,-0.001153,-0.000859,-0.000666,1,-0.386999, 0.236106, 9.796166,1,0
1778257558014,  2494.128,  2494.123, 0.039969,-0.024417,-0.995257, 0.000402,-0.000246,-0.009950, 0.001763,-0.004157, 0.041746,1,-0.000288, 0.000287,-0.001053,1,-0.386967, 0.235966, 9.796171,1,0
1778257558037,  2494.153,  2494.148, 0.039843,-0.023175,-0.994590, 0.000399,-0.000232,-0.009946, 0.003696, 0.008429, 0.042582,1,-0.001751, 0.000483,-0.000376,1,-0.387042, 0.235641, 9.796176,1,0
1778257558062,  2494.173,  2494.173, 0.040018,-0.023628,-0.994962, 0.000400,-0.000235,-0.009949, 0.005336, 0.003537, 0.038937,1,-0.002554, 0.000268,-0.000233,1,-0.387116, 0.235169, 9.796184,1,0
1778257558084,  2494.198,  2494.193, 0.040680,-0.025054,-0.995147, 0.000408,-0.000250,-0.009952, 0.014344,-0.004288, 0.030806,1,-0.002841, 0.000218,-0.000604,1,-0.387173, 0.234658, 9.796194,1,0
1778257558107,  2494.223,  2494.218, 0.040890,-0.024194,-0.994995, 0.000407,-0.000243,-0.009948, 0.013739,-0.003821, 0.038653,1,-0.004886, 0.000392, 0.000021,1,-0.387268, 0.233285, 9.796223,1,0
1778257558132,  2494.243,  2494.243, 0.040705,-0.023623,-0.994138, 0.000406,-0.000234,-0.009941, 0.011827, 0.000645, 0.047078,1,-0.006847, 0.000255, 0.000240,1,-0.387359, 0.232097, 9.796247,1,0
1778257558154,  2494.268,  2494.263, 0.040798,-0.024623,-0.995081, 0.000408,-0.000248,-0.009952, 0.011490,-0.008462, 0.036521,1,-0.008341, 0.000637, 0.000414,1,-0.387411, 0.230586, 9.796281,1,0
1778257558177,  2494.293,  2494.288, 0.040051,-0.024430,-0.995232, 0.000402,-0.000244,-0.009951, 0.005346,-0.011164, 0.036440,1,-0.008885, 0.000801,-0.000533,1,-0.387447, 0.228134, 9.796337,1,0
1778257558203,  2494.313,  2494.313, 0.039496,-0.023331,-0.994717, 0.000395,-0.000232,-0.009945,-0.000584,-0.002090, 0.041511,1,-0.009303, 0.001576,-0.000734,1,-0.387963, 0.226418, 9.796356,1,0
1778257558224,  2494.338,  2494.333, 0.037943,-0.024040,-0.995223, 0.000378,-0.000241,-0.009951,-0.011666,-0.010358, 0.038816,1,-0.011325, 0.000286,-0.000080,1,-0.388140, 0.224350, 9.796397,1,0
1778257558247,  2494.363,  2494.358, 0.037608,-0.023305,-0.995537, 0.000377,-0.000235,-0.009955,-0.019596,-0.007388, 0.033578,1,-0.013334, 0.001106,-0.001588,1,-0.388436, 0.220742, 9.796468,1,0
1778257558273,  2494.383,  2494.383, 0.038550,-0.022523,-0.995159, 0.000386,-0.000227,-0.009950,-0.010454,-0.002322, 0.037336,1,-0.013596, 0.000697,-0.001260,1,-0.388523, 0.218125, 9.796523,1,0
1778257558294,  2494.408,  2494.403, 0.038777,-0.022926,-0.995354, 0.000388,-0.000230,-0.009950,-0.006858,-0.010897, 0.040447,1,-0.015140, 0.001199,-0.000765,1,-0.388723, 0.215173, 9.796580,1,0
1778257558321,  2494.433,  2494.433, 0.038675,-0.023600,-0.995809, 0.000388,-0.000237,-0.009957,-0.009809,-0.020680, 0.031106,1,-0.018025, 0.001775,-0.001343,1,-0.389136, 0.210197, 9.796672,1,0
1778257558343,  2494.453,  2494.453, 0.038997,-0.022478,-0.995273, 0.000388,-0.000230,-0.009953,-0.006998,-0.013319, 0.036428,1,-0.020013, 0.001226,-0.001446,1,-0.389466, 0.206492, 9.796738,1,0
1778257558364,  2494.478,  2494.473, 0.039985,-0.020090,-0.995156, 0.000399,-0.000201,-0.009951, 0.002403,-0.000691, 0.042573,1,-0.021399, 0.000849,-0.001973,1,-0.389614, 0.202504, 9.796815,1,0
1778257558391,  2494.503,  2494.503, 0.041214,-0.019913,-0.995123, 0.000410,-0.000200,-0.009952, 0.014510, 0.001765, 0.038105,1,-0.023362, 0.001444,-0.001311,1,-0.389688, 0.196359, 9.796937,1,0
1778257558413,  2494.528,  2494.523, 0.040494,-0.019120,-0.995465, 0.000406,-0.000195,-0.009953, 0.005677,-0.002620, 0.043133,1,-0.024861, 0.002498,-0.000658,1,-0.390143, 0.191559, 9.797013,1,0
1778257558434,  2494.548,  2494.543, 0.041487,-0.018843,-0.995456, 0.000415,-0.000191,-0.009953, 0.009978,-0.000881, 0.036022,1,-0.024932, 0.001158,-0.000625,1,-0.390420, 0.186632, 9.797098,1,0
1778257558461,  2494.573,  2494.573, 0.041442,-0.017794,-0.995223, 0.000413,-0.000181,-0.009955, 0.015695, 0.005547, 0.037410,1,-0.025906, 0.000987,-0.000261,1,-0.390739, 0.179241, 9.797223,1,0
1778257558483,  2494.598,  2494.593, 0.040264,-0.016452,-0.995105, 0.000402,-0.000167,-0.009952, 0.011965, 0.005445, 0.036523,1,-0.025429, 0.000994,-0.000464,1,-0.390816, 0.176777, 9.797265,1,0
1778257558504,  2494.618,  2494.613, 0.040019,-0.016019,-0.995659, 0.000400,-0.000162,-0.009955,-0.001939, 0.009198, 0.035042,1,-0.025614, 0.001194,-0.000474,1,-0.391271, 0.169325, 9.797379,1,0
1778257558531,  2494.643,  2494.643, 0.039976,-0.015331,-0.995275, 0.000397,-0.000157,-0.009952, 0.000239, 0.012513, 0.037150,1,-0.024014, 0.001745, 0.000337,1,-0.391847, 0.162111, 9.797477,1,0
1778257558553,  2494.668,  2494.663, 0.039332,-0.014694,-0.994768, 0.000395,-0.000148,-0.009946,-0.003339, 0.015275, 0.039252,1,-0.022915, 0.000757,-0.000260,1,-0.392001, 0.157486, 9.797546,1,0
1778257558575,  2494.688,  2494.683, 0.039366,-0.013203,-0.995501, 0.000396,-0.000135,-0.009955,-0.005234, 0.019782, 0.035763,1,-0.021230, 0.001891,-0.000174,1,-0.392224, 0.153161, 9.797606,1,0
1778257558602,  2494.713,  2494.713, 0.038985,-0.013934,-0.994892, 0.000391,-0.000139,-0.009949,-0.010421, 0.010708, 0.041117,1,-0.020658, 0.000560,-0.000567,1,-0.392748, 0.146705, 9.797684,1,0
1778257558623,  2494.738,  2494.733, 0.038870,-0.013103,-0.995142, 0.000388,-0.000131,-0.009952,-0.009254, 0.013384, 0.037850,1,-0.018570, 0.000479,-0.000480,1,-0.392890, 0.142994, 9.797733,1,0
1778257558645,  2494.758,  2494.753, 0.039920,-0.011645,-0.995811, 0.000399,-0.000115,-0.009961,-0.008186, 0.024705, 0.037294,1,-0.017438, 0.000665,-0.000501,1,-0.393040, 0.139471, 9.797778,1,0
1778257558672,  2494.783,  2494.783, 0.039421,-0.012399,-0.995078, 0.000393,-0.000126,-0.009950,-0.006686, 0.013418, 0.039448,1,-0.016591, 0.000332,-0.000212,1,-0.393281, 0.134489, 9.797838,1,0
1778257558693,  2494.808,  2494.803, 0.040227,-0.012179,-0.995597, 0.000402,-0.000124,-0.009954,-0.002720, 0.009927, 0.037182,1,-0.015350, 0.001770,-0.000720,1,-0.393475, 0.131471, 9.797871,1,0
1778257558715,  2494.828,  2494.823, 0.039985,-0.010923,-0.995563, 0.000399,-0.000110,-0.009957, 0.001385, 0.016564, 0.030975,1,-0.013945, 0.001018,-0.000025,1,-0.393587, 0.128646, 9.797904,1,0
1778257558742,  2494.853,  2494.853, 0.040940,-0.011266,-0.995089, 0.000408,-0.000113,-0.009949, 0.007681, 0.014705, 0.039447,1,-0.013207, 0.000397,-0.001283,1,-0.393813, 0.124775, 9.797945,1,0
1778257558763,  2494.878,  2494.873, 0.040234,-0.012292,-0.995663, 0.000404,-0.000123,-0.009956, 0.000318, 0.007412, 0.039176,1,-0.012283, 0.000923,-0.000411,1,-0.393960, 0.122259, 9.797971,1,0
1778257558785,  2494.898,  2494.893, 0.040384,-0.012302,-0.994806, 0.000406,-0.000122,-0.009948, 0.004842, 0.000286, 0.037096,1,-0.012403, 0.000861, 0.000281,1,-0.394074, 0.119793, 9.797997,1,0
1778257558812,  2494.923,  2494.923, 0.040425,-0.012230,-0.994822, 0.000405,-0.000122,-0.009947, 0.002253,-0.003771, 0.042164,1,-0.012398, 0.000595,-0.000621,1,-0.394197, 0.115781, 9.798040,1,0
1778257558833,  2494.948,  2494.943, 0.040439,-0.011409,-0.995491, 0.000405,-0.000113,-0.009957,-0.001947,-0.003641, 0.035477,1,-0.012543, 0.000535, 0.000330,1,-0.394298, 0.113308, 9.798065,1,0
1778257558856,  2494.968,  2494.968, 0.040335,-0.010489,-0.994900, 0.000404,-0.000108,-0.009950, 0.000981, 0.007004, 0.041459,1,-0.013956, 0.001196,-0.000740,1,-0.394603, 0.109432, 9.798097,1,0
1778257558882,  2494.993,  2494.993, 0.040060,-0.011077,-0.994892, 0.000403,-0.000111,-0.009950,-0.001924,-0.001341, 0.041554,1,-0.013269, 0.001387,-0.000257,1,-0.394818, 0.106869, 9.798117,1,0
1778257558903,  2495.018,  2495.013, 0.039074,-0.010805,-0.995261, 0.000391,-0.000110,-0.009952,-0.002006, 0.000624, 0.042977,1,-0.013861, 0.000703,-0.000344,1,-0.394938, 0.104120, 9.798141,1,0
1778257558926,  2495.038,  2495.033, 0.040174,-0.010540,-0.995092, 0.000401,-0.000107,-0.009951,-0.007055,-0.001792, 0.037854,1,-0.014531, 0.000564,-0.000844,1,-0.395143, 0.101236, 9.798163,1,0
1778257558952,  2495.063,  2495.063, 0.040404,-0.010656,-0.995317, 0.000402,-0.000110,-0.009952, 0.000791,-0.007199, 0.037465,1,-0.015650, 0.000863,-0.001267,1,-0.395463, 0.096813, 9.798195,1,0
1778257558974,  2495.088,  2495.083, 0.040108,-0.010089,-0.995241, 0.000402,-0.000101,-0.009954, 0.000264,-0.007821, 0.034017,1,-0.016741, 0.000612,-0.001130,1,-0.395596, 0.093559, 9.798221,1,0
1778257558996,  2495.108,  2495.108, 0.040606,-0.009338,-0.995171, 0.000406,-0.000094,-0.009953, 0.002279,-0.002588, 0.038958,1,-0.018369, 0.001179,-0.001360,1,-0.395967, 0.088408, 9.798254,1,0
1778257559022,  2495.133,  2495.133, 0.040335,-0.008613,-0.994752, 0.000404,-0.000088,-0.009949,-0.000595, 0.000731, 0.043090,1,-0.018741, 0.001192,-0.001102,1,-0.396184, 0.084608, 9.798279,1,0
1778257559044,  2495.158,  2495.153, 0.041154,-0.006806,-0.996116, 0.000411,-0.000072,-0.009962, 0.001257, 0.003413, 0.037240,1,-0.019794, 0.001816,-0.001449,1,-0.396511, 0.080707, 9.798298,1,0
1778257559066,  2495.178,  2495.178, 0.041456,-0.006133,-0.995145, 0.000417,-0.000062,-0.009954, 0.009714, 0.015228, 0.039289,1,-0.020608, 0.001250,-0.001153,1,-0.396870, 0.074728, 9.798331,1,0
1778257559092,  2495.203,  2495.203, 0.041526,-0.006640,-0.994747, 0.000415,-0.000066,-0.009945, 0.010119, 0.006259, 0.043206,1,-0.019489, 0.000471, 0.000317,1,-0.397128, 0.070767, 9.798350,1,0
1778257559114,  2495.228,  2495.223, 0.041417,-0.004654,-0.995571, 0.000415,-0.000050,-0.009956, 0.009152, 0.012434, 0.036650,1,-0.018107, 0.001761,-0.000750,1,-0.397378, 0.067060, 9.798367,1,0
1778257559137,  2495.248,  2495.248, 0.040230,-0.004400,-0.995168, 0.000402,-0.000044,-0.009953,-0.003105, 0.019545, 0.039117,1,-0.015670, 0.000542,-0.000680,1,-0.397639, 0.062207, 9.798388,1,0
1778257559162,  2495.273,  2495.273, 0.040159,-0.003425,-0.995010, 0.000402,-0.000036,-0.009949,-0.003931, 0.026174, 0.040680,1,-0.014685, 0.000262,-0.000448,1,-0.397760, 0.059301, 9.798401,1,0
1778257559184,  2495.298,  2495.293, 0.039182,-0.003505,-0.995998, 0.000393,-0.000033,-0.009960,-0.005925, 0.023454, 0.040904,1,-0.011445, 0.001535,-0.000500,1,-0.397948, 0.056828, 9.798408,1,0
1778257559207,  2495.323,  2495.318, 0.039168,-0.003346,-0.995303, 0.000390,-0.000036,-0.009955,-0.014168, 0.021115, 0.037823,1,-0.008618, 0.000035,-0.000759,1,-0.398278, 0.053659, 9.798412,1,0
1778257559232,  2495.343,  2495.343, 0.039212,-0.003343,-0.994920, 0.000391,-0.000032,-0.009950,-0.013775, 0.019777, 0.041584,1,-0.005715, 0.000579,-0.000406,1,-0.398327, 0.052385, 9.798417,1,0
1778257559254,  2495.368,  2495.363, 0.040253,-0.004179,-0.995919, 0.000402,-0.000043,-0.009959,-0.006338, 0.014982, 0.034595,1,-0.004098, 0.000475,-0.000682,1,-0.398411, 0.051486, 9.798418,1,0
1778257559277,  2495.393,  2495.388, 0.040534,-0.001916,-0.995407, 0.000406,-0.000019,-0.009953,-0.000961, 0.032136, 0.036807,1, 0.000265,-0.000012,-0.001623,1,-0.398464, 0.050933, 9.798419,1,0
1778257559302,  2495.413,  2495.413, 0.040677,-0.002129,-0.995306, 0.000408,-0.000020,-0.009953, 0.000438, 0.030327, 0.037797,1, 0.002627,-0.000477,-0.000601,1,-0.398456, 0.051284, 9.798418,1,0
1778257559324,  2495.438,  2495.433, 0.041138,-0.003812,-0.995150, 0.000412,-0.000036,-0.009956, 0.009309, 0.017895, 0.034735,1, 0.005689, 0.000195,-0.001430,1,-0.398515, 0.052127, 9.798410,1,0
1778257559347,  2495.463,  2495.458, 0.041357,-0.002113,-0.994738, 0.000415,-0.000020,-0.009951, 0.007036, 0.033228, 0.043348,1, 0.008411,-0.000382,-0.000556,1,-0.398522, 0.054208, 9.798399,1,0
1778257559373,  2495.483,  2495.483, 0.041122,-0.002152,-0.995050, 0.000412,-0.000022,-0.009951, 0.004931, 0.034594, 0.040293,1, 0.009837,-0.000867,-0.000439,1,-0.398315, 0.056003, 9.798397,1,0
1778257559394,  2495.508,  2495.503, 0.041387,-0.005011,-0.995686, 0.000414,-0.000047,-0.009957, 0.007806, 0.015055, 0.027107,1, 0.011819,-0.000578,-0.000883,1,-0.398088, 0.057333, 9.798399,1,0
1778257559417,  2495.533,  2495.528, 0.041042,-0.005431,-0.995456, 0.000409,-0.000052,-0.009956, 0.004595, 0.007536, 0.036299,1, 0.013622,-0.000860,-0.000706,1,-0.397862, 0.061221, 9.798385,1,0
1778257559443,  2495.553,  2495.553, 0.040342,-0.004808,-0.995427, 0.000405,-0.000048,-0.009952,-0.002178, 0.016392, 0.036566,1, 0.015481,-0.000352,-0.000573,1,-0.397788, 0.064026, 9.798369,1,0
1778257559464,  2495.578,  2495.573, 0.041055,-0.006212,-0.995581, 0.000409,-0.000057,-0.009957, 0.002572, 0.015917, 0.034959,1, 0.015963,-0.001044,-0.000448,1,-0.397584, 0.067084, 9.798358,1,0
1778257559487,  2495.603,  2495.598, 0.041010,-0.005869,-0.994967, 0.000409,-0.000058,-0.009950, 0.004910, 0.014105, 0.041044,1, 0.017399,-0.000284, 0.000542,1,-0.397250, 0.072203, 9.798335,1,0
1778257559513,  2495.623,  2495.623, 0.040353,-0.006046,-0.995201, 0.000406,-0.000060,-0.009953,-0.001342, 0.015836, 0.038728,1, 0.017851,-0.001096, 0.000619,1,-0.397034, 0.075681, 9.798317,1,0
1778257559534,  2495.648,  2495.643, 0.039971,-0.007454,-0.995675, 0.000401,-0.000072,-0.009958,-0.000337, 0.010584, 0.035947,1, 0.018370,-0.001720, 0.000571,1,-0.396756, 0.079325, 9.798300,1,0
1778257559561,  2495.673,  2495.673, 0.040503,-0.007688,-0.995098, 0.000405,-0.000076,-0.009947, 0.000804, 0.009164, 0.039690,1, 0.020988,-0.002153, 0.000819,1,-0.396327, 0.085217, 9.798267,1,0
1778257559583,  2495.693,  2495.693, 0.040406,-0.007954,-0.994883, 0.000403,-0.000078,-0.009947, 0.000149, 0.010691, 0.041771,1, 0.020904,-0.001209, 0.000391,1,-0.396062, 0.089348, 9.798242,1,1
1778257559604,  2495.718,  2495.713, 0.040510,-0.008869,-0.995459, 0.000402,-0.000085,-0.009955, 0.001300, 0.003736, 0.027906,1, 0.021447,-0.000880, 0.000387,1,-0.395971, 0.093027, 9.798211,1,1
1778257559631,  2495.743,  2495.743, 0.039926,-0.009189,-0.994872, 0.000399,-0.000090,-0.009950,-0.003974, 0.008640, 0.041807,1, 0.021854,-0.001228, 0.000337,1,-0.395473, 0.099437, 9.798168,1,1
1778257559653,  2495.768,  2495.763, 0.040374,-0.009350,-0.994951, 0.000404,-0.000091,-0.009949, 0.002213, 0.008276, 0.039352,1, 0.021510,-0.000982, 0.000470,1,-0.395143, 0.103713, 9.798137,1,1
1778257559674,  2495.788,  2495.783, 0.040873,-0.010297,-0.995255, 0.000407,-0.000100,-0.009954,-0.000777, 0.008653, 0.038671,1, 0.022072,-0.001570, 0.000590,1,-0.394818, 0.108015, 9.798103,1,1
1778257559701,  2495.813,  2495.813, 0.040918,-0.011310,-0.995418, 0.000407,-0.000112,-0.009956, 0.006973, 0.003104, 0.036339,1, 0.023147,-0.001413, 0.000718,1,-0.394249, 0.114744, 9.798050,1,1
1778257559723,  2495.838,  2495.833, 0.040294,-0.011462,-0.995346, 0.000406,-0.000111,-0.009954, 0.002140, 0.013077, 0.040216,1, 0.024251,-0.001669, 0.000810,1,-0.393871, 0.119381, 9.798010,1,1
1778257559744,  2495.858,  2495.853, 0.040242,-0.012371,-0.995505, 0.000403,-0.000124,-0.009953, 0.006830, 0.004784, 0.041131,1, 0.023392,-0.000775, 0.000596,1,-0.393681, 0.124027, 9.797960,1,1
1778257559771,  2495.883,  2495.883, 0.040456,-0.013650,-0.995573, 0.000404,-0.000134,-0.009954, 0.003253,-0.003669, 0.034650,1, 0.023738,-0.001072, 0.000386,1,-0.393448, 0.130936, 9.797879,1,1
1778257559793,  2495.908,  2495.903, 0.039614,-0.014596,-0.995111, 0.000395,-0.000146,-0.009952,-0.004477,-0.004480, 0.034692,1, 0.022340,-0.001604, 0.000799,1,-0.393259, 0.135233, 9.797829,1,1
1778257559815,  2495.928,  2495.923, 0.039043,-0.015231,-0.994709, 0.000391,-0.000153,-0.009946,-0.007695,-0.015542, 0.035109,1, 0.021654,-0.001771, 0.000737,1,-0.393022, 0.139537, 9.797778,1,1
1778257559842,  2495.953,  2495.953, 0.038919,-0.015958,-0.995185, 0.000390,-0.000157,-0.009952,-0.010965,-0.011652, 0.038287,1, 0.019206,-0.001199, 0.000348,1,-0.392597, 0.145444, 9.797709,1,1
1778257559863,  2495.978,  2495.973, 0.039500,-0.016066,-0.995412, 0.000394,-0.000160,-0.009954,-0.006426,-0.010371, 0.037000,1, 0.018841,-0.000960, 0.000545,1,-0.392410, 0.149222, 9.797660,1,1
1778257559885,  2495.998,  2495.993, 0.040058,-0.015976,-0.994626, 0.000402,-0.000159,-0.009948,-0.000254,-0.006321, 0.038983,1, 0.017497,-0.001388, 0.000765,1,-0.392157, 0.152744, 9.797615,1,1
1778257559912,  2496.023,  2496.023, 0.040128,-0.017725,-0.995118, 0.000400,-0.000176,-0.009951, 0.001706,-0.016833, 0.038789,1, 0.016070,-0.001516, 0.000301,1,-0.391766, 0.157493, 9.797556,1,1
1778257559933,  2496.048,  2496.043, 0.039619,-0.016925,-0.994769, 0.000394,-0.000168,-0.009949,-0.009037,-0.007074, 0.040849,1, 0.015340,-0.001097, 0.000227,1,-0.391548, 0.160546, 9.797515,1,1
1778257559955,  2496.068,  2496.063, 0.039709,-0.016454,-0.995298, 0.000400,-0.000160,-0.009952,-0.005960, 0.002926, 0.039528,1, 0.013746,-0.000542, 0.000729,1,-0.391513, 0.163266, 9.797471,1,1
1778257559982,  2496.093,  2496.093, 0.040070,-0.017558,-0.994862, 0.000399,-0.000175,-0.009948, 0.001582,-0.005410, 0.041154,1, 0.013218,-0.000940,-0.000009,1,-0.391337, 0.167190, 9.797412,1,1
1778257560003,  2496.118,  2496.113, 0.040338,-0.017677,-0.995114, 0.000403,-0.000177,-0.009950, 0.003604,-0.006370, 0.041712,1, 0.012432,-0.000997,-0.000439,1,-0.391077, 0.169884, 9.797377,1,1
1778257560025,  2496.138,  2496.133, 0.040184,-0.017746,-0.995554, 0.000403,-0.000177,-0.009955, 0.001297,-0.002496, 0.032454,1, 0.011779,-0.000655, 0.000833,1,-0.390924, 0.172220, 9.797341,1,1
1778257560052,  2496.163,  2496.163, 0.040068,-0.017636,-0.995399, 0.000402,-0.000176,-0.009954, 0.002210, 0.002314, 0.035766,1, 0.011298,-0.001111, 0.000444,1,-0.390689, 0.175614, 9.797291,1,1
1778257560073,  2496.188,  2496.183, 0.040107,-0.017904,-0.995573, 0.000401,-0.000179,-0.009951, 0.005151, 0.003181, 0.040832,1, 0.010865,-0.000193,-0.000206,1,-0.390631, 0.177748, 9.797255,1,1
1778257560096,  2496.208,  2496.208, 0.040333,-0.017935,-0.994748, 0.000402,-0.000179,-0.009949, 0.005054, 0.004630, 0.042062,1, 0.010416,-0.001334, 0.000129,1,-0.390439, 0.180839, 9.797206,1,1
1778257560122,  2496.233,  2496.233, 0.041627,-0.017647,-0.994764, 0.000412,-0.000177,-0.009949, 0.017893, 0.009584, 0.041874,1, 0.010346,-0.000455, 0.000264,1,-0.390313, 0.182967, 9.797172,1,1
1778257560143,  2496.258,  2496.253, 0.041145,-0.018620,-0.995430, 0.000412,-0.000188,-0.009954, 0.012543, 0.003875, 0.041329,1, 0.011779,-0.000764,-0.000327,1,-0.390217, 0.185199, 9.797133,1,1
1778257560166,  2496.278,  2496.278, 0.040062,-0.018882,-0.994905, 0.000403,-0.000188,-0.009950, 0.002844, 0.003343, 0.040394,1, 0.012554,-0.000673, 0.000493,1,-0.390010, 0.188905, 9.797071,1,1
1778257560192,  2496.303,  2496.303, 0.039310,-0.019085,-0.994561, 0.000397,-0.000189,-0.009946,-0.004667, 0.003763, 0.043713,1, 0.012804,-0.000311, 0.000482,1,-0.390189, 0.191320, 9.797016,1,1
1778257560214,  2496.328,  2496.323, 0.040126,-0.019407,-0.995554, 0.000399,-0.000193,-0.009954, 0.001437, 0.002434, 0.033005,1, 0.011562,-0.000358, 0.000665,1,-0.390052, 0.193634, 9.796976,1,1
1778257560236,  2496.348,  2496.348, 0.040246,-0.018941,-0.995007, 0.000402,-0.000191,-0.009951, 0.004836, 0.010981, 0.039242,1, 0.012047, 0.000014, 0.000887,1,-0.389838, 0.197102, 9.796916,1,1
1778257560262,  2496.373,  2496.373, 0.039210,-0.018972,-0.994722, 0.000393,-0.000191,-0.009946,-0.005181, 0.013032, 0.041994,1, 0.011835,-0.000225, 0.001280,1,-0.389691, 0.199455, 9.796874,1,1
1778257560284,  2496.398,  2496.393, 0.039165,-0.021728,-0.995357, 0.000394,-0.000214,-0.009952,-0.000537,-0.003499, 0.040158,1, 0.011657,-0.000718, 0.000935,1,-0.389629, 0.201749, 9.796829,1,1
1778257560306,  2496.418,  2496.418, 0.039080,-0.021128,-0.995347, 0.000391,-0.000210,-0.009956,-0.006201,-0.002278, 0.035754,1, 0.012632,-0.001143,-0.000540,1,-0.389406, 0.205310, 9.796764,1,1
1778257560332,  2496.443,  2496.443, 0.038917,-0.020624,-0.994827, 0.000392,-0.000205,-0.009949,-0.007732, 0.005020, 0.040799,1, 0.011796, 0.000187, 0.000065,1,-0.389379, 0.207636, 9.796717,1,1
1778257560354,  2496.468,  2496.463, 0.039112,-0.021389,-0.994766, 0.000393,-0.000215,-0.009945,-0.005984, 0.002231, 0.044749,1, 0.011962,-0.000453,-0.000498,1,-0.389123, 0.209985, 9.796677,1,1
1778257560377,  2496.488,  2496.488, 0.039371,-0.022570,-0.995764, 0.000391,-0.000224,-0.009951,-0.002799,-0.008517, 0.031512,1, 0.010362,-0.000864,-0.000044,1,-0.388868, 0.213146, 9.796618,1,1
1778257560402,  2496.513,  2496.513, 0.039626,-0.021371,-0.994715, 0.000398,-0.000216,-0.009949,-0.000070, 0.005154, 0.041773,1, 0.009462,-0.001090,-0.000030,1,-0.388633, 0.215029, 9.796587,1,1
1778257560424,  2496.538,  2496.533, 0.040292,-0.023008,-0.995153, 0.000404,-0.000227,-0.009950, 0.005501, 0.001234, 0.040324,1, 0.009108,-0.000948, 0.000045,1,-0.388499, 0.216955, 9.796550,1,1
1778257560447,  2496.563,  2496.558, 0.040737,-0.023001,-0.994886, 0.000408,-0.000230,-0.009950, 0.011114,-0.006202, 0.039999,1, 0.008643,-0.000479, 0.000035,1,-0.388369, 0.219628, 9.796495,1,1
1778257560472,  2496.583,  2496.583, 0.039970,-0.022313,-0.995126, 0.000400,-0.000222,-0.009952, 0.003656, 0.002236, 0.037608,1, 0.008358, 0.000008, 0.000189,1,-0.388318, 0.221317, 9.796459,1,1
1778257560494,  2496.608,  2496.603, 0.040216,-0.023387,-0.994691, 0.000402,-0.000231,-0.009947, 0.007628,-0.003617, 0.041983,1, 0.008003,-0.000112, 0.000120,1,-0.388324, 0.222905, 9.796423,1,1
1778257560517,  2496.633,  2496.628, 0.039503,-0.023725,-0.994781, 0.000395,-0.000239,-0.009949,-0.000758,-0.007836, 0.040918,1, 0.006518,-0.000903,-0.000112,1,-0.388123, 0.225026, 9.796382,1,1
1778257560542,  2496.653,  2496.653, 0.039491,-0.023520,-0.994965, 0.000396,-0.000234,-0.009951,-0.000746,-0.004655, 0.039090,1, 0.005174,-0.000169, 0.000195,1,-0.388014, 0.226160, 9.796361,1,1
1778257560564,  2496.678,  2496.673, 0.038674,-0.023396,-0.995261, 0.000389,-0.000234,-0.009951,-0.006059,-0.005871, 0.035362,1, 0.003318,-0.000991, 0.000971,1,-0.387879, 0.226977, 9.796347,1,1
1778257560587,  2496.703,  2496.698, 0.038876,-0.024210,-0.995370, 0.000388,-0.000245,-0.009954,-0.006537,-0.009522, 0.035086,1, 0.002046,-0.000607, 0.000048,1,-0.387775, 0.227972, 9.796329,1,1
1778257560613,  2496.723,  2496.723, 0.039407,-0.024100,-0.995276, 0.000394,-0.000243,-0.009953,-0.001369,-0.008079, 0.035995,1, 0.000943, 0.000240, 0.000275,1,-0.387829, 0.228287, 9.796319,1,1
1778257560634,  2496.748,  2496.743, 0.038997,-0.022824,-0.994821, 0.000391,-0.000232,-0.009948,-0.007730, 0.000062, 0.039795,1, 0.000378,-0.000230, 0.000585,1,-0.387756, 0.228535, 9.796316,1,1
1778257560657,  2496.773,  2496.768, 0.039683,-0.022716,-0.995135, 0.000396,-0.000229,-0.009949, 0.001434, 0.005762, 0.037375,1,-0.001039, 0.000300, 0.000637,1,-0.387735, 0.228501, 9.796317,1,1
1778257560683,  2496.793,  2496.793, 0.039611,-0.023216,-0.995096, 0.000399,-0.000231,-0.009951, 0.000651, 0.000694, 0.037757,1,-0.000938, 0.000685, 0.001140,1,-0.387818, 0.228336, 9.796318,1,1
1778257560704,  2496.818,  2496.813, 0.039745,-0.022758,-0.996414, 0.000398,-0.000227,-0.009964, 0.004608, 0.005558, 0.031711,1,-0.000439,-0.000219,-0.000060,1,-0.387811, 0.228176, 9.796322,1,1
1778257560727,  2496.843,  2496.838, 0.039676,-0.022354,-0.995024, 0.000397,-0.000224,-0.009950, 0.001225, 0.008787, 0.038470,1,-0.000384, 0.000185, 0.000096,1,-0.387873, 0.227996, 9.796324,1,1
1778257560753,  2496.863,  2496.863, 0.039556,-0.022734,-0.994121, 0.000396,-0.000224,-0.009940, 0.000002, 0.004976, 0.047325,1,-0.000690, 0.000439, 0.000046,1,-0.387920, 0.227904, 9.796324,1,1
1778257560774,  2496.888,  2496.883, 0.039282,-0.023246,-0.994743, 0.000394,-0.000231,-0.009949,-0.000113, 0.002317, 0.037029,1,-0.000656, 0.000142, 0.000871,1,-0.387985, 0.227741, 9.796325,1,1
1778257560801,  2496.913,  2496.913, 0.039489,-0.023395,-0.995042, 0.000394,-0.000234,-0.009952,-0.000768,-0.001860, 0.038295,1,-0.001381,-0.000438, 0.000169,1,-0.388006, 0.227526, 9.796329,1,1
1778257560823,  2496.933,  2496.933, 0.038692,-0.023446,-0.994379, 0.000388,-0.000234,-0.009946,-0.008488,-0.002572, 0.044813,1,-0.001142, 0.000097,-0.000008,1,-0.387926, 0.227323, 9.796337,1,1
1778257560844,  2496.958,  2496.953, 0.039249,-0.022718,-0.995087, 0.000392,-0.000228,-0.009953,-0.008094,-0.002594, 0.039565,1,-0.000956, 0.000180, 0.000102,1,-0.387952, 0.227164, 9.796340,1,1
1778257560871,  2496.983,  2496.983, 0.038419,-0.023411,-0.995370, 0.000383,-0.000235,-0.009954,-0.011186,-0.003078, 0.035113,1,-0.002392, 0.000465,-0.000153,1,-0.387960, 0.226427, 9.796356,1,1
1778257560893,  2497.008,  2497.003, 0.038858,-0.023125,-0.994931, 0.000389,-0.000231,-0.009949,-0.004011,-0.006365, 0.036782,1,-0.003418,-0.000088, 0.000102,1,-0.388018, 0.225757, 9.796370,1,1
1778257560914,  2497.028,  2497.023, 0.039883,-0.023564,-0.995200, 0.000398,-0.000239,-0.009954, 0.000500,-0.007776, 0.037532,1,-0.004433, 0.000536, 0.000078,1,-0.388046, 0.224923, 9.796388,1,1
1778257560941,  2497.053,  2497.053, 0.040256,-0.023053,-0.994682, 0.000404,-0.000234,-0.009948, 0.008569,-0.012690, 0.036582,1,-0.005531,-0.000204,-0.000988,1,-0.388061, 0.223841, 9.796412,1,1
1778257560963,  2497.078,  2497.073, 0.040370,-0.022373,-0.994940, 0.000400,-0.000225,-0.009949,-0.000064, 0.002129, 0.045727,1,-0.006786, 0.000061,-0.000551,1,-0.388099, 0.221887, 9.796455,1,1
1778257560985,  2497.098,  2497.093, 0.040409,-0.023012,-0.995116, 0.000405,-0.000230,-0.009953, 0.013681,-0.003071, 0.041319,1,-0.008407, 0.000333, 0.000470,1,-0.388214, 0.220344, 9.796485,1,1
1778257561011,  2497.123,  2497.123, 0.040606,-0.022068,-0.995546, 0.000405,-0.000223,-0.009955, 0.009915, 0.001885, 0.033560,1,-0.008903,-0.000006,-0.000307,1,-0.388293, 0.218020, 9.796535,1,1
1778257561033,  2497.148,  2497.143, 0.039670,-0.021890,-0.994389, 0.000398,-0.000217,-0.009944, 0.006680, 0.008968, 0.039776,1,-0.009242, 0.000853,-0.000213,1,-0.388399, 0.216216, 9.796570,1,1
1778257561055,  2497.168,  2497.163, 0.038939,-0.021533,-0.995133, 0.000388,-0.000217,-0.009951,-0.003115, 0.003562, 0.039579,1,-0.008671,-0.000024,-0.000144,1,-0.388453, 0.214544, 9.796604,1,1
1778257561082,  2497.193,  2497.193, 0.039480,-0.021009,-0.995404, 0.000395,-0.000211,-0.009955,-0.001452, 0.006278, 0.035065,1,-0.008572, 0.000657,-0.000489,1,-0.388639, 0.212038, 9.796652,1,1
1778257561103,  2497.218,  2497.213, 0.038649,-0.021151,-0.994443, 0.000388,-0.000214,-0.009948,-0.009925, 0.007426, 0.039850,1,-0.009069, 0.000432, 0.000486,1,-0.388684, 0.210289, 9.796687,1,1
1778257561125,  2497.238,  2497.233, 0.038562,-0.021972,-0.995018, 0.000386,-0.000215,-0.009949,-0.006960,-0.000015, 0.043134,1,-0.009115, 0.000289,-0.000526,1,-0.388718, 0.208493, 9.796724,1,1
1778257561152,  2497.263,  2497.263, 0.038308,-0.023199,-0.994839, 0.000382,-0.000229,-0.009950,-0.013167,-0.021543, 0.040730,1,-0.010591, 0.000588,-0.000229,1,-0.388858, 0.205635, 9.796780,1,1
1778257561173,  2497.288,  2497.283, 0.038146,-0.020072,-0.995013, 0.000383,-0.000203,-0.009953,-0.013346,-0.010051, 0.034674,1,-0.011444, 0.001177,-0.000882,1,-0.389036, 0.203431, 9.796819,1,1
1778257561195,  2497.308,  2497.303, 0.039617,-0.019425,-0.995096, 0.000394,-0.000193,-0.009949,-0.007517, 0.019232, 0.034438,1,-0.013153, 0.000760,-0.000658,1,-0.389167, 0.201092, 9.796862,1,1
1778257561222,  2497.333,  2497.333, 0.040548,-0.020247,-0.994870, 0.000406,-0.000202,-0.009950, 0.008220,-0.000978, 0.040582,1,-0.013488, 0.001516,-0.000509,1,-0.389466, 0.197152, 9.796929,1,1
1778257561243,  2497.358,  2497.353, 0.041718,-0.019250,-0.995060, 0.000415,-0.000192,-0.009947, 0.014985,-0.000171, 0.043961,1,-0.013043, 0.000476,-0.000525,1,-0.389579, 0.194536, 9.796977,1,1
1778257561265,  2497.378,  2497.373, 0.041818,-0.018400,-0.995172, 0.000419,-0.000186,-0.009953, 0.019809, 0.000094, 0.038386,1,-0.012066, 0.000350,-0.000167,1,-0.389702, 0.192029, 9.797022,1,1
1778257561292,  2497.403,  2497.403, 0.040134,-0.018090,-0.995044, 0.000401,-0.000185,-0.009952, 0.003605, 0.011459, 0.039024,1,-0.011645, 0.001615,-0.000736,1,-0.390022, 0.188495, 9.797078,1,1
1778257561313,  2497.428,  2497.423, 0.039486,-0.019125,-0.994957, 0.000395,-0.000191,-0.009949, 0.001005,-0.003277, 0.040055,1,-0.011617, 0.000285,-0.000327,1,-0.390096, 0.186228, 9.797118,1,1
1778257561336,  2497.448,  2497.448, 0.038568,-0.017119,-0.995658, 0.000387,-0.000173,-0.009958,-0.012074, 0.015477, 0.033097,1,-0.010253, 0.000250,-0.000632,1,-0.390301, 0.183032, 9.797171,1,1
1778257561362,  2497.473,  2497.473, 0.039407,-0.016573,-0.995544, 0.000392,-0.000165,-0.009954,-0.003871, 0.018838, 0.034243,1,-0.010120, 0.000601,-0.000459,1,-0.390338, 0.181044, 9.797206,1,1
1778257561383,  2497.498,  2497.493, 0.039669,-0.017274,-0.994805, 0.000396,-0.000172,-0.009948,-0.004795, 0.010615, 0.037701,1,-0.008744, 0.000357,-0.000469,1,-0.390355, 0.179217, 9.797238,1,1
1778257561406,  2497.518,  2497.518, 0.039464,-0.016356,-0.995386, 0.000394,-0.000165,-0.009953,-0.003663, 0.016501, 0.035867,1,-0.007441, 0.001025,-0.000344,1,-0.390700, 0.176664, 9.797272,1,1
1778257561432,  2497.543,  2497.543, 0.038951,-0.015242,-0.995367, 0.000389,-0.000152,-0.009954,-0.008844, 0.026297, 0.036065,1,-0.005136, 0.000242,-0.000901,1,-0.390829, 0.175610, 9.797285,1,1
1778257561454,  2497.568,  2497.563, 0.039666,-0.016588,-0.994855, 0.000395,-0.000164,-0.009951,-0.007279, 0.017407, 0.040590,1,-0.003148, 0.000327,-0.000626,1,-0.390858, 0.174868, 9.797297,1,1
1778257561476,  2497.588,  2497.588, 0.039983,-0.016389,-0.995092, 0.000400,-0.000162,-0.009953, 0.001181, 0.013747, 0.038782,1,-0.000472, 0.000593,-0.001273,1,-0.390940, 0.174448, 9.797301,1,1
1778257561502,  2497.613,  2497.613, 0.039428,-0.015354,-0.995057, 0.000395,-0.000153,-0.009953,-0.004304, 0.023924, 0.039124,1, 0.000548,-0.000624, 0.000278,1,-0.390937, 0.174515, 9.797300,1,1
1778257561524,  2497.638,  2497.633, 0.039899,-0.016368,-0.994345, 0.000399,-0.000163,-0.009943, 0.003614, 0.016790, 0.043139,1, 0.001690,-0.000685, 0.000228,1,-0.390834, 0.174811, 9.797299,1,1
1778257561546,  2497.658,  2497.658, 0.039795,-0.017844,-0.995015, 0.000399,-0.000179,-0.009953,-0.000526, 0.000298, 0.039532,1, 0.002233, 0.000741,-0.000263,1,-0.390809, 0.175357, 9.797291,1,1
1778257561572,  2497.683,  2497.683, 0.040300,-0.017492,-0.995455, 0.000401,-0.000176,-0.009956, 0.004409, 0.004220, 0.035209,1, 0.002992,-0.000670,-0.000615,1,-0.390780, 0.175852, 9.797283,1,1
1778257561594,  2497.708,  2497.703, 0.040263,-0.015871,-0.994300, 0.000404,-0.000161,-0.009943,-0.000244, 0.018182, 0.044574,1, 0.003017, 0.000561,-0.000128,1,-0.390766, 0.175969, 9.797281,1,1
1778257561617,  2497.728,  2497.728, 0.040355,-0.017002,-0.995624, 0.000405,-0.000171,-0.009959, 0.005059, 0.010212, 0.033532,1, 0.003780,-0.000675, 0.000133,1,-0.390670, 0.177066, 9.797265,1,1
1778257561642,  2497.753,  2497.753, 0.040270,-0.016873,-0.995245, 0.000403,-0.000171,-0.009953, 0.004183, 0.012392, 0.037226,1, 0.004719,-0.000380,-0.000402,1,-0.390723, 0.178004, 9.797246,1,1
1778257561664,  2497.778,  2497.773, 0.039915,-0.016655,-0.995326, 0.000400,-0.000163,-0.009952,-0.003062, 0.022867, 0.037102,1, 0.005874,-0.001550, 0.000068,1,-0.390542, 0.179186, 9.797232,1,1
1778257561687,  2497.803,  2497.798, 0.039693,-0.017543,-0.995217, 0.000396,-0.000176,-0.009953,-0.001204, 0.008867, 0.037455,1, 0.007488,-0.000720, 0.000541,1,-0.390436, 0.181140, 9.797200,1,1
1778257561712,  2497.823,  2497.823, 0.039528,-0.018208,-0.995012, 0.000398,-0.000181,-0.009948,-0.002819, 0.003874, 0.039440,1, 0.007140,-0.000358, 0.000229,1,-0.390445, 0.182654, 9.797172,1,1
1778257561734,  2497.848,  2497.843, 0.040250,-0.017376,-0.995253, 0.000403,-0.000175,-0.009952,-0.001954, 0.008935, 0.038744,1, 0.007824,-0.001162, 0.000070,1,-0.390349, 0.184201, 9.797147,1,1
1778257561757,  2497.873,  2497.868, 0.040051,-0.018302,-0.996090, 0.000399,-0.000182,-0.009959, 0.002597, 0.006893, 0.028805,1, 0.009014,-0.000910, 0.000221,1,-0.390143, 0.186655, 9.797109,1,1
1778257561782,  2497.893,  2497.893, 0.039481,-0.018547,-0.994842, 0.000395,-0.000185,-0.009950,-0.002810, 0.006264, 0.041022,1, 0.008931,-0.001274, 0.000273,1,-0.389950, 0.188424, 9.797082,1,1
1778257561804,  2497.918,  2497.913, 0.039559,-0.018370,-0.994968, 0.000396,-0.000184,-0.009949,-0.002487, 0.014282, 0.042206,1, 0.009211, 0.000147,-0.000099,1,-0.389897, 0.189891, 9.797056,1,1
1778257561827,  2497.943,  2497.938, 0.039073,-0.018734,-0.995608, 0.000391,-0.000187,-0.009955,-0.006560, 0.008781, 0.033433,1, 0.009498,-0.000040,-0.000061,1,-0.389733, 0.192794, 9.797006,1,1
1778257561853,  2497.963,  2497.963, 0.039737,-0.019843,-0.994772, 0.000397,-0.000197,-0.009948,-0.000099,-0.000132, 0.041589,1, 0.009514,-0.000103, 0.000768,1,-0.389778, 0.194754, 9.796966,1,1
1778257561874,  2497.988,  2497.983, 0.039949,-0.019557,-0.995325, 0.000401,-0.000194,-0.009950,-0.001577, 0.006292, 0.039606,1, 0.009741,-0.000297, 0.000550,1,-0.389581, 0.196653, 9.796935,1,1
1778257561897,  2498.013,  2498.008, 0.040155,-0.019938,-0.995236, 0.000404,-0.000197,-0.009952, 0.004377, 0.003912, 0.036950,1, 0.010150,-0.000507, 0.000070,1,-0.389397, 0.199756, 9.796880,1,1
1778257561923,  2498.033,  2498.033, 0.040120,-0.020234,-0.994896, 0.000401,-0.000202,-0.009949, 0.004147, 0.003003, 0.040254,1, 0.009585,-0.001226, 0.000748,1,-0.389257, 0.201728, 9.796844,1,1
1778257561944,  2498.058,  2498.053, 0.040434,-0.021779,-0.995149, 0.000406,-0.000216,-0.009950, 0.008456,-0.012120, 0.035248,1, 0.008987,-0.000655,-0.000045,1,-0.389065, 0.203497, 9.796816,1,1
1778257561967,  2498.083,  2498.078, 0.039699,-0.021122,-0.994737, 0.000399,-0.000212,-0.009949, 0.000398,-0.001423, 0.041734,1, 0.008569,-0.000979, 0.000528,1,-0.388883, 0.205979, 9.796771,1,1
1778257561993,  2498.103,  2498.103, 0.039879,-0.021571,-0.995093, 0.000399,-0.000212,-0.009949, 0.002190,-0.004409, 0.038216,1, 0.007029,-0.001009, 0.000333,1,-0.388866, 0.207344, 9.796743,1,1
1778257562014,  2498.128,  2498.123, 0.040238,-0.020772,-0.995356, 0.000402,-0.000207,-0.009951, 0.006905, 0.004247, 0.037867,1, 0.006769, 0.000131, 0.000417,1,-0.388802, 0.208653, 9.796718,1,1
1778257562041,  2498.153,  2498.153, 0.039234,-0.020943,-0.994576, 0.000394,-0.000212,-0.009943,-0.003956, 0.004754, 0.043232,1, 0.004634, 0.000237, 0.000829,1,-0.388715, 0.210280, 9.796686,1,1
1778257562063,  2498.173,  2498.173, 0.039586,-0.021731,-0.995657, 0.000394,-0.000216,-0.009954,-0.000385,-0.001837, 0.032607,1, 0.006078, 0.000241, 0.000254,1,-0.388596, 0.211457, 9.796666,1,1
1778257562084,  2498.198,  2498.193, 0.038904,-0.022155,-0.995643, 0.000387,-0.000219,-0.009957,-0.005849, 0.004244, 0.034325,1, 0.006118,-0.000656, 0.000181,1,-0.388541, 0.212729, 9.796640,1,1
1778257562111,  2498.223,  2498.223, 0.038345,-0.021214,-0.994494, 0.000381,-0.000210,-0.009946,-0.012384, 0.006553, 0.043944,1, 0.006453, 0.000117, 0.000520,1,-0.388425, 0.214798, 9.796600,1,1
1778257562133,  2498.248,  2498.243, 0.038116,-0.021747,-0.995300, 0.000381,-0.000218,-0.009953,-0.019179, 0.008950, 0.037137,1, 0.005613, 0.000099,-0.000365,1,-0.388417, 0.216007, 9.796574,1,1
1778257562154,  2498.268,  2498.263, 0.037861,-0.021802,-0.996114, 0.000380,-0.000218,-0.009964,-0.010735, 0.004725, 0.025990,1, 0.006332,-0.000047, 0.000126,1,-0.388355, 0.217266, 9.796549,1,1
1778257562181,  2498.293,  2498.293, 0.039228,-0.020447,-0.994200, 0.000392,-0.000206,-0.009943,-0.003627, 0.018522, 0.046735,1, 0.006347,-0.000254, 0.000415,1,-0.388310, 0.219240, 9.796506,1,1
1778257562203,  2498.318,  2498.313, 0.040070,-0.021402,-0.994887, 0.000400,-0.000211,-0.009949, 0.001462, 0.021046, 0.034584,1, 0.008624,-0.000676, 0.000402,1,-0.388056, 0.220731, 9.796483,1,1
1778257562225,  2498.338,  2498.333, 0.040394,-0.022385,-0.995789, 0.000404,-0.000225,-0.009960, 0.013312, 0.005791, 0.040272,1, 0.008926,-0.000364, 0.000033,1,-0.387991, 0.222419, 9.796447,1,1
1778257562252,  2498.363,  2498.363, 0.039211,-0.021166,-0.995153, 0.000392,-0.000213,-0.009954,-0.003376, 0.017713, 0.037267,1, 0.011473,-0.000983,-0.000469,1,-0.387872, 0.225634, 9.796378,1,1
1778257562273,  2498.388,  2498.383, 0.039748,-0.023443,-0.995652, 0.000395,-0.000233,-0.009957,-0.004545, 0.000854, 0.036071,1, 0.011254, 0.000099, 0.000075,1,-0.387825, 0.227838, 9.796329,1,1
1778257562295,  2498.408,  2498.403, 0.040269,-0.023146,-0.995519, 0.000404,-0.000230,-0.009954, 0.003466, 0.004309, 0.031607,1, 0.010160,-0.001673,-0.000065,1,-0.387534, 0.229928, 9.796292,1,1
1778257562322,  2498.433,  2498.433, 0.040956,-0.024783,-0.995085, 0.000409,-0.000247,-0.009950, 0.014345,-0.010512, 0.037792,1, 0.008575,-0.000838, 0.000357,1,-0.387274, 0.232792, 9.796234,1,1
1778257562343,  2498.458,  2498.453, 0.041514,-0.024939,-0.995548, 0.000415,-0.000249,-0.009955, 0.020329,-0.012468, 0.038523,1, 0.006693,-0.000846, 0.000870,1,-0.387100, 0.234261, 9.796206,1,1
1778257562365,  2498.478,  2498.473, 0.041763,-0.025022,-0.994739, 0.000420,-0.000249,-0.009949, 0.024300,-0.010110, 0.031239,1, 0.004613,-0.000449, 0.001382,1,-0.387053, 0.235264, 9.796185,1,1
1778257562392,  2498.503,  2498.503, 0.041083,-0.025359,-0.994336, 0.000410,-0.000254,-0.009945, 0.015516,-0.013055, 0.045058,1, 0.000029, 0.000337, 0.002281,1,-0.387410, 0.235629, 9.796162,1,1
1778257562413,  2498.528,  2498.523, 0.039605,-0.024308,-0.995369, 0.000394,-0.000245,-0.009952, 0.002396,-0.008813, 0.035211,1,-0.001821,-0.000614, 0.001159,1,-0.387318, 0.235432, 9.796169,1,1
1778257562435,  2498.548,  2498.543, 0.039902,-0.024776,-0.995702, 0.000398,-0.000248,-0.009958,-0.003862,-0.009824, 0.028256,1,-0.001523,-0.000502, 0.001883,1,-0.387278, 0.235024, 9.796181,1,1
1778257562462,  2498.573,  2498.573, 0.039102,-0.022966,-0.994566, 0.000392,-0.000227,-0.009945,-0.003657, 0.009224, 0.042844,1,-0.002598,-0.000317, 0.001654,1,-0.387108, 0.234359, 9.796204,1,1
1778257562483,  2498.598,  2498.593, 0.038432,-0.024207,-0.995658, 0.000386,-0.000240,-0.009957,-0.008242, 0.003118, 0.041801,1,-0.001275,-0.000052, 0.001116,1,-0.387078, 0.233982, 9.796214,1,1
1778257562505,  2498.618,  2498.613, 0.037573,-0.023769,-0.995303, 0.000375,-0.000236,-0.009952,-0.013007, 0.001104, 0.032708,1,-0.001177,-0.000340, 0.000560,1,-0.387097, 0.233834, 9.796217,1,1
1778257562532,  2498.643,  2498.643, 0.036648,-0.023532,-0.994973, 0.000367,-0.000233,-0.009953,-0.027648, 0.003341, 0.038863,1, 0.001562, 0.000373,-0.000380,1,-0.387052, 0.234155, 9.796211,1,1
1778257562553,  2498.668,  2498.663, 0.037459,-0.022449,-0.995249, 0.000375,-0.000223,-0.009954,-0.021461, 0.015301, 0.035369,1, 0.003744,-0.000191,-0.000747,1,-0.386916, 0.234632, 9.796205,1,1
1778257562576,  2498.688,  2498.688, 0.037611,-0.023586,-0.994836, 0.000377,-0.000234,-0.009947,-0.017927, 0.004020, 0.040190,1, 0.002063,-0.000836, 0.000448,1,-0.386735, 0.235384, 9.796194,1,1
1778257562602,  2498.713,  2498.713, 0.038565,-0.023480,-0.994963, 0.000384,-0.000235,-0.009950,-0.008314, 0.005597, 0.038933,1, 0.002893,-0.000162, 0.000493,1,-0.386500, 0.235950, 9.796189,1,1
1778257562624,  2498.738,  2498.733, 0.039116,-0.023331,-0.995440, 0.000392,-0.000233,-0.009953,-0.000903, 0.007293, 0.029654,1, 0.003000, 0.000218, 0.000400,1,-0.386623, 0.236485, 9.796172,1,1
1778257562646,  2498.758,  2498.758, 0.040677,-0.024152,-0.994227, 0.000405,-0.000240,-0.009945, 0.012274, 0.000548, 0.046116,1, 0.003452,-0.000360, 0.000214,1,-0.386622, 0.237510, 9.796147,1,1
1778257562672,  2498.783,  2498.783, 0.040160,-0.024553,-0.994750, 0.000400,-0.000243,-0.009951, 0.007242,-0.002759, 0.040970,1, 0.002421,-0.000708,-0.000254,1,-0.386574, 0.238095, 9.796135,1,1
1778257562694,  2498.808,  2498.803, 0.039913,-0.025452,-0.994800, 0.000400,-0.000255,-0.009949, 0.009523,-0.011216, 0.037109,1, 0.002614,-0.000424,-0.000583,1,-0.386542, 0.238676, 9.796122,1,1
1778257562716,  2498.828,  2498.828, 0.040544,-0.025779,-0.995019, 0.000405,-0.000258,-0.009949, 0.011165,-0.013869, 0.038316,1,-0.000271, 0.000017, 0.000266,1,-0.386437, 0.238929, 9.796120,1,1
1778257562742,  2498.853,  2498.853, 0.041256,-0.025124,-0.994901, 0.000412,-0.000252,-0.009952, 0.018205,-0.007532, 0.039477,1,-0.000751,-0.000067, 0.000802,1,-0.386375, 0.238825, 9.796124,1,1
1778257562764,  2498.878,  2498.873, 0.041649,-0.023858,-0.994717, 0.000417,-0.000237,-0.009944, 0.023054, 0.006396, 0.039570,1,-0.003678, 0.000137, 0.000703,1,-0.386297, 0.238319, 9.796141,1,1
1778257562786,  2498.898,  2498.898, 0.040729,-0.024296,-0.994566, 0.000408,-0.000244,-0.009947, 0.012898,-0.000892, 0.042796,1,-0.004327, 0.000043, 0.000535,1,-0.386548, 0.237245, 9.796156,1,1
1778257562812,  2498.923,  2498.923, 0.039702,-0.024441,-0.994740, 0.000399,-0.000247,-0.009949, 0.002749,-0.003225, 0.041108,1,-0.004716, 0.000153, 0.000978,1,-0.386603, 0.236316, 9.796177,1,1
1778257562834,  2498.948,  2498.943, 0.038998,-0.025076,-0.995106, 0.000392,-0.000253,-0.009951,-0.005882,-0.014062, 0.039964,1,-0.005531, 0.000507, 0.000837,1,-0.386680, 0.235184, 9.796201,1,1
1778257562857,  2498.968,  2498.968, 0.038469,-0.024147,-0.995477, 0.000383,-0.000244,-0.009955,-0.009484,-0.003266, 0.033943,1,-0.006354, 0.000043, 0.000345,1,-0.386732, 0.233340, 9.796243,1,1
1778257562882,  2498.993,  2498.993, 0.038885,-0.023212,-0.995020, 0.000387,-0.000233,-0.009949,-0.005418, 0.004571, 0.038451,1,-0.006451,-0.000144, 0.000476,1,-0.386749, 0.232003, 9.796274,1,1
1778257562904,  2499.018,  2499.013, 0.037929,-0.023092,-0.995199, 0.000381,-0.000229,-0.009952,-0.007714, 0.001712, 0.037548,1,-0.007295, 0.000479, 0.000420,1,-0.386879, 0.230666, 9.796301,1,1
1778257562927,  2499.043,  2499.038, 0.037970,-0.023616,-0.995007, 0.000381,-0.000237,-0.009950,-0.014738,-0.003044, 0.038659,1,-0.008165, 0.000980,-0.000024,1,-0.387124, 0.228296, 9.796347,1,1
1778257562952,  2499.063,  2499.063, 0.038495,-0.023875,-0.995407, 0.000384,-0.000240,-0.009954,-0.009632,-0.007278, 0.034770,1,-0.009139, 0.000335, 0.000206,1,-0.387152, 0.226570, 9.796385,1,1
1778257562974,  2499.088,  2499.083, 0.039606,-0.022711,-0.994287, 0.000394,-0.000228,-0.009946,-0.009091,-0.000132, 0.038640,1,-0.008020, 0.000677,-0.000264,1,-0.387339, 0.224930, 9.796415,1,1
1778257562997,  2499.113,  2499.108, 0.039525,-0.021750,-0.995174, 0.000396,-0.000218,-0.009951, 0.000174, 0.009555, 0.037135,1,-0.008655, 0.000432,-0.000273,1,-0.387450, 0.222578, 9.796465,1,1
1778257563022,  2499.133,  2499.133, 0.039536,-0.022299,-0.995080, 0.000395,-0.000222,-0.009950, 0.000219, 0.002538, 0.038088,1,-0.007815, 0.000265,-0.000339,1,-0.387501, 0.220975, 9.796499,1,0
1778257563044,  2499.158,  2499.153, 0.040048,-0.022760,-0.994891, 0.000398,-0.000229,-0.009949, 0.004748,-0.000979, 0.042622,1,-0.009084, 0.000406,-0.000043,1,-0.387570, 0.219239, 9.796535,1,0
1778257563067,  2499.183,  2499.178, 0.039799,-0.023361,-0.994710, 0.000398,-0.000236,-0.009950, 0.002540,-0.012256, 0.041812,1,-0.009303, 0.000038,-0.000383,1,-0.387760, 0.216544, 9.796588,1,0
1778257563093,  2499.203,  2499.203, 0.039849,-0.022737,-0.994677, 0.000399,-0.000227,-0.009946, 0.002919,-0.008128, 0.042175,1,-0.011755, 0.001109,-0.000927,1,-0.387901, 0.214473, 9.796628,1,0
1778257563114,  2499.228,  2499.223, 0.040691,-0.021488,-0.994975, 0.000406,-0.000215,-0.009953, 0.004498,-0.005043, 0.029369,1,-0.012606, 0.001045,-0.000685,1,-0.388032, 0.212087, 9.796675,1,0
1778257563137,  2499.253,  2499.248, 0.040653,-0.021891,-0.994471, 0.000407,-0.000216,-0.009947, 0.010501,-0.006264, 0.044318,1,-0.015108,-0.000097, 0.000329,1,-0.388166, 0.207943, 9.796759,1,0
1778257563163,  2499.273,  2499.273, 0.041558,-0.020567,-0.994856, 0.000415,-0.000208,-0.009947, 0.019230, 0.003693, 0.040596,1,-0.015761, 0.001548,-0.000091,1,-0.388368, 0.204890, 9.796815,1,0
1778257563184,  2499.298,  2499.293, 0.040283,-0.020770,-0.995387, 0.000401,-0.000207,-0.009951, 0.010335, 0.000220, 0.033555,1,-0.015572, 0.001201,-0.000784,1,-0.388592, 0.201896, 9.796867,1,0
1778257563207,  2499.323,  2499.318, 0.039092,-0.020274,-0.994216, 0.000393,-0.000204,-0.009941,-0.005798,-0.000752, 0.046998,1,-0.015671, 0.000982,-0.001344,1,-0.389189, 0.197574, 9.796932,1,0
1778257563233,  2499.343,  2499.343, 0.039066,-0.019539,-0.995110, 0.000390,-0.000196,-0.009951,-0.006261, 0.003472, 0.038283,1,-0.015113, 0.001376,-0.000957,1,-0.389413, 0.194609, 9.796983,1,0
1778257563254,  2499.368,  2499.363, 0.038664,-0.018379,-0.994754, 0.000387,-0.000186,-0.009947,-0.006357, 0.005168, 0.031881,1,-0.015158, 0.000120,-0.000544,1,-0.389551, 0.191619, 9.797036,1,0
1778257563281,  2499.393,  2499.393, 0.039103,-0.018415,-0.994773, 0.000390,-0.000186,-0.009948,-0.006367, 0.007012, 0.041713,1,-0.014496, 0.001421,-0.000375,1,-0.389880, 0.187146, 9.797110,1,0
1778257563303,  2499.413,  2499.413, 0.039452,-0.017001,-0.994571, 0.000392,-0.000171,-0.009947,-0.003116, 0.017977, 0.043736,1,-0.015030, 0.001069,-0.000319,1,-0.390041, 0.184231, 9.797158,1,0
1778257563324,  2499.438,  2499.433, 0.039302,-0.016918,-0.994579, 0.000395,-0.000169,-0.009946,-0.002689, 0.025257, 0.045265,1,-0.013008, 0.000631, 0.000467,1,-0.390213, 0.181602, 9.797200,1,0
1778257563351,  2499.463,  2499.463, 0.038696,-0.017211,-0.995101, 0.000389,-0.000173,-0.009950,-0.010878, 0.009763, 0.038645,1,-0.010356, 0.000676,-0.000252,1,-0.390380, 0.178227, 9.797256,1,0
1778257563373,  2499.488,  2499.483, 0.038627,-0.016982,-0.995500, 0.000389,-0.000169,-0.009956,-0.011222, 0.017689, 0.035231,1,-0.008312, 0.000568,-0.001389,1,-0.390491, 0.176447, 9.797284,1,0
1778257563394,  2499.508,  2499.503, 0.039200,-0.016992,-0.995709, 0.000390,-0.000171,-0.009958,-0.014692, 0.010679, 0.036772,1,-0.007803, 0.001174,-0.000748,1,-0.390484, 0.174570, 9.797318,1,0
1778257563421,  2499.533,  2499.533, 0.039301,-0.017190,-0.995452, 0.000392,-0.000172,-0.009954,-0.005186, 0.004226, 0.035293,1,-0.005949, 0.000656,-0.000771,1,-0.390617, 0.172611, 9.797347,1,0
1778257563443,  2499.558,  2499.553, 0.040976,-0.015838,-0.994885, 0.000407,-0.000158,-0.009948, 0.001557, 0.014920, 0.040369,1,-0.004577, 0.000755,-0.000805,1,-0.390768, 0.171616, 9.797359,1,0
1778257563465,  2499.578,  2499.573, 0.041103,-0.016080,-0.995271, 0.000409,-0.000160,-0.009953, 0.006762, 0.019782, 0.035341,1,-0.004084,-0.000089,-0.000676,1,-0.390847, 0.170776, 9.797370,1,0
1778257563492,  2499.603,  2499.603, 0.041319,-0.018095,-0.994685, 0.000412,-0.000179,-0.009949, 0.014188,-0.008041, 0.042857,1,-0.006194, 0.000860,-0.000333,1,-0.391041, 0.169216, 9.797389,1,0
1778257563513,  2499.628,  2499.623, 0.043110,-0.018415,-0.995472, 0.000429,-0.000186,-0.009955, 0.023122,-0.015877, 0.033445,1,-0.008242, 0.000943,-0.000121,1,-0.391164, 0.167865, 9.797408,1,0
1778257563535,  2499.648,  2499.643, 0.043615,-0.018030,-0.994971, 0.000434,-0.000179,-0.009948, 0.035603,-0.010773, 0.033976,1,-0.010741, 0.000234,-0.000119,1,-0.391156, 0.165939, 9.797441,1,0
1778257563562,  2499.673,  2499.673, 0.044540,-0.018648,-0.994496, 0.000445,-0.000190,-0.009947, 0.045606,-0.020547, 0.044823,1,-0.016021,-0.000431, 0.001223,1,-0.391171, 0.161834, 9.797509,1,0
1778257563583,  2499.698,  2499.693, 0.044812,-0.015790,-0.994624, 0.000446,-0.000160,-0.009943, 0.046643,-0.008172, 0.039310,1,-0.020038,-0.000006, 0.002427,1,-0.391185, 0.158220, 9.797567,1,0
1778257563605,  2499.718,  2499.713, 0.046143,-0.015087,-0.994067, 0.000458,-0.000152,-0.009940, 0.048669,-0.000796, 0.053386,1,-0.024915, 0.000553, 0.003643,1,-0.391750, 0.153839, 9.797614,1,0
1778257563632,  2499.743,  2499.743, 0.049348,-0.016017,-0.994373, 0.000493,-0.000162,-0.009946, 0.092125,-0.011092, 0.046263,1,-0.034096, 0.000278, 0.006720,1,-0.391815, 0.144929, 9.797748,1,0
1778257563653,  2499.768,  2499.763, 0.053248,-0.013246,-0.994606, 0.000531,-0.000138,-0.009943, 0.122789,-0.006977, 0.037031,1,-0.042990, 0.001162, 0.009073,1,-0.391967, 0.137189, 9.797853,1,0
1778257563675,  2499.788,  2499.783, 0.055615,-0.009432,-0.993225, 0.000553,-0.000099,-0.009924, 0.141465, 0.009847, 0.060687,1,-0.051365, 0.002183, 0.011952,1,-0.392267, 0.127722, 9.797969,1,0
1778257563702,  2499.813,  2499.813, 0.058968,-0.006991,-0.998187, 0.000586,-0.000070,-0.009981, 0.185687, 0.044008, 0.009271,1,-0.061409, 0.002644, 0.018247,1,-0.392668, 0.110676, 9.798161,1,0
1778257563723,  2499.838,  2499.833, 0.059915,-0.007203,-0.991597, 0.000602,-0.000072,-0.009921, 0.206287, 0.022845, 0.031761,1,-0.063351, 0.003601, 0.018918,1,-0.393189, 0.098466, 9.798270,1,0
1778257563745,  2499.858,  2499.853, 0.057195,-0.011022,-0.991600, 0.000574,-0.000108,-0.009912, 0.178340, 0.003767, 0.102237,1,-0.062909, 0.003056, 0.020073,1,-0.393788, 0.086279, 9.798361,1,0
1778257563772,  2499.883,  2499.883, 0.055093,-0.016464,-0.998521, 0.000551,-0.000167,-0.009982, 0.145669,-0.090340, 0.006302,1,-0.052068, 0.002996, 0.014458,1,-0.394701, 0.069512, 9.798457,1,0
1778257563793,  2499.908,  2499.903, 0.060359,-0.006590,-0.994011, 0.000598,-0.000068,-0.009936, 0.174368,-0.022705, 0.035404,1,-0.042500,-0.000482, 0.009243,1,-0.395514, 0.060657, 9.798483,1,0
1778257563816,  2499.928,  2499.923, 0.063279,-0.014178,-0.994096, 0.000633,-0.000130,-0.009933, 0.214350,-0.028830, 0.051158,1,-0.035837,-0.000188, 0.007254,1,-0.395210, 0.053348, 9.798538,1,0
1778257563842,  2499.953,  2499.953, 0.061542,-0.017198,-0.995894, 0.000617,-0.000181,-0.009969, 0.208200,-0.123131, 0.032186,1,-0.026047, 0.002140,-0.001526,1,-0.395391, 0.044709, 9.798573,1,0
1778257563864,  2499.978,  2499.973, 0.054052,-0.010690,-0.995258, 0.000544,-0.000109,-0.009953, 0.155550,-0.074331, 0.043743,1,-0.022969, 0.002867,-0.004748,1,-0.395975, 0.040139, 9.798570,1,0
1778257563886,  2499.998,  2499.998, 0.053692,-0.009740,-0.996161, 0.000534,-0.000101,-0.009961, 0.130244,-0.061865, 0.029575,1,-0.027944,-0.000190,-0.008102,1,-0.396286, 0.032770, 9.798585,1,0
1778257563912,  2500.023,  2500.023, 0.057557,-0.000564,-0.994433, 0.000576,-0.000014,-0.009945, 0.168290, 0.021533, 0.046548,1,-0.040507,-0.000220,-0.004536,1,-0.396145, 0.025797, 9.798612,1,0
1778257563934,  2500.048,  2500.043, 0.059954,-0.002436,-0.994859, 0.000601,-0.000020,-0.009941, 0.192076, 0.015037, 0.052334,1,-0.058262, 0.002422, 0.003429,1,-0.396447, 0.015645, 9.798621,1,0
1778257563956,  2500.068,  2500.068, 0.056619,-0.001906,-0.996783, 0.000568,-0.000017,-0.009961, 0.157589,-0.022608, 0.023480,1,-0.087503, 0.006939, 0.011953,1,-0.397874,-0.006633, 9.798573,1,0
1778257563982,  2500.093,  2500.093, 0.056179,-0.004222,-0.994741, 0.000564,-0.000050,-0.009952, 0.151955,-0.064396, 0.043424,1,-0.107484, 0.007000, 0.017066,1,-0.399188,-0.026319, 9.798487,1,0
1778257564004,  2500.118,  2500.113, 0.058792,-0.006666,-0.994288, 0.000587,-0.000076,-0.009942, 0.159974,-0.117881, 0.036708,1,-0.127059, 0.006393, 0.020915,1,-0.400857,-0.048601, 9.798333,1,0
1778257564026,  2500.138,  2500.138, 0.060913,-0.002277,-0.992823, 0.000607,-0.000031,-0.009930, 0.194598,-0.108663, 0.061723,1,-0.158403, 0.007402, 0.023689,1,-0.402993,-0.091243, 9.797941,1,0
1778257564052,  2500.163,  2500.163, 0.060758,-0.003848,-0.994995, 0.000606,-0.000041,-0.009942, 0.191316,-0.156947, 0.040003,1,-0.177339, 0.009828, 0.026034,1,-0.404836,-0.124709, 9.797497,1,0
1778257564074,  2500.188,  2500.183, 0.049123,-0.003709,-1.016250, 0.000483, 0.000047,-0.010006, 0.236284,-0.290345,-0.177762,1,-0.188078, 0.011349, 0.022066,1,-0.406890,-0.160524, 9.796890,1,0
1778257564097,  2500.208,  2500.208, 0.056528, 0.007256,-0.972553, 0.000553, 0.000057,-0.009797, 0.144279,-0.137794, 0.258352,1,-0.174643, 0.005028, 0.014807,1,-0.410236,-0.214381, 9.795720,1,0
1778257564122,  2500.233,  2500.233, 0.103558, 0.030185,-1.018156, 0.000990, 0.000246,-0.010136, 0.606685, 0.059813,-0.189424,1,-0.105910,-0.017729,-0.010269,1,-0.408309,-0.239516, 9.795218,1,0
1778257564144,  2500.258,  2500.253, 0.123901, 0.037257,-0.980099, 0.001261, 0.000418,-0.009903, 0.854175, 0.364654,-0.193268,1,-0.076395,-0.010440,-0.018014,1,-0.405011,-0.257300, 9.794904,1,0
1778257564167,  2500.283,  2500.278, 0.111028,-0.000809,-0.923432, 0.001106, 0.000009,-0.009168, 0.681137,-0.282506, 0.738554,1,-0.057975, 0.014866,-0.012914,1,-0.408127,-0.276392, 9.794254,1,0
1778257564192,  2500.303,  2500.303, 0.098782, 0.047511,-1.011029, 0.000974, 0.000456,-0.010039, 0.558373, 0.183927,-0.120803,1,-0.040219, 0.012950,-0.019377,1,-0.410751,-0.283129, 9.793953,1,0
1778257564214,  2500.328,  2500.323, 0.099938, 0.043007,-1.024351, 0.001008, 0.000449,-0.010285, 0.606568, 0.345410,-0.563202,1,-0.037780, 0.005719,-0.012369,1,-0.412416,-0.290497, 9.793667,1,0
1778257564237,  2500.353,  2500.348, 0.096092, 0.043835,-0.955028, 0.000949, 0.000410,-0.009579, 0.530505, 0.132139, 0.427846,1,-0.024713,-0.003065,-0.006762,1,-0.411735,-0.298511, 9.793454,1,0
1778257564263,  2500.373,  2500.373, 0.113793, 0.036718,-0.981984, 0.001127, 0.000406,-0.009746, 0.704585, 0.056399, 0.163339,1,-0.040273,-0.001672, 0.008635,1,-0.411300,-0.304926, 9.793275,1,0
1778257564284,  2500.398,  2500.393, 0.145222, 0.026190,-1.027363, 0.001444, 0.000221,-0.010329, 0.924411,-0.187208,-0.336196,1,-0.033417,-0.006376, 0.003227,1,-0.410143,-0.311871, 9.793105,1,0
1778257564307,  2500.423,  2500.418, 0.153655, 0.044824,-0.960971, 0.001532, 0.000451,-0.009644, 1.098147, 0.122227, 0.369081,1,-0.013079,-0.001803, 0.000798,1,-0.408641,-0.317751, 9.792978,1,0
1778257564333,  2500.443,  2500.443, 0.146142, 0.028631,-0.961795, 0.001466, 0.000295,-0.009570, 1.023678,-0.038482, 0.360910,1,-0.008780, 0.010219, 0.002591,1,-0.409804,-0.319523, 9.792872,1,0
1778257564354,  2500.468,  2500.463, 0.123185, 0.028400,-1.031744, 0.001229, 0.000282,-0.010314, 0.961141,-0.103364, 0.099479,1,-0.006775, 0.015372, 0.001338,1,-0.411220,-0.320227, 9.792790,1,0
1778257564377,  2500.493,  2500.488, 0.116244, 0.032667,-1.010682, 0.001147, 0.000323,-0.010105, 0.721992,-0.004462,-0.119049,1,-0.016784, 0.018312, 0.004424,1,-0.418550,-0.325334, 9.792311,1,0
1778257564403,  2500.513,  2500.513, 0.121802, 0.026522,-0.977166, 0.001211, 0.000269,-0.009802, 0.773321,-0.070011, 0.209312,1,-0.025332, 0.014468, 0.002918,1,-0.421602,-0.330891, 9.791994,1,0
1778257564424,  2500.538,  2500.533, 0.156537, 0.015465,-1.000999, 0.001551, 0.000150,-0.009931, 0.979609,-0.191881, 0.125644,1,-0.031443, 0.018684, 0.001132,1,-0.425034,-0.336583, 9.791652,1,0
1778257564447,  2500.563,  2500.558, 0.147961, 0.031279,-1.027871, 0.001501, 0.000285,-0.010326, 1.021608,-0.039017,-0.288836,1,-0.032795, 0.008306, 0.006165,1,-0.429664,-0.346771, 9.791094,1,0
1778257564473,  2500.583,  2500.583, 0.140784, 0.025396,-0.932689, 0.001386, 0.000279,-0.009403, 0.949249,-0.102108, 0.644309,1,-0.023535, 0.012407, 0.003639,1,-0.431760,-0.351887, 9.790819,1,0
1778257564494,  2500.608,  2500.603, 0.156540, 0.040284,-1.042303, 0.001771, 0.000414,-0.009943, 1.134530,-0.209382, 0.266785,1,-0.050882, 0.000770,-0.001522,1,-0.432965,-0.359896, 9.790475,1,0
1778257564521,  2500.633,  2500.633, 0.383373, 0.341262,-0.557400, 0.003724, 0.002751,-0.006324, 3.319880, 2.978907, 4.323656,1, 0.053618, 0.098825,-0.103022,1,-0.442684,-0.366208, 9.789806,1,0
1778257564543,  2500.653,  2500.653, 0.166077,-0.154353,-1.238500, 0.002235,-0.001524,-0.012907, 1.166528,-1.884376,-2.356794,1,-0.010617, 0.056496,-0.067297,1,-0.463812,-0.371116, 9.788643,1,0
1778257564564,  2500.678,  2500.673,-0.030244, 0.034391,-0.933389,-0.000344, 0.000169,-0.009760,-1.454786,-1.983923,-3.657747,1, 0.023083, 0.003491, 0.126723,1,-0.462395,-0.371754, 9.788686,1,0
1778257564591,  2500.703,  2500.703, 0.172304, 0.264358,-0.574638, 0.001685, 0.002668,-0.005587, 1.232033, 2.223867, 4.153748,1,-0.002132,-0.086775,-0.030720,1,-0.454963,-0.368665, 9.789151,1,0
1778257564613,  2500.728,  2500.723, 0.375728,-0.120346,-0.980536, 0.003667,-0.001061,-0.009806, 2.379950, 0.142319, 0.814953,1,-0.049018,-0.043417,-0.055088,1,-0.439874,-0.376949, 9.789525,1,0
1778257564634,  2500.748,  2500.743, 0.316319,-0.094174,-1.006736, 0.003271,-0.001101,-0.009925, 3.245953,-1.928101, 0.310534,1,-0.037237,-0.047908,-0.000547,1,-0.433669,-0.389770, 9.789300,1,0
1778257564661,  2500.773,  2500.773, 0.230641, 0.114039,-0.941806, 0.002372, 0.001150,-0.009483, 1.845730, 0.722983, 0.553875,1,-0.003358,-0.079572,-0.006922,1,-0.413597,-0.395466, 9.789940,1,0
1778257564683,  2500.798,  2500.793, 0.091293, 0.031798,-1.403768, 0.001020, 0.000379,-0.014784, 0.621256, 0.337943,-4.768723,1,-0.057654,-0.085632, 0.010092,1,-0.393887,-0.400400, 9.790552,1,0
1778257564705,  2500.818,  2500.813, 0.184782, 0.037652,-0.881589, 0.001993, 0.000239,-0.009092, 0.991375,-0.768199,-1.838579,1,-0.001972,-0.012058,-0.002911,1,-0.387846,-0.401628, 9.790743,1,0
1778257564732,  2500.843,  2500.843, 0.128459, 0.061091,-0.703136, 0.001415, 0.000676,-0.006884, 0.881303, 0.201656, 2.895869,1, 0.016767,-0.040381,-0.007377,1,-0.377185,-0.396927, 9.791351,1,0
1778257564753,  2500.868,  2500.863, 0.166525,-0.024016,-1.140170, 0.001660,-0.000282,-0.011286, 0.879992,-0.490003,-0.278595,1,-0.016053, 0.061553, 0.012302,1,-0.382790,-0.399362, 9.791035,1,0
1778257564775,  2500.888,  2500.883, 0.087677, 0.108977,-1.144094, 0.001005, 0.000959,-0.011668, 1.027106,-0.111354,-1.770113,1, 0.015332, 0.038905,-0.018209,1,-0.393632,-0.397631, 9.790675,1,0
1778257564802,  2500.913,  2500.913, 0.045234, 0.082854,-0.875558, 0.000386, 0.000945,-0.008918, 0.045782, 0.422844, 1.204535,1, 0.045162, 0.023287,-0.008060,1,-0.398531,-0.388289, 9.790853,1,0
1778257564823,  2500.938,  2500.933, 0.169806, 0.019901,-0.772699, 0.001701, 0.000174,-0.007493, 0.869214,-0.499017, 3.415553,1, 0.027166, 0.007541,-0.010090,1,-0.400716,-0.383050, 9.790970,1,0
1778257564845,  2500.958,  2500.953, 0.040125,-0.000585,-1.354381, 0.000447, 0.000163,-0.012948, 1.283267,-0.083762,-0.820901,1, 0.008942, 0.014561,-0.045375,1,-0.403279,-0.380779, 9.790953,1,0
1778257564872,  2500.983,  2500.983,-0.048441, 0.067279,-1.169130,-0.000578, 0.000528,-0.012317,-0.871834, 0.281483,-1.673932,1, 0.015049,-0.045193, 0.004599,1,-0.395390,-0.377821, 9.791389,1,0
1778257564893,  2501.008,  2501.003, 0.085955,-0.000130,-0.785205, 0.000832,-0.000011,-0.007785, 0.152789,-0.257221, 1.402423,1, 0.048715,-0.077304, 0.009830,1,-0.383063,-0.370009, 9.792177,1,0
1778257564915,  2501.028,  2501.023, 0.214852, 0.073997,-0.885553, 0.002078, 0.000715,-0.008767, 1.233094, 0.023426, 1.827551,1, 0.057713,-0.042598,-0.042709,1,-0.371245,-0.360521, 9.792987,1,0
1778257564942,  2501.053,  2501.053, 0.222814, 0.051666,-1.078763, 0.002248, 0.000610,-0.010643, 1.819838, 0.158693,-0.785383,1, 0.050825,-0.012633,-0.048154,1,-0.364773,-0.346452, 9.793737,1,0
1778257564963,  2501.078,  2501.073, 0.174911,-0.054678,-0.956142, 0.001828,-0.000678,-0.009833, 1.614785,-0.896468,-0.724080,1, 0.086012, 0.011876,-0.036302,1,-0.365621,-0.332138, 9.794202,1,0
1778257564985,  2501.098,  2501.093, 0.183286, 0.061408,-0.900142, 0.001822, 0.000592,-0.008853, 1.507872,-0.364704, 1.020199,1, 0.117861, 0.014600,-0.053998,1,-0.368068,-0.309862, 9.794840,1,0
1778257565012,  2501.123,  2501.123, 0.160608, 0.023184,-1.072428, 0.001612, 0.000409,-0.010598, 1.204439,-0.059013,-0.721465,1, 0.062016, 0.030188,-0.028048,1,-0.371499,-0.284467, 9.795481,1,0
1778257565033,  2501.148,  2501.143, 0.115837, 0.012962,-0.908402, 0.001154,-0.000062,-0.009191, 1.005529,-0.951756,-0.252634,1, 0.073259, 0.022198,-0.071272,1,-0.377296,-0.270597, 9.795652,1,0
1778257565056,  2501.168,  2501.168, 0.096419, 0.060509,-1.038267, 0.001032, 0.000640,-0.010334, 0.563540, 0.331755,-0.386205,1, 0.011120, 0.021947,-0.029386,1,-0.382671,-0.261324, 9.795696,1,0
1778257565082,  2501.193,  2501.193, 0.070772,-0.058080,-1.115434, 0.000726,-0.000710,-0.011375, 0.302149,-0.829688,-1.143307,1, 0.015017, 0.059249,-0.070655,1,-0.393672,-0.259735, 9.795302,1,0
1778257565104,  2501.218,  2501.213, 0.035132, 0.089562,-0.979872, 0.000282, 0.000903,-0.009518,-0.516738, 0.310946, 0.899559,1,-0.008310, 0.024216,-0.070975,1,-0.398308,-0.257945, 9.795162,1,0
1778257565126,  2501.238,  2501.238, 0.054296,-0.100664,-1.049158, 0.000612,-0.001047,-0.010674, 0.126044,-1.262861,-0.494380,1,-0.080900, 0.032234,-0.019291,1,-0.407407,-0.278230, 9.794232,1,0
1778257565152,  2501.263,  2501.263, 0.116065, 0.024227,-0.978980, 0.001028, 0.000155,-0.009657, 0.728488,-0.056204, 0.193169,1,-0.115393, 0.016586,-0.036234,1,-0.410204,-0.297437, 9.793551,1,0
1778257565174,  2501.288,  2501.283, 0.222576, 0.002100,-1.059126, 0.002197, 0.000179,-0.010664, 1.447926, 0.820786, 0.326216,1,-0.182347, 0.024019, 0.036787,1,-0.413571,-0.329526, 9.792382,1,0
1778257565196,  2501.308,  2501.308, 0.256829, 0.001629,-0.968786, 0.002517,-0.000045,-0.009694, 2.095717,-0.363878, 0.289609,1,-0.194458, 0.038386, 0.010710,1,-0.424125,-0.385889, 9.789872,1,0
1778257565222,  2501.333,  2501.333, 0.289484, 0.115047,-0.968044, 0.002889, 0.001192,-0.009586, 2.409892, 0.706669, 0.294921,1,-0.244416, 0.021706, 0.045520,1,-0.429716,-0.429113, 9.787828,1,0
1778257565244,  2501.358,  2501.353, 0.292746,-0.020243,-1.028093, 0.002825,-0.000423,-0.010361, 2.433380,-0.979174,-0.968282,1,-0.219745, 0.022768, 0.038017,1,-0.433705,-0.473551, 9.785604,1,0
1778257565267,  2501.378,  2501.378, 0.359160, 0.091823,-1.022222, 0.003471, 0.001047,-0.010214, 3.079375, 0.379170,-0.241809,1,-0.163418, 0.040342, 0.030765,1,-0.444084,-0.526354, 9.782439,1,0
1778257565292,  2501.403,  2501.403, 0.373361,-0.061801,-0.927060, 0.003763,-0.000596,-0.009193, 3.208843,-1.151512, 0.689650,1,-0.086301, 0.056273,-0.016171,1,-0.454302,-0.548163, 9.780772,1,0
1778257565314,  2501.428,  2501.423, 0.277553,-0.067519,-1.029118, 0.002930,-0.000528,-0.010632, 2.763354,-0.827845,-0.778698,1,-0.028335, 0.058478,-0.055811,1,-0.464186,-0.558906, 9.779700,1,0
1778257565337,  2501.448,  2501.448, 0.151090, 0.002829,-0.968446, 0.001719, 0.000260,-0.009713, 1.001400,-0.520040, 0.282345,1, 0.110753, 0.048869,-0.121493,1,-0.481594,-0.544525, 9.779670,1,0
1778257565362,  2501.473,  2501.473, 0.030278,-0.118361,-0.974393, 0.000247,-0.000945,-0.009576,-0.188562,-1.679855, 0.225324,1, 0.210531, 0.028362,-0.177312,1,-0.486073,-0.512850, 9.781160,1,0
1778257565384,  2501.498,  2501.493,-0.068071,-0.038928,-1.003338,-0.000761,-0.000029,-0.009763,-0.900349,-0.516639, 0.816092,1, 0.250582,-0.021062,-0.237018,1,-0.481441,-0.469175, 9.783582,1,0
1778257565407,  2501.523,  2501.518,-0.087604,-0.055850,-0.962496,-0.000871,-0.000583,-0.009803,-1.335692,-0.950635, 0.347903,1, 0.259996,-0.022022,-0.286393,1,-0.475540,-0.395265, 9.787135,1,0
1778257565432,  2501.543,  2501.543, 0.028820,-0.095154,-0.953829, 0.000036,-0.000893,-0.009627,-0.190112,-1.285718, 0.435025,1, 0.260635, 0.016713,-0.294547,1,-0.472927,-0.344902, 9.789165,1,0
1778257565454,  2501.568,  2501.563, 0.333020,-0.094358,-0.814038, 0.003222,-0.000719,-0.008371, 2.308439,-0.436334, 1.418946,1, 0.250636, 0.098054,-0.334695,1,-0.485876,-0.294481, 9.790178,1,0
1778257565477,  2501.593,  2501.588, 0.183639,-0.165084,-1.055420, 0.002029,-0.001757,-0.010436, 1.276906,-1.849024,-0.560203,1, 0.202993, 0.130983,-0.337345,1,-0.527810,-0.224341, 9.789865,1,0
1778257565502,  2501.613,  2501.613,-0.184410,-0.099510,-1.255031,-0.001785,-0.000896,-0.012369,-2.343840,-1.173258,-2.517620,1, 0.158884, 0.031430,-0.313873,1,-0.536177,-0.192987, 9.790079,1,0
1778257565524,  2501.638,  2501.633,-0.193959,-0.029878,-0.893090,-0.002220, 0.000067,-0.008363,-2.576897, 0.044304,-0.376280,1, 0.130313,-0.037954,-0.362383,1,-0.533856,-0.168477, 9.790659,1,0
1778257565547,  2501.663,  2501.658, 0.008335,-0.008558,-0.801015,-0.000002,-0.000304,-0.008255,-0.437331,-0.230764, 1.936528,1, 0.036546,-0.073886,-0.344312,1,-0.516606,-0.146272, 9.791941,1,0
1778257565573,  2501.683,  2501.683, 0.110103,-0.103788,-1.256705, 0.000862,-0.000781,-0.010555, 0.576272,-1.161947,-2.531409,1,-0.023457,-0.034320,-0.317554,1,-0.502253,-0.145372, 9.792701,1,0
1778257565594,  2501.708,  2501.703, 0.262318,-0.110183,-0.994607, 0.002270,-0.000971,-0.010082, 1.908190,-1.821936,-5.249456,1,-0.018458, 0.137230,-0.328017,1,-0.521872,-0.155530, 9.791519,1,0
1778257565617,  2501.733,  2501.728, 0.248861,-0.025904,-0.542138, 0.002374,-0.000229,-0.005072, 1.893670,-0.402488, 4.473706,1, 0.014993, 0.049134,-0.330047,1,-0.548200,-0.148563, 9.790189,1,0
1778257565643,  2501.753,  2501.753, 0.135521, 0.010412,-0.601886, 0.001509, 0.000126,-0.005786, 0.537663,-0.042836,-0.131685,1,-0.063544, 0.021433,-0.350994,1,-0.552097,-0.159015, 9.789805,1,0
1778257565664,  2501.778,  2501.773, 0.078631,-0.085913,-1.267916, 0.000430,-0.000774,-0.012494,-0.321671,-0.155094,-2.336042,1,-0.051790, 0.015944,-0.305504,1,-0.555881,-0.172587, 9.789361,1,0
1778257565687,  2501.803,  2501.798, 0.203715,-0.001156,-0.986995, 0.001976,-0.000034,-0.010183, 1.433201,-0.189966, 0.109643,1, 0.000185, 0.026706,-0.300523,1,-0.565225,-0.179160, 9.788708,1,0
1778257565713,  2501.823,  2501.823, 0.163829,-0.025333,-0.783280, 0.001863,-0.000571,-0.008310, 1.041809,-0.425030, 2.107426,1, 0.008231,-0.020222,-0.317149,1,-0.563997,-0.176911, 9.788820,1,0
1778257565734,  2501.848,  2501.843, 0.089033,-0.030237,-1.019617, 0.001292,-0.000570,-0.011079, 0.726713,-0.699804,-1.353682,1, 0.045616, 0.003637,-0.295977,1,-0.559927,-0.175939, 9.789071,1,0
1778257565761,  2501.873,  2501.873, 0.098435, 0.035716,-0.997830, 0.001060, 0.000668,-0.009752, 0.406411, 0.183283, 0.003915,1, 0.099156, 0.011070,-0.307947,1,-0.559090,-0.164429, 9.789319,1,0
1778257565783,  2501.893,  2501.893, 0.141800,-0.057128,-0.921807, 0.001087,-0.000394,-0.008676, 0.834397,-0.711363, 0.749855,1, 0.109134,-0.029628,-0.341437,1,-0.555100,-0.148333, 9.789804,1,0
1778257565804,  2501.918,  2501.913, 0.160055,-0.120451,-0.994378, 0.001412,-0.001028,-0.009448, 0.854793,-0.469691, 0.739593,1, 0.112163,-0.064156,-0.313406,1,-0.543312,-0.128826, 9.790741,1,0
1778257565831,  2501.943,  2501.943, 0.155983,-0.027062,-1.109459, 0.001700,-0.000335,-0.011491, 1.006955,-0.362665,-1.087855,1, 0.126096,-0.078566,-0.301978,1,-0.520172,-0.093846, 9.792395,1,0
1778257565853,  2501.968,  2501.963, 0.186541, 0.004968,-1.059197, 0.002143,-0.000111,-0.010892, 0.729389,-0.706288, 0.790798,1, 0.202358,-0.061971,-0.342112,1,-0.506940,-0.061319, 9.793346,1,0
1778257565874,  2501.988,  2501.983, 0.151931,-0.149868,-0.907039, 0.001745,-0.001426,-0.009376, 1.502967,-1.314757,-1.413064,1, 0.172466,-0.063866,-0.353218,1,-0.494243,-0.032613, 9.794133,1,0
1778257565901,  2502.013,  2502.013, 0.234126,-0.141718,-1.169932, 0.002046,-0.000988,-0.010813, 1.819710,-1.379889,-1.678042,1, 0.164689,-0.050822,-0.358672,1,-0.474709, 0.014477, 9.795143,1,0
1778257565923,  2502.038,  2502.033, 0.245837,-0.121517,-1.013458, 0.002344,-0.000906,-0.009534, 1.735779,-0.015880, 1.419664,1, 0.150451,-0.060319,-0.377428,1,-0.465584, 0.044633, 9.795490,1,0
1778257565945,  2502.058,  2502.053, 0.184687, 0.007754,-0.863496, 0.002139,-0.000537,-0.009601, 1.459101,-1.888173, 0.760051,1, 0.224136,-0.046466,-0.392473,1,-0.453919, 0.079922, 9.795814,1,0
1778257565972,  2502.083,  2502.083, 0.242589,-0.250626,-1.078756, 0.002335,-0.002059,-0.009748, 1.932283,-2.337507,-0.783256,1, 0.209798,-0.003450,-0.425203,1,-0.446757, 0.126232, 9.795655,1,0
1778257565993,  2502.108,  2502.103, 0.258917,-0.177756,-0.954640, 0.002523,-0.001982,-0.009195, 1.801471,-0.631947, 2.223014,1, 0.189963,-0.050552,-0.411429,1,-0.441189, 0.158365, 9.795441,1,0
1778257566015,  2502.128,  2502.123, 0.190803,-0.108799,-0.946101, 0.002130,-0.000707,-0.009523, 1.918564,-1.114310,-0.433093,1, 0.181562,-0.038789,-0.426763,1,-0.434930, 0.194673, 9.795066,1,0
1778257566042,  2502.153,  2502.153, 0.225389,-0.189866,-0.928947, 0.002210,-0.002086,-0.008989, 1.786616,-1.618870, 0.684612,1, 0.179074,-0.073092,-0.435907,1,-0.421752, 0.248078, 9.794436,1,0
1778257566063,  2502.178,  2502.173, 0.263083, 0.030661,-0.987062, 0.002862,-0.000615,-0.011426, 2.960849,-1.242590,-0.165209,1, 0.259872, 0.012135,-0.443565,1,-0.419776, 0.289886, 9.793372,1,0
1778257566085,  2502.198,  2502.193, 0.027367,-0.194689,-1.449145, 0.000517,-0.001976,-0.014071, 2.034185,-2.646177,-4.900899,1, 0.201117, 0.065506,-0.420700,1,-0.433878, 0.324390, 9.791676,1,0
1778257566112,  2502.223,  2502.223, 0.104130,-0.030255,-1.009831, 0.000695,-0.000589,-0.010674, 0.576456, 0.073642,-0.113502,1, 0.230557, 0.018194,-0.397871,1,-0.445742, 0.376963, 9.789259,1,0
1778257566133,  2502.248,  2502.243, 0.227793,-0.077388,-0.402736, 0.002583,-0.000468,-0.004016, 2.539354, 0.644912, 3.691804,1, 0.255380, 0.034903,-0.453934,1,-0.457109, 0.422389, 9.786880,1,0
1778257566155,  2502.268,  2502.263, 0.150351,-0.111572,-0.711305, 0.001752,-0.001356,-0.006793, 2.100367, 0.006016, 5.325606,1, 0.205030,-0.064503,-0.414826,1,-0.455132, 0.460958, 9.785232,1,0
1778257566182,  2502.293,  2502.293, 0.170244,-0.137583,-1.524989, 0.001250,-0.000946,-0.014749, 1.230736,-0.852801,-5.170791,1, 0.143033,-0.033105,-0.264807,1,-0.438174, 0.500509, 9.784062,1,0
1778257566203,  2502.318,  2502.313, 0.232819, 0.056486,-0.774898, 0.002550, 0.000278,-0.007920, 1.028595, 0.670686, 1.313084,1, 0.158352,-0.046239,-0.278428,1,-0.433033, 0.526822, 9.782909,1,0
1778257566225,  2502.338,  2502.333, 0.322155,-0.021854,-1.138726, 0.003154,-0.000548,-0.011535, 1.785644, 0.065044, 0.227286,1, 0.111330,-0.050160,-0.278180,1,-0.425997, 0.552007, 9.781830,1,0
1778257566252,  2502.363,  2502.363, 0.362344,-0.094098,-1.174946, 0.003398,-0.001054,-0.011652, 3.119498,-0.358629,-1.741498,1, 0.040719, 0.065722,-0.171968,1,-0.436237, 0.565187, 9.780626,1,0
1778257566273,  2502.388,  2502.383, 0.329858, 0.070839,-0.846442, 0.003117, 0.000497,-0.008364, 3.038927,-0.007591, 2.054167,1, 0.081451, 0.057672,-0.124283,1,-0.450703, 0.580773, 9.779057,1,0
1778257566296,  2502.408,  2502.408, 0.168227, 0.046399,-1.111229, 0.001188, 0.000163,-0.011404, 1.186507, 1.046623,-1.119618,1, 0.048890, 0.048244,-0.078313,1,-0.464888, 0.593007, 9.777658,1,0
1778257566322,  2502.433,  2502.433, 0.105265,-0.036906,-1.003488, 0.000470,-0.000645,-0.010406, 0.559690, 0.244188,-0.064373,1, 0.092840, 0.055626,-0.040486,1,-0.474416, 0.608943, 9.776221,1,0
1778257566344,  2502.458,  2502.453, 0.201638, 0.088264,-0.882359, 0.002491, 0.001077,-0.008103, 1.008114, 0.259221, 1.985612,1, 0.063982, 0.036336,-0.009746,1,-0.479380, 0.626022, 9.774900,1,0
1778257566366,  2502.478,  2502.478, 0.185863,-0.050318,-1.089008, 0.001374,-0.000766,-0.010965, 1.343456, 0.154434,-0.906038,1, 0.092993, 0.000410,-0.005453,1,-0.479263, 0.650767, 9.773290,1,0
1778257566392,  2502.503,  2502.503, 0.202881, 0.057449,-0.987533, 0.002106,-0.000292,-0.010249, 1.495562, 1.245987, 0.085987,1, 0.127628, 0.178162, 0.023823,1,-0.499512, 0.686594, 9.769824,1,0
1778257566414,  2502.528,  2502.523,-0.052002, 0.051146,-1.180838,-0.000183, 0.000529,-0.011667, 0.341248,-0.691100,-1.608126,1, 0.162969,-0.005890,-0.013565,1,-0.512767, 0.721279, 9.766638,1,0
1778257566436,  2502.548,  2502.548, 0.021274, 0.158292,-1.138204,-0.000091, 0.001698,-0.011930,-0.307780, 2.322021,-1.399221,1, 0.217500, 0.063730, 0.156495,1,-0.518009, 0.776726, 9.762108,1,0
1778257566462,  2502.573,  2502.573,-0.017190, 0.126285,-0.625168,-0.000135, 0.001282,-0.006143,-0.683317, 2.057850, 3.627984,1, 0.249020,-0.081079, 0.133243,1,-0.511880, 0.827371, 9.758269,1,0
1778257566484,  2502.598,  2502.593, 0.013207, 0.071380,-1.393812, 0.000123, 0.001416,-0.013232,-1.319393, 2.200944,-1.071981,1, 0.178258,-0.133946, 0.156983,1,-0.480487, 0.865146, 9.756590,1,0
1778257566507,  2502.618,  2502.618, 0.326112, 0.104977,-1.012807, 0.003196, 0.002022,-0.009971, 2.716893, 1.938858,-0.179714,1, 0.184164, 0.085406, 0.234416,1,-0.483148, 0.915465, 9.751865,1,0
1778257566532,  2502.643,  2502.643, 0.337080, 0.187530,-0.848559, 0.003452, 0.002064,-0.008925, 2.813708, 2.784080, 1.427081,1, 0.144378, 0.074130, 0.275368,1,-0.493393, 0.949949, 9.748054,1,0
1778257566554,  2502.668,  2502.663,-0.035141,-0.080307,-0.610895,-0.000339,-0.001508,-0.005341, 0.142946, 1.493774, 8.835955,1, 0.228037,-0.112843, 0.299826,1,-0.476301, 0.995593, 9.744348,1,0
1778257566577,  2502.688,  2502.688,-0.328686, 0.278439,-3.082631,-0.003153, 0.001922,-0.029481,-3.660129, 3.753729,-20.486948,1,-0.115757, 0.129942, 0.318662,1,-0.439810, 1.020024, 9.743536,1,0
1778257566602,  2502.713,  2502.713, 0.446909,-0.022169,-0.272992, 0.003726, 0.001624,-0.005792, 3.904444, 0.815606, 7.063212,1, 0.291021, 0.157863, 0.628274,1,-0.481071, 1.042990, 9.739155,1,0
1778257566624,  2502.738,  2502.733, 0.178248, 0.157138,-1.040797, 0.001747, 0.001803,-0.007890, 2.047148, 0.602652, 9.753446,1,-0.088374,-0.186999, 0.498434,1,-0.448729, 1.080436, 9.736615,1,0
1778257566647,  2502.763,  2502.758, 0.164167, 0.084199,-1.651439, 0.001810, 0.001027,-0.017204, 1.179581, 1.913902,-6.458509,1, 0.019601, 0.105645, 0.546180,1,-0.431727, 1.089550, 9.736369,1,0
1778257566672,  2502.783,  2502.783, 0.206934,-0.200580,-0.704575, 0.001917,-0.002222,-0.007651, 1.593569,-0.870122, 2.825842,1, 0.012009, 0.073342, 0.699445,1,-0.435590, 1.098239, 9.735220,1,0
1778257566694,  2502.808,  2502.803, 0.206287, 0.380303,-0.851974, 0.002077, 0.003675,-0.008381, 1.367753, 0.763854, 3.686137,1, 0.009056,-0.019556, 0.621204,1,-0.422464, 1.103112, 9.735248,1,0
1778257566717,  2502.833,  2502.828, 0.127940, 0.402591,-1.629890, 0.000932, 0.004039,-0.016892, 0.857689, 5.016804,-6.243612,1,-0.226204, 0.042972, 0.726856,1,-0.395835, 1.062637, 9.740868,1,0
1778257566743,  2502.853,  2502.853, 0.166689, 0.243239,-1.144720, 0.001255, 0.002313,-0.012318, 1.247461, 3.413593,-1.480971,1,-0.285674, 0.048781, 0.839055,1,-0.385962, 1.020403, 9.745778,1,0
1778257566764,  2502.878,  2502.873, 0.242051, 0.079875,-0.867823, 0.002117, 0.000752,-0.007467, 3.296880, 3.997429, 3.876615,1,-0.246569, 0.069679, 0.756432,1,-0.381958, 0.988941, 9.749179,1,0
1778257566787,  2502.903,  2502.898, 0.185493, 0.220241,-1.459843, 0.001756, 0.001444,-0.014351, 1.429531, 3.090537,-4.561569,1,-0.355059, 0.181230, 0.805518,1,-0.392781, 0.920676, 9.755432,1,0
1778257566813,  2502.923,  2502.923, 0.101447, 0.040967,-1.071648, 0.000740,-0.000366,-0.010679, 0.590036, 1.279066,-0.750344,1,-0.324566, 0.135747, 0.932386,1,-0.406430, 0.868441, 9.759663,1,0
1778257566834,  2502.948,  2502.943, 0.033937, 0.095667,-0.836007, 0.000684, 0.001740,-0.008727, 0.077432, 2.523482, 0.412514,1,-0.384093, 0.061525, 0.873895,1,-0.404781, 0.813426, 9.764470,1,0
1778257566857,  2502.973,  2502.968, 0.335750, 0.113908,-0.546631, 0.003662, 0.001926,-0.005765, 2.865273, 1.869214, 4.407803,1,-0.159278, 0.255406, 0.740619,1,-0.433479, 0.748207, 9.768453,1,0
1778257566883,  2502.993,  2502.993,-0.105495,-0.018882,-1.372194, 0.000344, 0.000058,-0.012134,-1.508324, 0.530072,-3.687584,1,-0.360112, 0.099739, 0.756925,1,-0.475149, 0.705180, 9.769715,1,0
1778257566904,  2503.018,  2503.013, 0.207802, 0.400624,-1.202954, 0.001807, 0.004085,-0.014562,-2.551944,-2.194627,-10.156416,1,-0.347440, 0.064115, 0.938233,1,-0.429798, 0.638817, 9.776379,1,0
1778257566927,  2503.043,  2503.038, 0.130486,-0.107120,-0.269156, 0.001416,-0.000618,-0.000482, 0.817812,-0.429918, 7.136572,1,-0.058162, 0.002147, 0.634137,1,-0.460631, 0.619692, 9.776205,1,0
1778257566953,  2503.063,  2503.063, 0.073350, 0.047977,-1.239213, 0.000907, 0.000404,-0.012544, 0.268036, 1.062200,-2.374151,1,-0.118410, 0.031272, 0.587577,1,-0.451146, 0.588867, 9.778552,1,0
1778257566974,  2503.088,  2503.083, 0.200318, 0.013947,-1.046042, 0.002197, 0.000115,-0.010226, 0.304455,-0.338387,-1.927262,1,-0.057756, 0.098749, 0.621241,1,-0.463917, 0.569381, 9.779109,1,0
1778257567001,  2503.113,  2503.113, 0.223197, 0.082871,-0.842062, 0.002546, 0.001121,-0.008850, 1.700310, 1.373197, 1.520618,1,-0.005335, 0.154446, 0.526439,1,-0.492374, 0.561164, 9.778193,1,0
1778257567023,  2503.133,  2503.133, 0.047739,-0.047382,-1.040788, 0.000977, 0.000143,-0.010165,-0.040032, 0.094351,-0.429136,1, 0.014431, 0.092461, 0.481068,1,-0.510217, 0.560238, 9.777330,1,0
1778257567044,  2503.158,  2503.153,-0.018737, 0.088020,-1.019277,-0.000384, 0.000465,-0.010621,-1.844040,-0.169900,-0.053973,1,-0.021591, 0.015011, 0.480738,1,-0.512919, 0.551968, 9.777659,1,0
1778257567071,  2503.183,  2503.183,-0.076759, 0.063523,-1.021048,-0.000618, 0.000698,-0.010053,-1.262719, 1.158435,-0.234331,1,-0.075860,-0.025203, 0.397321,1,-0.508510, 0.533772, 9.778900,1,0
1778257567093,  2503.208,  2503.203,-0.025810,-0.014119,-1.047383,-0.000713,-0.000796,-0.010570,-0.970065, 0.930085, 1.693557,1,-0.045707,-0.064319, 0.367568,1,-0.496818, 0.525063, 9.779973,1,0
1778257567115,  2503.228,  2503.223, 0.116888, 0.023930,-1.144897, 0.000691,-0.000366,-0.011657,-0.774809, 0.021117,-1.537711,1,-0.057802,-0.072071, 0.350324,1,-0.479556, 0.511687, 9.781543,1,0
1778257567141,  2503.253,  2503.253, 0.247535, 0.059194,-1.029595, 0.002347, 0.000119,-0.010952, 1.948519, 1.058980,-0.313633,1,-0.177666, 0.077880, 0.319761,1,-0.480909, 0.473444, 9.783402,1,0
1778257567163,  2503.278,  2503.273, 0.117271,-0.043812,-0.912609, 0.000975,-0.000594,-0.009337, 1.050081, 0.410163, 0.963187,1,-0.178343, 0.008010, 0.317342,1,-0.480025, 0.448116, 9.784638,1,0
1778257567185,  2503.298,  2503.293, 0.180277,-0.028054,-1.137450, 0.001080,-0.000523,-0.011292, 0.264321, 0.908210,-0.319206,1,-0.198987, 0.038983, 0.275915,1,-0.482999, 0.414121, 9.785990,1,0
1778257567212,  2503.323,  2503.323, 0.266236,-0.064498,-1.075752, 0.001863,-0.001063,-0.010805, 2.102524,-0.270925,-0.762737,1,-0.291054, 0.100025, 0.248661,1,-0.511185, 0.352916, 9.786957,1,0
1778257567233,  2503.348,  2503.343, 0.149085,-0.173494,-0.481833, 0.001419,-0.001174,-0.003711, 2.538051, 0.337028, 3.359354,1,-0.204945, 0.092158, 0.203855,1,-0.529430, 0.315085, 9.787278,1,0
1778257567255,  2503.368,  2503.363, 0.141086,-0.160886,-1.220927, 0.001044,-0.001588,-0.012535, 1.446936, 0.318766, 1.846989,1,-0.228994, 0.003905, 0.145757,1,-0.531368, 0.277579, 9.788308,1,0
1778257567282,  2503.393,  2503.393, 0.125296,-0.221151,-1.126796, 0.000804,-0.002460,-0.011362, 0.688277,-1.942988,-1.260953,1,-0.229929, 0.002909, 0.086369,1,-0.540488, 0.218749, 9.789301,1,0
1778257567303,  2503.418,  2503.413, 0.137997,-0.140746,-1.116036, 0.001554,-0.001024,-0.011012, 1.178599,-0.499801, 0.060405,1,-0.207741, 0.018983, 0.037457,1,-0.540217, 0.183811, 9.790034,1,0
1778257567325,  2503.438,  2503.433, 0.220602,-0.148271,-0.748311, 0.002330,-0.001312,-0.007728, 2.311331,-0.417557, 0.671976,1,-0.183330, 0.034543,-0.040221,1,-0.546454, 0.152419, 9.790227,1,0
1778257567352,  2503.463,  2503.463, 0.219551,-0.172112,-0.953565, 0.001621,-0.001722,-0.009572, 1.604941,-1.571564, 0.439353,1,-0.157401,-0.015206,-0.070898,1,-0.547676, 0.111252, 9.790713,1,0
1778257567373,  2503.488,  2503.483, 0.061762,-0.094153,-1.038470, 0.000762,-0.000587,-0.010049, 1.593573,-0.890908,-0.137870,1,-0.140357, 0.039744,-0.087733,1,-0.552813, 0.087433, 9.790666,1,0
1778257567395,  2503.508,  2503.503, 0.032049,-0.127597,-1.267499,-0.000119,-0.000988,-0.012640, 0.202765,-0.622806,-1.045752,1,-0.152976,-0.004550,-0.114203,1,-0.553933, 0.062706, 9.790792,1,0
1778257567422,  2503.533,  2503.533, 0.082441,-0.114862,-0.957500, 0.000346,-0.001220,-0.010535, 0.259949,-1.093774, 0.401371,1,-0.104201,-0.063881,-0.137991,1,-0.546544, 0.029154, 9.791365,1,0
1778257567443,  2503.558,  2503.553, 0.106346,-0.034127,-0.828865, 0.000892, 0.000063,-0.008272, 0.989466,-0.608954, 1.583186,1,-0.069172, 0.002035,-0.174816,1,-0.543205, 0.013263, 9.791585,1,0
1778257567465,  2503.578,  2503.573, 0.069973,-0.142057,-1.201641, 0.000343,-0.001187,-0.012033, 0.044197,-0.384924,-0.788206,1,-0.146482,-0.039408,-0.195627,1,-0.536400,-0.012741, 9.791961,1,0
1778257567492,  2503.603,  2503.603, 0.186404,-0.159056,-1.174253, 0.001746,-0.001300,-0.012032, 1.301839,-1.608261,-1.723082,1,-0.089243, 0.014987,-0.149273,1,-0.526604,-0.051482, 9.792365,1,0
1778257567513,  2503.628,  2503.623, 0.116409,-0.044618,-0.863192, 0.001234,-0.000248,-0.007780, 1.162315,-0.075482, 6.621320,1,-0.106631,-0.060141,-0.190316,1,-0.525910,-0.059913, 9.792355,1,0
1778257567536,  2503.648,  2503.648, 0.076747,-0.169259,-1.078719, 0.000851,-0.001400,-0.010426, 0.247592,-1.745946,-0.785369,1,-0.059409,-0.058272,-0.214554,1,-0.503169,-0.088275, 9.793335,1,0
1778257567562,  2503.673,  2503.673, 0.020674,-0.072222,-0.932842, 0.000124,-0.001098,-0.009080,-0.285506,-0.810023, 0.645905,1,-0.091243,-0.114506,-0.201832,1,-0.484611,-0.104929, 9.794106,1,0
1778257567584,  2503.698,  2503.693, 0.213113,-0.131979,-1.332143, 0.001769,-0.000875,-0.013413,-0.327642,-0.880071,-4.347804,1,-0.101135,-0.019188,-0.210682,1,-0.471064,-0.121446, 9.794577,1,0
1778257567606,  2503.718,  2503.718, 0.296282,-0.117513,-0.892801, 0.003211,-0.001218,-0.008782, 2.426011,-1.286472, 1.038619,1,-0.030218, 0.017026,-0.229879,1,-0.479952,-0.135360, 9.793962,1,0
1778257567632,  2503.743,  2503.743, 0.156203,-0.020759,-0.711762, 0.002200,-0.001271,-0.007507, 1.055014,-0.343784, 2.814046,1,-0.074187,-0.037517,-0.249393,1,-0.475535,-0.142901, 9.794071,1,0
1778257567654,  2503.768,  2503.763, 0.104959,-0.070722,-0.815359, 0.001914,-0.001282,-0.008728, 1.081533, 0.006593, 0.939367,1,-0.020738,-0.009542,-0.255322,1,-0.471198,-0.150134, 9.794172,1,0
1778257567676,  2503.788,  2503.788, 0.029133,-0.028260,-1.379972, 0.000451,-0.000759,-0.013170,-0.177059,-0.438476,-3.738512,1,-0.075898, 0.025896,-0.224822,1,-0.463450,-0.164033, 9.794319,1,0
1778257567702,  2503.813,  2503.813, 0.261396,-0.114711,-1.114815, 0.001658,-0.000686,-0.011316, 2.090809,-1.291272,-1.138762,1, 0.013051, 0.062313,-0.259902,1,-0.474415,-0.166325, 9.793756,1,0
1778257567724,  2503.838,  2503.833, 0.166227,-0.005989,-0.863842, 0.001142, 0.000067,-0.009145, 1.623413,-1.950011,-0.138496,1, 0.045266,-0.008178,-0.291941,1,-0.474845,-0.163870, 9.793777,1,0
1778257567747,  2503.858,  2503.858, 0.296279,-0.181509,-0.667830, 0.002309,-0.000896,-0.005413, 2.441120,-1.938796, 3.245191,1, 0.093874,-0.007353,-0.309294,1,-0.463998,-0.156330, 9.794419,1,0
1778257567772,  2503.883,  2503.883, 0.273943,-0.188747,-1.140265, 0.002956,-0.002082,-0.011630, 2.220041,-2.006852,-1.387871,1,-0.000571,-0.002493,-0.282436,1,-0.466207,-0.156311, 9.794314,1,0
1778257567794,  2503.908,  2503.903, 0.312540,-0.163375,-0.982914, 0.003711,-0.001978,-0.009898, 1.365134,-0.658594, 0.433863,1, 0.074171, 0.091998,-0.271678,1,-0.477234,-0.143825, 9.793975,1,0
1778257567817,  2503.928,  2503.928,-0.049944,-0.026095,-1.896187,-0.000334,-0.001164,-0.016542,-0.977142,-0.378026,-8.801477,1,-0.089822, 0.074162,-0.312860,1,-0.489549,-0.125406, 9.793620,1,0
1778257567842,  2503.953,  2503.953, 0.268087,-0.126990,-0.944369, 0.001335,-0.000709,-0.011015, 2.118910,-1.355838, 0.531651,1, 0.179556, 0.129677,-0.302999,1,-0.514062,-0.105383, 9.792601,1,0
1778257567864,  2503.978,  2503.973, 0.104259,-0.068752,-0.637721, 0.001014, 0.000268,-0.005009, 1.991133,-1.610528, 5.516013,1, 0.153104,-0.022115,-0.294174,1,-0.519160,-0.072840, 9.792627,1,0
1778257567887,  2504.003,  2503.998, 0.219568,-0.185152,-1.212474, 0.001940,-0.001917,-0.011635, 1.626910,-1.864716,-2.097912,1, 0.092830, 0.087723,-0.320997,1,-0.528998,-0.046642, 9.792261,1,0
1778257567912,  2504.023,  2504.023, 0.072162,-0.023622,-0.964607, 0.001099,-0.001215,-0.010761, 0.166003,-0.264793, 0.332060,1, 0.061729, 0.052386,-0.262251,1,-0.543266,-0.031670, 9.791539,1,0
1778257567934,  2504.048,  2504.043, 0.113692, 0.062234,-1.191438, 0.000541, 0.000434,-0.012762, 0.533774,-2.012529,-5.470819,1, 0.127431, 0.045202,-0.248104,1,-0.543996,-0.013377, 9.791541,1,0
1778257567957,  2504.073,  2504.068, 0.190491,-0.056854,-0.531173, 0.001866,-0.000118,-0.004837, 1.315820,-0.541693, 4.582047,1, 0.174668,-0.011627,-0.231933,1,-0.551904, 0.020886, 9.791085,1,0
1778257567983,  2504.093,  2504.093, 0.127529,-0.004375,-1.136691, 0.001759, 0.000072,-0.010700, 0.691528,-0.011826,-1.356483,1, 0.047771, 0.066060,-0.199040,1,-0.561184, 0.032216, 9.790527,1,0
1778257568004,  2504.118,  2504.113, 0.077782,-0.020157,-1.297802, 0.001005,-0.000475,-0.014108, 0.857619, 0.540481, 0.514158,1, 0.035275, 0.067300,-0.137604,1,-0.573139, 0.034554, 9.789826,1,0
1778257568027,  2504.143,  2504.138, 0.238911, 0.057587,-0.655787, 0.001911, 0.000297,-0.006576, 1.747168, 0.608734, 3.357365,1, 0.106928, 0.119649,-0.094378,1,-0.599493, 0.047147, 9.788196,1,0
1778257568053,  2504.163,  2504.163,-0.226283, 0.005891,-1.043790,-0.002119,-0.000394,-0.009931,-2.808299, 0.105564,-0.447270,1,-0.096032,-0.215763,-0.050194,1,-0.582508, 0.044710, 9.789232,1,0
1778257568074,  2504.188,  2504.183, 0.139732, 0.344947,-1.696993, 0.001276, 0.003429,-0.019567,-3.180217, 0.421479,-9.704398,1,-0.056153, 0.019594,-0.043265,1,-0.559868, 0.046196, 9.790546,1,0
1778257568097,  2504.213,  2504.208, 0.269529,-0.200106, 0.338858, 0.002181,-0.001971, 0.002909, 2.058823,-1.900375,13.112090,1, 0.116715,-0.098631, 0.020756,1,-0.581272, 0.065667, 9.789187,1,0
1778257568123,  2504.233,  2504.233,-0.059894,-0.014183,-0.818053,-0.000343,-0.000109,-0.006030,-1.138118,-0.066517, 1.768540,1, 0.029186,-0.162246,-0.034582,1,-0.545710, 0.073418, 9.791180,1,0
1778257568144,  2504.258,  2504.253, 0.006582, 0.064345,-1.598484, 0.000397, 0.001221,-0.015620,-1.373202, 0.950929,-8.370428,1, 0.048370, 0.013791, 0.007269,1,-0.537114, 0.079325, 9.791609,1,0
1778257568167,  2504.283,  2504.278,-0.011606,-0.070107,-0.617519, 0.000068,-0.000967,-0.007119,-0.648493,-0.575787, 3.735634,1, 0.161926,-0.044330, 0.073408,1,-0.533273, 0.116899, 9.791442,1,0
1778257568193,  2504.303,  2504.303, 0.068569, 0.063784,-0.890368, 0.000286, 0.000453,-0.008595, 0.153026, 0.771317, 1.060274,1, 0.123490,-0.130599, 0.000700,1,-0.515240, 0.149612, 9.791963,1,0
1778257568214,  2504.328,  2504.323, 0.164918, 0.235531,-1.217230, 0.001031, 0.001499,-0.014071,-0.236052, 1.039504,-3.502221,1, 0.146356,-0.028866,-0.010403,1,-0.493771, 0.173867, 9.792668,1,0
1778257568241,  2504.353,  2504.353, 0.118412,-0.027915,-1.159380, 0.001428, 0.000263,-0.010078, 0.660600,-0.075552,-1.577777,1, 0.015998,-0.024121, 0.147979,1,-0.499778, 0.198940, 9.791886,1,0
1778257568263,  2504.373,  2504.373, 0.122448, 0.116720,-0.780280, 0.001383, 0.000789,-0.008877, 0.701866, 1.362049, 2.139598,1, 0.144416, 0.044308, 0.114997,1,-0.500245, 0.222105, 9.791364,1,0
1778257568284,  2504.398,  2504.393, 0.198959, 0.149512,-0.958023, 0.001272, 0.001300,-0.009330, 3.146459, 1.873708,-0.813573,1, 0.038943, 0.068590, 0.122877,1,-0.512085, 0.235072, 9.790449,1,0
1778257568311,  2504.423,  2504.423, 0.186752, 0.163361,-1.141197, 0.002705, 0.001499,-0.013407, 1.308461, 1.833342,-1.401359,1,-0.134597, 0.011580, 0.269834,1,-0.523108, 0.227572, 9.790044,1,0
1778257568333,  2504.448,  2504.443, 0.484610, 0.197055,-0.096235, 0.005356, 0.001583,-0.003249, 2.439532, 1.360169, 3.315521,1, 0.082134, 0.224713, 0.243808,1,-0.560726, 0.254488, 9.787298,1,0
1778257568355,  2504.468,  2504.463, 0.134246, 0.088051,-0.574531, 0.001661, 0.000055,-0.005246, 2.058547, 0.162088, 9.876118,1, 0.087258,-0.012027, 0.229583,1,-0.569278, 0.271457, 9.786348,1,0
1778257568382,  2504.493,  2504.493,-0.000965, 0.379850,-1.564413,-0.000008, 0.004160,-0.015319,-0.552501, 3.975715,-5.553256,1,-0.114570,-0.043069, 0.306299,1,-0.541452, 0.247620, 9.788560,1,0
1778257568403,  2504.518,  2504.513, 0.312420, 0.052403,-0.908992, 0.003170, 0.001021,-0.008572, 0.519103, 1.064771,-1.340724,1,-0.057561, 0.022104, 0.431255,1,-0.546135, 0.236524, 9.788574,1,0
1778257568425,  2504.538,  2504.533, 0.214983, 0.062175,-0.758460, 0.002397, 0.000998,-0.006952, 3.351845, 1.758365, 2.447088,1,-0.140614, 0.050406, 0.411803,1,-0.553435, 0.221457, 9.788516,1,0
1778257568452,  2504.563,  2504.563, 0.143104, 0.264303,-1.495666, 0.001747, 0.002242,-0.014998, 0.859989, 2.765970,-4.877438,1,-0.272793, 0.046099, 0.401825,1,-0.544598, 0.166239, 9.790105,1,0
1778257568473,  2504.588,  2504.583, 0.070819, 0.047646,-1.097285, 0.001238, 0.000869,-0.009769, 0.308523,-0.090304,-0.247606,1,-0.146662, 0.013155, 0.438428,1,-0.546896, 0.131425, 9.790506,1,0
1778257568495,  2504.608,  2504.603,-0.004765, 0.047726,-0.873855,-0.000168,-0.000013,-0.009256, 0.728880, 0.866406, 0.709128,1,-0.193616, 0.014832, 0.382331,1,-0.551481, 0.102051, 9.790600,1,0
1778257568522,  2504.633,  2504.633,-0.153604, 0.013120,-1.469171,-0.001173, 0.000656,-0.014432,-2.050114, 0.188419,-4.616272,1,-0.177038,-0.030680, 0.337307,1,-0.542756, 0.054826, 9.791466,1,0
1778257568543,  2504.658,  2504.653, 0.065221,-0.023778, 0.051391, 0.000781,-0.000382,-0.000308,-0.205604,-0.615862, 5.843348,1, 0.064200,-0.051837, 0.281712,1,-0.540598, 0.060594, 9.791551,1,0
1778257568565,  2504.678,  2504.673, 0.297375, 0.147746,-1.297598, 0.003362, 0.002131,-0.012264, 0.700682, 0.865749,-1.221172,1,-0.036490, 0.077492, 0.129420,1,-0.529132, 0.057737, 9.792194,1,0
1778257568592,  2504.703,  2504.703, 0.129589,-0.201811,-0.317367, 0.001235,-0.002008,-0.002658, 0.723290,-1.896517, 6.678694,1, 0.056476,-0.115087, 0.090143,1,-0.543977, 0.084472, 9.791186,1,0
1778257568613,  2504.728,  2504.723,-0.021406, 0.043521,-1.241308,-0.000324, 0.000198,-0.013978,-0.817849, 0.915304,-2.850243,1, 0.064897,-0.084244, 0.083900,1,-0.518679, 0.093615, 9.792477,1,0
1778257568635,  2504.748,  2504.743, 0.065222,-0.115092,-1.399653, 0.000811,-0.000567,-0.011683,-0.188596, 0.074277,-1.840707,1, 0.095460,-0.032770, 0.055071,1,-0.514855, 0.115643, 9.792442,1,0
1778257568662,  2504.773,  2504.773, 0.181835,-0.043945,-0.867540, 0.001449,-0.000615,-0.010594, 1.268215,-0.290297, 1.284450,1, 0.108042, 0.004403, 0.083101,1,-0.515075, 0.144159, 9.792053,1,0
1778257568683,  2504.798,  2504.793, 0.237928, 0.024025,-0.907940, 0.002005, 0.000200,-0.008944, 1.917229, 0.145477,-1.523496,1, 0.060694, 0.062034, 0.049679,1,-0.527914, 0.164808, 9.791043,1,0
1778257568705,  2504.818,  2504.813, 0.015569, 0.009602,-1.243887, 0.000716,-0.000025,-0.012366, 1.917229, 0.145477,-1.523496,1, 0.060694, 0.062034, 0.049679,1,-0.527914, 0.164808, 9.791043,1,0
1778257568732,  2504.843,  2504.843, 0.104636,-0.025119,-0.725821, 0.000720,-0.000068,-0.006934, 0.497175,-0.070923, 2.672928,1, 0.091618, 0.001947, 0.070992,1,-0.528972, 0.178390, 9.790749,1,0
1778257568753,  2504.868,  2504.863, 0.067013,-0.048318,-1.349813, 0.000850,-0.000046,-0.011561, 0.222626, 0.237543, 0.775491,1,-0.060356, 0.020494, 0.047097,1,-0.531324, 0.170977, 9.790753,1,0
1778257568776,  2504.888,  2504.888, 0.211830,-0.043790,-1.250813, 0.000915,-0.000747,-0.013421, 1.547159,-0.287076,-2.475014,1,-0.106390, 0.088544, 0.060481,1,-0.532914, 0.139142, 9.791171,1,0
1778257568802,  2504.913,  2504.913, 0.427630, 0.016001,-0.238193, 0.005032, 0.000461,-0.002184, 3.627526, 0.288633, 7.453532,1,-0.037109, 0.145167, 0.037106,1,-0.570606, 0.130645, 9.789164,1,0
1778257568824,  2504.938,  2504.933, 0.255857, 0.014150,-1.044010, 0.002475,-0.000343,-0.010719, 2.479409,-0.725683, 2.035848,1,-0.129018, 0.038384, 0.049536,1,-0.579997, 0.095643, 9.789017,1,0
1778257568846,  2504.958,  2504.958, 0.038248,-0.058060,-0.939975, 0.000457, 0.000243,-0.008154,-0.215313,-0.533557, 0.570787,1,-0.209465,-0.058297, 0.089996,1,-0.588568, 0.029455, 9.788928,1,0
1778257568872,  2504.983,  2504.983,-0.134106, 0.073540,-1.124749,-0.001310,-0.000033,-0.012285,-1.881756, 0.711677,-1.239759,1,-0.255441,-0.136271, 0.080285,1,-0.562376,-0.017315, 9.790496,1,0
1778257568894,  2505.008,  2505.003, 0.204416, 0.013735,-0.994837, 0.001829, 0.000146,-0.010784,-1.780248,-0.424757,-6.634775,1,-0.167164, 0.078279, 0.044428,1,-0.560600,-0.064899, 9.790399,1,0
1778257568916,  2505.028,  2505.028, 0.202709, 0.007029,-0.489418, 0.002046,-0.000820,-0.005867, 1.416986,-0.042782, 4.989829,1,-0.218459,-0.023368, 0.020769,1,-0.570190,-0.118483, 9.789343,1,0
1778257568942,  2505.053,  2505.053, 0.136591,-0.033724,-1.100817, 0.001701, 0.000408,-0.009311, 0.769396,-0.479231,-1.006394,1,-0.142023, 0.021029,-0.030898,1,-0.570745,-0.152988, 9.788832,1,0
1778257568964,  2505.078,  2505.073,-0.080394,-0.050959,-1.109155,-0.000332,-0.000605,-0.011382,-0.019424, 0.351754,-1.906720,1,-0.216516, 0.014984,-0.031541,1,-0.576379,-0.195635, 9.787743,1,0
1778257568987,  2505.098,  2505.098, 0.052873,-0.059985,-0.671195,-0.000345,-0.000187,-0.006084,-0.034574,-0.806654, 3.206424,1,-0.035917,-0.138903,-0.038093,1,-0.548733,-0.219407, 9.788827,1,0
1778257569012,  2505.123,  2505.123,-0.014037, 0.089092,-1.357615,-0.000656, 0.000455,-0.014511,-0.676768, 0.642809,-3.524561,1,-0.155059,-0.017664,-0.067067,1,-0.538508,-0.235829, 9.789013,1,0
1778257569034,  2505.148,  2505.143, 0.263344, 0.061742,-0.469378, 0.002336, 0.000383,-0.006487, 0.370382,-0.947381, 0.813341,1, 0.047382, 0.033243,-0.087370,1,-0.542007,-0.230934, 9.788937,1,0
1778257569057,  2505.168,  2505.168, 0.191651, 0.011237,-1.120646, 0.001869,-0.000177,-0.009536, 1.330266,-0.121666,-1.201267,1,-0.083408, 0.051405,-0.071900,1,-0.550739,-0.234593, 9.788363,1,0
1778257569082,  2505.193,  2505.193, 0.174884, 0.041519,-1.473663, 0.001671, 0.000823,-0.014882, 1.150665, 0.169498,-4.664187,1, 0.016510, 0.088311,-0.072026,1,-0.567056,-0.237279, 9.787366,1,0
1778257569104,  2505.218,  2505.213, 0.011954,-0.007400,-0.795624, 0.000196, 0.000031,-0.007116,-0.463033,-0.232859, 5.062993,1, 0.007344,-0.071762,-0.027935,1,-0.561598,-0.229677, 9.787862,1,0
1778257569127,  2505.243,  2505.238, 0.053640, 0.024466,-1.094220, 0.000681, 0.000544,-0.010425,-0.009667, 0.023226,-0.941023,1, 0.078487,-0.062868,-0.085190,1,-0.533679,-0.214406, 9.789770,1,0
1778257569152,  2505.263,  2505.263, 0.088069,-0.017684,-1.364412, 0.000788,-0.000103,-0.014416, 0.328236,-0.387423,-3.590630,1, 0.041499, 0.009068,-0.068188,1,-0.535665,-0.212823, 9.789697,1,0
1778257569174,  2505.288,  2505.283, 0.263808, 0.056546,-0.532995, 0.002355,-0.000101,-0.007343, 1.781453,-1.041845, 4.045208,1, 0.158748, 0.023703,-0.034215,1,-0.536980,-0.192544, 9.790044,1,0
1778257569197,  2505.313,  2505.308, 0.025826,-0.082727,-1.483561, 0.000858,-0.001242,-0.013545,-0.279248,-0.993747,-4.758280,1,-0.032663,-0.027709,-0.090170,1,-0.531604,-0.183635, 9.790508,1,0
1778257569223,  2505.333,  2505.333, 0.229180,-0.053796,-0.719409, 0.002514,-0.000363,-0.008234, 1.708562,-0.700837, 2.735307,1, 0.167120, 0.070996,-0.076540,1,-0.541099,-0.168205, 9.790266,1,0
1778257569244,  2505.358,  2505.353, 0.180368,-0.175422,-0.463507, 0.002213,-0.001284,-0.002525, 3.612153,-1.126172, 1.512478,1, 0.093396, 0.054181,-0.117433,1,-0.552858,-0.158774, 9.789766,1,0
1778257569267,  2505.383,  2505.378, 0.073591,-0.177803,-1.146238, 0.001245,-0.001358,-0.011671, 0.173681,-1.885714,-1.450462,1, 0.137546,-0.027381,-0.176810,1,-0.547063,-0.138080, 9.790405,1,0
1778257569293,  2505.403,  2505.403, 0.155071,-0.037423,-0.802815, 0.001170,-0.001043,-0.009551, 0.971640,-0.496950, 1.917478,1, 0.091871, 0.020949,-0.180245,1,-0.549668,-0.127407, 9.790404,1,0
1778257569314,  2505.428,  2505.423, 0.027484,-0.098372,-0.639752, 0.000283,-0.000319,-0.003935, 0.618806,-1.945171, 3.064261,1, 0.121741,-0.013004,-0.179957,1,-0.553874,-0.106812, 9.790414,1,0
1778257569337,  2505.453,  2505.448,-0.109482, 0.032093,-1.593105,-0.001722,-0.000272,-0.017113,-1.594537, 0.216979,-5.830711,1,-0.000626,-0.096986,-0.173194,1,-0.517809,-0.098052, 9.792479,1,0
1778257569363,  2505.473,  2505.473,-0.132632,-0.072084,-1.014703,-0.000793,-0.000295,-0.010561,-1.815231,-0.795637,-0.158102,1, 0.053706,-0.056812,-0.125068,1,-0.512753,-0.087267, 9.792847,1,0
1778257569384,  2505.498,  2505.493,-0.084451, 0.117771,-1.107025,-0.001132, 0.000608,-0.013010,-1.481883, 0.934719, 1.272576,1,-0.000550,-0.045325,-0.100245,1,-0.499912,-0.074938, 9.793613,1,0
1778257569407,  2505.523,  2505.518,-0.214116,-0.026698,-1.189303,-0.001370,-0.000124,-0.010928,-2.594375,-0.347678,-1.869282,1,-0.081343,-0.004656,-0.064943,1,-0.494448,-0.088499, 9.793777,1,0
1778257569433,  2505.543,  2505.543,-0.125464,-0.047219,-0.979600,-0.002164, 0.000360,-0.008388,-1.714349,-0.562830, 0.187591,1,-0.106486,-0.052605,-0.013059,1,-0.482326,-0.103106, 9.794239,1,0
1778257569454,  2505.568,  2505.563,-0.280566, 0.037855,-0.857308,-0.001153, 0.000671,-0.009643,-2.701904, 1.861346,-2.762764,1,-0.198705, 0.086566, 0.006570,1,-0.502607,-0.120587, 9.793019,1,0
1778257569481,  2505.593,  2505.593,-0.448080, 0.033421, 0.581123,-0.004141, 0.000990, 0.006238,-4.876204, 0.194555,15.492761,1, 0.066058,-0.252497, 0.065884,1,-0.474198,-0.131029, 9.794302,1,0
1778257569503,  2505.613,  2505.613,-0.495033, 0.250033,-2.580892,-0.005584, 0.002636,-0.024040,-5.270274, 2.276995,-15.513638,1,-0.218308,-0.132621,-0.011864,1,-0.411516,-0.181814, 9.796325,1,0
1778257569524,  2505.638,  2505.633,-0.137036,-0.070189,-0.761761,-0.000828,-0.000905,-0.010360,-0.825202, 0.083202,-2.629578,1,-0.091289, 0.123065, 0.044591,1,-0.431052,-0.196401, 9.795203,1,0
1778257569551,  2505.663,  2505.663, 0.137278,-0.187135,-0.803123, 0.000574,-0.000262,-0.003346, 0.907176,-2.046911, 1.918576,1, 0.096422, 0.011982, 0.039032,1,-0.439461,-0.208685, 9.794576,1,0
1778257569573,  2505.688,  2505.683,-0.076060,-0.108186,-1.701541, 0.000283,-0.001421,-0.018421,-2.366367, 0.760389,-1.001703,1,-0.060519, 0.043040,-0.034593,1,-0.435987,-0.216111, 9.794570,1,0
1778257569595,  2505.708,  2505.703,-0.096795,-0.188255,-0.820975,-0.001584,-0.001778,-0.007443, 0.603750,-2.022519,-5.285477,1, 0.126834, 0.100409,-0.169639,1,-0.456535,-0.207009, 9.793830,1,0
1778257569622,  2505.733,  2505.733,-0.018764,-0.179671,-0.850508, 0.000375,-0.002616,-0.008917,-0.654508,-1.919123, 1.453459,1, 0.169186, 0.003401,-0.237263,1,-0.470482,-0.152229, 9.794175,1,0
1778257569643,  2505.758,  2505.753,-0.041342,-0.163150,-1.214789,-0.000049,-0.002485,-0.012464,-0.885828,-0.841713,-3.595523,1, 0.166917,-0.026365,-0.284875,1,-0.468419,-0.117107, 9.794757,1,0
1778257569665,  2505.778,  2505.773, 0.174401,-0.065723,-0.351613, 0.001352,-0.000804,-0.005533, 0.244446,-1.821147, 3.420808,1, 0.326741,-0.107567,-0.294288,1,-0.459547,-0.064946, 9.795661,1,0
1778257569692,  2505.803,  2505.803, 0.540050,-0.042904,-1.343558, 0.005833,-0.000217,-0.011815, 4.839425,-0.441965,-3.379824,1, 0.166630, 0.268121,-0.289791,1,-0.464994,-0.016447, 9.795606,1,0
1778257569713,  2505.828,  2505.823, 0.339563, 0.128799,-0.097354, 0.005562, 0.000693,-0.002222, 8.824711, 1.944784, 5.672630,1, 0.127397,-0.033363,-0.222268,1,-0.491014, 0.003078, 9.794350,1,0
1778257569735,  2505.848,  2505.843, 0.368381, 0.065088,-1.872460, 0.003043, 0.001684,-0.016325, 2.150262,-1.058693,-2.489572,1,-0.155490, 0.035990,-0.057566,1,-0.479644, 0.004608, 9.794912,1,0
1778257569762,  2505.873,  2505.873, 0.038576, 0.311032,-0.341710, 0.000120, 0.002866,-0.006439,-0.099514, 3.043058, 6.443968,1, 0.019513,-0.127566, 0.038051,1,-0.473842,-0.006462, 9.795194,1,0
1778257569783,  2505.898,  2505.893, 0.190375, 0.183185,-1.535620, 0.002730, 0.002402,-0.014811,-0.202376, 0.748128,-4.844275,1,-0.124599,-0.025831, 0.122332,1,-0.472413,-0.021560, 9.795241,1,0
1778257569805,  2505.918,  2505.913, 0.298976, 0.067374,-0.820540, 0.001644, 0.000649,-0.009934, 2.337532, 0.852192,-1.539458,1,-0.056755,-0.030531, 0.192582,1,-0.464731,-0.038853, 9.795555,1,0
1778257569832,  2505.943,  2505.943,-0.065030,-0.012707,-0.877306, 0.000726, 0.000380,-0.006739,-1.097446,-0.161118, 1.192370,1, 0.011623,-0.068502, 0.163999,1,-0.457601,-0.035899, 9.795902,1,0
1778257569853,  2505.968,  2505.963, 0.012699, 0.056279,-1.545632,-0.001612, 0.000222,-0.018306,-2.018726, 1.277854,-6.191485,1,-0.060962, 0.004249, 0.104492,1,-0.444726,-0.045318, 9.796456,1,0
1778257569875,  2505.988,  2505.983,-0.217667,-0.113754,-0.642983,-0.002263,-0.000713,-0.003035,-2.087347,-0.245742, 5.732157,1, 0.151059, 0.034494, 0.103636,1,-0.463328,-0.033853, 9.795640,1,0
1778257569902,  2506.013,  2506.013,-0.283535, 0.070983,-1.294769,-0.003599, 0.000588,-0.012223,-3.220523, 0.672026,-2.900602,1, 0.006438,-0.104882, 0.056996,1,-0.436731,-0.023794, 9.796891,1,0
1778257569923,  2506.038,  2506.033,-0.169711,-0.114416,-0.741039,-0.001532,-0.000075,-0.003427,-2.061854, 0.156538, 2.096277,1, 0.129510, 0.060886, 0.026743,1,-0.448548,-0.004971, 9.796385,1,0
1778257569945,  2506.058,  2506.053,-0.109243, 0.049952,-1.096619,-0.002116, 0.000195,-0.011493,-0.839936,-0.322207,-0.649089,1, 0.102100,-0.026427, 0.013049,1,-0.442466, 0.015491, 9.796651,1,0
1778257569972,  2506.083,  2506.083,-0.111835,-0.019713,-1.016786,-0.000093,-0.000079,-0.010913,-1.562418,-0.143985,-0.175800,1, 0.174067, 0.035554, 0.015138,1,-0.466799, 0.054780, 9.795381,1,0
1778257569994,  2506.108,  2506.103,-0.366042, 0.028408,-1.208571,-0.003883,-0.000344,-0.011654,-2.215843,-1.086784, 5.325713,1, 0.283913,-0.064797, 0.009312,1,-0.452467, 0.099041, 9.795706,1,0
1778257570016,  2506.128,  2506.128, 0.003627, 0.064353,-1.668190,-0.000449, 0.000619,-0.019027,-0.424581, 0.760026,-6.564361,1, 0.161254, 0.144259,-0.019109,1,-0.464651, 0.133940, 9.794721,1,0
1778257570042,  2506.153,  2506.153,-0.191920,-0.085805, 0.003738,-0.001051,-0.000591, 0.001134,-2.350094,-0.662830, 9.830497,1, 0.217320,-0.096138, 0.016386,1,-0.464999, 0.185425, 9.793864,1,0
1778257570064,  2506.178,  2506.173,-0.275170, 0.093236,-1.987914,-0.002822, 0.000986,-0.020551,-2.008164, 1.877991,-5.559454,1, 0.011752,-0.093299,-0.002294,1,-0.441143, 0.198741, 9.794706,1,0
1778257570086,  2506.198,  2506.198, 0.203052, 0.078110,-0.544288, 0.000879, 0.000771,-0.005732, 1.527103, 0.965472, 4.455983,1, 0.016138, 0.084845, 0.084635,1,-0.466744, 0.200099, 9.793492,1,0
1778257570112,  2506.223,  2506.223,-0.195264, 0.163501,-0.779966,-0.000321, 0.001390,-0.008008,-2.367046, 1.782046, 2.145730,1,-0.220662,-0.100064, 0.178239,1,-0.448939, 0.172031, 9.794858,1,0
1778257570134,  2506.248,  2506.243,-0.075605, 0.231267,-0.371635, 0.001185, 0.002261,-0.005459, 1.857133, 2.698244,-4.758779,1,-0.343067, 0.172155, 0.277470,1,-0.470183, 0.114441, 9.794703,1,0
1778257570156,  2506.268,  2506.268, 0.166992, 0.358446,-1.105198,-0.000142, 0.003206,-0.008374, 1.161225, 3.510231,-1.043245,1,-0.748046,-0.028599, 0.447115,1,-0.475523,-0.027564, 9.795075,1,0
1778257570182,  2506.293,  2506.293,-0.076824, 0.410199,-1.039943,-0.000024, 0.004182,-0.012793,-1.242510, 3.876340,-0.405041,1,-0.756376, 0.093556, 0.583307,1,-0.492304,-0.169012, 9.792827,1,0
1778257570204,  2506.318,  2506.313,-0.108539, 0.264779,-0.988941,-0.000948, 0.003203,-0.007190, 1.979968, 2.266244, 2.431380,1,-0.893606,-0.009026, 0.658227,1,-0.499380,-0.322280, 9.788623,1,0
1778257570227,  2506.338,  2506.338, 0.151816, 0.352396,-1.552355, 0.000619, 0.002764,-0.016882, 0.974784, 2.900949,-5.446018,1,-1.012545, 0.011937, 0.681406,1,-0.515588,-0.585277, 9.775582,1,0
1778257570252,  2506.363,  2506.363,-0.124086,-0.092669,-0.817942, 0.000391,-0.000486,-0.008136,-1.743770,-1.623893, 1.745022,1,-0.779537, 0.065041, 0.640220,1,-0.530377,-0.738287, 9.764426,1,0
1778257570274,  2506.388,  2506.383,-0.183329, 0.042004,-1.353888,-0.001000,-0.000749,-0.013915,-0.137305,-1.405323, 4.218193,1,-0.653994, 0.045880, 0.464653,1,-0.550075,-0.864771, 9.752947,1,0
1778257570297,  2506.408,  2506.408,-0.119252,-0.184861,-1.460171,-0.001833,-0.000937,-0.015125,-1.752717,-2.824327,-4.582508,1,-0.349819, 0.140689, 0.139756,1,-0.588062,-1.022040, 9.735502,1,0
1778257570322,  2506.433,  2506.433,-0.138682,-0.413381,-0.253282,-0.001121,-0.004671,-0.002581,-1.957272,-5.114003, 7.247015,1,-0.230266,-0.024138,-0.043426,1,-0.596370,-1.067338, 9.730135,1,0
1778257570344,  2506.458,  2506.453,-0.169664,-0.181999,-1.644446,-0.001618,-0.002819,-0.017956,-4.936470,-2.181552,-3.629011,1,-0.095340,-0.044574,-0.328063,1,-0.581331,-1.102848, 9.727084,1,0
1778257570367,  2506.483,  2506.478,-0.099050,-0.236992,-0.694490, 0.000115,-0.002772,-0.007350,-1.554949,-3.413417, 2.917848,1, 0.170819, 0.081090,-0.496499,1,-0.584391,-1.084949, 9.728913,1,0
1778257570393,  2506.503,  2506.503, 0.115485,-0.493884,-0.799676,-0.000319,-0.004534,-0.007629, 0.558850,-5.896501, 1.890899,1, 0.279130,-0.010964,-0.639794,1,-0.571157,-1.045661, 9.734000,1,0
1778257570414,  2506.528,  2506.523, 0.170831,-0.323759,-0.879789, 0.000859,-0.002857,-0.009677, 1.138846,-3.029539,-3.951844,1, 0.260010, 0.107350,-0.779776,1,-0.571328,-1.002577, 9.738522,1,0
1778257570437,  2506.553,  2506.548, 0.130721,-0.209436,-1.030136, 0.000834,-0.002250,-0.009263, 0.704498,-2.969766,-0.355493,1, 0.313821, 0.117438,-0.808323,1,-0.578722,-0.907650, 9.747392,1,0
1778257570463,  2506.573,  2506.573, 0.004089,-0.126194,-0.745336,-0.000054,-0.000387,-0.007723,-0.532774,-2.086705, 2.443749,1, 0.424553,-0.038023,-0.820358,1,-0.569470,-0.837484, 9.754215,1,0
1778257570484,  2506.598,  2506.593, 0.016061,-0.094819,-1.341652,-0.000580,-0.000028,-0.014095,-2.461280,-1.916502,-3.540877,1, 0.388668, 0.024430,-0.770153,1,-0.554006,-0.774303, 9.760324,1,0
1778257570507,  2506.623,  2506.618,-0.143374,-0.017856,-0.605337,-0.000623,-0.000380,-0.006340,-1.951848,-0.860779, 3.831075,1, 0.402256,-0.115825,-0.630262,1,-0.540851,-0.674260, 9.768482,1,0
1778257570533,  2506.643,  2506.643,-0.198143, 0.156616,-1.382014,-0.002366, 0.001050,-0.013289,-2.463645, 0.900266,-3.780752,1, 0.189161,-0.013653,-0.515915,1,-0.519060,-0.630580, 9.772580,1,0
1778257570554,  2506.668,  2506.663,-0.128601, 0.154204,-1.049208,-0.001466, 0.000925,-0.009612,-0.287155, 0.110829, 1.612240,1, 0.243730, 0.018614,-0.428513,1,-0.515393,-0.585276, 9.775593,1,0
1778257570577,  2506.693,  2506.688, 0.045918, 0.243201,-1.251017,-0.000567, 0.002874,-0.012747,-0.075471, 1.824641,-2.491786,1, 0.021042, 0.076684,-0.265201,1,-0.527688,-0.560135, 9.776409,1,0
1778257570603,  2506.713,  2506.713,-0.188338, 0.154076,-0.771101,-0.000960, 0.001658,-0.007445,-2.378986, 0.950112, 2.214215,1,-0.014799, 0.023644,-0.131488,1,-0.532522,-0.561539, 9.776067,1,0
1778257570624,  2506.738,  2506.733,-0.086330, 0.320072,-1.294141,-0.000179, 0.003600,-0.013419,-3.371664, 3.299169,-1.955628,1,-0.267120, 0.057649, 0.006631,1,-0.539188,-0.601578, 9.773319,1,0
1778257570647,  2506.763,  2506.758,-0.178812, 0.309687,-0.365126,-0.000503, 0.002838,-0.004023,-2.309847, 2.354931, 6.186399,1,-0.320011,-0.002149, 0.224737,1,-0.556723,-0.691611, 9.766376,1,0
1778257570673,  2506.783,  2506.783,-0.025177, 0.485409,-1.310679,-0.001576, 0.004586,-0.011636,-0.812776, 3.987734,-3.093608,1,-0.553835, 0.099264, 0.325240,1,-0.569755,-0.789128, 9.758229,1,0
1778257570694,  2506.808,  2506.803, 0.057183, 0.417464, 0.267805, 0.000224, 0.003949, 0.001601, 2.988813, 2.526360,-3.657057,1,-0.566319, 0.101861, 0.435767,1,-0.600148,-0.898942, 9.746902,1,0
1778257570721,  2506.833,  2506.833, 0.249994, 0.718279,-1.441869, 0.000044, 0.005411,-0.016347, 1.832509, 6.014699,-4.407125,1,-0.799146, 0.143606, 0.390316,1,-0.624816,-1.053208, 9.729889,1,0
1778257570743,  2506.853,  2506.853,-0.058148, 0.046212,-0.142401,-0.001334, 0.000838,-0.002461,-1.186705,-0.631131, 8.330523,1,-0.301906,-0.280247, 0.442023,1,-0.609310,-1.092790, 9.726507,1,0
1778257570764,  2506.878,  2506.873, 0.069009, 0.338509,-1.884475,-0.000048, 0.003520,-0.017866,-2.798434, 0.056648,-5.438153,1,-0.227803,-0.038235, 0.353287,1,-0.588538,-1.157446, 9.720304,1,0
1778257570791,  2506.903,  2506.903, 0.149863,-0.015045,-0.907774, 0.001447, 0.000306,-0.010166, 0.881071,-1.329930, 0.815079,1,-0.000292,-0.039006, 0.326530,1,-0.588582,-1.181796, 9.717372,1,0
1778257570813,  2506.928,  2506.923,-0.008894, 0.049802,-1.083754,-0.000315, 0.001031,-0.009982,-0.084923,-1.745367, 0.600738,1,-0.052940,-0.006760, 0.232554,1,-0.599813,-1.180946, 9.716788,1,0
1778257570835,  2506.948,  2506.943,-0.144825, 0.029967,-1.218673,-0.001731, 0.000836,-0.012110,-2.659289,-0.493663,-0.838861,1,-0.114825,-0.052555, 0.148215,1,-0.591896,-1.196731, 9.715343,1,0
1778257570862,  2506.973,  2506.973,-0.193826,-0.057670,-0.791080,-0.001900,-0.000061,-0.007884,-2.491461,-1.775952, 1.955873,1, 0.007447,-0.087759, 0.072541,1,-0.588239,-1.210034, 9.713917,1,0
1778257570883,  2506.998,  2506.993,-0.162834,-0.047723,-1.483530,-0.001847, 0.000305,-0.014487,-3.835305,-0.732731,-2.583737,1,-0.018890,-0.121948,-0.000112,1,-0.567185,-1.213842, 9.714694,1,0
1778257570905,  2507.018,  2507.013, 0.103935,-0.178048,-0.776673, 0.000590,-0.001183,-0.008142,-1.203408,-0.659688,-0.248698,1, 0.100034,-0.070029,-0.072665,1,-0.547820,-1.199135, 9.717631,1,0
1778257570932,  2507.043,  2507.043, 0.006094,-0.155196,-1.040429, 0.000314,-0.002058,-0.011261,-0.467094,-2.681222,-0.479496,1, 0.142175,-0.075557,-0.230500,1,-0.523664,-1.155255, 9.724277,1,0
1778257570953,  2507.068,  2507.063, 0.098519,-0.153745,-1.133378, 0.000045, 0.000029,-0.010916,-2.932659,-1.657666,-3.782948,1, 0.077478,-0.040557,-0.301049,1,-0.505020,-1.131435, 9.728063,1,0
1778257570975,  2507.088,  2507.083,-0.051944,-0.083190, 0.134993,-0.001250,-0.000496, 0.000985,-0.678328,-0.404884,11.019197,1, 0.284243, 0.026587,-0.293340,1,-0.503175,-1.089724, 9.732919,1,0
1778257571002,  2507.113,  2507.113,-0.087418,-0.098394,-1.709636,-0.001361,-0.000760,-0.015393,-1.279572,-2.030374,-7.026360,1, 0.110990,-0.043474,-0.322916,1,-0.419846,-1.062451, 9.739882,1,0
1778257571023,  2507.138,  2507.133, 0.164614, 0.032288,-0.634842, 0.002164, 0.001090,-0.007370, 3.640767,-0.284260,-0.613813,1, 0.220863, 0.025237,-0.340023,1,-0.442396,-1.023536, 9.743052,1,0
1778257571045,  2507.158,  2507.153, 0.035994,-0.168982,-1.511989, 0.000044,-0.001255,-0.013717,-0.575261,-2.339304,-0.730892,1, 0.094014,-0.005086,-0.316357,1,-0.416966,-0.988873, 9.747751,1,0
1778257571072,  2507.183,  2507.183, 0.102190,-0.064273,-0.986400, 0.001128,-0.000225,-0.010889, 0.551855,-1.578124, 0.077063,1, 0.202762, 0.055590,-0.310579,1,-0.451077,-0.941970, 9.750877,1,0
1778257571093,  2507.208,  2507.203,-0.269801, 0.116466,-0.687436,-0.002393, 0.001693,-0.006295,-1.613430,-1.816072, 4.989341,1, 0.145111, 0.105632,-0.270541,1,-0.463593,-0.916461, 9.752721,1,0
1778257571115,  2507.228,  2507.223,-0.278076, 0.095430,-1.482045,-0.003044, 0.001729,-0.014043,-3.716605, 0.623453,-0.698839,1, 0.034616,-0.039473,-0.284157,1,-0.457081,-0.904218, 9.754171,1,0
1778257571142,  2507.253,  2507.253,-0.131532, 0.025694,-1.096461,-0.001502, 0.000787,-0.011980,-1.736277,-0.633186,-0.996200,1, 0.165468,-0.024960,-0.264380,1,-0.444865,-0.880394, 9.756915,1,0
1778257571163,  2507.278,  2507.273, 0.025781, 0.037862,-0.658435, 0.000112, 0.000018,-0.006769,-0.103634,-2.152892, 3.422823,1, 0.219041,-0.109605,-0.235461,1,-0.427529,-0.850039, 9.760381,1,0
1778257571185,  2507.298,  2507.293,-0.017848, 0.132827,-1.237972,-0.000187, 0.000949,-0.012369,-0.110703,-1.654712, 0.633942,1, 0.210373,-0.111695,-0.263196,1,-0.399705,-0.817313, 9.764355,1,0
1778257571212,  2507.323,  2507.323,-0.118409, 0.126142,-1.183373,-0.000922, 0.001376,-0.012298,-1.545356, 0.471782,-1.835729,1, 0.292836,-0.015450,-0.324849,1,-0.382890,-0.756540, 9.769924,1,0
1778257571234,  2507.348,  2507.343,-0.058817, 0.021662,-1.117190,-0.000232,-0.000581,-0.011491,-2.954819,-0.451171,-0.096955,1, 0.353154, 0.040555,-0.311594,1,-0.377781,-0.694193, 9.774752,1,0
1778257571256,  2507.368,  2507.368,-0.068246,-0.004797,-0.486935,-0.000359,-0.000589,-0.004032,-1.025709,-0.633484, 5.007391,1, 0.440899,-0.028741,-0.312607,1,-0.354965,-0.573069, 9.783454,1,0
1778257571282,  2507.393,  2507.393, 0.079525, 0.086961,-1.284779, 0.000699, 0.000060,-0.012411, 0.417465, 0.356396,-2.812020,1, 0.478450, 0.083135,-0.383735,1,-0.364387,-0.481935, 9.788020,1,0
1778257571304,  2507.418,  2507.413, 0.123837,-0.128901,-0.649971, 0.001231,-0.000683,-0.008053, 0.229029, 0.552515,-1.807089,1, 0.651248, 0.077429,-0.406410,1,-0.377838,-0.367338, 9.792481,1,0
1778257571326,  2507.438,  2507.438,-0.032371,-0.164669,-0.714907,-0.000140,-0.001597,-0.006917,-0.703744,-1.777572, 2.786798,1, 0.837303,-0.004954,-0.389477,1,-0.385936,-0.137090, 9.798094,1,0
1778257571352,  2507.463,  2507.463,-0.102679, 0.042376,-1.939924,-0.000856, 0.000635,-0.020154,-1.404821, 0.410544,-9.225632,1, 0.867471, 0.120392,-0.400657,1,-0.401629, 0.021527, 9.798399,1,0
1778257571374,  2507.488,  2507.483,-0.087100,-0.005315,-0.514564,-0.001114,-0.000046,-0.003932,-1.214824, 0.154702, 3.718810,1, 0.990788,-0.001382,-0.338126,1,-0.417889, 0.201813, 9.795664,1,0
1778257571397,  2507.508,  2507.508, 0.021265, 0.141382,-1.128081, 0.000182, 0.001240,-0.009727,-0.206259, 1.823902,-1.274634,1, 0.801949,-0.011844,-0.248785,1,-0.414773, 0.462086, 9.786972,1,0
1778257571422,  2507.533,  2507.533, 0.220792, 0.143734,-1.207470, 0.001378, 0.001275,-0.011191, 1.750370, 1.994191,-2.060857,1, 0.656219, 0.010784,-0.146264,1,-0.415468, 0.604881, 9.779156,1,0
1778257571444,  2507.558,  2507.553, 0.079414, 0.292948,-0.689235, 0.000841, 0.003478,-0.006746, 1.824877, 1.348566, 2.550095,1, 0.513671,-0.094564, 0.023173,1,-0.402131, 0.723166, 9.771679,1,0
1778257571467,  2507.578,  2507.578, 0.106442, 0.350886,-0.840638, 0.001440, 0.004356,-0.009131, 0.668099, 4.262267, 1.521124,1, 0.370341,-0.086715, 0.316759,1,-0.372215, 0.833138, 9.764104,1,0
1778257571492,  2507.603,  2507.603, 0.123418, 0.355800,-0.979037, 0.001529, 0.004394,-0.009837, 0.849940, 4.356437, 0.160498,1, 0.218764,-0.027901, 0.444776,1,-0.358286, 0.874542, 9.761003,1,0
1778257571514,  2507.628,  2507.623, 0.219923, 0.350066,-1.712860, 0.001815, 0.002578,-0.016885, 0.884014, 3.903834,-4.555483,1, 0.065077, 0.056417, 0.602154,1,-0.350343, 0.889091, 9.759977,1,0
1778257571537,  2507.648,  2507.648, 0.259387, 0.304443,-0.691979, 0.002296, 0.002363,-0.007311, 2.172023, 3.871913, 2.973437,1,-0.068665, 0.101306, 0.782186,1,-0.372633, 0.885137, 9.759511,1,0
1778257571562,  2507.673,  2507.673, 0.251912, 0.359393,-1.000403, 0.001773, 0.003109,-0.009337, 2.091526, 4.396322,-0.050144,1,-0.235236, 0.174282, 0.811311,1,-0.382045, 0.865551, 9.760904,1,0
1778257571584,  2507.698,  2507.693,-0.013668, 0.061952,-1.198969,-0.000297, 0.000300,-0.011895, 0.989343, 3.378954,-2.517100,1,-0.339193, 0.207180, 0.839348,1,-0.408034, 0.823112, 9.763523,1,0
