Time,GPS_ts,fGPS_ts,scaledAccelX,scaledAccelY,scaledAccelZ,deltaVelX,deltaVelY,deltaVelZ,estLinearAccelX,estLinearAccelY,estLinearAccelZ,estLinearAccel:valid,estAngularRateX,estAngularRateY,estAngularRateZ,estAngularRate:valid,estGravityX,estGravityY,estGravityZ,estGravity:valid,flag
1778255962270,   886.470,   886.470, 0.047916, 0.010681,-0.994584, 0.000479, 0.000107,-0.009948, 0.019425, 0.003128, 0.042233,1,-0.000943, 0.000404, 0.000315,1,-0.450487,-0.101649, 9.795770,1,0
1778255962270,   886.495,   886.490, 0.048065, 0.011398,-0.994583, 0.000480, 0.000111,-0.009946, 0.019915, 0.009137, 0.038818,1,-0.000402, 0.000158, 0.000467,1,-0.450461,-0.101753, 9.795771,1,0
1778255962270,   886.520,   886.520, 0.047075, 0.011395,-0.995089, 0.000472, 0.000113,-0.009953, 0.010543, 0.009473, 0.037246,1, 0.001555, 0.000412,-0.000266,1,-0.451318,-0.102473, 9.795723,1,0
1778255962270,   886.545,   886.540, 0.046225, 0.011203,-0.994958, 0.000463, 0.000111,-0.009951,-0.000665, 0.012651, 0.036340,1, 0.002068,-0.000740, 0.000867,1,-0.451306,-0.102103, 9.795728,1,0
1778255962270,   886.570,   886.565, 0.045728, 0.010830,-0.994960, 0.000459, 0.000110,-0.009949,-0.002841, 0.004849, 0.038516,1, 0.003245,-0.000100, 0.000201,1,-0.451280,-0.101260, 9.795737,1,0
1778255962270,   886.595,   886.590, 0.045257, 0.010631,-0.994682, 0.000454, 0.000107,-0.009948,-0.002279, 0.008747, 0.037623,1, 0.003886,-0.000051, 0.000430,1,-0.451264,-0.100603, 9.795745,1,0
1778255962270,   886.615,   886.615, 0.044644, 0.010279,-0.995218, 0.000450, 0.000103,-0.009955,-0.013423, 0.001188, 0.035998,1, 0.004259, 0.000680, 0.001221,1,-0.451250,-0.099478, 9.795757,1,0
1778255962270,   886.640,   886.640, 0.044679, 0.010614,-0.995438, 0.000446, 0.000106,-0.009954,-0.013063, 0.005344, 0.033850,1, 0.005052, 0.000172, 0.000886,1,-0.451216,-0.098585, 9.795768,1,0
1778255962270,   886.665,   886.660, 0.044035, 0.010991,-0.995216, 0.000442, 0.000107,-0.009950,-0.014553, 0.001551, 0.040066,1, 0.005737,-0.001298, 0.000256,1,-0.451128,-0.097494, 9.795783,1,0
1778255962270,   886.690,   886.690, 0.044140, 0.010532,-0.995332, 0.000441, 0.000107,-0.009951,-0.018154, 0.007383, 0.034928,1, 0.006624,-0.000538, 0.000611,1,-0.451000,-0.095695, 9.795807,1,0
1778255962270,   886.705,   886.700, 0.043673, 0.010185,-0.995611, 0.000437, 0.000103,-0.009955,-0.020971, 0.006545, 0.043818,1, 0.007062,-0.000209, 0.000473,1,-0.450964,-0.095013, 9.795815,1,0
1778255962281,   898.420,   898.420, 0.043151, 0.009546,-0.995394, 0.000436, 0.000095,-0.009954, 0.001164,-0.002610, 0.045420,1,-0.002905,-0.000350,-0.000222,1,-0.444862,-0.027475, 9.796516,1,0
1778255962303,   898.445,   898.440, 0.045171, 0.002207,-0.995567, 0.000453, 0.000022,-0.009962,-0.006349,-0.008697, 0.034219,1,-0.002812,-0.000229,-0.000392,1,-0.444812,-0.028011, 9.796516,1,0
1778255962325,   898.470,   898.465, 0.045218, 0.002460,-0.995128, 0.000450, 0.000026,-0.009951,-0.001424,-0.004660, 0.037637,1,-0.003943,-0.000708, 0.000336,1,-0.444839,-0.028906, 9.796513,1,0
1778255962351,   898.490,   898.490, 0.044392, 0.003204,-0.994703, 0.000445, 0.000033,-0.009950,-0.009405, 0.001916, 0.041814,1,-0.003310,-0.000230,-0.000736,1,-0.444739,-0.029607, 9.796515,1,0
1778255962373,   898.515,   898.510, 0.044479, 0.002963,-0.995585, 0.000445, 0.000028,-0.009953,-0.012322,-0.000161, 0.037527,1,-0.004369, 0.001114, 0.000483,1,-0.444831,-0.030432, 9.796509,1,0
1778255962396,   898.540,   898.535, 0.044630, 0.002866,-0.994779, 0.000448, 0.000030,-0.009948,-0.007300,-0.003434, 0.041051,1,-0.005152,-0.000290,-0.000052,1,-0.444958,-0.031697, 9.796499,1,0
1778255962421,   898.560,   898.560, 0.044447, 0.003589,-0.994644, 0.000443, 0.000037,-0.009946,-0.009106, 0.002662, 0.042374,1,-0.005280, 0.000152,-0.000489,1,-0.444988,-0.032700, 9.796494,1,0
1778255962443,   898.585,   898.580, 0.045837, 0.004197,-0.995274, 0.000457, 0.000044,-0.009952, 0.007519, 0.011877, 0.037876,1,-0.004948, 0.000391,-0.000604,1,-0.445036,-0.033588, 9.796489,1,0
1778255962466,   898.610,   898.605, 0.046490, 0.004241,-0.994854, 0.000464, 0.000043,-0.009949, 0.010776, 0.006941, 0.040296,1,-0.003285, 0.000748,-0.000064,1,-0.445156,-0.034749, 9.796479,1,0
1778255962491,   898.630,   898.630, 0.045936, 0.004136,-0.995283, 0.000461, 0.000042,-0.009954, 0.005253, 0.005181, 0.036081,1,-0.002952, 0.000613,-0.000082,1,-0.445244,-0.035471, 9.796473,1,0
1778255962513,   898.655,   898.650, 0.045833, 0.004016,-0.994687, 0.000456, 0.000042,-0.009945, 0.001649, 0.005453, 0.043165,1,-0.002244, 0.000158,-0.000010,1,-0.445346,-0.036061, 9.796466,1,0
1778255962536,   898.680,   898.675, 0.045336, 0.004539,-0.995402, 0.000453, 0.000045,-0.009957,-0.000779, 0.007941, 0.034903,1,-0.002166, 0.000465,-0.000269,1,-0.445392,-0.036642, 9.796462,1,0
1778255962562,   898.700,   898.700, 0.045158, 0.003942,-0.995486, 0.000452, 0.000039,-0.009955,-0.002575, 0.001688, 0.034074,1,-0.001823, 0.000214,-0.000150,1,-0.445432,-0.037031, 9.796459,1,0
1778255962583,   898.725,   898.720, 0.045049, 0.005055,-0.995173, 0.000451, 0.000050,-0.009952, 0.001173, 0.005402, 0.040656,1,-0.001346,-0.000171, 0.000515,1,-0.445431,-0.037529, 9.796457,1,0
1778255962606,   898.750,   898.745, 0.045221, 0.004295,-0.995582, 0.000453, 0.000042,-0.009953,-0.001869, 0.004275, 0.033136,1,-0.000395,-0.000832, 0.000151,1,-0.445308,-0.037858, 9.796461,1,0
1778255962632,   898.770,   898.770, 0.045363, 0.004491,-0.995636, 0.000453, 0.000045,-0.009955,-0.000456, 0.006073, 0.032605,1,-0.000924, 0.000849,-0.000151,1,-0.445343,-0.037996, 9.796459,1,0
1778255962653,   898.795,   898.790, 0.044628, 0.004649,-0.994306, 0.000449, 0.000044,-0.009945,-0.004773, 0.003577, 0.045157,1,-0.000089, 0.000175, 0.000550,1,-0.445352,-0.038085, 9.796458,1,0
1778255962680,   898.820,   898.820, 0.045644, 0.004114,-0.995719, 0.000454, 0.000042,-0.009954, 0.002344, 0.002118, 0.031790,1,-0.000416,-0.000361, 0.000570,1,-0.445262,-0.038241, 9.796462,1,0
1778255962702,   898.840,   898.840, 0.045008, 0.004730,-0.994810, 0.000450, 0.000048,-0.009950,-0.003858, 0.008233, 0.040707,1, 0.001104,-0.000270, 0.000103,1,-0.445229,-0.038122, 9.796464,1,0
1778255962723,   898.865,   898.860, 0.044785, 0.003945,-0.995099, 0.000446, 0.000040,-0.009954,-0.007030, 0.006729, 0.039848,1, 0.001040, 0.000286, 0.000080,1,-0.445294,-0.037932, 9.796461,1,0
1778255962750,   898.890,   898.890, 0.045171, 0.003255,-0.994719, 0.000450, 0.000031,-0.009948,-0.002236,-0.005912, 0.041606,1, 0.000356, 0.000107,-0.000021,1,-0.445219,-0.037823, 9.796465,1,0
1778255962772,   898.915,   898.910, 0.044670, 0.004386,-0.995304, 0.000450, 0.000043,-0.009956,-0.006272,-0.001150, 0.034244,1, 0.000456,-0.000320, 0.000082,1,-0.445243,-0.037790, 9.796464,1,0
1778255962794,   898.935,   898.930, 0.045065, 0.003470,-0.995109, 0.000449, 0.000034,-0.009952,-0.007295, 0.005471, 0.034637,1, 0.000042, 0.000317, 0.000421,1,-0.445294,-0.037951, 9.796461,1,0
1778255962821,   898.960,   898.960, 0.045140, 0.003865,-0.995143, 0.000452, 0.000039,-0.009950,-0.002615,-0.000134, 0.037441,1,-0.000921,-0.000077,-0.000220,1,-0.445281,-0.038069, 9.796462,1,0
1778255962842,   898.985,   898.980, 0.045408, 0.004285,-0.994786, 0.000453, 0.000045,-0.009949, 0.004258, 0.005735, 0.040315,1,-0.001068, 0.000865,-0.000021,1,-0.445370,-0.038206, 9.796457,1,0
1778255962864,   899.005,   899.000, 0.045554, 0.004260,-0.994962, 0.000455, 0.000041,-0.009949,-0.000079, 0.000720, 0.034763,1,-0.000950,-0.000042, 0.000073,1,-0.445410,-0.038422, 9.796454,1,0
1778255962891,   899.030,   899.030, 0.045260, 0.003957,-0.995208, 0.000453, 0.000039,-0.009954,-0.001728, 0.000048, 0.036784,1,-0.001982, 0.000170, 0.000004,1,-0.445587,-0.038817, 9.796445,1,0
1778255962912,   899.055,   899.050, 0.045101, 0.004232,-0.995513, 0.000452, 0.000042,-0.009953,-0.001662, 0.002465, 0.037336,1,-0.001501,-0.000199, 0.000357,1,-0.445517,-0.039126, 9.796447,1,0
1778255962934,   899.075,   899.070, 0.045307, 0.004599,-0.995160, 0.000451, 0.000046,-0.009954,-0.003767, 0.000742, 0.041477,1,-0.001718,-0.000235, 0.000285,1,-0.445503,-0.039432, 9.796446,1,0
1778255962961,   899.100,   899.100, 0.044958, 0.004471,-0.995372, 0.000449, 0.000044,-0.009955,-0.004648, 0.003969, 0.035182,1,-0.001883,-0.000547, 0.000277,1,-0.445517,-0.039939, 9.796443,1,0
1778255962983,   899.125,   899.120, 0.045621, 0.004328,-0.994839, 0.000455, 0.000041,-0.009949,-0.000936, 0.000086, 0.038442,1,-0.000296,-0.000449, 0.000590,1,-0.445464,-0.040228, 9.796445,1,0
1778255963004,   899.145,   899.140, 0.045319, 0.004508,-0.994990, 0.000455, 0.000045,-0.009949, 0.000991, 0.003214, 0.047840,1,-0.000612,-0.000168,-0.000448,1,-0.445473,-0.040376, 9.796444,1,0
1778255963031,   899.170,   899.170, 0.045799, 0.004137,-0.995047, 0.000457, 0.000038,-0.009949, 0.003689, 0.000022, 0.038368,1,-0.000451,-0.000340, 0.000236,1,-0.445437,-0.040566, 9.796445,1,0
1778255963053,   899.195,   899.190, 0.045533, 0.004038,-0.994978, 0.000457, 0.000040,-0.009949, 0.002342, 0.000764, 0.039899,1,-0.001005,-0.000071, 0.000239,1,-0.445487,-0.040703, 9.796442,1,0
1778255963074,   899.215,   899.210, 0.045473, 0.003557,-0.994657, 0.000455, 0.000035,-0.009948, 0.002709,-0.001925, 0.035686,1,-0.001135, 0.000573, 0.000315,1,-0.445599,-0.040943, 9.796435,1,0
1778255963101,   899.240,   899.240, 0.045935, 0.004916,-0.995723, 0.000459, 0.000049,-0.009957, 0.004857, 0.007020, 0.031727,1,-0.001163, 0.000307,-0.000190,1,-0.445624,-0.041231, 9.796433,1,0
1778255963123,   899.265,   899.260, 0.045976, 0.005411,-0.994674, 0.000460, 0.000055,-0.009948, 0.003704, 0.006330, 0.037701,1,-0.000209, 0.000675, 0.000106,1,-0.445695,-0.041381, 9.796430,1,0
1778255963144,   899.285,   899.280, 0.045594, 0.004865,-0.994976, 0.000455, 0.000050,-0.009948, 0.001208, 0.012759, 0.042270,1, 0.000553, 0.000160, 0.000281,1,-0.445649,-0.041376, 9.796432,1,0
1778255963171,   899.310,   899.310, 0.045229, 0.005061,-0.995305, 0.000452, 0.000048,-0.009954,-0.002118, 0.008704, 0.035826,1, 0.002881, 0.000527, 0.000141,1,-0.445678,-0.040834, 9.796432,1,0
1778255963193,   899.335,   899.330, 0.044619, 0.005067,-0.995006, 0.000444, 0.000051,-0.009952,-0.009030, 0.006697, 0.036869,1, 0.002961,-0.000639, 0.000238,1,-0.445843,-0.040519, 9.796426,1,0
1778255963216,   899.355,   899.355, 0.044907, 0.004252,-0.995470, 0.000448, 0.000044,-0.009956,-0.005301, 0.001867, 0.034207,1, 0.002853,-0.000446,-0.000053,1,-0.445673,-0.039742, 9.796437,1,0
1778255963242,   899.380,   899.380, 0.045136, 0.004125,-0.994738, 0.000451, 0.000040,-0.009945,-0.003052, 0.001291, 0.041395,1, 0.003907,-0.000518,-0.000305,1,-0.445673,-0.039036, 9.796440,1,0
1778255963263,   899.405,   899.400, 0.045812, 0.005835,-0.992460, 0.000459, 0.000050,-0.009950,-0.014640, 0.000905, 0.047265,1, 0.002803,-0.000617, 0.000284,1,-0.445558,-0.038386, 9.796448,1,0
1778255963286,   899.425,   899.425, 0.046242, 0.006459,-0.996405, 0.000459, 0.000060,-0.009964, 0.007935, 0.025978, 0.025057,1, 0.004477,-0.000488,-0.000299,1,-0.445526,-0.037223, 9.796453,1,0
1778255963312,   899.450,   899.450, 0.046832, 0.003811,-0.993886, 0.000466, 0.000043,-0.009941, 0.013839, 0.001137, 0.049766,1, 0.007414,-0.000743,-0.000374,1,-0.445401,-0.036007, 9.796464,1,0
1778255963333,   899.475,   899.470, 0.046064, 0.004831,-0.995679, 0.000459, 0.000049,-0.009952, 0.011392, 0.007731, 0.046013,1, 0.007614, 0.000348,-0.001070,1,-0.445375,-0.034612, 9.796470,1,0
1778255963356,   899.495,   899.495, 0.045360, 0.003842,-0.994670, 0.000457, 0.000040,-0.009948,-0.000405, 0.005005, 0.042101,1, 0.007314,-0.001610,-0.000089,1,-0.445182,-0.032444, 9.796486,1,0
1778255963382,   899.520,   899.520, 0.044887, 0.002679,-0.994710, 0.000456, 0.000020,-0.009956,-0.004975,-0.005191, 0.041715,1, 0.005846,-0.000767,-0.000269,1,-0.445163,-0.031360, 9.796491,1,0
1778255963403,   899.545,   899.540, 0.045367, 0.001205,-0.997180, 0.000453, 0.000016,-0.009960,-0.000056,-0.009068, 0.054268,1, 0.004011,-0.000810, 0.000443,1,-0.445009,-0.030270, 9.796501,1,0
1778255963426,   899.565,   899.565, 0.045448, 0.003723,-0.995592, 0.000453, 0.000035,-0.009965, 0.000803, 0.007267, 0.033088,1, 0.003276,-0.000382, 0.000830,1,-0.444878,-0.029139, 9.796511,1,0
1778255963452,   899.590,   899.590, 0.044604, 0.002825,-0.992170, 0.000448, 0.000030,-0.009924,-0.007337,-0.000990, 0.066656,1, 0.001807,-0.000887, 0.000693,1,-0.444728,-0.028639, 9.796519,1,0
1778255963473,   899.615,   899.610, 0.045295, 0.002372,-0.996149, 0.000456, 0.000021,-0.009966, 0.002311,-0.014273, 0.031641,1, 0.000256,-0.000164, 0.000979,1,-0.444714,-0.028446, 9.796520,1,0
1778255963496,   899.635,   899.635, 0.044577, 0.002736,-0.994506, 0.000445, 0.000028,-0.009951,-0.007391,-0.001539, 0.043757,1,-0.000486,-0.000297, 0.000563,1,-0.444537,-0.028384, 9.796528,1,0
1778255963522,   899.660,   899.660, 0.043805, 0.001864,-0.993832, 0.000439, 0.000021,-0.009936,-0.014978,-0.010228, 0.050360,1, 0.000070,-0.000089, 0.000264,1,-0.444560,-0.028504, 9.796527,1,0
1778255963544,   899.685,   899.680, 0.044426, 0.002927,-0.996200, 0.000444, 0.000031,-0.009963,-0.015124,-0.004974, 0.026246,1,-0.000847,-0.000206,-0.000036,1,-0.444544,-0.028770, 9.796527,1,0
1778255963566,   899.710,   899.705, 0.044122, 0.001743,-0.994469, 0.000442, 0.000020,-0.009949,-0.011832,-0.012011, 0.044120,1,-0.001269,-0.000214,-0.000103,1,-0.444517,-0.029140, 9.796527,1,0
1778255963592,   899.730,   899.730, 0.045116, 0.003221,-0.994329, 0.000451, 0.000031,-0.009944,-0.001939, 0.002454, 0.045501,1,-0.001569, 0.000522,-0.000344,1,-0.444394,-0.029182, 9.796533,1,0
1778255963614,   899.755,   899.750, 0.046316, 0.002306,-0.995278, 0.000461, 0.000025,-0.009954, 0.006636, 0.004011, 0.032382,1,-0.001064,-0.000710, 0.000093,1,-0.444302,-0.029466, 9.796535,1,0
1778255963637,   899.780,   899.775, 0.046559, 0.002644,-0.994195, 0.000466, 0.000024,-0.009943, 0.012168,-0.004114, 0.046801,1,-0.002369, 0.000028,-0.000457,1,-0.444425,-0.030120, 9.796528,1,0
1778255963662,   899.800,   899.800, 0.046442, 0.002919,-0.994774, 0.000467, 0.000028,-0.009949, 0.010955,-0.001997, 0.041119,1,-0.003509, 0.000601, 0.000055,1,-0.444507,-0.030736, 9.796522,1,0
1778255963684,   899.825,   899.820, 0.045397, 0.003018,-0.995103, 0.000455, 0.000032,-0.009953, 0.002161,-0.000836, 0.036683,1,-0.004197,-0.000191,-0.000161,1,-0.444534,-0.031485, 9.796519,1,0
1778255963707,   899.850,   899.845, 0.045187, 0.003283,-0.995041, 0.000454, 0.000031,-0.009949,-0.001572,-0.000478, 0.038490,1,-0.005134, 0.000404,-0.000043,1,-0.444713,-0.032829, 9.796506,1,0
1778255963732,   899.870,   899.870, 0.044644, 0.003674,-0.995167, 0.000447, 0.000038,-0.009954,-0.006930, 0.002355, 0.037243,1,-0.005238, 0.000823,-0.000457,1,-0.444764,-0.033834, 9.796500,1,0
1778255963754,   899.895,   899.890, 0.045104, 0.004519,-0.994876, 0.000451, 0.000043,-0.009951,-0.004690,-0.001347, 0.033281,1,-0.004951, 0.000235,-0.000156,1,-0.444847,-0.034774, 9.796494,1,0
1778255963777,   899.920,   899.915, 0.044803, 0.004077,-0.994648, 0.000451, 0.000040,-0.009944,-0.005597, 0.003913, 0.042321,1,-0.003928,-0.000340,-0.000665,1,-0.444990,-0.036194, 9.796482,1,0
1778255963803,   899.940,   899.940, 0.045307, 0.004473,-0.995341, 0.000454, 0.000046,-0.009956,-0.000697, 0.007051, 0.035521,1,-0.003650, 0.000307,-0.000298,1,-0.445016,-0.036932, 9.796478,1,0
1778255963824,   899.965,   899.960, 0.044532, 0.003997,-0.994882, 0.000445, 0.000038,-0.009950,-0.006880, 0.003824, 0.034879,1,-0.003750, 0.000404,-0.000208,1,-0.445060,-0.037665, 9.796474,1,0
1778255963847,   899.990,   899.985, 0.045239, 0.004890,-0.994887, 0.000454, 0.000049,-0.009948,-0.001499, 0.009385, 0.039954,1,-0.003040,-0.000130,-0.000125,1,-0.445139,-0.038668, 9.796466,1,0
1778255963873,   900.010,   900.010, 0.045304, 0.004913,-0.995384, 0.000452, 0.000046,-0.009951,-0.000854, 0.009076, 0.035085,1,-0.001995, 0.000094,-0.000577,1,-0.445138,-0.039170, 9.796464,1,0
1778255963894,   900.035,   900.030, 0.045485, 0.005347,-0.995357, 0.000455, 0.000052,-0.009951, 0.001665, 0.006881, 0.042261,1,-0.001559, 0.000948,-0.000257,1,-0.445240,-0.039482, 9.796458,1,0
1778255963921,   900.060,   900.060, 0.046445, 0.004447,-0.995131, 0.000462, 0.000046,-0.009953, 0.010195, 0.003889, 0.037549,1,-0.000438, 0.000059,-0.000250,1,-0.445276,-0.039740, 9.796455,1,0
1778255963943,   900.080,   900.080, 0.046434, 0.004691,-0.994919, 0.000466, 0.000047,-0.009949, 0.010106, 0.006157, 0.039635,1,-0.000911,-0.000091, 0.000192,1,-0.445252,-0.039878, 9.796455,1,0
1778255963964,   900.105,   900.100, 0.046248, 0.004345,-0.994646, 0.000460, 0.000041,-0.009949, 0.009229, 0.001570, 0.045023,1,-0.000617,-0.000623,-0.000285,1,-0.445231,-0.039963, 9.796456,1,0
1778255963991,   900.130,   900.130, 0.045364, 0.004086,-0.995056, 0.000455, 0.000040,-0.009951,-0.000530,-0.000264, 0.038277,1,-0.000187, 0.000596, 0.000218,1,-0.445424,-0.040341, 9.796446,1,0
1778255964013,   900.155,   900.150, 0.045099, 0.003766,-0.994545, 0.000448, 0.000038,-0.009948, 0.000062,-0.009327, 0.037813,1,-0.000960,-0.000798, 0.000181,1,-0.445309,-0.040593, 9.796451,1,0
1778255964035,   900.175,   900.170, 0.045327, 0.004225,-0.995160, 0.000454, 0.000040,-0.009951,-0.004468, 0.001584, 0.045392,1,-0.002548, 0.000635, 0.000111,1,-0.445335,-0.040960, 9.796448,1,0
1778255964062,   900.200,   900.200, 0.045173, 0.004838,-0.995407, 0.000452, 0.000048,-0.009952,-0.002436, 0.005927, 0.034831,1,-0.002203,-0.000521, 0.000391,1,-0.445413,-0.041581, 9.796441,1,0
1778255964083,   900.225,   900.220, 0.045238, 0.004900,-0.994380, 0.000450, 0.000049,-0.009943,-0.004192, 0.004293, 0.045413,1,-0.002307, 0.000626, 0.000279,1,-0.445481,-0.041951, 9.796436,1,0
1778255964105,   900.245,   900.240, 0.045583, 0.004785,-0.995811, 0.000454, 0.000049,-0.009957, 0.002371, 0.002666, 0.033496,1, 0.000097, 0.000453,-0.000137,1,-0.445552,-0.042134, 9.796432,1,0
1778255964132,   900.270,   900.270, 0.044997, 0.004725,-0.994688, 0.000449, 0.000046,-0.009948,-0.004198, 0.004033, 0.041875,1,-0.000043, 0.000020, 0.000072,1,-0.445467,-0.042308, 9.796435,1,0
1778255964153,   900.295,   900.290, 0.044666, 0.003246,-0.994784, 0.000448, 0.000034,-0.009950,-0.005141, 0.001261, 0.041383,1, 0.000296, 0.000194,-0.000374,1,-0.445437,-0.042312, 9.796437,1,0
1778255964175,   900.315,   900.310, 0.045097, 0.003838,-0.995208, 0.000451, 0.000039,-0.009951,-0.009594,-0.009056, 0.039688,1,-0.001036, 0.000325,-0.000191,1,-0.445453,-0.042499, 9.796435,1,0
1778255964202,   900.340,   900.340, 0.046018, 0.004466,-0.995701, 0.000459, 0.000042,-0.009958, 0.005914, 0.000888, 0.031944,1,-0.001525, 0.000579,-0.000539,1,-0.445386,-0.042958, 9.796436,1,0
1778255964223,   900.365,   900.360, 0.045663, 0.004346,-0.995171, 0.000455, 0.000042,-0.009952, 0.009436, 0.001519, 0.041305,1,-0.001023, 0.000649, 0.000079,1,-0.445460,-0.043207, 9.796432,1,0
1778255964245,   900.385,   900.380, 0.045685, 0.004603,-0.995115, 0.000457, 0.000047,-0.009952, 0.003284,-0.005535, 0.035867,1,-0.001869, 0.000053,-0.000205,1,-0.445388,-0.043524, 9.796434,1,0
1778255964272,   900.410,   900.410, 0.045627, 0.004917,-0.995348, 0.000459, 0.000050,-0.009954, 0.002045, 0.004323, 0.035402,1,-0.001708, 0.000007,-0.000909,1,-0.445399,-0.043953, 9.796432,1,0
1778255964294,   900.435,   900.430, 0.045616, 0.004482,-0.994366, 0.000458, 0.000045,-0.009945, 0.006582, 0.005891, 0.043420,1,-0.001134,-0.000097,-0.000521,1,-0.445374,-0.044267, 9.796432,1,0
1778255964315,   900.455,   900.450, 0.045348, 0.004181,-0.994831, 0.000452, 0.000041,-0.009947,-0.000720,-0.001556, 0.038333,1,-0.001793,-0.000434,-0.000890,1,-0.445316,-0.044589, 9.796432,1,0
1778255964342,   900.480,   900.480, 0.045230, 0.005228,-0.995894, 0.000453, 0.000050,-0.009958,-0.001870, 0.006305, 0.030039,1,-0.000550,-0.000276,-0.000427,1,-0.445415,-0.044977, 9.796426,1,0
1778255964364,   900.505,   900.500, 0.044983, 0.004637,-0.994391, 0.000452, 0.000045,-0.009945,-0.002156, 0.000961, 0.044708,1,-0.001621, 0.000160,-0.000523,1,-0.445377,-0.045205, 9.796427,1,0
1778255964385,   900.525,   900.520, 0.044475, 0.005101,-0.995090, 0.000448, 0.000049,-0.009953,-0.001911, 0.000364, 0.039423,1,-0.001878,-0.000176,-0.000563,1,-0.445467,-0.045616, 9.796421,1,0
1778255964412,   900.550,   900.550, 0.044347, 0.005430,-0.995162, 0.000445, 0.000053,-0.009956,-0.010490, 0.007280, 0.037214,1,-0.001658,-0.000220,-0.000295,1,-0.445378,-0.046024, 9.796423,1,0
1778255964434,   900.575,   900.570, 0.044845, 0.005517,-0.994982, 0.000450, 0.000053,-0.009950,-0.002715, 0.000720, 0.039604,1,-0.001404, 0.000681,-0.000749,1,-0.445442,-0.046345, 9.796418,1,0
1778255964457,   900.595,   900.595, 0.045169, 0.005453,-0.994965, 0.000451, 0.000055,-0.009952,-0.002639, 0.006650, 0.039133,1,-0.002082, 0.000443, 0.000377,1,-0.445606,-0.046895, 9.796409,1,0
1778255964482,   900.620,   900.620, 0.045590, 0.005526,-0.994775, 0.000455, 0.000055,-0.009951, 0.001481, 0.006981, 0.040992,1,-0.002154,-0.000130,-0.000246,1,-0.445603,-0.047280, 9.796407,1,0
1778255964504,   900.645,   900.640, 0.045631, 0.005412,-0.994899, 0.000454, 0.000052,-0.009947,-0.005746, 0.001794, 0.042370,1,-0.000989,-0.000012,-0.000362,1,-0.445610,-0.047485, 9.796406,1,0
1778255964527,   900.665,   900.660, 0.045594, 0.005352,-0.995267, 0.000458, 0.000055,-0.009953, 0.005030, 0.008877, 0.034758,1,-0.000456,-0.000030, 0.000376,1,-0.445629,-0.047591, 9.796404,1,0
1778255964553,   900.690,   900.690, 0.045599, 0.004963,-0.994863, 0.000458, 0.000048,-0.009950, 0.001477, 0.001060, 0.040130,1,-0.000511, 0.000087,-0.000206,1,-0.445696,-0.047626, 9.796401,1,0
1778255964574,   900.715,   900.710, 0.045613, 0.005543,-0.995268, 0.000457, 0.000052,-0.009955, 0.005072, 0.000339, 0.035227,1,-0.000295,-0.000019, 0.000025,1,-0.445658,-0.047622, 9.796403,1,0
1778255964597,   900.735,   900.735, 0.045691, 0.005005,-0.995380, 0.000458, 0.000049,-0.009954, 0.002469, 0.001460, 0.035065,1, 0.001118, 0.000478,-0.000333,1,-0.445621,-0.047587, 9.796405,1,0
1778255964623,   900.760,   900.760, 0.045535, 0.004849,-0.994501, 0.000457, 0.000049,-0.009947, 0.000867, 0.000120, 0.043682,1, 0.000976, 0.000852, 0.000099,1,-0.445706,-0.047397, 9.796402,1,0
1778255964644,   900.785,   900.780, 0.045799, 0.005399,-0.994492, 0.000456, 0.000054,-0.009947,-0.000462, 0.008773, 0.038002,1, 0.000477,-0.000251,-0.000335,1,-0.445739,-0.047282, 9.796401,1,0
1778255964667,   900.805,   900.805, 0.044934, 0.004783,-0.994985, 0.000450, 0.000051,-0.009948,-0.005077,-0.000187, 0.038927,1, 0.001038, 0.000382,-0.000275,1,-0.445746,-0.047057, 9.796401,1,0
1778255964693,   900.830,   900.830, 0.044682, 0.004775,-0.995640, 0.000450, 0.000046,-0.009956,-0.007513,-0.000072, 0.032508,1, 0.000802,-0.000170, 0.000296,1,-0.445688,-0.046878, 9.796405,1,0
1778255964714,   900.855,   900.850, 0.045196, 0.005408,-0.994781, 0.000452, 0.000056,-0.009949,-0.002299, 0.005427, 0.035783,1, 0.001317,-0.000255, 0.000195,1,-0.445725,-0.046690, 9.796404,1,0
1778255964737,   900.875,   900.875, 0.045459, 0.004731,-0.995021, 0.000453, 0.000048,-0.009951, 0.000103,-0.000228, 0.038580,1, 0.000376, 0.000007,-0.000071,1,-0.445697,-0.046608, 9.796406,1,1
1778255964763,   900.900,   900.900, 0.045366, 0.004404,-0.995029, 0.000453, 0.000047,-0.009949,-0.000754,-0.003387, 0.038502,1,-0.000020,-0.000098, 0.000042,1,-0.445643,-0.046581, 9.796409,1,1
1778255964785,   900.925,   900.920, 0.045469, 0.005359,-0.995285, 0.000454, 0.000055,-0.009954,-0.004926,-0.002223, 0.038435,1, 0.000518, 0.000147, 0.000209,1,-0.445680,-0.046599, 9.796407,1,1
1778255964807,   900.950,   900.945, 0.046016, 0.005294,-0.995029, 0.000459, 0.000052,-0.009950, 0.005531, 0.005558, 0.038502,1, 0.001347, 0.000487,-0.000136,1,-0.445744,-0.046319, 9.796405,1,1
1778255964833,   900.970,   900.970, 0.045889, 0.005054,-0.995759, 0.000458, 0.000051,-0.009959, 0.004223, 0.003380, 0.031340,1, 0.000868, 0.000486,-0.000309,1,-0.445810,-0.046161, 9.796403,1,1
1778255964855,   900.995,   900.990, 0.045731, 0.004763,-0.994321, 0.000456, 0.000046,-0.009943,-0.002269, 0.002405, 0.040358,1, 0.001390, 0.000270,-0.000461,1,-0.445877,-0.045907, 9.796401,1,1
1778255964877,   901.020,   901.015, 0.045564, 0.004787,-0.995218, 0.000458, 0.000049,-0.009949, 0.000922, 0.001221, 0.036644,1, 0.000566,-0.000272, 0.000185,1,-0.445895,-0.045702, 9.796401,1,1
1778255964903,   901.040,   901.040, 0.045918, 0.004450,-0.995104, 0.000461, 0.000044,-0.009951, 0.004464,-0.001973, 0.037771,1, 0.000627,-0.000506,-0.000029,1,-0.445818,-0.045590, 9.796405,1,1
1778255964925,   901.065,   901.060, 0.045578, 0.004369,-0.994784, 0.000458, 0.000045,-0.009947, 0.000694,-0.001675, 0.038531,1,-0.000003,-0.000242, 0.000451,1,-0.445835,-0.045511, 9.796405,1,1
1778255964948,   901.090,   901.085, 0.046008, 0.004701,-0.994818, 0.000461, 0.000046,-0.009947, 0.005389, 0.000624, 0.040573,1,-0.000262,-0.000126, 0.000579,1,-0.445793,-0.045480, 9.796407,1,1
1778255964973,   901.110,   901.110, 0.045001, 0.005220,-0.994606, 0.000449, 0.000050,-0.009948,-0.004519, 0.005676, 0.042652,1,-0.000387, 0.001094,-0.000139,1,-0.445861,-0.045530, 9.796403,1,1
1778255964995,   901.135,   901.130, 0.045375, 0.004374,-0.994472, 0.000451, 0.000045,-0.009946,-0.002029,-0.004446, 0.035245,1, 0.000013,-0.000822, 0.000203,1,-0.445874,-0.045589, 9.796403,1,1
1778255965018,   901.160,   901.155, 0.045192, 0.004642,-0.995152, 0.000452, 0.000046,-0.009953,-0.002592,-0.000020, 0.037297,1, 0.000060,-0.000230,-0.000641,1,-0.445766,-0.045545, 9.796408,1,1
1778255965043,   901.180,   901.180, 0.044778, 0.004531,-0.995641, 0.000448, 0.000048,-0.009954,-0.006661,-0.001209, 0.032500,1,-0.000170, 0.000026, 0.000043,1,-0.445783,-0.045652, 9.796407,1,1
1778255965065,   901.205,   901.200, 0.044895, 0.004671,-0.996119, 0.000450, 0.000046,-0.009961, 0.000859, 0.001234, 0.036527,1,-0.000427, 0.001076, 0.000335,1,-0.445904,-0.045719, 9.796400,1,1
1778255965088,   901.230,   901.225, 0.045189, 0.004259,-0.994457, 0.000452, 0.000044,-0.009947,-0.002758,-0.004003, 0.044103,1,-0.000571,-0.000088,-0.000109,1,-0.445911,-0.045788, 9.796400,1,1
1778255965114,   901.250,   901.250, 0.045463, 0.004599,-0.994502, 0.000453, 0.000047,-0.009946,-0.000083,-0.000702, 0.043661,1,-0.000603, 0.000190,-0.000419,1,-0.445933,-0.045822, 9.796399,1,1
1778255965135,   901.275,   901.270, 0.045713, 0.004906,-0.995226, 0.000454, 0.000050,-0.009953, 0.002995, 0.001867, 0.038364,1,-0.000913,-0.000317,-0.000241,1,-0.445869,-0.046004, 9.796401,1,1
1778255965162,   901.300,   901.300, 0.046290, 0.005408,-0.995017, 0.000462, 0.000052,-0.009954, 0.007969, 0.006916, 0.038610,1,-0.000515,-0.000113, 0.000147,1,-0.445977,-0.046135, 9.796395,1,1
1778255965184,   901.320,   901.320, 0.046011, 0.005091,-0.995328, 0.000460, 0.000050,-0.009951, 0.005216, 0.003833, 0.035560,1, 0.000095, 0.000135, 0.000218,1,-0.446013,-0.046094, 9.796393,1,1
1778255965205,   901.345,   901.340, 0.045433, 0.004461,-0.994683, 0.000455, 0.000042,-0.009946, 0.000646,-0.003598, 0.041991,1, 0.000198, 0.000090, 0.000224,1,-0.445998,-0.046067, 9.796394,1,1
1778255965232,   901.370,   901.370, 0.045022, 0.005048,-0.994477, 0.000450, 0.000051,-0.009946,-0.004583, 0.003348, 0.043903,1,-0.000632, 0.000033,-0.000323,1,-0.446098,-0.046180, 9.796390,1,1
1778255965254,   901.395,   901.390, 0.044963, 0.004313,-0.994552, 0.000446, 0.000042,-0.009949,-0.005660, 0.000601, 0.035875,1,-0.000320, 0.000214,-0.000608,1,-0.446192,-0.046271, 9.796385,1,1
1778255965276,   901.415,   901.410, 0.044671, 0.004226,-0.994060, 0.000456, 0.000034,-0.009959,-0.024560,-0.000668, 0.054556,1,-0.002037,-0.000955, 0.000283,1,-0.446115,-0.046613, 9.796387,1,1
1778255965302,   901.440,   901.440, 0.044997, 0.003737,-0.995590, 0.000450, 0.000041,-0.009948,-0.004904,-0.010463, 0.032975,1,-0.003126,-0.000075, 0.000681,1,-0.446174,-0.047211, 9.796381,1,1
1778255965324,   901.465,   901.460, 0.045466, 0.004745,-0.994857, 0.000455, 0.000043,-0.009955,-0.009235,-0.002755, 0.036587,1,-0.003138, 0.000471,-0.000095,1,-0.446151,-0.047790, 9.796379,1,1
1778255965346,   901.485,   901.480, 0.045518, 0.005022,-0.994660, 0.000456, 0.000049,-0.009941, 0.005733,-0.006011, 0.034152,1,-0.003881, 0.000143, 0.000050,1,-0.446133,-0.048463, 9.796377,1,1
1778255965373,   901.510,   901.510, 0.046331, 0.004926,-0.994802, 0.000465, 0.000048,-0.009950, 0.008247,-0.000991, 0.040700,1,-0.002900,-0.000021,-0.000254,1,-0.446104,-0.049392, 9.796373,1,1
1778255965394,   901.535,   901.530, 0.046560, 0.004948,-0.994824, 0.000463, 0.000048,-0.009944, 0.016321, 0.001314, 0.036333,1,-0.003928, 0.000451,-0.000133,1,-0.446063,-0.050017, 9.796372,1,1
1778255965416,   901.555,   901.550, 0.046609, 0.005008,-0.994345, 0.000467, 0.000053,-0.009945, 0.012186,-0.000386, 0.042538,1,-0.003261, 0.000615,-0.000015,1,-0.446090,-0.050675, 9.796368,1,1
1778255965443,   901.580,   901.580, 0.045891, 0.005892,-0.995601, 0.000460, 0.000059,-0.009956, 0.003943, 0.006220, 0.032855,1,-0.002813,-0.000502,-0.000408,1,-0.446079,-0.051648, 9.796363,1,1
1778255965464,   901.605,   901.600, 0.045378, 0.005652,-0.994552, 0.000454, 0.000055,-0.009948, 0.003113,-0.000663, 0.038938,1,-0.003059,-0.000085,-0.000310,1,-0.446043,-0.052232, 9.796362,1,1
1778255965486,   901.625,   901.620, 0.044798, 0.005738,-0.995111, 0.000448, 0.000057,-0.009949,-0.006185, 0.003784, 0.043108,1,-0.002814, 0.000237, 0.000269,1,-0.446085,-0.052809, 9.796356,1,1
1778255965513,   901.650,   901.650, 0.044799, 0.005144,-0.995707, 0.000448, 0.000054,-0.009958,-0.006743,-0.003065, 0.031808,1,-0.002390,-0.000243,-0.000328,1,-0.446066,-0.053582, 9.796353,1,1
1778255965534,   901.675,   901.670, 0.044894, 0.005345,-0.994885, 0.000451, 0.000052,-0.009949,-0.000219,-0.005305, 0.036997,1,-0.002933, 0.000149,-0.000519,1,-0.446013,-0.054142, 9.796352,1,1
1778255965556,   901.695,   901.690, 0.044978, 0.005591,-0.994853, 0.000450, 0.000057,-0.009946,-0.001986, 0.002634, 0.039419,1,-0.003494,-0.000381,-0.000569,1,-0.446037,-0.054763, 9.796349,1,1
1778255965583,   901.720,   901.720, 0.045500, 0.005311,-0.995377, 0.000454, 0.000053,-0.009956,-0.000095,-0.003372, 0.035020,1,-0.002958, 0.000193, 0.000041,1,-0.446334,-0.055547, 9.796330,1,1
1778255965604,   901.745,   901.740, 0.044938, 0.006390,-0.995021, 0.000451, 0.000063,-0.009954,-0.001902, 0.005358, 0.038224,1,-0.003916, 0.000122,-0.000242,1,-0.446395,-0.056274, 9.796323,1,1
1778255965626,   901.765,   901.760, 0.044956, 0.006391,-0.995129, 0.000449, 0.000064,-0.009951,-0.000792, 0.013385, 0.038169,1,-0.002754, 0.000257, 0.000304,1,-0.446437,-0.056844, 9.796318,1,1
1778255965653,   901.790,   901.790, 0.044196, 0.007631,-0.994700, 0.000443, 0.000074,-0.009948,-0.013090, 0.017357, 0.041638,1,-0.001986, 0.000584, 0.000213,1,-0.446524,-0.057542, 9.796310,1,1
1778255965675,   901.815,   901.810, 0.042953, 0.007915,-0.995098, 0.000431, 0.000078,-0.009950,-0.027221, 0.013952, 0.041107,1,-0.001431, 0.000724, 0.000454,1,-0.446655,-0.057886, 9.796302,1,1
1778255965697,   901.835,   901.835, 0.042386, 0.007976,-0.995151, 0.000424, 0.000080,-0.009952,-0.031113, 0.020073, 0.037196,1, 0.000398, 0.001010, 0.001328,1,-0.446811,-0.058129, 9.796293,1,1
1778255965723,   901.860,   901.860, 0.042948, 0.007063,-0.995204, 0.000429, 0.000071,-0.009955,-0.025731, 0.011222, 0.036674,1, 0.001317, 0.000603, 0.001196,1,-0.446926,-0.058005, 9.796288,1,1
1778255965745,   901.885,   901.880, 0.045092, 0.003476,-0.995682, 0.000450, 0.000037,-0.009955,-0.015330,-0.010467, 0.048592,1, 0.001554,-0.000140, 0.000958,1,-0.446902,-0.057713, 9.796291,1,1
1778255965768,   901.905,   901.905, 0.047259, 0.003699,-0.994515, 0.000474, 0.000034,-0.009951, 0.016597,-0.020767, 0.043433,1, 0.002586,-0.000170,-0.001123,1,-0.446845,-0.056960, 9.796299,1,1
1778255965793,   901.930,   901.930, 0.049319, 0.003274,-0.994299, 0.000492, 0.000033,-0.009944, 0.037274,-0.024646, 0.045582,1, 0.002366,-0.000453,-0.000732,1,-0.446358,-0.056684, 9.796323,1,1
1778255965815,   901.955,   901.950, 0.052250, 0.002320,-0.994773, 0.000522, 0.000022,-0.009950, 0.058016,-0.032014, 0.042678,1, 0.000766,-0.000167,-0.001953,1,-0.446286,-0.056387, 9.796328,1,1
1778255965838,   901.975,   901.975, 0.052300, 0.003113,-0.993885, 0.000526, 0.000028,-0.009944, 0.066618,-0.026062, 0.049641,1,-0.001882,-0.000511,-0.001899,1,-0.446256,-0.056655, 9.796328,1,1
1778255965863,   902.000,   902.000, 0.050146, 0.004014,-0.994524, 0.000503, 0.000038,-0.009947, 0.045597,-0.017935, 0.043380,1,-0.003870,-0.000203,-0.002064,1,-0.446163,-0.057424, 9.796328,1,1
1778255965885,   902.025,   902.020, 0.048696, 0.004718,-0.994997, 0.000487, 0.000051,-0.009947, 0.040094, 0.000989, 0.039283,1,-0.007424, 0.000047,-0.001352,1,-0.446246,-0.058524, 9.796317,1,1
1778255965908,   902.045,   902.045, 0.047579, 0.002239,-0.995858, 0.000474, 0.000021,-0.009956, 0.020214,-0.039134, 0.030268,1,-0.010224, 0.001295,-0.001684,1,-0.446413,-0.061413, 9.796291,1,1
1778255965934,   902.070,   902.070, 0.046591, 0.006151,-0.997138, 0.000454, 0.000073,-0.009938, 0.010264,-0.003037, 0.017685,1,-0.012785, 0.001308,-0.001492,1,-0.446673,-0.063762, 9.796265,1,1
1778255965955,   902.095,   902.090, 0.048015, 0.007888,-0.995607, 0.000478, 0.000075,-0.009962, 0.006008, 0.013231, 0.040442,1,-0.017149, 0.000357, 0.001068,1,-0.446741,-0.067117, 9.796239,1,1
1778255965978,   902.115,   902.115, 0.050276, 0.006902,-0.994952, 0.000498, 0.000075,-0.009936, 0.044925,-0.004410, 0.038989,1,-0.022819, 0.001056, 0.001187,1,-0.448514,-0.072650, 9.796119,1,1
1778255966004,   902.140,   902.140, 0.049666, 0.005790,-0.993776, 0.000501, 0.000060,-0.009942, 0.038342,-0.019836, 0.050465,1,-0.024872, 0.001320, 0.002883,1,-0.448756,-0.077386, 9.796071,1,1
1778255966025,   902.165,   902.160, 0.048274, 0.004060,-0.996085, 0.000484, 0.000039,-0.009955, 0.036539,-0.038718, 0.027508,1,-0.028163, 0.001871, 0.002242,1,-0.449099,-0.082652, 9.796013,1,1
1778255966048,   902.190,   902.185, 0.045242, 0.007753,-0.993684, 0.000456, 0.000072,-0.009941,-0.006016,-0.013833, 0.051207,1,-0.027744, 0.002264, 0.000573,1,-0.449760,-0.090730, 9.795911,1,1
1778255966074,   902.210,   902.210, 0.043210, 0.007575,-0.995375, 0.000431, 0.000064,-0.009956,-0.026416,-0.021293, 0.034552,1,-0.030711, 0.002232, 0.000880,1,-0.450234,-0.096532, 9.795834,1,1
1778255966095,   902.235,   902.230, 0.042532, 0.010009,-0.995398, 0.000422, 0.000092,-0.009954,-0.033863,-0.021476, 0.023719,1,-0.031358, 0.001670,-0.000150,1,-0.450651,-0.102611, 9.795753,1,1
1778255966118,   902.260,   902.255, 0.043427, 0.009902,-0.994856, 0.000433, 0.000103,-0.009954,-0.025392,-0.014356, 0.039422,1,-0.034527, 0.002142,-0.000305,1,-0.451334,-0.112537, 9.795612,1,1
1778255966144,   902.280,   902.280, 0.043098, 0.007710,-0.995235, 0.000432, 0.000081,-0.009947,-0.029095,-0.042664, 0.035607,1,-0.034465, 0.001717,-0.001373,1,-0.451792,-0.119350, 9.795510,1,1
1778255966166,   902.305,   902.300, 0.041521, 0.011521,-0.995230, 0.000416, 0.000117,-0.009956,-0.045713,-0.015415, 0.038013,1,-0.034459, 0.002076,-0.002375,1,-0.452258,-0.126252, 9.795403,1,1
1778255966188,   902.330,   902.325, 0.039369, 0.014097,-0.995753, 0.000394, 0.000133,-0.009960,-0.066831, 0.003708, 0.030261,1,-0.034877, 0.002817,-0.002945,1,-0.452989,-0.135612, 9.795243,1,1
1778255966214,   902.350,   902.350, 0.038746, 0.016244,-0.993816, 0.000387, 0.000161,-0.009937,-0.073515, 0.018190, 0.049135,1,-0.032988, 0.002916,-0.004019,1,-0.453577,-0.142141, 9.795124,1,1
1778255966236,   902.375,   902.370, 0.038515, 0.016566,-0.995480, 0.000386, 0.000162,-0.009955,-0.071054, 0.019733, 0.033956,1,-0.030873, 0.002196,-0.003580,1,-0.453992,-0.148295, 9.795013,1,1
1778255966258,   902.400,   902.395, 0.038684, 0.018657,-0.994104, 0.000384, 0.000183,-0.009945,-0.075180, 0.027388, 0.046048,1,-0.025637, 0.002482,-0.004381,1,-0.454615,-0.156383, 9.794859,1,1
1778255966284,   902.420,   902.420, 0.038384, 0.018591,-0.995061, 0.000384, 0.000185,-0.009949,-0.078553, 0.021945, 0.036562,1,-0.023712, 0.002023,-0.003903,1,-0.455032,-0.161120, 9.794763,1,1
1778255966306,   902.445,   902.440, 0.039913, 0.019496,-0.994925, 0.000399, 0.000194,-0.009952,-0.065947, 0.032909, 0.032360,1,-0.021455, 0.002522,-0.003537,1,-0.455462,-0.165372, 9.794672,1,1
1778255966329,   902.470,   902.465, 0.041644, 0.018655,-0.994803, 0.000416, 0.000183,-0.009949,-0.047528, 0.011990, 0.038865,1,-0.020124, 0.001381,-0.003605,1,-0.455961,-0.171589, 9.794541,1,1
1778255966354,   902.490,   902.490, 0.042660, 0.016562,-0.995712, 0.000426, 0.000170,-0.009952,-0.037861,-0.012481, 0.029873,1,-0.019440, 0.001204,-0.003381,1,-0.456250,-0.175514, 9.794458,1,1
1778255966376,   902.515,   902.510, 0.045659, 0.019493,-0.994709, 0.000451, 0.000195,-0.009946,-0.020350,-0.002514, 0.027720,1,-0.020421, 0.001363,-0.003467,1,-0.456515,-0.179544, 9.794373,1,1
1778255966403,   902.540,   902.540, 0.048636, 0.024007,-0.992797, 0.000484, 0.000225,-0.009939, 0.021703, 0.049380, 0.058293,1,-0.026153, 0.000850,-0.001282,1,-0.455281,-0.186864, 9.794293,1,1
1778255966424,   902.560,   902.560, 0.053263, 0.023489,-0.997070, 0.000531, 0.000236,-0.009974, 0.066899, 0.039019, 0.016282,1,-0.027626, 0.001135, 0.001068,1,-0.455467,-0.192190, 9.794182,1,1
1778255966446,   902.585,   902.580, 0.052485, 0.019202,-0.991237, 0.000528, 0.000185,-0.009914, 0.069561,-0.032275, 0.058149,1,-0.025914, 0.002076, 0.000896,1,-0.455850,-0.197504, 9.794058,1,1
1778255966473,   902.610,   902.610, 0.051049, 0.021299,-0.996167, 0.000512, 0.000214,-0.009957, 0.044180, 0.004605, 0.024835,1,-0.025411, 0.001697, 0.000332,1,-0.456490,-0.205057, 9.793873,1,1
1778255966495,   902.635,   902.630, 0.050757, 0.022135,-0.994238, 0.000505, 0.000219,-0.009951, 0.040352, 0.001227, 0.025538,1,-0.025440, 0.001202, 0.000308,1,-0.456851,-0.209956, 9.793753,1,1
1778255966516,   902.655,   902.650, 0.052143, 0.022605,-0.993303, 0.000521, 0.000223,-0.009934, 0.048285, 0.008558, 0.055778,1,-0.024340, 0.000978,-0.000192,1,-0.457041,-0.214656, 9.793642,1,1
1778255966543,   902.680,   902.680, 0.051930, 0.021814,-0.994572, 0.000519, 0.000220,-0.009945, 0.051888,-0.006873, 0.040065,1,-0.023096, 0.001631, 0.000590,1,-0.457426,-0.221518, 9.793471,1,1
1778255966565,   902.705,   902.700, 0.050095, 0.023317,-0.994352, 0.000506, 0.000230,-0.009950, 0.041671,-0.005108, 0.036650,1,-0.021971, 0.001495,-0.001215,1,-0.457755,-0.225974, 9.793354,1,1
1778255966586,   902.725,   902.720, 0.049092, 0.025692,-0.994094, 0.000491, 0.000254,-0.009938, 0.032098, 0.006337, 0.040883,1,-0.020955, 0.001831,-0.000470,1,-0.459730,-0.230330, 9.793159,1,1
1778255966613,   902.750,   902.750, 0.048085, 0.027050,-0.995097, 0.000483, 0.000270,-0.009953, 0.011468, 0.029799, 0.034457,1,-0.019098, 0.001750, 0.000118,1,-0.460143,-0.236062, 9.793004,1,1
1778255966635,   902.775,   902.770, 0.045739, 0.025711,-0.994868, 0.000457, 0.000255,-0.009946,-0.003838, 0.012792, 0.029242,1,-0.017188, 0.001064,-0.000511,1,-0.460401,-0.239433, 9.792910,1,1
1778255966656,   902.795,   902.790, 0.045756, 0.026731,-0.994207, 0.000458, 0.000267,-0.009947,-0.012794, 0.012503, 0.041773,1,-0.013263, 0.000599,-0.000259,1,-0.460530,-0.242269, 9.792834,1,1
1778255966683,   902.820,   902.820, 0.045362, 0.027336,-0.995955, 0.000454, 0.000273,-0.009956,-0.015789, 0.022629, 0.025771,1,-0.011407, 0.000074,-0.000400,1,-0.460637,-0.245802, 9.792741,1,1
1778255966705,   902.845,   902.840, 0.044520, 0.030879,-0.994326, 0.000445, 0.000304,-0.009944,-0.020734, 0.043824, 0.041420,1,-0.007675, 0.000463,-0.000677,1,-0.460752,-0.247517, 9.792692,1,1
1778255966727,   902.865,   902.860, 0.041857, 0.030678,-0.995147, 0.000422, 0.000308,-0.009947,-0.038943, 0.057116, 0.042192,1,-0.005505, 0.000095, 0.001295,1,-0.460855,-0.248672, 9.792659,1,1
1778255966754,   902.890,   902.890, 0.041124, 0.031897,-0.995413, 0.000412, 0.000319,-0.009955,-0.057745, 0.063504, 0.030965,1,-0.000306, 0.000159, 0.001926,1,-0.461037,-0.249310, 9.792634,1,1
1778255966775,   902.915,   902.910, 0.044080, 0.030229,-0.993438, 0.000440, 0.000306,-0.009935,-0.040254, 0.062878, 0.035779,1, 0.003201,-0.001004, 0.002990,1,-0.460977,-0.248855, 9.792648,1,1
1778255966797,   902.935,   902.930, 0.046406, 0.027684,-0.994339, 0.000462, 0.000275,-0.009947,-0.013755, 0.025692, 0.037703,1, 0.007555,-0.001093, 0.002381,1,-0.460182,-0.248927, 9.792684,1,1
1778255966824,   902.960,   902.960, 0.047567, 0.027715,-0.994991, 0.000474, 0.000278,-0.009949, 0.006467, 0.026453, 0.035253,1, 0.017056,-0.000262, 0.001928,1,-0.459995,-0.244808, 9.792796,1,1
1778255966845,   902.985,   902.980, 0.048923, 0.024590,-0.994900, 0.000489, 0.000248,-0.009951, 0.012874, 0.002170, 0.036946,1, 0.022083,-0.001029, 0.000107,1,-0.459802,-0.240840, 9.792904,1,1
1778255966867,   903.005,   903.000, 0.050458, 0.024382,-0.995363, 0.000500, 0.000246,-0.009952, 0.024640, 0.002141, 0.036498,1, 0.026115,-0.001206,-0.001156,1,-0.459571,-0.235954, 9.793034,1,1
1778255966894,   903.030,   903.030, 0.051751, 0.020895,-0.994438, 0.000517, 0.000213,-0.009947, 0.048447,-0.024018, 0.041120,1, 0.026846,-0.002138,-0.000963,1,-0.458986,-0.228092, 9.793247,1,1
1778255966915,   903.055,   903.050, 0.051844, 0.021126,-0.994452, 0.000517, 0.000212,-0.009945, 0.053318,-0.018682, 0.045018,1, 0.028276,-0.001414,-0.002451,1,-0.458636,-0.222672, 9.793388,1,1
1778255966938,   903.075,   903.075, 0.050260, 0.019347,-0.995674, 0.000504, 0.000198,-0.009954, 0.034599,-0.026194, 0.029334,1, 0.024522,-0.001353,-0.002108,1,-0.458241,-0.215160, 9.793574,1,1
1778255966964,   903.100,   903.100, 0.049205, 0.018846,-0.994883, 0.000490, 0.000187,-0.009952, 0.024507,-0.026720, 0.037190,1, 0.020974,-0.000725,-0.001830,1,-0.458007,-0.210888, 9.793678,1,1
1778255966985,   903.125,   903.120, 0.048128, 0.017857,-0.994393, 0.000480, 0.000179,-0.009946, 0.018616,-0.028389, 0.038893,1, 0.017306,-0.001610,-0.001658,1,-0.458662,-0.207207, 9.793727,1,1
1778255967008,   903.145,   903.145, 0.046858, 0.017255,-0.994744, 0.000469, 0.000172,-0.009948, 0.001242,-0.034402, 0.038713,1, 0.011827,-0.000576,-0.001913,1,-0.458256,-0.203253, 9.793828,1,1
1778255967034,   903.170,   903.170, 0.046026, 0.017594,-0.994301, 0.000459, 0.000176,-0.009946,-0.006786,-0.029247, 0.043097,1, 0.007726,-0.000647,-0.001478,1,-0.458123,-0.201547, 9.793870,1,1
1778255967056,   903.195,   903.190, 0.044993, 0.017246,-0.994782, 0.000451, 0.000174,-0.009945,-0.011721,-0.031015, 0.039231,1, 0.004501, 0.000311,-0.001255,1,-0.458119,-0.200504, 9.793891,1,1
1778255967078,   903.215,   903.215, 0.043380, 0.017881,-0.994864, 0.000440, 0.000179,-0.009952,-0.032733,-0.024879, 0.037617,1,-0.000877, 0.000339,-0.001273,1,-0.458152,-0.200259, 9.793895,1,1
1778255967104,   903.240,   903.240, 0.044089, 0.018439,-0.994364, 0.000439, 0.000182,-0.009946,-0.025792,-0.019962, 0.042502,1,-0.003986, 0.000356,-0.001907,1,-0.458166,-0.200918, 9.793880,1,1
1778255967126,   903.265,   903.260, 0.044174, 0.019162,-0.995159, 0.000437, 0.000190,-0.009950,-0.028928,-0.025554, 0.034097,1,-0.006532, 0.000784,-0.001613,1,-0.458253,-0.202120, 9.793852,1,1
1778255967148,   903.285,   903.285, 0.043730, 0.020613,-0.994346, 0.000435, 0.000208,-0.009946,-0.029605,-0.002114, 0.042593,1,-0.009119, 0.000681,-0.000620,1,-0.458470,-0.204543, 9.793792,1,1
1778255967174,   903.310,   903.310, 0.042890, 0.020225,-0.994621, 0.000430, 0.000202,-0.009946,-0.038016,-0.007822, 0.039852,1,-0.009459, 0.000766,-0.001424,1,-0.458641,-0.206461, 9.793743,1,1
1778255967196,   903.335,   903.330, 0.043679, 0.021388,-0.994562, 0.000436, 0.000212,-0.009947,-0.027512, 0.001085, 0.041336,1,-0.009979,-0.000235,-0.000937,1,-0.458108,-0.207623, 9.793743,1,1
1778255967219,   903.355,   903.355, 0.045194, 0.022164,-0.995806, 0.000451, 0.000220,-0.009956,-0.015116, 0.006805, 0.028152,1,-0.010719, 0.000507,-0.000868,1,-0.458337,-0.210882, 9.793663,1,1
1778255967244,   903.380,   903.380, 0.045777, 0.023833,-0.994742, 0.000455, 0.000239,-0.009947,-0.009544, 0.021219, 0.038535,1,-0.010147, 0.000841,-0.000831,1,-0.458486,-0.212818, 9.793614,1,1
1778255967266,   903.405,   903.400, 0.046605, 0.022867,-0.995041, 0.000468, 0.000226,-0.009949,-0.003607, 0.011125, 0.039720,1,-0.009737, 0.001034,-0.000943,1,-0.458640,-0.214722, 9.793566,1,1
1778255967289,   903.430,   903.425, 0.047253, 0.023078,-0.994820, 0.000472, 0.000232,-0.009948, 0.004678, 0.009316, 0.037663,1,-0.008017, 0.000345,-0.000425,1,-0.458726,-0.217253, 9.793506,1,1
1778255967314,   903.450,   903.450, 0.048107, 0.022962,-0.995018, 0.000479, 0.000228,-0.009949, 0.012967, 0.006606, 0.035684,1,-0.007568, 0.000263,-0.001049,1,-0.458806,-0.218812, 9.793468,1,1
1778255967336,   903.475,   903.470, 0.048409, 0.023406,-0.994871, 0.000484, 0.000231,-0.009949, 0.009656, 0.007144, 0.036576,1,-0.006044, 0.000169,-0.001114,1,-0.458895,-0.220200, 9.793432,1,1
1778255967359,   903.500,   903.495, 0.047660, 0.024527,-0.994307, 0.000480, 0.000246,-0.009947, 0.008379, 0.018668, 0.042563,1,-0.005190, 0.000070, 0.000093,1,-0.459011,-0.222022, 9.793386,1,1
1778255967385,   903.520,   903.520, 0.047879, 0.024505,-0.995077, 0.000476, 0.000246,-0.009949, 0.010408, 0.017308, 0.034991,1,-0.004325, 0.001225,-0.000049,1,-0.459145,-0.223233, 9.793352,1,1
1778255967406,   903.545,   903.540, 0.047438, 0.023805,-0.994460, 0.000474, 0.000238,-0.009948, 0.006123, 0.016404, 0.039563,1,-0.002079, 0.000577,-0.000222,1,-0.459145,-0.223820, 9.793338,1,1
1778255967429,   903.570,   903.565, 0.047189, 0.024294,-0.994195, 0.000470, 0.000242,-0.009942, 0.003640, 0.014179, 0.043610,1, 0.000481,-0.000603,-0.000804,1,-0.459110,-0.224053, 9.793335,1,1
1778255967455,   903.590,   903.590, 0.046494, 0.024434,-0.994652, 0.000467, 0.000245,-0.009949,-0.003146, 0.015839, 0.039135,1, 0.002080, 0.000001,-0.000444,1,-0.459097,-0.223713, 9.793343,1,1
1778255967476,   903.615,   903.610, 0.045503, 0.024843,-0.994504, 0.000455, 0.000250,-0.009946,-0.009895, 0.016659, 0.033166,1, 0.003952,-0.000050, 0.000183,1,-0.459093,-0.223085, 9.793358,1,1
1778255967499,   903.640,   903.635, 0.045599, 0.024205,-0.995064, 0.000455, 0.000244,-0.009954,-0.011815, 0.015605, 0.035152,1, 0.005729,-0.000099,-0.000192,1,-0.458986,-0.221587, 9.793397,1,1
1778255967525,   903.660,   903.660, 0.045566, 0.024518,-0.994427, 0.000456, 0.000245,-0.009945,-0.012063, 0.019888, 0.041421,1, 0.006386, 0.000463, 0.000173,1,-0.458927,-0.220350, 9.793427,1,1
1778255967546,   903.685,   903.680, 0.045529, 0.022792,-0.994601, 0.000456, 0.000230,-0.009945,-0.014335, 0.011234, 0.037701,1, 0.007472, 0.000170, 0.000198,1,-0.458856,-0.218892, 9.793463,1,1
1778255967569,   903.710,   903.705, 0.046284, 0.022185,-0.995138, 0.000462, 0.000224,-0.009952,-0.004868, 0.000874, 0.034546,1, 0.008948,-0.000097,-0.000447,1,-0.458759,-0.216406, 9.793523,1,1
1778255967595,   903.730,   903.730, 0.046515, 0.022193,-0.994751, 0.000466, 0.000224,-0.009948,-0.002390, 0.002187, 0.038381,1, 0.009360,-0.001105, 0.000545,1,-0.458506,-0.215167, 9.793562,1,1
1778255967617,   903.755,   903.750, 0.046833, 0.021340,-0.994999, 0.000469, 0.000213,-0.009948,-0.003227,-0.008032, 0.036201,1, 0.008379,-0.000003,-0.000081,1,-0.458466,-0.213443, 9.793602,1,1
1778255967643,   903.780,   903.780, 0.047254, 0.020398,-0.994783, 0.000472, 0.000206,-0.009951, 0.005080,-0.011031, 0.038171,1, 0.008678,-0.000486, 0.000688,1,-0.458311,-0.210792, 9.793667,1,1
1778255967665,   903.800,   903.800, 0.047472, 0.020482,-0.995024, 0.000476, 0.000206,-0.009948, 0.007302,-0.008602, 0.035842,1, 0.006309, 0.000255, 0.000643,1,-0.458245,-0.209264, 9.793702,1,1
1778255967687,   903.825,   903.820, 0.047488, 0.020474,-0.994755, 0.000474, 0.000202,-0.009948, 0.010576,-0.006544, 0.040593,1, 0.006820,-0.000020,-0.000675,1,-0.458187,-0.207883, 9.793735,1,1
1778255967714,   903.850,   903.850, 0.047021, 0.019927,-0.995069, 0.000471, 0.000200,-0.009951, 0.003042,-0.011138, 0.035470,1, 0.005129,-0.000769, 0.000305,1,-0.458054,-0.206394, 9.793772,1,1
1778255967735,   903.875,   903.870, 0.046409, 0.020890,-0.995669, 0.000463, 0.000207,-0.009955,-0.004215,-0.010528, 0.038483,1, 0.004094, 0.000063,-0.000177,1,-0.457950,-0.205461, 9.793797,1,1
1778255967757,   903.895,   903.890, 0.045781, 0.020929,-0.994808, 0.000459, 0.000209,-0.009946,-0.007719,-0.001405, 0.032699,1, 0.003437,-0.000190, 0.000165,1,-0.457959,-0.204649, 9.793813,1,1
1778255967784,   903.920,   903.920, 0.045910, 0.020030,-0.994794, 0.000459, 0.000202,-0.009947,-0.007714,-0.007372, 0.038231,1, 0.002238,-0.000354, 0.000105,1,-0.457953,-0.203687, 9.793834,1,1
1778255967805,   903.945,   903.940, 0.046451, 0.020657,-0.994753, 0.000465, 0.000207,-0.009949,-0.002754,-0.005417, 0.040043,1, 0.002744,-0.000092,-0.000433,1,-0.457906,-0.203170, 9.793846,1,1
1778255967827,   903.965,   903.960, 0.046215, 0.020746,-0.994724, 0.000462, 0.000207,-0.009949,-0.002908,-0.003066, 0.038384,1, 0.002154,-0.001030, 0.000334,1,-0.457764,-0.202690, 9.793863,1,1
1778255967854,   903.990,   903.990, 0.045912, 0.019442,-0.994051, 0.000461, 0.000197,-0.009942,-0.007539,-0.011267, 0.045571,1, 0.002669,-0.000093,-0.000147,1,-0.457781,-0.201849, 9.793880,1,1
1778255967875,   904.015,   904.010, 0.045980, 0.020877,-0.995365, 0.000461, 0.000209,-0.009952, 0.001172,-0.000957, 0.026885,1, 0.003531,-0.000110,-0.000282,1,-0.457731,-0.201268, 9.793894,1,1
1778255967897,   904.035,   904.030, 0.046755, 0.021707,-0.994542, 0.000463, 0.000216,-0.009946,-0.002697, 0.009527, 0.037321,1, 0.004454, 0.000289,-0.000627,1,-0.457730,-0.200501, 9.793910,1,1
1778255967924,   904.060,   904.060, 0.046244, 0.020526,-0.994982, 0.000465, 0.000205,-0.009949,-0.004063, 0.002030, 0.036507,1, 0.004876,-0.000524,-0.000400,1,-0.457543,-0.199115, 9.793946,1,1
1778255967946,   904.085,   904.080, 0.046135, 0.021116,-0.995050, 0.000462, 0.000210,-0.009951,-0.002487, 0.012538, 0.035043,1, 0.006251,-0.001319,-0.000878,1,-0.457409,-0.197957, 9.793977,1,1
1778255967967,   904.105,   904.100, 0.046598, 0.021712,-0.994660, 0.000469, 0.000219,-0.009948, 0.003245, 0.012114, 0.036968,1, 0.007586, 0.000189, 0.000015,1,-0.457364,-0.196629, 9.794005,1,1
1778255967994,   904.130,   904.130, 0.046203, 0.021126,-0.995137, 0.000463, 0.000212,-0.009951,-0.004150, 0.012381, 0.035083,1, 0.007227,-0.000314, 0.000085,1,-0.457232,-0.194572, 9.794052,1,1
1778255968016,   904.155,   904.150, 0.045973, 0.020960,-0.995139, 0.000457, 0.000212,-0.009951,-0.011968, 0.010389, 0.038198,1, 0.008526,-0.000461, 0.000499,1,-0.457222,-0.192925, 9.794086,1,1
1778255968037,   904.175,   904.170, 0.045489, 0.020273,-0.994934, 0.000457, 0.000202,-0.009949,-0.009218, 0.010032, 0.040458,1, 0.009109,-0.000429, 0.000957,1,-0.457161,-0.191211, 9.794122,1,1
1778255968064,   904.200,   904.200, 0.045659, 0.019367,-0.995197, 0.000457, 0.000194,-0.009949,-0.009354, 0.001126, 0.034617,1, 0.009283,-0.000458, 0.000538,1,-0.457105,-0.188508, 9.794177,1,1
1778255968086,   904.225,   904.220, 0.045335, 0.017563,-0.995398, 0.000453, 0.000174,-0.009951,-0.005260,-0.008870, 0.041354,1, 0.008448,-0.000924, 0.001228,1,-0.457040,-0.186831, 9.794212,1,1
1778255968107,   904.245,   904.240, 0.046226, 0.017696,-0.994742, 0.000462, 0.000176,-0.009947,-0.009471,-0.012199, 0.034577,1, 0.009664,-0.000352, 0.000169,1,-0.456899,-0.185039, 9.794252,1,1
1778255968134,   904.270,   904.270, 0.047471, 0.016580,-0.994502, 0.000473, 0.000168,-0.009945, 0.008776,-0.020251, 0.041563,1, 0.008599,-0.000629,-0.000225,1,-0.456738,-0.182575, 9.794307,1,1
1778255968156,   904.295,   904.290, 0.048255, 0.015938,-0.994770, 0.000483, 0.000160,-0.009949, 0.012506,-0.021855, 0.038006,1, 0.007286,-0.000048,-0.000800,1,-0.456682,-0.181069, 9.794337,1,1
1778255968179,   904.315,   904.315, 0.048222, 0.016506,-0.994191, 0.000481, 0.000166,-0.009943, 0.016335,-0.017169, 0.044694,1, 0.006846,-0.000168,-0.000966,1,-0.456553,-0.178793, 9.794385,1,1
1778255968204,   904.340,   904.340, 0.047106, 0.016514,-0.995011, 0.000472, 0.000165,-0.009953, 0.005515,-0.015820, 0.036681,1, 0.006412,-0.000135,-0.002524,1,-0.456432,-0.177575, 9.794413,1,1
1778255968226,   904.365,   904.360, 0.045908, 0.019605,-0.995320, 0.000458, 0.000190,-0.009952,-0.010085,-0.004525, 0.038108,1, 0.004792, 0.000377,-0.001901,1,-0.456559,-0.176556, 9.794425,1,1
1778255968249,   904.385,   904.385, 0.044746, 0.020194,-0.994825, 0.000450, 0.000209,-0.009948,-0.017656, 0.022677, 0.038554,1, 0.004427,-0.000435,-0.000563,1,-0.456455,-0.175224, 9.794454,1,1
1778255968275,   904.410,   904.410, 0.044622, 0.019672,-0.995198, 0.000445, 0.000198,-0.009953,-0.018797, 0.018265, 0.034906,1, 0.003023, 0.000210,-0.000310,1,-0.456400,-0.174559, 9.794469,1,1
1778255968296,   904.435,   904.430, 0.044398, 0.019509,-0.994350, 0.000442, 0.000194,-0.009943,-0.020006, 0.022288, 0.037863,1, 0.003060,-0.000168, 0.000693,1,-0.456362,-0.173920, 9.794481,1,1
1778255968319,   904.455,   904.455, 0.044010, 0.019330,-0.995005, 0.000440, 0.000193,-0.009950,-0.024741, 0.016358, 0.036825,1, 0.002491, 0.000457, 0.001821,1,-0.456349,-0.173122, 9.794497,1,1
1778255968345,   904.480,   904.480, 0.043726, 0.018507,-0.994878, 0.000441, 0.000186,-0.009951,-0.027563, 0.008740, 0.038084,1, 0.002118,-0.000245, 0.002627,1,-0.456364,-0.172686, 9.794503,1,1
1778255968366,   904.505,   904.500, 0.044783, 0.017773,-0.995315, 0.000449, 0.000178,-0.009950,-0.022871, 0.008332, 0.032789,1, 0.001230, 0.000852, 0.003712,1,-0.456495,-0.172343, 9.794503,1,1
1778255968389,   904.525,   904.525, 0.046036, 0.018012,-0.995396, 0.000459, 0.000179,-0.009955,-0.004636, 0.004421, 0.033020,1, 0.000567,-0.000081, 0.003372,1,-0.456087,-0.172202, 9.794525,1,1
1778255968415,   904.550,   904.550, 0.046802, 0.017987,-0.994741, 0.000468, 0.000179,-0.009947, 0.002879, 0.004509, 0.039456,1, 0.001546,-0.000510, 0.003100,1,-0.456082,-0.171832, 9.794532,1,1
1778255968436,   904.575,   904.570, 0.046628, 0.018132,-0.994946, 0.000467, 0.000182,-0.009947, 0.002640, 0.003694, 0.040017,1, 0.003618, 0.000069, 0.002691,1,-0.456036,-0.171227, 9.794544,1,1
1778255968459,   904.595,   904.595, 0.046597, 0.017938,-0.994838, 0.000467, 0.000181,-0.009950, 0.000889, 0.006004, 0.038536,1, 0.005945,-0.000302, 0.002903,1,-0.456062,-0.169722, 9.794569,1,1
1778255968485,   904.620,   904.620, 0.047071, 0.018049,-0.994980, 0.000474, 0.000180,-0.009951, 0.005526, 0.008394, 0.037168,1, 0.008049,-0.001662, 0.002217,1,-0.456029,-0.168354, 9.794595,1,1
1778255968506,   904.645,   904.640, 0.047854, 0.017814,-0.994809, 0.000479, 0.000179,-0.009947, 0.010975, 0.003292, 0.040143,1, 0.009281,-0.001382, 0.002104,1,-0.455836,-0.166601, 9.794633,1,1
1778255968529,   904.670,   904.665, 0.047735, 0.018387,-0.994619, 0.000477, 0.000184,-0.009947, 0.012514, 0.016466, 0.040811,1, 0.011951,-0.001223, 0.001199,1,-0.455569,-0.163477, 9.794699,1,1
1778255968555,   904.690,   904.690, 0.047104, 0.016727,-0.995037, 0.000472, 0.000167,-0.009954, 0.006444, 0.002750, 0.036758,1, 0.013502,-0.000221, 0.000895,1,-0.455480,-0.160861, 9.794745,1,1
1778255968577,   904.715,   904.710, 0.047727, 0.016151,-0.995071, 0.000478, 0.000165,-0.009951, 0.011895, 0.007770, 0.037375,1, 0.015450,-0.001356, 0.000762,1,-0.455236,-0.157910, 9.794806,1,1
1778255968599,   904.740,   904.735, 0.047698, 0.015419,-0.994596, 0.000476, 0.000155,-0.009946, 0.012537,-0.002479, 0.041219,1, 0.017749,-0.001263, 0.000479,1,-0.455179,-0.153133, 9.794884,1,1
1778255968625,   904.760,   904.760, 0.047712, 0.016725,-0.994952, 0.000476, 0.000169,-0.009948, 0.012972, 0.014013, 0.037796,1, 0.018874,-0.001383, 0.000319,1,-0.454881,-0.149416, 9.794955,1,1
1778255968647,   904.785,   904.780, 0.046257, 0.015320,-0.995416, 0.000464, 0.000154,-0.009955, 0.002484, 0.006077, 0.038932,1, 0.020023,-0.002009, 0.000419,1,-0.454593,-0.145609, 9.795026,1,1
1778255968670,   904.810,   904.805, 0.045661, 0.015014,-0.994727, 0.000457, 0.000153,-0.009946,-0.006499, 0.007029, 0.040182,1, 0.020677,-0.001436, 0.000352,1,-0.454231,-0.139563, 9.795131,1,1
1778255968695,   904.830,   904.830, 0.045367, 0.014609,-0.995029, 0.000454, 0.000148,-0.009950,-0.009092, 0.007152, 0.037286,1, 0.020295,-0.001124, 0.000992,1,-0.453952,-0.135480, 9.795200,1,1
1778255968717,   904.855,   904.850, 0.045016, 0.012990,-0.994678, 0.000449, 0.000131,-0.009949,-0.008198, 0.001624, 0.042647,1, 0.021431,-0.001498, 0.000781,1,-0.453618,-0.131327, 9.795273,1,1
1778255968740,   904.880,   904.875, 0.044786, 0.013207,-0.995388, 0.000448, 0.000133,-0.009952,-0.014060, 0.003884, 0.033944,1, 0.021782,-0.001868, 0.000636,1,-0.453206,-0.124950, 9.795375,1,1
1778255968765,   904.900,   904.900, 0.045128, 0.012188,-0.995724, 0.000451, 0.000123,-0.009957,-0.010407,-0.001910, 0.030715,1, 0.020616,-0.001281, 0.000985,1,-0.452922,-0.120786, 9.795441,1,1
1778255968787,   904.925,   904.920, 0.045683, 0.010522,-0.994823, 0.000454, 0.000105,-0.009950,-0.012947,-0.014067, 0.037183,1, 0.020867,-0.001534,-0.000096,1,-0.452611,-0.116876, 9.795503,1,1
1778255968810,   904.950,   904.945, 0.045935, 0.009793,-0.994752, 0.000461, 0.000101,-0.009947,-0.001775,-0.015644, 0.040392,1, 0.018712,-0.001348, 0.000352,1,-0.452198,-0.111100, 9.795588,1,1
1778255968835,   904.970,   904.970, 0.045850, 0.010326,-0.994917, 0.000458, 0.000103,-0.009948,-0.002395,-0.006777, 0.038825,1, 0.017810,-0.000705, 0.000419,1,-0.452010,-0.107489, 9.795638,1,1
1778255968857,   904.995,   904.990, 0.045342, 0.011407,-0.995136, 0.000452, 0.000115,-0.009949,-0.010277, 0.006213, 0.041198,1, 0.017522,-0.000653, 0.001316,1,-0.451870,-0.104000, 9.795682,1,1
1778255968884,   905.020,   905.020, 0.044239, 0.011215,-0.995309, 0.000442, 0.000111,-0.009951,-0.017839, 0.010420, 0.035092,1, 0.015861,-0.000974, 0.001347,1,-0.451641,-0.099069, 9.795743,1,1
1778255968906,   905.040,   905.040, 0.043982, 0.012070,-0.995293, 0.000440, 0.000125,-0.009957,-0.020249, 0.021862, 0.035279,1, 0.014198,-0.001347, 0.002715,1,-0.451528,-0.096057, 9.795778,1,1
1778255968927,   905.065,   905.060, 0.044685, 0.010448,-0.994733, 0.000448, 0.000106,-0.009946,-0.016404, 0.016449, 0.042534,1, 0.013972,-0.000904, 0.003194,1,-0.451370,-0.093256, 9.795813,1,1
1778255968954,   905.090,   905.090, 0.046171, 0.009282,-0.994505, 0.000463, 0.000092,-0.009946, 0.001701, 0.001383, 0.043100,1, 0.013964,-0.001395, 0.004321,1,-0.451036,-0.089204, 9.795866,1,1
1778255968976,   905.115,   905.110, 0.047706, 0.006886,-0.995157, 0.000477, 0.000068,-0.009952, 0.010481,-0.011697, 0.042251,1, 0.012854,-0.000517, 0.004171,1,-0.450920,-0.086790, 9.795893,1,1
1778255968997,   905.135,   905.130, 0.047565, 0.006129,-0.995523, 0.000478, 0.000061,-0.009953, 0.017476,-0.023545, 0.039104,1, 0.011688,-0.000768, 0.002955,1,-0.450498,-0.084440, 9.795933,1,1
1778255969024,   905.160,   905.160, 0.046819, 0.006245,-0.995147, 0.000468, 0.000063,-0.009953, 0.008831,-0.019774, 0.036909,1, 0.012768,-0.000849, 0.001603,1,-0.450276,-0.080618, 9.795976,1,1
1778255969046,   905.185,   905.180, 0.046910, 0.006253,-0.994538, 0.000470, 0.000061,-0.009947, 0.006015,-0.022079, 0.043649,1, 0.011600,-0.000541, 0.000661,1,-0.450193,-0.078214, 9.795999,1,1
1778255969067,   905.205,   905.200, 0.046448, 0.006705,-0.994899, 0.000465, 0.000067,-0.009951, 0.007005,-0.010450, 0.042799,1, 0.011055,-0.001088, 0.000360,1,-0.450047,-0.075952, 9.796023,1,1
1778255969094,   905.230,   905.230, 0.045713, 0.005666,-0.995034, 0.000457, 0.000058,-0.009951,-0.001523,-0.017351, 0.038107,1, 0.011074, 0.000219, 0.000323,1,-0.449820,-0.072565, 9.796060,1,1
1778255969116,   905.255,   905.250, 0.045836, 0.005548,-0.994128, 0.000460, 0.000056,-0.009944, 0.003017,-0.013516, 0.040933,1, 0.008851,-0.000012,-0.000187,1,-0.449793,-0.070594, 9.796075,1,1
1778255969137,   905.275,   905.270, 0.045100, 0.006323,-0.995084, 0.000451, 0.000064,-0.009953,-0.000778,-0.006875, 0.041837,1, 0.008535, 0.000151,-0.000156,1,-0.449684,-0.068861, 9.796092,1,1
1778255969164,   905.300,   905.300, 0.043688, 0.005756,-0.994810, 0.000440, 0.000058,-0.009949,-0.021119,-0.010672, 0.040358,1, 0.005203,-0.000558,-0.000159,1,-0.449537,-0.066959, 9.796112,1,1
1778255969186,   905.325,   905.320, 0.043639, 0.005128,-0.994994, 0.000436, 0.000052,-0.009953,-0.019982,-0.013893, 0.033755,1, 0.002567,-0.000600,-0.000331,1,-0.449607,-0.065698, 9.796118,1,1
1778255969208,   905.345,   905.340, 0.043927, 0.004984,-0.994783, 0.000442, 0.000051,-0.009951,-0.022553,-0.011157, 0.037432,1, 0.001742, 0.000080,-0.000139,1,-0.449524,-0.065273, 9.796124,1,1
1778255969235,   905.370,   905.370, 0.043756, 0.004736,-0.994538, 0.000434, 0.000049,-0.009946,-0.020450,-0.018548, 0.043035,1, 0.000977, 0.000194,-0.001023,1,-0.449554,-0.064966, 9.796125,1,1
1778255969256,   905.395,   905.390, 0.043924, 0.005197,-0.994841, 0.000438, 0.000052,-0.009949,-0.018238,-0.016704, 0.037000,1,-0.002009,-0.000606,-0.000330,1,-0.449496,-0.065159, 9.796126,1,1
1778255969278,   905.415,   905.410, 0.045232, 0.005995,-0.996113, 0.000451, 0.000059,-0.009957,-0.010932,-0.007180, 0.031297,1,-0.001504, 0.000255,-0.000860,1,-0.449479,-0.065510, 9.796124,1,1
1778255969305,   905.440,   905.440, 0.045178, 0.005785,-0.994013, 0.000452, 0.000057,-0.009943,-0.006461,-0.009467, 0.048184,1,-0.003106, 0.000640,-0.001529,1,-0.449522,-0.066301, 9.796118,1,1
1778255969326,   905.465,   905.460, 0.046531, 0.006772,-0.995118, 0.000463, 0.000064,-0.009953, 0.003688,-0.016022, 0.044873,1,-0.003338, 0.000957,-0.001308,1,-0.449647,-0.066960, 9.796107,1,1
1778255969348,   905.485,   905.480, 0.046793, 0.007440,-0.995227, 0.000468, 0.000077,-0.009952, 0.005945, 0.011422, 0.032862,1,-0.003936, 0.001076,-0.001711,1,-0.449856,-0.067722, 9.796092,1,1
1778255969375,   905.510,   905.510, 0.046447, 0.005832,-0.994602, 0.000463, 0.000058,-0.009946, 0.005542,-0.011863, 0.042369,1,-0.006101, 0.000852,-0.001135,1,-0.449970,-0.069252, 9.796077,1,1
1778255969396,   905.535,   905.530, 0.047776, 0.007199,-0.995189, 0.000477, 0.000069,-0.009954, 0.014712,-0.009501, 0.034072,1,-0.006563, 0.000032,-0.000895,1,-0.449828,-0.070076, 9.796077,1,1
1778255969419,   905.555,   905.555, 0.046495, 0.007615,-0.994431, 0.000468, 0.000073,-0.009948, 0.006031, 0.002781, 0.044023,1,-0.008249, 0.000440,-0.000733,1,-0.449947,-0.072151, 9.796057,1,1
1778255969445,   905.580,   905.580, 0.045653, 0.007252,-0.994819, 0.000455, 0.000072,-0.009949,-0.002371,-0.002461, 0.040196,1,-0.008279, 0.000759,-0.001212,1,-0.450100,-0.073838, 9.796037,1,1
1778255969466,   905.605,   905.600, 0.046263, 0.006053,-0.995385, 0.000462, 0.000062,-0.009954, 0.004345,-0.010848, 0.031997,1,-0.008800, 0.000513,-0.001335,1,-0.450177,-0.075534, 9.796021,1,1
1778255969489,   905.625,   905.625, 0.046734, 0.005641,-0.994692, 0.000468, 0.000055,-0.009949, 0.008087,-0.023023, 0.041404,1,-0.010897, 0.000269,-0.001346,1,-0.450227,-0.078684, 9.795994,1,1
1778255969515,   905.650,   905.650, 0.047061, 0.005801,-0.994718, 0.000470, 0.000057,-0.009947, 0.011185,-0.023597, 0.041120,1,-0.010089,-0.000011,-0.002563,1,-0.450326,-0.080802, 9.795972,1,1
1778255969537,   905.675,   905.670, 0.046741, 0.009238,-0.996242, 0.000466, 0.000091,-0.009960, 0.001829,-0.004041, 0.036925,1,-0.009547,-0.000073,-0.003025,1,-0.450368,-0.082754, 9.795954,1,1
1778255969559,   905.695,   905.695, 0.045123, 0.010325,-0.995269, 0.000450, 0.000104,-0.009951,-0.007956, 0.016306, 0.035674,1,-0.006688, 0.000121,-0.003813,1,-0.450467,-0.085163, 9.795928,1,1
1778255969585,   905.720,   905.720, 0.044690, 0.012440,-0.994551, 0.000444, 0.000123,-0.009943,-0.012389, 0.036090, 0.042704,1,-0.004575, 0.000657,-0.003065,1,-0.450730,-0.086005, 9.795909,1,1
1778255969607,   905.745,   905.740, 0.044416, 0.013250,-0.995606, 0.000440, 0.000134,-0.009957,-0.020829, 0.049828, 0.032761,1,-0.003266, 0.000392,-0.002218,1,-0.450776,-0.086801, 9.795899,1,1
1778255969630,   905.765,   905.765, 0.044734, 0.012475,-0.996136, 0.000446, 0.000126,-0.009961,-0.012130, 0.035036, 0.027133,1, 0.000070,-0.000163,-0.001245,1,-0.450816,-0.087299, 9.795894,1,1
1778255969655,   905.790,   905.790, 0.045297, 0.013165,-0.994916, 0.000455, 0.000134,-0.009951,-0.006488, 0.042029, 0.039111,1, 0.002128,-0.000239,-0.000771,1,-0.450693,-0.087005, 9.795901,1,1
1778255969677,   905.815,   905.810, 0.044327, 0.013398,-0.994768, 0.000443, 0.000131,-0.009947,-0.011934, 0.048699, 0.043267,1, 0.005124,-0.000790, 0.000013,1,-0.450629,-0.086110, 9.795913,1,1
1778255969700,   905.835,   905.835, 0.042991, 0.012703,-0.995831, 0.000432, 0.000128,-0.009958,-0.029065, 0.040505, 0.030165,1, 0.008409, 0.000093, 0.001803,1,-0.450667,-0.083801, 9.795931,1,1
1778255969725,   905.860,   905.860, 0.043056, 0.010643,-0.995688, 0.000430, 0.000108,-0.009958,-0.028318, 0.022144, 0.031583,1, 0.009780,-0.000756, 0.001970,1,-0.450528,-0.081919, 9.795953,1,1
1778255969747,   905.885,   905.880, 0.045293, 0.005920,-0.994653, 0.000452, 0.000063,-0.009950,-0.016852,-0.001468, 0.035599,1, 0.010078,-0.000774, 0.001889,1,-0.450408,-0.079957, 9.795975,1,1
1778255969770,   905.910,   905.905, 0.047772, 0.001558,-0.995153, 0.000478, 0.000016,-0.009951, 0.018324,-0.062096, 0.036892,1, 0.010181,-0.001331, 0.000084,1,-0.450118,-0.077057, 9.796011,1,1
1778255969795,   905.930,   905.930, 0.048767, 0.002796,-0.995190, 0.000487, 0.000028,-0.009951, 0.028719,-0.048903, 0.036563,1, 0.009496,-0.000216,-0.001031,1,-0.449505,-0.076047, 9.796047,1,1
1778255969817,   905.955,   905.950, 0.047758, 0.000401,-0.994325, 0.000474, 0.000005,-0.009946, 0.014452,-0.052956, 0.035049,1, 0.005985, 0.000773,-0.001588,1,-0.449536,-0.074736, 9.796056,1,1
1778255969840,   905.980,   905.975, 0.047956, 0.002030,-0.995379, 0.000478, 0.000016,-0.009954, 0.020938,-0.053800, 0.034737,1, 0.002692,-0.000751,-0.004276,1,-0.449330,-0.073633, 9.796074,1,1
1778255969866,   906.000,   906.000, 0.047583, 0.005286,-0.993206, 0.000481, 0.000051,-0.009948, 0.017269,-0.021688, 0.056053,1,-0.000668, 0.000175,-0.004422,1,-0.449369,-0.073550, 9.796073,1,1
1778255969887,   906.025,   906.020, 0.042150, 0.005695,-0.998047, 0.000415, 0.000071,-0.009980,-0.037030, 0.010956, 0.038249,1,-0.005246, 0.000861,-0.004022,1,-0.449510,-0.074175, 9.796062,1,1
1778255969910,   906.050,   906.045, 0.043845,-0.000050,-0.996586, 0.000432, 0.000006,-0.009949,-0.019611,-0.076854, 0.022873,1,-0.007800,-0.001126,-0.004249,1,-0.449549,-0.076616, 9.796041,1,1
1778255969936,   906.070,   906.070, 0.046669, 0.007567,-0.999337, 0.000461, 0.000054,-0.009993, 0.007937,-0.005054,-0.004138,1,-0.024378, 0.004316,-0.001904,1,-0.449866,-0.080022, 9.796000,1,1
1778255969957,   906.095,   906.090, 0.040055,-0.000858,-0.989661, 0.000401,-0.000071,-0.009877,-0.052477,-0.166152, 0.121236,1,-0.032229, 0.002616,-0.000278,1,-0.450459,-0.085756, 9.795923,1,1
1778255969980,   906.120,   906.115, 0.044908, 0.016070,-1.003789, 0.000449, 0.000176,-0.010039,-0.010651, 0.063173,-0.047988,1,-0.039855, 0.002041,-0.001825,1,-0.451092,-0.095249, 9.795807,1,1
1778255970006,   906.140,   906.140, 0.040065, 0.014523,-0.994369, 0.000404, 0.000118,-0.009925,-0.058570, 0.039387, 0.044283,1,-0.054161, 0.002819, 0.002023,1,-0.451561,-0.104715, 9.795689,1,1
1778255970027,   906.165,   906.160, 0.043323, 0.010422,-0.997565, 0.000442, 0.000070,-0.009980,-0.052163,-0.006031, 0.117943,1,-0.055339, 0.004010, 0.004664,1,-0.452556,-0.115210, 9.795525,1,1
1778255970050,   906.190,   906.185, 0.046400, 0.017084,-0.999842, 0.000456, 0.000167,-0.010024, 0.001857, 0.036919,-0.009798,1,-0.060044, 0.004595, 0.005220,1,-0.453318,-0.132485, 9.795271,1,1
1778255970076,   906.210,   906.210, 0.049944, 0.011489,-0.984623, 0.000491, 0.000139,-0.009817, 0.036086,-0.028812, 0.139271,1,-0.052253, 0.001435, 0.003858,1,-0.453739,-0.143107, 9.795102,1,1
1778255970097,   906.235,   906.230, 0.058844, 0.007888,-1.006120, 0.000584, 0.000079,-0.010054, 0.087614,-0.074000,-0.027950,1,-0.041830, 0.002145,-0.002158,1,-0.453968,-0.151981, 9.794958,1,1
1778255970124,   906.260,   906.260, 0.054198, 0.017627,-0.994364, 0.000541, 0.000170,-0.009939, 0.077072, 0.012455, 0.043426,1,-0.028057, 0.003881,-0.007402,1,-0.454548,-0.161295, 9.794782,1,1
1778255970146,   906.280,   906.280, 0.047361, 0.020250,-0.989019, 0.000477, 0.000203,-0.009875, 0.009193, 0.032802, 0.095710,1,-0.026317, 0.004078,-0.006273,1,-0.455384,-0.166615, 9.794654,1,1
1778255970168,   906.305,   906.300, 0.045928, 0.027647,-0.998234, 0.000453, 0.000269,-0.009980,-0.031573, 0.054522,-0.000642,1,-0.026641, 0.001525,-0.004723,1,-0.455745,-0.171935, 9.794545,1,1
1778255970195,   906.330,   906.330, 0.052647, 0.033945,-0.995597, 0.000524, 0.000335,-0.009956, 0.060409, 0.154633, 0.030952,1,-0.018212,-0.001782,-0.002550,1,-0.455837,-0.178834, 9.794417,1,1
1778255970216,   906.355,   906.350, 0.042177, 0.044398,-0.990519, 0.000433, 0.000443,-0.009899, 0.026019, 0.219540, 0.088795,1,-0.013827, 0.003153, 0.002525,1,-0.456097,-0.181702, 9.794353,1,1
1778255970238,   906.375,   906.370, 0.034075, 0.041245,-1.002648, 0.000337, 0.000420,-0.010019,-0.103005, 0.259093, 0.029478,1,-0.011564, 0.004014, 0.012145,1,-0.456975,-0.184121, 9.794267,1,1
1778255970265,   906.400,   906.400, 0.042876, 0.026421,-1.000401, 0.000419, 0.000275,-0.010018,-0.036396, 0.073599,-0.016339,1, 0.002068,-0.004044, 0.015169,1,-0.456745,-0.185415, 9.794252,1,1
1778255970286,   906.425,   906.420, 0.056763, 0.019636,-0.987082, 0.000569, 0.000194,-0.009860, 0.084678, 0.004958, 0.125912,1, 0.015377,-0.003741, 0.012123,1,-0.455846,-0.183095, 9.794338,1,1
1778255970308,   906.445,   906.440, 0.048997, 0.019760,-0.999000, 0.000499, 0.000204,-0.009989, 0.079990, 0.037791, 0.032982,1, 0.030143,-0.000273, 0.009337,1,-0.455566,-0.178075, 9.794444,1,1
1778255970335,   906.470,   906.470, 0.039811, 0.023232,-1.001653, 0.000400, 0.000232,-0.010018,-0.065119, 0.061034,-0.028218,1, 0.050104,-0.001230, 0.003066,1,-0.455496,-0.165223, 9.794672,1,1
1778255970356,   906.495,   906.490, 0.040185, 0.018246,-0.985662, 0.000402, 0.000184,-0.009875,-0.079719, 0.029508, 0.069006,1, 0.055251,-0.004214, 0.003655,1,-0.454895,-0.154499, 9.794875,1,1
1778255970378,   906.515,   906.510, 0.045119, 0.027977,-1.000800, 0.000447, 0.000272,-0.009988,-0.034963, 0.058620, 0.092181,1, 0.061017,-0.004417, 0.004125,1,-0.453919,-0.143002, 9.795095,1,1
1778255970405,   906.540,   906.540, 0.047059, 0.013081,-0.998031, 0.000474, 0.000154,-0.009999, 0.008726, 0.002006, 0.008040,1, 0.074631,-0.004022, 0.002762,1,-0.452644,-0.123941, 9.795414,1,1
1778255970426,   906.565,   906.560, 0.051639, 0.012572,-0.993183, 0.000514, 0.000121,-0.009926, 0.005135,-0.099680, 0.075967,1, 0.082125,-0.005742,-0.001115,1,-0.452084,-0.116000, 9.795537,1,1
1778255970448,   906.585,   906.580, 0.049840, 0.010573,-0.998230, 0.000505, 0.000125,-0.009983, 0.061029, 0.058889, 0.024856,1, 0.097116,-0.006553,-0.004706,1,-0.450150,-0.088651, 9.795912,1,1
1778255970475,   906.610,   906.610, 0.043514,-0.001412,-0.991794, 0.000438,-0.000014,-0.009920,-0.022266,-0.076663, 0.069982,1, 0.098782,-0.004305,-0.007472,1,-0.448854,-0.059747, 9.796190,1,1
1778255970497,   906.635,   906.630, 0.044792, 0.006760,-0.999626, 0.000448, 0.000078,-0.010000,-0.016673, 0.023227,-0.003930,1, 0.095209,-0.005063,-0.006623,1,-0.447743,-0.040764, 9.796338,1,1
1778255970518,   906.655,   906.650, 0.042492,-0.000036,-0.987252, 0.000426, 0.000003,-0.009869,-0.023533, 0.003154, 0.076626,1, 0.085929,-0.004646,-0.002691,1,-0.446724,-0.023347, 9.796442,1,1
1778255970545,   906.680,   906.680, 0.045500,-0.002804,-0.992571, 0.000450,-0.000022,-0.009921, 0.000777,-0.029819, 0.062734,1, 0.077564,-0.006480,-0.001902,1,-0.445226, 0.000095, 9.796538,1,1
1778255970567,   906.705,   906.700, 0.054318, 0.002652,-1.005119, 0.000545, 0.000025,-0.010065, 0.067215,-0.005708,-0.063337,1, 0.079136,-0.006000,-0.001979,1,-0.443914, 0.015486, 9.796585,1,1
1778255970588,   906.725,   906.720, 0.049283,-0.001896,-0.983102, 0.000495,-0.000004,-0.009831, 0.073639, 0.035331, 0.052551,1, 0.078730,-0.004043,-0.002072,1,-0.443366, 0.031081, 9.796573,1,1
1778255970615,   906.750,   906.750, 0.046083,-0.005015,-0.996337, 0.000458,-0.000056,-0.009947, 0.009751, 0.003054, 0.025804,1, 0.082510,-0.004690,-0.001265,1,-0.442026, 0.054804, 9.796530,1,1
1778255970637,   906.775,   906.770, 0.046360,-0.000988,-0.997070, 0.000470, 0.000001,-0.009985, 0.032634, 0.065814,-0.088015,1, 0.084093,-0.006242,-0.000192,1,-0.440900, 0.071106, 9.796475,1,1
1778255970660,   906.795,   906.795, 0.043198,-0.011757,-0.981894, 0.000431,-0.000101,-0.009813,-0.015999,-0.023195, 0.167269,1, 0.076198,-0.004653, 0.005288,1,-0.439476, 0.094487, 9.796342,1,1
1778255970685,   906.820,   906.820, 0.042659,-0.011599,-0.999991, 0.000428,-0.000116,-0.009992,-0.020354,-0.007242,-0.010311,1, 0.070903,-0.004374, 0.005717,1,-0.438556, 0.108722, 9.796236,1,1
1778255970707,   906.845,   906.840, 0.047500,-0.020306,-0.993052, 0.000472,-0.000191,-0.009931, 0.015466,-0.027376,-0.004776,1, 0.067701,-0.005950, 0.005917,1,-0.437580, 0.122126, 9.796122,1,1
1778255970730,   906.865,   906.865, 0.049518,-0.022776,-0.992418, 0.000497,-0.000228,-0.009924, 0.049651,-0.083946, 0.063669,1, 0.062606,-0.005168, 0.003580,1,-0.435796, 0.141368, 9.795942,1,1
1778255970755,   906.890,   906.890, 0.044602,-0.021163,-0.995586, 0.000454,-0.000205,-0.009951, 0.002068,-0.056735, 0.032464,1, 0.052479,-0.001521, 0.003890,1,-0.435275, 0.152444, 9.795799,1,1
1778255970777,   906.915,   906.910, 0.036827,-0.029684,-0.993408, 0.000371,-0.000301,-0.009935,-0.072116,-0.114103, 0.059203,1, 0.039555,-0.000864, 0.004261,1,-0.435042, 0.161006, 9.795672,1,1
1778255970800,   906.935,   906.935, 0.039547,-0.026838,-0.995944, 0.000394,-0.000269,-0.009955,-0.046700,-0.094043, 0.028682,1, 0.020276,-0.003554, 0.002662,1,-0.434410, 0.169788, 9.795552,1,1
1778255970826,   906.960,   906.960, 0.041424,-0.026739,-0.993664, 0.000416,-0.000265,-0.009944,-0.027824,-0.090037, 0.051010,1, 0.011202,-0.001740, 0.002605,1,-0.434002, 0.172533, 9.795523,1,1
1778255970847,   906.985,   906.980, 0.036427,-0.027959,-0.994261, 0.000365,-0.000279,-0.009938,-0.062045,-0.099800, 0.057704,1, 0.003779, 0.001023,-0.000366,1,-0.434050, 0.173679, 9.795500,1,1
1778255970870,   907.005,   907.005, 0.035126,-0.023130,-0.996356, 0.000352,-0.000235,-0.009961,-0.089738,-0.053468, 0.024581,1,-0.004661,-0.000597,-0.002005,1,-0.434192, 0.173214, 9.795502,1,1
1778255970896,   907.030,   907.030, 0.038375,-0.022057,-0.995356, 0.000382,-0.000222,-0.009958,-0.057933,-0.044596, 0.034414,1,-0.011291, 0.000367,-0.001867,1,-0.434271, 0.171357, 9.795531,1,1
1778255970917,   907.055,   907.050, 0.042663,-0.024272,-0.992865, 0.000422,-0.000243,-0.009929,-0.029891,-0.067551, 0.063075,1,-0.018509, 0.000635,-0.001328,1,-0.434433, 0.168063, 9.795581,1,1
1778255970940,   907.075,   907.075, 0.044947,-0.020887,-0.995411, 0.000447,-0.000217,-0.009953, 0.005904,-0.042521, 0.034008,1,-0.024986, 0.001369,-0.004387,1,-0.434923, 0.161524, 9.795670,1,1
1778255970966,   907.100,   907.100, 0.045064,-0.015013,-0.995773, 0.000455,-0.000153,-0.009956, 0.006692, 0.009658, 0.030531,1,-0.029665, 0.001640,-0.003264,1,-0.435292, 0.155958, 9.795743,1,1
1778255970987,   907.125,   907.120, 0.043659,-0.014891,-0.994543, 0.000438,-0.000148,-0.009944,-0.005478, 0.024461, 0.042958,1,-0.035917, 0.003632,-0.000043,1,-0.434648, 0.150710, 9.795854,1,1
1778255971010,   907.150,   907.145, 0.043254,-0.014566,-0.995495, 0.000433,-0.000151,-0.009951,-0.011221,-0.002503, 0.033500,1,-0.041429, 0.003374, 0.000817,1,-0.435499, 0.139055, 9.795988,1,1
1778255971036,   907.170,   907.170, 0.044950,-0.010521,-0.994304, 0.000446,-0.000109,-0.009947, 0.004835, 0.028727, 0.045276,1,-0.043384, 0.002943, 0.002893,1,-0.436068, 0.130559, 9.796080,1,1
1778255971057,   907.195,   907.190, 0.046138,-0.010001,-0.996413, 0.000461,-0.000104,-0.009964, 0.010237, 0.010661, 0.040860,1,-0.043263, 0.002024, 0.003430,1,-0.436539, 0.121964, 9.796170,1,1
1778255971080,   907.220,   907.215, 0.046630,-0.006947,-0.994118, 0.000467,-0.000070,-0.009948, 0.020094, 0.043191, 0.047303,1,-0.038683, 0.001805, 0.002902,1,-0.437250, 0.110114, 9.796278,1,1
1778255971106,   907.240,   907.240, 0.046217,-0.006471,-0.993785, 0.000463,-0.000068,-0.009940, 0.015619, 0.040822, 0.050622,1,-0.033764, 0.002614, 0.003041,1,-0.437695, 0.103228, 9.796333,1,1
1778255971128,   907.265,   907.260, 0.044712,-0.003334,-0.995714, 0.000447,-0.000033,-0.009962, 0.006137, 0.075305, 0.026066,1,-0.029918, 0.002339, 0.003323,1,-0.438139, 0.097143, 9.796376,1,1
1778255971150,   907.290,   907.285, 0.044948,-0.007610,-0.995452, 0.000447,-0.000078,-0.009955, 0.002150, 0.015469, 0.034367,1,-0.023870, 0.001273, 0.003537,1,-0.438683, 0.089357, 9.796426,1,1
1778255971176,   907.310,   907.310, 0.046427,-0.007095,-0.995570, 0.000461,-0.000071,-0.009954, 0.016442, 0.016400, 0.033243,1,-0.017750, 0.001041, 0.002517,1,-0.438880, 0.085424, 9.796452,1,1
1778255971198,   907.335,   907.330, 0.047956,-0.008745,-0.995402, 0.000481,-0.000088,-0.009953, 0.037803, 0.004764, 0.041059,1,-0.011851,-0.000126, 0.000727,1,-0.439160, 0.081754, 9.796471,1,1
1778255971220,   907.360,   907.355, 0.045901,-0.006742,-0.996724, 0.000462,-0.000068,-0.009967, 0.010884, 0.013849, 0.021960,1,-0.003811, 0.001077,-0.001011,1,-0.439281, 0.079843, 9.796481,1,1
1778255971246,   907.380,   907.380, 0.043901,-0.009407,-0.994724, 0.000438,-0.000091,-0.009948,-0.008937,-0.012674, 0.041566,1,-0.000810, 0.000701,-0.001765,1,-0.439480, 0.079544, 9.796474,1,1
1778255971268,   907.405,   907.400, 0.048119,-0.008307,-0.995367, 0.000479,-0.000088,-0.009953, 0.013123,-0.027550, 0.040044,1, 0.002958,-0.001164,-0.004326,1,-0.439348, 0.079836, 9.796478,1,1
1778255971291,   907.430,   907.425, 0.047559,-0.005967,-0.996022, 0.000478,-0.000057,-0.009962, 0.027235, 0.022583, 0.028835,1, 0.007106,-0.000319,-0.005077,1,-0.439148, 0.081318, 9.796474,1,1
1778255971316,   907.450,   907.450, 0.044316,-0.007826,-0.995678, 0.000446,-0.000078,-0.009957,-0.004635, 0.006029, 0.032196,1, 0.010115, 0.000557,-0.005861,1,-0.439249, 0.083088, 9.796455,1,1
1778255971338,   907.475,   907.470, 0.041161,-0.007320,-0.994824, 0.000412,-0.000073,-0.009947,-0.032089, 0.008894, 0.041209,1, 0.009381,-0.000409,-0.006535,1,-0.439106, 0.084935, 9.796446,1,1
1778255971365,   907.500,   907.500, 0.040499,-0.004750,-0.995313, 0.000409,-0.000051,-0.009955,-0.041950, 0.039816, 0.035745,1, 0.002671,-0.000342,-0.002271,1,-0.439100, 0.086480, 9.796432,1,1
1778255971386,   907.520,   907.520, 0.039866,-0.005884,-0.994072, 0.000399,-0.000054,-0.009943,-0.048269, 0.028278, 0.047911,1,-0.004045, 0.000289, 0.000031,1,-0.439261, 0.085792, 9.796432,1,1
1778255971408,   907.545,   907.540, 0.041428,-0.010187,-0.994850, 0.000414,-0.000105,-0.009946,-0.043764,-0.019713, 0.042001,1,-0.009137, 0.000498, 0.002214,1,-0.439386, 0.084203, 9.796440,1,1
1778255971435,   907.570,   907.570, 0.043011,-0.005186,-0.995547, 0.000431,-0.000054,-0.009958,-0.017681, 0.030260, 0.033480,1,-0.014385, 0.000486, 0.002981,1,-0.439489, 0.080674, 9.796465,1,1
1778255971456,   907.595,   907.590, 0.043147,-0.009446,-0.994606, 0.000433,-0.000094,-0.009944,-0.016195,-0.001799, 0.042380,1,-0.016313, 0.001931, 0.003422,1,-0.439752, 0.077662, 9.796477,1,1
1778255971478,   907.615,   907.610, 0.044471,-0.007331,-0.996039, 0.000446,-0.000075,-0.009961,-0.005581,-0.012636, 0.041257,1,-0.015824, 0.000720, 0.003825,1,-0.439969, 0.074614, 9.796492,1,1
1778255971505,   907.640,   907.640, 0.045912,-0.009392,-0.995334, 0.000460,-0.000091,-0.009954, 0.010061,-0.021867, 0.035622,1,-0.017703, 0.000673, 0.004118,1,-0.440204, 0.069693, 9.796517,1,1
1778255971527,   907.665,   907.660, 0.046880,-0.010330,-0.995026, 0.000470,-0.000105,-0.009955, 0.021894,-0.045258, 0.044292,1,-0.018081, 0.001374, 0.002538,1,-0.440393, 0.066240, 9.796533,1,1
1778255971548,   907.685,   907.680, 0.046131,-0.009369,-0.995189, 0.000462,-0.000094,-0.009952, 0.017682,-0.028698, 0.041185,1,-0.020679, 0.001011, 0.001764,1,-0.440623, 0.062425, 9.796547,1,1
1778255971575,   907.710,   907.710, 0.044718,-0.009656,-0.994731, 0.000447,-0.000100,-0.009949,-0.002474,-0.037927, 0.041586,1,-0.023286, 0.001190, 0.000578,1,-0.441046, 0.056045, 9.796567,1,1
1778255971597,   907.735,   907.730, 0.045056,-0.004418,-0.994834, 0.000450,-0.000044,-0.009947,-0.002011,-0.004829, 0.043414,1,-0.024977, 0.001056, 0.000548,1,-0.441076, 0.051642, 9.796590,1,1
1778255971618,   907.755,   907.750, 0.045636,-0.002568,-0.995811, 0.000457,-0.000027,-0.009958, 0.005181, 0.014973, 0.036159,1,-0.025557, 0.001330, 0.001016,1,-0.441457, 0.046665, 9.796597,1,1
1778255971645,   907.780,   907.780, 0.045485,-0.001762,-0.995231, 0.000454,-0.000017,-0.009953, 0.004289, 0.022992, 0.036728,1,-0.022220, 0.001271, 0.001033,1,-0.441802, 0.039581, 9.796613,1,1
1778255971667,   907.805,   907.800, 0.046245,-0.000731,-0.995858, 0.000462,-0.000007,-0.009958, 0.010190, 0.033144, 0.035246,1,-0.019155, 0.000370, 0.001114,1,-0.441987, 0.035550, 9.796620,1,1
1778255971688,   907.825,   907.820, 0.045978,-0.001539,-0.995814, 0.000461,-0.000016,-0.009960, 0.010576, 0.019939, 0.035439,1,-0.015396, 0.000097, 0.000585,1,-0.442057, 0.032221, 9.796629,1,1
1778255971715,   907.850,   907.850, 0.046552,-0.002308,-0.995431, 0.000467,-0.000022,-0.009955, 0.014320, 0.006070, 0.034790,1,-0.011944, 0.000475, 0.000380,1,-0.442214, 0.028330, 9.796634,1,1
1778255971737,   907.875,   907.870, 0.045103,-0.000892,-0.994522, 0.000451,-0.000009,-0.009946, 0.008560, 0.017365, 0.036731,1,-0.009655, 0.000708,-0.000548,1,-0.442412, 0.026316, 9.796630,1,1
1778255971758,   907.895,   907.890, 0.044774,-0.000285,-0.995550, 0.000448,-0.000001,-0.009955,-0.004301, 0.026793, 0.046129,1,-0.008550, 0.000046, 0.000138,1,-0.442515, 0.024657, 9.796630,1,1
1778255971785,   907.920,   907.920, 0.045820,-0.001511,-0.995254, 0.000457,-0.000015,-0.009953, 0.006675, 0.007522, 0.036521,1,-0.005653, 0.000263, 0.000221,1,-0.442730, 0.022028, 9.796626,1,1
1778255971807,   907.945,   907.940, 0.047037, 0.000186,-0.994686, 0.000469, 0.000002,-0.009948, 0.015049, 0.012236, 0.041728,1,-0.003573, 0.000117,-0.000867,1,-0.442719, 0.021121, 9.796629,1,1
1778255971829,   907.965,   907.960, 0.046509,-0.000752,-0.995159, 0.000463,-0.000006,-0.009951, 0.011972, 0.019615, 0.041222,1,-0.002132,-0.000359,-0.000396,1,-0.442758, 0.020647, 9.796628,1,1
1778255971856,   907.990,   907.990, 0.046607,-0.001761,-0.996005, 0.000465,-0.000019,-0.009960, 0.014336, 0.003775, 0.029155,1, 0.004414,-0.000738,-0.001418,1,-0.442701, 0.021179, 9.796630,1,1
1778255971877,   908.015,   908.010, 0.046070, 0.000088,-0.993770, 0.000463, 0.000002,-0.009940, 0.018610, 0.025546, 0.043879,1, 0.007142,-0.001097,-0.002281,1,-0.442568, 0.022407, 9.796633,1,1
1778255971900,   908.035,   908.035, 0.045000,-0.000755,-0.994908, 0.000451,-0.000007,-0.009948,-0.001021, 0.017355, 0.039928,1, 0.010661,-0.001075,-0.002235,1,-0.442285, 0.025093, 9.796639,1,1
1778255971926,   908.060,   908.060, 0.043680, 0.000045,-0.995510, 0.000437,-0.000001,-0.009957,-0.013845, 0.027319, 0.034016,1, 0.011048,-0.000429,-0.001982,1,-0.442187, 0.027220, 9.796638,1,1
1778255971947,   908.085,   908.080, 0.042845, 0.000761,-0.994920, 0.000428, 0.000008,-0.009948,-0.020845, 0.033505, 0.036452,1, 0.011647,-0.000793,-0.000646,1,-0.442131, 0.029447, 9.796634,1,1
1778255971970,   908.105,   908.105, 0.042922, 0.000423,-0.995306, 0.000428, 0.000006,-0.009956,-0.020880, 0.036377, 0.036021,1, 0.010490,-0.000827, 0.001399,1,-0.441775, 0.032556, 9.796640,1,1
1778255971996,   908.130,   908.130, 0.043772,-0.002319,-0.995701, 0.000437,-0.000022,-0.009961,-0.012477, 0.010868, 0.032143,1, 0.010959,-0.000394, 0.001823,1,-0.441720, 0.033946, 9.796638,1,1
1778255972017,   908.155,   908.150, 0.044246,-0.004208,-0.994572, 0.000441,-0.000038,-0.009947,-0.009115, 0.007208, 0.034921,1, 0.012537,-0.001019, 0.002001,1,-0.441552, 0.036359, 9.796637,1,1
1778255972040,   908.175,   908.175, 0.044831,-0.005156,-0.995122, 0.000447,-0.000050,-0.009951,-0.001802,-0.010791, 0.037816,1, 0.013518,-0.001037, 0.000998,1,-0.441408, 0.040196, 9.796628,1,1
1778255972066,   908.200,   908.200, 0.046587,-0.005648,-0.994952, 0.000463,-0.000054,-0.009950, 0.015638,-0.012891, 0.039484,1, 0.014317,-0.000521, 0.000251,1,-0.441207, 0.042940, 9.796626,1,1
1778255972087,   908.225,   908.220, 0.046119,-0.007122,-0.995627, 0.000463,-0.000070,-0.009957, 0.013338,-0.014272, 0.037006,1, 0.012663,-0.000778, 0.000027,1,-0.441074, 0.045531, 9.796620,1,1
1778255972110,   908.245,   908.245, 0.046833,-0.006996,-0.995194, 0.000470,-0.000069,-0.009953, 0.018402,-0.019924, 0.037090,1, 0.010773,-0.000998,-0.000444,1,-0.440839, 0.049019, 9.796614,1,1
1778255972136,   908.270,   908.270, 0.046436,-0.004941,-0.994493, 0.000463,-0.000050,-0.009945, 0.016251,-0.011364, 0.038041,1, 0.010828,-0.000936,-0.001393,1,-0.440740, 0.050058, 9.796613,1,1
1778255972158,   908.295,   908.290, 0.044078,-0.003823,-0.994654, 0.000443,-0.000037,-0.009949, 0.009048, 0.012707, 0.035291,1, 0.009292,-0.000382,-0.000169,1,-0.440536, 0.053084, 9.796606,1,1
1778255972180,   908.315,   908.315, 0.043768,-0.002861,-0.994877, 0.000438,-0.000029,-0.009949,-0.011329, 0.027503, 0.040182,1, 0.009077,-0.000125, 0.000884,1,-0.440580, 0.055860, 9.796589,1,1
1778255972206,   908.340,   908.340, 0.043069,-0.003663,-0.995023, 0.000429,-0.000036,-0.009949,-0.018197, 0.021366, 0.038740,1, 0.008758,-0.000029, 0.001619,1,-0.440558, 0.057566, 9.796580,1,1
1778255972228,   908.365,   908.360, 0.042859,-0.004803,-0.994134, 0.000425,-0.000047,-0.009944,-0.023614, 0.011467, 0.036923,1, 0.008691,-0.000609, 0.002542,1,-0.440441, 0.059229, 9.796576,1,1
1778255972251,   908.390,   908.385, 0.043380,-0.004590,-0.996030, 0.000434,-0.000046,-0.009959,-0.014885, 0.016777, 0.028849,1, 0.010269,-0.001146, 0.002156,1,-0.440259, 0.062111, 9.796566,1,1
1778255972276,   908.410,   908.410, 0.043854,-0.006479,-0.996219, 0.000439,-0.000064,-0.009965,-0.010106, 0.000386, 0.026984,1, 0.010913,-0.000433, 0.002631,1,-0.440148, 0.064269, 9.796556,1,1
1778255972298,   908.435,   908.430, 0.045138,-0.011203,-0.994324, 0.000451,-0.000111,-0.009942,-0.002024,-0.029070, 0.053265,1, 0.011279,-0.000267, 0.002161,1,-0.440058, 0.066429, 9.796546,1,1
1778255972321,   908.460,   908.455, 0.047582,-0.010296,-0.995682, 0.000476,-0.000105,-0.009959, 0.026728,-0.031795, 0.032226,1, 0.010307,-0.000142,-0.000123,1,-0.439889, 0.069495, 9.796533,1,1
1778255972346,   908.480,   908.480, 0.047134,-0.008707,-0.994491, 0.000473,-0.000086,-0.009950, 0.022409,-0.014345, 0.043899,1, 0.008334, 0.000010,-0.000446,1,-0.439821, 0.071300, 9.796523,1,1
1778255972368,   908.505,   908.500, 0.045920,-0.007169,-0.995213, 0.000457,-0.000074,-0.009952, 0.008478,-0.010412, 0.045761,1, 0.006666,-0.000814,-0.000660,1,-0.439762, 0.072738, 9.796515,1,1
1778255972391,   908.530,   908.525, 0.045588,-0.004499,-0.995488, 0.000456,-0.000045,-0.009956, 0.007432, 0.030343, 0.034103,1, 0.005498,-0.000752, 0.000306,1,-0.439610, 0.074637, 9.796507,1,1
1778255972416,   908.550,   908.550, 0.045019,-0.006728,-0.994392, 0.000451,-0.000065,-0.009944, 0.001857, 0.009538, 0.044843,1, 0.005042, 0.000276, 0.001517,1,-0.439632, 0.075678, 9.796498,1,1
1778255972438,   908.575,   908.570, 0.043948,-0.008025,-0.995655, 0.000438,-0.000079,-0.009960,-0.012431,-0.006630, 0.032512,1, 0.005252,-0.000301, 0.000640,1,-0.439594, 0.076733, 9.796492,1,1
1778255972461,   908.600,   908.595, 0.044613,-0.009681,-0.995104, 0.000444,-0.000095,-0.009949,-0.001988,-0.016493, 0.037846,1, 0.006907,-0.000633, 0.000257,1,-0.439474, 0.078659, 9.796482,1,1
1778255972486,   908.620,   908.620, 0.044447,-0.009185,-0.994454, 0.000444,-0.000093,-0.009941,-0.003444,-0.010276, 0.044218,1, 0.007845,-0.001099,-0.000744,1,-0.439289, 0.080047, 9.796479,1,1
1778255972508,   908.645,   908.640, 0.044270,-0.009690,-0.995332, 0.000445,-0.000097,-0.009952, 0.002464,-0.010304, 0.031833,1, 0.007549,-0.000516,-0.001002,1,-0.439105, 0.081514, 9.796475,1,1
1778255972531,   908.670,   908.665, 0.043707,-0.007631,-0.994891, 0.000439,-0.000079,-0.009950,-0.010477, 0.008612, 0.039914,1, 0.006936,-0.001206,-0.002440,1,-0.439059, 0.083655, 9.796459,1,1
1778255972557,   908.690,   908.690, 0.042208,-0.006905,-0.995120, 0.000425,-0.000067,-0.009952,-0.025167, 0.016914, 0.037659,1, 0.005074, 0.000178,-0.001582,1,-0.439090, 0.084787, 9.796448,1,1
1778255972578,   908.715,   908.710, 0.042226,-0.007706,-0.995515, 0.000421,-0.000076,-0.009954,-0.024328, 0.005615, 0.033682,1, 0.002957,-0.000598,-0.000153,1,-0.439088, 0.085564, 9.796441,1,1
1778255972605,   908.740,   908.740, 0.044323,-0.008621,-0.995208, 0.000442,-0.000085,-0.009950,-0.004171, 0.001519, 0.036795,1, 0.001436,-0.000402, 0.000331,1,-0.438817, 0.086110, 9.796449,1,1
1778255972627,   908.760,   908.760, 0.045421,-0.010764,-0.994694, 0.000453,-0.000109,-0.009945, 0.006622,-0.019421, 0.041831,1, 0.000599, 0.000023,-0.000173,1,-0.438806, 0.086155, 9.796449,1,1
1778255972648,   908.785,   908.780, 0.046360,-0.009073,-0.994607, 0.000464,-0.000091,-0.009945, 0.014820,-0.004520, 0.037137,1, 0.001151, 0.000319,-0.001162,1,-0.438805, 0.086309, 9.796448,1,1
1778255972675,   908.810,   908.810, 0.046523,-0.010056,-0.995030, 0.000465,-0.000101,-0.009950, 0.017351,-0.012111, 0.038529,1, 0.001023,-0.000067,-0.000982,1,-0.438879, 0.086533, 9.796442,1,1
1778255972697,   908.835,   908.830, 0.044422,-0.005386,-0.993625, 0.000453,-0.000069,-0.009908, 0.021382, 0.016325, 0.044212,1, 0.001545,-0.000914,-0.001245,1,-0.438892, 0.086687, 9.796440,1,1
1778255972718,   908.855,   908.850, 0.043922,-0.006248,-0.994697, 0.000446,-0.000041,-0.009961,-0.009906, 0.086171, 0.014250,1, 0.001163, 0.000310, 0.000507,1,-0.438959, 0.086827, 9.796436,1,1
1778255972745,   908.880,   908.880, 0.041857,-0.014356,-0.995143, 0.000415,-0.000140,-0.009935,-0.028528,-0.054284, 0.037419,1,-0.002384,-0.000662, 0.000201,1,-0.438984, 0.086430, 9.796438,1,1
1778255972767,   908.905,   908.900, 0.044547,-0.006827,-0.994224, 0.000453,-0.000083,-0.009958,-0.005373, 0.024660, 0.058968,1,-0.001406, 0.000300, 0.000471,1,-0.438937, 0.086290, 9.796442,1,1
1778255972788,   908.925,   908.920, 0.043902,-0.010400,-0.995841, 0.000437,-0.000108,-0.009954,-0.009946,-0.011626, 0.040509,1,-0.001750, 0.000130, 0.000680,1,-0.439133, 0.086033, 9.796435,1,1
1778255972815,   908.950,   908.950, 0.042687,-0.006167,-0.994582, 0.000432,-0.000065,-0.009950,-0.020695, 0.025521, 0.042908,1, 0.001699, 0.000074,-0.000576,1,-0.439312, 0.086049, 9.796427,1,1
1778255972837,   908.975,   908.970, 0.044804,-0.008518,-0.995398, 0.000449,-0.000085,-0.009954,-0.002807, 0.011838, 0.027080,1, 0.001166,-0.000652, 0.000182,1,-0.439180, 0.086194, 9.796432,1,1
1778255972859,   908.995,   908.990, 0.045638,-0.006624,-0.994018, 0.000456,-0.000067,-0.009942, 0.006362, 0.011174, 0.036551,1, 0.002779,-0.000776,-0.000414,1,-0.439125, 0.086536, 9.796432,1,1
1778255972886,   909.020,   909.020, 0.046001,-0.008381,-0.995241, 0.000461,-0.000084,-0.009954, 0.012201, 0.005598, 0.036448,1, 0.005404,-0.000739,-0.000759,1,-0.438894, 0.087952, 9.796429,1,1
1778255972907,   909.045,   909.040, 0.046013,-0.006482,-0.995592, 0.000462,-0.000064,-0.009954, 0.015701, 0.016255, 0.035808,1, 0.007886,-0.000322,-0.001020,1,-0.438772, 0.089350, 9.796422,1,1
1778255972929,   909.065,   909.060, 0.045285,-0.007293,-0.993669, 0.000455,-0.000071,-0.009938, 0.009819, 0.033556, 0.049666,1, 0.008186,-0.000020,-0.000111,1,-0.438718, 0.090954, 9.796410,1,1
1778255972956,   909.090,   909.090, 0.044123,-0.008107,-0.996306, 0.000442,-0.000081,-0.009963,-0.005927, 0.013410, 0.025966,1, 0.006945, 0.000045, 0.001001,1,-0.438625, 0.093133, 9.796393,1,1
1778255972977,   909.115,   909.110, 0.044134,-0.007463,-0.994944, 0.000439,-0.000074,-0.009950,-0.009194, 0.025534, 0.037151,1, 0.006723,-0.000776, 0.002103,1,-0.438466, 0.094582, 9.796387,1,1
1778255972999,   909.135,   909.130, 0.045327,-0.008459,-0.994923, 0.000452,-0.000084,-0.009948, 0.000563, 0.021352, 0.040091,1, 0.008421,-0.000279, 0.001771,1,-0.438324, 0.095723, 9.796382,1,1
1778255973026,   909.160,   909.160, 0.045130,-0.008590,-0.995123, 0.000451,-0.000085,-0.009954, 0.004402, 0.014211, 0.037537,1, 0.012084,-0.000502, 0.002363,1,-0.438160, 0.098833, 9.796358,1,1
1778255973047,   909.185,   909.180, 0.044823,-0.009789,-0.995285, 0.000447,-0.000096,-0.009951, 0.006074, 0.011648, 0.034026,1, 0.013432, 0.000182, 0.002148,1,-0.438115, 0.101341, 9.796334,1,1
1778255973069,   909.205,   909.200, 0.043811,-0.010735,-0.994839, 0.000434,-0.000105,-0.009948,-0.000143,-0.000827, 0.036663,1, 0.013882,-0.000432, 0.001105,1,-0.437989, 0.104042, 9.796311,1,1
1778255973096,   909.230,   909.230, 0.043396,-0.010406,-0.995732, 0.000435,-0.000106,-0.009957,-0.012281, 0.005737, 0.031477,1, 0.014759,-0.000608, 0.001864,1,-0.437830, 0.108250, 9.796273,1,1
1778255973117,   909.255,   909.250, 0.043302,-0.012320,-0.994222, 0.000435,-0.000121,-0.009944,-0.015949,-0.005492, 0.032821,1, 0.014235,-0.000471, 0.001326,1,-0.437772, 0.111035, 9.796245,1,1
1778255973140,   909.275,   909.275, 0.045487,-0.012649,-0.994804, 0.000456,-0.000125,-0.009947, 0.008589,-0.009302, 0.040517,1, 0.014252,-0.002033, 0.001268,1,-0.437422, 0.115185, 9.796212,1,1
1778255973166,   909.300,   909.300, 0.046360,-0.012600,-0.996177, 0.000463,-0.000124,-0.009960, 0.017428,-0.005956, 0.027035,1, 0.014015,-0.000613,-0.000160,1,-0.437191, 0.118046, 9.796188,1,1
1778255973188,   909.325,   909.320, 0.043883,-0.012828,-0.994643, 0.000439,-0.000131,-0.009946, 0.005040,-0.006304, 0.044025,1, 0.013840,-0.000702, 0.000389,1,-0.437063, 0.120671, 9.796163,1,1
1778255973210,   909.345,   909.345, 0.043798,-0.012355,-0.994694, 0.000438,-0.000125,-0.009947,-0.007404, 0.002902, 0.041512,1, 0.012591,-0.000898,-0.000290,1,-0.436885, 0.124458, 9.796123,1,1
1778255973236,   909.370,   909.370, 0.044511,-0.013406,-0.994998, 0.000444,-0.000132,-0.009951,-0.000255,-0.005160, 0.038510,1, 0.011745,-0.001228,-0.000554,1,-0.436724, 0.126670, 9.796102,1,1
1778255973258,   909.395,   909.390, 0.043852,-0.016725,-0.994319, 0.000441,-0.000169,-0.009943,-0.001825,-0.030964, 0.035228,1, 0.011131,-0.000815,-0.000540,1,-0.436460, 0.128869, 9.796085,1,1
1778255973280,   909.415,   909.415, 0.043631,-0.015256,-0.994137, 0.000438,-0.000152,-0.009942,-0.008429,-0.018156, 0.046905,1, 0.009789,-0.001328,-0.001642,1,-0.436261, 0.131762, 9.796055,1,1
1778255973306,   909.440,   909.440, 0.044420,-0.015706,-0.996367, 0.000443,-0.000155,-0.009962,-0.000548,-0.020721, 0.025018,1, 0.009825,-0.000444,-0.003186,1,-0.436150, 0.133606, 9.796035,1,1
1778255973328,   909.465,   909.460, 0.044362,-0.014401,-0.993329, 0.000444,-0.000146,-0.009936, 0.005361,-0.018413, 0.028350,1, 0.010356,-0.001316,-0.004077,1,-0.435976, 0.135614, 9.796016,1,1
1778255973351,   909.485,   909.485, 0.042451,-0.012596,-0.994425, 0.000425,-0.000126,-0.009940,-0.019699, 0.014857, 0.044002,1, 0.010083,-0.000418,-0.003879,1,-0.435990, 0.138691, 9.795972,1,1
1778255973376,   909.510,   909.510, 0.040868,-0.012891,-0.996003, 0.000412,-0.000130,-0.009959,-0.035203, 0.013735, 0.028494,1, 0.008164, 0.000189,-0.002490,1,-0.435992, 0.140406, 9.795947,1,1
1778255973398,   909.535,   909.530, 0.043235,-0.012272,-0.994691, 0.000433,-0.000121,-0.009949,-0.021630, 0.023830, 0.033386,1, 0.006265,-0.001661,-0.001195,1,-0.435684, 0.142103, 9.795937,1,1
1778255973421,   909.555,   909.555, 0.045747,-0.013633,-0.994731, 0.000458,-0.000134,-0.009949, 0.013064, 0.009395, 0.040945,1, 0.002832,-0.000266, 0.000469,1,-0.435555, 0.143178, 9.795926,1,1
1778255973446,   909.580,   909.580, 0.046085,-0.014066,-0.994467, 0.000463,-0.000142,-0.009943, 0.016434, 0.005665, 0.043529,1, 0.002657,-0.000167, 0.000966,1,-0.435504, 0.143693, 9.795921,1,1
1778255973468,   909.605,   909.600, 0.044648,-0.012593,-0.995601, 0.000446,-0.000125,-0.009954,-0.001586, 0.020844, 0.034250,1, 0.002669, 0.000554, 0.000954,1,-0.435639, 0.144164, 9.795908,1,1
1778255973491,   909.630,   909.625, 0.045218,-0.015868,-0.996228, 0.000451,-0.000156,-0.009961, 0.007966,-0.010787, 0.026246,1, 0.003304,-0.000893, 0.001142,1,-0.435444, 0.144928, 9.795906,1,1
1778255973516,   909.650,   909.650, 0.047132,-0.015457,-0.994650, 0.000470,-0.000155,-0.009945, 0.026953,-0.006148, 0.041725,1, 0.003227,-0.000981, 0.000714,1,-0.435220, 0.145538, 9.795907,1,1
1778255973538,   909.670,   909.670, 0.045623,-0.016005,-0.994432, 0.000457,-0.000158,-0.009944, 0.012184,-0.010810, 0.043849,1, 0.004022, 0.000147, 0.000799,1,-0.435225, 0.146272, 9.795896,1,1
1778255973561,   909.700,   909.695, 0.043514,-0.017021,-0.994635, 0.000436,-0.000171,-0.009949,-0.008538,-0.019670, 0.041840,1, 0.003327,-0.001093, 0.000128,1,-0.435229, 0.147349, 9.795879,1,1
1778255973587,   909.720,   909.720, 0.044376,-0.015427,-0.994014, 0.000442,-0.000156,-0.009942,-0.000060,-0.003603, 0.047929,1, 0.001079,-0.001261,-0.000397,1,-0.435243, 0.147704, 9.795874,1,1
1778255973608,   909.745,   909.740, 0.043536,-0.017019,-0.995193, 0.000436,-0.000166,-0.009951,-0.001396,-0.009776, 0.031910,1,-0.002410, 0.000138, 0.000341,1,-0.435175, 0.147472, 9.795879,1,1
1778255973631,   909.770,   909.765, 0.042066,-0.019123,-0.993751, 0.000423,-0.000192,-0.009939,-0.022805,-0.041210, 0.050520,1,-0.005486, 0.000283,-0.000171,1,-0.435342, 0.146155, 9.795892,1,1
1778255973657,   909.790,   909.790, 0.042068,-0.014061,-0.994969, 0.000422,-0.000143,-0.009947,-0.022942, 0.007162, 0.038585,1,-0.007398, 0.000734,-0.000984,1,-0.435513, 0.144817, 9.795904,1,1
1778255973678,   909.815,   909.810, 0.042465,-0.014668,-0.995115, 0.000426,-0.000144,-0.009949,-0.014167, 0.008102, 0.034720,1,-0.009406, 0.000740,-0.000002,1,-0.435677, 0.142910, 9.795925,1,1
1778255973701,   909.840,   909.835, 0.042668,-0.013875,-0.995026, 0.000426,-0.000139,-0.009947,-0.017546, 0.004317, 0.038079,1,-0.009466, 0.001216,-0.000428,1,-0.436019, 0.140091, 9.795951,1,1
1778255973727,   909.860,   909.860, 0.042608,-0.011812,-0.995859, 0.000424,-0.000117,-0.009957,-0.018354, 0.022732, 0.029927,1,-0.009736, 0.000958, 0.001135,1,-0.436229, 0.138270, 9.795967,1,1
1778255973748,   909.885,   909.880, 0.043361,-0.010902,-0.993500, 0.000434,-0.000108,-0.009939,-0.013319, 0.026156, 0.034022,1,-0.009002, 0.000727, 0.001474,1,-0.436451, 0.136469, 9.795982,1,1
1778255973771,   909.910,   909.905, 0.043906,-0.008695,-0.996321, 0.000437,-0.000084,-0.009962,-0.006077, 0.048707, 0.025438,1,-0.009721, 0.001673, 0.003697,1,-0.436694, 0.133677, 9.796010,1,1
1778255973797,   909.930,   909.930, 0.044719,-0.012670,-0.994174, 0.000447,-0.000130,-0.009948, 0.002124, 0.007864, 0.046526,1,-0.007200,-0.000498, 0.003507,1,-0.436393, 0.131888, 9.796048,1,1
1778255973818,   909.955,   909.950, 0.047957,-0.012703,-0.996390, 0.000479,-0.000120,-0.009958, 0.020184, 0.016399, 0.034237,1,-0.004639, 0.000426, 0.001795,1,-0.436420, 0.130802, 9.796062,1,1
1778255973845,   909.980,   909.980, 0.046722,-0.016142,-0.995159, 0.000468,-0.000162,-0.009953, 0.021740,-0.028131, 0.036893,1, 0.000344, 0.000306, 0.000306,1,-0.436459, 0.130177, 9.796067,1,1
1778255973867,   910.000,   910.000, 0.046967,-0.013830,-0.994518, 0.000468,-0.000143,-0.009943, 0.024120,-0.005036, 0.043176,1, 0.002445,-0.000056,-0.000772,1,-0.436464, 0.130660, 9.796061,1,1
1778255973889,   910.025,   910.020, 0.045858,-0.011449,-0.994886, 0.000460,-0.000115,-0.009955, 0.013954, 0.019386, 0.041638,1, 0.003594,-0.001019,-0.000413,1,-0.436269, 0.131365, 9.796061,1,1
1778255973916,   910.050,   910.050, 0.045610,-0.011446,-0.994549, 0.000455,-0.000114,-0.009949, 0.011109, 0.020022, 0.042857,1, 0.003125,-0.000542, 0.000498,1,-0.436152, 0.132365, 9.796052,1,1
1778255973937,   910.075,   910.070, 0.044817,-0.014013,-0.995170, 0.000451,-0.000139,-0.009953, 0.002655, 0.004821, 0.043754,1, 0.003368, 0.000104, 0.000888,1,-0.436053, 0.133043, 9.796047,1,1
1778255973959,   910.095,   910.090, 0.044042,-0.014479,-0.994957, 0.000441,-0.000148,-0.009950,-0.003307,-0.013727, 0.034891,1, 0.003525,-0.000498, 0.000991,1,-0.435913, 0.133802, 9.796043,1,1
1778255973986,   910.120,   910.120, 0.043727,-0.014477,-0.995026, 0.000436,-0.000144,-0.009947,-0.007268,-0.007389, 0.038149,1, 0.002862,-0.001000, 0.000311,1,-0.436158, 0.134653, 9.796021,1,1
1778255974007,   910.145,   910.140, 0.044010,-0.016198,-0.995459, 0.000438,-0.000161,-0.009950,-0.009190,-0.018291, 0.036282,1, 0.001290,-0.000474,-0.000038,1,-0.436077, 0.135000, 9.796020,1,1
1778255974029,   910.165,   910.160, 0.043816,-0.015746,-0.995548, 0.000438,-0.000156,-0.009954, 0.002054,-0.019011, 0.033917,1, 0.001204,-0.000622,-0.000571,1,-0.436012, 0.135155, 9.796021,1,1
1778255974056,   910.190,   910.190, 0.044489,-0.016377,-0.994123, 0.000444,-0.000166,-0.009943, 0.000288,-0.025799, 0.047006,1,-0.002127, 0.000140,-0.000540,1,-0.436002, 0.134737, 9.796026,1,1
1778255974077,   910.215,   910.210, 0.043092,-0.013488,-0.994687, 0.000431,-0.000135,-0.009949,-0.008932,-0.004587, 0.043319,1,-0.003773,-0.000154,-0.001821,1,-0.436009, 0.134214, 9.796033,1,1
1778255974099,   910.235,   910.230, 0.042628,-0.013403,-0.994985, 0.000427,-0.000136,-0.009952,-0.014807, 0.006249, 0.044141,1,-0.005827, 0.000253,-0.001833,1,-0.436120, 0.133228, 9.796041,1,1
1778255974126,   910.260,   910.260, 0.041916,-0.013100,-0.995191, 0.000420,-0.000134,-0.009952,-0.025261, 0.002701, 0.036571,1,-0.009801, 0.000751,-0.000321,1,-0.436342, 0.130859, 9.796063,1,1
1778255974147,   910.285,   910.280, 0.043569,-0.012429,-0.995134, 0.000434,-0.000124,-0.009953,-0.018289, 0.003006, 0.032829,1,-0.010811, 0.000482,-0.000556,1,-0.436379, 0.128820, 9.796089,1,1
1778255974169,   910.305,   910.300, 0.043779,-0.012748,-0.994941, 0.000437,-0.000128,-0.009948,-0.009032, 0.003883, 0.035309,1,-0.011613, 0.000755,-0.000177,1,-0.436473, 0.126592, 9.796114,1,1
1778255974196,   910.330,   910.330, 0.044198,-0.012653,-0.995517, 0.000441,-0.000126,-0.009954,-0.003020,-0.000339, 0.033461,1,-0.011614, 0.000777,-0.000413,1,-0.436469, 0.123387, 9.796155,1,1
1778255974217,   910.355,   910.350, 0.043994,-0.010588,-0.995139, 0.000440,-0.000109,-0.009952,-0.010110, 0.010468, 0.037032,1,-0.010602, 0.000401,-0.000200,1,-0.436667, 0.121318, 9.796172,1,1
1778255974239,   910.375,   910.370, 0.045026,-0.011163,-0.994604, 0.000451,-0.000113,-0.009948,-0.001327, 0.009733, 0.039229,1,-0.010301, 0.000563,-0.000379,1,-0.436809, 0.119303, 9.796190,1,1
1778255974266,   910.400,   910.400, 0.045858,-0.009386,-0.994887, 0.000461,-0.000097,-0.009948, 0.012847, 0.024934, 0.039709,1,-0.007349, 0.000380,-0.000244,1,-0.436879, 0.116750, 9.796218,1,1
1778255974288,   910.425,   910.420, 0.046328,-0.008618,-0.995444, 0.000463,-0.000086,-0.009954, 0.019721, 0.027652, 0.033542,1,-0.005064, 0.000491,-0.000422,1,-0.436933, 0.115575, 9.796229,1,1
1778255974309,   910.445,   910.440, 0.045958,-0.009225,-0.995250, 0.000460,-0.000090,-0.009952, 0.016948, 0.032232, 0.036860,1,-0.002898, 0.000940,-0.000488,1,-0.437103, 0.114862, 9.796230,1,1
1778255974336,   910.470,   910.470, 0.045326,-0.009647,-0.995205, 0.000452,-0.000094,-0.009952, 0.007295, 0.019942, 0.036600,1, 0.000536, 0.000000, 0.000506,1,-0.437206, 0.114568, 9.796229,1,1
1778255974358,   910.490,   910.490, 0.044923,-0.009543,-0.995237, 0.000451,-0.000096,-0.009952, 0.003414, 0.021244, 0.036291,1, 0.002722,-0.000415, 0.000057,1,-0.437117, 0.114916, 9.796229,1,1
1778255974380,   910.515,   910.515, 0.044871,-0.010350,-0.995502, 0.000447,-0.000107,-0.009956, 0.002857, 0.013997, 0.033678,1, 0.005113,-0.000460,-0.000216,1,-0.437227, 0.115524, 9.796217,1,1
1778255974406,   910.540,   910.540, 0.045208,-0.011385,-0.993136, 0.000451,-0.000113,-0.009932, 0.006188, 0.004855, 0.056871,1, 0.007573,-0.000697,-0.000516,1,-0.437134, 0.116735, 9.796207,1,1
1778255974428,   910.565,   910.560, 0.045990,-0.010776,-0.996388, 0.000461,-0.000104,-0.009966, 0.018565, 0.029627, 0.013521,1, 0.009603,-0.001553,-0.000830,1,-0.436914, 0.118581, 9.796195,1,1
1778255974451,   910.585,   910.585, 0.045106,-0.013598,-0.993478, 0.000450,-0.000138,-0.009939, 0.005557,-0.011682, 0.053469,1, 0.012337,-0.001047,-0.001269,1,-0.436745, 0.122047, 9.796160,1,1
1778255974476,   910.610,   910.610, 0.044543,-0.011771,-0.995241, 0.000444,-0.000118,-0.009949, 0.000341, 0.008672, 0.036162,1, 0.013386,-0.001380,-0.001323,1,-0.436437, 0.124523, 9.796143,1,1
1778255974498,   910.635,   910.630, 0.045249,-0.015180,-0.995740, 0.000457,-0.000151,-0.009957, 0.009281,-0.008178, 0.030423,1, 0.012981,-0.001516,-0.001723,1,-0.436257, 0.127047, 9.796118,1,1
1778255974521,   910.655,   910.655, 0.045125,-0.015420,-0.993846, 0.000452,-0.000153,-0.009937, 0.006471,-0.020785, 0.049784,1, 0.012272,-0.000682,-0.001591,1,-0.436034, 0.130817, 9.796078,1,1
1778255974546,   910.680,   910.680, 0.045512,-0.015631,-0.995588, 0.000457,-0.000152,-0.009952, 0.010430,-0.020645, 0.032672,1, 0.010272,-0.000759,-0.002646,1,-0.435872, 0.132955, 9.796057,1,1
1778255974568,   910.705,   910.700, 0.045242,-0.015112,-0.994668, 0.000454,-0.000150,-0.009948, 0.010665,-0.013741, 0.033112,1, 0.009841,-0.000340,-0.003644,1,-0.435704, 0.134888, 9.796038,1,1
1778255974591,   910.725,   910.725, 0.044463,-0.016067,-0.994944, 0.000445,-0.000157,-0.009946, 0.000261,-0.020357, 0.038938,1, 0.006826,-0.000410,-0.003474,1,-0.435768, 0.137418, 9.796000,1,1
1778255974617,   910.750,   910.750, 0.044320,-0.015909,-0.995237, 0.000443,-0.000162,-0.009954,-0.001082,-0.017713, 0.036044,1, 0.003966,-0.000614,-0.003099,1,-0.435698, 0.138418, 9.795989,1,1
1778255974638,   910.775,   910.770, 0.043875,-0.013376,-0.994125, 0.000440,-0.000133,-0.009940,-0.003249,-0.001448, 0.051941,1, 0.000635, 0.000435,-0.002433,1,-0.435716, 0.138712, 9.795983,1,1
1778255974661,   910.795,   910.795, 0.043500,-0.014506,-0.996051, 0.000437,-0.000141,-0.009960,-0.009208,-0.004527, 0.028075,1,-0.006031, 0.000481,-0.001338,1,-0.435809, 0.137536, 9.795996,1,1
1778255974687,   910.820,   910.820, 0.042893,-0.016570,-0.995108, 0.000430,-0.000166,-0.009951,-0.015227,-0.026545, 0.037338,1,-0.011033,-0.000161,-0.000592,1,-0.435856, 0.135610, 9.796021,1,1
1778255974708,   910.840,   910.840, 0.042260,-0.015032,-0.993354, 0.000423,-0.000153,-0.009935,-0.021568,-0.013945, 0.054567,1,-0.014457, 0.000596,-0.000250,1,-0.436019, 0.133016, 9.796049,1,1
1778255974731,   910.870,   910.865, 0.041373,-0.012847,-0.994895, 0.000415,-0.000127,-0.009949,-0.030556, 0.002663, 0.039504,1,-0.018149, 0.001208,-0.000749,1,-0.436330, 0.128078, 9.796101,1,1
1778255974757,   910.890,   910.890, 0.039889,-0.013206,-0.995882, 0.000398,-0.000137,-0.009960,-0.045407,-0.004422, 0.029857,1,-0.018557, 0.002258,-0.001194,1,-0.436658, 0.124504, 9.796132,1,1
1778255974778,   910.915,   910.910, 0.038763,-0.008614,-0.994635, 0.000387,-0.000086,-0.009944,-0.062681, 0.019716, 0.052849,1,-0.017204, 0.001304,-0.000295,1,-0.436882, 0.121043, 9.796165,1,1
1778255974801,   910.940,   910.935, 0.039240,-0.007055,-0.997179, 0.000390,-0.000070,-0.009973,-0.051942, 0.047589, 0.017234,1,-0.016901, 0.001594, 0.001947,1,-0.436806, 0.116255, 9.796227,1,1
1778255974827,   910.960,   910.960, 0.040880,-0.007391,-0.995740, 0.000407,-0.000074,-0.009961,-0.036112, 0.041001, 0.031379,1,-0.018116, 0.001237, 0.003475,1,-0.437046, 0.112922, 9.796255,1,1
1778255974848,   910.985,   910.980, 0.045884,-0.009145,-0.994622, 0.000456,-0.000091,-0.009944,-0.011255, 0.028554, 0.055368,1,-0.016598, 0.000725, 0.004988,1,-0.437297, 0.109703, 9.796281,1,1
1778255974871,   911.010,   911.005, 0.049080,-0.010069,-0.995679, 0.000490,-0.000100,-0.009957, 0.043883, 0.006732, 0.032047,1,-0.015199, 0.000044, 0.004706,1,-0.437423, 0.105006, 9.796327,1,1
1778255974897,   911.030,   911.030, 0.050100,-0.010067,-0.993599, 0.000502,-0.000102,-0.009941, 0.053756, 0.003894, 0.052470,1,-0.013723, 0.001086, 0.004599,1,-0.437591, 0.102199, 9.796349,1,1
1778255974918,   911.055,   911.050, 0.050903,-0.011798,-0.995496, 0.000509,-0.000118,-0.009950, 0.060133,-0.017098, 0.055311,1,-0.011308,-0.000133, 0.003194,1,-0.437785, 0.099802, 9.796365,1,1
1778255974941,   911.080,   911.075, 0.049642,-0.009094,-0.997070, 0.000497,-0.000094,-0.009973, 0.048930, 0.008489, 0.018468,1,-0.006284, 0.000788, 0.001112,1,-0.437919, 0.097481, 9.796382,1,1
1778255974967,   911.100,   911.100, 0.045769,-0.006999,-0.993400, 0.000461,-0.000069,-0.009936, 0.010764, 0.028121, 0.054459,1,-0.003674, 0.000699, 0.000693,1,-0.438100, 0.096643, 9.796383,1,1
1778255974989,   911.125,   911.120, 0.042347,-0.007850,-0.996424, 0.000426,-0.000077,-0.009961,-0.019010, 0.020314, 0.039455,1,-0.000158,-0.000201,-0.000648,1,-0.438545, 0.095888, 9.796371,1,1
1778255975011,   911.150,   911.145, 0.043037,-0.007672,-0.996979, 0.000432,-0.000075,-0.009972,-0.016276, 0.021649, 0.019349,1, 0.007586,-0.001594,-0.001765,1,-0.438279, 0.097118, 9.796370,1,1
1778255975037,   911.170,   911.170, 0.044080,-0.010693,-0.994195, 0.000440,-0.000104,-0.009944,-0.005820,-0.005982, 0.046634,1, 0.013312,-0.001308,-0.003212,1,-0.438054, 0.099293, 9.796358,1,1
1778255975059,   911.195,   911.190, 0.043766,-0.010786,-0.995427, 0.000440,-0.000107,-0.009954,-0.005658,-0.006267, 0.045123,1, 0.021170,-0.002155,-0.006323,1,-0.437721, 0.102882, 9.796336,1,1
1778255975086,   911.220,   911.220, 0.043423,-0.011649,-0.996135, 0.000436,-0.000113,-0.009962,-0.011453,-0.004654, 0.027535,1, 0.028417,-0.001134,-0.007654,1,-0.437249, 0.110462, 9.796274,1,1
1778255975107,   911.240,   911.240, 0.043633,-0.011384,-0.994310, 0.000435,-0.000114,-0.009944,-0.009071, 0.003587, 0.045386,1, 0.030173,-0.002068,-0.009224,1,-0.436907, 0.116150, 9.796224,1,1
1778255975129,   911.265,   911.260, 0.044076,-0.009581,-0.996007, 0.000444,-0.000090,-0.009961,-0.012268, 0.019826, 0.038077,1, 0.028671,-0.002235,-0.008401,1,-0.436584, 0.121849, 9.796169,1,1
1778255975156,   911.290,   911.290, 0.043641,-0.013238,-0.995990, 0.000437,-0.000129,-0.009959,-0.008208,-0.000657, 0.028772,1, 0.027719,-0.001283,-0.006657,1,-0.436142, 0.130021, 9.796083,1,1
1778255975177,   911.315,   911.310, 0.044473,-0.013091,-0.994184, 0.000446,-0.000131,-0.009942,-0.001953, 0.001208, 0.043518,1, 0.024854,-0.001576,-0.006061,1,-0.435810, 0.134936, 9.796032,1,1
1778255975199,   911.335,   911.330, 0.045181,-0.013366,-0.994540, 0.000452,-0.000131,-0.009942, 0.009481, 0.015413, 0.040002,1, 0.021059,-0.001452,-0.004458,1,-0.435296, 0.138951, 9.795999,1,1
1778255975226,   911.360,   911.360, 0.046453,-0.016173,-0.994894, 0.000465,-0.000161,-0.009951, 0.020564,-0.015076, 0.039372,1, 0.015878,-0.001085,-0.003538,1,-0.434948, 0.144012, 9.795941,1,1
1778255975247,   911.385,   911.380, 0.046265,-0.016232,-0.994576, 0.000465,-0.000156,-0.009946, 0.019372, 0.004323, 0.033480,1, 0.012783,-0.001121,-0.002608,1,-0.434730, 0.146739, 9.795911,1,1
1778255975269,   911.405,   911.400, 0.044327,-0.017099,-0.993642, 0.000450,-0.000170,-0.009939, 0.010385,-0.008263, 0.057396,1, 0.009812,-0.000002,-0.002256,1,-0.434591, 0.148866, 9.795884,1,1
1778255975296,   911.430,   911.430, 0.043683,-0.017824,-0.994945, 0.000440,-0.000181,-0.009949,-0.006020,-0.024014, 0.038790,1, 0.004422,-0.000678,-0.001989,1,-0.434380, 0.150914, 9.795862,1,1
1778255975318,   911.455,   911.450, 0.042066,-0.016750,-0.994681, 0.000423,-0.000168,-0.009952,-0.013359,-0.014601, 0.036415,1, 0.000497, 0.000041,-0.001474,1,-0.434333, 0.151400, 9.795857,1,1
1778255975339,   911.475,   911.470, 0.041436,-0.016356,-0.994320, 0.000415,-0.000164,-0.009945,-0.019460,-0.012085, 0.043961,1,-0.004230, 0.000135,-0.000835,1,-0.434376, 0.150919, 9.795862,1,1
1778255975366,   911.500,   911.500, 0.041618,-0.015511,-0.995018, 0.000417,-0.000151,-0.009949,-0.026495,-0.002637, 0.038076,1,-0.006660, 0.000862,-0.000215,1,-0.434654, 0.149263, 9.795876,1,1
1778255975388,   911.525,   911.520, 0.043988,-0.015910,-0.995338, 0.000440,-0.000158,-0.009954,-0.006373,-0.006583, 0.030199,1,-0.007115, 0.000315,-0.000956,1,-0.434741, 0.148032, 9.795891,1,1
1778255975409,   911.545,   911.540, 0.043786,-0.016156,-0.994025, 0.000437,-0.000162,-0.009943,-0.001077,-0.010330, 0.037636,1,-0.005904, 0.000502,-0.002178,1,-0.434865, 0.146822, 9.795903,1,1
1778255975436,   911.570,   911.570, 0.043847,-0.014699,-0.995074, 0.000439,-0.000148,-0.009951,-0.005075, 0.001275, 0.037572,1,-0.005394, 0.000146,-0.002146,1,-0.435070, 0.145255, 9.795918,1,1
1778255975458,   911.595,   911.590, 0.042623,-0.012660,-0.994882, 0.000427,-0.000127,-0.009948,-0.009674, 0.019303, 0.030817,1,-0.006634, 0.001407,-0.001787,1,-0.435303, 0.143999, 9.795926,1,1
1778255975479,   911.615,   911.610, 0.044327,-0.013647,-0.994412, 0.000443,-0.000138,-0.009946,-0.009703, 0.018956, 0.045395,1,-0.008931, 0.001017,-0.000006,1,-0.435439, 0.142250, 9.795945,1,1
1778255975506,   911.640,   911.640, 0.045782,-0.015259,-0.995183, 0.000456,-0.000153,-0.009948, 0.013372,-0.009984, 0.036561,1,-0.009961, 0.000640, 0.000448,1,-0.435619, 0.139348, 9.795979,1,1
1778255975528,   911.665,   911.660, 0.047021,-0.014572,-0.994854, 0.000473,-0.000149,-0.009954, 0.019469,-0.015204, 0.042770,1,-0.011002, 0.000578,-0.000891,1,-0.435698, 0.137319, 9.796004,1,1
1778255975549,   911.685,   911.680, 0.046781,-0.014141,-0.994995, 0.000470,-0.000144,-0.009947, 0.023238,-0.008159, 0.038069,1,-0.007984, 0.000393,-0.001488,1,-0.435784, 0.135588, 9.796024,1,1
1778255975576,   911.710,   911.710, 0.046460,-0.013393,-0.995052, 0.000465,-0.000134,-0.009952, 0.019751, 0.002121, 0.037923,1,-0.006869, 0.000659,-0.002624,1,-0.435891, 0.133244, 9.796052,1,1
1778255975598,   911.735,   911.730, 0.044358,-0.008908,-0.995136, 0.000445,-0.000088,-0.009952, 0.001962, 0.037591, 0.032473,1,-0.005272, 0.000666,-0.002397,1,-0.436214, 0.132188, 9.796052,1,1
1778255975621,   911.755,   911.755, 0.043126,-0.011116,-0.995550, 0.000433,-0.000105,-0.009958,-0.013363, 0.022447, 0.033043,1,-0.001155,-0.000627,-0.001409,1,-0.436266, 0.131420, 9.796060,1,1
1778255975646,   911.780,   911.780, 0.043409,-0.011027,-0.994517, 0.000433,-0.000113,-0.009943,-0.010528, 0.023263, 0.043181,1, 0.001194,-0.000298,-0.000916,1,-0.436220, 0.131437, 9.796062,1,1
1778255975668,   911.805,   911.800, 0.044209,-0.008788,-0.994767, 0.000441,-0.000089,-0.009952,-0.007921, 0.047274, 0.039136,1, 0.002953,-0.000395, 0.000088,1,-0.436129, 0.131919, 9.796059,1,1
1778255975691,   911.825,   911.825, 0.043599,-0.009968,-0.994776, 0.000437,-0.000098,-0.009948,-0.008522, 0.035326, 0.040628,1, 0.005694,-0.000065, 0.000711,1,-0.436079, 0.133258, 9.796043,1,1
1778255975717,   911.850,   911.850, 0.043496,-0.011046,-0.994481, 0.000436,-0.000109,-0.009944,-0.009508, 0.025975, 0.043500,1, 0.006837,-0.000212, 0.001031,1,-0.436055, 0.134515, 9.796027,1,1
1778255975738,   911.875,   911.870, 0.044215,-0.011989,-0.995936, 0.000444,-0.000119,-0.009957,-0.001672, 0.021040, 0.034775,1, 0.008445,-0.000990, 0.002410,1,-0.435959, 0.136037, 9.796010,1,1
1778255975761,   911.895,   911.895, 0.044979,-0.011650,-0.995327, 0.000451,-0.000119,-0.009954, 0.005256, 0.024208, 0.035156,1, 0.010124,-0.000518, 0.001679,1,-0.435822, 0.138774, 9.795978,1,1
1778255975787,   911.920,   911.920, 0.044335,-0.012458,-0.994629, 0.000445,-0.000122,-0.009945,-0.000882, 0.017785, 0.041990,1, 0.011759,-0.000477, 0.001389,1,-0.435632, 0.140103, 9.795967,1,1
1778255975808,   911.945,   911.940, 0.043366,-0.012747,-0.995045, 0.000437,-0.000127,-0.009950,-0.007742, 0.018762, 0.033524,1, 0.015123,-0.001288, 0.001533,1,-0.435482, 0.142864, 9.795935,1,1
1778255975831,   911.965,   911.965, 0.043842,-0.012949,-0.995801, 0.000439,-0.000128,-0.009958,-0.005216, 0.020407, 0.030406,1, 0.019374,-0.001240, 0.001197,1,-0.435119, 0.147997, 9.795875,1,1
1778255975857,   911.990,   911.990, 0.044173,-0.014668,-0.994939, 0.000439,-0.000145,-0.009949,-0.001617, 0.007483, 0.038815,1, 0.020783,-0.002413, 0.001266,1,-0.434732, 0.151981, 9.795831,1,1
1778255975878,   912.015,   912.010, 0.043868,-0.016124,-0.994154, 0.000437,-0.000160,-0.009944,-0.003255, 0.000636, 0.042183,1, 0.020955,-0.001024, 0.000726,1,-0.434429, 0.156173, 9.795778,1,1
1778255975901,   912.035,   912.035, 0.044226,-0.017436,-0.995238, 0.000442,-0.000170,-0.009950,-0.000383,-0.009506, 0.035754,1, 0.018258,-0.001826, 0.002378,1,-0.434030, 0.162059, 9.795700,1,1
1778255975927,   912.060,   912.060, 0.046270,-0.020699,-0.996188, 0.000463,-0.000205,-0.009960, 0.019986,-0.037975, 0.026395,1, 0.017753,-0.002217, 0.001022,1,-0.433698, 0.165568, 9.795656,1,1
1778255975948,   912.085,   912.080, 0.048299,-0.022155,-0.993884, 0.000485,-0.000218,-0.009942, 0.036794,-0.039879, 0.043768,1, 0.015044,-0.001985, 0.000621,1,-0.433358, 0.168674, 9.795618,1,1
1778255975971,   912.110,   912.105, 0.048328,-0.022470,-0.993777, 0.000484,-0.000222,-0.009936, 0.040923,-0.048226, 0.049951,1, 0.011660,-0.001348,-0.000800,1,-0.432969, 0.172488, 9.795568,1,1
1778255975997,   912.130,   912.130, 0.046914,-0.020658,-0.994407, 0.000473,-0.000213,-0.009952, 0.026835,-0.028567, 0.043730,1, 0.006561,-0.000121,-0.000952,1,-0.433232, 0.174227, 9.795527,1,1
1778255976019,   912.155,   912.150, 0.043765,-0.021687,-0.993176, 0.000438,-0.000209,-0.009933, 0.002540,-0.016181, 0.044920,1, 0.000454, 0.000344,-0.000852,1,-0.433280, 0.174626, 9.795517,1,1
1778255976041,   912.180,   912.175, 0.042733,-0.023898,-0.994213, 0.000431,-0.000241,-0.009948,-0.014161,-0.061134, 0.045647,1,-0.010699,-0.000131,-0.000789,1,-0.433223, 0.172894, 9.795550,1,1
1778255976067,   912.200,   912.200, 0.041374,-0.021630,-0.995524, 0.000416,-0.000218,-0.009954,-0.027661,-0.041430, 0.032823,1,-0.016754, 0.001494,-0.000534,1,-0.433448, 0.170160, 9.795588,1,1
1778255976089,   912.225,   912.220, 0.035252,-0.021161,-0.992095, 0.000353,-0.000218,-0.009925,-0.070057,-0.042826, 0.070675,1,-0.024116, 0.001871, 0.000367,1,-0.433791, 0.165804, 9.795648,1,1
1778255976111,   912.250,   912.245, 0.034501,-0.018024,-0.997112, 0.000341,-0.000183,-0.009969,-0.096181,-0.018929, 0.017422,1,-0.034565, 0.002468, 0.000159,1,-0.434601, 0.156748, 9.795761,1,1
1778255976137,   912.270,   912.270, 0.036348,-0.018361,-0.994122, 0.000361,-0.000181,-0.009948,-0.078599,-0.029671, 0.046833,1,-0.040572, 0.002932, 0.002186,1,-0.435144, 0.149129, 9.795856,1,1
1778255976159,   912.295,   912.290, 0.041508,-0.016764,-0.995159, 0.000416,-0.000171,-0.009945,-0.039979,-0.033305, 0.040441,1,-0.044738, 0.002132, 0.001768,1,-0.435638, 0.140540, 9.795961,1,1
1778255976182,   912.320,   912.315, 0.043536,-0.015796,-0.994540, 0.000439,-0.000165,-0.009961,-0.008735,-0.025951, 0.043014,1,-0.047598, 0.003467, 0.001406,1,-0.435542, 0.127742, 9.796141,1,1
1778255976207,   912.340,   912.340, 0.044786,-0.015688,-0.994505, 0.000446,-0.000163,-0.009944, 0.003159,-0.034052, 0.043451,1,-0.048783, 0.002975,-0.000170,1,-0.436131, 0.118272, 9.796233,1,1
1778255976229,   912.365,   912.360, 0.046853,-0.009307,-0.995670, 0.000469,-0.000098,-0.009960, 0.013151,-0.000312, 0.034504,1,-0.048510, 0.003107,-0.001477,1,-0.436734, 0.108698, 9.796317,1,1
1778255976252,   912.390,   912.385, 0.048225,-0.010304,-0.994345, 0.000478,-0.000107,-0.009934, 0.035500,-0.005469, 0.045228,1,-0.048843, 0.002154,-0.000303,1,-0.437494, 0.094054, 9.796435,1,1
1778255976277,   912.410,   912.410, 0.050626, 0.001677,-1.000110, 0.000502, 0.000008,-0.009992, 0.058532, 0.102637,-0.011247,1,-0.045253, 0.003371,-0.000053,1,-0.438048, 0.084780, 9.796494,1,1
1778255976299,   912.435,   912.430, 0.050087,-0.002316,-0.993357, 0.000502,-0.000024,-0.009938, 0.055690, 0.096574, 0.028227,1,-0.035201, 0.001532, 0.001381,1,-0.438531, 0.077065, 9.796537,1,1
1778255976326,   912.460,   912.460, 0.053966, 0.003147,-0.999561, 0.000522, 0.000021,-0.009984, 0.090213, 0.100644,-0.005775,1,-0.022013, 0.003054,-0.000698,1,-0.439104, 0.069096, 9.796571,1,1
1778255976347,   912.480,   912.480, 0.045165,-0.008443,-0.987267, 0.000474,-0.000089,-0.009905, 0.003677,-0.016896, 0.114803,1,-0.015405,-0.000008, 0.000307,1,-0.439243, 0.065421, 9.796590,1,1
1778255976369,   912.505,   912.500, 0.044861,-0.004234,-1.000557, 0.000448,-0.000023,-0.010002,-0.002758, 0.059082,-0.034223,1,-0.017133, 0.001815, 0.000166,1,-0.439630, 0.062328, 9.796593,1,1
1778255976396,   912.530,   912.530, 0.036396,-0.011871,-0.986192, 0.000370,-0.000131,-0.009893,-0.084176,-0.060538, 0.125329,1,-0.028502, 0.003548, 0.003969,1,-0.441220, 0.054975, 9.796565,1,1
1778255976418,   912.555,   912.550, 0.039621,-0.007925,-1.003199, 0.000382,-0.000082,-0.010003,-0.083724,-0.040456, 0.096607,1,-0.042571, 0.000891, 0.005559,1,-0.441730, 0.047303, 9.796582,1,1
1778255976439,   912.575,   912.570, 0.044251,-0.002494,-1.002162, 0.000443,-0.000030,-0.010029,-0.018636,-0.004054,-0.053654,1,-0.051886, 0.001652, 0.007037,1,-0.442075, 0.037519, 9.796609,1,1
