Time,GPS_ts,fGPS_ts,scaledAccelX,scaledAccelY,scaledAccelZ,deltaVelX,deltaVelY,deltaVelZ,estLinearAccelX,estLinearAccelY,estLinearAccelZ,estLinearAccel:valid,estAngularRateX,estAngularRateY,estAngularRateZ,estAngularRate:valid,estGravityX,estGravityY,estGravityZ,estGravity:valid,flag
1778257089607,  1989.687,  1989.687, 0.064652, 0.010318,-0.992747, 0.000647, 0.000112,-0.009935, 0.074121,-0.011115, 0.054487,1, 0.052809,-0.009299,-0.003847,1,-0.559610,-0.110657, 9.790045,1,0
1778257089607,  1989.712,  1989.707, 0.068721, 0.010984,-0.976716, 0.000687, 0.000109,-0.009773, 0.105649,-0.012756, 0.153239,1, 0.052930,-0.006657,-0.004073,1,-0.558220,-0.100494, 9.790234,1,0
1778257089607,  1989.732,  1989.732, 0.072224, 0.014026,-0.981696, 0.000720, 0.000143,-0.009805, 0.151032, 0.050678, 0.163269,1, 0.050432,-0.001806,-0.003261,1,-0.557186,-0.085309, 9.790437,1,0
1778257089607,  1989.757,  1989.757, 0.075943, 0.005871,-1.003023, 0.000758, 0.000069,-0.010019, 0.187535,-0.019785,-0.045796,1, 0.046684, 0.000850,-0.000593,1,-0.557236,-0.075904, 9.790511,1,0
1778257089607,  1989.782,  1989.777, 0.068911,-0.001572,-1.003796, 0.000690,-0.000015,-0.010049, 0.150707,-0.100670,-0.108868,1, 0.041392, 0.000682, 0.001725,1,-0.557419,-0.067439, 9.790563,1,0
1778257089607,  1989.807,  1989.807, 0.068409,-0.001290,-0.991962, 0.000683,-0.000012,-0.009925, 0.114142,-0.070342, 0.062836,1, 0.032463,-0.004449, 0.000563,1,-0.556582,-0.056679, 9.790679,1,0
1778257089607,  1989.832,  1989.827, 0.072578,-0.000944,-0.981574, 0.000733,-0.000010,-0.009819, 0.170845,-0.081017, 0.120501,1, 0.022798,-0.004489, 0.002775,1,-0.555627,-0.051577, 9.790761,1,0
1778257089607,  1989.857,  1989.852, 0.059920, 0.005927,-0.990389, 0.000602, 0.000055,-0.009894, 0.031264, 0.010188, 0.078336,1, 0.003155, 0.003413, 0.003396,1,-0.557328,-0.047026, 9.790688,1,0
1778257089607,  1989.882,  1989.877, 0.040144,-0.014300,-1.013289, 0.000409,-0.000133,-0.010132,-0.098019,-0.102962,-0.109634,1,-0.007351, 0.005377,-0.000103,1,-0.558310,-0.047986, 9.790627,1,0
1778257089607,  1989.902,  1989.897, 0.028237,-0.017276,-0.997664, 0.000290,-0.000174,-0.009985,-0.217045,-0.213046,-0.075508,1,-0.010210, 0.001385,-0.003610,1,-0.558924,-0.050080, 9.790581,1,0
1778257089607,  1989.922,  1989.917, 0.030009,-0.005066,-1.005026, 0.000292,-0.000062,-0.010042,-0.309272,-0.182272,-0.011007,1,-0.013010,-0.002861,-0.006263,1,-0.558766,-0.052484, 9.790578,1,0
1778257089619,  2025.737,  2025.737, 0.058099, 0.019959,-0.994842, 0.000580, 0.000203,-0.009948, 0.014371,-0.003395, 0.032819,1, 0.017995,-0.001305, 0.001370,1,-0.555349,-0.198562, 9.788899,1,0
1778257089641,  2025.762,  2025.757, 0.056594, 0.018067,-0.994591, 0.000568, 0.000183,-0.009945, 0.000929,-0.013801, 0.038118,1, 0.015963,-0.000351, 0.000417,1,-0.555217,-0.195271, 9.788973,1,0
1778257089662,  2025.782,  2025.777, 0.056148, 0.016759,-0.994814, 0.000562, 0.000169,-0.009948,-0.003081,-0.025601, 0.028285,1, 0.014753,-0.000773, 0.001026,1,-0.555080,-0.192270, 9.789040,1,0
1778257089689,  2025.807,  2025.807, 0.057714, 0.018961,-0.994642, 0.000574, 0.000189,-0.009945, 0.011207,-0.002426, 0.035022,1, 0.014485,-0.001984, 0.000625,1,-0.554710,-0.187915, 9.789145,1,0
1778257089711,  2025.832,  2025.827, 0.058134, 0.018468,-0.994684, 0.000582, 0.000185,-0.009946, 0.015735,-0.001323, 0.035348,1, 0.013477,-0.000471, 0.000907,1,-0.554488,-0.185160, 9.789210,1,0
1778257089734,  2025.852,  2025.852, 0.057918, 0.018540,-0.993841, 0.000576, 0.000187,-0.009938, 0.013773, 0.000257, 0.043042,1, 0.011936,-0.000320, 0.000331,1,-0.554198,-0.181043, 9.789304,1,0
1778257089759,  2025.877,  2025.877, 0.055425, 0.018596,-0.994086, 0.000558, 0.000188,-0.009941,-0.010487, 0.003388, 0.040694,1, 0.012734,-0.001326, 0.000970,1,-0.553977,-0.178575, 9.789362,1,0
1778257089781,  2025.902,  2025.897, 0.054699, 0.017235,-0.995228, 0.000549, 0.000175,-0.009953,-0.004902,-0.007493, 0.030146,1, 0.012546,-0.001101,-0.000286,1,-0.553788,-0.176111, 9.789417,1,0
1778257089804,  2025.922,  2025.922, 0.055132, 0.018346,-0.994381, 0.000551, 0.000184,-0.009944,-0.012886, 0.007391, 0.037943,1, 0.013420,-0.000702,-0.000298,1,-0.553524,-0.172102, 9.789503,1,0
1778257089830,  2025.947,  2025.947, 0.055077, 0.017713,-0.993952, 0.000550, 0.000180,-0.009939,-0.013352, 0.003835, 0.042208,1, 0.013811,-0.000614, 0.000405,1,-0.553457,-0.169435, 9.789554,1,0
1778257089851,  2025.972,  2025.967, 0.054978, 0.016681,-0.994877, 0.000550, 0.000168,-0.009951,-0.014731, 0.004596, 0.028102,1, 0.013563,-0.000472, 0.000560,1,-0.553340,-0.166840, 9.789605,1,0
1778257089874,  2025.992,  2025.992, 0.055077, 0.016109,-0.995122, 0.000551, 0.000162,-0.009952,-0.012927,-0.005256, 0.030865,1, 0.013644,-0.000515,-0.000317,1,-0.553030,-0.162805, 9.789690,1,0
1778257089900,  2026.017,  2026.017, 0.055717, 0.016228,-0.994171, 0.000556, 0.000163,-0.009942,-0.006422,-0.001408, 0.040248,1, 0.013623,-0.000829,-0.000956,1,-0.552792,-0.160123, 9.789748,1,0
1778257089921,  2026.042,  2026.037, 0.056977, 0.015545,-0.995663, 0.000569, 0.000158,-0.009954, 0.002407, 0.000766, 0.038470,1, 0.014446,-0.001041,-0.000741,1,-0.552631,-0.157410, 9.789801,1,0
1778257089944,  2026.062,  2026.062, 0.057083, 0.015686,-0.995940, 0.000570, 0.000155,-0.009962, 0.007508,-0.000018, 0.023041,1, 0.014474,-0.001872,-0.000354,1,-0.552225,-0.153393, 9.789887,1,0
1778257089970,  2026.087,  2026.087, 0.056557, 0.016449,-0.993822, 0.000567, 0.000165,-0.009939, 0.002523, 0.010316, 0.043869,1, 0.014796,-0.000414,-0.000497,1,-0.552102,-0.150534, 9.789939,1,0
1778257089991,  2026.112,  2026.107, 0.057305, 0.015621,-0.994901, 0.000571, 0.000156,-0.009949, 0.002472, 0.004676, 0.046768,1, 0.014868,-0.000325,-0.000556,1,-0.551903,-0.147690, 9.789993,1,0
1778257090014,  2026.132,  2026.132, 0.057978, 0.014216,-0.996245, 0.000578, 0.000142,-0.009965, 0.016984,-0.004478, 0.020244,1, 0.013428,-0.001063,-0.000043,1,-0.551554,-0.143466, 9.790076,1,0
1778257090040,  2026.157,  2026.157, 0.057961, 0.014662,-0.993280, 0.000579, 0.000147,-0.009937, 0.016986, 0.002671, 0.049369,1, 0.013714,-0.000625,-0.000183,1,-0.551403,-0.140685, 9.790125,1,0
1778257090061,  2026.182,  2026.177, 0.056245, 0.014355,-0.994622, 0.000565, 0.000146,-0.009943, 0.008011, 0.010399, 0.054467,1, 0.013355,-0.000511, 0.000202,1,-0.551354,-0.138055, 9.790165,1,0
1778257090084,  2026.207,  2026.202, 0.056858, 0.013198,-0.996168, 0.000569, 0.000133,-0.009958, 0.006374,-0.005074, 0.021152,1, 0.013944,-0.000527,-0.000595,1,-0.551194,-0.134072, 9.790230,1,0
1778257090110,  2026.227,  2026.227, 0.056702, 0.012819,-0.995127, 0.000568, 0.000127,-0.009949, 0.004975,-0.006195, 0.031406,1, 0.012832,-0.001329,-0.000336,1,-0.551044,-0.131506, 9.790273,1,0
1778257090131,  2026.252,  2026.247, 0.056650, 0.013201,-0.993869, 0.000566, 0.000135,-0.009940, 0.002085, 0.001823, 0.048334,1, 0.013843,-0.001688, 0.000268,1,-0.550855,-0.128906, 9.790318,1,0
1778257090154,  2026.277,  2026.272, 0.055966, 0.012116,-0.995007, 0.000561, 0.000123,-0.009952,-0.002072,-0.006843, 0.032668,1, 0.011450,-0.000134,-0.000223,1,-0.550909,-0.125304, 9.790361,1,0
1778257090180,  2026.297,  2026.297, 0.054795, 0.011567,-0.994703, 0.000551, 0.000116,-0.009948,-0.013433,-0.009936, 0.035687,1, 0.012292,-0.001065,-0.000330,1,-0.550756,-0.122985, 9.790400,1,0
1778257090202,  2026.322,  2026.317, 0.055260, 0.012477,-0.994365, 0.000552, 0.000126,-0.009943,-0.014699, 0.002329, 0.040907,1, 0.010859,-0.001421,-0.000262,1,-0.550532,-0.120816, 9.790440,1,0
1778257090224,  2026.347,  2026.342, 0.056043, 0.011842,-0.995012, 0.000560, 0.000123,-0.009948,-0.000631,-0.002029, 0.032756,1, 0.009912,-0.000945, 0.000337,1,-0.550199,-0.117849, 9.790494,1,0
1778257090250,  2026.367,  2026.367, 0.056495, 0.011424,-0.994655, 0.000567, 0.000113,-0.009947, 0.003973,-0.004367, 0.036289,1, 0.008414,-0.001667, 0.000701,1,-0.550000,-0.116138, 9.790525,1,0
1778257090272,  2026.392,  2026.387, 0.056925, 0.011761,-0.993810, 0.000571, 0.000115,-0.009936, 0.009336,-0.002713, 0.039347,1, 0.007115,-0.000678, 0.000992,1,-0.549833,-0.114653, 9.790553,1,0
1778257090294,  2026.417,  2026.412, 0.057094, 0.012204,-0.993899, 0.000573, 0.000123,-0.009939, 0.010210, 0.006928, 0.043761,1, 0.006812,-0.000854, 0.000374,1,-0.549666,-0.112541, 9.790586,1,0
1778257090320,  2026.437,  2026.437, 0.057811, 0.011080,-0.995324, 0.000578, 0.000115,-0.009949, 0.017389,-0.002680, 0.029817,1, 0.007895,-0.000039, 0.000692,1,-0.549540,-0.111090, 9.790610,1,0
1778257090342,  2026.462,  2026.457, 0.057634, 0.012323,-0.995013, 0.000576, 0.000121,-0.009955, 0.015595, 0.007762, 0.019906,1, 0.006480,-0.000177, 0.000776,1,-0.549491,-0.109716, 9.790628,1,0
1778257090365,  2026.487,  2026.482, 0.056508, 0.012332,-0.993255, 0.000567, 0.000124,-0.009934, 0.004823, 0.013207, 0.050151,1, 0.007506,-0.000292, 0.001485,1,-0.549324,-0.107489, 9.790663,1,0
1778257090390,  2026.507,  2026.507, 0.055706, 0.011193,-0.994694, 0.000557, 0.000114,-0.009945,-0.002904, 0.003617, 0.036063,1, 0.008508,-0.001088, 0.001273,1,-0.549156,-0.105884, 9.790689,1,0
1778257090412,  2026.532,  2026.527, 0.055320, 0.011285,-0.995921, 0.000553, 0.000113,-0.009961,-0.002663, 0.004413, 0.020033,1, 0.009556,-0.000605, 0.000640,1,-0.549053,-0.104038, 9.790715,1,0
1778257090439,  2026.557,  2026.557, 0.054524, 0.010969,-0.993835, 0.000543, 0.000112,-0.009937,-0.014114, 0.006194, 0.044567,1, 0.011050,-0.000683, 0.001304,1,-0.548790,-0.101026, 9.790761,1,0
1778257090460,  2026.577,  2026.577, 0.053682, 0.011024,-0.993900, 0.000539, 0.000110,-0.009935,-0.022259, 0.008947, 0.043960,1, 0.012020,-0.000678, 0.000461,1,-0.548675,-0.098784, 9.790791,1,0
1778257090482,  2026.602,  2026.597, 0.052982, 0.010001,-0.995773, 0.000530, 0.000100,-0.009958,-0.023127, 0.005520, 0.022986,1, 0.013878,-0.000507, 0.000036,1,-0.548517,-0.096249, 9.790825,1,0
1778257090509,  2026.627,  2026.627, 0.053169, 0.009412,-0.993356, 0.000532, 0.000099,-0.009935,-0.026916,-0.000327, 0.049372,1, 0.014386,-0.000994,-0.000304,1,-0.548294,-0.092176, 9.790876,1,0
1778257090530,  2026.652,  2026.647, 0.054185, 0.008534,-0.996093, 0.000544, 0.000088,-0.009959,-0.019089,-0.001681, 0.039550,1, 0.013609,-0.000208,-0.000640,1,-0.548151,-0.089529, 9.790909,1,0
1778257090552,  2026.672,  2026.667, 0.055131, 0.008902,-0.995649, 0.000551, 0.000088,-0.009957,-0.008720,-0.007990, 0.027621,1, 0.011336,-0.001685,-0.000168,1,-0.547841,-0.087373, 9.790946,1,0
1778257090579,  2026.697,  2026.697, 0.055062, 0.009100,-0.993346, 0.000549, 0.000092,-0.009934,-0.007664, 0.005020, 0.049592,1, 0.011585,-0.000544, 0.000241,1,-0.547616,-0.083861, 9.790989,1,0
1778257090601,  2026.722,  2026.717, 0.058032, 0.006689,-0.994834, 0.000579, 0.000070,-0.009947, 0.006942,-0.010455, 0.042473,1, 0.009537,-0.000363, 0.000590,1,-0.547495,-0.081878, 9.791013,1,0
1778257090622,  2026.742,  2026.737, 0.060783, 0.007595,-0.996165, 0.000605, 0.000076,-0.009963, 0.034885,-0.007995, 0.023044,1, 0.006285,-0.001298, 0.000965,1,-0.547269,-0.080408, 9.791038,1,0
1778257090649,  2026.767,  2026.767, 0.061746, 0.009889,-0.993225, 0.000620, 0.000098,-0.009936, 0.058565, 0.017690, 0.050853,1, 0.001659,-0.001661, 0.003502,1,-0.546909,-0.079232, 9.791067,1,0
1778257090671,  2026.792,  2026.787, 0.060703, 0.007494,-0.993568, 0.000608, 0.000076,-0.009931, 0.060269, 0.011501, 0.066282,1,-0.001807, 0.000086, 0.003933,1,-0.546961,-0.079245, 9.791064,1,0
1778257090692,  2026.812,  2026.807, 0.058707, 0.005895,-0.997181, 0.000590, 0.000057,-0.009969, 0.037791,-0.018251, 0.036868,1,-0.003935, 0.000572, 0.005028,1,-0.547075,-0.079830, 9.791053,1,0
1778257090719,  2026.837,  2026.837, 0.058689, 0.007318,-0.995185, 0.000587, 0.000071,-0.009951, 0.028527,-0.009365, 0.031614,1,-0.005249,-0.000830, 0.004937,1,-0.546996,-0.081284, 9.791045,1,0
1778257090741,  2026.862,  2026.857, 0.057685, 0.007496,-0.993138, 0.000578, 0.000076,-0.009933, 0.020519,-0.000575, 0.052972,1,-0.005703,-0.000167, 0.004276,1,-0.547481,-0.082210, 9.791011,1,0
1778257090762,  2026.882,  2026.877, 0.057936, 0.007453,-0.996101, 0.000580, 0.000072,-0.009960, 0.015978,-0.016081, 0.025186,1,-0.004713,-0.000163, 0.003728,1,-0.547414,-0.083049, 9.791007,1,0
1778257090789,  2026.907,  2026.907, 0.056467, 0.009097,-0.994360, 0.000565, 0.000091,-0.009947, 0.006256, 0.005966, 0.039659,1, 0.002366, 0.000177, 0.002396,1,-0.547503,-0.083165, 9.791001,1,0
1778257090811,  2026.932,  2026.927, 0.055399, 0.007353,-0.995142, 0.000555, 0.000075,-0.009949,-0.003643, 0.003273, 0.065454,1, 0.006191,-0.000816, 0.000829,1,-0.547443,-0.082143, 9.791014,1,0
1778257090832,  2026.952,  2026.947, 0.054552, 0.005890,-0.997030, 0.000547, 0.000060,-0.009971,-0.012914,-0.023120, 0.013718,1, 0.008956,-0.000685,-0.001808,1,-0.547226,-0.080660, 9.791038,1,0
1778257090859,  2026.977,  2026.977, 0.049888, 0.005588,-0.991825, 0.000505, 0.000055,-0.009926,-0.058139,-0.023788, 0.064564,1, 0.007133, 0.001598,-0.001433,1,-0.547422,-0.078370, 9.791045,1,0
1778257090881,  2027.002,  2026.997, 0.046971, 0.002892,-0.995546, 0.000469, 0.000033,-0.009954,-0.083197,-0.024922, 0.056197,1, 0.004940, 0.000103,-0.002955,1,-0.547603,-0.077236, 9.791044,1,0
1778257090902,  2027.022,  2027.017, 0.046342, 0.000082,-0.998211, 0.000464, 0.000001,-0.009986,-0.092394,-0.065769,-0.002866,1,-0.000098,-0.000911,-0.003183,1,-0.547606,-0.076940, 9.791046,1,0
1778257090929,  2027.047,  2027.047, 0.048848, 0.001816,-0.992979, 0.000485, 0.000017,-0.009933,-0.068658,-0.061189, 0.053224,1,-0.014438, 0.000594,-0.002424,1,-0.547710,-0.079453, 9.791020,1,0
1778257090951,  2027.072,  2027.067, 0.053062, 0.008336,-0.994628, 0.000529, 0.000086,-0.009943,-0.036522,-0.016582, 0.062530,1,-0.023845, 0.001008, 0.000059,1,-0.547280,-0.082983, 9.791016,1,0
1778257090974,  2027.092,  2027.092, 0.057912, 0.005325,-0.997335, 0.000577, 0.000053,-0.009978, 0.020183,-0.039517, 0.010398,1,-0.040032, 0.002305, 0.002384,1,-0.547812,-0.092979, 9.790895,1,0
1778257090999,  2027.117,  2027.117, 0.060461, 0.006916,-0.992026, 0.000603, 0.000067,-0.009921, 0.032629,-0.037284, 0.026551,1,-0.044083, 0.002686, 0.003671,1,-0.548060,-0.097218, 9.790841,1,0
1778257091021,  2027.142,  2027.137, 0.064693, 0.011173,-0.994732, 0.000645, 0.000108,-0.009942, 0.067051,-0.011780, 0.058534,1,-0.056329, 0.003480, 0.007008,1,-0.549013,-0.112378, 9.790625,1,0
1778257091044,  2027.162,  2027.162, 0.065356, 0.013622,-0.997283, 0.000653, 0.000137,-0.009974, 0.090978, 0.005711, 0.010374,1,-0.062021, 0.004157, 0.008031,1,-0.550080,-0.129798, 9.790350,1,0
1778257091070,  2027.187,  2027.187, 0.062965, 0.012400,-0.991621, 0.000633, 0.000122,-0.009921, 0.066645,-0.018538, 0.065682,1,-0.063912, 0.003804, 0.008798,1,-0.550950,-0.142119, 9.790130,1,0
1778257091091,  2027.212,  2027.207, 0.062461, 0.016948,-0.996318, 0.000624, 0.000162,-0.009960, 0.058372,-0.012185, 0.048193,1,-0.063736, 0.004812, 0.007799,1,-0.551862,-0.154604, 9.789889,1,0
1778257091114,  2027.232,  2027.232, 0.064123, 0.019831,-0.997205, 0.000640, 0.000198,-0.009978, 0.076104, 0.023955, 0.010331,1,-0.059541, 0.002677, 0.007217,1,-0.552818,-0.172364, 9.789538,1,0
1778257091140,  2027.257,  2027.257, 0.064846, 0.016809,-0.990371, 0.000651, 0.000168,-0.009907, 0.082214,-0.016890, 0.077095,1,-0.056957, 0.002879, 0.006311,1,-0.554335,-0.183380, 9.789252,1,0
1778257091161,  2027.282,  2027.277, 0.065068, 0.021673,-0.996288, 0.000650, 0.000211,-0.009959, 0.087689, 0.003533, 0.052888,1,-0.054188, 0.003337, 0.005317,1,-0.555041,-0.194065, 9.789007,1,0
1778257091184,  2027.302,  2027.302, 0.065994, 0.021508,-0.996484, 0.000659, 0.000215,-0.009969, 0.091404, 0.003012, 0.016512,1,-0.052776, 0.001882, 0.005595,1,-0.555840,-0.209540, 9.788642,1,0
1778257091210,  2027.327,  2027.327, 0.067930, 0.019777,-0.991871, 0.000676, 0.000196,-0.009913, 0.110061,-0.024210, 0.061510,1,-0.053215, 0.001577, 0.005349,1,-0.556159,-0.219801, 9.788400,1,0
1778257091231,  2027.352,  2027.347, 0.066817, 0.015683,-0.973637, 0.000703, 0.000116,-0.009871,-0.026432, 0.018771, 0.235548,1,-0.053831, 0.000104, 0.006479,1,-0.556408,-0.230462, 9.788140,1,0
1778257091254,  2027.372,  2027.372, 0.089134, 0.008402,-0.991312, 0.000885, 0.000108,-0.009765, 0.317044,-0.164877, 0.066240,1,-0.077593,-0.010101, 0.003965,1,-0.556753,-0.249687, 9.787649,1,0
1778257091280,  2027.397,  2027.397, 0.119886, 0.040005,-1.041909, 0.001153, 0.000371,-0.010504, 0.621073, 0.130840,-0.430172,1,-0.053318,-0.011079, 0.004359,1,-0.554264,-0.263131, 9.787437,1,0
1778257091301,  2027.422,  2027.417, 0.153811, 0.074371,-0.956719, 0.001597, 0.000665,-0.009649, 0.999999, 0.021171, 0.037441,1,-0.011282,-0.014800,-0.009106,1,-0.552395,-0.268031, 9.787411,1,0
1778257091324,  2027.447,  2027.442, 0.128541, 0.074674,-0.935458, 0.001285, 0.000784,-0.009348, 0.709419, 0.465128, 0.613792,1, 0.009403, 0.016224, 0.008653,1,-0.551655,-0.266865, 9.787484,1,0
1778257091350,  2027.467,  2027.467, 0.122631, 0.010255,-1.013454, 0.001264, 0.000068,-0.010073, 0.648329,-0.164707,-0.151205,1, 0.030474, 0.004018, 0.003778,1,-0.554401,-0.264353, 9.787397,1,0
1778257091371,  2027.492,  2027.487, 0.117318, 0.071250,-1.007996, 0.001160, 0.000730,-0.010156, 0.473619, 0.266295,-0.527736,1, 0.051735,-0.002546,-0.000580,1,-0.553715,-0.256366, 9.787648,1,0
1778257091394,  2027.517,  2027.512, 0.137699, 0.067195,-0.961888, 0.001367, 0.000708,-0.009598, 0.799233, 0.420094, 0.355333,1, 0.081689,-0.019048, 0.021237,1,-0.550553,-0.236281, 9.788332,1,0
1778257091420,  2027.537,  2027.537, 0.171845, 0.055444,-0.995400, 0.001695, 0.000572,-0.009938, 1.137235, 0.323101, 0.027305,1, 0.104459,-0.013606, 0.022469,1,-0.547581,-0.217325, 9.788939,1,0
1778257091442,  2027.562,  2027.557, 0.216944, 0.059140,-1.007711, 0.002160, 0.000597,-0.010091, 1.503371, 0.356293,-0.218608,1, 0.130942,-0.018182, 0.028332,1,-0.544719,-0.193326, 9.789601,1,0
1778257091464,  2027.587,  2027.582, 0.232684, 0.054723,-0.965476, 0.002318, 0.000571,-0.009684, 1.742229, 0.382336, 0.322491,1, 0.161162,-0.020396, 0.046195,1,-0.539005,-0.149209, 9.790689,1,0
1778257091490,  2027.607,  2027.607, 0.224743, 0.039092,-0.962293, 0.002244, 0.000408,-0.009578, 1.667539, 0.262474, 0.354350,1, 0.172754,-0.013218, 0.051622,1,-0.536041,-0.115411, 9.791308,1,0
1778257091512,  2027.632,  2027.627, 0.333065, 0.021799,-0.995978, 0.003097, 0.000510,-0.008858, 2.510551, 0.183801,-0.275150,1, 0.166189, 0.003640, 0.063500,1,-0.535378,-0.081413, 9.791687,1,0
1778257091534,  2027.657,  2027.647, 0.288187, 0.038321,-1.031809, 0.002969, 0.000187,-0.010835, 2.655731, 0.342183, 0.150616,1, 0.185639, 0.023381, 0.081099,1,-0.537145,-0.046996, 9.791816,1,0
1778257091560,  2027.677,  2027.677, 0.272233, 0.008125,-1.050490, 0.002636, 0.000210,-0.010261, 2.132718, 0.078470,-0.509853,1, 0.170529,-0.002589, 0.101105,1,-0.536896, 0.004283, 9.791941,1,0
1778257091582,  2027.702,  2027.697, 0.034324, 0.019260,-0.970650, 0.000504, 0.000060,-0.009931, 0.659847, 0.081801, 0.400108,1, 0.173305,-0.003826, 0.103841,1,-0.535998, 0.038137, 9.791917,1,0
1778257091605,  2027.727,  2027.722, 0.028570, 0.007421,-0.961790, 0.000336, 0.000174,-0.009666,-0.252586, 0.152049, 0.359908,1, 0.156382,-0.009877, 0.094883,1,-0.532432, 0.084310, 9.791822,1,0
1778257091630,  2027.747,  2027.747, 0.141909,-0.075350,-1.048551, 0.001403,-0.000756,-0.010452, 0.863539,-0.630941,-0.490954,1, 0.131186,-0.023214, 0.133104,1,-0.527346, 0.112298, 9.791817,1,0
1778257091652,  2027.772,  2027.767, 0.169541, 0.074157,-0.948754, 0.001701, 0.000684,-0.009515, 1.218833, 0.169653, 0.082253,1, 0.143424,-0.018130, 0.155106,1,-0.522693, 0.141735, 9.791684,1,0
1778257091679,  2027.797,  2027.797, 0.152331, 0.052991,-0.949753, 0.001489, 0.000611,-0.009479, 0.975746, 0.697870, 0.477432,1, 0.118410,-0.006678, 0.116955,1,-0.517832, 0.182088, 9.791276,1,0
1778257091700,  2027.817,  2027.817, 0.195692,-0.050443,-1.027401, 0.001951,-0.000439,-0.010143, 1.401425,-0.291762,-0.284484,1, 0.109093, 0.000277, 0.131931,1,-0.517584, 0.206530, 9.790804,1,0
1778257091722,  2027.842,  2027.837, 0.066638,-0.065671,-1.086418, 0.000561,-0.000693,-0.010937, 0.290828,-0.600411,-1.226947,1, 0.093927,-0.022608, 0.181372,1,-0.513543, 0.228616, 9.790525,1,0
1778257091749,  2027.867,  2027.867, 0.080448, 0.027384,-0.856430, 0.000781, 0.000202,-0.008709, 0.282363, 0.524719, 1.391496,1, 0.095678,-0.037040, 0.188180,1,-0.505254, 0.259440, 9.790189,1,0
1778257091770,  2027.892,  2027.887, 0.188243, 0.069601,-0.974525, 0.001743, 0.000698,-0.009753, 0.702492, 1.045838, 1.094925,1, 0.055508,-0.029634, 0.162357,1,-0.497882, 0.274864, 9.790146,1,0
1778257091792,  2027.912,  2027.907, 0.339584, 0.037418,-0.972782, 0.003574, 0.000255,-0.009957, 2.275789, 0.451640, 0.286141,1, 0.036908, 0.024180, 0.173392,1,-0.496532, 0.283798, 9.789959,1,0
1778257091819,  2027.937,  2027.937, 0.116618,-0.063675,-1.190741, 0.001401,-0.000607,-0.011934, 0.634006,-0.326133,-1.888326,1, 0.051891, 0.032803, 0.225551,1,-0.510435, 0.300286, 9.788753,1,0
1778257091841,  2027.962,  2027.957, 0.145696,-0.019432,-0.824218, 0.001468,-0.000213,-0.008456, 0.535540,-0.166368, 0.516988,1, 0.071270, 0.015542, 0.286185,1,-0.512541, 0.313101, 9.788240,1,0
1778257091862,  2027.982,  2027.977, 0.223481, 0.066605,-0.943963, 0.002233, 0.000599,-0.009339, 1.249311, 0.534814, 1.614314,1, 0.070469,-0.005113, 0.214237,1,-0.510775, 0.328638, 9.787824,1,0
1778257091889,  2028.007,  2028.007, 0.196210, 0.044672,-1.039603, 0.002010, 0.000572,-0.010607, 1.412105, 0.782128,-0.407801,1, 0.051943, 0.035092, 0.222298,1,-0.512908, 0.346024, 9.787113,1,0
1778257091911,  2028.032,  2028.027, 0.179202, 0.002653,-0.988440, 0.001831,-0.000023,-0.009811, 1.471702, 0.235687, 0.059280,1, 0.051551, 0.078162, 0.281425,1,-0.525925, 0.357789, 9.785999,1,0
1778257091932,  2028.052,  2028.047, 0.070374, 0.020702,-1.063776, 0.000765, 0.000194,-0.010887, 0.363216, 0.693515,-0.356597,1, 0.057388, 0.004314, 0.299412,1,-0.529826, 0.370242, 9.785325,1,0
1778257091959,  2028.077,  2028.077, 0.125959,-0.080731,-0.928695, 0.001141,-0.000707,-0.009402, 0.715459,-0.400383, 0.677658,1, 0.093043, 0.004624, 0.229861,1,-0.519633, 0.394600, 9.784920,1,0
1778257091981,  2028.102,  2028.097, 0.197624, 0.055758,-1.071223, 0.002060, 0.000557,-0.010531, 1.945639, 0.507775, 0.641198,1, 0.069043, 0.016091, 0.224555,1,-0.522740, 0.412556, 9.784014,1,0
1778257092002,  2028.122,  2028.117, 0.183778,-0.071384,-0.995964, 0.001634,-0.000599,-0.010097, 0.689929, 1.009355,-0.553548,1, 0.047329,-0.027521, 0.327281,1,-0.514040, 0.424243, 9.783975,1,0
1778257092029,  2028.147,  2028.147, 0.297357,-0.052110,-0.820747, 0.002956,-0.000626,-0.007977, 2.387493,-0.062307, 1.733325,1, 0.086559, 0.092914, 0.242153,1,-0.531136, 0.451816, 9.781827,1,0
1778257092051,  2028.172,  2028.167, 0.200926, 0.039615,-1.200591, 0.002194, 0.000514,-0.011840, 2.229002, 1.798841,-0.607119,1, 0.064331, 0.137606, 0.296830,1,-0.552431, 0.469735, 9.779803,1,0
1778257092072,  2028.192,  2028.187, 0.069613,-0.164585,-1.155024, 0.000610,-0.001711,-0.011630, 0.243405,-0.617794,-1.593486,1, 0.071371, 0.087831, 0.333833,1,-0.571045, 0.484653, 9.778007,1,0
1778257092099,  2028.217,  2028.217,-0.016752, 0.032322,-0.890104,-0.000087, 0.000101,-0.008982,-0.747085, 0.832355, 1.046796,1, 0.102460, 0.062430, 0.220119,1,-0.584388, 0.518979, 9.775455,1,0
1778257092121,  2028.242,  2028.237,-0.016954,-0.166888,-0.841145,-0.000182,-0.001720,-0.008289,-0.832020,-0.418744, 2.607915,1, 0.050850,-0.009123, 0.318375,1,-0.584877, 0.533311, 9.774655,1,0
1778257092142,  2028.262,  2028.257,-0.084237,-0.132356,-1.380908,-0.000750,-0.001753,-0.013248,-0.437618,-1.372872, 0.683008,1, 0.041753,-0.070010, 0.294852,1,-0.570279, 0.542330, 9.775022,1,0
1778257092169,  2028.287,  2028.287,-0.142727, 0.066856,-1.134389,-0.001667, 0.001004,-0.011222,-1.967292, 1.207764,-1.349929,1, 0.020194, 0.025753, 0.272034,1,-0.567939, 0.553253, 9.774546,1,0
1778257092191,  2028.312,  2028.307,-0.008234,-0.185417,-0.798801, 0.000071,-0.001774,-0.008487,-0.046423,-0.756346,-1.360937,1, 0.037306, 0.054834, 0.224261,1,-0.575015, 0.562066, 9.773629,1,0
1778257092214,  2028.332,  2028.332, 0.018399,-0.006116,-0.747750, 0.000069,-0.000131,-0.007136,-0.403870, 0.523135, 2.438918,1, 0.028327, 0.030068, 0.194932,1,-0.584877, 0.584360, 9.771736,1,0
1778257092240,  2028.357,  2028.357, 0.022394,-0.036624,-1.063366, 0.000189,-0.000410,-0.010328,-0.369778, 0.225503,-0.656610,1,-0.036433, 0.058043, 0.262604,1,-0.590708, 0.584018, 9.771406,1,0
1778257092261,  2028.382,  2028.377,-0.114442,-0.057740,-1.036178,-0.001317,-0.000699,-0.010387,-1.348264,-0.137889,-1.880671,1,-0.004335,-0.016020, 0.204871,1,-0.593051, 0.582160, 9.771375,1,0
1778257092284,  2028.402,  2028.402,-0.079317, 0.092617,-0.771715,-0.000757, 0.000766,-0.007747,-1.365580, 1.489275, 2.203827,1,-0.058130,-0.022494, 0.158274,1,-0.586752, 0.579498, 9.771914,1,0
1778257092310,  2028.427,  2028.427,-0.064626,-0.108694,-0.869985,-0.000598,-0.000837,-0.008584,-1.210923,-0.498546, 1.241555,1,-0.099828,-0.062231, 0.255388,1,-0.574757, 0.564739, 9.773490,1,0
1778257092331,  2028.452,  2028.447,-0.038468,-0.046562,-1.200943,-0.000405,-0.000722,-0.012270,-0.790794,-1.189368,-2.011272,1,-0.084476,-0.028414, 0.232242,1,-0.564331, 0.548696, 9.775011,1,0
1778257092354,  2028.472,  2028.472,-0.034485, 0.121110,-0.869907,-0.000484, 0.001309,-0.008525,-0.893045, 1.722847, 1.245427,1,-0.074753,-0.024604, 0.204273,1,-0.553751, 0.533203, 9.776474,1,0
1778257092380,  2028.497,  2028.497, 0.002270,-0.018358,-1.006205, 0.000025,-0.000109,-0.010060,-0.525540, 0.342311,-0.090107,1,-0.079026,-0.018535, 0.222898,1,-0.546857, 0.520266, 9.777558,1,0
1778257092401,  2028.522,  2028.517,-0.031869,-0.129780,-0.953625,-0.000274,-0.001401,-0.009805,-0.409015,-0.935299,-0.808192,1,-0.042042, 0.025434, 0.210529,1,-0.547184, 0.510652, 9.778048,1,0
1778257092424,  2028.542,  2028.542,-0.097503,-0.004471,-0.905474,-0.000988,-0.000037,-0.008881,-1.499202, 0.467230, 0.898592,1,-0.005522,-0.009868, 0.175073,1,-0.542429, 0.511206, 9.778283,1,0
1778257092450,  2028.567,  2028.567,-0.145995,-0.041063,-1.035147,-0.001418,-0.000384,-0.010339,-1.969331, 0.108900,-0.372795,1,-0.011022,-0.034533, 0.164903,1,-0.536263, 0.511533, 9.778606,1,0
1778257092471,  2028.592,  2028.587,-0.103545,-0.136595,-0.945669,-0.000988,-0.001427,-0.009721,-1.579492,-0.976540,-0.711477,1, 0.016650,-0.016734, 0.140744,1,-0.530327, 0.515226, 9.778736,1,0
1778257092494,  2028.612,  2028.612,-0.032584,-0.056265,-0.948798,-0.000373,-0.000530,-0.009266,-0.837701,-0.027099, 0.474353,1, 0.030136,-0.054068, 0.098147,1,-0.516314, 0.525776, 9.778925,1,0
1778257092520,  2028.637,  2028.637, 0.036109,-0.071522,-1.029721, 0.000326,-0.000721,-0.010428,-0.158153,-0.170228,-0.319271,1, 0.033798,-0.005984, 0.086720,1,-0.511926, 0.532356, 9.778799,1,0
1778257092541,  2028.662,  2028.657, 0.036179,-0.053898,-1.045901, 0.000333,-0.000542,-0.010349,-0.203134,-0.277846, 0.242110,1, 0.035479,-0.036363, 0.088022,1,-0.505970, 0.540207, 9.778679,1,0
1778257092564,  2028.687,  2028.682, 0.047780,-0.035024,-0.979005, 0.000483,-0.000362,-0.009888,-0.033616, 0.205512, 0.177626,1, 0.030161, 0.005772, 0.086901,1,-0.502201, 0.550061, 9.778323,1,0
1778257092590,  2028.707,  2028.707, 0.046219,-0.034400,-0.988635, 0.000473,-0.000324,-0.009840,-0.043745, 0.218564, 0.083062,1, 0.036404,-0.042513, 0.065399,1,-0.495558, 0.557146, 9.778261,1,0
1778257092611,  2028.732,  2028.727, 0.111485,-0.067579,-0.970199, 0.001078,-0.000715,-0.009688, 0.339329,-0.127895,-0.117456,1, 0.037855,-0.023654, 0.055783,1,-0.489423, 0.564784, 9.778132,1,0
1778257092634,  2028.757,  2028.752, 0.146424,-0.039665,-0.993837, 0.001447,-0.000411,-0.009912, 0.957064, 0.185461, 0.031881,1, 0.023513,-0.037099, 0.093648,1,-0.477538, 0.575312, 9.778106,1,0
1778257092660,  2028.777,  2028.777, 0.209447,-0.019415,-1.011174, 0.002059,-0.000262,-0.010098, 1.578981, 0.388983,-0.138236,1, 0.018792,-0.002282, 0.105256,1,-0.474724, 0.580127, 9.777959,1,0
1778257092682,  2028.802,  2028.797, 0.192778,-0.021301,-0.925576, 0.001923,-0.000113,-0.009255, 1.607775, 0.614330, 0.237592,1, 0.015508,-0.010028, 0.129142,1,-0.470457, 0.584571, 9.777900,1,0
1778257092704,  2028.827,  2028.822, 0.129464,-0.069858,-1.003806, 0.001299,-0.000738,-0.009882, 0.800552,-0.096595,-0.066241,1,-0.005939,-0.011026, 0.130733,1,-0.468465, 0.588484, 9.777761,1,0
1778257092730,  2028.847,  2028.847, 0.078909,-0.053634,-1.049021, 0.000777,-0.000542,-0.010568, 0.306712, 0.061776,-0.509511,1,-0.018158, 0.019752, 0.142609,1,-0.467468, 0.587394, 9.777874,1,0
1778257092752,  2028.867,  2028.867, 0.097645,-0.009851,-0.984273, 0.000916,-0.000078,-0.009797, 0.488561, 0.486027, 0.125662,1,-0.046281, 0.007141, 0.165111,1,-0.468936, 0.581432, 9.778160,1,0
1778257092774,  2028.897,  2028.892, 0.117274,-0.110649,-0.942864, 0.001130,-0.001067,-0.009338, 0.681793,-0.519824, 0.532805,1,-0.082135, 0.022763, 0.174349,1,-0.468664, 0.562971, 9.779254,1,0
1778257092800,  2028.917,  2028.917, 0.076404,-0.102090,-1.027466, 0.000886,-0.001085,-0.010281, 0.280032,-0.452274,-0.295975,1,-0.093441, 0.007524, 0.165210,1,-0.469185, 0.546221, 9.780178,1,0
1778257092822,  2028.942,  2028.937, 0.045840, 0.000593,-1.002210, 0.000420,-0.000075,-0.010117,-0.040302, 0.081002,-0.325474,1,-0.108881, 0.039217, 0.164293,1,-0.473928, 0.526724, 9.781019,1,0
1778257092845,  2028.967,  2028.962, 0.022669,-0.099369,-0.923224, 0.000175,-0.000848,-0.009175,-0.253703,-0.476603, 0.728694,1,-0.111098, 0.013892, 0.136277,1,-0.476223, 0.494626, 9.782583,1,0
1778257092870,  2028.987,  2028.987, 0.010920,-0.140607,-1.011940, 0.000191,-0.001464,-0.010139,-0.368300,-0.901059,-0.140288,1,-0.097907,-0.011993, 0.089927,1,-0.474878, 0.474911, 9.783626,1,0
1778257092892,  2029.012,  2029.007, 0.040378,-0.049369,-1.031821, 0.000423,-0.000575,-0.010341,-0.125989,-0.512609,-0.686019,1,-0.058368, 0.007448, 0.068864,1,-0.475084, 0.461889, 9.784240,1,0
1778257092919,  2029.037,  2029.037, 0.087364,-0.053338,-0.931610, 0.000810,-0.000498,-0.009510, 0.385857,-0.071397, 0.648941,1,-0.025724,-0.005096, 0.056390,1,-0.470649, 0.450953, 9.784964,1,0
1778257092940,  2029.057,  2029.057, 0.108859,-0.113447,-0.934456, 0.001084,-0.001092,-0.009191, 0.599658,-0.663084, 0.621286,1,-0.009054,-0.025831, 0.016949,1,-0.467220, 0.449479, 9.785196,1,0
1778257092962,  2029.082,  2029.077, 0.058082,-0.048947,-1.067209, 0.000672,-0.000544,-0.010713, 0.380121,-0.305217,-0.543236,1, 0.020546, 0.001650,-0.014061,1,-0.465745, 0.452254, 9.785138,1,0
1778257092989,  2029.107,  2029.107, 0.048862,-0.078761,-1.099187, 0.000462,-0.000652,-0.011007,-0.050996, 0.116900,-1.196566,1, 0.029523,-0.009342,-0.017192,1,-0.464061, 0.458352, 9.784935,1,0
1778257093010,  2029.132,  2029.127, 0.057449,-0.063259,-0.864149, 0.000703,-0.000722,-0.008683, 0.308719,-0.494244, 1.308641,1, 0.069847,-0.009311,-0.042447,1,-0.465602, 0.475892, 9.784024,1,0
1778257093032,  2029.152,  2029.147, 0.059805,-0.040904,-1.084289, 0.000612,-0.000391,-0.010715, 0.042436,-0.076040, 0.125629,1, 0.067074,-0.012360,-0.055303,1,-0.461645, 0.488611, 9.783585,1,0
1778257093059,  2029.177,  2029.177, 0.027706,-0.039516,-1.101991, 0.000227,-0.000295,-0.011045,-0.188128, 0.118582,-1.024059,1, 0.084124, 0.008897,-0.040857,1,-0.460169, 0.508658, 9.782633,1,0
1778257093081,  2029.202,  2029.197, 0.019173,-0.007480,-0.831696, 0.000254,-0.000101,-0.008329, 0.098800, 0.227996, 1.278600,1, 0.098830,-0.011920,-0.041487,1,-0.462155, 0.527196, 9.781557,1,0
1778257093102,  2029.222,  2029.217, 0.022752,-0.017749,-1.078992, 0.000225,-0.000188,-0.010740,-0.427466, 0.517314, 0.554288,1, 0.106390,-0.025013,-0.029074,1,-0.455925, 0.547407, 9.780740,1,0
1778257093129,  2029.247,  2029.247, 0.015790,-0.040547,-1.054345, 0.000105,-0.000349,-0.010522,-0.295280, 0.180654,-0.560358,1, 0.137534,-0.009328,-0.029143,1,-0.449888, 0.582519, 9.778991,1,0
1778257093151,  2029.272,  2029.267, 0.056199, 0.021662,-0.898390, 0.000596, 0.000284,-0.008891, 0.195144, 0.880203, 0.821123,1, 0.151743, 0.006517,-0.004427,1,-0.453050, 0.612230, 9.777029,1,0
1778257093172,  2029.292,  2029.287, 0.001081,-0.042965,-1.025284, 0.000036,-0.000372,-0.010137,-0.344685, 0.515187, 0.536513,1, 0.169958,-0.008615, 0.016867,1,-0.451137, 0.643802, 9.775089,1,0
1778257093199,  2029.317,  2029.317,-0.042593,-0.016117,-1.055812,-0.000372,-0.000147,-0.010586,-0.868377, 0.535254,-0.582255,1, 0.198603,-0.014470, 0.017272,1,-0.450194, 0.699512, 9.771304,1,0
1778257093221,  2029.342,  2029.337,-0.017089, 0.024770,-0.960544,-0.000159, 0.000360,-0.009670,-0.703078, 1.087976,-0.146206,1, 0.190846, 0.011261, 0.052315,1,-0.450167, 0.738597, 9.768429,1,0
1778257093242,  2029.362,  2029.357,-0.036292,-0.043058,-0.954081,-0.000384,-0.000416,-0.009448,-0.681511, 0.807307, 0.600173,1, 0.177360,-0.024299, 0.087698,1,-0.447383, 0.774457, 9.765779,1,0
1778257093269,  2029.387,  2029.387,-0.041057,-0.054876,-1.016468,-0.000338,-0.000581,-0.010179,-0.843659, 0.284782,-0.206050,1, 0.172960,-0.024046, 0.095536,1,-0.440032, 0.828445, 9.761682,1,0
1778257093291,  2029.412,  2029.407,-0.064895,-0.018587,-0.985888,-0.000669,-0.000142,-0.009767,-1.137831, 0.735881, 0.015648,1, 0.151481,-0.020664, 0.131237,1,-0.433006, 0.860477, 9.759225,1,0
1778257093312,  2029.432,  2029.427,-0.064230,-0.023758,-1.062945,-0.000635,-0.000195,-0.010715,-1.071930, 0.904526,-0.358280,1, 0.103077,-0.016354, 0.162922,1,-0.427107, 0.884981, 9.757294,1,0
1778257093339,  2029.457,  2029.457,-0.047546,-0.104124,-0.933207,-0.000528,-0.000988,-0.009415,-0.884832,-0.115420, 0.604127,1, 0.061088,-0.008552, 0.188525,1,-0.417734, 0.907746, 9.755608,1,0
1778257093361,  2029.482,  2029.477, 0.042373,-0.002304,-0.933846, 0.000372,-0.000013,-0.009131,-0.230910, 0.573603, 1.367908,1, 0.024666,-0.003159, 0.182072,1,-0.412758, 0.918145, 9.754847,1,0
1778257093382,  2029.502,  2029.497, 0.057491,-0.068886,-1.034930, 0.000514,-0.000641,-0.010429, 0.074786, 0.846898,-0.177642,1,-0.026797, 0.028025, 0.243340,1,-0.411997, 0.918104, 9.754882,1,0
1778257093409,  2029.527,  2029.527,-0.037519,-0.053634,-1.109242,-0.000307,-0.000673,-0.011012,-0.782828, 0.384237,-1.122449,1,-0.044536, 0.028247, 0.268582,1,-0.414995, 0.909183, 9.755590,1,0
1778257093431,  2029.552,  2029.547, 0.071015,-0.040223,-0.844751, 0.000680,-0.000351,-0.008544,-0.086639, 0.677401,-0.013200,1,-0.029082, 0.049040, 0.266764,1,-0.418444, 0.904504, 9.755878,1,0
1778257093454,  2029.572,  2029.572,-0.000318, 0.050375,-0.991208, 0.000076, 0.000367,-0.009723,-0.427414, 1.395723, 0.035458,1,-0.022262, 0.032203, 0.257162,1,-0.424555, 0.901365, 9.755905,1,0
1778257093479,  2029.597,  2029.597,-0.065282,-0.061575,-1.128413,-0.000629,-0.000529,-0.011411,-1.065915, 0.297077,-1.310055,1,-0.000953, 0.025913, 0.292878,1,-0.425681, 0.901293, 9.755862,1,0
1778257093501,  2029.622,  2029.617,-0.079444,-0.103191,-1.080640,-0.000828,-0.001115,-0.010744,-1.163858,-0.739971,-0.478519,1, 0.029743, 0.006352, 0.290268,1,-0.422716, 0.907525, 9.755414,1,0
1778257093524,  2029.642,  2029.642,-0.012314,-0.077959,-0.925515,-0.000246,-0.000731,-0.009440,-0.535586, 0.158763, 0.678071,1, 0.053002,-0.000976, 0.284142,1,-0.413967, 0.925296, 9.754119,1,0
1778257093550,  2029.667,  2029.667, 0.064882,-0.113006,-0.841608, 0.000609,-0.001199,-0.008269, 0.226686,-0.174019, 1.500096,1, 0.036417, 0.002110, 0.276555,1,-0.408828, 0.935671, 9.753346,1,0
1778257093571,  2029.692,  2029.687, 0.070877,-0.102338,-1.126469, 0.000679,-0.000959,-0.011314, 0.179959, 0.185567,-1.102279,1,-0.021911, 0.002242, 0.276992,1,-0.404161, 0.936543, 9.753457,1,0
1778257093594,  2029.712,  2029.712, 0.106179,-0.151137,-1.015692, 0.001060,-0.001573,-0.010106, 0.641443,-0.555670,-0.205943,1,-0.074710, 0.007597, 0.273346,1,-0.399246, 0.924504, 9.754808,1,0
1778257093620,  2029.737,  2029.737, 0.136999,-0.086828,-1.013720, 0.001357,-0.000957,-0.010455, 0.947158, 0.056770,-0.184745,1,-0.134934, 0.006120, 0.283668,1,-0.395715, 0.904428, 9.756834,1,0
1778257093641,  2029.762,  2029.757, 0.195680,-0.110051,-0.876028, 0.002053,-0.001179,-0.008590, 1.654853,-0.391686, 2.115865,1,-0.182357, 0.037422, 0.286573,1,-0.395887, 0.875159, 9.759496,1,0
1778257093664,  2029.782,  2029.782, 0.134364,-0.078827,-1.172938, 0.001318,-0.000778,-0.011720, 0.919357, 0.040992,-1.737912,1,-0.276462, 0.034130, 0.294519,1,-0.398604, 0.805800, 9.765356,1,0
1778257093690,  2029.807,  2029.807, 0.116006,-0.098327,-1.057271, 0.001090,-0.001131,-0.010615, 0.736203,-0.204073,-0.599392,1,-0.299050, 0.043262, 0.289439,1,-0.402074, 0.751258, 9.769562,1,0
1778257093711,  2029.827,  2029.827, 0.150379,-0.130632,-0.930322, 0.001447,-0.001252,-0.009329, 1.070834,-0.577543, 0.649688,1,-0.304294, 0.027743, 0.276241,1,-0.404124, 0.694408, 9.773683,1,0
1778257093734,  2029.852,  2029.852, 0.134315,-0.148626,-1.025040, 0.001352,-0.001436,-0.010022, 0.911324,-0.838401,-0.273547,1,-0.292939, 0.011833, 0.228612,1,-0.406039, 0.609743, 9.779250,1,0
1778257093760,  2029.877,  2029.877, 0.132275,-0.046252,-0.966744, 0.001203,-0.000521,-0.009811, 0.888597, 0.110428, 0.301364,1,-0.285734, 0.048067, 0.216671,1,-0.409689, 0.555391, 9.782335,1,0
1778257093781,  2029.902,  2029.897, 0.179233,-0.132734,-0.967553, 0.001861,-0.001205,-0.009192, 1.555709,-0.387485, 1.256054,1,-0.279302, 0.026361, 0.211575,1,-0.415573, 0.502174, 9.784964,1,0
1778257093804,  2029.927,  2029.922, 0.180131,-0.060953,-1.061649, 0.001845,-0.000821,-0.010903, 1.341950,-0.158762,-0.623610,1,-0.227345, 0.059507, 0.144162,1,-0.426183, 0.432094, 9.787852,1,0
1778257093830,  2029.947,  2029.947, 0.175184,-0.061144,-1.083509, 0.001517,-0.000165,-0.010571, 1.285146,-0.202094,-0.836568,1,-0.184504, 0.053112, 0.158969,1,-0.434280, 0.391991, 9.789185,1,0
1778257093851,  2029.972,  2029.967, 0.238198,-0.084635,-0.767026, 0.002435,-0.000759,-0.007717, 2.131680,-0.958993, 1.126741,1,-0.135070, 0.056104, 0.107310,1,-0.446021, 0.362582, 9.789790,1,0
1778257093874,  2029.997,  2029.992, 0.238201,-0.040861,-0.893784, 0.002320,-0.000313,-0.008657, 1.886722,-0.060574, 1.025420,1,-0.080534,-0.013991, 0.069062,1,-0.448721, 0.337725, 9.790555,1,0
1778257093900,  2030.017,  2030.017, 0.203911,-0.092464,-1.089389, 0.002071,-0.000970,-0.010846, 1.553081,-0.578020,-0.892301,1,-0.037784, 0.011072, 0.040896,1,-0.446907, 0.327619, 9.790981,1,0
1778257093922,  2030.042,  2030.037, 0.159009,-0.076262,-0.878793, 0.001667,-0.000763,-0.008894, 1.567509,-0.527604,-0.305109,1, 0.011691,-0.005388, 0.009407,1,-0.449448, 0.327238, 9.790878,1,0
1778257093944,  2030.067,  2030.062, 0.171088,-0.077112,-0.920371, 0.001801,-0.000663,-0.009079, 1.238716,-0.416567, 0.765167,1, 0.056266,-0.064668,-0.002696,1,-0.437074, 0.341386, 9.790956,1,0
1778257093970,  2030.087,  2030.087, 0.179167,-0.105538,-1.106414, 0.001687,-0.001020,-0.011042, 1.324065,-0.682836,-1.059461,1, 0.078857,-0.000936,-0.052634,1,-0.432997, 0.354519, 9.790669,1,0
1778257093992,  2030.112,  2030.107, 0.149743,-0.078829,-0.908426, 0.001496,-0.000795,-0.008902, 0.978385,-0.507885, 1.212489,1, 0.100101,-0.001375,-0.072379,1,-0.433195, 0.372350, 9.789999,1,0
1778257094014,  2030.137,  2030.132,-0.008367,-0.080945,-1.076360,-0.000018,-0.000811,-0.010602,-0.510193,-0.408754,-0.765756,1, 0.033335, 0.001398,-0.062423,1,-0.428262, 0.386001, 9.789687,1,0
1778257094040,  2030.157,  2030.157,-0.041266,-0.127595,-1.066442,-0.000268,-0.001285,-0.010905,-0.836747,-0.863174,-0.668785,1, 0.009127, 0.008486,-0.076831,1,-0.432430, 0.388288, 9.789413,1,0
1778257094062,  2030.182,  2030.177,-0.129872,-0.050511,-0.954252,-0.001296,-0.000405,-0.009385,-1.265089,-0.056340, 0.124574,1,-0.046151,-0.018166,-0.092153,1,-0.432234, 0.383810, 9.789599,1,0
1778257094085,  2030.207,  2030.202,-0.047477,-0.128614,-1.068005,-0.000441,-0.001310,-0.010742,-0.902069,-0.895272,-0.683459,1,-0.085769, 0.012965,-0.092564,1,-0.436989, 0.363197, 9.790174,1,0
1778257094110,  2030.227,  2030.227,-0.087337,-0.138444,-0.976703,-0.000888,-0.001363,-0.009767,-1.041525,-0.413923,-0.100998,1,-0.073924, 0.003684,-0.109924,1,-0.436862, 0.348276, 9.790722,1,0
1778257094132,  2030.252,  2030.247,-0.028667,-0.010323,-1.028491,-0.000378,-0.000095,-0.010182,-1.008265, 0.117478, 0.275745,1,-0.074718,-0.002047,-0.109776,1,-0.435696, 0.331636, 9.791352,1,0
1778257094159,  2030.277,  2030.277,-0.044012,-0.136793,-1.015198,-0.000516,-0.001314,-0.010044,-0.873706,-1.029397,-0.163986,1,-0.044613, 0.018086,-0.137473,1,-0.442802, 0.310497, 9.791726,1,0
1778257094180,  2030.297,  2030.297,-0.041616,-0.004006,-0.912454,-0.000238,-0.000121,-0.009380,-0.853867, 0.263581, 0.843709,1,-0.040282,-0.011607,-0.151498,1,-0.445533, 0.301395, 9.791886,1,0
1778257094202,  2030.322,  2030.317,-0.093097,-0.088143,-1.113382,-0.000746,-0.000615,-0.011169,-1.231722, 0.292567,-0.473613,1,-0.047205, 0.016533,-0.133060,1,-0.447938, 0.292231, 9.792055,1,0
1778257094229,  2030.347,  2030.347,-0.068109,-0.067723,-1.051223,-0.000807,-0.000820,-0.010654,-1.116599,-0.377506,-0.516790,1, 0.007835,-0.000209,-0.181470,1,-0.448839, 0.286615, 9.792179,1,0
1778257094250,  2030.372,  2030.367,-0.003172,-0.025872,-0.987994,-0.000126,-0.000060,-0.009498,-1.027558, 0.470701, 1.292762,1, 0.004213,-0.029860,-0.160448,1,-0.442728, 0.285677, 9.792485,1,0
1778257094272,  2030.392,  2030.387,-0.031809,-0.098473,-1.032277,-0.000358,-0.000935,-0.010264,-0.658943,-0.237356,-0.084042,1, 0.004034,-0.034008,-0.160935,1,-0.439042, 0.284881, 9.792674,1,0
1778257094299,  2030.417,  2030.417, 0.018452,-0.083315,-1.033733, 0.000331,-0.001021,-0.010619,-0.256680,-0.528212,-0.344841,1, 0.025538,-0.027067,-0.206525,1,-0.436981, 0.289335, 9.792636,1,0
1778257094321,  2030.442,  2030.437, 0.039727, 0.003949,-0.943034, 0.000452, 0.000055,-0.009358,-0.067508, 0.522466, 0.919980,1, 0.034178,-0.003410,-0.190599,1,-0.435252, 0.294086, 9.792571,1,0
1778257094342,  2030.462,  2030.457,-0.009132,-0.078702,-1.027523,-0.000123,-0.000719,-0.010237,-0.419670,-0.040053, 0.171203,1, 0.018658,-0.017562,-0.177215,1,-0.433307, 0.295043, 9.792629,1,0
1778257094369,  2030.487,  2030.487,-0.013049,-0.099185,-1.048173,-0.000024,-0.001132,-0.010629,-0.562187,-0.673415,-0.486605,1, 0.026278,-0.021204,-0.211979,1,-0.433764, 0.299783, 9.792464,1,0
1778257094391,  2030.512,  2030.507, 0.023563, 0.021746,-0.937224, 0.000210, 0.000287,-0.009207,-0.323083, 0.543837, 0.827794,1, 0.018090,-0.004617,-0.198078,1,-0.432970, 0.303071, 9.792398,1,0
1778257094412,  2030.532,  2030.527, 0.004911,-0.052182,-1.060190, 0.000019,-0.000509,-0.010537,-0.465194, 0.115539, 0.236954,1,-0.006449,-0.029543,-0.181817,1,-0.429159, 0.300169, 9.792656,1,0
1778257094439,  2030.557,  2030.557, 0.001561,-0.094793,-1.077804, 0.000142,-0.000936,-0.010949,-0.414665,-0.635239,-0.776849,1,-0.016911,-0.015505,-0.193060,1,-0.429669, 0.293570, 9.792833,1,0
1778257094461,  2030.582,  2030.577, 0.047516, 0.007397,-0.902915, 0.000496, 0.000096,-0.009045,-0.036441, 0.027351, 0.631542,1,-0.019484, 0.016003,-0.181963,1,-0.431543, 0.288328, 9.792907,1,0
1778257094482,  2030.602,  2030.597, 0.007373,-0.037566,-1.023090, 0.000041,-0.000382,-0.010139,-0.205555, 0.237237, 0.472565,1,-0.063517,-0.005642,-0.156898,1,-0.432541, 0.275952, 9.793220,1,0
1778257094509,  2030.627,  2030.627, 0.012613,-0.078171,-1.093067, 0.000077,-0.000730,-0.010755,-0.317064,-0.511249,-0.925912,1,-0.080115, 0.026346,-0.165507,1,-0.441708, 0.252619, 9.793440,1,0
1778257094531,  2030.652,  2030.647, 0.003133, 0.021437,-0.890456, 0.000052, 0.000100,-0.009035,-0.497554, 0.052122, 0.368259,1,-0.064784, 0.035131,-0.171034,1,-0.447775, 0.237429, 9.793544,1,0
1778257094552,  2030.672,  2030.667,-0.034191, 0.001078,-1.013982,-0.000327, 0.000113,-0.009891,-0.552745, 0.480525, 0.719257,1,-0.087422,-0.000500,-0.153002,1,-0.451729, 0.220761, 9.793753,1,0
1778257094579,  2030.697,  2030.697,-0.022989,-0.047543,-1.049241,-0.000211,-0.000428,-0.010605,-0.682328,-0.270248,-0.495499,1,-0.081625, 0.018525,-0.161078,1,-0.457557, 0.193210, 9.794065,1,0
1778257094601,  2030.722,  2030.717,-0.002979,-0.030977,-1.010314,-0.000063,-0.000325,-0.010099,-0.722362,-0.488664,-0.416758,1,-0.077262, 0.006594,-0.160456,1,-0.458302, 0.177096, 9.794334,1,0
1778257094622,  2030.742,  2030.737, 0.001932, 0.027584,-0.903908, 0.000024, 0.000266,-0.009089,-0.339501, 0.243549, 0.587697,1,-0.070610,-0.001750,-0.160446,1,-0.460439, 0.162415, 9.794488,1,0
1778257094649,  2030.767,  2030.767, 0.029875,-0.015201,-1.010731, 0.000297,-0.000150,-0.010055,-0.165888,-0.007461,-0.116997,1,-0.079847, 0.001989,-0.151397,1,-0.458990, 0.138899, 9.794918,1,0
1778257094671,  2030.792,  2030.787, 0.053222,-0.065136,-1.041365, 0.000497,-0.000669,-0.010446,-0.227223,-0.422158,-0.262409,1,-0.079201,-0.009296,-0.149012,1,-0.457368, 0.121776, 9.795221,1,0
1778257094694,  2030.812,  2030.812, 0.101925,-0.004628,-0.957767, 0.001002,-0.000080,-0.009654, 0.539358, 0.053857, 0.402853,1,-0.084677, 0.007703,-0.157730,1,-0.460476, 0.096373, 9.795359,1,0
1778257094720,  2030.837,  2030.837, 0.097372, 0.018819,-0.967871, 0.000943, 0.000198,-0.009549, 0.494045, 0.263820, 0.303922,1,-0.105654, 0.008287,-0.139395,1,-0.461137, 0.075769, 9.795509,1,0
1778257094741,  2030.862,  2030.857, 0.088222,-0.029943,-1.005280, 0.000913,-0.000266,-0.010194, 0.506059, 0.018170,-0.674419,1,-0.119664, 0.012094,-0.131388,1,-0.464015, 0.052236, 9.795527,1,0
1778257094764,  2030.882,  2030.882, 0.178212,-0.036788,-0.944004, 0.001768,-0.000456,-0.009468, 1.277367,-0.340185, 0.537829,1,-0.115983, 0.037695,-0.142569,1,-0.471478, 0.016755, 9.795296,1,0
1778257094790,  2030.907,  2030.907, 0.161940, 0.043758,-0.981732, 0.001681, 0.000426,-0.009716, 1.111409, 0.422901, 0.167549,1,-0.134720, 0.026529,-0.123586,1,-0.477504,-0.010605, 9.795012,1,0
1778257094811,  2030.932,  2030.927, 0.100154, 0.033428,-1.150411, 0.001034, 0.000342,-0.011629, 0.717917, 0.335000,-1.781888,1,-0.163072, 0.015041,-0.100761,1,-0.482574,-0.042248, 9.794679,1,0
1778257094834,  2030.952,  2030.952, 0.197344,-0.004992,-0.943564, 0.001772,-0.000089,-0.009501, 1.453419,-0.131319, 0.541251,1,-0.132510, 0.014812,-0.088639,1,-0.482308,-0.086629, 9.794399,1,0
1778257094860,  2030.977,  2030.977, 0.243958, 0.044257,-0.735725, 0.002431, 0.000341,-0.007396, 1.911115, 0.325104, 2.579223,1,-0.137974,-0.000785,-0.089439,1,-0.481245,-0.113352, 9.794179,1,0
1778257094881,  2031.002,  2030.997, 0.260919, 0.032264,-1.114971, 0.002674, 0.000373,-0.010783, 2.548276, 0.321161, 0.684319,1,-0.157424, 0.017718,-0.067670,1,-0.484173,-0.143935, 9.793633,1,0
1778257094904,  2031.022,  2031.022, 0.146633,-0.011589,-1.141969, 0.001439,-0.000074,-0.011569, 0.953064,-0.298579,-1.405986,1,-0.121195,-0.014572,-0.059582,1,-0.484426,-0.188801, 9.792858,1,0
1778257094930,  2031.047,  2031.047, 0.178267, 0.022909,-0.933549, 0.001754, 0.000233,-0.009302, 1.269544, 0.019583, 0.637829,1,-0.080811,-0.055052,-0.073179,1,-0.476900,-0.207712, 9.792845,1,0
1778257094951,  2031.072,  2031.067, 0.252887, 0.040229,-0.911964, 0.002397, 0.000523,-0.008877, 1.621208, 0.330911, 1.048737,1,-0.091052,-0.050253,-0.058876,1,-0.463437,-0.224233, 9.793127,1,0
1778257094974,  2031.092,  2031.087, 0.265576,-0.062700,-0.991267, 0.002673,-0.000641,-0.010003, 2.155283,-0.546305, 0.447476,1,-0.055844,-0.026847,-0.067227,1,-0.455857,-0.238087, 9.793156,1,0
1778257095000,  2031.117,  2031.117, 0.242332, 0.020765,-0.935681, 0.002448, 0.000147,-0.009209, 1.923632,-0.039758, 0.617269,1,-0.001158,-0.005162,-0.111981,1,-0.452585,-0.243593, 9.793172,1,0
1778257095021,  2031.142,  2031.137, 0.200069,-0.019406,-0.769118, 0.002093,-0.000138,-0.007845, 2.033498, 0.088335, 1.596180,1, 0.012364,-0.006174,-0.088678,1,-0.452675,-0.242892, 9.793185,1,0
1778257095044,  2031.167,  2031.162, 0.109502,-0.028318,-1.181684, 0.001075,-0.000289,-0.011517, 0.634972,-0.513097,-1.794370,1, 0.046750,-0.030399,-0.146350,1,-0.437820,-0.234143, 9.794073,1,0
1778257095070,  2031.187,  2031.187, 0.205249, 0.047337,-1.229017, 0.002119, 0.000400,-0.012710, 1.566786, 0.233549,-2.258756,1, 0.037039, 0.062074,-0.118058,1,-0.447866,-0.229682, 9.793725,1,0
1778257095092,  2031.212,  2031.207, 0.073042, 0.007904,-0.689617, 0.000756,-0.000077,-0.006948, 0.484563,-1.024443, 2.115529,1, 0.088631,-0.036618,-0.135732,1,-0.447662,-0.216146, 9.794043,1,0
1778257095114,  2031.237,  2031.232, 0.155716, 0.072433,-1.124377, 0.001520, 0.000805,-0.010844, 1.092181, 0.509558,-1.231422,1, 0.037593,-0.005851,-0.136483,1,-0.434605,-0.199788, 9.794978,1,0
1778257095140,  2031.257,  2031.257, 0.131347,-0.080614,-1.083378, 0.001511,-0.000789,-0.011310, 0.855770,-0.985869,-0.829138,1, 0.058145,-0.026970,-0.154176,1,-0.431450,-0.193915, 9.795236,1,0
1778257095162,  2031.282,  2031.277, 0.116702, 0.013450,-0.993890, 0.001189, 0.000349,-0.009795, 0.875211, 0.136555, 0.492260,1, 0.045456,-0.003763,-0.144065,1,-0.429701,-0.187796, 9.795431,1,0
1778257095184,  2031.307,  2031.302, 0.068452,-0.025729,-0.947011, 0.000588,-0.000218,-0.009504, 0.248360,-0.442073, 0.508683,1,-0.014026,-0.014419,-0.128394,1,-0.422401,-0.190369, 9.795699,1,0
1778257095210,  2031.327,  2031.327, 0.077059, 0.042552,-0.949150, 0.000856, 0.000517,-0.009293, 0.333623, 0.225422, 0.487701,1,-0.043813, 0.007049,-0.121334,1,-0.422215,-0.193400, 9.795648,1,0
1778257095232,  2031.352,  2031.347, 0.016428,-0.054757,-0.991838, 0.000162,-0.000768,-0.009945,-0.199242,-0.695230, 0.146703,1,-0.044223, 0.016337,-0.120060,1,-0.423564,-0.202930, 9.795397,1,0
1778257095255,  2031.377,  2031.372, 0.001969, 0.034600,-0.962307,-0.000004, 0.000446,-0.009664,-0.414481, 0.119020, 0.357567,1,-0.095127, 0.039139,-0.098342,1,-0.434939,-0.223392, 9.794453,1,0
1778257095280,  2031.397,  2031.397, 0.020191,-0.073354,-0.897660, 0.000140,-0.000624,-0.008933,-0.240000,-0.954021, 0.991011,1,-0.084664, 0.020763,-0.124367,1,-0.438564,-0.237478, 9.793960,1,0
1778257095302,  2031.422,  2031.417, 0.142043, 0.007547,-1.052538, 0.001194, 0.000226,-0.010349, 0.730519, 0.193510, 0.171580,1,-0.104242, 0.038531,-0.139014,1,-0.443751,-0.254904, 9.793288,1,0
1778257095325,  2031.447,  2031.442, 0.138911,-0.104485,-1.019088, 0.001399,-0.001134,-0.010377, 0.904967,-1.307371,-0.201942,1,-0.077230, 0.041728,-0.172905,1,-0.458425,-0.285379, 9.791772,1,0
1778257095350,  2031.467,  2031.467, 0.170766, 0.067857,-1.019443, 0.001895, 0.000664,-0.010298, 1.210553, 0.366585,-0.206217,1,-0.075250, 0.030014,-0.181342,1,-0.464857,-0.301470, 9.790986,1,0
1778257095372,  2031.492,  2031.487, 0.138619,-0.103957,-1.054323, 0.001326,-0.001047,-0.010325, 0.854089,-1.630675,-0.576806,1,-0.028469,-0.012941,-0.208873,1,-0.464153,-0.313597, 9.790639,1,0
1778257095399,  2031.517,  2031.517, 0.198886,-0.031747,-1.068495, 0.001950,-0.000115,-0.010595, 1.492310,-0.625554,-0.687454,1, 0.016932,-0.017008,-0.234719,1,-0.457329,-0.314040, 9.790945,1,0
1778257095420,  2031.537,  2031.537, 0.203639,-0.153366,-1.026766, 0.001963,-0.001626,-0.010291, 1.544511,-1.804338,-0.277534,1, 0.119229,-0.019765,-0.302774,1,-0.451604,-0.297056, 9.791741,1,0
1778257095442,  2031.562,  2031.557, 0.176829,-0.197666,-0.973921, 0.001802,-0.001789,-0.009778, 1.539352,-0.995577, 0.150496,1, 0.169861,-0.061943,-0.321879,1,-0.440427,-0.269502, 9.793047,1,0
1778257095469,  2031.587,  2031.587, 0.245693,-0.045362,-0.960468, 0.002320,-0.000401,-0.009329, 1.988852,-0.656907, 0.376355,1, 0.251069,-0.066145,-0.409659,1,-0.418237,-0.204777, 9.795588,1,0
1778257095490,  2031.612,  2031.607, 0.252009,-0.122340,-0.989004, 0.002505,-0.001399,-0.009953, 2.327988,-2.286147, 0.304016,1, 0.285319,-0.050366,-0.452604,1,-0.404606,-0.153189, 9.797102,1,0
1778257095512,  2031.632,  2031.627, 0.213133,-0.225893,-1.312644, 0.001998,-0.001739,-0.012816, 2.013528,-0.659381,-2.189026,1, 0.292611,-0.038736,-0.499518,1,-0.394515,-0.095408, 9.798246,1,0
1778257095539,  2031.657,  2031.657, 0.218193,-0.092915,-0.980177, 0.002203,-0.000921,-0.009754, 1.746823,-0.919513, 0.186514,1, 0.332247,-0.028766,-0.512267,1,-0.392029, 0.001454, 9.798811,1,0
1778257095561,  2031.682,  2031.677, 0.183428,-0.052759,-1.036605, 0.001724,-0.000559,-0.009595, 0.946211,-0.793882, 1.907017,1, 0.350826,-0.054247,-0.516760,1,-0.382070, 0.065014, 9.798988,1,0
1778257095582,  2031.702,  2031.697, 0.181470,-0.147366,-0.973545, 0.001767,-0.001466,-0.010054, 1.051166,-0.926344, 0.549034,1, 0.345200, 0.012930,-0.524231,1,-0.381411, 0.125432, 9.798428,1,0
1778257095609,  2031.727,  2031.727, 0.142997,-0.096642,-0.874721, 0.001507,-0.000718,-0.009247, 1.014130,-0.755633, 1.218992,1, 0.266914, 0.002851,-0.497896,1,-0.388588, 0.199807, 9.796911,1,0
1778257095631,  2031.752,  2031.747, 0.075458,-0.091840,-1.036160, 0.000856,-0.000905,-0.011226, 0.278237,-0.647740, 0.348733,1, 0.194527, 0.048890,-0.480888,1,-0.398686, 0.236631, 9.795685,1,0
1778257095652,  2031.772,  2031.767, 0.156744,-0.050440,-0.780205, 0.001338,-0.000538,-0.008086, 1.659147,-1.581391, 0.034790,1, 0.115797, 0.093381,-0.480807,1,-0.415711, 0.261624, 9.794341,1,0
1778257095679,  2031.797,  2031.797, 0.106277,-0.089716,-0.952297, 0.000940,-0.001075,-0.009376, 0.596636,-0.607477, 0.453894,1,-0.014063, 0.086199,-0.424641,1,-0.448644, 0.271300, 9.792624,1,0
1778257095701,  2031.822,  2031.817, 0.028545,-0.176008,-1.381679,-0.000208,-0.001773,-0.013382,-0.867692,-1.060015,-3.155750,1,-0.094392, 0.043855,-0.405266,1,-0.456305, 0.249920, 9.792840,1,0
1778257095722,  2031.842,  2031.837, 0.058826, 0.054150,-0.522428, 0.000933, 0.000532,-0.006623, 0.204894,-1.237518, 0.408083,1,-0.094757, 0.115559,-0.425216,1,-0.480169, 0.226247, 9.792274,1,0
1778257095749,  2031.867,  2031.867, 0.104773,-0.133945,-0.991848, 0.000594,-0.000446,-0.008043, 0.538463,-1.135698, 0.066124,1,-0.201976, 0.017190,-0.341236,1,-0.489740, 0.171034, 9.792920,1,0
1778257095771,  2031.892,  2031.887, 0.142051,-0.074131,-1.234712, 0.001115,-0.000321,-0.012105, 0.412316, 0.607597,-1.942865,1,-0.261037, 0.045947,-0.310936,1,-0.498268, 0.118668, 9.793264,1,0
1778257095792,  2031.912,  2031.907, 0.072261, 0.031606,-0.839274, 0.000946, 0.000002,-0.009250, 0.570393,-0.246312, 0.409411,1,-0.160516, 0.042845,-0.306784,1,-0.507435, 0.079754, 9.793188,1,0
1778257095819,  2031.937,  2031.937, 0.097993,-0.057548,-1.223896, 0.000504,-0.000207,-0.010953, 0.452439,-0.537913,-2.208901,1,-0.184941,-0.005152,-0.270183,1,-0.508404, 0.020236, 9.793442,1,0
1778257095841,  2031.962,  2031.957, 0.256846,-0.078645,-0.891569, 0.002277,-0.000691,-0.008841, 0.868948, 0.744035, 1.135105,1,-0.135261, 0.011758,-0.244380,1,-0.509494,-0.013110, 9.793397,1,0
1778257095862,  2031.982,  2031.977, 0.188498, 0.068415,-0.861870, 0.002120, 0.000789,-0.008725, 2.289989,-0.222722, 0.999321,1,-0.116274, 0.014786,-0.224401,1,-0.514043,-0.034475, 9.793108,1,0
1778257095889,  2032.007,  2032.007, 0.136718, 0.071113,-1.286015, 0.001121, 0.000487,-0.012345, 0.826862, 0.634432,-2.818522,1,-0.115412, 0.018350,-0.190293,1,-0.514422,-0.066859, 9.792920,1,0
1778257095911,  2032.032,  2032.027, 0.011510, 0.057829,-0.773600, 0.000290,-0.000224,-0.008741,-0.390163, 0.680204, 2.074614,1, 0.014937, 0.026166,-0.170966,1,-0.520143,-0.075035, 9.792559,1,0
1778257095934,  2032.052,  2032.052,-0.061947, 0.071075,-0.845159,-0.000719, 0.000948,-0.007921,-1.124039, 0.623228, 1.504582,1, 0.040879,-0.015263,-0.104435,1,-0.516138,-0.072851, 9.792787,1,0
1778257095960,  2032.077,  2032.077,-0.108278, 0.177398,-1.077976,-0.001241, 0.001642,-0.010565,-1.570258, 1.667116,-0.778145,1,-0.022078,-0.026964,-0.058554,1,-0.507557,-0.073352, 9.793232,1,0
1778257095981,  2032.102,  2032.097,-0.138810, 0.094097,-1.134204,-0.001504, 0.000627,-0.011531,-2.275342, 0.786799, 0.269232,1, 0.037801, 0.003124,-0.021526,1,-0.507729,-0.070905, 9.793241,1,0
1778257096004,  2032.122,  2032.122,-0.299908, 0.045291,-0.995814,-0.002723, 0.000417,-0.010144,-3.449059, 0.377057, 0.027654,1, 0.060059,-0.019633,-0.009988,1,-0.507356,-0.065240, 9.793300,1,0
1778257096030,  2032.147,  2032.147,-0.183745, 0.050289,-1.216634,-0.002458, 0.000744,-0.011544,-2.309229, 0.433675,-2.137769,1, 0.037561, 0.003002, 0.012988,1,-0.507403,-0.058302, 9.793341,1,0
1778257096051,  2032.172,  2032.167,-0.148235, 0.054697,-1.116561,-0.002101, 0.000868,-0.010183,-2.515454, 0.260164, 0.786058,1, 0.066715,-0.024590, 0.009423,1,-0.504073,-0.043193, 9.793591,1,0
1778257096074,  2032.192,  2032.192,-0.090534,-0.006233,-0.973311,-0.001081, 0.000040,-0.009697,-1.390579,-0.075455, 0.248827,1, 0.129840,-0.001025,-0.020360,1,-0.502715,-0.010319, 9.793751,1,0
1778257096100,  2032.217,  2032.217,-0.051080, 0.035929,-0.982976,-0.000325,-0.000022,-0.010442,-1.000049, 0.363642, 0.154232,1, 0.123516,-0.040172,-0.021098,1,-0.497877, 0.015116, 9.793992,1,0
1778257096121,  2032.242,  2032.237, 0.115560,-0.057356,-0.977383, 0.000866,-0.000664,-0.009289,-0.014916,-0.109134, 0.551624,1, 0.186639,-0.001140,-0.025055,1,-0.497869, 0.047918, 9.793886,1,0
1778257096144,  2032.262,  2032.262, 0.146926, 0.010491,-1.022865, 0.001545,-0.000242,-0.010880, 0.944933, 0.191728,-0.237180,1, 0.134125,-0.007263,-0.024516,1,-0.495696, 0.092983, 9.793673,1,0
1778257096170,  2032.287,  2032.287, 0.082010, 0.021254,-0.869090, 0.001176, 0.000087,-0.009047, 0.312788, 0.325932, 1.270759,1, 0.136913,-0.058922,-0.020841,1,-0.489631, 0.121738, 9.793662,1,0
1778257096191,  2032.312,  2032.307, 0.180788, 0.011055,-1.021720, 0.001996,-0.000082,-0.010429, 0.849028, 0.338768,-0.778124,1, 0.141023, 0.014680,-0.000914,1,-0.488879, 0.145820, 9.793371,1,0
1778257096214,  2032.332,  2032.332, 0.199377, 0.068886,-1.123488, 0.002110, 0.000505,-0.011412, 1.467245, 0.850121,-1.224708,1, 0.100281, 0.030695, 0.016899,1,-0.488920, 0.177735, 9.792842,1,0
1778257096240,  2032.357,  2032.357, 0.176603, 0.010028,-0.834768, 0.002081, 0.000270,-0.008266, 1.235870, 0.295363, 1.605838,1, 0.144926, 0.055118, 0.046915,1,-0.497704, 0.201613, 9.791937,1,0
1778257096261,  2032.382,  2032.377, 0.150459, 0.064709,-0.565953, 0.001970, 0.000506,-0.006639, 1.672795, 0.380977, 1.438482,1, 0.150378, 0.058489, 0.063707,1,-0.508918, 0.226326, 9.790820,1,0
1778257096284,  2032.407,  2032.402, 0.096135, 0.039344,-0.660406, 0.000925, 0.000454,-0.006043, 0.447255, 0.649967, 3.314191,1, 0.132128,-0.090390, 0.067013,1,-0.492632, 0.268356, 9.790591,1,0
1778257096310,  2032.427,  2032.427, 0.009265,-0.004114,-1.074276,-0.000298,-0.000017,-0.009867,-0.378692, 0.242291,-0.743725,1, 0.059986,-0.139647, 0.101347,1,-0.465106, 0.284658, 9.791477,1,0
1778257096332,  2032.452,  2032.447,-0.047895,-0.056832,-1.852902,-0.001348, 0.000037,-0.018082,-1.912004, 0.467100,-12.152532,1,-0.021903, 0.052968, 0.093378,1,-0.461316, 0.286410, 9.791606,1,0
1778257096354,  2032.477,  2032.472, 0.378487, 0.053152,-0.606351, 0.003590, 0.000131,-0.007813, 3.229313, 0.838997, 3.843345,1, 0.123201,-0.011051, 0.083712,1,-0.481951, 0.321724, 9.789515,1,0
1778257096380,  2032.497,  2032.497, 0.219584, 0.053442,-0.159584, 0.002435, 0.000225,-0.000964, 1.685398, 0.875050, 8.224200,1, 0.092362,-0.069863, 0.116967,1,-0.465677, 0.354012, 9.789188,1,0
1778257096402,  2032.522,  2032.517, 0.166896,-0.055822,-1.342938, 0.001967,-0.000401,-0.013136, 2.083324, 0.473362,-0.313987,1,-0.038172, 0.024591, 0.167507,1,-0.461348, 0.357257, 9.789275,1,0
1778257096424,  2032.547,  2032.542, 0.009119, 0.165683,-1.377315, 0.000398, 0.001774,-0.014385,-0.376611, 1.968355,-3.717304,1,-0.040560, 0.003305, 0.208355,1,-0.465913, 0.342605, 9.789583,1,0
1778257096450,  2032.567,  2032.567, 0.068133, 0.054478,-1.058103, 0.000146, 0.000438,-0.009754, 0.205335, 0.876306,-0.586702,1,-0.041500,-0.024889, 0.211458,1,-0.461817, 0.341074, 9.789830,1,0
1778257096472,  2032.592,  2032.587, 0.254139, 0.028615,-0.722342, 0.002394,-0.000005,-0.007500, 0.173338, 1.005389, 4.087078,1,-0.056169,-0.069482, 0.232829,1,-0.445485, 0.335437, 9.790782,1,0
1778257096495,  2032.617,  2032.612, 0.296906, 0.045513,-0.778607, 0.003179, 0.000860,-0.006879, 2.471639, 0.762477, 2.156140,1,-0.061755, 0.001237, 0.320595,1,-0.439729, 0.314674, 9.791731,1,0
1778257096520,  2032.637,  2032.637, 0.181106, 0.121434,-1.374775, 0.001672, 0.001067,-0.013518, 1.340145, 1.489729,-3.689540,1,-0.108426, 0.013702, 0.307825,1,-0.436032, 0.295918, 9.792481,1,0
1778257096542,  2032.662,  2032.657, 0.014860, 0.000291,-1.036307,-0.000136, 0.000313,-0.009832, 0.298400,-0.495045,-3.619394,1,-0.084249,-0.024386, 0.303675,1,-0.435542, 0.283233, 9.792878,1,0
1778257096565,  2032.687,  2032.682,-0.044912,-0.004330,-0.770220, 0.000081,-0.000566,-0.008827,-0.862131, 0.232356, 2.240449,1,-0.091965,-0.061291, 0.287763,1,-0.419535, 0.272340, 9.793886,1,0
1778257096590,  2032.707,  2032.707,-0.096193,-0.077531,-1.031609,-0.001229,-0.000233,-0.009332,-1.361918,-0.497340,-0.322450,1,-0.073426, 0.041418, 0.276968,1,-0.419648, 0.261055, 9.794188,1,0
1778257096612,  2032.732,  2032.727,-0.221654,-0.074377,-0.981377,-0.002237,-0.000536,-0.009660,-1.331082,-0.415282,-1.578785,1,-0.088047, 0.018481, 0.218110,1,-0.422980, 0.243187, 9.794505,1,0
1778257096639,  2032.757,  2032.757,-0.153044,-0.074328,-1.110742,-0.001998,-0.000919,-0.010889,-1.921176,-0.499542,-1.097704,1,-0.077266, 0.009892, 0.146504,1,-0.420524, 0.227151, 9.794996,1,0
1778257096660,  2032.777,  2032.777,-0.121245,-0.081430,-0.990472,-0.000875,-0.001037,-0.010859,-1.615287,-0.577937, 0.081687,1,-0.056307, 0.015899, 0.112920,1,-0.426700, 0.219012, 9.794914,1,0
1778257096682,  2032.802,  2032.797, 0.032032,-0.076706,-0.857012, 0.000436,-0.000956,-0.008774,-1.397705,-0.456935, 1.667087,1, 0.017485, 0.059671, 0.077735,1,-0.436738, 0.218657, 9.794479,1,0
1778257096709,  2032.827,  2032.827,-0.095268,-0.054746,-1.050795,-0.000509,-0.000398,-0.010309,-1.377403,-0.325240,-0.510429,1,-0.025282, 0.025488, 0.033899,1,-0.443913, 0.210898, 9.794328,1,0
1778257096730,  2032.852,  2032.847,-0.058961,-0.028481,-1.256483,-0.000588,-0.000771,-0.013608,-2.506800,-0.583895,-2.370235,1,-0.040260, 0.014625, 0.029018,1,-0.446824, 0.198437, 9.794456,1,0
1778257096752,  2032.872,  2032.867,-0.054530,-0.036377,-0.545254,-0.000309,-0.000092,-0.005589,-0.439272,-0.797488,-0.282870,1,-0.083102,-0.002650, 0.032763,1,-0.450495, 0.180740, 9.794630,1,0
1778257096779,  2032.897,  2032.897, 0.292248,-0.032531,-0.797437, 0.002594,-0.000313,-0.007648, 2.423900,-0.173629, 1.975410,1,-0.189911, 0.023108, 0.014438,1,-0.442786, 0.139489, 9.795655,1,0
1778257096801,  2032.922,  2032.917, 0.483976,-0.068662,-1.091534, 0.004780,-0.000818,-0.011192, 2.809568,-0.821233, 0.866738,1,-0.196129, 0.104866, 0.028737,1,-0.456092, 0.101507, 9.795512,1,0
1778257096822,  2032.942,  2032.937, 0.232532,-0.025024,-0.982842, 0.002526,-0.000277,-0.009408, 4.966246,-0.772655,-0.537620,1,-0.187737, 0.199122, 0.021994,1,-0.489378, 0.063619, 9.794225,1,0
1778257096849,  2032.967,  2032.967,-0.515214, 0.046255,-1.485668,-0.004212, 0.000356,-0.015656,-5.551123, 0.469896,-4.775478,1,-0.179392,-0.155136,-0.006044,1,-0.493759, 0.010687, 9.794206,1,0
1778257096871,  2032.992,  2032.987, 0.011554,-0.002067,-0.635785,-0.000118,-0.000033,-0.006699,-3.474613,-0.112727,-0.120540,1,-0.029031,-0.064917,-0.077231,1,-0.469888,-0.004542, 9.795385,1,0
1778257096892,  2033.012,  2033.007,-0.042184, 0.054400,-0.289573, 0.000478,-0.000064,-0.003959,-0.601300, 0.120058, 7.939115,1, 0.074187,-0.006843,-0.095723,1,-0.466905,-0.000890, 9.795528,1,0
1778257096919,  2033.037,  2033.037,-0.011531,-0.080945,-1.483697,-0.000183,-0.000684,-0.014074,-0.567465,-0.798342,-4.753983,1, 0.002879, 0.000900,-0.091615,1,-0.454414,-0.004581, 9.796115,1,0
1778257096941,  2033.062,  2033.057,-0.108010, 0.126309,-1.013877,-0.000868, 0.001015,-0.011343,-0.660444, 0.323366,-3.102209,1, 0.064257, 0.027191,-0.101975,1,-0.461484, 0.002372, 9.795785,1,0
1778257096962,  2033.082,  2033.077, 0.014204,-0.049402,-0.788690,-0.000437,-0.000038,-0.006676,-0.633618,-0.307647, 1.043970,1, 0.061879,-0.009148,-0.084010,1,-0.460755, 0.012227, 9.795813,1,0
1778257096989,  2033.107,  2033.107, 0.050737, 0.031870,-0.960844, 0.000386, 0.000126,-0.009431, 0.037509, 0.329999, 0.373178,1,-0.049177, 0.020515,-0.070562,1,-0.460696, 0.015819, 9.795810,1,0
1778257097011,  2033.132,  2033.127, 0.015418,-0.026454,-1.171101,-0.000094,-0.000116,-0.011244,-0.359859, 0.207915,-0.176826,1,-0.091871, 0.006220,-0.025920,1,-0.464735, 0.004133, 9.795631,1,0
1778257097032,  2033.152,  2033.147, 0.012981,-0.000728,-0.945339, 0.000085, 0.000084,-0.009287, 0.050122, 0.107389,-1.314871,1,-0.120899, 0.055437, 0.007967,1,-0.472916,-0.017675, 9.795224,1,0
1778257097059,  2033.177,  2033.177, 0.064786, 0.024753,-1.102260, 0.000404, 0.000182,-0.010777, 0.154530, 0.182923,-1.014809,1,-0.225096, 0.041571, 0.030571,1,-0.482102,-0.066796, 9.794565,1,0
1778257097081,  2033.202,  2033.197, 0.036709,-0.043336,-1.122618, 0.000060,-0.000308,-0.010498, 0.083775,-0.111171, 0.324623,1,-0.256980, 0.026918, 0.031119,1,-0.491134,-0.111159, 9.793713,1,0
1778257097103,  2033.222,  2033.217, 0.075740,-0.045837,-0.994903, 0.000643,-0.000487,-0.009869, 0.179338,-0.298390,-0.900772,1,-0.234877, 0.073122, 0.029369,1,-0.503962,-0.157923, 9.792418,1,0
1778257097130,  2033.247,  2033.247,-0.016589,-0.033752,-1.111965,-0.000229,-0.000409,-0.011245,-0.674035,-0.547629,-1.113743,1,-0.223912, 0.016340, 0.002957,1,-0.511862,-0.223606, 9.790730,1,0
1778257097151,  2033.272,  2033.267,-0.041094,-0.017456,-1.003840,-0.000609,-0.000202,-0.009565,-0.879654,-0.386872, 0.965557,1,-0.170589,-0.016873,-0.060836,1,-0.512734,-0.261673, 9.789741,1,0
1778257097174,  2033.292,  2033.292, 0.045063,-0.115527,-1.057422, 0.000484,-0.001338,-0.010737,-0.072200,-1.439933,-0.581415,1,-0.156549,-0.013732,-0.095798,1,-0.513596,-0.312039, 9.788219,1,0
1778257097200,  2033.317,  2033.317, 0.022473,-0.015266,-0.948971, 0.000144,-0.000126,-0.009456,-0.286181,-0.483557, 0.481634,1,-0.122728,-0.033845,-0.100220,1,-0.505403,-0.337833, 9.787789,1,0
1778257097221,  2033.342,  2033.337, 0.119854, 0.065729,-0.930982, 0.000968, 0.000562,-0.009136,-0.032303,-0.908567, 0.920024,1,-0.048445,-0.043941,-0.193374,1,-0.496778,-0.355586, 9.787602,1,0
1778257097244,  2033.362,  2033.362, 0.102275,-0.152916,-1.157343, 0.001187,-0.001587,-0.011852, 0.512922,-1.873269,-1.562395,1,-0.015253,-0.031978,-0.212701,1,-0.488809,-0.374482, 9.787298,1,0
1778257097270,  2033.387,  2033.387, 0.009220, 0.090481,-1.063684, 0.000093, 0.000579,-0.011034,-0.388142, 0.512299,-0.643395,1, 0.003216,-0.067066,-0.228517,1,-0.476200,-0.375267, 9.787890,1,0
1778257097291,  2033.412,  2033.407, 0.102317, 0.045124,-0.710573, 0.000990, 0.000215,-0.006997, 0.118139,-0.768642, 1.486919,1, 0.072759,-0.063409,-0.237900,1,-0.461589,-0.366344, 9.788928,1,0
1778257097314,  2033.432,  2033.432, 0.185460,-0.050586,-0.989334, 0.001862,-0.000391,-0.009872, 1.373317,-0.848245, 0.088144,1, 0.073353,-0.040362,-0.244249,1,-0.443896,-0.350222, 9.790337,1,0
1778257097340,  2033.457,  2033.457, 0.168707, 0.068404,-1.100832, 0.001773, 0.000445,-0.010935, 1.213521, 0.329207,-1.004698,1, 0.052019,-0.005753,-0.257384,1,-0.440963,-0.340258, 9.790820,1,0
1778257097361,  2033.482,  2033.477, 0.188093, 0.076137,-0.831541, 0.001942, 0.000408,-0.008966, 1.220761,-0.526771,-1.759972,1, 0.088034,-0.031294,-0.232558,1,-0.434068,-0.329547, 9.791494,1,0
1778257097384,  2033.502,  2033.502, 0.314861,-0.038774,-0.820072, 0.002994,-0.000225,-0.007706, 2.661288,-0.695299, 1.750145,1, 0.054730, 0.008537,-0.191875,1,-0.426513,-0.313608, 9.792350,1,0
1778257097410,  2033.527,  2033.527, 0.243548, 0.068691,-1.061936, 0.002438, 0.000620,-0.010339, 1.959865, 0.361262,-0.621736,1,-0.003715, 0.019222,-0.197647,1,-0.428925,-0.312752, 9.792273,1,0
1778257097431,  2033.552,  2033.547, 0.103142, 0.005141,-0.920287, 0.000771, 0.000201,-0.008736, 1.109473,-0.666683,-0.913712,1, 0.016485, 0.059656,-0.183377,1,-0.436276,-0.313071, 9.791937,1,0
1778257097454,  2033.572,  2033.572,-0.010739,-0.065992,-0.978962,-0.000103,-0.000960,-0.010191,-0.548668,-0.954188, 0.191469,1, 0.028598, 0.047952,-0.189301,1,-0.444667,-0.306406, 9.791771,1,0
1778257097480,  2033.597,  2033.597,-0.046968, 0.030468,-1.100453,-0.000095, 0.000140,-0.011367,-0.921875,-0.004754,-1.000666,1, 0.043278, 0.109877,-0.214797,1,-0.464494,-0.302505, 9.790972,1,0
1778257097501,  2033.622,  2033.617, 0.040276, 0.063682,-0.912114, 0.000441, 0.000527,-0.009401,-0.747316,-0.582223, 0.648559,1, 0.146651, 0.105296,-0.276890,1,-0.484344,-0.281722, 9.790629,1,0
1778257097524,  2033.647,  2033.642,-0.008241,-0.136481,-0.408025, 0.000072,-0.001505,-0.004688,-0.562687,-1.582148, 5.790408,1, 0.239262,-0.052516,-0.324415,1,-0.479978,-0.236768, 9.792035,1,0
1778257097550,  2033.667,  2033.667,-0.040915,-0.136659,-1.382464,-0.000654,-0.000711,-0.012200,-0.871402,-1.551462,-3.764252,1, 0.211083,-0.012253,-0.345919,1,-0.469552,-0.205224, 9.793252,1,0
1778257097572,  2033.692,  2033.687, 0.035104, 0.000073,-0.700677, 0.000467, 0.000007,-0.007828, 0.574372,-2.199889,-1.948771,1, 0.283343, 0.018838,-0.430237,1,-0.474693,-0.159408, 9.793858,1,0
1778257097594,  2033.717,  2033.712, 0.225270,-0.180792,-0.976092, 0.001650,-0.001316,-0.008378, 1.752393,-1.868372, 0.223346,1, 0.228576,-0.039647,-0.431049,1,-0.455379,-0.088910, 9.795668,1,0
1778257097620,  2033.737,  2033.737, 0.177347,-0.273399,-1.144047, 0.001974,-0.002872,-0.011975, 1.286090,-2.741721,-1.423287,1, 0.187228, 0.007942,-0.454255,1,-0.453251,-0.055414, 9.796013,1,0
1778257097642,  2033.762,  2033.757, 0.097525,-0.152842,-1.079266, 0.000993,-0.001426,-0.011308,-0.273796,-0.720623,-0.219679,1, 0.120203,-0.013812,-0.455745,1,-0.452560,-0.034576, 9.796141,1,0
1778257097664,  2033.787,  2033.782, 0.010801,-0.076290,-0.686315, 0.000414,-0.000424,-0.007158,-0.351386,-0.784094, 3.065464,1,-0.063180, 0.012303,-0.429229,1,-0.457645,-0.038536, 9.795890,1,0
1778257097690,  2033.807,  2033.807, 0.041472,-0.158805,-1.004565, 0.000181,-0.001659,-0.008938,-0.053606,-1.613788,-0.055737,1,-0.158982, 0.020771,-0.464298,1,-0.460875,-0.062077, 9.795618,1,0
1778257097712,  2033.832,  2033.827,-0.010805,-0.310825,-1.272408,-0.000497,-0.003099,-0.011880,-0.644204,-2.011205,-2.103211,1,-0.182144, 0.027931,-0.462588,1,-0.463816,-0.100176, 9.795163,1,0
1778257097735,  2033.857,  2033.852, 0.015531,-0.212170,-0.992020, 0.000386,-0.002269,-0.010640,-0.318255,-2.240367, 0.065650,1,-0.231309, 0.023415,-0.516494,1,-0.471093,-0.167643, 9.793894,1,0
1778257097760,  2033.877,  2033.877, 0.003161,-0.157876,-0.763792, 0.000131,-0.001353,-0.007474,-0.444454,-1.752717, 2.302737,1,-0.189103, 0.048330,-0.593081,1,-0.476577,-0.211275, 9.792784,1,0
1778257097782,  2033.902,  2033.897,-0.104948,-0.184192,-0.890472,-0.000924,-0.001835,-0.008894,-0.468225,-3.682964,-0.930241,1,-0.264220, 0.017972,-0.649884,1,-0.479085,-0.265127, 9.791351,1,0
1778257097805,  2033.927,  2033.922,-0.105751,-0.310425,-0.677643,-0.001187,-0.002875,-0.006562,-1.505069,-3.371597, 3.144591,1,-0.191888,-0.087599,-0.726884,1,-0.464525,-0.334429, 9.789931,1,0
1778257097830,  2033.947,  2033.947,-0.315289, 0.141451,-0.074901,-0.002718, 0.000867,-0.001122,-3.512838, 1.015745, 9.056032,1,-0.237867,-0.336181,-0.718141,1,-0.409583,-0.379795, 9.790730,1,0
1778257097852,  2033.972,  2033.967,-0.188515,-0.365613,-3.069575,-0.002463,-0.003169,-0.033785,-5.997929, 0.051958,-20.617586,1,-0.340986, 0.076734,-0.698632,1,-0.377803,-0.458839, 9.788622,1,0
1778257097879,  2033.997,  2033.997,-0.073245,-0.278355, 0.485108,-0.000543,-0.003178, 0.003655,-1.133921,-3.202305,14.543716,1,-0.039627,-0.044147,-0.857082,1,-0.412973,-0.474947, 9.786432,1,0
1778257097900,  2034.017,  2034.017,-0.081730,-0.046357,-0.657069,-0.001019,-0.000296,-0.004156,-1.198490,-0.955136, 3.342173,1,-0.203821, 0.016175,-0.807505,1,-0.396210,-0.507897, 9.785471,1,0
1778257097922,  2034.042,  2034.037,-0.254050,-0.105778,-1.436710,-0.002607,-0.001530,-0.015245,-3.225616,-1.981082,-5.457728,1,-0.174216, 0.146935,-0.893629,1,-0.410366,-0.537440, 9.783309,1,0
1778257097949,  2034.067,  2034.067,-0.203083, 0.197818,-1.071390,-0.001897, 0.001338,-0.011421,-2.397698, 1.367145,-0.725266,1,-0.136860, 0.047236,-0.851229,1,-0.406057,-0.578149, 9.781168,1,0
1778257097971,  2034.092,  2034.087,-0.130030,-0.185440,-0.772682,-0.001186,-0.001570,-0.006721,-1.416807,-0.968469, 1.086071,1,-0.028393, 0.058702,-0.788895,1,-0.413837,-0.594572, 9.779858,1,0
1778257097992,  2034.112,  2034.107,-0.115985, 0.050388,-1.602413,-0.001317, 0.000677,-0.015800,-1.427186,-0.428475,-3.401860,1,-0.125405, 0.065571,-0.838713,1,-0.409769,-0.620151, 9.778440,1,0
1778257098019,  2034.137,  2034.137,-0.090894,-0.120057,-1.166620,-0.001158,-0.000900,-0.012487,-1.337638,-1.841715,-1.666704,1,-0.090368, 0.192330,-0.759123,1,-0.450648,-0.668249, 9.773472,1,0
1778257098041,  2034.162,  2034.157, 0.097472,-0.020638,-0.672637, 0.000847,-0.000037,-0.005926, 0.819684,-1.116737, 5.077402,1,-0.108898, 0.116083,-0.753991,1,-0.467150,-0.695198, 9.770817,1,0
1778257098062,  2034.182,  2034.177, 0.124459, 0.015408,-0.841206, 0.001039, 0.000305,-0.007978, 0.748945,-1.060335, 1.616542,1,-0.153821, 0.128303,-0.752262,1,-0.482160,-0.732574, 9.767356,1,0
1778257098089,  2034.207,  2034.207,-0.006990,-0.006645,-1.097382, 0.000147, 0.000091,-0.010350,-0.560739,-0.843548,-0.998330,1,-0.139930, 0.070507,-0.765570,1,-0.492486,-0.783935, 9.762853,1,0
1778257098111,  2034.232,  2034.227, 0.019984,-0.037373,-0.938053, 0.000283,-0.000654,-0.009753,-0.421197,-0.549821,-0.270031,1,-0.045192, 0.096266,-0.750220,1,-0.498026,-0.807663, 9.760637,1,0
1778257098132,  2034.252,  2034.247, 0.058229, 0.014446,-0.978277, 0.000738,-0.000743,-0.010601,-0.542543,-1.910297, 0.329623,1, 0.002513, 0.025990,-0.750055,1,-0.495203,-0.820141, 9.759740,1,0
1778257098159,  2034.277,  2034.277, 0.223821,-0.059424,-0.830607, 0.002082,-0.000497,-0.007667, 1.704838,-1.406521, 1.614222,1, 0.054954, 0.068326,-0.800959,1,-0.490119,-0.823315, 9.759729,1,0
1778257098181,  2034.302,  2034.297, 0.325847,-0.213506,-0.883110, 0.003552,-0.001973,-0.008464, 2.563173,-1.765503, 2.498902,1, 0.086067, 0.150374,-0.864572,1,-0.498111,-0.816534, 9.759894,1,0
1778257098202,  2034.322,  2034.317, 0.057979,-0.157166,-1.310750, 0.000731,-0.002115,-0.013004, 1.712651,-2.852643,-1.911970,1, 0.144787, 0.130756,-0.946051,1,-0.517237,-0.798766, 9.760370,1,0
1778257098229,  2034.347,  2034.347,-0.028201, 0.030126,-0.977219,-0.000068, 0.000203,-0.010299,-0.808836,-0.468395, 0.179116,1, 0.206818, 0.169263,-0.930099,1,-0.535270,-0.758974, 9.762573,1,0
1778257098251,  2034.372,  2034.367,-0.139584,-0.021649,-1.110049,-0.001093,-0.000429,-0.010697,-0.789554,-0.176598, 1.197307,1, 0.220938, 0.077660,-0.945925,1,-0.545712,-0.722007, 9.764798,1,0
1778257098272,  2034.392,  2034.387, 0.070601,-0.057984,-0.997076, 0.000468,-0.000393,-0.010132,-0.205945,-1.655720,-2.653659,1, 0.194179, 0.100184,-0.930347,1,-0.548074,-0.687180, 9.767179,1,0
1778257098299,  2034.417,  2034.417, 0.132013,-0.143478,-0.871572, 0.000973,-0.001402,-0.008687, 0.742237,-2.046921, 1.222949,1, 0.241401, 0.063985,-0.890133,1,-0.552545,-0.633939, 9.770527,1,0
1778257098321,  2034.442,  2034.437, 0.104494,-0.135995,-0.955681, 0.000584,-0.001114,-0.009517, 0.427094,-0.957752, 0.979371,1, 0.205509, 0.011982,-0.885521,1,-0.545637,-0.604764, 9.772764,1,0
1778257098343,  2034.462,  2034.457, 0.102684,-0.033612,-1.352432, 0.001041, 0.000309,-0.013139,-0.487300,-0.788937,-2.642962,1, 0.102389, 0.033785,-0.913569,1,-0.538251,-0.581090, 9.774611,1,0
1778257098369,  2034.487,  2034.487, 0.201351,-0.171607,-1.123844, 0.002285,-0.001827,-0.011839, 1.424802,-2.235378,-1.245522,1, 0.145480, 0.098943,-0.872087,1,-0.551316,-0.549488, 9.775709,1,0
1778257098391,  2034.512,  2034.507, 0.102797, 0.005502,-0.686760, 0.001566,-0.000404,-0.006998, 1.022664,-0.842611, 4.086748,1, 0.103922, 0.021122,-0.845783,1,-0.548902,-0.531618, 9.776834,1,0
1778257098414,  2034.532,  2034.532,-0.183351,-0.050196,-1.537111,-0.001435,-0.000424,-0.014237,-2.318291,-1.018673,-5.295227,1, 0.028002,-0.098711,-0.885136,1,-0.515680,-0.527009, 9.778892,1,0
1778257098440,  2034.557,  2034.557,-0.028066, 0.054148,-1.328517,-0.000756, 0.000409,-0.013866,-0.771867, 0.004064,-3.248419,1, 0.017658,-0.057907,-0.799501,1,-0.493491,-0.527665, 9.780001,1,0
1778257098461,  2034.582,  2034.577, 0.192952,-0.029320,-0.651832, 0.001601, 0.000048,-0.005532, 0.249347,-1.061731, 3.532584,1, 0.027375,-0.132068,-0.685999,1,-0.464712,-0.524282, 9.781592,1,0
1778257098484,  2034.602,  2034.602, 0.245774,-0.064166,-0.797579, 0.002480,-0.001056,-0.008329, 1.973075,-1.151637, 1.961382,1, 0.029573,-0.015509,-0.775641,1,-0.435372,-0.522546, 9.783035,1,0
1778257098510,  2034.627,  2034.627, 0.177575,-0.062908,-1.142787, 0.001888,-0.000443,-0.011129, 1.313658,-1.141790,-1.423667,1, 0.014545, 0.006536,-0.798335,1,-0.426628,-0.525508, 9.783262,1,0
1778257098531,  2034.652,  2034.647, 0.069008,-0.029564,-1.017917, 0.000749,-0.000253,-0.010090, 1.026186,-1.227145,-0.591286,1, 0.039093, 0.027010,-0.757879,1,-0.424421,-0.524948, 9.783388,1,0
1778257098554,  2034.672,  2034.672, 0.146659, 0.049905,-0.951436, 0.001512, 0.000579,-0.009373, 1.006153,-0.033082, 0.452782,1, 0.025247, 0.074918,-0.716097,1,-0.433217,-0.522684, 9.783124,1,0
1778257098580,  2034.697,  2034.697, 0.014292,-0.018500,-0.886654, 0.000391,-0.000286,-0.009050,-0.292094,-0.703972, 1.088065,1, 0.044794, 0.020759,-0.710131,1,-0.431720,-0.522133, 9.783219,1,0
1778257098601,  2034.722,  2034.717, 0.059083,-0.078091,-0.979944, 0.000737,-0.000928,-0.010477,-0.115376,-0.527992,-0.696478,1, 0.027499, 0.042818,-0.672659,1,-0.430877,-0.524742, 9.783117,1,0
1778257098624,  2034.742,  2034.742, 0.117778,-0.105714,-0.911681, 0.001126,-0.000815,-0.009041, 0.717585,-1.560520, 0.842335,1, 0.044802, 0.052639,-0.652569,1,-0.437975,-0.523336, 9.782877,1,0
1778257098650,  2034.767,  2034.767, 0.161187,-0.053486,-0.912888, 0.001712,-0.000514,-0.008857, 1.139694,-1.040920, 0.830737,1, 0.065759, 0.030700,-0.678362,1,-0.440850,-0.515308, 9.783174,1,0
1778257098671,  2034.792,  2034.787,-0.056512,-0.034754,-1.139947,-0.000194,-0.000608,-0.011948,-0.240399,-1.713662, 0.236590,1, 0.127699,-0.001974,-0.694024,1,-0.433451,-0.499893, 9.784305,1,0
1778257098694,  2034.812,  2034.812,-0.148817,-0.192597,-1.122711,-0.001432,-0.001759,-0.011122,-1.881714,-2.354576,-1.223562,1, 0.231960, 0.018001,-0.749245,1,-0.421767,-0.459622, 9.786789,1,0
1778257098720,  2034.837,  2034.837,-0.143237,-0.147578,-1.073450,-0.001589,-0.001262,-0.010192,-1.818199,-1.876939,-0.738456,1, 0.214236,-0.010261,-0.751382,1,-0.412172,-0.424008, 9.788806,1,0
1778257098741,  2034.862,  2034.857,-0.104400,-0.141717,-0.932869,-0.001232,-0.001400,-0.009011,-1.963174,-0.611741, 1.987179,1, 0.267163,-0.016083,-0.765765,1,-0.404394,-0.380001, 9.790937,1,0
1778257098764,  2034.887,  2034.882,-0.240631,-0.100398,-0.944481,-0.001964,-0.001147,-0.009891,-2.756979,-1.305339, 0.531150,1, 0.273921,-0.019549,-0.834504,1,-0.395732,-0.313284, 9.793653,1,0
1778257098790,  2034.907,  2034.907,-0.287939,-0.199905,-1.103345,-0.002857,-0.001585,-0.011130,-3.219583,-2.235915,-1.025343,1, 0.285142, 0.043752,-0.842594,1,-0.396484,-0.267688, 9.794974,1,0
1778257098812,  2034.932,  2034.927,-0.511792,-0.091667,-0.974432,-0.004844,-0.000875,-0.010348,-4.142435,-1.314145,-0.773214,1, 0.244069,-0.012762,-0.842055,1,-0.392734,-0.226342, 9.796168,1,0
1778257098834,  2034.957,  2034.952,-0.436408, 0.012508,-0.924709,-0.004779, 0.000703,-0.008387,-4.650408,-0.055241, 0.729726,1, 0.205439,-0.098657,-0.837814,1,-0.367158,-0.172488, 9.798256,1,0
1778257098860,  2034.977,  2034.977,-0.340167,-0.124406,-1.165105,-0.003603,-0.001323,-0.011272,-3.681047,-1.374522,-1.626419,1, 0.106161,-0.108091,-0.787119,1,-0.341393,-0.152069, 9.799526,1,0
1778257098882,  2035.002,  2034.997,-0.180498,-0.114249,-0.904017,-0.001951,-0.000771,-0.009084,-2.188207,-1.104824,-0.557498,1, 0.083457,-0.057843,-0.740727,1,-0.325107,-0.137603, 9.800294,1,0
1778257098904,  2035.027,  2035.022,-0.050746,-0.044351,-0.887213,-0.000640,-0.000008,-0.008874,-0.802701,-0.560059, 1.100514,1, 0.108100,-0.066063,-0.763839,1,-0.302682,-0.122497, 9.801212,1,0
1778257098930,  2035.047,  2035.047,-0.059046,-0.156547,-0.996431,-0.000422,-0.001254,-0.009880,-0.873539,-1.653419, 0.029862,1, 0.077588,-0.030171,-0.755108,1,-0.293266,-0.116505, 9.801572,1,0
1778257098952,  2035.072,  2035.067, 0.056682, 0.000090,-1.019848, 0.000552,-0.000083,-0.009854,-0.244855, 0.030216, 0.507641,1, 0.080407,-0.033509,-0.753157,1,-0.285892,-0.106328, 9.801905,1,0
1778257098975,  2035.097,  2035.092, 0.026737,-0.023859,-1.153862, 0.000151,-0.000644,-0.011395,-0.018795,-0.314264,-1.513228,1, 0.143665,-0.012154,-0.756916,1,-0.280422,-0.076485, 9.802341,1,0
1778257099000,  2035.117,  2035.117, 0.087676, 0.027947,-1.108093, 0.000850, 0.000153,-0.011044, 0.585199, 0.224214,-1.064003,1, 0.173207,-0.021428,-0.723652,1,-0.273820,-0.045083, 9.802723,1,0
1778257099022,  2035.142,  2035.137, 0.216485,-0.003106,-0.864263, 0.002286, 0.000008,-0.008899, 1.849508,-0.208470, 0.404719,1, 0.233240,-0.014465,-0.692886,1,-0.271076,-0.001460, 9.802902,1,0
1778257099045,  2035.167,  2035.162, 0.397415,-0.107289,-0.918483, 0.003784,-0.000928,-0.009254, 3.624907,-0.983827, 0.795376,1, 0.327474, 0.061927,-0.648597,1,-0.274476, 0.077976, 9.802498,1,0
1778257099070,  2035.187,  2035.187, 0.258175, 0.029834,-0.924616, 0.002559, 0.000306,-0.009132, 2.259143, 0.412506, 0.734737,1, 0.275517,-0.028930,-0.581561,1,-0.272005, 0.128030, 9.802041,1,0
1778257099092,  2035.212,  2035.207, 0.212536, 0.163280,-0.802357, 0.002159, 0.001495,-0.007777, 2.549622, 0.905934, 0.842468,1, 0.293107, 0.012208,-0.561141,1,-0.277613, 0.181224, 9.801044,1,0
1778257099119,  2035.237,  2035.237, 0.228210, 0.113133,-0.962615, 0.002258, 0.001246,-0.009661, 1.971213, 1.368762, 0.359553,1, 0.339336,-0.022040,-0.463604,1,-0.266452, 0.269493, 9.799325,1,0
1778257099140,  2035.257,  2035.257, 0.090702, 0.000497,-1.034916, 0.001210,-0.000157,-0.010594, 0.634260, 0.331174,-0.351169,1, 0.382443,-0.144586,-0.361389,1,-0.251175, 0.337861, 9.797609,1,0
1778257099162,  2035.282,  2035.277, 0.222704, 0.120982,-0.782310, 0.002090, 0.001478,-0.007501, 2.425293, 1.341657,-1.472483,1, 0.431857,-0.099359,-0.330306,1,-0.234145, 0.412663, 9.795166,1,0
1778257099189,  2035.307,  2035.307, 0.333938, 0.072425,-0.811195, 0.003737, 0.000823,-0.008830, 3.057159, 1.240775, 1.834746,1, 0.483908,-0.050768,-0.288412,1,-0.216557, 0.545410, 9.789076,1,0
1778257099211,  2035.332,  2035.327, 0.205719, 0.050181,-1.257615, 0.002304, 0.000481,-0.012538, 1.524167,-0.140685,-2.469617,1, 0.481257,-0.028095,-0.239183,1,-0.211011, 0.639543, 9.783499,1,0
1778257099232,  2035.352,  2035.347, 0.096659, 0.051077,-1.096470, 0.000622, 0.000363,-0.011201, 1.164945, 1.220477,-0.862272,1, 0.487196,-0.037636,-0.162641,1,-0.208804, 0.732696, 9.777011,1,0
1778257099259,  2035.377,  2035.377, 0.215646, 0.061311,-0.941742, 0.002076, 0.000709,-0.009060, 1.913895, 1.457457, 0.531787,1, 0.435124,-0.045242,-0.095251,1,-0.199724, 0.869669, 9.765970,1,0
1778257099281,  2035.402,  2035.397, 0.212078, 0.058102,-0.877886, 0.002622, 0.000434,-0.009492, 1.753246, 2.417218, 2.478626,1, 0.427624,-0.011718,-0.025985,1,-0.195937, 0.959009, 9.757679,1,0
1778257099302,  2035.422,  2035.417, 0.197371, 0.031910,-1.275538, 0.002046, 0.000176,-0.012536, 2.431943,-0.108391,-2.691485,1, 0.362184, 0.016619, 0.070798,1,-0.193847, 1.037905, 9.749644,1,0
1778257099329,  2035.447,  2035.447, 0.283369, 0.000392,-1.251515, 0.002437, 0.000009,-0.012349, 2.582595, 1.137093,-2.534202,1, 0.356136, 0.015585, 0.135956,1,-0.196302, 1.144370, 9.737673,1,0
1778257099351,  2035.472,  2035.467, 0.244292, 0.099211,-0.712065, 0.002904, 0.000343,-0.008472, 1.675133, 2.678075, 2.014650,1, 0.371906,-0.002203, 0.184754,1,-0.193796, 1.208228, 9.730006,1,0
1778257099372,  2035.492,  2035.487, 0.396202, 0.012509,-0.594126, 0.003507, 0.000492,-0.005003, 3.709629, 1.803370, 2.956386,1, 0.248122, 0.031005, 0.274574,1,-0.193851, 1.265710, 9.722694,1,0
1778257099399,  2035.517,  2035.517, 0.225090, 0.205366,-0.983646, 0.002441, 0.001566,-0.010287, 2.030557, 3.332303, 0.069748,1, 0.158535,-0.033517, 0.453771,1,-0.173880, 1.323509, 9.715373,1,0
1778257099421,  2035.542,  2035.537, 0.288009, 0.182550,-1.425628, 0.002741, 0.002589,-0.014496, 3.128249, 2.934984,-5.496402,1, 0.080197, 0.122539, 0.473862,1,-0.174994, 1.343426, 9.712619,1,0
1778257099442,  2035.562,  2035.557, 0.220752, 0.240891,-0.714615, 0.002277, 0.002543,-0.007739, 2.650720, 2.049208,-2.233633,1, 0.114762, 0.124947, 0.551221,1,-0.187861, 1.370546, 9.708589,1,0
1778257099469,  2035.587,  2035.587, 0.269139, 0.141059,-0.543704, 0.002891, 0.000858,-0.006319, 2.460421, 2.783499, 4.372616,1, 0.069112, 0.067553, 0.646457,1,-0.178137, 1.402687, 9.704181,1,0
1778257099491,  2035.612,  2035.607, 0.402959, 0.279031,-1.696278, 0.003881, 0.003176,-0.017946, 3.059578, 2.921888,-7.700946,1,-0.118188, 0.280462, 0.725717,1,-0.198485, 1.391873, 9.705342,1,0
1778257099512,  2035.632,  2035.627, 0.141556, 0.241324,-0.419062, 0.001359, 0.001755,-0.004880, 2.090698, 1.571753, 0.029326,1,-0.011073, 0.199012, 0.867266,1,-0.225535, 1.390297, 9.704978,1,0
1778257099539,  2035.657,  2035.657, 0.184885, 0.186659,-0.749466, 0.001849, 0.001041,-0.008130, 1.585752, 3.199506, 2.358212,1,-0.121416, 0.225549, 0.775886,1,-0.231000, 1.365814, 9.708325,1,0
1778257099561,  2035.682,  2035.677, 0.155872, 0.114519,-1.061868, 0.001427, 0.001809,-0.009740, 1.143627, 1.458562, 0.648257,1,-0.207633, 0.252747, 0.862351,1,-0.262335, 1.337314, 9.711496,1,0
1778257099583,  2035.702,  2035.697, 0.153205, 0.204934,-1.264401, 0.000926, 0.002061,-0.012536, 0.513206, 0.864474,-3.026957,1,-0.271652, 0.265294, 0.966418,1,-0.285427, 1.295740, 9.716479,1,0
1778257099609,  2035.727,  2035.727, 0.032428, 0.175171,-1.106331,-0.000388, 0.001220,-0.011352, 0.000301, 2.957613,-1.126629,1,-0.204357, 0.234440, 0.913899,1,-0.321356, 1.234370, 9.723346,1,0
1778257099631,  2035.752,  2035.747,-0.145116,-0.165336,-1.159190,-0.001636,-0.000917,-0.010982,-1.289347, 2.047161, 0.535044,1,-0.186257, 0.133376, 0.846483,1,-0.329221, 1.199389, 9.727459,1,0
1778257099654,  2035.772,  2035.772,-0.231140,-0.106856,-1.030547,-0.002001,-0.000509,-0.011112,-2.600525, 0.117967,-0.374840,1,-0.111088, 0.084587, 0.793500,1,-0.333486, 1.163272, 9.731699,1,0
1778257099680,  2035.797,  2035.797,-0.177393, 0.007582,-0.886884,-0.001613, 0.000198,-0.008880,-2.065574, 1.230970, 1.035386,1,-0.044912, 0.054881, 0.718259,1,-0.324998, 1.155974, 9.732856,1,0
1778257099701,  2035.822,  2035.817,-0.158862, 0.038723,-0.936060,-0.001255,-0.000106,-0.010102,-1.840791, 2.471808, 2.119591,1, 0.038211, 0.008822, 0.642432,1,-0.314014, 1.165664, 9.732060,1,0
1778257099724,  2035.842,  2035.842,-0.043744,-0.080563,-1.190357,-0.000192, 0.000158,-0.011522,-0.739386, 0.401547,-1.944379,1, 0.142824, 0.071150, 0.610702,1,-0.310290, 1.196622, 9.728422,1,0
1778257099750,  2035.867,  2035.867,-0.037769, 0.003815,-0.980129,-0.000204, 0.001218,-0.008869,-0.677776, 1.259258, 0.113590,1, 0.179870, 0.052915, 0.619809,1,-0.306616, 1.228014, 9.724627,1,0
1778257099771,  2035.892,  2035.887, 0.014197, 0.049152,-0.864048,-0.000312, 0.000385,-0.009415, 0.280875, 2.699950,-0.562624,1, 0.159030, 0.088078, 0.609953,1,-0.305080, 1.260403, 9.720530,1,0
1778257099794,  2035.912,  2035.912, 0.030489, 0.188110,-0.842255, 0.000734, 0.001608,-0.009626,-0.004355, 3.159452, 1.453684,1, 0.196306, 0.067408, 0.629044,1,-0.302803, 1.321402, 9.712497,1,0
1778257099820,  2035.937,  2035.937, 0.025203, 0.155467,-1.061931, 0.000019, 0.001319,-0.010861,-0.048597, 2.879650,-0.705914,1, 0.215360, 0.020528, 0.650513,1,-0.293582, 1.362306, 9.707128,1,0
1778257099841,  2035.957,  2035.957, 0.156798, 0.134907,-1.037522, 0.001260, 0.001008,-0.010195, 1.246340, 2.718994,-0.472211,1, 0.194859, 0.113080, 0.648477,1,-0.291933, 1.402632, 9.701432,1,0
1778257099864,  2035.982,  2035.982, 0.073338, 0.182269,-1.084399, 0.000575, 0.001917,-0.010994, 0.435297, 3.240886,-0.940138,1, 0.161434, 0.027193, 0.748982,1,-0.281283, 1.459095, 9.693416,1,0
1778257099890,  2036.007,  2036.007,-0.109265, 0.266627,-1.379927,-0.001574, 0.001779,-0.015225,-1.337734, 4.093299,-3.841573,1, 0.083278, 0.022119, 0.796624,1,-0.263143, 1.481826, 9.690476,1,0
1778257099911,  2036.032,  2036.027, 0.094679, 0.175037,-0.895782, 0.001363, 0.002032,-0.009068,-1.420365, 1.797627,-0.610399,1, 0.101121,-0.014337, 0.841236,1,-0.233104, 1.510224, 9.686861,1,0
1778257099934,  2036.052,  2036.052, 0.341285, 0.346816,-0.787997, 0.003200, 0.003647,-0.007601, 3.126048, 4.938377, 1.955285,1, 0.051552, 0.119210, 0.794452,1,-0.220605, 1.539341, 9.682570,1,0
1778257099960,  2036.077,  2036.077, 0.275613, 0.204092,-1.084797, 0.002725, 0.001844,-0.010968, 2.482272, 3.543089,-0.956019,1,-0.003328, 0.152048, 0.924053,1,-0.220719, 1.542181, 9.682115,1,0
1778257099981,  2036.102,  2036.097, 0.141976, 0.044352,-1.030811, 0.002057, 0.000636,-0.010800, 1.597557, 2.429309,-2.646066,1,-0.030911, 0.213905, 1.004225,1,-0.227355, 1.537550, 9.682697,1,0
1778257100004,  2036.127,  2036.122, 0.109048, 0.124018,-0.867492, 0.001802, 0.001624,-0.009056, 0.829664, 2.744245, 1.176710,1,-0.099938, 0.174719, 0.957986,1,-0.240455, 1.525694, 9.684257,1,0
1778257100030,  2036.147,  2036.147, 0.115697, 0.116840,-0.888044, 0.001464, 0.001067,-0.009701, 0.897465, 2.660638, 0.977308,1,-0.142028, 0.143275, 0.945298,1,-0.236991, 1.511160, 9.686621,1,0
1778257100052,  2036.172,  2036.167, 0.058581,-0.102141,-0.925459, 0.000646,-0.001647,-0.009633, 1.428353, 2.376002,-0.297671,1,-0.137341, 0.131400, 0.929402,1,-0.238579, 1.493087, 9.689384,1,0
1778257100074,  2036.197,  2036.192, 0.035368,-0.117960,-0.939468, 0.000873,-0.001369,-0.010366, 0.110691, 0.312321, 0.480072,1,-0.109656, 0.105678, 0.864368,1,-0.235372, 1.466385, 9.693539,1,0
1778257100100,  2036.217,  2036.217, 0.060434,-0.118882,-0.844300, 0.001487,-0.000718,-0.008505, 0.355649, 0.291501, 1.415109,1,-0.088745, 0.110990, 0.797809,1,-0.236729, 1.455199, 9.695191,1,0
1778257100122,  2036.242,  2036.237, 0.059892, 0.076229,-0.921198, 0.000709,-0.000274,-0.009404, 0.286577,-0.008349, 1.574600,1,-0.082282, 0.078121, 0.798729,1,-0.234238, 1.440929, 9.697383,1,0
1778257100144,  2036.267,  2036.262, 0.093167, 0.100020,-1.139576, 0.001064, 0.000220,-0.010275, 0.675773, 2.399138,-1.474790,1,-0.166032, 0.129687, 0.736400,1,-0.238557, 1.413699, 9.701285,1,0
1778257100170,  2036.287,  2036.287,-0.015311, 0.067239,-0.997323, 0.000123,-0.000330,-0.010124,-0.386798, 2.056259,-0.076629,1,-0.171624, 0.094994, 0.760761,1,-0.236193, 1.392142, 9.704460,1,0
1778257100192,  2036.312,  2036.307,-0.054851, 0.062359,-1.004037, 0.000237, 0.001087,-0.010184,-0.604766, 1.759260,-1.863207,1,-0.201942, 0.112051, 0.738043,1,-0.238054, 1.366466, 9.708063,1,0
1778257100215,  2036.337,  2036.332,-0.028639, 0.057361,-0.869583, 0.000493, 0.000962,-0.009262,-0.519157, 1.888834, 1.185921,1,-0.141373, 0.075816, 0.727681,1,-0.237577, 1.322500, 9.714162,1,0
1778257100240,  2036.357,  2036.357,-0.043326, 0.134098,-0.978304, 0.000255, 0.001290,-0.010641,-0.659430, 2.606893, 0.124476,1,-0.170853, 0.096688, 0.700240,1,-0.234655, 1.287077, 9.718989,1,0
1778257100262,  2036.382,  2036.377, 0.049315,-0.007155,-0.904369, 0.000407,-0.000619,-0.008826, 0.157376, 1.690141,-1.270325,1,-0.180217, 0.121077, 0.737792,1,-0.235982, 1.247624, 9.724100,1,0
1778257100285,  2036.407,  2036.402, 0.080805,-0.020671,-0.916348, 0.000760,-0.000486,-0.009269, 0.547702, 0.997575, 0.743535,1,-0.237376, 0.124194, 0.680285,1,-0.245968, 1.193465, 9.730649,1,0
1778257100310,  2036.427,  2036.427, 0.038648,-0.109052,-1.030478, 0.000543,-0.001149,-0.009623, 0.129286, 0.095589,-0.371540,1,-0.239603, 0.138627, 0.667794,1,-0.251541, 1.158127, 9.734776,1,0
1778257100332,  2036.452,  2036.447, 0.130356, 0.098500,-1.074766, 0.000992, 0.000647,-0.011501,-0.245054, 0.083555,-0.172670,1,-0.205096, 0.122455, 0.669684,1,-0.257556, 1.125026, 9.738500,1,0
1778257100359,  2036.477,  2036.477, 0.097708, 0.083567,-1.020427, 0.000564, 0.001136,-0.009639, 0.692701, 1.904137,-0.264106,1,-0.120518, 0.089111, 0.584845,1,-0.266231, 1.081376, 9.743210,1,0
1778257100380,  2036.497,  2036.497, 0.069440, 0.060559,-1.047930, 0.000744, 0.000532,-0.011147, 0.413376, 1.659475,-0.531773,1,-0.089045, 0.045944, 0.536299,1,-0.267199, 1.063288, 9.745173,1,0
1778257100402,  2036.522,  2036.517, 0.141716,-0.190679,-0.884313, 0.001183,-0.001757,-0.009279, 1.103486, 1.474788, 0.649898,1,-0.047430, 0.057992, 0.490436,1,-0.266435, 1.050581, 9.746572,1,0
1778257100429,  2036.547,  2036.547, 0.021881,-0.142551,-0.685845, 0.000810,-0.001707,-0.007787,-0.063418,-0.347863, 3.020461,1,-0.024148, 0.051018, 0.427102,1,-0.278153, 1.049718, 9.746338,1,0
1778257100451,  2036.572,  2036.567, 0.019963, 0.023603,-1.026416, 0.000485,-0.000705,-0.010672,-0.035571,-0.657389, 0.371178,1,-0.011890, 0.065952, 0.415544,1,-0.284209, 1.050017, 9.746131,1,0
1778257100472,  2036.592,  2036.587, 0.075928, 0.071883,-1.005161, 0.000372, 0.000070,-0.010047,-0.759317,-0.597915, 1.266414,1, 0.043957, 0.057634, 0.343251,1,-0.291209, 1.058243, 9.745035,1,0
1778257100499,  2036.617,  2036.617, 0.076060,-0.016382,-0.987022, 0.000596,-0.000698,-0.010424, 0.444432, 0.900303, 0.065050,1,-0.013911, 0.092290, 0.299093,1,-0.303316, 1.060814, 9.744386,1,0
1778257100521,  2036.642,  2036.637, 0.075441,-0.129699,-0.886717, 0.000704,-0.000476,-0.009150, 1.187946, 0.476219,-1.508995,1,-0.005178, 0.092089, 0.283017,1,-0.314412, 1.066857, 9.743375,1,0
1778257100542,  2036.662,  2036.657, 0.076210,-0.070839,-0.957321, 0.001057, 0.000074,-0.009362, 1.634880, 0.902533,-1.387493,1,-0.046927, 0.150089, 0.292635,1,-0.329745, 1.070902, 9.742424,1,0
1778257100569,  2036.687,  2036.687, 0.057717,-0.068171,-0.975608, 0.000716, 0.000393,-0.008869, 0.218509, 0.408413, 0.173698,1, 0.039864, 0.079290, 0.325529,1,-0.348840, 1.078538, 9.740916,1,0
1778257100591,  2036.712,  2036.707, 0.102379, 0.043184,-1.011440, 0.001116,-0.000489,-0.010417, 0.463493, 1.322421, 1.062953,1,-0.023162, 0.092697, 0.358245,1,-0.361889, 1.068044, 9.741596,1,0
1778257100612,  2036.732,  2036.727, 0.155080, 0.059212,-1.091640, 0.001196,-0.000083,-0.010909, 1.147115, 1.311830,-0.680335,1,-0.083734, 0.126382, 0.361637,1,-0.378366, 1.051490, 9.742771,1,0
1778257100639,  2036.757,  2036.757, 0.138044, 0.037310,-1.162956, 0.000814,-0.000548,-0.011010, 0.960583, 1.385896,-1.659179,1,-0.229983, 0.079135, 0.383945,1,-0.394368, 1.013359, 9.746177,1,0
1778257100661,  2036.782,  2036.777, 0.098502, 0.006761,-1.073636, 0.001435, 0.000848,-0.010581, 0.277632, 1.806769,-1.006868,1,-0.239155, 0.069141, 0.388506,1,-0.395345, 0.984859, 9.749059,1,0
1778257100682,  2036.802,  2036.797, 0.132542,-0.114718,-0.753664, 0.002187,-0.000243,-0.007616, 1.430986, 1.604074,-0.564752,1,-0.210504, 0.132490, 0.357855,1,-0.410936, 0.959698, 9.750923,1,0
1778257100709,  2036.827,  2036.827, 0.094684,-0.139743,-0.964556, 0.000945,-0.000912,-0.009343, 0.514145,-0.437205, 0.294279,1,-0.114265, 0.038346, 0.403175,1,-0.414377, 0.930188, 9.753636,1,0
1778257100731,  2036.852,  2036.847, 0.156912, 0.080169,-0.875370, 0.001739, 0.000325,-0.009363, 0.456091,-0.559714,-1.890984,1,-0.083913, 0.069132, 0.370415,1,-0.422861, 0.904627, 9.755676,1,0
1778257100752,  2036.872,  2036.867, 0.170789, 0.049270,-0.862336, 0.001743, 0.000606,-0.008787, 0.664269,-0.440240, 1.209762,1,-0.105876, 0.046393, 0.319827,1,-0.428096, 0.883226, 9.757409,1,0
1778257100779,  2036.897,  2036.897, 0.165203,-0.069060,-1.084518, 0.001610,-0.000440,-0.010640, 1.181241, 0.178990,-0.876156,1,-0.061622, 0.064177, 0.272118,1,-0.440099, 0.854701, 9.759415,1,0
1778257100801,  2036.922,  2036.917, 0.010189,-0.142561,-1.018087,-0.000248,-0.001723,-0.009926, 0.470526, 0.345574, 0.091434,1,-0.038689, 0.032709, 0.269671,1,-0.448059, 0.842225, 9.760138,1,0
1778257100823,  2036.942,  2036.937, 0.074697,-0.067127,-0.967804, 0.000198,-0.000977,-0.009696,-0.249419, 0.481791, 0.011989,1, 0.001013, 0.026110, 0.235393,1,-0.449622, 0.836096, 9.760592,1,0
1778257100850,  2036.967,  2036.967,-0.017271,-0.088129,-1.164734,-0.000225,-0.001220,-0.011021,-0.622646,-0.031604,-1.661426,1,-0.051140, 0.022074, 0.175634,1,-0.453495, 0.831311, 9.760822,1,0
1778257100871,  2036.992,  2036.987,-0.013690,-0.146860,-0.891710,-0.000014,-0.001102,-0.009234, 0.428604, 0.592664, 1.663315,1,-0.006443,-0.012606, 0.143879,1,-0.449349, 0.833653, 9.760814,1,0
1778257100894,  2037.012,  2037.012,-0.027935,-0.257814,-1.069368,-0.000340,-0.001714,-0.009636,-0.713425,-1.686076,-0.726393,1, 0.018775,-0.017581, 0.120336,1,-0.438603, 0.842965, 9.760503,1,0
1778257100920,  2037.037,  2037.037, 0.043022,-0.159448,-1.049925, 0.000496,-0.001297,-0.010488,-0.019611,-0.716968,-0.536202,1, 0.023700, 0.042974, 0.081974,1,-0.442632, 0.847537, 9.759926,1,0
1778257100941,  2037.062,  2037.057, 0.082410,-0.000117,-0.970700, 0.000766,-0.000124,-0.010014,-0.077723,-0.592260, 0.745692,1,-0.024753, 0.005790, 0.107929,1,-0.446195, 0.849818, 9.759564,1,0
1778257100964,  2037.082,  2037.082, 0.052967,-0.031634,-0.960495, 0.000680,-0.000237,-0.009910, 0.067392, 0.539588, 0.340058,1, 0.042006, 0.038343, 0.084466,1,-0.452998, 0.851234, 9.759128,1,0
1778257100990,  2037.107,  2037.107, 0.049655,-0.034580,-1.013388, 0.000622, 0.000189,-0.009130, 0.032387, 0.510222,-0.178719,1, 0.021973, 0.003069, 0.067874,1,-0.454478, 0.850115, 9.759156,1,0
1778257101011,  2037.132,  2037.127, 0.047406,-0.082974,-0.993239, 0.000101,-0.001464,-0.009740, 0.042768, 0.716545, 1.901848,1,-0.011113,-0.024200, 0.087257,1,-0.454059, 0.844444, 9.759668,1,0
1778257101034,  2037.152,  2037.152, 0.046971,-0.124503,-1.131396, 0.000329,-0.001470,-0.010445, 0.010421,-0.385319,-1.334599,1,-0.063673, 0.002381, 0.086304,1,-0.450053, 0.833786, 9.760771,1,0
1778257101060,  2037.177,  2037.177, 0.125916,-0.007935,-1.104710, 0.000856,-0.001166,-0.011337, 0.788021, 0.747928,-1.071900,1,-0.122328, 0.006241, 0.091573,1,-0.446748, 0.822073, 9.761915,1,0
1778257101081,  2037.202,  2037.197, 0.050254,-0.120244,-0.911894, 0.000904,-0.000226,-0.008442, 1.595801, 1.455173, 1.615215,1,-0.117067,-0.009380, 0.090296,1,-0.445563, 0.815242, 9.762543,1,0
1778257101104,  2037.222,  2037.222, 0.083212,-0.121409,-1.031559, 0.000733,-0.000637,-0.009780, 0.382475,-0.385838,-0.352190,1,-0.035701,-0.037027, 0.110070,1,-0.432124, 0.803824, 9.764093,1,0
1778257101130,  2037.247,  2037.247, 0.085371,-0.118927,-1.028267, 0.000645,-0.000928,-0.010097, 0.414509,-0.374407,-0.318374,1,-0.088461,-0.059975, 0.145830,1,-0.420465, 0.789313, 9.765786,1,0
1778257101151,  2037.272,  2037.267, 0.187520, 0.077885,-1.060327, 0.001868, 0.000805,-0.010462, 0.699758, 0.199039,-0.413212,1,-0.078519,-0.004521, 0.157161,1,-0.408983, 0.773083, 9.767571,1,0
1778257101174,  2037.292,  2037.292, 0.199286, 0.062241,-0.991911, 0.002091, 0.000764,-0.009971, 1.540490, 1.364546, 0.041524,1,-0.079531, 0.029415, 0.163797,1,-0.414364, 0.751917, 9.768997,1,0
1778257101200,  2037.317,  2037.317, 0.094785, 0.090827,-1.063049, 0.001513, 0.001024,-0.011311, 0.510505, 1.629971,-0.655189,1,-0.065484, 0.028465, 0.187250,1,-0.419466, 0.737480, 9.769880,1,0
1778257101221,  2037.342,  2037.337, 0.182468, 0.030003,-0.898241, 0.001591,-0.000446,-0.008911,-0.181702, 0.582466,-0.748604,1,-0.009628, 0.035294, 0.193045,1,-0.425790, 0.725223, 9.770524,1,0
1778257101244,  2037.367,  2037.362, 0.163419, 0.147581,-0.962200, 0.001639, 0.000917,-0.010165, 1.174074, 2.155726, 0.335675,1,-0.107127,-0.000993, 0.182650,1,-0.428076, 0.705367, 9.771877,1,0
1778257101270,  2037.387,  2037.387, 0.036609, 0.063575,-1.018714, 0.001054, 0.000937,-0.010423,-0.068244, 1.324134,-0.217924,1,-0.019626, 0.008649, 0.187363,1,-0.427106, 0.700325, 9.772283,1,0
1778257101292,  2037.412,  2037.407, 0.170939,-0.095890,-1.098106, 0.001211,-0.001379,-0.010389,-0.091388, 0.668494, 0.847349,1, 0.053907,-0.025496, 0.189504,1,-0.419689, 0.702460, 9.772450,1,0
1778257101314,  2037.437,  2037.432, 0.136421,-0.002338,-0.922434, 0.001253,-0.000380,-0.009698, 0.917477, 0.688059, 0.725813,1, 0.011864, 0.006945, 0.148678,1,-0.420239, 0.711551, 9.771770,1,0
1778257101340,  2037.457,  2037.457, 0.197588, 0.016709,-1.017396, 0.001395,-0.000343,-0.010144, 1.522162, 0.885172,-0.205989,1, 0.014355,-0.007783, 0.144395,1,-0.415030, 0.721723, 9.771246,1,0
1778257101362,  2037.482,  2037.477, 0.107698,-0.148248,-0.974676, 0.000841,-0.001152,-0.009522, 0.810627, 0.492104,-1.209285,1, 0.068497, 0.000311, 0.121352,1,-0.412560, 0.738655, 9.770085,1,0
1778257101384,  2037.507,  2037.502, 0.260435,-0.062382,-0.944767, 0.001859,-0.001325,-0.009838, 2.141860, 0.157589, 0.502735,1, 0.091268, 0.059635, 0.079690,1,-0.413797, 0.772288, 9.767432,1,0
1778257101410,  2037.527,  2037.527, 0.274494,-0.027465,-0.998677, 0.002311,-0.000933,-0.009559, 2.269523, 0.525138,-0.028395,1, 0.065287, 0.073742, 0.094026,1,-0.424400, 0.796639, 9.765021,1,0
1778257101432,  2037.552,  2037.547, 0.015192,-0.176736,-1.107663,-0.000058,-0.001818,-0.010399, 1.848019, 1.320297, 0.305915,1, 0.084240, 0.022398, 0.096561,1,-0.429631, 0.822779, 9.762625,1,0
1778257101455,  2037.577,  2037.572, 0.148445,-0.062183,-1.168853, 0.000790,-0.001280,-0.011457, 1.026300, 0.253287,-1.703380,1, 0.056583, 0.027094, 0.092428,1,-0.430040, 0.864974, 9.758959,1,0
1778257101480,  2037.597,  2037.597, 0.160945,-0.012914,-0.901033, 0.001411,-0.000759,-0.009464, 1.148328, 0.761460, 0.920770,1, 0.070125,-0.021634, 0.101510,1,-0.429042, 0.890425, 9.756713,1,0
1778257101502,  2037.622,  2037.617, 0.061933,-0.087823,-1.057868, 0.000680,-0.001279,-0.010440, 1.422559, 1.210331, 1.043547,1, 0.108456,-0.004160, 0.100383,1,-0.425611, 0.915878, 9.754507,1,0
1778257101525,  2037.647,  2037.642, 0.235056, 0.066422,-1.138647, 0.001920,-0.000290,-0.011522, 1.887253, 1.592238,-1.413846,1, 0.003647, 0.026694, 0.132767,1,-0.418294, 0.941148, 9.752418,1,0
1778257101550,  2037.667,  2037.667, 0.222557, 0.066965,-1.070484, 0.001844,-0.000165,-0.010337, 1.763688, 1.608444,-0.746496,1,-0.019155, 0.019451, 0.187033,1,-0.418885, 0.951322, 9.751406,1,0
1778257101572,  2037.692,  2037.687, 0.106862, 0.017076,-0.920370, 0.000800,-0.000160,-0.008772, 1.917443, 2.117296, 0.664144,1, 0.040497, 0.025476, 0.201174,1,-0.418532, 0.959926, 9.750577,1,0
1778257101599,  2037.717,  2037.717, 0.242178, 0.114032,-1.120282, 0.001395, 0.000402,-0.011639, 1.963823, 2.075027,-1.235008,1,-0.097943, 0.044119, 0.234394,1,-0.411782, 0.954020, 9.751444,1,0
1778257101620,  2037.737,  2037.737, 0.159080, 0.060410,-0.890208, 0.002133, 0.000957,-0.009136,-0.029771, 0.401149,-0.441524,1, 0.039581, 0.075654, 0.245252,1,-0.416092, 0.959946, 9.750680,1,0
1778257101642,  2037.762,  2037.757, 0.133478, 0.108906,-1.200615, 0.000927, 0.000719,-0.012140, 0.073467, 0.524320,-0.081502,1, 0.009562, 0.032788, 0.289930,1,-0.417640, 0.949295, 9.751657,1,0
1778257101669,  2037.787,  2037.787, 0.047792, 0.023185,-1.094294, 0.000776, 0.000909,-0.010320, 0.045170, 1.162027,-0.978545,1, 0.001241, 0.059474, 0.288776,1,-0.424494, 0.935091, 9.752732,1,0
1778257101691,  2037.812,  2037.807, 0.155968, 0.057739,-0.994708, 0.000751, 0.000342,-0.010112,-0.176100, 1.443227, 1.455119,1,-0.051919, 0.045518, 0.289127,1,-0.424698, 0.935542, 9.752681,1,0
1778257101712,  2037.832,  2037.827, 0.177654, 0.030154,-0.969677, 0.001728, 0.000744,-0.009905, 0.001066, 0.689738, 0.384335,1,-0.003616, 0.063753, 0.280053,1,-0.432014, 0.934596, 9.752450,1,0
1778257101739,  2037.857,  2037.857, 0.019367,-0.005033,-1.005549, 0.000998, 0.000506,-0.010509,-0.241922, 0.884231,-0.108513,1, 0.068399, 0.023360, 0.320033,1,-0.431726, 0.936040, 9.752324,1,0
1778257101761,  2037.882,  2037.877, 0.022689, 0.083776,-0.990992, 0.001181, 0.001459,-0.009975,-0.841444, 0.515090, 0.036256,1, 0.027771, 0.026293, 0.320757,1,-0.433183, 0.940221, 9.751858,1,0
1778257101782,  2037.902,  2037.897,-0.112363,-0.049609,-1.192404,-0.000415, 0.000177,-0.011316, 0.353117, 2.028164,-1.988881,1,-0.083431, 0.039417, 0.326609,1,-0.432042, 0.937658, 9.752154,1,0
1778257101809,  2037.927,  2037.927,-0.003618, 0.083439,-0.732308,-0.000508, 0.000168,-0.008037,-0.455101, 1.766181, 2.570213,1, 0.038913,-0.000765, 0.339920,1,-0.418567, 0.949585, 9.751588,1,0
1778257101831,  2037.952,  2037.947,-0.019340,-0.128805,-0.998089, 0.000051,-0.000870,-0.009008, 1.323605, 2.337573, 1.291155,1,-0.000662, 0.004431, 0.316870,1,-0.415871, 0.956399, 9.751038,1,0
1778257101852,  2037.972,  2037.967, 0.019689, 0.029996,-1.166879,-0.000448,-0.000460,-0.012069, 0.740014, 2.386794,-1.764546,1,-0.006645,-0.013476, 0.357757,1,-0.408085, 0.958803, 9.751130,1,0
1778257101879,  2037.997,  2037.997, 0.155730, 0.051574,-0.927611, 0.000839, 0.000140,-0.008689, 1.120109, 1.478159, 0.653072,1,-0.006339, 0.041653, 0.349797,1,-0.407290, 0.972645, 9.749793,1,0
1778257101901,  2038.022,  2038.017, 0.087593, 0.005209,-1.251659,-0.000401,-0.000305,-0.011165, 0.917141, 2.216377,-1.282864,1,-0.023020, 0.015407, 0.345858,1,-0.405650, 0.975188, 9.749607,1,0
1778257101922,  2038.042,  2038.037, 0.294374, 0.113932,-0.928805, 0.002115, 0.000589,-0.009939,-0.603305, 0.770752, 0.199835,1, 0.134285, 0.047372, 0.356263,1,-0.407686, 0.988668, 9.748164,1,0
1778257101949,  2038.067,  2038.067, 0.088338, 0.021045,-0.801848, 0.001824, 0.001159,-0.008289, 0.461853, 1.202294, 1.884122,1, 0.073042, 0.000574, 0.370909,1,-0.403320, 0.998655, 9.747328,1,0
1778257101971,  2038.092,  2038.087, 0.170319, 0.061568,-1.155108, 0.001505, 0.001035,-0.011628,-0.335755, 0.527184,-2.173470,1, 0.059753, 0.033953, 0.377664,1,-0.401355, 1.005547, 9.746700,1,0
1778257101992,  2038.112,  2038.107, 0.082235,-0.076774,-0.898084, 0.001404,-0.000044,-0.009011,-0.295756, 1.086193, 0.441203,1, 0.000306, 0.030367, 0.395232,1,-0.401424, 1.010602, 9.746175,1,0
1778257102019,  2038.137,  2038.137,-0.036775,-0.017523,-1.072941,-0.000112,-0.000203,-0.010777,-0.750158, 0.844710,-0.775913,1, 0.047758, 0.020918, 0.364976,1,-0.388987, 1.018482, 9.745859,1,0
1778257102041,  2038.162,  2038.157,-0.018316,-0.074967,-0.968332, 0.001048,-0.000363,-0.009817, 1.409980, 1.852141, 0.325546,1,-0.028591, 0.063384, 0.384915,1,-0.392862, 1.018883, 9.745662,1,0
1778257102063,  2038.182,  2038.177, 0.084097, 0.032987,-1.093793, 0.000377,-0.000337,-0.010118, 2.555768, 1.679154,-1.225427,1,-0.085890, 0.073944, 0.400756,1,-0.395007, 1.012872, 9.746202,1,0
1778257102090,  2038.207,  2038.207, 0.299097, 0.162362,-0.959921, 0.001918, 0.001007,-0.009291, 2.529077, 2.601856, 0.332553,1,-0.119244, 0.102594, 0.393602,1,-0.405978, 1.006430, 9.746418,1,0
1778257102111,  2038.232,  2038.227, 0.239753, 0.109380,-1.077086, 0.001244, 0.000066,-0.011457, 0.648245, 1.156967,-1.016666,1,-0.040949, 0.084477, 0.417390,1,-0.413613, 0.996270, 9.747141,1,0
1778257102134,  2038.252,  2038.252, 0.176565, 0.069035,-0.952095, 0.001851, 0.001593,-0.008866, 1.303790, 1.655296, 0.411490,1,-0.062714, 0.066546, 0.410307,1,-0.428674, 0.976832, 9.748457,1,0
1778257102160,  2038.277,  2038.277, 0.053981,-0.057119,-0.881385, 0.001405,-0.000310,-0.010300, 0.094885, 0.403911, 1.106041,1,-0.031026, 0.051647, 0.413494,1,-0.434819, 0.963665, 9.749496,1,0
1778257102181,  2038.302,  2038.297, 0.052308,-0.145848,-1.087849, 0.001239,-0.000398,-0.010841, 0.300230, 1.769983, 0.623272,1,-0.168978, 0.062818, 0.397342,1,-0.441996, 0.940485, 9.751436,1,0
1778257102204,  2038.322,  2038.322, 0.010565,-0.026096,-0.865060,-0.000164,-0.001317,-0.008774,-0.341676, 0.656517, 1.270611,1,-0.174617, 0.015789, 0.377283,1,-0.444676, 0.907545, 9.754436,1,0
1778257102230,  2038.347,  2038.347, 0.257732, 0.086352,-1.197228, 0.001341, 0.000407,-0.011889, 2.075934, 1.734311,-1.984837,1,-0.197156, 0.117483, 0.345385,1,-0.454221, 0.881860, 9.756351,1,0
1778257102251,  2038.372,  2038.367, 0.220505, 0.110543,-0.983113, 0.001227, 0.000609,-0.008952, 0.233733,-0.433877, 2.094452,1,-0.056671, 0.042732, 0.323483,1,-0.462453, 0.870058, 9.757024,1,0
1778257102274,  2038.392,  2038.392, 0.044630,-0.019717,-1.046723, 0.001245, 0.000787,-0.011205,-0.027048, 0.638438,-0.504593,1,-0.102076, 0.026938, 0.299494,1,-0.464763, 0.829072, 9.760483,1,0
1778257102300,  2038.417,  2038.417,-0.001644,-0.158079,-0.918007,-0.000031,-0.001130,-0.008597,-0.479409,-0.735403, 0.759178,1,-0.096786,-0.008327, 0.264666,1,-0.462342, 0.812207, 9.762015,1,0
1778257102321,  2038.442,  2038.437, 0.028064,-0.178821,-1.122567, 0.000556,-0.001370,-0.011671, 0.177408, 1.873299,-1.053949,1,-0.198893, 0.039895, 0.251094,1,-0.459588, 0.785592, 9.764323,1,0
1778257102344,  2038.462,  2038.462, 0.027667,-0.005747,-1.025315,-0.000111,-0.000879,-0.009927,-0.186816, 0.710718,-0.289044,1,-0.131682,-0.017330, 0.245410,1,-0.457028, 0.763339, 9.766209,1,0
1778257102370,  2038.487,  2038.487, 0.152030, 0.102072,-1.061956, 0.001249, 0.000950,-0.010768, 1.035030, 1.751469,-0.646972,1,-0.114137, 0.050840, 0.242556,1,-0.456880, 0.747284, 9.767457,1,0
1778257102391,  2038.512,  2038.507, 0.126850, 0.089690,-1.063092, 0.000968, 0.000647,-0.009738,-0.160223,-0.340615, 2.301373,1, 0.018277,-0.018394, 0.183281,1,-0.455971, 0.745686, 9.767621,1,0
1778257102414,  2038.532,  2038.532, 0.054268,-0.009371,-1.047900, 0.001433, 0.000649,-0.011533, 0.082656, 0.634763,-0.507033,1, 0.029783, 0.039075, 0.202626,1,-0.450282, 0.727877, 9.769229,1,0
1778257102440,  2038.557,  2038.557, 0.053321,-0.070313,-0.751031, 0.000442,-0.001051,-0.007280, 0.068427, 0.036240, 2.404092,1,-0.014755,-0.006352, 0.200686,1,-0.453812, 0.725612, 9.769234,1,0
1778257102462,  2038.582,  2038.577, 0.044068,-0.081170,-1.036477, 0.000384,-0.000453,-0.010367, 0.288973, 2.239882,-1.018939,1,-0.118330, 0.007240, 0.220296,1,-0.451233, 0.709029, 9.770571,1,0
1778257102484,  2038.607,  2038.602, 0.138268, 0.096659,-0.847185, 0.000852, 0.000300,-0.008542, 0.906908, 1.647885, 1.463274,1,-0.082712, 0.029778, 0.202064,1,-0.449511, 0.697703, 9.771465,1,0
1778257102510,  2038.627,  2038.627, 0.097121, 0.025970,-0.949018, 0.001159, 0.001132,-0.009371, 0.506470, 0.941315, 0.465725,1,-0.050523,-0.008394, 0.214477,1,-0.445236, 0.685372, 9.772533,1,0
1778257102532,  2038.652,  2038.647, 0.187490, 0.022313,-1.083750, 0.001826, 0.000577,-0.010546, 0.039893,-0.112580, 0.238227,1,-0.022861, 0.007426, 0.230478,1,-0.446509, 0.673608, 9.773293,1,0
1778257102554,  2038.677,  2038.672, 0.045538,-0.138212,-1.003837, 0.001010,-0.000578,-0.010207,-0.011472,-0.705378,-0.069924,1,-0.024012, 0.037962, 0.222988,1,-0.458769, 0.649596, 9.774351,1,0
1778257102580,  2038.697,  2038.697, 0.194352, 0.024619,-1.034649, 0.000785,-0.000757,-0.010177, 1.443836, 0.872313,-0.371018,1,-0.177762, 0.046252, 0.217186,1,-0.463104, 0.625667, 9.775707,1,0
1778257102602,  2038.722,  2038.717, 0.093675, 0.018447,-0.830945, 0.000364,-0.000621,-0.008366, 0.583783, 0.792087, 1.501043,1,-0.111707,-0.023540, 0.210582,1,-0.460501, 0.607300, 9.776989,1,0
1778257102624,  2038.747,  2038.742, 0.075338,-0.009039,-1.001179, 0.000851, 0.000165,-0.009329, 0.281804, 0.491345,-0.039401,1,-0.100655,-0.005646, 0.170459,1,-0.456519, 0.577107, 9.779004,1,0
1778257102650,  2038.767,  2038.767,-0.000111,-0.189455,-1.122688, 0.000389,-0.001138,-0.011795,-0.452395,-1.300211,-1.229441,1,-0.082243,-0.029520, 0.154909,1,-0.450111, 0.555375, 9.780560,1,0
1778257102672,  2038.792,  2038.787,-0.057873,-0.085707,-0.816681, 0.000177,-0.000579,-0.008693, 0.770198, 0.179411, 1.629268,1,-0.116686, 0.002628, 0.119310,1,-0.448885, 0.532395, 9.781894,1,0
1778257102695,  2038.817,  2038.812, 0.100867,-0.055303,-1.161690, 0.000114,-0.000869,-0.011052, 0.552782,-0.043803,-1.608044,1,-0.161217, 0.005088, 0.106454,1,-0.436376, 0.493665, 9.784491,1,0
1778257102720,  2038.837,  2038.837, 0.098423,-0.044259,-1.198744, 0.001739,-0.000500,-0.011829, 0.522112, 0.036328,-1.970330,1,-0.188798, 0.035235, 0.090719,1,-0.444051, 0.464612, 9.785568,1,0
1778257102742,  2038.862,  2038.857, 0.105929,-0.038156,-0.828050, 0.001914,-0.000639,-0.008578, 0.056442,-0.400420, 2.002620,1,-0.079095, 0.023477, 0.073474,1,-0.449922, 0.444581, 9.786230,1,0
1778257102765,  2038.887,  2038.882, 0.016159,-0.102114,-1.145813, 0.000075,-0.000763,-0.011298,-0.289248,-0.593260,-1.448668,1,-0.110806, 0.000072, 0.043322,1,-0.447661, 0.404742, 9.788062,1,0
1778257102790,  2038.907,  2038.907, 0.118794,-0.036843,-1.160957, 0.000371,-0.000672,-0.011828, 0.718099, 0.019482,-1.596039,1,-0.151873, 0.029606, 0.038796,1,-0.447746, 0.376108, 9.789201,1,0
1778257102812,  2038.932,  2038.927, 0.158295,-0.093567,-0.762614, 0.001222,-0.000798,-0.006732, 0.715749, 0.012713, 1.186722,1,-0.140831, 0.039872,-0.002396,1,-0.455121, 0.357754, 9.789549,1,0
1778257102839,  2038.957,  2038.957, 0.052818,-0.033738,-1.099874, 0.001110,-0.000626,-0.011436, 0.062605, 0.002247,-0.995678,1,-0.129367,-0.000700,-0.024125,1,-0.455366, 0.329040, 9.790545,1,0
1778257102860,  2038.977,  2038.977, 0.024524,-0.112767,-0.967072, 0.000426,-0.000818,-0.010239,-0.223447,-0.787241, 0.306751,1, 0.015713, 0.043245,-0.055057,1,-0.465353, 0.319033, 9.790406,1,0
1778257102882,  2039.002,  2038.997, 0.124308,-0.151308,-0.935899, 0.000313,-0.000706,-0.008567, 1.703317,-0.324884, 0.548607,1,-0.081229, 0.003226,-0.080699,1,-0.472347, 0.307861, 9.790429,1,0
1778257102909,  2039.027,  2039.027, 0.138497,-0.109218,-1.140029, 0.001415,-0.001155,-0.011221, 0.878586,-0.771819,-1.389524,1,-0.059793, 0.038469,-0.085776,1,-0.480888, 0.297246, 9.790341,1,0
1778257102931,  2039.052,  2039.047, 0.008122,-0.132141,-1.067884, 0.000716,-0.001040,-0.009402,-0.233734,-0.630253,-1.079877,1,-0.042564, 0.039909,-0.100260,1,-0.490089, 0.295930, 9.789925,1,0
1778257102952,  2039.072,  2039.067,-0.037883,-0.018150,-1.074774, 0.000142,-0.000995,-0.012093, 0.311734,-0.542046,-0.492780,1, 0.034309, 0.004098,-0.094647,1,-0.488813, 0.295809, 9.789992,1,0
1778257102979,  2039.097,  2039.097, 0.061338,-0.168699,-0.827259, 0.000427,-0.000890,-0.007139, 0.110278,-1.354600, 1.677106,1, 0.075707,-0.004761,-0.127407,1,-0.491215, 0.301929, 9.789685,1,0
1778257103001,  2039.122,  2039.117, 0.239834,-0.218052,-0.841437, 0.001966,-0.001545,-0.008369, 1.075774,-0.081677,-0.121286,1,-0.054375, 0.038937,-0.143976,1,-0.497649, 0.299513, 9.789434,1,0
1778257103022,  2039.142,  2039.137, 0.020882,-0.074281,-1.270586, 0.000950,-0.001375,-0.012733,-0.052648, 0.147025, 0.688016,1,-0.001694,-0.017678,-0.131748,1,-0.497599, 0.305949, 9.789238,1,0
1778257103049,  2039.167,  2039.167, 0.197301,-0.092851,-1.062231, 0.001168,-0.000610,-0.010532, 1.427487,-0.600455,-0.628326,1, 0.034204, 0.040184,-0.145450,1,-0.508775, 0.310937, 9.788507,1,0
1778257103071,  2039.192,  2039.187, 0.099896,-0.049214,-0.829833, 0.000777,-0.000479,-0.009261, 0.505068,-0.155241, 0.879214,1, 0.009297,-0.014098,-0.147986,1,-0.509505, 0.316764, 9.788281,1,0
1778257103092,  2039.212,  2039.207, 0.138407,-0.118543,-1.165436, 0.001130,-0.000905,-0.010307,-0.115714, 0.682900, 0.118028,1,-0.047680,-0.030637,-0.145858,1,-0.509042, 0.317564, 9.788280,1,0
1778257103119,  2039.237,  2039.237, 0.087730,-0.022374,-0.876900, 0.000978,-0.000759,-0.010325, 0.352315, 0.106179, 1.188614,1, 0.038619,-0.017644,-0.117966,1,-0.507592, 0.326603, 9.788057,1,0
1778257103141,  2039.262,  2039.257, 0.144278,-0.102691,-1.123081, 0.000913,-0.000301,-0.010226, 1.258653,-0.759644,-1.420331,1, 0.016733,-0.001853,-0.099258,1,-0.507135, 0.333118, 9.787862,1,0
1778257103162,  2039.282,  2039.277, 0.114563,-0.065227,-0.918381, 0.001486,-0.000759,-0.009387,-0.275627,-0.022696,-0.891849,1, 0.012134,-0.038315,-0.077013,1,-0.500710, 0.334625, 9.788141,1,0
1778257103189,  2039.307,  2039.307, 0.123398,-0.062034,-1.056339, 0.000973,-0.000060,-0.010101, 0.706231,-0.263549,-0.571523,1, 0.063577, 0.021426,-0.095887,1,-0.504666, 0.346622, 9.787520,1,0
1778257103211,  2039.332,  2039.327, 0.179161,-0.011930,-0.650248, 0.001558,-0.000506,-0.008012, 1.475238,-0.123102, 0.263859,1, 0.020653, 0.047500,-0.082944,1,-0.513031, 0.347803, 9.787044,1,0
1778257103232,  2039.352,  2039.347, 0.107464,-0.108184,-1.151080, 0.001251,-0.000599,-0.009773, 0.557110,-0.166651, 0.136872,1, 0.004249, 0.010545,-0.080885,1,-0.516952, 0.351206, 9.786716,1,0
1778257103259,  2039.377,  2039.377, 0.027545,-0.023258,-0.932484, 0.000326,-0.000521,-0.011298,-0.248081, 0.125159, 0.642028,1, 0.034091,-0.018408,-0.051296,1,-0.517690, 0.354223, 9.786568,1,0
1778257103281,  2039.402,  2039.397, 0.171791,-0.068071,-0.993335, 0.000995,-0.000154,-0.009461, 0.689179,-0.883366,-0.499118,1, 0.028512, 0.018780,-0.047613,1,-0.517672, 0.359843, 9.786364,1,0
1778257103303,  2039.422,  2039.417, 0.068574,-0.033340,-0.980381, 0.001378,-0.000501,-0.009717, 0.141583, 0.353021, 0.831807,1, 0.034651, 0.003172,-0.047390,1,-0.519933, 0.363954, 9.786092,1,0
1778257103330,  2039.447,  2039.447, 0.162228,-0.046628,-1.022578, 0.000756, 0.000060,-0.010435, 1.073296,-0.087911,-0.242058,1, 0.007020,-0.033774,-0.027933,1,-0.516597, 0.369529, 9.786059,1,0
1778257103351,  2039.472,  2039.467, 0.261762,-0.006622,-0.843838, 0.002349,-0.000120,-0.009055, 1.279945, 0.076119,-1.399976,1, 0.004599, 0.101437,-0.028658,1,-0.528286, 0.376680, 9.785163,1,0
1778257103374,  2039.492,  2039.492, 0.121090, 0.016628,-1.080602, 0.001565,-0.000248,-0.010705, 0.649238, 0.542496,-0.812574,1,-0.057404, 0.013100, 0.004650,1,-0.538654, 0.377647, 9.784560,1,0
1778257103400,  2039.517,  2039.517, 0.131158, 0.047249,-0.917359, 0.000969, 0.000791,-0.009785, 0.740490, 0.840353, 0.787969,1, 0.056410, 0.039437,-0.006383,1,-0.546966, 0.378746, 9.784057,1,0
1778257103421,  2039.542,  2039.537, 0.121966,-0.007185,-1.061014, 0.000945, 0.000307,-0.009593,-0.069180, 0.397831, 1.256037,1,-0.045304,-0.051753, 0.019694,1,-0.545817, 0.378267, 9.784140,1,0
1778257103444,  2039.562,  2039.562, 0.046470,-0.030078,-1.015335, 0.000419,-0.000130,-0.010196,-0.093314, 0.080999,-0.172984,1, 0.014270, 0.002494, 0.060575,1,-0.549033, 0.376515, 9.784027,1,0
1778257103470,  2039.587,  2039.587, 0.044803, 0.033343,-0.803936, 0.000790, 0.000282,-0.008459,-0.107847, 0.702437, 1.900251,1, 0.016043,-0.001792, 0.093379,1,-0.547052, 0.376120, 9.784153,1,0
1778257103491,  2039.612,  2039.607, 0.039541, 0.018528,-1.375716,-0.000045, 0.000487,-0.012261, 0.017794, 0.138103,-0.355768,1,-0.028486,-0.083926, 0.083424,1,-0.536085, 0.372882, 9.784884,1,0
1778257103514,  2039.632,  2039.632, 0.101439, 0.089812,-0.784102, 0.000672, 0.000350,-0.009041, 0.470616, 1.252083, 2.096176,1, 0.020465, 0.000375, 0.099973,1,-0.524050, 0.372131, 9.785564,1,0
1778257103540,  2039.657,  2039.657, 0.063765, 0.029057,-1.236696, 0.000846, 0.000359,-0.011446, 0.102141, 0.656418,-2.342210,1,-0.036776,-0.012875, 0.108163,1,-0.523005, 0.370291, 9.785690,1,0
1778257103561,  2039.682,  2039.677, 0.078635, 0.005374,-1.148547, 0.000529, 0.000261,-0.011941,-0.006120,-0.232694,-0.686707,1, 0.039725, 0.009847, 0.118555,1,-0.519430, 0.371831, 9.785822,1,0
1778257103584,  2039.702,  2039.702, 0.109645, 0.044779,-0.679875, 0.001118, 0.000131,-0.006915, 0.550681, 0.814925, 3.118104,1, 0.004007, 0.000120, 0.119328,1,-0.524429, 0.376116, 9.785392,1,0
1778257103610,  2039.727,  2039.727, 0.066834, 0.027669,-1.095027, 0.000525, 0.000498,-0.010414, 0.132887, 0.650004,-0.953153,1,-0.000265,-0.018448, 0.121355,1,-0.521809, 0.378859, 9.785426,1,0
1778257103631,  2039.752,  2039.747,-0.027183, 0.041954,-0.753985,-0.000119,-0.000038,-0.009441, 0.330573, 0.894367, 0.675994,1, 0.024427, 0.003592, 0.139287,1,-0.520899, 0.383989, 9.785275,1,0
1778257103654,  2039.772,  2039.772, 0.097763, 0.057656,-1.092086, 0.000952, 0.000607,-0.010229, 0.447756, 0.957193,-0.924213,1, 0.032687,-0.020318, 0.138852,1,-0.510165, 0.393024, 9.785481,1,0
1778257103680,  2039.797,  2039.797, 0.054402, 0.025365,-0.954390, 0.000392, 0.000557,-0.009796, 0.031548, 0.646166, 0.426358,1, 0.069065,-0.016971, 0.140866,1,-0.501243, 0.399799, 9.785668,1,0
1778257103702,  2039.822,  2039.817, 0.229744, 0.037010,-0.734288, 0.001876, 0.000231,-0.007738, 1.634409, 1.247282, 1.119989,1, 0.049371, 0.015927, 0.145675,1,-0.506501, 0.409490, 9.784997,1,0
1778257103724,  2039.847,  2039.842, 0.189271, 0.028714,-1.208133, 0.002099, 0.000561,-0.011169, 1.352232, 0.695981,-2.062807,1,-0.008071, 0.013148, 0.160997,1,-0.504075, 0.414402, 9.784915,1,0
1778257103750,  2039.867,  2039.867, 0.172022, 0.063565,-0.973392, 0.001704, 0.000440,-0.010699, 1.181834, 1.037973, 0.239140,1, 0.016135, 0.007102, 0.178398,1,-0.505146, 0.415396, 9.784818,1,0
1778257103772,  2039.892,  2039.887, 0.268756,-0.003813,-0.959551, 0.002675, 0.000195,-0.008270, 1.147520, 0.959551,-1.420912,1,-0.049488, 0.046864, 0.195954,1,-0.511774, 0.411201, 9.784651,1,0
