Time,GPS_ts,fGPS_ts,scaledAccelX,scaledAccelY,scaledAccelZ,deltaVelX,deltaVelY,deltaVelZ,estLinearAccelX,estLinearAccelY,estLinearAccelZ,estLinearAccel:valid,estAngularRateX,estAngularRateY,estAngularRateZ,estAngularRate:valid,estGravityX,estGravityY,estGravityZ,estGravity:valid,flag
1778256388172,  1302.090,  1302.090, 0.044043, 0.010220,-0.995056, 0.000437, 0.000098,-0.009949, 0.031369,-0.007514, 0.039707,1,-0.017455, 0.000344,-0.001054,1,-0.400553,-0.108283, 9.797868,1,0
1778256388172,  1302.115,  1302.110, 0.044635, 0.011101,-0.994837, 0.000449, 0.000110,-0.009951, 0.043188, 0.001394, 0.031846,1,-0.017858, 0.001557,-0.001155,1,-0.400799,-0.111810, 9.797818,1,0
1778256388172,  1302.135,  1302.135, 0.043191, 0.010800,-0.993595, 0.000434, 0.000103,-0.009937, 0.022455,-0.010791, 0.053906,1,-0.019062, 0.001615,-0.000281,1,-0.401155,-0.117295, 9.797740,1,0
1778256388172,  1302.160,  1302.160, 0.041838, 0.014937,-0.996390, 0.000419, 0.000149,-0.009965, 0.008951, 0.025994, 0.026442,1,-0.019501, 0.001217,-0.000283,1,-0.401373,-0.121096, 9.797685,1,0
1778256388172,  1302.185,  1302.180, 0.039210, 0.011081,-0.995875, 0.000393, 0.000113,-0.009957,-0.007331, 0.001133, 0.029553,1,-0.019092, 0.001318,-0.001840,1,-0.401533,-0.124830, 9.797631,1,0
1778256388172,  1302.210,  1302.210, 0.038736, 0.014868,-0.994590, 0.000387, 0.000146,-0.009947,-0.021907, 0.016087, 0.043960,1,-0.017875, 0.000442,-0.001659,1,-0.401787,-0.130273, 9.797549,1,0
1778256388172,  1302.235,  1302.230, 0.038458, 0.013407,-0.995203, 0.000384, 0.000134,-0.009953,-0.024578, 0.015095, 0.029893,1,-0.016400, 0.000552,-0.001280,1,-0.401883,-0.133556, 9.797502,1,0
1778256388172,  1302.260,  1302.255, 0.038548, 0.015011,-0.995205, 0.000387, 0.000142,-0.009953,-0.024441, 0.009542, 0.037789,1,-0.014745, 0.001204, 0.000448,1,-0.402610,-0.138133, 9.797408,1,0
1778256388172,  1302.285,  1302.280, 0.038384, 0.018292,-0.996285, 0.000385, 0.000187,-0.009965,-0.025433, 0.054896, 0.028717,1,-0.012785, 0.000582,-0.000951,1,-0.402707,-0.140702, 9.797368,1,0
1778256388172,  1302.305,  1302.300, 0.040624, 0.015475,-0.995350, 0.000405, 0.000151,-0.009954,-0.017478, 0.015578, 0.030227,1,-0.011446, 0.000946,-0.001656,1,-0.402891,-0.143038, 9.797326,1,0
1778256388172,  1302.325,  1302.320, 0.042269, 0.018098,-0.994986, 0.000421, 0.000180,-0.009950, 0.001157, 0.012894, 0.043015,1,-0.008618, 0.000873,-0.001392,1,-0.403037,-0.144872, 9.797294,1,0
1778256388183,  1324.310,  1324.310, 0.042500, 0.018823,-0.995268, 0.000427, 0.000189,-0.009953,-0.002131,-0.001496, 0.039196,1,-0.003824, 0.000501,-0.000066,1,-0.371794, 0.304276, 9.794874,1,0
1778256388205,  1324.335,  1324.330, 0.037706,-0.030856,-0.995250, 0.000378,-0.000308,-0.009953, 0.001278, 0.000794, 0.040050,1,-0.003012, 0.000572, 0.000058,1,-0.371748, 0.303622, 9.794897,1,0
1778256388227,  1324.355,  1324.355, 0.038366,-0.030615,-0.994940, 0.000383,-0.000308,-0.009948, 0.004303, 0.002540, 0.037884,1,-0.003360, 0.000345, 0.000029,1,-0.371946, 0.302663, 9.794919,1,0
1778256388253,  1324.380,  1324.380, 0.037951,-0.030342,-0.994573, 0.000378,-0.000306,-0.009946, 0.000239, 0.004650, 0.041505,1,-0.002262, 0.000567, 0.000667,1,-0.371953, 0.302134, 9.794935,1,0
1778256388275,  1324.405,  1324.400, 0.037911,-0.030828,-0.994775, 0.000379,-0.000307,-0.009947, 0.000553, 0.002535, 0.036204,1,-0.002879, 0.000167, 0.000495,1,-0.371953, 0.301877, 9.794943,1,0
1778256388298,  1324.425,  1324.425, 0.037433,-0.030696,-0.995249, 0.000374,-0.000306,-0.009952,-0.004856, 0.000020, 0.034905,1,-0.001963,-0.000310, 0.000286,1,-0.371935, 0.300980, 9.794971,1,0
1778256388323,  1324.450,  1324.450, 0.037750,-0.030424,-0.994793, 0.000376,-0.000305,-0.009949,-0.001792, 0.002326, 0.039391,1,-0.001318,-0.000149,-0.000156,1,-0.371987, 0.300639, 9.794980,1,0
1778256388345,  1324.475,  1324.470, 0.037601,-0.030438,-0.994980, 0.000377,-0.000304,-0.009950,-0.005743, 0.003901, 0.041089,1,-0.002176,-0.000054,-0.000217,1,-0.372004, 0.300202, 9.794992,1,0
1778256388368,  1324.500,  1324.495, 0.037906,-0.029945,-0.994691, 0.000379,-0.000302,-0.009947,-0.000407, 0.006055, 0.040411,1,-0.001366, 0.000306, 0.000294,1,-0.372148, 0.299672, 9.795003,1,0
1778256388393,  1324.520,  1324.520, 0.037640,-0.030978,-0.994855, 0.000376,-0.000310,-0.009949,-0.002971,-0.004346, 0.038819,1,-0.000930,-0.000124,-0.000042,1,-0.372093, 0.299415, 9.795013,1,0
1778256388415,  1324.545,  1324.540, 0.037980,-0.030647,-0.995407, 0.000382,-0.000307,-0.009953, 0.006587, 0.001913, 0.040660,1,-0.000341, 0.000079, 0.000355,1,-0.372121, 0.299235, 9.795017,1,0
1778256388438,  1324.570,  1324.565, 0.037850,-0.030830,-0.995057, 0.000380,-0.000309,-0.009952,-0.000794,-0.003376, 0.036859,1,-0.002026, 0.000015,-0.000244,1,-0.371975, 0.298903, 9.795033,1,0
1778256388463,  1324.590,  1324.590, 0.037920,-0.030538,-0.994669, 0.000381,-0.000304,-0.009945,-0.000108,-0.000785, 0.040673,1,-0.001307, 0.000203,-0.000197,1,-0.371984, 0.298645, 9.795041,1,0
1778256388485,  1324.615,  1324.610, 0.037840,-0.030599,-0.995736, 0.000381,-0.000306,-0.009954,-0.005131,-0.000429, 0.038000,1,-0.000437, 0.000125,-0.000035,1,-0.371989, 0.298572, 9.795043,1,0
1778256388508,  1324.640,  1324.635, 0.037131,-0.030858,-0.994303, 0.000373,-0.000307,-0.009945,-0.007938,-0.004274, 0.044266,1,-0.000393,-0.000216, 0.000317,1,-0.372063, 0.298330, 9.795048,1,0
1778256388534,  1324.660,  1324.660, 0.037624,-0.030122,-0.994678, 0.000378,-0.000302,-0.009947,-0.003093, 0.002767, 0.040593,1,-0.001544,-0.000001,-0.000191,1,-0.372055, 0.298118, 9.795054,1,0
1778256388555,  1324.685,  1324.680, 0.037871,-0.030054,-0.995071, 0.000379,-0.000301,-0.009952,-0.001890, 0.002622, 0.037704,1,-0.001025,-0.000294,-0.000279,1,-0.372106, 0.297943, 9.795057,1,0
1778256388578,  1324.710,  1324.705, 0.038091,-0.030621,-0.995208, 0.000382,-0.000306,-0.009949, 0.001411,-0.002685, 0.035411,1,-0.001359,-0.000706, 0.000293,1,-0.372114, 0.297566, 9.795069,1,0
1778256388604,  1324.730,  1324.730, 0.037531,-0.030706,-0.994576, 0.000377,-0.000308,-0.009947,-0.004074,-0.003722, 0.041614,1,-0.000282, 0.000151,-0.000216,1,-0.372133, 0.297389, 9.795074,1,0
1778256388625,  1324.755,  1324.750, 0.037857,-0.030144,-0.994685, 0.000378,-0.000301,-0.009949, 0.001550, 0.000135, 0.035517,1,-0.000916, 0.000269,-0.000378,1,-0.372084, 0.297199, 9.795081,1,0
1778256388648,  1324.780,  1324.775, 0.037980,-0.029754,-0.995363, 0.000378,-0.000301,-0.009954, 0.000262, 0.005056, 0.033914,1,-0.000804, 0.000179, 0.000092,1,-0.372196, 0.296819, 9.795088,1,0
1778256388674,  1324.800,  1324.800, 0.037899,-0.030307,-0.994536, 0.000379,-0.000302,-0.009948,-0.000507,-0.000582, 0.042026,1,-0.001002,-0.000260,-0.000449,1,-0.372161, 0.296592, 9.795096,1,0
1778256388695,  1324.825,  1324.820, 0.037876,-0.030037,-0.994755, 0.000379,-0.000300,-0.009948,-0.002561, 0.004189, 0.034714,1,-0.001533,-0.000307, 0.000187,1,-0.372156, 0.296236, 9.795107,1,0
1778256388722,  1324.850,  1324.850, 0.038161,-0.030209,-0.995225, 0.000381,-0.000303,-0.009952, 0.002095,-0.000287, 0.035296,1,-0.001588,-0.000450, 0.000008,1,-0.372121, 0.295912, 9.795118,1,0
1778256388744,  1324.870,  1324.870, 0.037698,-0.030046,-0.994877, 0.000376,-0.000300,-0.009951,-0.002450, 0.001025, 0.038717,1,-0.001541,-0.000169, 0.000125,1,-0.372134, 0.295630, 9.795127,1,0
1778256388765,  1324.895,  1324.890, 0.037350,-0.029890,-0.995090, 0.000377,-0.000300,-0.009952,-0.000813,-0.000933, 0.036729,1,-0.001249, 0.000926, 0.000250,1,-0.372194, 0.295396, 9.795132,1,0
1778256388792,  1324.920,  1324.920, 0.037457,-0.030214,-0.994918, 0.000377,-0.000304,-0.009949,-0.004832,-0.001151, 0.038324,1,-0.001749,-0.000208, 0.000063,1,-0.372150, 0.295095, 9.795142,1,0
1778256388814,  1324.945,  1324.940, 0.037860,-0.029950,-0.994773, 0.000378,-0.000299,-0.009944,-0.003949, 0.006589, 0.040877,1,-0.001401,-0.000417,-0.000500,1,-0.372177, 0.294896, 9.795147,1,0
1778256388835,  1324.960,  1324.960, 0.037456,-0.029676,-0.994849, 0.000378,-0.000300,-0.009946,-0.004803, 0.003741, 0.039017,1,-0.000565,-0.000282,-0.000200,1,-0.372114, 0.294748, 9.795154,1,0
1778256388862,  1324.990,  1324.990, 0.037382,-0.030100,-0.994813, 0.000375,-0.000299,-0.009951,-0.005451,-0.000631, 0.039376,1, 0.000347,-0.000031,-0.000408,1,-0.372044, 0.294563, 9.795162,1,0
1778256388884,  1325.015,  1325.010, 0.038088,-0.029427,-0.995245, 0.000382,-0.000296,-0.009951, 0.000565, 0.005370, 0.040484,1, 0.000508,-0.000207,-0.000177,1,-0.371993, 0.294553, 9.795164,1,0
1778256388906,  1325.035,  1325.030, 0.037967,-0.030042,-0.995036, 0.000381,-0.000300,-0.009949, 0.000725, 0.004060, 0.037073,1, 0.001234, 0.000160,-0.000383,1,-0.372009, 0.294629, 9.795161,1,0
1778256388933,  1325.060,  1325.060, 0.038336,-0.029934,-0.994880, 0.000382,-0.000298,-0.009950, 0.003984, 0.001448, 0.038712,1, 0.001843,-0.000301, 0.000080,1,-0.371959, 0.295050, 9.795151,1,0
1778256388954,  1325.085,  1325.080, 0.037631,-0.029767,-0.995387, 0.000375,-0.000296,-0.009955,-0.002557, 0.008911, 0.040734,1, 0.001891, 0.000055,-0.000703,1,-0.371943, 0.295339, 9.795142,1,0
1778256388976,  1325.105,  1325.100, 0.037697,-0.029912,-0.995084, 0.000376,-0.000299,-0.009950,-0.004919, 0.000751, 0.031344,1, 0.002171,-0.000306,-0.000067,1,-0.371946, 0.295811, 9.795128,1,0
1778256389003,  1325.130,  1325.130, 0.037622,-0.029481,-0.995122, 0.000377,-0.000296,-0.009950,-0.002912, 0.007369, 0.036295,1, 0.002383,-0.000739,-0.000130,1,-0.371838, 0.296549, 9.795110,1,0
1778256389024,  1325.155,  1325.150, 0.037916,-0.029903,-0.994832, 0.000378,-0.000299,-0.009951,-0.003250, 0.002034, 0.031689,1, 0.003108,-0.000801, 0.000182,1,-0.371799, 0.297136, 9.795094,1,0
1778256389046,  1325.175,  1325.170, 0.037586,-0.029930,-0.995232, 0.000374,-0.000300,-0.009951,-0.001213,-0.001719, 0.030786,1, 0.002297,-0.000007, 0.000514,1,-0.371765, 0.297773, 9.795075,1,0
1778256389073,  1325.200,  1325.200, 0.037296,-0.030079,-0.994303, 0.000375,-0.000298,-0.009942,-0.006016, 0.003728, 0.044262,1, 0.004002,-0.000428, 0.000296,1,-0.371751, 0.298831, 9.795044,1,0
1778256389094,  1325.225,  1325.220, 0.038155,-0.030845,-0.994443, 0.000379,-0.000309,-0.009947,-0.000342,-0.000238, 0.038760,1, 0.004425,-0.000273, 0.000033,1,-0.371753, 0.299618, 9.795020,1,0
1778256389116,  1325.245,  1325.240, 0.037763,-0.030544,-0.994918, 0.000376,-0.000305,-0.009950,-0.003006,-0.004234, 0.041767,1, 0.004105, 0.000090, 0.000411,1,-0.371732, 0.300399, 9.794996,1,0
1778256389143,  1325.270,  1325.265, 0.037466,-0.030658,-0.995148, 0.000375,-0.000304,-0.009951,-0.004194, 0.000761, 0.035899,1, 0.003923,-0.000394,-0.000202,1,-0.371600, 0.301536, 9.794967,1,0
1778256389164,  1325.295,  1325.290, 0.037967,-0.031416,-0.995641, 0.000379,-0.000313,-0.009956, 0.001740,-0.006520, 0.035527,1, 0.003663,-0.000100,-0.000234,1,-0.371632, 0.302233, 9.794944,1,0
1778256389186,  1325.310,  1325.310, 0.038105,-0.031040,-0.995423, 0.000382,-0.000311,-0.009954, 0.002080,-0.001626, 0.033167,1, 0.003092, 0.000518,-0.000532,1,-0.371620, 0.302871, 9.794925,1,0
1778256389213,  1325.340,  1325.340, 0.038279,-0.031714,-0.994788, 0.000382,-0.000315,-0.009949, 0.003824,-0.007302, 0.039365,1, 0.003050,-0.000052,-0.000084,1,-0.371564, 0.303803, 9.794898,1,0
1778256389234,  1325.365,  1325.360, 0.037926,-0.031361,-0.994958, 0.000376,-0.000315,-0.009948,-0.002362,-0.003101, 0.034541,1, 0.003133, 0.000111, 0.000292,1,-0.371502, 0.304323, 9.794885,1,0
1778256389257,  1325.385,  1325.385, 0.037988,-0.030996,-0.994655, 0.000382,-0.000308,-0.009948, 0.001092, 0.000960, 0.040629,1, 0.001653, 0.000109,-0.000521,1,-0.371448, 0.304982, 9.794866,1,0
1778256389283,  1325.410,  1325.410, 0.037359,-0.031650,-0.995077, 0.000374,-0.000317,-0.009951,-0.005054,-0.005106, 0.036489,1, 0.002067,-0.000184, 0.000162,1,-0.371417, 0.305340, 9.794856,1,0
1778256389305,  1325.435,  1325.430, 0.037629,-0.031324,-0.994900, 0.000375,-0.000312,-0.009950,-0.000396,-0.005287, 0.037816,1, 0.001764, 0.000152,-0.000385,1,-0.371406, 0.305724, 9.794845,1,0
1778256389327,  1325.455,  1325.455, 0.037472,-0.031853,-0.994418, 0.000377,-0.000318,-0.009945,-0.003938,-0.006251, 0.042922,1, 0.000917, 0.000375,-0.000099,1,-0.371428, 0.306169, 9.794829,1,0
1778256389353,  1325.480,  1325.480, 0.037249,-0.031651,-0.994499, 0.000375,-0.000319,-0.009945,-0.006177,-0.004234, 0.042125,1,-0.001226,-0.000130, 0.000539,1,-0.371458, 0.306118, 9.794830,1,0
1778256389375,  1325.505,  1325.500, 0.038441,-0.031155,-0.995051, 0.000385,-0.000311,-0.009950,-0.002889,-0.000911, 0.041108,1,-0.000235,-0.000424, 0.000619,1,-0.371501, 0.306115, 9.794828,1,0
1778256389397,  1325.525,  1325.525, 0.038004,-0.031945,-0.994860, 0.000380,-0.000319,-0.009951, 0.001116,-0.007220, 0.038586,1,-0.000288, 0.000089,-0.000516,1,-0.371576, 0.306046, 9.794827,1,0
1778256389423,  1325.550,  1325.550, 0.037781,-0.031449,-0.994585, 0.000377,-0.000312,-0.009945,-0.001133,-0.002522, 0.041279,1,-0.000604, 0.000280, 0.000859,1,-0.371646, 0.305867, 9.794830,1,0
1778256389445,  1325.575,  1325.570, 0.038199,-0.031690,-0.994658, 0.000383,-0.000317,-0.009947,-0.004447,-0.006938, 0.039750,1,-0.000853,-0.000157,-0.000546,1,-0.371670, 0.305680, 9.794836,1,0
1778256389467,  1325.595,  1325.595, 0.037636,-0.031029,-0.994541, 0.000378,-0.000310,-0.009944,-0.002618, 0.001026, 0.041732,1,-0.001809,-0.000225,-0.000477,1,-0.371698, 0.305258, 9.794847,1,0
1778256389493,  1325.620,  1325.620, 0.037510,-0.030871,-0.995002, 0.000375,-0.000307,-0.009950,-0.003752, 0.002316, 0.037225,1,-0.001053,-0.000291, 0.000266,1,-0.371587, 0.305029, 9.794859,1,0
1778256389515,  1325.645,  1325.640, 0.037717,-0.030765,-0.994868, 0.000377,-0.000308,-0.009950,-0.006885, 0.001717, 0.035342,1,-0.000606, 0.000954,-0.000480,1,-0.371645, 0.304714, 9.794867,1,0
1778256389538,  1325.665,  1325.665, 0.038499,-0.030708,-0.995241, 0.000383,-0.000307,-0.009953, 0.005885, 0.003510, 0.034888,1,-0.000334, 0.000416,-0.000208,1,-0.371672, 0.304641, 9.794868,1,0
1778256389563,  1325.690,  1325.690, 0.037397,-0.030332,-0.995248, 0.000374,-0.000303,-0.009949,-0.004911, 0.007136, 0.034816,1, 0.000010,-0.000040, 0.000200,1,-0.371650, 0.304589, 9.794870,1,0
1778256389585,  1325.715,  1325.710, 0.037811,-0.030692,-0.994763, 0.000378,-0.000306,-0.009948, 0.003522, 0.000346, 0.035510,1, 0.000765,-0.000513, 0.000010,1,-0.371579, 0.304699, 9.794869,1,0
1778256389608,  1325.740,  1325.735, 0.037715,-0.030387,-0.994849, 0.000375,-0.000304,-0.009947,-0.001621, 0.007175, 0.038723,1, 0.001714,-0.000256, 0.000072,1,-0.371473, 0.305221, 9.794857,1,0
1778256389633,  1325.760,  1325.760, 0.038241,-0.030337,-0.995458, 0.000380,-0.000306,-0.009955, 0.003589, 0.008005, 0.032742,1, 0.001763,-0.000032, 0.000104,1,-0.371423, 0.305562, 9.794848,1,0
1778256389655,  1325.785,  1325.780, 0.037264,-0.030842,-0.994727, 0.000372,-0.000308,-0.009947,-0.003299,-0.001132, 0.036087,1, 0.002282,-0.000110, 0.000175,1,-0.371368, 0.306116, 9.794833,1,0
1778256389678,  1325.810,  1325.805, 0.037660,-0.030646,-0.994393, 0.000376,-0.000306,-0.009943,-0.001941, 0.006434, 0.043150,1, 0.003903,-0.000929, 0.000173,1,-0.371232, 0.307087, 9.794808,1,0
1778256389703,  1325.830,  1325.830, 0.037117,-0.031182,-0.994780, 0.000375,-0.000312,-0.009950,-0.007275, 0.001842, 0.039327,1, 0.003692,-0.000980, 0.000440,1,-0.371237, 0.307753, 9.794787,1,0
1778256389725,  1325.855,  1325.850, 0.037793,-0.031504,-0.994586, 0.000379,-0.000313,-0.009948,-0.005972,-0.000837, 0.041199,1, 0.003409, 0.000147, 0.000636,1,-0.371224, 0.308488, 9.794765,1,0
1778256389748,  1325.880,  1325.875, 0.037481,-0.031558,-0.994933, 0.000375,-0.000313,-0.009948,-0.003527,-0.000094, 0.037783,1, 0.003946,-0.001060, 0.000387,1,-0.371056, 0.309506, 9.794739,1,0
1778256389774,  1325.900,  1325.900, 0.038143,-0.032010,-0.994564, 0.000382,-0.000320,-0.009947, 0.003077,-0.003864, 0.041382,1, 0.003069,-0.000677, 0.000261,1,-0.370959, 0.310146, 9.794723,1,0
1778256389795,  1325.925,  1325.920, 0.037420,-0.031563,-0.994991, 0.000374,-0.000315,-0.009951,-0.000833,-0.005629, 0.035952,1, 0.003108,-0.000262, 0.000031,1,-0.370923, 0.310934, 9.794699,1,0
1778256389818,  1325.950,  1325.945, 0.037879,-0.032241,-0.995421, 0.000379,-0.000322,-0.009952, 0.000647,-0.004591, 0.032941,1, 0.001847, 0.000061, 0.000091,1,-0.370821, 0.311644, 9.794680,1,0
1778256389844,  1325.970,  1325.970, 0.037680,-0.032433,-0.994733, 0.000376,-0.000324,-0.009947,-0.001360,-0.006162, 0.039671,1, 0.001511,-0.000197,-0.000041,1,-0.370867, 0.311941, 9.794669,1,0
1778256389865,  1325.995,  1325.990, 0.037728,-0.032369,-0.995169, 0.000378,-0.000326,-0.009948,-0.001398,-0.005860, 0.039427,1, 0.000598,-0.000133, 0.000045,1,-0.370889, 0.312157, 9.794661,1,0
1778256389888,  1326.020,  1326.015, 0.037494,-0.032530,-0.995644, 0.000375,-0.000327,-0.009956,-0.003213,-0.006750, 0.030727,1, 0.000012, 0.000049,-0.000136,1,-0.370909, 0.312257, 9.794657,1,0
1778256389914,  1326.040,  1326.040, 0.037911,-0.032843,-0.994812, 0.000379,-0.000326,-0.009948, 0.000845,-0.009933, 0.038881,1,-0.001384,-0.000089,-0.000352,1,-0.370932, 0.312101, 9.794662,1,0
1778256389935,  1326.065,  1326.060, 0.037642,-0.032426,-0.994719, 0.000375,-0.000324,-0.009948, 0.000155,-0.004560, 0.041474,1,-0.002177, 0.000059, 0.000268,1,-0.370988, 0.311865, 9.794666,1,0
1778256389962,  1326.090,  1326.090, 0.037260,-0.032052,-0.994274, 0.000374,-0.000324,-0.009944,-0.005656,-0.003107, 0.044183,1,-0.003234,-0.000082,-0.000403,1,-0.371053, 0.311116, 9.794688,1,0
1778256389984,  1326.110,  1326.110, 0.038005,-0.032116,-0.994341, 0.000380,-0.000322,-0.009945, 0.001555,-0.004294, 0.043548,1,-0.002737, 0.000501, 0.000069,1,-0.371158, 0.310569, 9.794702,1,0
1778256390005,  1326.135,  1326.130, 0.037822,-0.031464,-0.995074, 0.000378,-0.000317,-0.009949,-0.000693,-0.004838, 0.036222,1,-0.003267, 0.000535,-0.000111,1,-0.371180, 0.309971, 9.794720,1,0
1778256390032,  1326.160,  1326.160, 0.037923,-0.031525,-0.994656, 0.000376,-0.000317,-0.009949, 0.000583,-0.000068, 0.040502,1,-0.003852, 0.000046, 0.000280,1,-0.371312, 0.308968, 9.794746,1,1
1778256390054,  1326.185,  1326.180, 0.037524,-0.031030,-0.995065, 0.000375,-0.000312,-0.009950,-0.001348, 0.004279, 0.035559,1,-0.003747,-0.000139,-0.001007,1,-0.371409, 0.308251, 9.794765,1,1
1778256390075,  1326.205,  1326.200, 0.037976,-0.030792,-0.994796, 0.000380,-0.000308,-0.009950, 0.004334, 0.000665, 0.037491,1,-0.002594, 0.001038,-0.000311,1,-0.371506, 0.307691, 9.794779,1,1
1778256390102,  1326.230,  1326.230, 0.037782,-0.030754,-0.994761, 0.000376,-0.000307,-0.009948,-0.001142, 0.005425, 0.039520,1,-0.002690, 0.000573,-0.000097,1,-0.371670, 0.306939, 9.794796,1,1
1778256390124,  1326.255,  1326.250, 0.037785,-0.030874,-0.995285, 0.000375,-0.000310,-0.009951,-0.005088, 0.006839, 0.038997,1,-0.002490, 0.000564, 0.000315,1,-0.371664, 0.306415, 9.794813,1,1
1778256390146,  1326.275,  1326.270, 0.037300,-0.030822,-0.994927, 0.000374,-0.000309,-0.009950,-0.004471, 0.005330, 0.040494,1,-0.001442, 0.000940,-0.000388,1,-0.371779, 0.306126, 9.794818,1,1
1778256390173,  1326.300,  1326.300, 0.037432,-0.030312,-0.995165, 0.000375,-0.000304,-0.009949,-0.004672, 0.008624, 0.035590,1,-0.000589,-0.000569, 0.000261,1,-0.371739, 0.305869, 9.794827,1,1
1778256390194,  1326.325,  1326.320, 0.038022,-0.030220,-0.995283, 0.000380,-0.000302,-0.009953,-0.001596, 0.010740, 0.039638,1, 0.000603,-0.000128, 0.000308,1,-0.371758, 0.305878, 9.794827,1,1
1778256390216,  1326.345,  1326.340, 0.037712,-0.030392,-0.994997, 0.000378,-0.000303,-0.009950, 0.001007, 0.004890, 0.034551,1, 0.001194,-0.000130,-0.000641,1,-0.371746, 0.306017, 9.794823,1,1
1778256390243,  1326.370,  1326.370, 0.037619,-0.030528,-0.994898, 0.000376,-0.000305,-0.009949,-0.002806, 0.007072, 0.038190,1, 0.001471, 0.000981,-0.000247,1,-0.371751, 0.306497, 9.794807,1,1
1778256390264,  1326.395,  1326.390, 0.038273,-0.031136,-0.995085, 0.000381,-0.000311,-0.009951, 0.003524, 0.003703, 0.034532,1, 0.002738,-0.000131, 0.000007,1,-0.371749, 0.306958, 9.794793,1,1
1778256390286,  1326.415,  1326.410, 0.038395,-0.031070,-0.995264, 0.000383,-0.000309,-0.009952, 0.001067, 0.004249, 0.044267,1, 0.003429, 0.000157, 0.000385,1,-0.371749, 0.307548, 9.794774,1,1
1778256390313,  1326.440,  1326.440, 0.037779,-0.030950,-0.994830, 0.000376,-0.000308,-0.009948,-0.001168, 0.005080, 0.038795,1, 0.004307,-0.000566, 0.000482,1,-0.371640, 0.308727, 9.794742,1,1
1778256390334,  1326.465,  1326.460, 0.037180,-0.031680,-0.994872, 0.000372,-0.000318,-0.009948,-0.005995, 0.001691, 0.036489,1, 0.003068,-0.000215,-0.000193,1,-0.371540, 0.309363, 9.794725,1,1
1778256390356,  1326.485,  1326.480, 0.037497,-0.031494,-0.995081, 0.000375,-0.000316,-0.009950,-0.002427, 0.002110, 0.036598,1, 0.004317,-0.000343, 0.000631,1,-0.371481, 0.310147, 9.794703,1,1
1778256390383,  1326.510,  1326.510, 0.037541,-0.031537,-0.994630, 0.000374,-0.000317,-0.009948,-0.003314, 0.001820, 0.040688,1, 0.004150,-0.000028, 0.000351,1,-0.371466, 0.311224, 9.794669,1,1
1778256390404,  1326.535,  1326.530, 0.037669,-0.031778,-0.994815, 0.000377,-0.000320,-0.009949,-0.007180, 0.007337, 0.033592,1, 0.003937,-0.000569,-0.000122,1,-0.371318, 0.312023, 9.794649,1,1
1778256390426,  1326.555,  1326.550, 0.037454,-0.032084,-0.995308, 0.000376,-0.000322,-0.009953, 0.003096, 0.002633, 0.037417,1, 0.004933,-0.000609, 0.000030,1,-0.371232, 0.312941, 9.794623,1,1
1778256390453,  1326.580,  1326.580, 0.037575,-0.032891,-0.995533, 0.000377,-0.000327,-0.009954,-0.002640,-0.008616, 0.031747,1, 0.003456,-0.000289, 0.000176,1,-0.371112, 0.314042, 9.794592,1,1
1778256390474,  1326.605,  1326.600, 0.037669,-0.031979,-0.994917, 0.000378,-0.000321,-0.009948,-0.000962,-0.003616, 0.036543,1, 0.003575,-0.000388,-0.000242,1,-0.371009, 0.314752, 9.794574,1,1
1778256390497,  1326.625,  1326.625, 0.038035,-0.032259,-0.995163, 0.000380,-0.000323,-0.009952, 0.002091,-0.000826, 0.035333,1, 0.002749,-0.000102, 0.000286,1,-0.370905, 0.315610, 9.794550,1,1
1778256390523,  1326.650,  1326.650, 0.037878,-0.032426,-0.995182, 0.000377,-0.000325,-0.009951, 0.000591,-0.002000, 0.035135,1, 0.002076,-0.000310, 0.000674,1,-0.370855, 0.316054, 9.794538,1,1
1778256390545,  1326.675,  1326.670, 0.037610,-0.032748,-0.994805, 0.000378,-0.000326,-0.009948, 0.001429,-0.003258, 0.036777,1, 0.001795,-0.000025,-0.000135,1,-0.370813, 0.316534, 9.794523,1,1
1778256390567,  1326.695,  1326.695, 0.038069,-0.032667,-0.995009, 0.000380,-0.000328,-0.009952, 0.002533,-0.003504, 0.036808,1, 0.001288,-0.000911,-0.000267,1,-0.370771, 0.316891, 9.794514,1,1
1778256390593,  1326.720,  1326.720, 0.037616,-0.033049,-0.995099, 0.000377,-0.000330,-0.009949,-0.001948,-0.007122, 0.035923,1, 0.000572, 0.000164, 0.000162,1,-0.370842, 0.316998, 9.794507,1,1
1778256390615,  1326.740,  1326.740, 0.037992,-0.032114,-0.994885, 0.000378,-0.000323,-0.009951, 0.001779, 0.002039, 0.038024,1,-0.000538,-0.000412,-0.000412,1,-0.370783, 0.316956, 9.794511,1,1
1778256390637,  1326.765,  1326.765, 0.037674,-0.032490,-0.994183, 0.000377,-0.000326,-0.009944,-0.001288,-0.001752, 0.044906,1,-0.000483,-0.000332,-0.000618,1,-0.370737, 0.316851, 9.794516,1,1
1778256390663,  1326.790,  1326.790, 0.037670,-0.032985,-0.994608, 0.000377,-0.000329,-0.009946,-0.001292,-0.006737, 0.040745,1,-0.000856,-0.000307, 0.000068,1,-0.370702, 0.316712, 9.794522,1,1
1778256390685,  1326.815,  1326.810, 0.037462,-0.032361,-0.994775, 0.000372,-0.000324,-0.009948,-0.004792,-0.002839, 0.036666,1,-0.001672, 0.000101, 0.000004,1,-0.370826, 0.316443, 9.794526,1,1
1778256390708,  1326.835,  1326.835, 0.036964,-0.032601,-0.995339, 0.000370,-0.000328,-0.009955,-0.008369,-0.003833, 0.033597,1,-0.002281,-0.000383,-0.000704,1,-0.370850, 0.315805, 9.794545,1,1
1778256390733,  1326.860,  1326.860, 0.037562,-0.032423,-0.994792, 0.000375,-0.000325,-0.009944,-0.002493,-0.002510, 0.038981,1,-0.003635,-0.000300, 0.000287,1,-0.370839, 0.315379, 9.794559,1,1
1778256390755,  1326.885,  1326.880, 0.038443,-0.031844,-0.995686, 0.000384,-0.000320,-0.009955, 0.003378,-0.001921, 0.036497,1,-0.003756,-0.000086, 0.000443,1,-0.370827, 0.314665, 9.794583,1,1
1778256390778,  1326.905,  1326.905, 0.038511,-0.032393,-0.994704, 0.000386,-0.000324,-0.009948, 0.006839,-0.003859, 0.039900,1,-0.003159, 0.000156,-0.000619,1,-0.370835, 0.313712, 9.794613,1,1
1778256390803,  1326.930,  1326.930, 0.038178,-0.031934,-0.994694, 0.000384,-0.000317,-0.009947, 0.003593, 0.000037, 0.040011,1,-0.003471, 0.000317,-0.000098,1,-0.370818, 0.313097, 9.794634,1,1
1778256390825,  1326.955,  1326.950, 0.037402,-0.031252,-0.994903, 0.000375,-0.000318,-0.009951, 0.002512, 0.006535, 0.035133,1,-0.002807, 0.000479,-0.000165,1,-0.370903, 0.312469, 9.794650,1,1
1778256390848,  1326.980,  1326.975, 0.037629,-0.031295,-0.994303, 0.000376,-0.000310,-0.009942,-0.001938, 0.004861, 0.043888,1,-0.002037, 0.000615,-0.000123,1,-0.370976, 0.311694, 9.794672,1,1
1778256390873,  1327.000,  1327.000, 0.037839,-0.030774,-0.994532, 0.000380,-0.000307,-0.009948, 0.000101, 0.009589, 0.041657,1,-0.001699,-0.000363,-0.000546,1,-0.370961, 0.311321, 9.794684,1,1
1778256390895,  1327.025,  1327.020, 0.037761,-0.030565,-0.995254, 0.000375,-0.000308,-0.009953,-0.003396, 0.008157, 0.034335,1,-0.000740,-0.000283,-0.000490,1,-0.370975, 0.311069, 9.794692,1,1
1778256390918,  1327.050,  1327.045, 0.037871,-0.031169,-0.995185, 0.000376,-0.000311,-0.009947, 0.000429, 0.005416, 0.035257,1, 0.000665, 0.000173,-0.000351,1,-0.370964, 0.311100, 9.794692,1,1
1778256390943,  1327.070,  1327.070, 0.037912,-0.030867,-0.994714, 0.000378,-0.000311,-0.009950, 0.000751, 0.008380, 0.039876,1, 0.000364,-0.000135, 0.000004,1,-0.371034, 0.311093, 9.794689,1,1
1778256390965,  1327.095,  1327.090, 0.038510,-0.031189,-0.994659, 0.000385,-0.000312,-0.009947, 0.003083, 0.006840, 0.038181,1, 0.001626, 0.000397, 0.000291,1,-0.370991, 0.311458, 9.794680,1,1
1778256390988,  1327.120,  1327.115, 0.038406,-0.031372,-0.994631, 0.000386,-0.000315,-0.009949, 0.005705, 0.004441, 0.040664,1, 0.002447,-0.000938, 0.000264,1,-0.370896, 0.312174, 9.794661,1,1
1778256391014,  1327.140,  1327.140, 0.038049,-0.030889,-0.995332, 0.000382,-0.000314,-0.009954, 0.002321, 0.009733, 0.033780,1, 0.003021,-0.000564, 0.000090,1,-0.370792, 0.312742, 9.794646,1,1
1778256391035,  1327.165,  1327.160, 0.037294,-0.031698,-0.994581, 0.000376,-0.000316,-0.009945, 0.000066, 0.005426, 0.038657,1, 0.003866,-0.000431, 0.000233,1,-0.370741, 0.313385, 9.794627,1,1
1778256391058,  1327.190,  1327.185, 0.037431,-0.031675,-0.995283, 0.000372,-0.000319,-0.009948,-0.003545, 0.003800, 0.034205,1, 0.003916, 0.000508,-0.000068,1,-0.370636, 0.314547, 9.794594,1,1
1778256391084,  1327.210,  1327.210, 0.037051,-0.031600,-0.995135, 0.000372,-0.000316,-0.009951,-0.007253, 0.005349, 0.035635,1, 0.004798,-0.000135, 0.000187,1,-0.370596, 0.315391, 9.794568,1,1
1778256391105,  1327.235,  1327.230, 0.036649,-0.031433,-0.994967, 0.000368,-0.000313,-0.009950,-0.010290, 0.002772, 0.041831,1, 0.004612,-0.000283, 0.000262,1,-0.370549, 0.316258, 9.794542,1,1
1778256391128,  1327.260,  1327.255, 0.037067,-0.032473,-0.994824, 0.000370,-0.000324,-0.009949,-0.006975,-0.001106, 0.038619,1, 0.004863,-0.000298, 0.000403,1,-0.370475, 0.317476, 9.794506,1,1
1778256391154,  1327.280,  1327.280, 0.037627,-0.032647,-0.994949, 0.000375,-0.000325,-0.009952,-0.001414,-0.001852, 0.037368,1, 0.005309,-0.000697, 0.000583,1,-0.370388, 0.318471, 9.794477,1,1
1778256391175,  1327.305,  1327.300, 0.037898,-0.031971,-0.995025, 0.000378,-0.000319,-0.009951,-0.000292, 0.006941, 0.040264,1, 0.004952,-0.000314,-0.000141,1,-0.370329, 0.319482, 9.794446,1,1
1778256391202,  1327.330,  1327.330, 0.038432,-0.032984,-0.995226, 0.000386,-0.000329,-0.009953, 0.006839,-0.002458, 0.034574,1, 0.006179,-0.000631, 0.000203,1,-0.370026, 0.321195, 9.794401,1,1
1778256391224,  1327.350,  1327.350, 0.038826,-0.033326,-0.994847, 0.000387,-0.000333,-0.009950, 0.010876,-0.004582, 0.038254,1, 0.005825,-0.000994, 0.000333,1,-0.369843, 0.322418, 9.794368,1,1
1778256391245,  1327.375,  1327.370, 0.038965,-0.032736,-0.994573, 0.000391,-0.000327,-0.009948, 0.014929, 0.001858, 0.044127,1, 0.005611,-0.000270, 0.000482,1,-0.369766, 0.323518, 9.794334,1,1
1778256391272,  1327.400,  1327.400, 0.037890,-0.033828,-0.994921, 0.000379,-0.000336,-0.009948, 0.001977,-0.006505, 0.037443,1, 0.006700,-0.001191, 0.000768,1,-0.369560, 0.325448, 9.794278,1,1
1778256391294,  1327.425,  1327.420, 0.037794,-0.033741,-0.994599, 0.000377,-0.000338,-0.009944, 0.001194,-0.004456, 0.037949,1, 0.005290,-0.000891, 0.000485,1,-0.369400, 0.326499, 9.794250,1,1
1778256391315,  1327.445,  1327.440, 0.036908,-0.033666,-0.995212, 0.000371,-0.000339,-0.009951,-0.004099,-0.004704, 0.036180,1, 0.004821,-0.000941, 0.000872,1,-0.369293, 0.327570, 9.794218,1,1
1778256391342,  1327.470,  1327.470, 0.036914,-0.034240,-0.994252, 0.000369,-0.000341,-0.009945,-0.007365,-0.007033, 0.043892,1, 0.003717, 0.000210,-0.000168,1,-0.369377, 0.328861, 9.794171,1,1
1778256391364,  1327.495,  1327.490, 0.037087,-0.034487,-0.995013, 0.000367,-0.000344,-0.009950,-0.008754,-0.002532, 0.039340,1, 0.003841,-0.000342,-0.000653,1,-0.369364, 0.329567, 9.794148,1,1
1778256391386,  1327.515,  1327.510, 0.036568,-0.034530,-0.994883, 0.000365,-0.000345,-0.009950,-0.015295,-0.004172, 0.032092,1, 0.002779,-0.000371, 0.000125,1,-0.369335, 0.330263, 9.794126,1,1
1778256391413,  1327.540,  1327.540, 0.037181,-0.033898,-0.994799, 0.000371,-0.000341,-0.009946,-0.004636,-0.001536, 0.038460,1, 0.001825,-0.000419, 0.000598,1,-0.369240, 0.330950, 9.794106,1,1
1778256391434,  1327.565,  1327.560, 0.037662,-0.034103,-0.994726, 0.000376,-0.000342,-0.009946,-0.000033,-0.002131, 0.044384,1, 0.001431, 0.000007, 0.000682,1,-0.369286, 0.331299, 9.794093,1,1
1778256391456,  1327.585,  1327.580, 0.038104,-0.034330,-0.994814, 0.000382,-0.000344,-0.009950, 0.004922,-0.005858, 0.039994,1, 0.000535,-0.000211, 0.000341,1,-0.369353, 0.331494, 9.794084,1,1
1778256391483,  1327.610,  1327.610, 0.038138,-0.033870,-0.994287, 0.000383,-0.000339,-0.009942, 0.004711,-0.000391, 0.043449,1, 0.000476, 0.000559, 0.000038,1,-0.369307, 0.331780, 9.794076,1,1
1778256391504,  1327.635,  1327.630, 0.037727,-0.034521,-0.994519, 0.000379,-0.000346,-0.009946, 0.002599,-0.007003, 0.033821,1,-0.000957,-0.000658, 0.000097,1,-0.369227, 0.331741, 9.794080,1,1
1778256391526,  1327.655,  1327.650, 0.038142,-0.033709,-0.994456, 0.000380,-0.000335,-0.009946,-0.000884,-0.007308, 0.041907,1,-0.000255, 0.000014,-0.000363,1,-0.369207, 0.331737, 9.794081,1,1
1778256391553,  1327.680,  1327.680, 0.037837,-0.034037,-0.994873, 0.000379,-0.000341,-0.009948, 0.001901,-0.001908, 0.037705,1,-0.000223,-0.000350,-0.000309,1,-0.369139, 0.331878, 9.794079,1,1
1778256391574,  1327.705,  1327.700, 0.037218,-0.033627,-0.995268, 0.000373,-0.000336,-0.009952,-0.002239, 0.004012, 0.032818,1,-0.000357, 0.000153,-0.000745,1,-0.369126, 0.331796, 9.794082,1,1
1778256391596,  1327.725,  1327.720, 0.037551,-0.033486,-0.995115, 0.000375,-0.000337,-0.009954,-0.000730, 0.000832, 0.036065,1, 0.000468, 0.000188, 0.000071,1,-0.369095, 0.331898, 9.794080,1,1
1778256391623,  1327.750,  1327.750, 0.037760,-0.033664,-0.994474, 0.000376,-0.000337,-0.009948, 0.002199,-0.002027, 0.034086,1, 0.000531, 0.000617,-0.000121,1,-0.369196, 0.331956, 9.794074,1,1
1778256391644,  1327.775,  1327.770, 0.037816,-0.033498,-0.994530, 0.000379,-0.000334,-0.009944, 0.001405, 0.002310, 0.043122,1, 0.000456,-0.000227, 0.000465,1,-0.369202, 0.332182, 9.794066,1,1
1778256391666,  1327.795,  1327.790, 0.038047,-0.034184,-0.994435, 0.000381,-0.000341,-0.009946, 0.005615,-0.002118, 0.037716,1, 0.000940, 0.000316,-0.000204,1,-0.369236, 0.332317, 9.794060,1,1
1778256391693,  1327.820,  1327.820, 0.037448,-0.034244,-0.994994, 0.000375,-0.000343,-0.009951,-0.001855,-0.003306, 0.036499,1, 0.000685, 0.000232,-0.000089,1,-0.369103, 0.332535, 9.794058,1,1
1778256391714,  1327.845,  1327.840, 0.038172,-0.033900,-0.994677, 0.000379,-0.000339,-0.009949,-0.000758,-0.004314, 0.039319,1, 0.000048,-0.000150, 0.000062,1,-0.369141, 0.332642, 9.794053,1,1
1778256391737,  1327.865,  1327.865, 0.037482,-0.034566,-0.994877, 0.000376,-0.000344,-0.009948,-0.001511,-0.006249, 0.037643,1, 0.000282,-0.000391, 0.000453,1,-0.369069, 0.332736, 9.794052,1,1
1778256391763,  1327.890,  1327.890, 0.037130,-0.034680,-0.994930, 0.000373,-0.000346,-0.009948,-0.004948,-0.007342, 0.037117,1,-0.000445, 0.001125, 0.000207,1,-0.369105, 0.332739, 9.794051,1,1
1778256391785,  1327.915,  1327.910, 0.037191,-0.034247,-0.995105, 0.000370,-0.000343,-0.009952,-0.005039,-0.005842, 0.039795,1,-0.001190, 0.000132, 0.000377,1,-0.369143, 0.332540, 9.794056,1,1
1778256391807,  1327.935,  1327.935, 0.037176,-0.034517,-0.994648, 0.000372,-0.000346,-0.009948,-0.004635,-0.006352, 0.039904,1,-0.001483, 0.000372,-0.000482,1,-0.369217, 0.332097, 9.794068,1,1
1778256391833,  1327.960,  1327.960, 0.037509,-0.034429,-0.994305, 0.000374,-0.000345,-0.009947,-0.001393,-0.005849, 0.043280,1,-0.002133, 0.000130,-0.000302,1,-0.369233, 0.331716, 9.794081,1,1
1778256391855,  1327.985,  1327.980, 0.037556,-0.034646,-0.994538, 0.000374,-0.000345,-0.009946, 0.002214,-0.001059, 0.036287,1,-0.003451, 0.000535,-0.000351,1,-0.369355, 0.331006, 9.794100,1,1
1778256391877,  1328.005,  1328.005, 0.037363,-0.034102,-0.994735, 0.000374,-0.000343,-0.009950,-0.003111,-0.004488, 0.039109,1,-0.004308, 0.001565,-0.000775,1,-0.369570, 0.329808, 9.794132,1,1
1778256391903,  1328.030,  1328.030, 0.037931,-0.033605,-0.995344, 0.000378,-0.000337,-0.009952, 0.002301,-0.000487, 0.033163,1,-0.005187, 0.000776,-0.000579,1,-0.369696, 0.328899, 9.794158,1,1
1778256391925,  1328.055,  1328.050, 0.038334,-0.033638,-0.994820, 0.000383,-0.000337,-0.009948,-0.000001, 0.002008, 0.034305,1,-0.004579, 0.000413,-0.000176,1,-0.369821, 0.327960, 9.794185,1,1
1778256391948,  1328.070,  1328.075, 0.037525,-0.032949,-0.994389, 0.000376,-0.000333,-0.009946, 0.004218,-0.002346, 0.039615,1,-0.004571, 0.000168, 0.000050,1,-0.369971, 0.326776, 9.794219,1,1
1778256391973,  1328.100,  1328.100, 0.037293,-0.032853,-0.994958, 0.000374,-0.000328,-0.009949,-0.004286, 0.003894, 0.037039,1,-0.003442,-0.000741,-0.000476,1,-0.369987, 0.325966, 9.794245,1,1
1778256391995,  1328.125,  1328.120, 0.037205,-0.032501,-0.994786, 0.000376,-0.000324,-0.009947,-0.001899, 0.008694, 0.036745,1,-0.003423, 0.000549,-0.000351,1,-0.370156, 0.325309, 9.794261,1,1
1778256392018,  1328.145,  1328.145, 0.037430,-0.032209,-0.994815, 0.000374,-0.000322,-0.009950,-0.003075, 0.008786, 0.038477,1,-0.002789,-0.000088, 0.000164,1,-0.370140, 0.324560, 9.794286,1,1
1778256392043,  1328.170,  1328.170, 0.037290,-0.032061,-0.995155, 0.000375,-0.000322,-0.009951,-0.004490, 0.010011, 0.035152,1,-0.000838, 0.000036,-0.000107,1,-0.370180, 0.324398, 9.794290,1,1
1778256392065,  1328.195,  1328.190, 0.037508,-0.031408,-0.994829, 0.000374,-0.000312,-0.009949,-0.004718, 0.011051, 0.037106,1, 0.000171, 0.001131,-0.000430,1,-0.370347, 0.324464, 9.794282,1,1
1778256392088,  1328.220,  1328.215, 0.037595,-0.031404,-0.994935, 0.000375,-0.000314,-0.009950,-0.001686, 0.017069, 0.037281,1, 0.003533, 0.000375, 0.000075,1,-0.370377, 0.325151, 9.794257,1,1
1778256392113,  1328.240,  1328.240, 0.037661,-0.031421,-0.995167, 0.000377,-0.000316,-0.009952,-0.000836, 0.017839, 0.034987,1, 0.005570,-0.001441,-0.000106,1,-0.370119, 0.326149, 9.794234,1,1
1778256392135,  1328.265,  1328.260, 0.037785,-0.031523,-0.995370, 0.000377,-0.000314,-0.009954, 0.001176, 0.015283, 0.032785,1, 0.007595,-0.000136, 0.000585,1,-0.369978, 0.327224, 9.794204,1,1
1778256392158,  1328.290,  1328.285, 0.038121,-0.031704,-0.994898, 0.000382,-0.000316,-0.009951, 0.003990, 0.018727, 0.037508,1, 0.010861,-0.000673, 0.000601,1,-0.369824, 0.329975, 9.794117,1,1
1778256392183,  1328.310,  1328.310, 0.037875,-0.032143,-0.994327, 0.000380,-0.000319,-0.009944, 0.001705, 0.016709, 0.043034,1, 0.012892,-0.000484, 0.000243,1,-0.369707, 0.332323, 9.794043,1,1
1778256392205,  1328.335,  1328.330, 0.037801,-0.032524,-0.995160, 0.000379,-0.000325,-0.009953, 0.003942, 0.018495, 0.034520,1, 0.013188,-0.000820, 0.000603,1,-0.369605, 0.333621, 9.794002,1,1
1778256392228,  1328.360,  1328.355, 0.038153,-0.033315,-0.994840, 0.000382,-0.000333,-0.009949, 0.004974, 0.012502, 0.037780,1, 0.017318,-0.001579, 0.001272,1,-0.369127, 0.339748, 9.793809,1,1
1778256392254,  1328.380,  1328.380, 0.037077,-0.033682,-0.994734, 0.000372,-0.000336,-0.009948,-0.005340, 0.012396, 0.038706,1, 0.019928,-0.001221, 0.001153,1,-0.368897, 0.343328, 9.793694,1,1
1778256392275,  1328.400,  1328.400, 0.037623,-0.034974,-0.995562, 0.000377,-0.000347,-0.009955, 0.000237, 0.003646, 0.030458,1, 0.020382,-0.001315, 0.001476,1,-0.368673, 0.347261, 9.793563,1,1
1778256392298,  1328.430,  1328.425, 0.037517,-0.035637,-0.994966, 0.000374,-0.000353,-0.009949,-0.000379, 0.003326, 0.036092,1, 0.021208,-0.001687, 0.001341,1,-0.368243, 0.353465, 9.793357,1,1
1778256392324,  1328.450,  1328.450, 0.036423,-0.036231,-0.994209, 0.000366,-0.000361,-0.009944,-0.010897, 0.001793, 0.043371,1, 0.021794,-0.000548, 0.001210,1,-0.368069, 0.357775, 9.793207,1,1
1778256392345,  1328.475,  1328.470, 0.036617,-0.038216,-0.994648, 0.000366,-0.000381,-0.009945,-0.004105,-0.001302, 0.040480,1, 0.020781,-0.002049, 0.001073,1,-0.367807, 0.361617, 9.793076,1,1
1778256392368,  1328.500,  1328.495, 0.035930,-0.038636,-0.995065, 0.000363,-0.000386,-0.009952,-0.015130,-0.011830, 0.034633,1, 0.019370,-0.000986, 0.001508,1,-0.367450, 0.367665, 9.792864,1,1
1778256392394,  1328.520,  1328.520, 0.036115,-0.039250,-0.994215, 0.000359,-0.000392,-0.009942,-0.013094,-0.014047, 0.042827,1, 0.019116,-0.000412, 0.001037,1,-0.367247, 0.371457, 9.792728,1,1
1778256392415,  1328.545,  1328.540, 0.036851,-0.040806,-0.994783, 0.000370,-0.000407,-0.009946,-0.010183,-0.022549, 0.036655,1, 0.016620,-0.001678, 0.001398,1,-0.366950, 0.374862, 9.792610,1,1
1778256392442,  1328.570,  1328.570, 0.037005,-0.040626,-0.994412, 0.000368,-0.000401,-0.009942,-0.003842,-0.019631, 0.040616,1, 0.013458,-0.000917, 0.000839,1,-0.366705, 0.379197, 9.792452,1,1
1778256392464,  1328.590,  1328.590, 0.036416,-0.041795,-0.994621, 0.000365,-0.000414,-0.009946,-0.009444,-0.028686, 0.038479,1, 0.011215,-0.000686, 0.000117,1,-0.366544, 0.381530, 9.792368,1,1
1778256392485,  1328.615,  1328.610, 0.036557,-0.041489,-0.994392, 0.000365,-0.000414,-0.009946,-0.008818,-0.027464, 0.040632,1, 0.007879,-0.000802, 0.000541,1,-0.366355, 0.383195, 9.792310,1,1
1778256392512,  1328.640,  1328.640, 0.036856,-0.041564,-0.994683, 0.000366,-0.000414,-0.009944,-0.004730,-0.022705, 0.037737,1, 0.004820, 0.000132, 0.000073,1,-0.366170, 0.385053, 9.792244,1,1
1778256392534,  1328.665,  1328.660, 0.037298,-0.041831,-0.994578, 0.000373,-0.000419,-0.009948,-0.001419,-0.029766, 0.040019,1, 0.002004, 0.000047, 0.000722,1,-0.365964, 0.386029, 9.792213,1,1
1778256392555,  1328.685,  1328.680, 0.037891,-0.040891,-0.994347, 0.000379,-0.000408,-0.009941, 0.003874,-0.019106, 0.048287,1,-0.001639,-0.000719,-0.000104,1,-0.365897, 0.385922, 9.792220,1,1
1778256392582,  1328.710,  1328.710, 0.038994,-0.041375,-0.994283, 0.000388,-0.000414,-0.009942, 0.016503,-0.020639, 0.041664,1,-0.004292, 0.000224,-0.000800,1,-0.365908, 0.384980, 9.792256,1,1
1778256392604,  1328.735,  1328.730, 0.039081,-0.040987,-0.995068, 0.000392,-0.000409,-0.009950, 0.017400,-0.023724, 0.048690,1,-0.005523, 0.000772,-0.000604,1,-0.366049, 0.383960, 9.792292,1,1
1778256392626,  1328.755,  1328.750, 0.039455,-0.040170,-0.993899, 0.000394,-0.000403,-0.009942, 0.017697,-0.010682, 0.036403,1,-0.007705, 0.000478,-0.000866,1,-0.366103, 0.382485, 9.792347,1,1
1778256392653,  1328.780,  1328.780, 0.039292,-0.039999,-0.993934, 0.000391,-0.000400,-0.009942, 0.019036,-0.012095, 0.045268,1,-0.009035, 0.000610,-0.000455,1,-0.366306, 0.379883, 9.792440,1,1
1778256392674,  1328.805,  1328.800, 0.038452,-0.039512,-0.994807, 0.000384,-0.000394,-0.009949, 0.011016,-0.009841, 0.034320,1,-0.010229, 0.000514, 0.000035,1,-0.366487, 0.377903, 9.792510,1,1
1778256392696,  1328.825,  1328.820, 0.037539,-0.038947,-0.994844, 0.000378,-0.000388,-0.009949, 0.009038,-0.007738, 0.034387,1,-0.011310, 0.000657,-0.000476,1,-0.366608, 0.375727, 9.792589,1,1
1778256392723,  1328.850,  1328.850, 0.036995,-0.038220,-0.994482, 0.000371,-0.000385,-0.009947,-0.003973,-0.002138, 0.040165,1,-0.012409, 0.000707,-0.000523,1,-0.366797, 0.372287, 9.792714,1,1
1778256392744,  1328.875,  1328.870, 0.036492,-0.036848,-0.994679, 0.000367,-0.000368,-0.009945,-0.005868,-0.000886, 0.040230,1,-0.011963, 0.001090, 0.000331,1,-0.367357, 0.370378, 9.792766,1,1
1778256392766,  1328.895,  1328.890, 0.036391,-0.037754,-0.994762, 0.000366,-0.000378,-0.009947,-0.008570, 0.005576, 0.043629,1,-0.012019, 0.000581,-0.000462,1,-0.367484, 0.368036, 9.792849,1,1
1778256392793,  1328.920,  1328.920, 0.036316,-0.037067,-0.994241, 0.000363,-0.000371,-0.009946,-0.011572, 0.001377, 0.042780,1,-0.011365, 0.000657,-0.001328,1,-0.367735, 0.364523, 9.792971,1,1
1778256392814,  1328.945,  1328.940, 0.036306,-0.035894,-0.994692, 0.000364,-0.000360,-0.009947,-0.012301, 0.012081, 0.040027,1,-0.011274, 0.000764,-0.000098,1,-0.367885, 0.362313, 9.793047,1,1
1778256392836,  1328.965,  1328.960, 0.036918,-0.036212,-0.995102, 0.000369,-0.000362,-0.009951,-0.008858, 0.009898, 0.036567,1,-0.010943, 0.000567,-0.000735,1,-0.368062, 0.360107, 9.793122,1,1
1778256392863,  1328.990,  1328.990, 0.037764,-0.035566,-0.994403, 0.000375,-0.000356,-0.009947, 0.002113, 0.008849, 0.041439,1,-0.008791,-0.000214,-0.000131,1,-0.368219, 0.357355, 9.793217,1,1
1778256392884,  1329.015,  1329.010, 0.037789,-0.035406,-0.995185, 0.000377,-0.000354,-0.009951,-0.003177, 0.015008, 0.039284,1,-0.007809, 0.000788,-0.000388,1,-0.368326, 0.355781, 9.793270,1,1
1778256392906,  1329.035,  1329.030, 0.038283,-0.035578,-0.995486, 0.000383,-0.000355,-0.009953, 0.004960, 0.008080, 0.039696,1,-0.005889, 0.000598,-0.000125,1,-0.368502, 0.354461, 9.793311,1,1
1778256392933,  1329.060,  1329.060, 0.038424,-0.034816,-0.995147, 0.000386,-0.000349,-0.009948, 0.008230, 0.011459, 0.034308,1,-0.004539, 0.000656,-0.000528,1,-0.368572, 0.352723, 9.793371,1,1
1778256392954,  1329.085,  1329.080, 0.038336,-0.034300,-0.995036, 0.000385,-0.000345,-0.009951, 0.005636, 0.013132, 0.041066,1,-0.003551,-0.000083, 0.000272,1,-0.368585, 0.351886, 9.793401,1,1
1778256392977,  1329.105,  1329.105, 0.038257,-0.034831,-0.994802, 0.000383,-0.000349,-0.009948, 0.006637, 0.009639, 0.037750,1,-0.001853, 0.000162, 0.000236,1,-0.368542, 0.351157, 9.793429,1,1
1778256393003,  1329.130,  1329.130, 0.037887,-0.034960,-0.995016, 0.000380,-0.000349,-0.009950, 0.003030, 0.008130, 0.035661,1,-0.000645,-0.000107, 0.000165,1,-0.368513, 0.350949, 9.793437,1,1
1778256393025,  1329.155,  1329.150, 0.037646,-0.034631,-0.995262, 0.000377,-0.000344,-0.009954, 0.002001, 0.015161, 0.037456,1, 0.001117,-0.000142, 0.000901,1,-0.368508, 0.351034, 9.793434,1,1
1778256393047,  1329.175,  1329.175, 0.037209,-0.034828,-0.994641, 0.000373,-0.000348,-0.009947,-0.003563, 0.009872, 0.039321,1, 0.002433, 0.000305, 0.000090,1,-0.368468, 0.351493, 9.793420,1,1
1778256393073,  1329.200,  1329.200, 0.036839,-0.035771,-0.994794, 0.000369,-0.000357,-0.009947,-0.007192, 0.001120, 0.037809,1, 0.002295,-0.000354, 0.000547,1,-0.368451, 0.351989, 9.793403,1,1
1778256393095,  1329.225,  1329.220, 0.036636,-0.035782,-0.994709, 0.000367,-0.000355,-0.009947,-0.008859, 0.002538, 0.038420,1, 0.003542,-0.000291, 0.000394,1,-0.368395, 0.352623, 9.793382,1,1
1778256393117,  1329.245,  1329.245, 0.037272,-0.036536,-0.994655, 0.000372,-0.000363,-0.009946,-0.002886,-0.004901, 0.039117,1, 0.003243, 0.000253, 0.000570,1,-0.368407, 0.353499, 9.793349,1,1
1778256393143,  1329.270,  1329.270, 0.037175,-0.036443,-0.995356, 0.000370,-0.000366,-0.009951,-0.003809,-0.003490, 0.032233,1, 0.002782, 0.000354, 0.000654,1,-0.368383, 0.353979, 9.793333,1,1
1778256393165,  1329.295,  1329.290, 0.037673,-0.036229,-0.994674, 0.000375,-0.000363,-0.009950,-0.000313,-0.000382, 0.041570,1, 0.001243, 0.000513, 0.000301,1,-0.368388, 0.354333, 9.793321,1,1
1778256393188,  1329.315,  1329.315, 0.037702,-0.036884,-0.994950, 0.000378,-0.000369,-0.009952, 0.001363,-0.007147, 0.036187,1, 0.000104,-0.000242, 0.000129,1,-0.368360, 0.354566, 9.793313,1,1
1778256393213,  1329.340,  1329.340, 0.038073,-0.037411,-0.995148, 0.000379,-0.000374,-0.009949, 0.005028,-0.012408, 0.034247,1,-0.001723, 0.000130, 0.000158,1,-0.368345, 0.354410, 9.793319,1,1
1778256393235,  1329.365,  1329.360, 0.038026,-0.037481,-0.994631, 0.000380,-0.000374,-0.009949, 0.003485,-0.014326, 0.039636,1,-0.002102,-0.000218, 0.000049,1,-0.368393, 0.354031, 9.793331,1,1
1778256393258,  1329.385,  1329.385, 0.037453,-0.037479,-0.994358, 0.000375,-0.000375,-0.009944,-0.001142,-0.014492, 0.042047,1,-0.004199, 0.000277, 0.000031,1,-0.368438, 0.352921, 9.793369,1,1
1778256393283,  1329.410,  1329.410, 0.038268,-0.037331,-0.994512, 0.000383,-0.000375,-0.009946, 0.006762,-0.013936, 0.040566,1,-0.005452, 0.000909,-0.000400,1,-0.368549, 0.351984, 9.793399,1,1
1778256393305,  1329.435,  1329.430, 0.037810,-0.036888,-0.994799, 0.000382,-0.000372,-0.009948, 0.003420,-0.014602, 0.042135,1,-0.006931,-0.000300,-0.000056,1,-0.368588, 0.350692, 9.793444,1,1
1778256393328,  1329.460,  1329.455, 0.037482,-0.036053,-0.994473, 0.000375,-0.000363,-0.009945,-0.001247,-0.004766, 0.041054,1,-0.008869, 0.000620,-0.001067,1,-0.368866, 0.348587, 9.793509,1,1
1778256393353,  1329.480,  1329.480, 0.037235,-0.035611,-0.994649, 0.000371,-0.000361,-0.009945,-0.003814,-0.002097, 0.039384,1,-0.009385, 0.000695,-0.000631,1,-0.368987, 0.346832, 9.793567,1,1
1778256393375,  1329.505,  1329.500, 0.037207,-0.035212,-0.995208, 0.000371,-0.000353,-0.009952,-0.005928,-0.006500, 0.029613,1,-0.009499, 0.000992,-0.000468,1,-0.369180, 0.344961, 9.793625,1,1
1778256393398,  1329.530,  1329.525, 0.037429,-0.034732,-0.994335, 0.000373,-0.000346,-0.009942,-0.002282, 0.002018, 0.042602,1,-0.008990, 0.000367,-0.000681,1,-0.369344, 0.342337, 9.793711,1,1
1778256393424,  1329.550,  1329.550, 0.037674,-0.034307,-0.994089, 0.000376,-0.000340,-0.009944, 0.000006, 0.004486, 0.045076,1,-0.007950, 0.000321,-0.000192,1,-0.369457, 0.340678, 9.793764,1,1
1778256393445,  1329.575,  1329.570, 0.037470,-0.033627,-0.994993, 0.000377,-0.000335,-0.009950, 0.001091, 0.010149, 0.033439,1,-0.007220,-0.000254,-0.000312,1,-0.369526, 0.339176, 9.793814,1,1
1778256393468,  1329.600,  1329.595, 0.037662,-0.033562,-0.994926, 0.000378,-0.000335,-0.009952,-0.000301, 0.008602, 0.036965,1,-0.004864, 0.000480,-0.000747,1,-0.369654, 0.337585, 9.793864,1,1
1778256393494,  1329.620,  1329.620, 0.037370,-0.033226,-0.995339, 0.000373,-0.000333,-0.009954,-0.003118, 0.011055, 0.032951,1,-0.004726,-0.000938, 0.000152,1,-0.369559, 0.336743, 9.793897,1,1
1778256393515,  1329.645,  1329.640, 0.037789,-0.033039,-0.994274, 0.000378,-0.000331,-0.009944,-0.003415, 0.011612, 0.040335,1,-0.003060, 0.000140,-0.000183,1,-0.369528, 0.336156, 9.793918,1,1
1778256393538,  1329.670,  1329.665, 0.037738,-0.032700,-0.994018, 0.000378,-0.000330,-0.009944, 0.000544, 0.014831, 0.045955,1,-0.000821,-0.000026,-0.000096,1,-0.369536, 0.335476, 9.793941,1,1
1778256393564,  1329.690,  1329.690, 0.037541,-0.033147,-0.995051, 0.000374,-0.000334,-0.009950,-0.001324, 0.010414, 0.035828,1, 0.000833,-0.000196, 0.000500,1,-0.369472, 0.335504, 9.793942,1,1
1778256393585,  1329.715,  1329.710, 0.037981,-0.033373,-0.994599, 0.000379,-0.000335,-0.009949,-0.003926, 0.007095, 0.037082,1, 0.001554, 0.000027, 0.000184,1,-0.369511, 0.335821, 9.793930,1,1
1778256393608,  1329.740,  1329.735, 0.038294,-0.033364,-0.994707, 0.000381,-0.000332,-0.009948, 0.006164, 0.009177, 0.039170,1, 0.002543,-0.000111, 0.000765,1,-0.369367, 0.336451, 9.793914,1,1
1778256393634,  1329.760,  1329.760, 0.038102,-0.034540,-0.994930, 0.000382,-0.000343,-0.009951, 0.004278,-0.001690, 0.036958,1, 0.003534,-0.000458, 0.000771,1,-0.369357, 0.337146, 9.793891,1,1
1778256393655,  1329.785,  1329.780, 0.037303,-0.034073,-0.994450, 0.000375,-0.000341,-0.009945,-0.000292, 0.004912, 0.039218,1, 0.002883, 0.000542, 0.000598,1,-0.369336, 0.337801, 9.793869,1,1
1778256393682,  1329.810,  1329.810, 0.037482,-0.034380,-0.994538, 0.000374,-0.000342,-0.009945,-0.001710, 0.001576, 0.040747,1, 0.003816,-0.000387,-0.000291,1,-0.369267, 0.338843, 9.793836,1,1
1778256393704,  1329.830,  1329.830, 0.037092,-0.035005,-0.994629, 0.000372,-0.000352,-0.009948,-0.005457,-0.003821, 0.039838,1, 0.003253,-0.000042, 0.000279,1,-0.369199, 0.339567, 9.793813,1,1
1778256393725,  1329.855,  1329.850, 0.037118,-0.034868,-0.994316, 0.000370,-0.000350,-0.009946,-0.009750,-0.007984, 0.039696,1, 0.003043, 0.000008, 0.000515,1,-0.369146, 0.340267, 9.793791,1,1
1778256393752,  1329.880,  1329.880, 0.035760,-0.034884,-0.995073, 0.000360,-0.000350,-0.009950,-0.018384,-0.001176, 0.035439,1, 0.002852, 0.000140, 0.000084,1,-0.369074, 0.341010, 9.793768,1,1
1778256393774,  1329.905,  1329.900, 0.037077,-0.035562,-0.994579, 0.000373,-0.000354,-0.009947,-0.005507,-0.002426, 0.044975,1, 0.001721, 0.000577,-0.000158,1,-0.369125, 0.341357, 9.793754,1,1
1778256393796,  1329.925,  1329.920, 0.037901,-0.035813,-0.994821, 0.000378,-0.000359,-0.009946,-0.000316,-0.013233, 0.040243,1,-0.000295,-0.000704,-0.001036,1,-0.369047, 0.341489, 9.793752,1,1
1778256393823,  1329.950,  1329.950, 0.037945,-0.035802,-0.995153, 0.000381,-0.000358,-0.009951, 0.003041,-0.009580, 0.034633,1,-0.000952, 0.000140,-0.000083,1,-0.369081, 0.341492, 9.793751,1,1
1778256393844,  1329.975,  1329.970, 0.038743,-0.034993,-0.994061, 0.000386,-0.000351,-0.009945, 0.009740,-0.006372, 0.039324,1,-0.001281,-0.000134, 0.000295,1,-0.369062, 0.341263, 9.793759,1,1
1778256393866,  1329.995,  1329.990, 0.038513,-0.035592,-0.994545, 0.000386,-0.000355,-0.009947, 0.010428,-0.004724, 0.045435,1,-0.002172,-0.000383,-0.000362,1,-0.369051, 0.340894, 9.793773,1,1
1778256393893,  1330.020,  1330.020, 0.038438,-0.035553,-0.995105, 0.000387,-0.000357,-0.009950, 0.007822,-0.008500, 0.035146,1,-0.002677, 0.000822,-0.000242,1,-0.369155, 0.340076, 9.793797,1,1
1778256393914,  1330.045,  1330.040, 0.037660,-0.034467,-0.994675, 0.000378,-0.000343,-0.009945, 0.006248,-0.001550, 0.037906,1,-0.003212,-0.000507,-0.001141,1,-0.369219, 0.339349, 9.793819,1,1
1778256393936,  1330.065,  1330.060, 0.037786,-0.034378,-0.995212, 0.000380,-0.000346,-0.009953, 0.002992, 0.000067, 0.040263,1,-0.003265,-0.000028,-0.000926,1,-0.369335, 0.338863, 9.793832,1,1
1778256393963,  1330.090,  1330.090, 0.037371,-0.034125,-0.994478, 0.000373,-0.000341,-0.009948,-0.002944, 0.003305, 0.041359,1,-0.003815,-0.000194,-0.000784,1,-0.369426, 0.337835, 9.793864,1,1
1778256393984,  1330.115,  1330.110, 0.036733,-0.033203,-0.994640, 0.000368,-0.000332,-0.009948,-0.008998, 0.008872, 0.034807,1,-0.002740, 0.000777, 0.000024,1,-0.369478, 0.337247, 9.793882,1,1
1778256394006,  1330.135,  1330.130, 0.037029,-0.033590,-0.995009, 0.000369,-0.000335,-0.009952,-0.006374, 0.009437, 0.038899,1,-0.002661, 0.000046,-0.000380,1,-0.369455, 0.336742, 9.793900,1,1
1778256394033,  1330.160,  1330.160, 0.036454,-0.032750,-0.994568, 0.000365,-0.000328,-0.009949,-0.012114, 0.015296, 0.040525,1, 0.000631, 0.000530, 0.000269,1,-0.369620, 0.336487, 9.793903,1,1
1778256394054,  1330.185,  1330.180, 0.036781,-0.033307,-0.994871, 0.000366,-0.000331,-0.009949,-0.009133, 0.011903, 0.039695,1, 0.001378, 0.000137, 0.000530,1,-0.369595, 0.336581, 9.793901,1,1
1778256394076,  1330.205,  1330.200, 0.037593,-0.032935,-0.994602, 0.000375,-0.000330,-0.009946,-0.003521, 0.010469, 0.037161,1, 0.002159,-0.000378, 0.000821,1,-0.369598, 0.336905, 9.793890,1,1
1778256394103,  1330.230,  1330.230, 0.037771,-0.033411,-0.994753, 0.000377,-0.000333,-0.009947, 0.000794, 0.010018, 0.038667,1, 0.002733,-0.000137, 0.000154,1,-0.369610, 0.337753, 9.793860,1,1
1778256394124,  1330.255,  1330.250, 0.037619,-0.034105,-0.994677, 0.000378,-0.000340,-0.009948, 0.003239, 0.011501, 0.038926,1, 0.004591, 0.000899,-0.000125,1,-0.369621, 0.338567, 9.793832,1,1
1778256394146,  1330.275,  1330.270, 0.037593,-0.033476,-0.995884, 0.000379,-0.000336,-0.009957, 0.004751, 0.007405, 0.035963,1, 0.004729,-0.000415, 0.000517,1,-0.369507, 0.339372, 9.793808,1,1
1778256394173,  1330.300,  1330.300, 0.037951,-0.034546,-0.994733, 0.000380,-0.000342,-0.009947, 0.002756, 0.002171, 0.038757,1, 0.006841,-0.000985, 0.000022,1,-0.369386, 0.341162, 9.793751,1,1
1778256394194,  1330.325,  1330.320, 0.038061,-0.034649,-0.994723, 0.000380,-0.000346,-0.009949, 0.002717, 0.006019, 0.040387,1, 0.007230, 0.000434, 0.000371,1,-0.369353, 0.342584, 9.793702,1,1
1778256394217,  1330.345,  1330.345, 0.037879,-0.034480,-0.994891, 0.000380,-0.000346,-0.009951, 0.002207, 0.006503, 0.037081,1, 0.008439,-0.000309, 0.000973,1,-0.369247, 0.344904, 9.793625,1,1
1778256394243,  1330.370,  1330.370, 0.037597,-0.034554,-0.994735, 0.000378,-0.000346,-0.009949,-0.000400, 0.007356, 0.038566,1, 0.008798,-0.000614, 0.000338,1,-0.369082, 0.346492, 9.793574,1,1
1778256394265,  1330.395,  1330.390, 0.037531,-0.035028,-0.994685, 0.000375,-0.000352,-0.009950, 0.000675, 0.001067, 0.037721,1, 0.008895,-0.001031, 0.000029,1,-0.368931, 0.348153, 9.793522,1,1
1778256394287,  1330.415,  1330.415, 0.037370,-0.036394,-0.994717, 0.000373,-0.000365,-0.009949,-0.002288,-0.006494, 0.038603,1, 0.009244,-0.000178, 0.000519,1,-0.368759, 0.350702, 9.793437,1,1
1778256394313,  1330.440,  1330.440, 0.036992,-0.036718,-0.994986, 0.000370,-0.000367,-0.009948,-0.005909,-0.008041, 0.035915,1, 0.008591,-0.000195, 0.000699,1,-0.368674, 0.352311, 9.793383,1,1
1778256394335,  1330.465,  1330.460, 0.036906,-0.037379,-0.994666, 0.000370,-0.000376,-0.009948,-0.006148,-0.009603, 0.039885,1, 0.008234,-0.001007, 0.001183,1,-0.368592, 0.353889, 9.793328,1,1
1778256394357,  1330.485,  1330.485, 0.036604,-0.037597,-0.994518, 0.000366,-0.000376,-0.009943,-0.009463,-0.013094, 0.040383,1, 0.005406,-0.000363, 0.000877,1,-0.368410, 0.355778, 9.793267,1,1
1778256394383,  1330.510,  1330.510, 0.036747,-0.038542,-0.994551, 0.000369,-0.000386,-0.009945,-0.007950,-0.021519, 0.040032,1, 0.003139, 0.000282, 0.000764,1,-0.368318, 0.356549, 9.793242,1,1
1778256394405,  1330.535,  1330.530, 0.036499,-0.039138,-0.994566, 0.000366,-0.000390,-0.009944,-0.009121,-0.023445, 0.038738,1, 0.001048,-0.000225,-0.000189,1,-0.368255, 0.356908, 9.793232,1,1
1778256394428,  1330.555,  1330.555, 0.037232,-0.039067,-0.994385, 0.000371,-0.000391,-0.009949,-0.003277,-0.026720, 0.041656,1,-0.003340, 0.000926, 0.000205,1,-0.368428, 0.356291, 9.793248,1,1
1778256394453,  1330.580,  1330.580, 0.038165,-0.038816,-0.995042, 0.000380,-0.000389,-0.009948, 0.005798,-0.025117, 0.035243,1,-0.005685, 0.000831,-0.000158,1,-0.368502, 0.355358, 9.793279,1,1
1778256394475,  1330.605,  1330.600, 0.037624,-0.038247,-0.994586, 0.000378,-0.000387,-0.009949, 0.004092,-0.027451, 0.034187,1,-0.008345, 0.000285, 0.000666,1,-0.368517, 0.353858, 9.793333,1,1
1778256394498,  1330.625,  1330.625, 0.038456,-0.037890,-0.993805, 0.000383,-0.000380,-0.009937, 0.008262,-0.020653, 0.047524,1,-0.012893, 0.000942,-0.000589,1,-0.368893, 0.350519, 9.793439,1,1
1778256394523,  1330.650,  1330.650, 0.038469,-0.037693,-0.994525, 0.000386,-0.000377,-0.009945, 0.008097,-0.021447, 0.040549,1,-0.014620, 0.001349,-0.001188,1,-0.369201, 0.347736, 9.793526,1,1
1778256394545,  1330.675,  1330.670, 0.038700,-0.036063,-0.994419, 0.000386,-0.000364,-0.009945, 0.012101,-0.015530, 0.039288,1,-0.017695, 0.001860,-0.001081,1,-0.369476, 0.344953, 9.793614,1,1
1778256394568,  1330.700,  1330.695, 0.038300,-0.035354,-0.994842, 0.000383,-0.000354,-0.009947, 0.005680,-0.006633, 0.037702,1,-0.019291, 0.002632,-0.001681,1,-0.369996, 0.339472, 9.793786,1,1
1778256394593,  1330.720,  1330.720, 0.037448,-0.034396,-0.995118, 0.000375,-0.000345,-0.009952,-0.002984,-0.001246, 0.035116,1,-0.020604, 0.001246,-0.000608,1,-0.370262, 0.335424, 9.793916,1,1
1778256394615,  1330.745,  1330.740, 0.037718,-0.032797,-0.994880, 0.000379,-0.000330,-0.009949, 0.000440, 0.003947, 0.042116,1,-0.019654, 0.002133,-0.001105,1,-0.370598, 0.331564, 9.794034,1,1
1778256394638,  1330.770,  1330.765, 0.037316,-0.031691,-0.994945, 0.000373,-0.000317,-0.009947,-0.005124, 0.015706, 0.037114,1,-0.018548, 0.001815,-0.001159,1,-0.371126, 0.325906, 9.794204,1,1
1778256394664,  1330.790,  1330.790, 0.036855,-0.030775,-0.995080, 0.000370,-0.000310,-0.009953,-0.010038, 0.021275, 0.035887,1,-0.016273, 0.002609,-0.001583,1,-0.371550, 0.322565, 9.794299,1,1
1778256394685,  1330.815,  1330.810, 0.037151,-0.029049,-0.994986, 0.000372,-0.000293,-0.009951,-0.009930, 0.031076, 0.041956,1,-0.013289, 0.000407,-0.000251,1,-0.371797, 0.319659, 9.794385,1,1
1778256394708,  1330.840,  1330.835, 0.037567,-0.029454,-0.995759, 0.000376,-0.000292,-0.009957,-0.003576, 0.027783, 0.029418,1,-0.009734, 0.000390,-0.000715,1,-0.371993, 0.316320, 9.794485,1,1
1778256394734,  1330.860,  1330.860, 0.037073,-0.028792,-0.994398, 0.000372,-0.000288,-0.009947,-0.008542, 0.032637, 0.042808,1,-0.005902, 0.000602,-0.000204,1,-0.372131, 0.314765, 9.794531,1,1
1778256394755,  1330.885,  1330.880, 0.037589,-0.028799,-0.995835, 0.000373,-0.000286,-0.009954,-0.009996, 0.035921, 0.033812,1,-0.001550,-0.000227,-0.000442,1,-0.372172, 0.314186, 9.794547,1,1
1778256394778,  1330.910,  1330.905, 0.037956,-0.028704,-0.995695, 0.000380,-0.000286,-0.009960, 0.000212, 0.032992, 0.030116,1, 0.003119,-0.000635,-0.000359,1,-0.371994, 0.314575, 9.794541,1,1
1778256394804,  1330.930,  1330.930, 0.038421,-0.029608,-0.994486, 0.000384,-0.000295,-0.009944, 0.004835, 0.025108, 0.041935,1, 0.006718,-0.000025,-0.000092,1,-0.371948, 0.315673, 9.794508,1,1
1778256394825,  1330.955,  1330.950, 0.038380,-0.029432,-0.995580, 0.000382,-0.000294,-0.009957,-0.000503, 0.033101, 0.038722,1, 0.009964,-0.000913, 0.000824,1,-0.371804, 0.317407, 9.794457,1,1
1778256394848,  1330.980,  1330.975, 0.037989,-0.030074,-0.995559, 0.000381,-0.000301,-0.009957, 0.000943, 0.025660, 0.031263,1, 0.014126,-0.001719, 0.000638,1,-0.371546, 0.321026, 9.794350,1,1
1778256394874,  1331.000,  1331.000, 0.038284,-0.030081,-0.994462, 0.000380,-0.000299,-0.009947, 0.004071, 0.028719, 0.041929,1, 0.016391,-0.000823, 0.000679,1,-0.371342, 0.324227, 9.794251,1,1
1778256394895,  1331.025,  1331.020, 0.038388,-0.032191,-0.995502, 0.000384,-0.000320,-0.009956, 0.003588, 0.011986, 0.035265,1, 0.019188,-0.001557, 0.000449,1,-0.371088, 0.327885, 9.794140,1,1
1778256394922,  1331.050,  1331.050, 0.037747,-0.033372,-0.994901, 0.000374,-0.000333,-0.009949,-0.000673, 0.005907, 0.037323,1, 0.020771,-0.000247, 0.002045,1,-0.370835, 0.333824, 9.793948,1,1
1778256394944,  1331.070,  1331.070, 0.037212,-0.034420,-0.994717, 0.000370,-0.000343,-0.009949,-0.005609,-0.000920, 0.039023,1, 0.020838,-0.001662, 0.001688,1,-0.370479, 0.337270, 9.793844,1,1
1778256394965,  1331.095,  1331.090, 0.036083,-0.036362,-0.994748, 0.000362,-0.000362,-0.009948,-0.008686,-0.009880, 0.036320,1, 0.020876,-0.001641, 0.001420,1,-0.370139, 0.341327, 9.793716,1,1
1778256394992,  1331.120,  1331.120, 0.036168,-0.036952,-0.993215, 0.000362,-0.000369,-0.009933,-0.015060,-0.015919, 0.053439,1, 0.018449,-0.001085, 0.001177,1,-0.369710, 0.347036, 9.793531,1,1
1778256395014,  1331.145,  1331.140, 0.036207,-0.038851,-0.994721, 0.000362,-0.000390,-0.009947,-0.012762,-0.025969, 0.042113,1, 0.015368,-0.000760, 0.000797,1,-0.369489, 0.350208, 9.793427,1,1
1778256395036,  1331.165,  1331.160, 0.036457,-0.038972,-0.994493, 0.000364,-0.000389,-0.009949,-0.014296,-0.023999, 0.038224,1, 0.013146,-0.000952, 0.000420,1,-0.369307, 0.352927, 9.793337,1,1
1778256395062,  1331.190,  1331.190, 0.037464,-0.039554,-0.994247, 0.000372,-0.000396,-0.009944,-0.001681,-0.032569, 0.043025,1, 0.007173,-0.000611,-0.000200,1,-0.369059, 0.355544, 9.793251,1,1
1778256395084,  1331.215,  1331.210, 0.037636,-0.040015,-0.994358, 0.000376,-0.000401,-0.009945,-0.003117,-0.037406, 0.040594,1, 0.002604, 0.000249, 0.000197,1,-0.369032, 0.356266, 9.793226,1,1
1778256395106,  1331.235,  1331.230, 0.037984,-0.039640,-0.994189, 0.000380,-0.000398,-0.009942, 0.008011,-0.034333, 0.045672,1,-0.001769, 0.000643,-0.000412,1,-0.369119, 0.356071, 9.793230,1,1
1778256395133,  1331.260,  1331.260, 0.038854,-0.039880,-0.994038, 0.000386,-0.000398,-0.009943, 0.011906,-0.036095, 0.045085,1,-0.008726,-0.000111,-0.001011,1,-0.369088, 0.354871, 9.793275,1,1
1778256395154,  1331.285,  1331.280, 0.038797,-0.037836,-0.994148, 0.000391,-0.000381,-0.009946, 0.017604,-0.027328, 0.040176,1,-0.011552, 0.001349,-0.001099,1,-0.369342, 0.352762, 9.793341,1,1
1778256395176,  1331.305,  1331.300, 0.039042,-0.037962,-0.994672, 0.000391,-0.000379,-0.009946, 0.015405,-0.022041, 0.045251,1,-0.014783, 0.001467,-0.001430,1,-0.369676, 0.349995, 9.793427,1,1
1778256395203,  1331.330,  1331.330, 0.038753,-0.036927,-0.994850, 0.000387,-0.000371,-0.009949, 0.010067,-0.016547, 0.037431,1,-0.018872, 0.000557,-0.001716,1,-0.369994, 0.344996, 9.793593,1,1
1778256395224,  1331.355,  1331.350, 0.038461,-0.035021,-0.994971, 0.000384,-0.000350,-0.009950, 0.004178,-0.004033, 0.040473,1,-0.019221, 0.000931,-0.000830,1,-0.370269, 0.341298, 9.793713,1,1
1778256395246,  1331.375,  1331.370, 0.037481,-0.033653,-0.994696, 0.000376,-0.000338,-0.009950, 0.003160,-0.002263, 0.042314,1,-0.019170, 0.001246,-0.001097,1,-0.370540, 0.337588, 9.793831,1,1
1778256395273,  1331.400,  1331.400, 0.037429,-0.032980,-0.994583, 0.000377,-0.000331,-0.009946,-0.003922, 0.009005, 0.040461,1,-0.018896, 0.001065,-0.001522,1,-0.371006, 0.331837, 9.794009,1,1
1778256395294,  1331.425,  1331.420, 0.036742,-0.031889,-0.994989, 0.000364,-0.000322,-0.009948,-0.006599, 0.014731, 0.034768,1,-0.018451, 0.001654,-0.001117,1,-0.371219, 0.328193, 9.794125,1,1
1778256395316,  1331.445,  1331.440, 0.036738,-0.031454,-0.994722, 0.000367,-0.000314,-0.009948,-0.007607, 0.016566, 0.036608,1,-0.016668, 0.000691,-0.001260,1,-0.371406, 0.324803, 9.794230,1,1
1778256395343,  1331.470,  1331.470, 0.036656,-0.030446,-0.995303, 0.000365,-0.000305,-0.009952,-0.012341, 0.022440, 0.033749,1,-0.013557, 0.000477,-0.000881,1,-0.371835, 0.320588, 9.794353,1,1
1778256395364,  1331.495,  1331.490, 0.036868,-0.029926,-0.995179, 0.000370,-0.000299,-0.009952,-0.009987, 0.019364, 0.039328,1,-0.011580, 0.000863,-0.000863,1,-0.372026, 0.318104, 9.794427,1,1
1778256395386,  1331.515,  1331.510, 0.037231,-0.029332,-0.994920, 0.000374,-0.000295,-0.009953,-0.009106, 0.028218, 0.037396,1,-0.008162, 0.001126,-0.000377,1,-0.372248, 0.316279, 9.794477,1,1
1778256395413,  1331.540,  1331.540, 0.037895,-0.028917,-0.994938, 0.000378,-0.000290,-0.009950,-0.000724, 0.030925, 0.037523,1,-0.005209, 0.000295,-0.000078,1,-0.372354, 0.314344, 9.794536,1,1
1778256395435,  1331.565,  1331.560, 0.038225,-0.029152,-0.994678, 0.000382,-0.000290,-0.009947, 0.003490, 0.021526, 0.038215,1,-0.003370, 0.001171, 0.000051,1,-0.372491, 0.313658, 9.794552,1,1
1778256395457,  1331.585,  1331.585, 0.038333,-0.029559,-0.995207, 0.000383,-0.000295,-0.009953, 0.003529, 0.023745, 0.034907,1, 0.002292,-0.000870,-0.000090,1,-0.372358, 0.313689, 9.794557,1,1
1778256395483,  1331.610,  1331.610, 0.038153,-0.029834,-0.995311, 0.000381,-0.000298,-0.009953, 0.001878, 0.021621, 0.033880,1, 0.003331,-0.000625,-0.000001,1,-0.372255, 0.314295, 9.794540,1,1
1778256395505,  1331.635,  1331.630, 0.037839,-0.030150,-0.994675, 0.000379,-0.000300,-0.009948,-0.003427, 0.017833, 0.037890,1, 0.006538,-0.000814, 0.000246,1,-0.372100, 0.315382, 9.794512,1,1
1778256395527,  1331.650,  1331.655, 0.037609,-0.030284,-0.995160, 0.000378,-0.000301,-0.009950,-0.002414, 0.011834, 0.038125,1, 0.008797,-0.000971, 0.001022,1,-0.371842, 0.317154, 9.794464,1,1
1778256395553,  1331.680,  1331.680, 0.037393,-0.031134,-0.994713, 0.000377,-0.000313,-0.009947,-0.004996, 0.013527, 0.039612,1, 0.012080,-0.001080, 0.001103,1,-0.371658, 0.319228, 9.794404,1,1
1778256395575,  1331.705,  1331.700, 0.036878,-0.031902,-0.994641, 0.000369,-0.000318,-0.009948,-0.009749, 0.009660, 0.040320,1, 0.011996,-0.000730, 0.000529,1,-0.371475, 0.321434, 9.794339,1,1
1778256395597,  1331.725,  1331.725, 0.037052,-0.032992,-0.994775, 0.000369,-0.000329,-0.009951,-0.007907, 0.001158, 0.038825,1, 0.011831,-0.001026, 0.000618,1,-0.371230, 0.325068, 9.794228,1,1
1778256395623,  1331.750,  1331.750, 0.036811,-0.032891,-0.994864, 0.000370,-0.000329,-0.009951,-0.010025, 0.004559, 0.037879,1, 0.012363,-0.001392, 0.001112,1,-0.370977, 0.327497, 9.794157,1,1
1778256395645,  1331.775,  1331.770, 0.037087,-0.033368,-0.994448, 0.000371,-0.000335,-0.009945,-0.007789, 0.001313, 0.043065,1, 0.012367,-0.000844, 0.000870,1,-0.370816, 0.329979, 9.794080,1,1
1778256395668,  1331.795,  1331.795, 0.037210,-0.035105,-0.994419, 0.000371,-0.000350,-0.009946,-0.005608,-0.011213, 0.042070,1, 0.011355,-0.001050, 0.000322,1,-0.370484, 0.333407, 9.793976,1,1
1778256395693,  1331.820,  1331.820, 0.037394,-0.034966,-0.994793, 0.000375,-0.000352,-0.009951,-0.003705,-0.007801, 0.038338,1, 0.009376,-0.001082, 0.000762,1,-0.370377, 0.335397, 9.793912,1,1
1778256395715,  1331.845,  1331.840, 0.037907,-0.035460,-0.994183, 0.000379,-0.000353,-0.009944,-0.000227,-0.008682, 0.041236,1, 0.009578,-0.000638,-0.000289,1,-0.370341, 0.336301, 9.793882,1,1
1778256395738,  1331.865,  1331.865, 0.037793,-0.036110,-0.994646, 0.000377,-0.000360,-0.009949, 0.000669,-0.015090, 0.039655,1, 0.006717,-0.000615, 0.000024,1,-0.369933, 0.339237, 9.793797,1,1
1778256395763,  1331.890,  1331.890, 0.037599,-0.036245,-0.994333, 0.000377,-0.000359,-0.009943,-0.001166,-0.015332, 0.042695,1, 0.004034,-0.000153, 0.000391,1,-0.369883, 0.340237, 9.793764,1,1
1778256395785,  1331.915,  1331.910, 0.038019,-0.036595,-0.995513, 0.000380,-0.000365,-0.009955,-0.008333,-0.016588, 0.039180,1, 0.002569, 0.000137,-0.000223,1,-0.369887, 0.340793, 9.793744,1,1
1778256395808,  1331.940,  1331.935, 0.038114,-0.036710,-0.994764, 0.000378,-0.000363,-0.009948, 0.003846,-0.019041, 0.038431,1,-0.001036, 0.000354,-0.000361,1,-0.369940, 0.340934, 9.793737,1,1
1778256395833,  1331.960,  1331.960, 0.038117,-0.035754,-0.994777, 0.000381,-0.000358,-0.009947, 0.003791,-0.009947, 0.038312,1,-0.002582, 0.000616,-0.000690,1,-0.370030, 0.340602, 9.793746,1,1
1778256395855,  1331.985,  1331.980, 0.037449,-0.036146,-0.994793, 0.000374,-0.000360,-0.009948,-0.002781,-0.013426, 0.043940,1,-0.003293, 0.000036,-0.000830,1,-0.370050, 0.339984, 9.793766,1,1
1778256395878,  1332.010,  1332.005, 0.037529,-0.035338,-0.994430, 0.000375,-0.000354,-0.009944,-0.001951,-0.007814, 0.041783,1,-0.006468,-0.000322, 0.000005,1,-0.369973, 0.338533, 9.793819,1,1
1778256395904,  1332.030,  1332.030, 0.037931,-0.035080,-0.994254, 0.000380,-0.000350,-0.009944, 0.001964,-0.006393, 0.043546,1,-0.005756, 0.000610,-0.000377,1,-0.370035, 0.337443, 9.793855,1,1
1778256395925,  1332.055,  1332.050, 0.037218,-0.034717,-0.994910, 0.000375,-0.000347,-0.009951,-0.005121,-0.001469, 0.042519,1,-0.006586,-0.000092,-0.000736,1,-0.370034, 0.336214, 9.793897,1,1
1778256395948,  1332.080,  1332.075, 0.037480,-0.033370,-0.994807, 0.000377,-0.000336,-0.009948,-0.002688, 0.007555, 0.038214,1,-0.006319, 0.000893,-0.000585,1,-0.370271, 0.334610, 9.793943,1,1
1778256395974,  1332.100,  1332.100, 0.037973,-0.033829,-0.994549, 0.000379,-0.000340,-0.009947, 0.002040, 0.001760, 0.040779,1,-0.006278, 0.000646,-0.000115,1,-0.370365, 0.333312, 9.793983,1,1
1778256395995,  1332.125,  1332.120, 0.037640,-0.033240,-0.994835, 0.000376,-0.000332,-0.009947, 0.004245, 0.005718, 0.035171,1,-0.006749, 0.000981,-0.000469,1,-0.370489, 0.332066, 9.794022,1,1
1778256396018,  1332.150,  1332.145, 0.038084,-0.033052,-0.994990, 0.000380,-0.000331,-0.009951, 0.002874, 0.006490, 0.036546,1,-0.005073, 0.000740,-0.000092,1,-0.370623, 0.330458, 9.794070,1,1
1778256396044,  1332.170,  1332.170, 0.037655,-0.032751,-0.995258, 0.000375,-0.000328,-0.009950,-0.001367, 0.008570, 0.033942,1,-0.004160,-0.000056,-0.000511,1,-0.370637, 0.329616, 9.794099,1,1
1778256396065,  1332.195,  1332.190, 0.037136,-0.031993,-0.995375, 0.000374,-0.000321,-0.009951, 0.005605, 0.012093, 0.035174,1,-0.002508,-0.000427,-0.000425,1,-0.370665, 0.329038, 9.794117,1,1
1778256396088,  1332.220,  1332.215, 0.037790,-0.032459,-0.995064, 0.000374,-0.000326,-0.009948,-0.000163, 0.010066, 0.035887,1,-0.001566, 0.000505,-0.000503,1,-0.370769, 0.328326, 9.794137,1,1
1778256396114,  1332.240,  1332.240, 0.037197,-0.032934,-0.994489, 0.000374,-0.000327,-0.009946,-0.005975, 0.005191, 0.041541,1,-0.000890, 0.000132, 0.000030,1,-0.370753, 0.328134, 9.794144,1,1
1778256396135,  1332.265,  1332.260, 0.037526,-0.032224,-0.994489, 0.000374,-0.000320,-0.009947,-0.004649, 0.011442, 0.038264,1, 0.000443, 0.000135,-0.000141,1,-0.370830, 0.328038, 9.794145,1,1
1778256396162,  1332.290,  1332.290, 0.037444,-0.032292,-0.994547, 0.000376,-0.000322,-0.009948,-0.003636, 0.011730, 0.040954,1, 0.001662,-0.000731, 0.000058,1,-0.370809, 0.328460, 9.794131,1,1
1778256396184,  1332.310,  1332.310, 0.037777,-0.032952,-0.994806, 0.000375,-0.000332,-0.009949,-0.000304, 0.005696, 0.038400,1, 0.002053, 0.000300, 0.000057,1,-0.370775, 0.328911, 9.794117,1,1
1778256396205,  1332.335,  1332.330, 0.037621,-0.032370,-0.994698, 0.000377,-0.000325,-0.009950,-0.007324, 0.008549, 0.040928,1, 0.003430,-0.000649, 0.000218,1,-0.370631, 0.329493, 9.794103,1,1
1778256396232,  1332.360,  1332.360, 0.038012,-0.032785,-0.994979, 0.000379,-0.000329,-0.009948, 0.002243, 0.008932, 0.036660,1, 0.004344,-0.000828, 0.000830,1,-0.370505, 0.330583, 9.794071,1,1
1778256396254,  1332.385,  1332.380, 0.037689,-0.033514,-0.994567, 0.000377,-0.000335,-0.009945, 0.002011, 0.010286, 0.044121,1, 0.005089,-0.000818, 0.000420,1,-0.370393, 0.331524, 9.794044,1,1
1778256396276,  1332.405,  1332.400, 0.037584,-0.034115,-0.994593, 0.000377,-0.000340,-0.009946,-0.003352, 0.002485, 0.043295,1, 0.004830,-0.000412, 0.000170,1,-0.370354, 0.332437, 9.794014,1,1
1778256396303,  1332.430,  1332.430, 0.037540,-0.033098,-0.995002, 0.000376,-0.000329,-0.009949,-0.002070, 0.009181, 0.036337,1, 0.004946,-0.000276,-0.000076,1,-0.370203, 0.333920, 9.793969,1,1
1778256396324,  1332.455,  1332.450, 0.037402,-0.034773,-0.994841, 0.000373,-0.000347,-0.009947,-0.004179,-0.005761, 0.038701,1, 0.005132, 0.000181, 0.000309,1,-0.370117, 0.334889, 9.793940,1,1
1778256396346,  1332.475,  1332.470, 0.037622,-0.034017,-0.994927, 0.000376,-0.000340,-0.009949,-0.005182,-0.004047, 0.036136,1, 0.003627,-0.000709, 0.000453,1,-0.370053, 0.335660, 9.793916,1,1
1778256396373,  1332.500,  1332.500, 0.037246,-0.034079,-0.994574, 0.000372,-0.000340,-0.009946,-0.004605, 0.002593, 0.040439,1, 0.003551,-0.000843,-0.000135,1,-0.369836, 0.336901, 9.793880,1,1
1778256396394,  1332.525,  1332.520, 0.037536,-0.034687,-0.994942, 0.000377,-0.000349,-0.009947, 0.001647,-0.005167, 0.039049,1, 0.002772,-0.001100,-0.000032,1,-0.369683, 0.337533, 9.793865,1,1
1778256396416,  1332.545,  1332.540, 0.037797,-0.034597,-0.994680, 0.000377,-0.000344,-0.009945,-0.005780,-0.002228, 0.045317,1, 0.001983, 0.000781,-0.000405,1,-0.369710, 0.338023, 9.793847,1,1
1778256396443,  1332.570,  1332.570, 0.037305,-0.035456,-0.994827, 0.000373,-0.000353,-0.009949,-0.003826,-0.009185, 0.037911,1, 0.000666,-0.000505, 0.000484,1,-0.369648, 0.338545, 9.793831,1,1
1778256396464,  1332.595,  1332.590, 0.037037,-0.034420,-0.994733, 0.000372,-0.000345,-0.009948,-0.008455,-0.000608, 0.041419,1, 0.000724, 0.000196, 0.000643,1,-0.369712, 0.338782, 9.793820,1,1
1778256396486,  1332.615,  1332.610, 0.037638,-0.034803,-0.995080, 0.000378,-0.000347,-0.009949, 0.000698, 0.001241, 0.037810,1, 0.000566, 0.000146, 0.000434,1,-0.369682, 0.338962, 9.793816,1,1
1778256396513,  1332.640,  1332.640, 0.038047,-0.034468,-0.994516, 0.000381,-0.000349,-0.009945, 0.003299, 0.000984, 0.040935,1,-0.000744, 0.000344,-0.000034,1,-0.369826, 0.338973, 9.793810,1,1
1778256396534,  1332.665,  1332.660, 0.037541,-0.034789,-0.994525, 0.000376,-0.000347,-0.009946, 0.001608,-0.000292, 0.037387,1,-0.000204,-0.000533,-0.000178,1,-0.369788, 0.339095, 9.793807,1,1
1778256396556,  1332.685,  1332.680, 0.038016,-0.034435,-0.994554, 0.000379,-0.000344,-0.009947,-0.004125, 0.003471, 0.038827,1,-0.000568, 0.000212, 0.000214,1,-0.369770, 0.338969, 9.793812,1,1
1778256396583,  1332.710,  1332.710, 0.037056,-0.034909,-0.994642, 0.000373,-0.000349,-0.009948,-0.006306,-0.003679, 0.039715,1,-0.001407,-0.001033,-0.000102,1,-0.369665, 0.338616, 9.793828,1,1
1778256396604,  1332.735,  1332.730, 0.037482,-0.034577,-0.994879, 0.000375,-0.000345,-0.009949,-0.001523, 0.000989, 0.037756,1,-0.000768, 0.000234,-0.000361,1,-0.369714, 0.338437, 9.793833,1,0
1778256396626,  1332.755,  1332.750, 0.037406,-0.034575,-0.994643, 0.000376,-0.000346,-0.009949, 0.001805,-0.002111, 0.035417,1,-0.000972, 0.000275, 0.000386,1,-0.369760, 0.338202, 9.793839,1,0
1778256396653,  1332.780,  1332.780, 0.037934,-0.033924,-0.995022, 0.000379,-0.000342,-0.009952, 0.002287, 0.005338, 0.036009,1,-0.000800,-0.000684,-0.000192,1,-0.369695, 0.337999, 9.793848,1,0
1778256396675,  1332.805,  1332.800, 0.037246,-0.034655,-0.995089, 0.000374,-0.000346,-0.009950,-0.002256, 0.003723, 0.042631,1, 0.000097,-0.000432,-0.000050,1,-0.369653, 0.337919, 9.793853,1,0
1778256396697,  1332.825,  1332.825, 0.037720,-0.034265,-0.994614, 0.000376,-0.000343,-0.009946, 0.000219, 0.001833, 0.040020,1, 0.000086,-0.000272, 0.000455,1,-0.369682, 0.337857, 9.793854,1,0
1778256396723,  1332.850,  1332.850, 0.037663,-0.033855,-0.994786, 0.000375,-0.000339,-0.009951,-0.000444, 0.005900, 0.038326,1, 0.000190, 0.000024,-0.000104,1,-0.369796, 0.337914, 9.793847,1,0
1778256396745,  1332.875,  1332.870, 0.037747,-0.033783,-0.995166, 0.000375,-0.000337,-0.009951, 0.001270, 0.008782, 0.036070,1, 0.001443, 0.000102,-0.000472,1,-0.369807, 0.338137, 9.793839,1,0
1778256396767,  1332.895,  1332.895, 0.037671,-0.033882,-0.994546, 0.000377,-0.000339,-0.009947,-0.000358, 0.006273, 0.040659,1, 0.001276,-0.000438, 0.000392,1,-0.369770, 0.338579, 9.793825,1,0
1778256396793,  1332.920,  1332.920, 0.037384,-0.034382,-0.995023, 0.000375,-0.000342,-0.009947,-0.003152, 0.001704, 0.035976,1, 0.002141, 0.000229,-0.000124,1,-0.369776, 0.338948, 9.793813,1,0
1778256396815,  1332.945,  1332.940, 0.037205,-0.034415,-0.994583, 0.000374,-0.000344,-0.009944,-0.002969, 0.002936, 0.043514,1, 0.001847, 0.000275, 0.000266,1,-0.369785, 0.339331, 9.793799,1,0
1778256396837,  1332.965,  1332.965, 0.037568,-0.034228,-0.994728, 0.000379,-0.000344,-0.009948,-0.001314, 0.004122, 0.038831,1, 0.001481,-0.000560,-0.000631,1,-0.369712, 0.339828, 9.793784,1,0
1778256396863,  1332.990,  1332.990, 0.037463,-0.035121,-0.994772, 0.000377,-0.000349,-0.009949,-0.002288,-0.004264, 0.038396,1, 0.001110,-0.000171,-0.000001,1,-0.369672, 0.340186, 9.793774,1,0
1778256396885,  1333.015,  1333.010, 0.037425,-0.034510,-0.995093, 0.000373,-0.000344,-0.009951,-0.002034, 0.002297, 0.041070,1, 0.001831,-0.000440,-0.000214,1,-0.369652, 0.340542, 9.793762,1,0
1778256396908,  1333.035,  1333.035, 0.037543,-0.034752,-0.994718, 0.000376,-0.000347,-0.009944,-0.001388, 0.000009, 0.038904,1, 0.000900, 0.000407, 0.000385,1,-0.369570, 0.340840, 9.793755,1,0
1778256396933,  1333.060,  1333.060, 0.037900,-0.034921,-0.995156, 0.000379,-0.000350,-0.009950, 0.002116,-0.001584, 0.034604,1, 0.000046,-0.000368, 0.000483,1,-0.369546, 0.340870, 9.793755,1,0
1778256396955,  1333.085,  1333.080, 0.037552,-0.035058,-0.994585, 0.000374,-0.000351,-0.009946,-0.002560, 0.000444, 0.037204,1, 0.000700,-0.000067,-0.000193,1,-0.369509, 0.341061, 9.793749,1,0
1778256396978,  1333.105,  1333.105, 0.037459,-0.034738,-0.994804, 0.000374,-0.000347,-0.009948,-0.002139, 0.000488, 0.038051,1,-0.000064,-0.000238, 0.000157,1,-0.369479, 0.341149, 9.793747,1,0
1778256397003,  1333.130,  1333.130, 0.037675,-0.035084,-0.994649, 0.000373,-0.000350,-0.009948, 0.000014,-0.002921, 0.039572,1, 0.000750, 0.000336,-0.000308,1,-0.369459, 0.341158, 9.793748,1,0
1778256397025,  1333.155,  1333.150, 0.037640,-0.034780,-0.994253, 0.000377,-0.000348,-0.009945, 0.000016,-0.000685, 0.040670,1, 0.000772, 0.000309, 0.000082,1,-0.369458, 0.341118, 9.793749,1,0
1778256397048,  1333.180,  1333.175, 0.037832,-0.034660,-0.995110, 0.000376,-0.000349,-0.009950, 0.001560, 0.001105, 0.035056,1,-0.000610, 0.000200,-0.000002,1,-0.369455, 0.340985, 9.793754,1,0
1778256397073,  1333.200,  1333.200, 0.037464,-0.034629,-0.994662, 0.000374,-0.000345,-0.009945,-0.002040, 0.001385, 0.039450,1,-0.000675,-0.000190,-0.000096,1,-0.369434, 0.340955, 9.793756,1,0
1778256397095,  1333.225,  1333.220, 0.037364,-0.034629,-0.995021, 0.000375,-0.000344,-0.009950,-0.001212, 0.000839, 0.042666,1,-0.000971,-0.000563, 0.000035,1,-0.369442, 0.340848, 9.793759,1,0
1778256397118,  1333.250,  1333.245, 0.037113,-0.034279,-0.994620, 0.000373,-0.000342,-0.009949,-0.005427, 0.004604, 0.039874,1,-0.000024, 0.000350, 0.000102,1,-0.369392, 0.340764, 9.793764,1,0
1778256397144,  1333.270,  1333.270, 0.037376,-0.034618,-0.994836, 0.000374,-0.000348,-0.009950,-0.002828, 0.001269, 0.037758,1, 0.000153,-0.000985,-0.000125,1,-0.369329, 0.340756, 9.793767,1,0
1778256397165,  1333.295,  1333.290, 0.037417,-0.034476,-0.995146, 0.000375,-0.000346,-0.009951,-0.005703, 0.001139, 0.038564,1,-0.000061,-0.000030, 0.000119,1,-0.369320, 0.340779, 9.793766,1,0
1778256397188,  1333.320,  1333.315, 0.037305,-0.034202,-0.994262, 0.000373,-0.000340,-0.009944,-0.003448, 0.005514, 0.043387,1, 0.000774,-0.000136,-0.000473,1,-0.369285, 0.340945, 9.793762,1,0
1778256397214,  1333.340,  1333.340, 0.037278,-0.034490,-0.994672, 0.000374,-0.000344,-0.009944,-0.003787, 0.002849, 0.039354,1, 0.001170, 0.000365,-0.000393,1,-0.369370, 0.341119, 9.793753,1,0
1778256397235,  1333.365,  1333.360, 0.037689,-0.034483,-0.995103, 0.000377,-0.000346,-0.009952, 0.003136, 0.001825, 0.034628,1, 0.001647,-0.000200,-0.000077,1,-0.369359, 0.341476, 9.793740,1,0
1778256397258,  1333.390,  1333.385, 0.038181,-0.034292,-0.994516, 0.000381,-0.000342,-0.009946, 0.005113, 0.005498, 0.040856,1, 0.001398,-0.000081,-0.000087,1,-0.369314, 0.341831, 9.793730,1,0
1778256397284,  1333.410,  1333.410, 0.037936,-0.034968,-0.994752, 0.000382,-0.000348,-0.009952, 0.002753,-0.000806, 0.038534,1, 0.002172,-0.000404, 0.000409,1,-0.369257, 0.342183, 9.793719,1,0
1778256397305,  1333.435,  1333.430, 0.037663,-0.034211,-0.994786, 0.000375,-0.000341,-0.009949, 0.002022, 0.000796, 0.040109,1, 0.001584,-0.000049, 0.000446,1,-0.369253, 0.342493, 9.793709,1,0
1778256397328,  1333.460,  1333.455, 0.037194,-0.034995,-0.994640, 0.000374,-0.000349,-0.009948,-0.004565,-0.000174, 0.039607,1, 0.002571, 0.000260,-0.000111,1,-0.369329, 0.343074, 9.793686,1,0
1778256397354,  1333.480,  1333.480, 0.037552,-0.035466,-0.995038, 0.000374,-0.000354,-0.009949,-0.001056,-0.004334, 0.035683,1, 0.002776,-0.000775, 0.000128,1,-0.369288, 0.343559, 9.793671,1,0
1778256397375,  1333.505,  1333.500, 0.037099,-0.034540,-0.994702, 0.000369,-0.000346,-0.009947,-0.003026, 0.004476, 0.039714,1, 0.002455,-0.000144, 0.000208,1,-0.369264, 0.344048, 9.793654,1,0
1778256397402,  1333.530,  1333.530, 0.037259,-0.034710,-0.994788, 0.000373,-0.000346,-0.009946,-0.003922, 0.004243, 0.038094,1, 0.002293,-0.000098, 0.000317,1,-0.369300, 0.344705, 9.793630,1,0
1778256397424,  1333.550,  1333.550, 0.037486,-0.035123,-0.995001, 0.000374,-0.000351,-0.009950,-0.001639, 0.000630, 0.035994,1, 0.002254,-0.000326, 0.000257,1,-0.369241, 0.345141, 9.793616,1,0
1778256397445,  1333.575,  1333.570, 0.037618,-0.034776,-0.994990, 0.000376,-0.000347,-0.009951, 0.000139, 0.005391, 0.039761,1, 0.001964, 0.000215, 0.000425,1,-0.369200, 0.345626, 9.793601,1,0
1778256397472,  1333.600,  1333.600, 0.037886,-0.035112,-0.994535, 0.000378,-0.000353,-0.009947, 0.002419, 0.001921, 0.040526,1, 0.003649, 0.000171, 0.000135,1,-0.369121, 0.346366, 9.793578,1,0
1778256397494,  1333.625,  1333.620, 0.038151,-0.034926,-0.994364, 0.000381,-0.000348,-0.009947, 0.003322, 0.000493, 0.037971,1, 0.001820,-0.000148, 0.000669,1,-0.369119, 0.346854, 9.793561,1,0
1778256397516,  1333.645,  1333.640, 0.037668,-0.035544,-0.994448, 0.000377,-0.000355,-0.009948, 0.001734,-0.001131, 0.037759,1, 0.003387,-0.000449, 0.000146,1,-0.369028, 0.347421, 9.793544,1,0
1778256397543,  1333.670,  1333.670, 0.037599,-0.035427,-0.994841, 0.000378,-0.000354,-0.009949,-0.000266, 0.000721, 0.037464,1, 0.002611,-0.001167,-0.000383,1,-0.368948, 0.348227, 9.793518,1,0
1778256397564,  1333.695,  1333.690, 0.037228,-0.035365,-0.995481, 0.000373,-0.000352,-0.009957,-0.005435, 0.005437, 0.034661,1, 0.002539,-0.000101, 0.000048,1,-0.368907, 0.348673, 9.793504,1,0
1778256397586,  1333.715,  1333.710, 0.037148,-0.035578,-0.995192, 0.000372,-0.000357,-0.009952,-0.003199, 0.003623, 0.034990,1, 0.002827, 0.000128, 0.000050,1,-0.368852, 0.349181, 9.793488,1,0
1778256397613,  1333.740,  1333.740, 0.037224,-0.034764,-0.994687, 0.000371,-0.000350,-0.009949,-0.003807, 0.009094, 0.038912,1, 0.003633,-0.000911, 0.000373,1,-0.368820, 0.350124, 9.793455,1,0
1778256397634,  1333.765,  1333.760, 0.037222,-0.035104,-0.994593, 0.000374,-0.000350,-0.009947, 0.000475, 0.008711, 0.035285,1, 0.003918,-0.000048, 0.000301,1,-0.368765, 0.350841, 9.793432,1,0
1778256397656,  1333.785,  1333.780, 0.037129,-0.034864,-0.994791, 0.000375,-0.000348,-0.009948,-0.000849, 0.005130, 0.037079,1, 0.003922, 0.000106,-0.000953,1,-0.368802, 0.351622, 9.793403,1,0
1778256397683,  1333.810,  1333.810, 0.037478,-0.034779,-0.994296, 0.000373,-0.000347,-0.009944,-0.001223, 0.011792, 0.042645,1, 0.005532,-0.000382,-0.000497,1,-0.368746, 0.353029, 9.793354,1,0
1778256397704,  1333.835,  1333.830, 0.037720,-0.035014,-0.994547, 0.000377,-0.000350,-0.009946, 0.004194, 0.011967, 0.035812,1, 0.006535,-0.000635, 0.000212,1,-0.368669, 0.354230, 9.793313,1,0
1778256397726,  1333.855,  1333.850, 0.038124,-0.034607,-0.994318, 0.000383,-0.000346,-0.009943, 0.000558, 0.014969, 0.038310,1, 0.007669,-0.001671, 0.000013,1,-0.368510, 0.355666, 9.793267,1,0
1778256397753,  1333.880,  1333.880, 0.038162,-0.034962,-0.995464, 0.000384,-0.000350,-0.009955, 0.005949, 0.015323, 0.031014,1, 0.010658,-0.000583, 0.000458,1,-0.368278, 0.358518, 9.793172,1,0
1778256397774,  1333.905,  1333.900, 0.037949,-0.037708,-0.994368, 0.000378,-0.000369,-0.009938, 0.012239, 0.007556, 0.038344,1, 0.013091,-0.000089, 0.000097,1,-0.368126, 0.360924, 9.793090,1,0
1778256397796,  1333.925,  1333.920, 0.037172,-0.034737,-0.994373, 0.000373,-0.000353,-0.009946,-0.000615, 0.001442, 0.036444,1, 0.014152,-0.000429, 0.001549,1,-0.368018, 0.363600, 9.792994,1,0
1778256397823,  1333.950,  1333.950, 0.037578,-0.033307,-0.994455, 0.000377,-0.000331,-0.009944, 0.000665, 0.041024, 0.040574,1, 0.016904,-0.000872,-0.000660,1,-0.367819, 0.368178, 9.792831,1,0
1778256397844,  1333.975,  1333.970, 0.036664,-0.037675,-0.994655, 0.000370,-0.000379,-0.009948,-0.007962, 0.012809, 0.041081,1, 0.018145,-0.000728,-0.000315,1,-0.367693, 0.371668, 9.792704,1,0
1778256397866,  1333.995,  1333.990, 0.036062,-0.033422,-0.995387, 0.000362,-0.000339,-0.009957,-0.010839, 0.024267, 0.031477,1, 0.021706,-0.000719, 0.000928,1,-0.367497, 0.375656, 9.792559,1,0
1778256397893,  1334.020,  1334.020, 0.036056,-0.033944,-0.994321, 0.000362,-0.000336,-0.009943,-0.013588, 0.049193, 0.041363,1, 0.026593,-0.001287,-0.000430,1,-0.367134, 0.382896, 9.792293,1,0
1778256397915,  1334.045,  1334.040, 0.037511,-0.034701,-0.994834, 0.000373,-0.000361,-0.009929,-0.005386, 0.028595, 0.038934,1, 0.031308,-0.002477, 0.000993,1,-0.366734, 0.388723, 9.792078,1,0
1778256397937,  1334.065,  1334.065, 0.035868,-0.036937,-0.997878, 0.000356,-0.000349,-0.009979,-0.014475, 0.035228, 0.005908,1, 0.038814,-0.001266, 0.001851,1,-0.366179, 0.398661, 9.791698,1,0
1778256397963,  1334.090,  1334.090, 0.035531,-0.037750,-0.992040, 0.000364,-0.000387,-0.009929,-0.017224, 0.035373, 0.062841,1, 0.042308,-0.004835, 0.000096,1,-0.365516, 0.406896, 9.791385,1,0
1778256397985,  1334.115,  1334.110, 0.040697,-0.038696,-0.994282, 0.000406,-0.000391,-0.009941, 0.015907, 0.047740, 0.040743,1, 0.047689,-0.002679, 0.001479,1,-0.364782, 0.416104, 9.791025,1,0
1778256398007,  1334.135,  1334.135, 0.049898,-0.049798,-0.971946, 0.000463,-0.000159,-0.009476, 0.126132,-0.059026, 0.258977,1, 0.051550,-0.006294, 0.009016,1,-0.362988, 0.430946, 9.790450,1,0
1778256398033,  1334.160,  1334.160, 0.063779,-0.140930,-1.030699, 0.000603,-0.001707,-0.010383, 0.263350,-0.957776,-0.316928,1,-0.025001, 0.008023, 0.008570,1,-0.362347, 0.423503, 9.790798,1,0
1778256398055,  1334.185,  1334.180, 0.034058, 0.007920,-0.928485, 0.000339, 0.000092,-0.009354, 0.039754, 0.228270, 0.246031,1,-0.038498, 0.016580, 0.008524,1,-0.364000, 0.413629, 9.791160,1,0
1778256398078,  1334.205,  1334.205, 0.016559,-0.043705,-0.976420, 0.000220,-0.000396,-0.009784,-0.202788,-0.030385, 0.216344,1,-0.062093, 0.000865, 0.005445,1,-0.365198, 0.396282, 9.791832,1,0
1778256398103,  1334.230,  1334.230, 0.050459,-0.073856,-1.057085, 0.000471,-0.000734,-0.010636, 0.129599,-0.334580,-0.574364,1,-0.032060, 0.000693,-0.009898,1,-0.365273, 0.388689, 9.792133,1,0
1778256398125,  1334.245,  1334.240, 0.049642,-0.012990,-0.959121, 0.000481,-0.000102,-0.009638, 0.224718,-0.028129,-0.236487,1,-0.044829,-0.002007,-0.001763,1,-0.365160, 0.383682, 9.792336,1,0
1778256398125,  1334.255,  1334.250, 0.040138,-0.034976,-0.931017, 0.000399,-0.000263,-0.009301, 0.122048, 0.254420, 0.386655,1,-0.040005,-0.002574, 0.008034,1,-0.364687, 0.380568, 9.792475,1,0
1778256398148,  1334.275,  1334.275, 0.046911,-0.065276,-1.005252, 0.000456,-0.000665,-0.009935, 0.092811,-0.275847,-0.065159,1,-0.079095, 0.005596,-0.006980,1,-0.367413, 0.361817, 9.793083,1,0
1778256398173,  1334.300,  1334.300, 0.039042,-0.041046,-1.045257, 0.000368,-0.000375,-0.010457, 0.014449,-0.052775,-0.456988,1,-0.086793, 0.007865, 0.001878,1,-0.368666, 0.347045, 9.793571,1,0
1778256398195,  1334.325,  1334.320, 0.039705,-0.024465,-0.954728, 0.000385,-0.000278,-0.009528, 0.041870, 0.043179, 0.361216,1,-0.091045,-0.001094, 0.004509,1,-0.369189, 0.330891, 9.794110,1,0
1778256398218,  1334.345,  1334.345, 0.046610,-0.056331,-1.010193, 0.000460,-0.000549,-0.010051, 0.086819,-0.245144,-0.111775,1,-0.092778, 0.009622,-0.001723,1,-0.370570, 0.304380, 9.794918,1,0
1778256398243,  1334.370,  1334.370, 0.034836,-0.058317,-1.022628, 0.000358,-0.000610,-0.010253,-0.030465,-0.284649,-0.233179,1,-0.108511, 0.009023, 0.008358,1,-0.372363, 0.283875, 9.795465,1,0
1778256398265,  1334.395,  1334.390, 0.030898,-0.016784,-0.969612, 0.000307,-0.000182,-0.009682,-0.100915,-0.003036, 0.246130,1,-0.120806, 0.007052, 0.002315,1,-0.373946, 0.261330, 9.796033,1,0
1778256398288,  1334.420,  1334.415, 0.039913,-0.037533,-1.008891, 0.000390,-0.000363,-0.010084, 0.016252,-0.141592,-0.096993,1,-0.140505, 0.006470, 0.003624,1,-0.375362, 0.222102, 9.796947,1,0
1778256398314,  1334.440,  1334.440, 0.042267,-0.042157,-1.004182, 0.000429,-0.000462,-0.010062, 0.037506,-0.216962,-0.050236,1,-0.158447, 0.010220, 0.009052,1,-0.377305, 0.191527, 9.797517,1,0
1778256398335,  1334.465,  1334.460, 0.054968,-0.114874,-0.932236, 0.000468,-0.000871,-0.009035,-0.031288,-0.219638, 0.369516,1,-0.177144, 0.020172, 0.006329,1,-0.380100, 0.158195, 9.798004,1,0
1778256398358,  1334.490,  1334.485, 0.164038, 0.128825,-1.100573, 0.001679, 0.001061,-0.011308, 1.233399, 1.398481,-0.994397,1,-0.141038,-0.027861,-0.030451,1,-0.374410, 0.130701, 9.798629,1,0
1778256398384,  1334.510,  1334.510, 0.104119, 0.017804,-0.919235, 0.001024, 0.000662,-0.009032, 0.644600, 0.291031, 0.784114,1,-0.056644, 0.025430,-0.015851,1,-0.377255, 0.114650, 9.798720,1,0
1778256398405,  1334.535,  1334.530, 0.052374, 0.000020,-1.036082, 0.000511,-0.000033,-0.010226, 0.262532,-0.048664, 1.310677,1,-0.074221,-0.002260, 0.004996,1,-0.380040, 0.093302, 9.798840,1,0
1778256398428,  1334.560,  1334.555, 0.070299, 0.020084,-1.085156, 0.000644, 0.000426,-0.010750, 0.303316, 0.252935,-0.842862,1,-0.155637, 0.021496, 0.014106,1,-0.386754, 0.051140, 9.798887,1,0
1778256398454,  1334.580,  1334.580, 0.072018,-0.054524,-0.976649, 0.000737,-0.000457,-0.009842, 0.322358,-0.500713, 0.221413,1,-0.125203,-0.025584,-0.003678,1,-0.383099, 0.030076, 9.799118,1,0
1778256398475,  1334.605,  1334.600, 0.172920, 0.030634,-0.985700, 0.001707, 0.000218,-0.009792, 1.063046,-0.046783, 0.396118,1,-0.075234,-0.023337,-0.011233,1,-0.378197, 0.015257, 9.799343,1,0
1778256398498,  1334.630,  1334.625, 0.185780,-0.000941,-0.997026, 0.001857,-0.000001,-0.010027, 1.447867,-0.009276, 0.022032,1,-0.047823,-0.005292,-0.004695,1,-0.373844,-0.001547, 9.799521,1,0
1778256398524,  1334.650,  1334.650, 0.188726,-0.048992,-0.999954, 0.001900,-0.000493,-0.010014, 1.477130,-0.484272,-0.006677,1,-0.016075,-0.000840,-0.035590,1,-0.373614,-0.004369, 9.799529,1,0
1778256398545,  1334.675,  1334.670, 0.140647,-0.001113,-0.974793, 0.001402,-0.000065,-0.009736, 1.093024,-0.297325, 0.134884,1, 0.023268, 0.008721,-0.045277,1,-0.374363,-0.000505, 9.799501,1,0
1778256398568,  1334.700,  1334.695, 0.178586, 0.049231,-1.003751, 0.001718, 0.000496,-0.009934, 1.374156, 0.489193,-0.044039,1,-0.007711,-0.005277,-0.023780,1,-0.377009, 0.006137, 9.799398,1,0
1778256398594,  1334.720,  1334.720, 0.188327,-0.011433,-1.082482, 0.001896,-0.000115,-0.010861, 1.473988,-0.108789,-0.815969,1,-0.004249,-0.023546,-0.013578,1,-0.372132, 0.003178, 9.799586,1,0
1778256398615,  1334.745,  1334.740, 0.181334,-0.045395,-0.825386, 0.001785,-0.000530,-0.008448, 1.512643,-0.466375, 0.775585,1,-0.008534, 0.014830,-0.026564,1,-0.373139, 0.000900, 9.799548,1,0
1778256398642,  1334.770,  1334.770, 0.185383,-0.022619,-0.903111, 0.001776, 0.000236,-0.008853, 1.439227,-0.231894, 0.942831,1,-0.139577, 0.022260, 0.018119,1,-0.379454,-0.014413, 9.799295,1,0
1778256398664,  1334.790,  1334.790, 0.181452, 0.030309,-0.917799, 0.002018, 0.000681,-0.010062, 1.394242, 0.270078, 0.798508,1,-0.110364, 0.052443,-0.020329,1,-0.386826,-0.030616, 9.798970,1,0
1778256398685,  1334.815,  1334.810, 0.089434,-0.046807,-1.019896, 0.001266,-0.000681,-0.010185, 1.391525,-0.222582, 0.774794,1,-0.112390, 0.044070,-0.018674,1,-0.398931,-0.054723, 9.798380,1,0
1778256398712,  1334.840,  1334.840, 0.032842, 0.009095,-1.080235, 0.000301, 0.000020,-0.010794,-0.081374,-0.009859,-0.795644,1,-0.188859, 0.015792,-0.012335,1,-0.403935,-0.104953, 9.797766,1,0
1778256398734,  1334.865,  1334.860, 0.157799,-0.010328,-1.016201, 0.001548,-0.000129,-0.010173, 0.698442,-0.271427,-0.223400,1,-0.185936,-0.018337,-0.009659,1,-0.400979,-0.135285, 9.797515,1,0
1778256398756,  1334.885,  1334.880, 0.181799, 0.008632,-0.970562, 0.001857,-0.000057,-0.009667, 1.366839,-0.611227,-0.096310,1,-0.165676,-0.029626, 0.011828,1,-0.394082,-0.164916, 9.797340,1,0
1778256398783,  1334.910,  1334.910, 0.186593, 0.063328,-0.883966, 0.001964, 0.000460,-0.009034, 1.436538, 0.423778, 1.128026,1,-0.095767, 0.005051,-0.024619,1,-0.393452,-0.200273, 9.796707,1,0
1778256398804,  1334.935,  1334.930, 0.145711, 0.017301,-1.034248, 0.001456, 0.000291,-0.010172, 1.203068, 0.210106, 0.062660,1,-0.078657, 0.001974,-0.028741,1,-0.393467,-0.217492, 9.796339,1,0
1778256398826,  1334.955,  1334.950, 0.115215,-0.000586,-1.019802, 0.001196,-0.000056,-0.010291, 0.885503,-0.358902,-0.303567,1,-0.046565, 0.007367,-0.031151,1,-0.394605,-0.229233, 9.796026,1,0
1778256398853,  1334.980,  1334.980, 0.102035, 0.052470,-1.041225, 0.000979, 0.000534,-0.010369, 0.608881, 0.279420,-0.414932,1,-0.004043,-0.014821,-0.041373,1,-0.391247,-0.235309, 9.796017,1,0
1778256398874,  1335.005,  1335.000, 0.151275,-0.002852,-0.952572, 0.001518,-0.000004,-0.009544, 1.004736, 0.054916, 0.345201,1, 0.024808,-0.006700,-0.043062,1,-0.389374,-0.232692, 9.796154,1,0
1778256398896,  1335.025,  1335.020, 0.160213,-0.029241,-0.979466, 0.001597,-0.000242,-0.009714, 1.170779,-0.336934, 0.297677,1, 0.049046,-0.006406,-0.063966,1,-0.387895,-0.225345, 9.796384,1,0
1778256398923,  1335.050,  1335.050, 0.169781,-0.001302,-1.008100, 0.001702,-0.000037,-0.010046, 1.276624,-0.225680,-0.089441,1, 0.039215, 0.003957,-0.060757,1,-0.388441,-0.211759, 9.796665,1,0
1778256398944,  1335.075,  1335.070, 0.119142, 0.020125,-1.048784, 0.001278, 0.000213,-0.010528, 1.210408, 0.045302,-0.587884,1, 0.023870, 0.000067,-0.054532,1,-0.388166,-0.205157, 9.796817,1,0
1778256398966,  1335.095,  1335.090, 0.081257,-0.034426,-0.992767, 0.000759,-0.000306,-0.009963, 0.407548,-0.156466,-0.204440,1, 0.014672, 0.006258,-0.050357,1,-0.388882,-0.202063, 9.796853,1,0
1778256398993,  1335.120,  1335.120, 0.126305,-0.013885,-0.935539, 0.001234,-0.000202,-0.009343, 0.849326,-0.336150, 0.622371,1,-0.001737, 0.001699,-0.066235,1,-0.389312,-0.200122, 9.796876,1,0
1778256399014,  1335.145,  1335.140, 0.175390, 0.030728,-1.069457, 0.001700, 0.000334,-0.010613, 1.159369, 0.198183,-0.259173,1,-0.023545, 0.005025,-0.063705,1,-0.389588,-0.203830, 9.796788,1,0
1778256399036,  1335.165,  1335.160, 0.170452, 0.007284,-1.025885, 0.001738, 0.000107,-0.010253, 1.291799, 0.051193,-0.667771,1,-0.023423, 0.017481,-0.062076,1,-0.392265,-0.209159, 9.796569,1,0
1778256399063,  1335.190,  1335.190, 0.162098,-0.011506,-0.945701, 0.001688,-0.000122,-0.009511, 1.190298,-0.324718, 0.522067,1, 0.010218, 0.032370,-0.059077,1,-0.400313,-0.211643, 9.796190,1,0
1778256399084,  1335.215,  1335.210, 0.156208, 0.051353,-0.990784, 0.001562, 0.000512,-0.009890, 1.167807, 0.107030, 0.245093,1, 0.022457, 0.023805,-0.062815,1,-0.405340,-0.208982, 9.796041,1,0
1778256399106,  1335.235,  1335.230, 0.136717, 0.047433,-0.960927, 0.001377, 0.000504,-0.009661, 0.879563, 0.241499, 0.117299,1, 0.028802, 0.030943,-0.058969,1,-0.410634,-0.204116, 9.795922,1,0
1778256399133,  1335.260,  1335.260, 0.134111,-0.004144,-0.922420, 0.001384,-0.000074,-0.009274, 0.896869,-0.235900, 0.749932,1, 0.043597, 0.024659,-0.055630,1,-0.419062,-0.193767, 9.795776,1,0
1778256399155,  1335.285,  1335.280, 0.085741, 0.042754,-1.137417, 0.000824, 0.000545,-0.011237, 0.415844, 0.072894,-0.639399,1, 0.030942, 0.033926,-0.055993,1,-0.424041,-0.185379, 9.795724,1,0
1778256399177,  1335.305,  1335.305, 0.181718,-0.003634,-1.163555, 0.001610,-0.000150,-0.011842, 1.348445,-0.210296,-1.615080,1, 0.034200, 0.037246,-0.055937,1,-0.434735,-0.173670, 9.795470,1,0
1778256399203,  1335.330,  1335.330, 0.204499, 0.005591,-0.781934, 0.002161, 0.000112,-0.008052, 1.565497,-0.108013, 2.127265,1, 0.085681, 0.015923,-0.064544,1,-0.440418,-0.160265, 9.795444,1,0
1778256399225,  1335.355,  1335.350,-0.102983, 0.018842,-0.470468,-0.001000, 0.000211,-0.004204,-1.120077, 0.116026, 6.165677,1, 0.089260,-0.113618,-0.072345,1,-0.426884,-0.140307, 9.796350,1,0
1778256399247,  1335.375,  1335.375, 0.107736,-0.005359,-1.947509, 0.000740, 0.000083,-0.018653, 0.660263,-0.181910,-9.300756,1, 0.020644, 0.002587,-0.070759,1,-0.396314,-0.128805, 9.797792,1,0
1778256399273,  1335.400,  1335.400, 0.322393,-0.049348,-1.341916, 0.003312,-0.000372,-0.014744, 2.759374,-0.599318,-3.361985,1, 0.159025,-0.013366,-0.079968,1,-0.401775,-0.110522, 9.797792,1,0
1778256399295,  1335.425,  1335.420, 0.151644,-0.025165,-0.383172, 0.001467,-0.000009,-0.003420, 1.406803,-0.325337, 4.516098,1, 0.211742,-0.067366,-0.110173,1,-0.389458,-0.073545, 9.798637,1,0
1778256399318,  1335.445,  1335.445, 0.285271,-0.071683,-0.736004, 0.002788,-0.000548,-0.006892, 2.407002,-0.727859, 2.581101,1, 0.168544, 0.029691,-0.096007,1,-0.391468,-0.019753, 9.798814,1,0
1778256399343,  1335.470,  1335.470, 0.301625,-0.097782,-1.421389, 0.003196,-0.000957,-0.014177, 2.559836,-0.957424,-4.140500,1, 0.147150, 0.052783,-0.128180,1,-0.399747, 0.005920, 9.798497,1,0
1778256399365,  1335.495,  1335.490, 0.010313, 0.010103,-0.900398,-0.000110, 0.000246,-0.008661, 0.483178, 0.356948, 0.711710,1, 0.161165, 0.056965,-0.149863,1,-0.413598, 0.033795, 9.797866,1,0
1778256399388,  1335.515,  1335.515,-0.013646,-0.117333,-1.132098,-0.000018,-0.001246,-0.011502,-0.548391,-1.088721,-1.304406,1, 0.091483,-0.045256,-0.123588,1,-0.413186, 0.064609, 9.797729,1,0
1778256399413,  1335.540,  1335.540, 0.040946, 0.074643,-0.890658, 0.000430, 0.000659,-0.009202,-0.008870, 0.813607, 1.063349,1, 0.085579,-0.019166,-0.123280,1,-0.409849, 0.084119, 9.797721,1,0
1778256399435,  1335.565,  1335.560, 0.013350,-0.112323,-1.132463, 0.000280,-0.001077,-0.011336, 0.051553, 0.124882, 0.381393,1, 0.017108, 0.000647,-0.084668,1,-0.408604, 0.091784, 9.797704,1,0
1778256399458,  1335.585,  1335.585, 0.009676, 0.020864,-1.056284,-0.000002,-0.000003,-0.010635,-0.317618, 0.305203,-0.561156,1, 0.034529, 0.029278,-0.107909,1,-0.413454, 0.101533, 9.797404,1,0
1778256399483,  1335.610,  1335.610,-0.075794, 0.038962,-0.988642,-0.000842, 0.000514,-0.009552,-1.153721, 0.486225, 0.102232,1,-0.004509,-0.004867,-0.030775,1,-0.410297, 0.103953, 9.797512,1,0
1778256399505,  1335.635,  1335.630, 0.026709,-0.004583,-0.957788, 0.000030,-0.000178,-0.009576,-0.759723,-1.090579,-0.601534,1, 0.015241,-0.004443,-0.070602,1,-0.408460, 0.103158, 9.797597,1,0
1778256399528,  1335.660,  1335.655,-0.001366, 0.055964,-0.925753,-0.000028, 0.000578,-0.009063,-0.419021, 0.654217, 0.719150,1,-0.012228,-0.018547,-0.054222,1,-0.405269, 0.105039, 9.797709,1,0
1778256399554,  1335.680,  1335.680, 0.030600,-0.142761,-1.158303, 0.000275,-0.001336,-0.011411,-0.102069,-1.297290,-1.561209,1, 0.020898,-0.008391,-0.078611,1,-0.401918, 0.103269, 9.797866,1,0
1778256399575,  1335.705,  1335.700, 0.030799, 0.055090,-0.874019, 0.000263, 0.000613,-0.008490, 0.253954, 0.738625, 1.541231,1, 0.042418,-0.034090,-0.097680,1,-0.400327, 0.110380, 9.797853,1,0
1778256399598,  1335.730,  1335.725, 0.041711,-0.128049,-1.104950, 0.000385,-0.000986,-0.010809, 0.013208,-1.134508,-1.037955,1, 0.062719,-0.001977,-0.085957,1,-0.395804, 0.123068, 9.797887,1,0
1778256399624,  1335.750,  1335.750, 0.070750,-0.019822,-0.887146, 0.000953,-0.000565,-0.009670, 0.295384,-0.058059, 1.097677,1, 0.087072,-0.014998,-0.121084,1,-0.398022, 0.138894, 9.797585,1,0
1778256399645,  1335.775,  1335.770, 0.011953,-0.076848,-1.092862, 0.000056,-0.000453,-0.010428, 0.081136, 0.083131,-0.319840,1, 0.062322,-0.026294,-0.090352,1,-0.395795, 0.154540, 9.797441,1,0
1778256399668,  1335.800,  1335.795, 0.047586,-0.072879,-0.974557, 0.000697,-0.001006,-0.010554, 0.068305,-0.538694, 0.239830,1, 0.106125, 0.002090,-0.139681,1,-0.398494, 0.179141, 9.796912,1,0
1778256399694,  1335.820,  1335.820, 0.043172, 0.034484,-0.957075, 0.000397, 0.000476,-0.009069,-0.254222, 0.214974, 1.566235,1, 0.093087, 0.008549,-0.136930,1,-0.399782, 0.189544, 9.796664,1,0
1778256399715,  1335.845,  1335.840, 0.000588,-0.154820,-1.076391, 0.000130,-0.001671,-0.011192,-0.594278,-0.871501,-1.152489,1, 0.061296, 0.039716,-0.102309,1,-0.402954, 0.207094, 9.796179,1,0
1778256399738,  1335.870,  1335.865,-0.034323, 0.031009,-0.976448,-0.000442, 0.000248,-0.009427,-0.745027, 0.529566, 0.219864,1, 0.055153, 0.002957,-0.134904,1,-0.408607, 0.227028, 9.795504,1,0
1778256399764,  1335.890,  1335.890,-0.077041,-0.011206,-1.081831,-0.000812,-0.000010,-0.010898,-1.163889, 0.122085,-0.813741,1, 0.036093, 0.031761,-0.097242,1,-0.409440, 0.232977, 9.795329,1,0
1778256399785,  1335.915,  1335.910,-0.011888,-0.015998,-0.881019,-0.000248,-0.000204,-0.008587,-0.890027,-0.707282, 0.997551,1, 0.057154, 0.027085,-0.141105,1,-0.415916, 0.240966, 9.794863,1,0
1778256399808,  1335.940,  1335.935,-0.050304, 0.002023,-1.062876,-0.000528,-0.000012,-0.010483,-0.915947, 0.263134,-0.628737,1,-0.014134, 0.029101,-0.096910,1,-0.423615, 0.242722, 9.794489,1,0
1778256399834,  1335.960,  1335.960, 0.014490,-0.113782,-1.074265, 0.000273,-0.001240,-0.011095,-0.290583,-0.875250,-0.740789,1, 0.000207, 0.033125,-0.118991,1,-0.433808, 0.240417, 9.794100,1,0
1778256399855,  1335.985,  1335.980,-0.027053, 0.016836,-0.877172,-0.000168, 0.000198,-0.008814,-0.060456, 0.070058, 1.075646,1,-0.000027, 0.010492,-0.122593,1,-0.439173, 0.241171, 9.793842,1,0
1778256399882,  1336.010,  1336.010, 0.013214,-0.029845,-1.125453, 0.000127,-0.000308,-0.011231,-0.308944,-0.055729,-1.242947,1,-0.030516,-0.001012,-0.105094,1,-0.438578, 0.235850, 9.793999,1,0
1778256399904,  1336.030,  1336.030, 0.000979,-0.065652,-1.015286,-0.000050,-0.000634,-0.010141,-0.431327,-0.408533,-0.162647,1, 0.009765, 0.016175,-0.136369,1,-0.441535, 0.235402, 9.793877,1,0
1778256399926,  1336.055,  1336.050,-0.012392,-0.021267,-1.028926,-0.000245,-0.000106,-0.010001,-0.946492, 0.137692, 0.939312,1,-0.015901,-0.036835,-0.119183,1,-0.434785, 0.231689, 9.794267,1,0
1778256399952,  1336.080,  1336.080,-0.051790,-0.066335,-1.071594,-0.000497,-0.000554,-0.010585,-0.937018,-0.425266,-0.714077,1,-0.017049,-0.008881,-0.124408,1,-0.428946, 0.224561, 9.794690,1,0
1778256399974,  1336.105,  1336.100,-0.025488,-0.001906,-0.888474,-0.000270,-0.000172,-0.008982,-0.860594,-0.176979, 0.934535,1, 0.001337,-0.036662,-0.123409,1,-0.425330, 0.221434, 9.794919,1,0
1778256399996,  1336.125,  1336.120,-0.012249,-0.003055,-1.006988, 0.000016, 0.000052,-0.010050,-0.358897, 0.348379, 0.313193,1,-0.008101,-0.025521,-0.108877,1,-0.421131, 0.220191, 9.795129,1,0
1778256400023,  1336.150,  1336.150, 0.054250,-0.040873,-1.107094, 0.000442,-0.000337,-0.010997, 0.115499,-0.180360,-1.061564,1, 0.028533, 0.000929,-0.141376,1,-0.416638, 0.221174, 9.795299,1,0
1778256400044,  1336.175,  1336.170, 0.043836,-0.003956,-0.891149, 0.000351,-0.000056,-0.008707, 0.007608,-0.155603, 0.699257,1, 0.058877,-0.048300,-0.140853,1,-0.410419, 0.228987, 9.795382,1,0
1778256400066,  1336.195,  1336.190, 0.032442,-0.015443,-0.979469, 0.000344,-0.000057,-0.009640, 0.306088, 0.470920, 0.711718,1, 0.055455,-0.039607,-0.129354,1,-0.404054, 0.239648, 9.795391,1,0
1778256400093,  1336.220,  1336.220, 0.088835,-0.065848,-1.101785, 0.000893,-0.000559,-0.011100, 0.475380,-0.386871,-1.009581,1, 0.092851,-0.026783,-0.132605,1,-0.395064, 0.261601, 9.795197,1,0
1778256400114,  1336.245,  1336.240, 0.156837,-0.059177,-0.751296, 0.001636,-0.000638,-0.007753, 1.123054,-0.322933, 1.623169,1, 0.114367,-0.002307,-0.153666,1,-0.393602, 0.282723, 9.794668,1,0
1778256400136,  1336.265,  1336.260, 0.180652,-0.061588,-1.011775, 0.001758,-0.000599,-0.009752, 1.148248,-0.139769, 1.567041,1, 0.118316,-0.046752,-0.182974,1,-0.387789, 0.306362, 9.794189,1,0
1778256400163,  1336.290,  1336.290, 0.126737,-0.014413,-1.334319, 0.001290,-0.000207,-0.012687, 0.857266, 0.191037,-3.291769,1, 0.065560, 0.042031,-0.134427,1,-0.387054, 0.334259, 9.793306,1,0
1778256400184,  1336.315,  1336.310,-0.032425,-0.030403,-0.662355,-0.000175,-0.000768,-0.006664,-0.090872,-0.817558, 2.088896,1, 0.167487, 0.047185,-0.141215,1,-0.400746, 0.358736, 9.791889,1,0
1778256400206,  1336.335,  1336.330, 0.053802, 0.076214,-1.185427, 0.000439, 0.001068,-0.011050,-0.369858, 1.419672, 0.777363,1, 0.132699,-0.004007,-0.197705,1,-0.400757, 0.382939, 9.790972,1,0
1778256400233,  1336.360,  1336.360, 0.027551,-0.113385,-1.004129, 0.000416,-0.001221,-0.010730,-0.134005,-0.693552,-0.057759,1, 0.156044, 0.028618,-0.106196,1,-0.405218, 0.423100, 9.789135,1,0
1778256400254,  1336.385,  1336.380, 0.031179, 0.034144,-0.929487, 0.000140, 0.000372,-0.008781,-0.201839,-0.091393, 1.183958,1, 0.169963,-0.003205,-0.117658,1,-0.408834, 0.455032, 9.787553,1,0
1778256400276,  1336.405,  1336.400,-0.076151,-0.029020,-1.202796,-0.000793,-0.000025,-0.011602,-0.201839,-0.091393, 1.183958,1, 0.169963,-0.003205,-0.117658,1,-0.408834, 0.455032, 9.787553,1,0
1778256400303,  1336.430,  1336.430, 0.006044,-0.042531,-0.948930, 0.000011,-0.000455,-0.009864,-0.358330, 0.100306, 0.478254,1, 0.129255, 0.014407,-0.111441,1,-0.418228, 0.521269, 9.783852,1,0
1778256400324,  1336.455,  1336.450,-0.021769,-0.043274,-1.079743,-0.000120,-0.000418,-0.010717,-0.661675, 0.403346, 0.882455,1, 0.097719,-0.008778,-0.070416,1,-0.416834, 0.543113, 9.782722,1,0
1778256400346,  1336.475,  1336.470, 0.013262,-0.071290,-1.078954,-0.000070,-0.000717,-0.010887,-0.802377,-0.096804,-1.194794,1, 0.058436, 0.000522,-0.051796,1,-0.415780, 0.554049, 9.782154,1,0
1778256400373,  1336.500,  1336.500, 0.015918, 0.007331,-0.826562, 0.000214,-0.000003,-0.008356,-0.261346, 0.638519, 1.675561,1, 0.025514,-0.021566,-0.035326,1,-0.416839, 0.567372, 9.781345,1,0
1778256400395,  1336.525,  1336.520, 0.014494,-0.122563,-1.133288, 0.000055,-0.001113,-0.011009,-0.016445,-0.160292,-0.639211,1,-0.035748,-0.029861,-0.006891,1,-0.413358, 0.565523, 9.781600,1,0
1778256400417,  1336.545,  1336.545, 0.116808,-0.087979,-0.959743, 0.001200,-0.000968,-0.010025, 0.729377,-0.306628, 0.370156,1,-0.048842, 0.012012,-0.000560,1,-0.416497, 0.554632, 9.782090,1,0
1778256400443,  1336.570,  1336.570, 0.032017,-0.045338,-0.807882, 0.000310,-0.000431,-0.007775,-0.100837, 0.099459, 1.860135,1,-0.082816,-0.004443, 0.020364,1,-0.414640, 0.541522, 9.782904,1,0
1778256400465,  1336.595,  1336.590, 0.076775,-0.062562,-1.166274, 0.000534,-0.000600,-0.011689,-0.277500,-0.179595,-1.227670,1,-0.112468,-0.003868, 0.002025,1,-0.411444, 0.519275, 9.784245,1,0
1778256400487,  1336.615,  1336.615, 0.069009,-0.068456,-0.807789, 0.000897,-0.000730,-0.008405, 0.258521,-0.181316, 1.863764,1,-0.109287,-0.007428,-0.005804,1,-0.418001, 0.486595, 9.785646,1,0
1778256400513,  1336.640,  1336.640, 0.035281,-0.095152,-1.029263, 0.000347,-0.000951,-0.009961,-0.071669,-0.465276,-0.307052,1,-0.128833,-0.007689,-0.004413,1,-0.417427, 0.463823, 9.786777,1,0
1778256400535,  1336.665,  1336.660, 0.023160,-0.049616,-1.111025, 0.000185,-0.000475,-0.011244,-0.784645, 0.172970,-1.017252,1,-0.120935, 0.024828,-0.010406,1,-0.416722, 0.439896, 9.787911,1,0
1778256400558,  1336.685,  1336.685,-0.031191,-0.060538,-0.862657,-0.000239,-0.000696,-0.008628,-0.729170,-0.185812, 1.329244,1,-0.115814, 0.011763,-0.020954,1,-0.423686, 0.404231, 9.789151,1,0
1778256400583,  1336.710,  1336.710,-0.073778,-0.030491,-1.007258,-0.000633,-0.000230,-0.010029,-1.144967, 0.085075,-0.087769,1,-0.122863,-0.029092,-0.029054,1,-0.420579, 0.380221, 9.790247,1,0
1778256400605,  1336.735,  1336.730,-0.048722,-0.054587,-1.077151,-0.000377,-0.000448,-0.010916,-0.994763, 0.040235,-1.070143,1,-0.119510, 0.006968,-0.022756,1,-0.420810, 0.358249, 9.791065,1,0
1778256400628,  1336.755,  1336.755,-0.034814,-0.020087,-0.894083,-0.000328,-0.000290,-0.009016,-0.760621, 0.138198, 1.023994,1,-0.067192,-0.018532,-0.043659,1,-0.418676, 0.333028, 9.792048,1,0
1778256400653,  1336.780,  1336.780,-0.045719,-0.009001,-1.039229,-0.000557,-0.000032,-0.010018,-0.859052, 0.233216,-0.398587,1,-0.058888,-0.035158,-0.046565,1,-0.409655, 0.319594, 9.792876,1,0
1778256400675,  1336.805,  1336.800, 0.016826,-0.046148,-1.018997, 0.000080,-0.000344,-0.010287,-0.345490,-0.075640,-0.809972,1,-0.034799,-0.005498,-0.045946,1,-0.408681, 0.311349, 9.793182,1,0
1778256400698,  1336.825,  1336.825, 0.030443,-0.045780,-0.910622, 0.000383,-0.000522,-0.009212,-0.109957,-0.137802, 0.863041,1, 0.011723,-0.010605,-0.054275,1,-0.408226, 0.311437, 9.793199,1,0
1778256400723,  1336.850,  1336.850,-0.038026,-0.019874,-1.008560,-0.000360,-0.000163,-0.009807,-0.776393, 0.120146,-0.097314,1, 0.028380,-0.019335,-0.050816,1,-0.402929, 0.315863, 9.793277,1,0
1778256400745,  1336.875,  1336.870,-0.043305,-0.009064,-1.015791,-0.000390,-0.000103,-0.010229,-0.752599,-0.056217,-0.065531,1, 0.041779,-0.013659,-0.059192,1,-0.401254, 0.322628, 9.793125,1,0
1778256400768,  1336.900,  1336.895, 0.026549,-0.072038,-1.017159, 0.000242,-0.000711,-0.010318,-0.138923,-0.372723,-0.182094,1, 0.052183,-0.005572,-0.076247,1,-0.399183, 0.335254, 9.792785,1,0
1778256400794,  1336.920,  1336.920, 0.009232,-0.060922,-0.935617, 0.000043,-0.000536,-0.009048,-0.302690,-0.254679, 0.617494,1, 0.051428,-0.040334,-0.079974,1,-0.392051, 0.344267, 9.792761,1,0
1778256400815,  1336.945,  1336.940, 0.030627,-0.037795,-0.995412, 0.000370,-0.000416,-0.010106,-0.002113,-0.094265, 0.015464,1, 0.042854,-0.024115,-0.087258,1,-0.387748, 0.352917, 9.792624,1,0
1778256400838,  1336.970,  1336.965, 0.050941,-0.060239,-1.102582, 0.000466,-0.000456,-0.010883, 0.117536,-0.229011,-1.020114,1, 0.040680,-0.001981,-0.088042,1,-0.382067, 0.362891, 9.792482,1,0
1778256400864,  1336.990,  1336.990, 0.021609,-0.084758,-0.919403, 0.000259,-0.000879,-0.009258,-0.166739,-0.463323, 0.776165,1, 0.038099,-0.031000,-0.086357,1,-0.377785, 0.368951, 9.792422,1,0
1778256400885,  1337.015,  1337.010, 0.022429,-0.022119,-1.007306, 0.000237,-0.000185,-0.009951,-0.244913, 0.257293, 0.744836,1, 0.019856,-0.032098,-0.082715,1,-0.372108, 0.374067, 9.792446,1,0
1778256400908,  1337.040,  1337.035,-0.008706,-0.043095,-1.044493,-0.000097,-0.000487,-0.010373,-0.448719,-0.049034,-0.450188,1,-0.006651,-0.022480,-0.077224,1,-0.362736, 0.373290, 9.792827,1,0
1778256400934,  1337.060,  1337.060, 0.057362,-0.058334,-1.065147, 0.000559,-0.000628,-0.010691, 0.202397,-0.199695,-0.652569,1,-0.012784,-0.031622,-0.082107,1,-0.359232, 0.372162, 9.792999,1,0
1778256400955,  1337.085,  1337.080, 0.033182,-0.004005,-0.923887, 0.000377,-0.000036,-0.009274, 0.121787, 0.291298, 1.001664,1, 0.026283,-0.039734,-0.090024,1,-0.352149, 0.374400, 9.793171,1,0
1778256400978,  1337.110,  1337.105, 0.035993,-0.053434,-1.052368, 0.000339,-0.000542,-0.010494, 0.013372,-0.142997,-0.526847,1, 0.040998,-0.028322,-0.079708,1,-0.338808, 0.382207, 9.793340,1,0
1778256401004,  1337.130,  1337.130, 0.024137,-0.037349,-1.069161, 0.000129,-0.000366,-0.010526,-0.101889, 0.024343,-0.691873,1, 0.055369, 0.001661,-0.081721,1,-0.338742, 0.392249, 9.792945,1,0
1778256401025,  1337.155,  1337.150,-0.017948, 0.004917,-0.953160,-0.000238, 0.000136,-0.009362,-0.322360, 0.513516, 0.342415,1, 0.079245,-0.007052,-0.075055,1,-0.337888, 0.405745, 9.792425,1,0
1778256401048,  1337.180,  1337.175, 0.009900,-0.015684,-1.084315, 0.000079,-0.000148,-0.010917,-0.238292, 0.276794,-0.842046,1, 0.092248,-0.033056,-0.079282,1,-0.334453, 0.433396, 9.791358,1,0
1778256401074,  1337.200,  1337.200,-0.003047,-0.050406,-0.982827,-0.000083,-0.000522,-0.009771,-0.362956,-0.043026, 0.152352,1, 0.106113, 0.013036,-0.082102,1,-0.333599, 0.454511, 9.790430,1,0
1778256401095,  1337.225,  1337.220,-0.012548,-0.039462,-0.943083,-0.000104,-0.000406,-0.009397,-0.380403, 0.142642, 0.882704,1, 0.081884,-0.009904,-0.049195,1,-0.334219, 0.472513, 9.789557,1,0
1778256401122,  1337.250,  1337.250,-0.018910,-0.014323,-0.970963,-0.000173,-0.000114,-0.009748,-0.519279, 0.351340, 0.266727,1, 0.066679, 0.004148,-0.027474,1,-0.334004, 0.493854, 9.788510,1,0
1778256401144,  1337.270,  1337.270, 0.015262,-0.040305,-0.937033, 0.000191,-0.000390,-0.009396,-0.184870, 0.106971, 0.598912,1, 0.041342, 0.004735,-0.005111,1,-0.334685, 0.503507, 9.787995,1,0
1778256401166,  1337.295,  1337.290,-0.019143,-0.042194,-1.133046,-0.000158,-0.000466,-0.011262,-0.402446,-0.224701,-0.544484,1, 0.024854, 0.026535, 0.010695,1,-0.338528, 0.509440, 9.787556,1,0
1778256401192,  1337.320,  1337.320,-0.008680, 0.009588,-1.075165,-0.000081, 0.000088,-0.010961,-0.428754, 0.603383,-0.756387,1,-0.017452, 0.001369, 0.043288,1,-0.343608, 0.508861, 9.787409,1,0
1778256401214,  1337.345,  1337.340, 0.064022,-0.038992,-0.840753, 0.000558,-0.000424,-0.008392,-0.082713, 0.157828, 1.219915,1,-0.022352,-0.007029, 0.046986,1,-0.342231, 0.505975, 9.787607,1,0
1778256401236,  1337.365,  1337.360, 0.140902,-0.051118,-0.949888, 0.001412,-0.000551,-0.009438, 0.808291, 0.037505, 1.276639,1,-0.070591, 0.009411, 0.039679,1,-0.341416, 0.496205, 9.788136,1,0
1778256401263,  1337.390,  1337.390, 0.138756,-0.019649,-1.123055, 0.001359,-0.000275,-0.011084, 1.013088, 0.280873,-1.224372,1,-0.101865, 0.031287, 0.062271,1,-0.348524, 0.470456, 9.789157,1,0
1778256401284,  1337.415,  1337.410, 0.174707,-0.002948,-0.962289, 0.001681, 0.000050,-0.009776, 1.030213, 0.817804,-0.648415,1,-0.103524, 0.006929, 0.056279,1,-0.350617, 0.448930, 9.790092,1,0
1778256401306,  1337.435,  1337.430, 0.198736,-0.103108,-0.849252, 0.001956,-0.000986,-0.008368, 1.540115,-0.218409, 1.370819,1,-0.101347,-0.018718, 0.072840,1,-0.349127, 0.430094, 9.790992,1,0
1778256401333,  1337.460,  1337.460, 0.241228,-0.023177,-1.085246, 0.002459,-0.000396,-0.010765, 2.018577, 0.174790,-0.850373,1,-0.112295, 0.004056, 0.118898,1,-0.347042, 0.398521, 9.792401,1,0
1778256401354,  1337.485,  1337.480, 0.253848, 0.033396,-0.936579, 0.002494, 0.000464,-0.009656, 1.942538, 1.265296,-1.159423,1,-0.098844, 0.001813, 0.107146,1,-0.345604, 0.377439, 9.793287,1,0
1778256401376,  1337.505,  1337.500, 0.241474,-0.085322,-0.902677, 0.002438,-0.000825,-0.008750, 2.301159,-0.124362, 1.497858,1,-0.100553,-0.011421, 0.115495,1,-0.344909, 0.359094, 9.794002,1,0
1778256401403,  1337.530,  1337.530, 0.317759,-0.011094,-1.134176, 0.003217,-0.000255,-0.011032, 2.771087, 0.226982,-1.327648,1,-0.093406, 0.046771, 0.112682,1,-0.346402, 0.332992, 9.794871,1,0
1778256401424,  1337.555,  1337.550, 0.266383, 0.003381,-0.836714, 0.002687, 0.000056,-0.008634, 2.410820, 0.966154, 0.570347,1,-0.073062, 0.051161, 0.154665,1,-0.354530, 0.317372, 9.795099,1,0
1778256401446,  1337.575,  1337.570, 0.221659,-0.067116,-0.986054, 0.002261,-0.000671,-0.009603, 1.834465,-0.208963, 1.419076,1,-0.051525, 0.020019, 0.145657,1,-0.358704, 0.306710, 9.795287,1,0
1778256401473,  1337.600,  1337.600, 0.209840, 0.049305,-1.097930, 0.002126, 0.000508,-0.010938, 1.684842, 0.785257,-0.972111,1,-0.013284, 0.084622, 0.118602,1,-0.375513, 0.301471, 9.794820,1,0
1778256401494,  1337.625,  1337.620, 0.140348,-0.111800,-1.028783, 0.001371,-0.001188,-0.010220, 0.516257, 0.011405, 0.581458,1, 0.025404, 0.064360, 0.149129,1,-0.387385, 0.304806, 9.794254,1,0
1778256401516,  1337.645,  1337.640, 0.094477, 0.034559,-0.903553, 0.001012, 0.000152,-0.009190, 0.850093,-0.163579,-0.185076,1, 0.085720, 0.056807, 0.094690,1,-0.399626, 0.317619, 9.793355,1,0
1778256401543,  1337.670,  1337.670, 0.036497, 0.004955,-0.612032, 0.000585, 0.000267,-0.006127,-0.049446, 0.397304, 3.789995,1, 0.129265,-0.004990, 0.119414,1,-0.407070, 0.352912, 9.791840,1,0
1778256401564,  1337.695,  1337.690,-0.046733,-0.025710,-1.382221,-0.000599,-0.000267,-0.013489,-0.576467,-0.686798,-2.453806,1, 0.112500, 0.010920, 0.094454,1,-0.407224, 0.374227, 9.791042,1,0
1778256401586,  1337.715,  1337.710, 0.017100,-0.016601,-0.793773, 0.000259, 0.000003,-0.008621,-0.088280, 0.265578,-2.183618,1, 0.121509, 0.083309, 0.100452,1,-0.420636, 0.397154, 9.789572,1,0
1778256401613,  1337.740,  1337.740, 0.027661,-0.068449,-0.788216, 0.000462,-0.000760,-0.007789,-0.151526,-0.245734, 2.058529,1, 0.071667,-0.022891, 0.113320,1,-0.421918, 0.427909, 9.788220,1,0
1778256401635,  1337.765,  1337.760, 0.001748,-0.000580,-1.170058, 0.000151, 0.000091,-0.011919,-0.155275, 0.573912,-2.087458,1, 0.012612, 0.049551, 0.112508,1,-0.426221, 0.436656, 9.787648,1,0
1778256401657,  1337.785,  1337.785, 0.026079,-0.098952,-1.083764, 0.000273,-0.001070,-0.010986,-0.174208,-0.538297,-0.840407,1,-0.055993, 0.001184, 0.154055,1,-0.429781, 0.430554, 9.787763,1,0
1778256401683,  1337.810,  1337.810, 0.155290, 0.035199,-1.072459, 0.001252, 0.000331,-0.010462, 1.087115, 0.768067,-0.729404,1,-0.086082, 0.066043, 0.145275,1,-0.437618, 0.420403, 9.787856,1,0
1778256401705,  1337.835,  1337.830, 0.193117,-0.068453,-1.008466, 0.002021,-0.000693,-0.010227, 1.146933, 0.609676, 1.077748,1,-0.144368, 0.044161, 0.194888,1,-0.444761, 0.397242, 9.788502,1,0
1778256401727,  1337.855,  1337.855, 0.285503, 0.036244,-1.195153, 0.002601, 0.000259,-0.011602, 2.345388, 0.710460,-1.930771,1,-0.197461, 0.077050, 0.178653,1,-0.456791, 0.348979, 9.789787,1,0
1778256401753,  1337.880,  1337.880, 0.265611, 0.043981,-0.946808, 0.002361, 0.000522,-0.009328, 2.140398, 0.746286, 0.505566,1,-0.238047, 0.049427, 0.256365,1,-0.465635, 0.307942, 9.790748,1,0
1778256401775,  1337.905,  1337.900, 0.319805, 0.073273,-1.014347, 0.003285, 0.000602,-0.010400, 2.334007,-0.277045,-0.361031,1,-0.237107, 0.052651, 0.238377,1,-0.470767, 0.265163, 9.791754,1,0
1778256401798,  1337.925,  1337.925, 0.301775, 0.024120,-0.940755, 0.003176, 0.000426,-0.009888, 2.481757, 0.438216, 0.567271,1,-0.258811, 0.000675, 0.293575,1,-0.477477, 0.194060, 9.793097,1,0
1778256401823,  1337.950,  1337.950, 0.364575, 0.006108,-0.999341, 0.003663,-0.000002,-0.010331, 3.093037, 0.214675,-0.006626,1,-0.237716, 0.041752, 0.264066,1,-0.483395, 0.147770, 9.793614,1,0
1778256401845,  1337.975,  1337.970, 0.389776,-0.060194,-1.078678, 0.003593,-0.000688,-0.009897, 3.049752, 0.443985, 1.790148,1,-0.242921, 0.017205, 0.277486,1,-0.488961, 0.100604, 9.793936,1,0
1778256401868,  1337.995,  1337.995, 0.283200, 0.026476,-1.129523, 0.002966, 0.000082,-0.011402, 2.267195, 0.295501,-1.283533,1,-0.259515, 0.104125, 0.256436,1,-0.513264, 0.028184, 9.793168,1,0
1778256401893,  1338.020,  1338.020, 0.186365,-0.036962,-0.972461, 0.001755,-0.000635,-0.009773, 1.296511,-0.367976, 0.255663,1,-0.224691, 0.104420, 0.238463,1,-0.534365,-0.012107, 9.792073,1,0
1778256401915,  1338.045,  1338.040,-0.050355,-0.066302,-0.938402,-0.000652,-0.000610,-0.008898,-0.444473,-0.118329, 1.484135,1,-0.167387, 0.054411, 0.191515,1,-0.549454,-0.044400, 9.791144,1,0
1778256401938,  1338.065,  1338.065,-0.181918,-0.062663,-1.138968,-0.001802,-0.000828,-0.011181,-2.344334,-0.695084,-1.379164,1,-0.151666, 0.004146, 0.125330,1,-0.560493,-0.085059, 9.790250,1,0
1778256401963,  1338.090,  1338.090,-0.256064, 0.003193,-1.112387,-0.002353,-0.000030,-0.011700,-3.073924,-0.068793,-1.118814,1,-0.088347, 0.007836, 0.078387,1,-0.563066,-0.102715, 9.789933,1,0
1778256401985,  1338.115,  1338.110,-0.259829,-0.036801,-1.002127,-0.002744,-0.000281,-0.009415,-3.401284, 0.057050, 0.297916,1,-0.036638, 0.008563, 0.025373,1,-0.567422,-0.112404, 9.789576,1,0
1778256402008,  1338.140,  1338.135,-0.236199,-0.009186,-1.025913,-0.002556,-0.000205,-0.010098,-2.891938,-0.208728,-0.271750,1,-0.032239, 0.045567, 0.020134,1,-0.577040,-0.119615, 9.788927,1,0
1778256402034,  1338.160,  1338.160,-0.241105,-0.020746,-0.908357,-0.002541,-0.000265,-0.008739,-2.945199,-0.324802, 0.880745,1,-0.019021, 0.027335, 0.002037,1,-0.581622,-0.121944, 9.788628,1,0
1778256402055,  1338.185,  1338.180,-0.244946, 0.049074,-1.081289,-0.002399, 0.000511,-0.010952,-3.341475, 0.082787,-0.228742,1,-0.027150, 0.009831,-0.009626,1,-0.581896,-0.125616, 9.788565,1,0
1778256402078,  1338.210,  1338.205,-0.243006,-0.009558,-0.946452,-0.002399,-0.000121,-0.009591,-2.961680,-0.228703, 0.507115,1,-0.043745,-0.032138, 0.009437,1,-0.577607,-0.136320, 9.788675,1,0
1778256402104,  1338.230,  1338.230,-0.210612, 0.012031,-0.995504,-0.002242,-0.000005,-0.009607,-2.633460,-0.026220, 0.026560,1,-0.064467,-0.063858,-0.011019,1,-0.566069,-0.146235, 9.789207,1,0
1778256402125,  1338.255,  1338.250,-0.140086,-0.006646,-1.134686,-0.001377,-0.000075,-0.011716,-2.268201, 0.049010,-1.823122,1,-0.069467,-0.027715,-0.016499,1,-0.555557,-0.160793, 9.789580,1,0
1778256402148,  1338.280,  1338.275,-0.098833,-0.048914,-0.984256,-0.001178,-0.000515,-0.009545,-1.516313,-0.664797, 0.137373,1,-0.108101,-0.038445,-0.012849,1,-0.545885,-0.188511, 9.789630,1,0
1778256402174,  1338.300,  1338.300,-0.026171, 0.002298,-1.028009,-0.000342, 0.000042,-0.010309,-0.796147,-0.184520,-0.291721,1,-0.115877,-0.018069,-0.014079,1,-0.538922,-0.210690, 9.789563,1,0
1778256402195,  1338.325,  1338.320, 0.013571,-0.062713,-1.018839, 0.000031,-0.000495,-0.010017,-0.240634,-0.592437,-0.704663,1,-0.141156,-0.001525,-0.025848,1,-0.539182,-0.238409, 9.788914,1,0
1778256402218,  1338.350,  1338.345, 0.017040,-0.022439,-0.950315, 0.000242,-0.000336,-0.009534,-0.371955,-0.496445, 0.468515,1,-0.146247,-0.023125,-0.069199,1,-0.538275,-0.281067, 9.787831,1,0
1778256402244,  1338.370,  1338.370, 0.024552, 0.007098,-1.032743, 0.000247, 0.000096,-0.010276,-0.294848,-0.236193,-0.340514,1,-0.144827,-0.008253,-0.075613,1,-0.535291,-0.310443, 9.787107,1,0
1778256402265,  1338.395,  1338.390, 0.095907,-0.084499,-1.062036, 0.000937,-0.000744,-0.010618,-0.040588,-0.660011,-0.650049,1,-0.141705, 0.011578,-0.095116,1,-0.535065,-0.340293, 9.786127,1,0
1778256402288,  1338.420,  1338.415, 0.177846,-0.016254,-0.940971, 0.001688,-0.000273,-0.009247, 1.210201,-0.528034, 0.557387,1,-0.075299, 0.008616,-0.139360,1,-0.533981,-0.371215, 9.785063,1,0
1778256402314,  1338.440,  1338.440, 0.227821, 0.046521,-0.986721, 0.002265, 0.000454,-0.010146, 1.698824, 0.071158, 0.108030,1,-0.059831, 0.014966,-0.128484,1,-0.535642,-0.387137, 9.784355,1,0
