Time,GPS_ts,fGPS_ts,scaledAccelX,scaledAccelY,scaledAccelZ,deltaVelX,deltaVelY,deltaVelZ,estLinearAccelX,estLinearAccelY,estLinearAccelZ,estLinearAccel:valid,estAngularRateX,estAngularRateY,estAngularRateZ,estAngularRate:valid,estGravityX,estGravityY,estGravityZ,estGravity:valid,flag
1778257875196,  2805.838,  2805.838, 0.041789, 0.188140,-1.122317, 0.000417, 0.001933,-0.011425,-0.013830, 0.906901,-1.253696,1,-0.221349, 0.096832,-0.758275,1,-0.424385,-0.946015, 9.751684,1,0
1778257875196,  2805.863,  2805.858,-0.059908, 0.135015,-0.728987,-0.000671, 0.001400,-0.007129,-0.934530, 0.566638, 2.417517,1,-0.196387, 0.108058,-0.827671,1,-0.428293,-0.993616, 9.746778,1,0
1778257875196,  2805.883,  2805.883,-0.009566, 0.135175,-0.973031,-0.000105, 0.001306,-0.009461,-0.531414, 0.265161, 0.197138,1,-0.235331, 0.122738,-0.896645,1,-0.438389,-1.068998, 9.738349,1,0
1778257875196,  2805.908,  2805.908,-0.047468, 0.084531,-1.251477,-0.000484, 0.000853,-0.012574,-0.907194,-0.286193,-2.539785,1,-0.227110, 0.127250,-0.871234,1,-0.442541,-1.123421, 9.732033,1,0
1778257875196,  2805.933,  2805.928,-0.048685, 0.068840,-0.800443,-0.000463, 0.000680,-0.008109,-0.841193,-0.615056, 0.406890,1,-0.175034, 0.125153,-0.837584,1,-0.448675,-1.167778, 9.726529,1,0
1778257875196,  2805.958,  2805.958,-0.040976, 0.063376,-0.902788,-0.000457, 0.000660,-0.008773,-0.850317,-0.596566, 0.867043,1,-0.139589, 0.090295,-0.793406,1,-0.448199,-1.223525, 9.719696,1,0
1778257875196,  2805.983,  2805.978, 0.001341, 0.097036,-1.165024, 0.000038, 0.000896,-0.011859,-0.532281,-0.450318,-1.862590,1,-0.139074, 0.083983,-0.747602,1,-0.445689,-1.258590, 9.715333,1,0
1778257875196,  2806.008,  2806.003,-0.009261, 0.073391,-0.932221,-0.000113, 0.000751,-0.009513,-0.534460,-0.575662, 0.568620,1,-0.074071, 0.086198,-0.679773,1,-0.443201,-1.297931, 9.710270,1,0
1778257875196,  2806.033,  2806.028,-0.000581, 0.029681,-0.882802,-0.000012, 0.000368,-0.008692,-0.519411,-0.836274, 1.450235,1,-0.051613, 0.094870,-0.640296,1,-0.444356,-1.316909, 9.707661,1,0
1778257875196,  2806.053,  2806.048, 0.005229,-0.021103,-1.074385, 0.000050,-0.000150,-0.010643,-0.404239,-1.258464, 0.057601,1,-0.025420, 0.105483,-0.562863,1,-0.448732,-1.328999, 9.705812,1,0
1778257875196,  2806.073,  2806.068,-0.027179,-0.082363,-1.135150,-0.000239,-0.000823,-0.011416,-0.540886,-1.919669,-1.455944,1, 0.017059, 0.089955,-0.433777,1,-0.454466,-1.331648, 9.705182,1,0
1778257875211,  2811.318,  2811.318, 0.029755,-0.018465,-0.995533, 0.000296,-0.000187,-0.009954,-0.000632, 0.009355, 0.037592,1, 0.003983,-0.000124,-0.000198,1,-0.292422, 0.190563, 9.800437,1,0
1778257875233,  2811.343,  2811.338, 0.029730,-0.018410,-0.995665, 0.000295,-0.000181,-0.009955,-0.002851, 0.015710, 0.038549,1, 0.004680, 0.000348, 0.000057,1,-0.292482, 0.191498, 9.800417,1,0
1778257875254,  2811.363,  2811.358, 0.028778,-0.019860,-0.995896, 0.000288,-0.000198,-0.009955,-0.008836,-0.003264, 0.033350,1, 0.004273,-0.000427, 0.000016,1,-0.292531, 0.192339, 9.800399,1,0
1778257875281,  2811.388,  2811.388, 0.029138,-0.020312,-0.995866, 0.000292,-0.000203,-0.009959,-0.006711,-0.005659, 0.034264,1, 0.004243,-0.001014, 0.000241,1,-0.292421, 0.193671, 9.800376,1,0
1778257875303,  2811.413,  2811.408, 0.029515,-0.019204,-0.995388, 0.000295,-0.000194,-0.009954,-0.004196, 0.003449, 0.038505,1, 0.004090,-0.000024, 0.000629,1,-0.292228, 0.194307, 9.800369,1,0
1778257875325,  2811.433,  2811.433, 0.030555,-0.019447,-0.996177, 0.000304,-0.000194,-0.009962, 0.007404, 0.004441, 0.031196,1, 0.003243,-0.000259, 0.000324,1,-0.292229, 0.195248, 9.800350,1,0
1778257875351,  2811.458,  2811.458, 0.030824,-0.021129,-0.995765, 0.000307,-0.000207,-0.009955, 0.010103,-0.011369, 0.035219,1, 0.002855, 0.000142,-0.000665,1,-0.292186, 0.195926, 9.800338,1,0
1778257875373,  2811.483,  2811.478, 0.029703,-0.020687,-0.994877, 0.000296,-0.000207,-0.009949,-0.002377,-0.013874, 0.036575,1, 0.003009, 0.000182, 0.000099,1,-0.292290, 0.196474, 9.800323,1,0
1778257875396,  2811.503,  2811.503, 0.029898,-0.019792,-0.995893, 0.000297,-0.000197,-0.009958, 0.000967, 0.003063, 0.033935,1, 0.001908,-0.001430,-0.000330,1,-0.292183, 0.197217, 9.800312,1,0
1778257875421,  2811.528,  2811.528, 0.030601,-0.020691,-0.995317, 0.000305,-0.000208,-0.009957, 0.007915,-0.005522, 0.039586,1, 0.000926, 0.000284, 0.000338,1,-0.292184, 0.197419, 9.800308,1,0
1778257875443,  2811.553,  2811.548, 0.029919,-0.021518,-0.996146, 0.000300,-0.000213,-0.009961, 0.000360,-0.009926, 0.034416,1, 0.000840, 0.000301,-0.000052,1,-0.292262, 0.197588, 9.800303,1,0
1778257875466,  2811.573,  2811.573, 0.029933,-0.019569,-0.995000, 0.000299,-0.000196,-0.009949, 0.001214, 0.005535, 0.042683,1,-0.001020,-0.000572, 0.000276,1,-0.292310, 0.197410, 9.800304,1,0
1778257875491,  2811.598,  2811.598, 0.028445,-0.021509,-0.996094, 0.000285,-0.000213,-0.009961,-0.013386,-0.013788, 0.031960,1,-0.002240, 0.000184, 0.000000,1,-0.292339, 0.197069, 9.800310,1,0
1778257875513,  2811.623,  2811.618, 0.028916,-0.020673,-0.996057, 0.000289,-0.000207,-0.009957,-0.007972,-0.012740, 0.034848,1,-0.002227, 0.000830,-0.000191,1,-0.292537, 0.196798, 9.800310,1,0
1778257875536,  2811.643,  2811.643, 0.029045,-0.019582,-0.995647, 0.000292,-0.000196,-0.009957,-0.007760, 0.003809, 0.036364,1,-0.003689, 0.000385, 0.000582,1,-0.292611, 0.195727, 9.800329,1,0
1778257875561,  2811.668,  2811.668, 0.029688,-0.019445,-0.995217, 0.000297,-0.000195,-0.009951,-0.001475, 0.004393, 0.040594,1,-0.003979, 0.000032,-0.000569,1,-0.292613, 0.194959, 9.800344,1,0
1778257875583,  2811.693,  2811.688, 0.029695,-0.020254,-0.995080, 0.000298,-0.000202,-0.009954, 0.000287,-0.007923, 0.037270,1,-0.004594, 0.000897,-0.000476,1,-0.292694, 0.194145, 9.800358,1,0
1778257875606,  2811.713,  2811.713, 0.028842,-0.020334,-0.995713, 0.000287,-0.000206,-0.009955,-0.009913,-0.006461, 0.035775,1,-0.005474,-0.000328,-0.000429,1,-0.292747, 0.192779, 9.800384,1,0
1778257875632,  2811.738,  2811.738, 0.029340,-0.019146,-0.995412, 0.000292,-0.000193,-0.009956,-0.005118, 0.004282, 0.038733,1,-0.004770, 0.000860,-0.000846,1,-0.292867, 0.191886, 9.800398,1,0
1778257875653,  2811.763,  2811.758, 0.029872,-0.019234,-0.995363, 0.000299,-0.000192,-0.009951,-0.002679, 0.000871, 0.038092,1,-0.005304, 0.000153,-0.000507,1,-0.292915, 0.190898, 9.800415,1,0
1778257875676,  2811.788,  2811.783, 0.030134,-0.019395,-0.995107, 0.000303,-0.000195,-0.009953, 0.002417,-0.000714, 0.041771,1,-0.006082, 0.000648,-0.000081,1,-0.293120, 0.189297, 9.800441,1,0
1778257875702,  2811.808,  2811.808, 0.030028,-0.018411,-0.995574, 0.000300,-0.000185,-0.009957, 0.001388, 0.007923, 0.037214,1,-0.004978,-0.000085, 0.000110,1,-0.293033, 0.188379, 9.800461,1,0
1778257875723,  2811.833,  2811.828, 0.029926,-0.018822,-0.995634, 0.000299,-0.000191,-0.009959, 0.002570, 0.000487, 0.038703,1,-0.004886, 0.000590,-0.000752,1,-0.293138, 0.187317, 9.800478,1,0
1778257875746,  2811.858,  2811.853, 0.030694,-0.017970,-0.994792, 0.000307,-0.000181,-0.009951, 0.007948, 0.009979, 0.044921,1,-0.003834,-0.000599,-0.000181,1,-0.293037, 0.186088, 9.800505,1,0
1778257875772,  2811.878,  2811.878, 0.030133,-0.018975,-0.995143, 0.000303,-0.000192,-0.009952, 0.002442,-0.000615, 0.041491,1,-0.003866, 0.000471,-0.000209,1,-0.293078, 0.185342, 9.800517,1,0
1778257875793,  2811.903,  2811.898, 0.029675,-0.019002,-0.995859, 0.000294,-0.000189,-0.009958, 0.001050, 0.004447, 0.033562,1,-0.004736, 0.001301,-0.000178,1,-0.293227, 0.184520, 9.800529,1,0
1778257875816,  2811.928,  2811.923, 0.029470,-0.019330,-0.995659, 0.000294,-0.000194,-0.009956,-0.004247,-0.006448, 0.036474,1,-0.005586,-0.000388,-0.000307,1,-0.293238, 0.182942, 9.800557,1,0
1778257875842,  2811.948,  2811.948, 0.030018,-0.018274,-0.995569, 0.000298,-0.000187,-0.009955, 0.001117, 0.002729, 0.037381,1,-0.006267, 0.000015,-0.000024,1,-0.293256, 0.181745, 9.800579,1,0
1778257875863,  2811.973,  2811.968, 0.031015,-0.018384,-0.995527, 0.000313,-0.000183,-0.009955, 0.008661, 0.007119, 0.044732,1,-0.005312,-0.000054,-0.000854,1,-0.293254, 0.180591, 9.800601,1,0
1778257875886,  2811.998,  2811.993, 0.031148,-0.018735,-0.995777, 0.000312,-0.000188,-0.009959, 0.012168,-0.004732, 0.035390,1,-0.006262, 0.000291,-0.000361,1,-0.293301, 0.178801, 9.800632,1,0
1778257875912,  2812.018,  2812.018, 0.030606,-0.017126,-0.995176, 0.000305,-0.000175,-0.009954, 0.006498, 0.009859, 0.041291,1,-0.006304, 0.000920,-0.000834,1,-0.293678, 0.177614, 9.800642,1,0
1778257875933,  2812.038,  2812.038, 0.029390,-0.017263,-0.996212, 0.000293,-0.000172,-0.009961,-0.005511, 0.007343, 0.031156,1,-0.005241, 0.000087,-0.000145,1,-0.293735, 0.176468, 9.800661,1,0
1778257875956,  2812.068,  2812.063, 0.029246,-0.017210,-0.996324, 0.000291,-0.000170,-0.009964,-0.007040, 0.006417, 0.030079,1,-0.004855, 0.000275,-0.000737,1,-0.293850, 0.175040, 9.800684,1,0
1778257875982,  2812.088,  2812.088, 0.030086,-0.016475,-0.994990, 0.000300,-0.000165,-0.009956, 0.001182, 0.012712, 0.043182,1,-0.004593, 0.000223, 0.000533,1,-0.293869, 0.174138, 9.800699,1,0
1778257876004,  2812.113,  2812.108, 0.030280,-0.016551,-0.996233, 0.000301,-0.000166,-0.009961,-0.000282, 0.009175, 0.034157,1,-0.002878, 0.000084, 0.000279,1,-0.293868, 0.173398, 9.800713,1,0
1778257876031,  2812.138,  2812.138, 0.030109,-0.016477,-0.996463, 0.000300,-0.000165,-0.009964, 0.001371, 0.011163, 0.028759,1,-0.001333, 0.000545,-0.000259,1,-0.293917, 0.172710, 9.800723,1,0
1778257876052,  2812.158,  2812.158, 0.028441,-0.016054,-0.996098, 0.000283,-0.000162,-0.009961,-0.015095, 0.015228, 0.032338,1, 0.000026, 0.000186, 0.000237,1,-0.294011, 0.172665, 9.800721,1,0
1778257876074,  2812.183,  2812.178, 0.028426,-0.016116,-0.995274, 0.000283,-0.000160,-0.009954,-0.011791, 0.021104, 0.038648,1, 0.000648, 0.000200,-0.000444,1,-0.294115, 0.172786, 9.800715,1,0
1778257876101,  2812.208,  2812.208, 0.028019,-0.017081,-0.995739, 0.000283,-0.000171,-0.009958,-0.019260, 0.005592, 0.035847,1, 0.002792,-0.000395, 0.000194,1,-0.293941, 0.172993, 9.800717,1,0
1778257876122,  2812.233,  2812.228, 0.028810,-0.017653,-0.995389, 0.000284,-0.000176,-0.009955,-0.014761,-0.000959, 0.041042,1, 0.001900,-0.000096, 0.000178,1,-0.294009, 0.173390, 9.800708,1,0
1778257876144,  2812.253,  2812.248, 0.029724,-0.017963,-0.995169, 0.000297,-0.000178,-0.009952,-0.011063, 0.002909, 0.038710,1, 0.002219, 0.000172, 0.000305,1,-0.293959, 0.173868, 9.800701,1,0
1778257876171,  2812.278,  2812.278, 0.030902,-0.018318,-0.995675, 0.000308,-0.000184,-0.009956, 0.009218,-0.005292, 0.036461,1, 0.001355,-0.000709, 0.000551,1,-0.293807, 0.174384, 9.800696,1,0
1778257876192,  2812.303,  2812.298, 0.031467,-0.018606,-0.995629, 0.000315,-0.000189,-0.009954, 0.013595,-0.008823, 0.040902,1,-0.000704,-0.000291,-0.000196,1,-0.293736, 0.174399, 9.800698,1,0
1778257876214,  2812.323,  2812.318, 0.031359,-0.019372,-0.995996, 0.000313,-0.000194,-0.009958, 0.014256,-0.012504, 0.036266,1,-0.000288,-0.000391, 0.000202,1,-0.293771, 0.174277, 9.800699,1,0
1778257876241,  2812.348,  2812.348, 0.031126,-0.018299,-0.996284, 0.000312,-0.000183,-0.009962, 0.011447,-0.005486, 0.030494,1,-0.001945,-0.000332,-0.000318,1,-0.293788, 0.173901, 9.800706,1,0
1778257876262,  2812.373,  2812.368, 0.030472,-0.019388,-0.995614, 0.000307,-0.000193,-0.009954, 0.008931,-0.011136, 0.038221,1,-0.002303, 0.000146,-0.000033,1,-0.293753, 0.173506, 9.800714,1,0
1778257876284,  2812.393,  2812.388, 0.029081,-0.017833,-0.995502, 0.000294,-0.000179,-0.009957,-0.001956,-0.004717, 0.037713,1,-0.002424, 0.000449,-0.000262,1,-0.293721, 0.173061, 9.800722,1,0
1778257876311,  2812.418,  2812.418, 0.028619,-0.017938,-0.995728, 0.000285,-0.000180,-0.009956,-0.013343,-0.003362, 0.035965,1,-0.003500, 0.000029,-0.000485,1,-0.294005, 0.172452, 9.800725,1,0
1778257876332,  2812.443,  2812.438, 0.028296,-0.017253,-0.995680, 0.000284,-0.000175,-0.009956,-0.018912,-0.011529, 0.034438,1,-0.003996, 0.000549,-0.000139,1,-0.294085, 0.171694, 9.800735,1,0
1778257876354,  2812.463,  2812.458, 0.029277,-0.017464,-0.995302, 0.000291,-0.000173,-0.009951,-0.014773, 0.008875, 0.036915,1,-0.005459,-0.000382, 0.000013,1,-0.294159, 0.170721, 9.800751,1,0
1778257876381,  2812.488,  2812.488, 0.028685,-0.017900,-0.995952, 0.000289,-0.000178,-0.009958,-0.012813,-0.006358, 0.033823,1,-0.006897, 0.000214, 0.000089,1,-0.294128, 0.168965, 9.800782,1,0
1778257876403,  2812.513,  2812.508, 0.028986,-0.017441,-0.995892, 0.000289,-0.000174,-0.009958,-0.006113,-0.007397, 0.036480,1,-0.005910, 0.001450,-0.000452,1,-0.294468, 0.167782, 9.800792,1,0
1778257876424,  2812.533,  2812.528, 0.029624,-0.017323,-0.994786, 0.000294,-0.000174,-0.009950,-0.005800,-0.007345, 0.041562,1,-0.007290, 0.000694,-0.000424,1,-0.294611, 0.166422, 9.800811,1,0
1778257876451,  2812.558,  2812.558, 0.030033,-0.016860,-0.995700, 0.000300,-0.000166,-0.009956,-0.000186,-0.000948, 0.036355,1,-0.008105, 0.000410,-0.000918,1,-0.294724, 0.164135, 9.800846,1,0
1778257876473,  2812.583,  2812.578, 0.031242,-0.017149,-0.995481, 0.000313,-0.000170,-0.009955, 0.011616,-0.005827, 0.035122,1,-0.008169, 0.000161,-0.000722,1,-0.294779, 0.162488, 9.800872,1,0
1778257876494,  2812.603,  2812.598, 0.030842,-0.016685,-0.995481, 0.000307,-0.000169,-0.009957, 0.009721,-0.009223, 0.035798,1,-0.009068, 0.000435,-0.000182,1,-0.294840, 0.160641, 9.800900,1,0
1778257876521,  2812.628,  2812.628, 0.030587,-0.016948,-0.995329, 0.000307,-0.000166,-0.009953, 0.005108,-0.007867, 0.040093,1,-0.009556, 0.000164,-0.000300,1,-0.294849, 0.158033, 9.800942,1,0
1778257876543,  2812.653,  2812.648, 0.030379,-0.016597,-0.995831, 0.000305,-0.000166,-0.009961, 0.001821,-0.001751, 0.031707,1,-0.010007, 0.001268,-0.000802,1,-0.294993, 0.156008, 9.800971,1,0
1778257876566,  2812.673,  2812.673, 0.030932,-0.014750,-0.995819, 0.000311,-0.000146,-0.009960, 0.008276, 0.008615, 0.035360,1,-0.009651, 0.000345,-0.000331,1,-0.295075, 0.152962, 9.801016,1,0
1778257876591,  2812.698,  2812.698, 0.030933,-0.014683,-0.995565, 0.000308,-0.000145,-0.009952, 0.008191, 0.007407, 0.037884,1,-0.009185, 0.000154,-0.000302,1,-0.295166, 0.151109, 9.801043,1,0
1778257876613,  2812.723,  2812.718, 0.029911,-0.014925,-0.995428, 0.000300,-0.000151,-0.009954, 0.004673,-0.004513, 0.042420,1,-0.009702, 0.000348,-0.000494,1,-0.295234, 0.149172, 9.801070,1,0
1778257876636,  2812.743,  2812.738, 0.028572,-0.014755,-0.995404, 0.000287,-0.000148,-0.009955,-0.013838, 0.003068, 0.039258,1,-0.009249, 0.000189,-0.000837,1,-0.295359, 0.147308, 9.801094,1,0
1778257876661,  2812.768,  2812.768, 0.028463,-0.014071,-0.995970, 0.000282,-0.000139,-0.009958,-0.016317, 0.007056, 0.033993,1,-0.007566,-0.000467, 0.000062,1,-0.295428, 0.144813, 9.801129,1,0
1778257876683,  2812.793,  2812.788, 0.028508,-0.013660,-0.995049, 0.000285,-0.000138,-0.009954,-0.014996, 0.002539, 0.030960,1,-0.007676,-0.000015,-0.000447,1,-0.295452, 0.143313, 9.801150,1,0
1778257876706,  2812.813,  2812.813, 0.028599,-0.014551,-0.995170, 0.000286,-0.000144,-0.009952,-0.015033,-0.001184, 0.041889,1,-0.005919, 0.000614,-0.000565,1,-0.295510, 0.141330, 9.801178,1,0
1778257876731,  2812.838,  2812.838, 0.029378,-0.013326,-0.996825, 0.000292,-0.000137,-0.009968,-0.007458, 0.009932, 0.025669,1,-0.003858, 0.000622,-0.001824,1,-0.295581, 0.140496, 9.801188,1,0
1778257876753,  2812.863,  2812.858, 0.030502,-0.011295,-0.994910, 0.000305,-0.000110,-0.009951, 0.002606, 0.038170, 0.037179,1,-0.000988,-0.000487,-0.001805,1,-0.295485, 0.140164, 9.801195,1,0
1778257876776,  2812.883,  2812.883, 0.031536,-0.013532,-0.995405, 0.000315,-0.000134,-0.009954, 0.013876, 0.007727, 0.039601,1, 0.002041,-0.000092,-0.001647,1,-0.295382, 0.140490, 9.801193,1,0
1778257876802,  2812.908,  2812.908, 0.030427,-0.012319,-0.995403, 0.000307,-0.000123,-0.009955, 0.002963, 0.020130, 0.039617,1, 0.003068,-0.000402,-0.001050,1,-0.295408, 0.141033, 9.801185,1,1
1778257876823,  2812.933,  2812.928, 0.029223,-0.015950,-0.996118, 0.000288,-0.000162,-0.009961,-0.008553,-0.010854, 0.034924,1, 0.001778, 0.000605,-0.000779,1,-0.295482, 0.141434, 9.801177,1,1
1778257876846,  2812.953,  2812.953, 0.030072,-0.013116,-0.995630, 0.000301,-0.000131,-0.009958,-0.000542, 0.013176, 0.037379,1, 0.000773,-0.000466,-0.000590,1,-0.295428, 0.141824, 9.801173,1,1
1778257876872,  2812.978,  2812.978, 0.031384,-0.013695,-0.995217, 0.000314,-0.000135,-0.009953, 0.012401, 0.007432, 0.041433,1,-0.000155,-0.000024, 0.000387,1,-0.295371, 0.141730, 9.801176,1,1
1778257876893,  2813.003,  2812.998, 0.031288,-0.015657,-0.996201, 0.000314,-0.000161,-0.009963, 0.010526,-0.028971, 0.038092,1, 0.000041,-0.000265,-0.000125,1,-0.295305, 0.141674, 9.801179,1,1
1778257876916,  2813.028,  2813.023, 0.031210,-0.012466,-0.995461, 0.000311,-0.000125,-0.009957, 0.010595, 0.018980, 0.039038,1,-0.000634, 0.000074,-0.000002,1,-0.295470, 0.141213, 9.801181,1,1
1778257876942,  2813.048,  2813.048, 0.029547,-0.014734,-0.995466, 0.000295,-0.000145,-0.009952,-0.005683,-0.003420, 0.038999,1,-0.000481,-0.000209, 0.000504,1,-0.295434, 0.141054, 9.801184,1,1
1778257876963,  2813.073,  2813.068, 0.030605,-0.013720,-0.995253, 0.000306,-0.000138,-0.009954, 0.001332,-0.006569, 0.040756,1, 0.000025,-0.000437,-0.000384,1,-0.295400, 0.141010, 9.801186,1,1
1778257876986,  2813.098,  2813.093, 0.029816,-0.014198,-0.995783, 0.000299,-0.000139,-0.009956,-0.003029, 0.001634, 0.035888,1,-0.000887,-0.000022, 0.000319,1,-0.295420, 0.140840, 9.801188,1,1
1778257877012,  2813.118,  2813.118, 0.029015,-0.015643,-0.995453, 0.000289,-0.000156,-0.009953,-0.010977,-0.012789, 0.039123,1,-0.001641, 0.000769,-0.000014,1,-0.295537, 0.140565, 9.801188,1,1
1778257877033,  2813.143,  2813.138, 0.028859,-0.014836,-0.996756, 0.000289,-0.000146,-0.009970,-0.009001, 0.001340, 0.036594,1,-0.002838,-0.000509,-0.000251,1,-0.295546, 0.140061, 9.801195,1,1
1778257877056,  2813.168,  2813.163, 0.029737,-0.014331,-0.995822, 0.000295,-0.000144,-0.009957,-0.003882,-0.001333, 0.035528,1,-0.003089,-0.000972, 0.000230,1,-0.295467, 0.139106, 9.801210,1,1
1778257877082,  2813.188,  2813.188, 0.030256,-0.013881,-0.995381, 0.000301,-0.000141,-0.009951, 0.001319, 0.002346, 0.039873,1,-0.004461,-0.000362,-0.000053,1,-0.295375, 0.138334, 9.801225,1,1
1778257877103,  2813.213,  2813.208, 0.030303,-0.014461,-0.995321, 0.000305,-0.000146,-0.009953, 0.002567,-0.008923, 0.039963,1,-0.003940, 0.000764,-0.000695,1,-0.295369, 0.137685, 9.801234,1,1
1778257877126,  2813.238,  2813.233, 0.028772,-0.015668,-0.995741, 0.000288,-0.000153,-0.009954,-0.013184,-0.017203, 0.036367,1,-0.005414,-0.000401,-0.000169,1,-0.295334, 0.136279, 9.801254,1,1
1778257877152,  2813.258,  2813.258, 0.029102,-0.014503,-0.995364, 0.000290,-0.000143,-0.009954,-0.010057,-0.006911, 0.040081,1,-0.006315, 0.000533,-0.000174,1,-0.295466, 0.135120, 9.801267,1,1
1778257877173,  2813.283,  2813.278, 0.030004,-0.013940,-0.996313, 0.000299,-0.000137,-0.009964, 0.000594, 0.005516, 0.033947,1,-0.007303,-0.000092,-0.000292,1,-0.295530, 0.133785, 9.801283,1,1
1778257877196,  2813.308,  2813.303, 0.030709,-0.014268,-0.994336, 0.000308,-0.000145,-0.009947, 0.005459,-0.008236, 0.050204,1,-0.007394, 0.001036,-0.000184,1,-0.295725, 0.131454, 9.801309,1,1
1778257877222,  2813.328,  2813.328, 0.030578,-0.013444,-0.995269, 0.000308,-0.000137,-0.009950, 0.004127,-0.001642, 0.041069,1,-0.007573,-0.000128,-0.000157,1,-0.295739, 0.129965, 9.801328,1,1
1778257877244,  2813.353,  2813.348, 0.030348,-0.014268,-0.996393, 0.000305,-0.000141,-0.009962, 0.007480,-0.005252, 0.034546,1,-0.008728, 0.000752, 0.000193,1,-0.295874, 0.128295, 9.801346,1,1
1778257877271,  2813.378,  2813.378, 0.029905,-0.014048,-0.995911, 0.000297,-0.000142,-0.009961,-0.002741,-0.011995, 0.034825,1,-0.009455, 0.000716,-0.000853,1,-0.296032, 0.125477, 9.801377,1,1
1778257877292,  2813.398,  2813.398, 0.030679,-0.011527,-0.995440, 0.000304,-0.000118,-0.009955, 0.004690, 0.010781, 0.039464,1,-0.010317, 0.000273,-0.000681,1,-0.296181, 0.123495, 9.801398,1,1
1778257877314,  2813.423,  2813.418, 0.031446,-0.012483,-0.995270, 0.000313,-0.000124,-0.009953, 0.011027, 0.005608, 0.039995,1,-0.010232, 0.000042, 0.000493,1,-0.296157, 0.121777, 9.801420,1,1
1778257877341,  2813.448,  2813.448, 0.030783,-0.013517,-0.995266, 0.000310,-0.000135,-0.009953, 0.005594,-0.013404, 0.041226,1,-0.010198, 0.000600,-0.000479,1,-0.296307, 0.118832, 9.801453,1,1
1778257877362,  2813.473,  2813.468, 0.029551,-0.011410,-0.995448, 0.000297,-0.000116,-0.009955,-0.007223,-0.002489, 0.038251,1,-0.010615, 0.001680,-0.000632,1,-0.296577, 0.116852, 9.801468,1,1
1778257877384,  2813.493,  2813.488, 0.029279,-0.010610,-0.995716, 0.000290,-0.000108,-0.009961,-0.010915, 0.008428, 0.034759,1,-0.010781, 0.000207, 0.000154,1,-0.296634, 0.114736, 9.801491,1,1
1778257877411,  2813.518,  2813.518, 0.030864,-0.011159,-0.996324, 0.000305,-0.000115,-0.009957, 0.006046, 0.002410, 0.030926,1,-0.011631,-0.000185,-0.000505,1,-0.296622, 0.111483, 9.801529,1,1
1778257877432,  2813.543,  2813.538, 0.029858,-0.010711,-0.994347, 0.000301,-0.000111,-0.009945, 0.003729,-0.000765, 0.043330,1,-0.010476, 0.000795,-0.000112,1,-0.296767, 0.109440, 9.801548,1,1
1778257877454,  2813.563,  2813.558, 0.029213,-0.010226,-0.996412, 0.000292,-0.000104,-0.009962,-0.011099, 0.006508, 0.035015,1,-0.009449, 0.000967,-0.000480,1,-0.296904, 0.107503, 9.801565,1,1
1778257877481,  2813.588,  2813.588, 0.028326,-0.010707,-0.996816, 0.000285,-0.000104,-0.009969,-0.019369,-0.000092, 0.026162,1,-0.009615, 0.000490,-0.000357,1,-0.297170, 0.104611, 9.801588,1,1
1778257877502,  2813.613,  2813.608, 0.030593,-0.009277,-0.995191, 0.000304,-0.000095,-0.009953,-0.005842,-0.000313, 0.035739,1,-0.009901,-0.000427,-0.000080,1,-0.297087, 0.102643, 9.801612,1,1
1778257877524,  2813.633,  2813.628, 0.030805,-0.008048,-0.995239, 0.000308,-0.000081,-0.009952,-0.000174, 0.016620, 0.047180,1,-0.008224, 0.000117,-0.000122,1,-0.297189, 0.100871, 9.801627,1,1
1778257877551,  2813.658,  2813.658, 0.030344,-0.009233,-0.995556, 0.000302,-0.000093,-0.009956, 0.000285, 0.008279, 0.038573,1,-0.006973,-0.000328,-0.000145,1,-0.297279, 0.098609, 9.801647,1,1
1778257877572,  2813.683,  2813.678, 0.029510,-0.009868,-0.996595, 0.000299,-0.000101,-0.009968,-0.004509,-0.004805, 0.031660,1,-0.006094, 0.000712,-0.000450,1,-0.297425, 0.097375, 9.801655,1,1
1778257877594,  2813.703,  2813.698, 0.031184,-0.007864,-0.995130, 0.000312,-0.000079,-0.009953,-0.001033, 0.009634, 0.034564,1,-0.004025,-0.000137,-0.000858,1,-0.297463, 0.096451, 9.801663,1,1
1778257877621,  2813.728,  2813.728, 0.031906,-0.006801,-0.995013, 0.000316,-0.000066,-0.009949, 0.015472, 0.028884, 0.043923,1,-0.003067,-0.000432,-0.000797,1,-0.297404, 0.095485, 9.801674,1,1
1778257877643,  2813.753,  2813.748, 0.030420,-0.009269,-0.996154, 0.000305,-0.000094,-0.009959, 0.006548, 0.009004, 0.046392,1,-0.001084, 0.000236,-0.000182,1,-0.297517, 0.095181, 9.801674,1,1
1778257877664,  2813.773,  2813.768, 0.029604,-0.009280,-0.996007, 0.000295,-0.000092,-0.009964,-0.005549, 0.002654, 0.036030,1, 0.000161, 0.000877,-0.000799,1,-0.297585, 0.095162, 9.801672,1,1
1778257877691,  2813.798,  2813.798, 0.029689,-0.008706,-0.995521, 0.000296,-0.000085,-0.009953,-0.006554, 0.010047, 0.038938,1, 0.001946,-0.000097,-0.000418,1,-0.297700, 0.095480, 9.801665,1,1
1778257877713,  2813.823,  2813.818, 0.030452,-0.008863,-0.996298, 0.000303,-0.000089,-0.009962,-0.001466, 0.005401, 0.034333,1, 0.001510,-0.001385,-0.001132,1,-0.297586, 0.095317, 9.801670,1,1
1778257877734,  2813.843,  2813.838, 0.029966,-0.008008,-0.995286, 0.000299,-0.000081,-0.009954, 0.006422, 0.014205, 0.038495,1, 0.002277,-0.000209,-0.000355,1,-0.297573, 0.095765, 9.801666,1,1
1778257877761,  2813.868,  2813.868, 0.030318,-0.008890,-0.996128, 0.000302,-0.000089,-0.009960,-0.000235, 0.009253, 0.032985,1, 0.003143, 0.000195, 0.000567,1,-0.297561, 0.096528, 9.801660,1,1
1778257877783,  2813.893,  2813.888, 0.030090,-0.009558,-0.996081, 0.000301,-0.000094,-0.009962,-0.004784, 0.009157, 0.030430,1, 0.005135,-0.000429,-0.000232,1,-0.297534, 0.097382, 9.801652,1,1
1778257877806,  2813.913,  2813.913, 0.030629,-0.009646,-0.995679, 0.000305,-0.000095,-0.009957, 0.002978, 0.004164, 0.037361,1, 0.004924,-0.001075, 0.000653,1,-0.297356, 0.098917, 9.801641,1,1
1778257877831,  2813.938,  2813.938, 0.030632,-0.008908,-0.995379, 0.000306,-0.000090,-0.009955, 0.003112, 0.012535, 0.040303,1, 0.006509,-0.000380, 0.000065,1,-0.297269, 0.100095, 9.801632,1,1
1778257877853,  2813.963,  2813.958, 0.030734,-0.009087,-0.995938, 0.000307,-0.000089,-0.009960, 0.007478, 0.011227, 0.033682,1, 0.007890,-0.001160,-0.000009,1,-0.297080, 0.101494, 9.801623,1,1
1778257877876,  2813.983,  2813.983, 0.030675,-0.009468,-0.995851, 0.000305,-0.000095,-0.009959, 0.003811, 0.010865, 0.035638,1, 0.008663, 0.000818,-0.000214,1,-0.297033, 0.103988, 9.801599,1,1
1778257877901,  2814.008,  2814.008, 0.030483,-0.009543,-0.995915, 0.000308,-0.000094,-0.009958, 0.001991, 0.011742, 0.034994,1, 0.010046,-0.000622, 0.000447,1,-0.296956, 0.105466, 9.801585,1,1
1778257877923,  2814.033,  2814.028, 0.030422,-0.011005,-0.996070, 0.000302,-0.000111,-0.009961,-0.003534, 0.005958, 0.034048,1, 0.009666,-0.000893, 0.000461,1,-0.296845, 0.107497, 9.801567,1,1
1778257877946,  2814.053,  2814.053, 0.029720,-0.010886,-0.995313, 0.000298,-0.000112,-0.009955,-0.005186, 0.003626, 0.040855,1, 0.011511,-0.000914, 0.000123,1,-0.296611, 0.110742, 9.801538,1,1
1778257877971,  2814.078,  2814.078, 0.030338,-0.010216,-0.995232, 0.000306,-0.000102,-0.009952, 0.001052, 0.012556, 0.041629,1, 0.011427,-0.000316,-0.000096,1,-0.296448, 0.113099, 9.801516,1,1
1778257877993,  2814.103,  2814.098, 0.030533,-0.012205,-0.996028, 0.000305,-0.000121,-0.009961, 0.000950, 0.004069, 0.035412,1, 0.013110,-0.001049, 0.000508,1,-0.296154, 0.115585, 9.801496,1,1
1778257878016,  2814.123,  2814.123, 0.029703,-0.012386,-0.995690, 0.000300,-0.000124,-0.009954,-0.004733,-0.002249, 0.037073,1, 0.014535,-0.000281,-0.000104,1,-0.296013, 0.119674, 9.801451,1,1
1778257878042,  2814.148,  2814.148, 0.029694,-0.011391,-0.995616, 0.000299,-0.000115,-0.009957,-0.004704, 0.010229, 0.037771,1, 0.014327,-0.000146, 0.000705,1,-0.295895, 0.122380, 9.801421,1,1
1778257878063,  2814.173,  2814.168, 0.029132,-0.011441,-0.995355, 0.000294,-0.000116,-0.009957,-0.010663, 0.010156, 0.037485,1, 0.013611,-0.000755, 0.000305,1,-0.295724, 0.125096, 9.801392,1,1
1778257878086,  2814.193,  2814.193, 0.029707,-0.013646,-0.995606, 0.000295,-0.000134,-0.009957,-0.003972,-0.004895, 0.037791,1, 0.014292,-0.001955, 0.000466,1,-0.295237, 0.129372, 9.801351,1,1
1778257878112,  2814.218,  2814.218, 0.029556,-0.013841,-0.995150, 0.000296,-0.000138,-0.009954,-0.005254,-0.004192, 0.042234,1, 0.014920, 0.000037, 0.000164,1,-0.295098, 0.132006, 9.801320,1,1
1778257878133,  2814.243,  2814.238, 0.029277,-0.012836,-0.996151, 0.000292,-0.000127,-0.009960,-0.008272, 0.005119, 0.034865,1, 0.015211,-0.000380,-0.000182,1,-0.294986, 0.135009, 9.801283,1,1
1778257878156,  2814.268,  2814.263, 0.029373,-0.012970,-0.995681, 0.000293,-0.000131,-0.009956,-0.006747, 0.011951, 0.036932,1, 0.016743,-0.000648, 0.000244,1,-0.294779, 0.139662, 9.801224,1,1
1778257878182,  2814.288,  2814.288, 0.029662,-0.014332,-0.995122, 0.000297,-0.000140,-0.009952,-0.003686, 0.001834, 0.042380,1, 0.016587,-0.001500, 0.001339,1,-0.294520, 0.142900, 9.801185,1,1
1778257878203,  2814.313,  2814.308, 0.030394,-0.016427,-0.995182, 0.000306,-0.000164,-0.009955, 0.010974,-0.009608, 0.034713,1, 0.016670, 0.000112, 0.000516,1,-0.294459, 0.146154, 9.801139,1,1
1778257878226,  2814.338,  2814.333, 0.030453,-0.015824,-0.994768, 0.000304,-0.000155,-0.009949, 0.004369,-0.004873, 0.045736,1, 0.015763,-0.000549,-0.000159,1,-0.294251, 0.150796, 9.801074,1,1
1778257878252,  2814.358,  2814.358, 0.030594,-0.015204,-0.995444, 0.000306,-0.000151,-0.009954, 0.005960, 0.004261, 0.039067,1, 0.015379,-0.000775, 0.000265,1,-0.294038, 0.153840, 9.801034,1,1
1778257878273,  2814.383,  2814.378, 0.030035,-0.018908,-0.995229, 0.000302,-0.000187,-0.009955, 0.003203,-0.024547, 0.031704,1, 0.014111,-0.001223,-0.000358,1,-0.293786, 0.156674, 9.800996,1,1
1778257878296,  2814.408,  2814.403, 0.029850,-0.016699,-0.995040, 0.000296,-0.000167,-0.009950,-0.000893,-0.003555, 0.042931,1, 0.012731,-0.000147, 0.000224,1,-0.293632, 0.160661, 9.800937,1,1
1778257878322,  2814.428,  2814.428, 0.030127,-0.015274,-0.995890, 0.000299,-0.000155,-0.009958, 0.001921, 0.012783, 0.034561,1, 0.011515,-0.000500, 0.000920,1,-0.293506, 0.162930, 9.800902,1,1
1778257878343,  2814.453,  2814.448, 0.030252,-0.019259,-0.995579, 0.000303,-0.000191,-0.009956, 0.002703,-0.016242, 0.036063,1, 0.011021,-0.001375, 0.000369,1,-0.293276, 0.165057, 9.800874,1,1
1778257878366,  2814.478,  2814.473, 0.029185,-0.018969,-0.994921, 0.000293,-0.000187,-0.009946,-0.006980,-0.018405, 0.043987,1, 0.008967,-0.001132,-0.000284,1,-0.293150, 0.167901, 9.800829,1,1
1778257878392,  2814.498,  2814.498, 0.029436,-0.016975,-0.995436, 0.000294,-0.000170,-0.009956,-0.004440, 0.002760, 0.038914,1, 0.007957,-0.000764,-0.000054,1,-0.293087, 0.169480, 9.800804,1,1
1778257878413,  2814.523,  2814.518, 0.029932,-0.017384,-0.995973, 0.000299,-0.000173,-0.009959, 0.001998, 0.008177, 0.038732,1, 0.009014,-0.000857,-0.000398,1,-0.292970, 0.171248, 9.800776,1,1
1778257878436,  2814.548,  2814.543, 0.029876,-0.019374,-0.994962, 0.000300,-0.000190,-0.009949, 0.000095,-0.016483, 0.043491,1, 0.008351,-0.000086,-0.000568,1,-0.292886, 0.173775, 9.800735,1,1
1778257878462,  2814.568,  2814.568, 0.029774,-0.018289,-0.995523, 0.000298,-0.000183,-0.009955,-0.000830,-0.004237, 0.037968,1, 0.008193,-0.000389, 0.000381,1,-0.292797, 0.175371, 9.800709,1,1
1778257878484,  2814.593,  2814.588, 0.029475,-0.017716,-0.995409, 0.000295,-0.000174,-0.009954,-0.004445, 0.004938, 0.038064,1, 0.007431, 0.000228,-0.000375,1,-0.292801, 0.176900, 9.800681,1,1
1778257878511,  2814.618,  2814.618, 0.029643,-0.018134,-0.996256, 0.000296,-0.000180,-0.009959,-0.001999, 0.001399, 0.030707,1, 0.008328, 0.000159,-0.000639,1,-0.292707, 0.179499, 9.800637,1,1
1778257878532,  2814.638,  2814.638, 0.030714,-0.016747,-0.995177, 0.000306,-0.000166,-0.009954, 0.008633, 0.016604, 0.041261,1, 0.008764,-0.001408,-0.000222,1,-0.292528, 0.181105, 9.800612,1,1
1778257878554,  2814.663,  2814.658, 0.029542,-0.019794,-0.996087, 0.000297,-0.000196,-0.009958,-0.003931,-0.000589, 0.041210,1, 0.008753,-0.000526,-0.000087,1,-0.292448, 0.182715, 9.800586,1,1
1778257878581,  2814.688,  2814.688, 0.029466,-0.018592,-0.996399, 0.000295,-0.000188,-0.009964,-0.003420, 0.002621, 0.029211,1, 0.009258,-0.000375, 0.000001,1,-0.292371, 0.185232, 9.800540,1,1
1778257878602,  2814.713,  2814.708, 0.029529,-0.018806,-0.995043, 0.000298,-0.000188,-0.009949,-0.005984, 0.009060, 0.041135,1, 0.010783,-0.000306,-0.000705,1,-0.292209, 0.187152, 9.800508,1,1
1778257878624,  2814.733,  2814.728, 0.030183,-0.018363,-0.995924, 0.000304,-0.000186,-0.009960, 0.002591, 0.001026, 0.039439,1, 0.012352,-0.000636,-0.001157,1,-0.292072, 0.189466, 9.800468,1,1
1778257878651,  2814.758,  2814.758, 0.029589,-0.018067,-0.995949, 0.000298,-0.000182,-0.009958,-0.001681, 0.015713, 0.033487,1, 0.014488,-0.001201,-0.000601,1,-0.291813, 0.193344, 9.800401,1,1
1778257878672,  2814.783,  2814.778, 0.028862,-0.019386,-0.994979, 0.000287,-0.000193,-0.009954,-0.006607, 0.008334, 0.039930,1, 0.015491,-0.000945,-0.001049,1,-0.291641, 0.196260, 9.800347,1,1
1778257878694,  2814.803,  2814.798, 0.029256,-0.020588,-0.996469, 0.000292,-0.000205,-0.009963,-0.006580, 0.005922, 0.036278,1, 0.015056,-0.001101,-0.001547,1,-0.291442, 0.199188, 9.800294,1,1
1778257878721,  2814.828,  2814.828, 0.028931,-0.020881,-0.995491, 0.000290,-0.000210,-0.009954,-0.007456,-0.001825, 0.037795,1, 0.015939,-0.000827,-0.000502,1,-0.291147, 0.203440, 9.800216,1,1
1778257878742,  2814.853,  2814.848, 0.029103,-0.020290,-0.995340, 0.000293,-0.000201,-0.009950,-0.002510, 0.012773, 0.036439,1, 0.015865,-0.000954,-0.001397,1,-0.291007, 0.206540, 9.800155,1,1
1778257878764,  2814.873,  2814.868, 0.029318,-0.021407,-0.996261, 0.000294,-0.000212,-0.009959,-0.004403, 0.010979, 0.034907,1, 0.017229,-0.000659,-0.001128,1,-0.290815, 0.209818, 9.800091,1,1
1778257878791,  2814.898,  2814.898, 0.029742,-0.021688,-0.995877, 0.000298,-0.000216,-0.009959, 0.001207, 0.001636, 0.033789,1, 0.017084,-0.001048,-0.000657,1,-0.290428, 0.214854, 9.799994,1,1
1778257878812,  2814.923,  2814.918, 0.029656,-0.022056,-0.995220, 0.000300,-0.000220,-0.009947, 0.002277,-0.000077, 0.040421,1, 0.017261,-0.001880,-0.000716,1,-0.290166, 0.218129, 9.799929,1,1
1778257878834,  2814.943,  2814.938, 0.029847,-0.021766,-0.995476, 0.000300,-0.000221,-0.009954, 0.004528,-0.001819, 0.039207,1, 0.017398,-0.001444,-0.000557,1,-0.289920, 0.221487, 9.799861,1,1
1778257878861,  2814.968,  2814.968, 0.030279,-0.021956,-0.995928, 0.000303,-0.000218,-0.009961, 0.007248, 0.010781, 0.033041,1, 0.017156,-0.001221,-0.000011,1,-0.289646, 0.226635, 9.799751,1,1
1778257878883,  2814.993,  2814.988, 0.030273,-0.023190,-0.995084, 0.000304,-0.000234,-0.009951, 0.009255, 0.009307, 0.038068,1, 0.017798,-0.000880, 0.000157,1,-0.289492, 0.230106, 9.799675,1,1
1778257878904,  2815.013,  2815.008, 0.029670,-0.023709,-0.995429, 0.000297,-0.000236,-0.009952, 0.003375,-0.004171, 0.042847,1, 0.016843,-0.000887,-0.000215,1,-0.289458, 0.233291, 9.799601,1,1
1778257878931,  2815.038,  2815.038, 0.029418,-0.024152,-0.995704, 0.000293,-0.000239,-0.009957,-0.000707, 0.000889, 0.034976,1, 0.016451,-0.000921, 0.000567,1,-0.289169, 0.238252, 9.799490,1,1
1778257878953,  2815.063,  2815.058, 0.030192,-0.024525,-0.994845, 0.000300,-0.000246,-0.009949, 0.000451,-0.000994, 0.034774,1, 0.016541,-0.001180, 0.000285,1,-0.288926, 0.241418, 9.799419,1,1
1778257878974,  2815.083,  2815.078, 0.030447,-0.024805,-0.995239, 0.000304,-0.000248,-0.009953, 0.017352, 0.006039, 0.041927,1, 0.016788,-0.001257, 0.000183,1,-0.288619, 0.244730, 9.799346,1,1
1778257879001,  2815.108,  2815.108, 0.030078,-0.025613,-0.995514, 0.000302,-0.000254,-0.009954, 0.006562,-0.002066, 0.036588,1, 0.017020,-0.000961, 0.000326,1,-0.288372, 0.249641, 9.799230,1,1
1778257879023,  2815.133,  2815.128, 0.029258,-0.026624,-0.995245, 0.000290,-0.000264,-0.009957, 0.005784,-0.000852, 0.033885,1, 0.017496,-0.001368, 0.000685,1,-0.288230, 0.253039, 9.799147,1,1
1778257879046,  2815.153,  2815.153, 0.028921,-0.027609,-0.995160, 0.000291,-0.000276,-0.009952,-0.004375,-0.013451, 0.039861,1, 0.015459,-0.000569, 0.000434,1,-0.287980, 0.257780, 9.799030,1,1
1778257879071,  2815.178,  2815.178, 0.028281,-0.027637,-0.995382, 0.000284,-0.000279,-0.009954,-0.010527,-0.010812, 0.037608,1, 0.014961,-0.000754,-0.000090,1,-0.287849, 0.260678, 9.798958,1,1
1778257879093,  2815.203,  2815.198, 0.028888,-0.026423,-0.995465, 0.000290,-0.000262,-0.009952,-0.003084, 0.008213, 0.039431,1, 0.015161,-0.000595, 0.000066,1,-0.287687, 0.263610, 9.798884,1,1
1778257879116,  2815.218,  2815.223, 0.029006,-0.026781,-0.995637, 0.000291,-0.000268,-0.009957,-0.001993,-0.001871, 0.036033,1, 0.015464,-0.000889, 0.000189,1,-0.287643, 0.268195, 9.798761,1,1
1778257879141,  2815.248,  2815.248, 0.029132,-0.027860,-0.995312, 0.000289,-0.000277,-0.009951,-0.001844,-0.002584, 0.038018,1, 0.014750,-0.000896, 0.000798,1,-0.287501, 0.271093, 9.798685,1,1
1778257879163,  2815.273,  2815.268, 0.028967,-0.028137,-0.995841, 0.000288,-0.000282,-0.009959,-0.004005,-0.008665, 0.039598,1, 0.014133,-0.000987, 0.000126,1,-0.287337, 0.273914, 9.798612,1,1
1778257879186,  2815.293,  2815.293, 0.028839,-0.028200,-0.995134, 0.000290,-0.000279,-0.009954,-0.004406, 0.001206, 0.039578,1, 0.014810,-0.000529, 0.000029,1,-0.287199, 0.278213, 9.798494,1,1
1778257879211,  2815.318,  2815.318, 0.029006,-0.028126,-0.994879, 0.000290,-0.000280,-0.009948,-0.002572, 0.004809, 0.041999,1, 0.014368,-0.000748, 0.000784,1,-0.287002, 0.281077, 9.798419,1,1
1778257879233,  2815.343,  2815.338, 0.028837,-0.028278,-0.995319, 0.000291,-0.000283,-0.009954,-0.000133, 0.002402, 0.041655,1, 0.014861, 0.000086, 0.000559,1,-0.286875, 0.284048, 9.798337,1,1
1778257879256,  2815.363,  2815.363, 0.029254,-0.028224,-0.995232, 0.000294,-0.000279,-0.009952, 0.000309, 0.011350, 0.038337,1, 0.015356,-0.001571, 0.000540,1,-0.286526, 0.288610, 9.798214,1,1
1778257879282,  2815.388,  2815.388, 0.030147,-0.029025,-0.994845, 0.000300,-0.000291,-0.009950, 0.009337, 0.006563, 0.042050,1, 0.015205,-0.000947, 0.001119,1,-0.286276, 0.291678, 9.798130,1,1
1778257879303,  2815.413,  2815.408, 0.029652,-0.029487,-0.995880, 0.000298,-0.000295,-0.009955, 0.004545, 0.007657, 0.037679,1, 0.015647,-0.001186, 0.000804,1,-0.286120, 0.294739, 9.798043,1,1
1778257879326,  2815.433,  2815.433, 0.029530,-0.030115,-0.995826, 0.000295,-0.000298,-0.009956, 0.003711, 0.003923, 0.032195,1, 0.017623,-0.001004, 0.000561,1,-0.285851, 0.299796, 9.797897,1,1
1778257879352,  2815.458,  2815.458, 0.029489,-0.030300,-0.994581, 0.000296,-0.000299,-0.009949, 0.003533, 0.005548, 0.044309,1, 0.017619,-0.000910, 0.001508,1,-0.285626, 0.303244, 9.797798,1,1
1778257879373,  2815.483,  2815.478, 0.028461,-0.034669,-0.995780, 0.000285,-0.000349,-0.009956,-0.001707,-0.031180, 0.033637,1, 0.017860,-0.000015, 0.000545,1,-0.285483, 0.306758, 9.797692,1,1
1778257879396,  2815.508,  2815.503, 0.028448,-0.030797,-0.995706, 0.000286,-0.000312,-0.009960,-0.006320, 0.009339, 0.033016,1, 0.017415,-0.001226,-0.000100,1,-0.285264, 0.311900, 9.797537,1,1
1778257879422,  2815.528,  2815.528, 0.027912,-0.031963,-0.994898, 0.000278,-0.000315,-0.009948,-0.011483, 0.001123, 0.040835,1, 0.016282,-0.000859, 0.000813,1,-0.285176, 0.315079, 9.797438,1,1
1778257879443,  2815.553,  2815.548, 0.029254,-0.033975,-0.995727, 0.000291,-0.000340,-0.009956,-0.003019,-0.016892, 0.039110,1, 0.014362,-0.001335, 0.000051,1,-0.284997, 0.317999, 9.797348,1,1
1778257879466,  2815.578,  2815.573, 0.029106,-0.033227,-0.995039, 0.000290,-0.000333,-0.009949, 0.000737,-0.004364, 0.039247,1, 0.012114,-0.000739, 0.000113,1,-0.284669, 0.321859, 9.797232,1,1
1778257879492,  2815.598,  2815.598, 0.028816,-0.033125,-0.994768, 0.000290,-0.000330,-0.009946,-0.002053,-0.000995, 0.041825,1, 0.011958,-0.000281,-0.000123,1,-0.284635, 0.324221, 9.797155,1,1
1778257879513,  2815.623,  2815.618, 0.028779,-0.034933,-0.995050, 0.000288,-0.000348,-0.009951,-0.001910,-0.007682, 0.035357,1, 0.011125,-0.000824,-0.000381,1,-0.284481, 0.326627, 9.797080,1,1
1778257879536,  2815.648,  2815.643, 0.029356,-0.035359,-0.995156, 0.000294,-0.000355,-0.009953, 0.003522,-0.017660, 0.037856,1, 0.008876, 0.000006, 0.000664,1,-0.284357, 0.329370, 9.796991,1,1
1778257879562,  2815.668,  2815.668, 0.028893,-0.033039,-0.994523, 0.000290,-0.000329,-0.009945,-0.000931, 0.006795, 0.044005,1, 0.008326,-0.000043, 0.000224,1,-0.284276, 0.331055, 9.796937,1,1
1778257879583,  2815.693,  2815.688, 0.029783,-0.034157,-0.994901, 0.000296,-0.000338,-0.009949, 0.002860, 0.008474, 0.036552,1, 0.008146,-0.000339, 0.000115,1,-0.284226, 0.332598, 9.796886,1,1
1778257879606,  2815.718,  2815.713, 0.028808,-0.035557,-0.994783, 0.000289,-0.000356,-0.009948,-0.001676,-0.014168, 0.041333,1, 0.007358,-0.000340, 0.000468,1,-0.284177, 0.334761, 9.796814,1,1
1778257879632,  2815.738,  2815.738, 0.028483,-0.036278,-0.994696, 0.000284,-0.000362,-0.009946,-0.004731,-0.019961, 0.042142,1, 0.005347,-0.000087, 0.000482,1,-0.284051, 0.335973, 9.796776,1,1
1778257879654,  2815.763,  2815.758, 0.028975,-0.034198,-0.995410, 0.000288,-0.000343,-0.009957,-0.008487,-0.004010, 0.034605,1, 0.004113,-0.000549,-0.000049,1,-0.283927, 0.336871, 9.796749,1,1
1778257879676,  2815.788,  2815.783, 0.029431,-0.035220,-0.994700, 0.000292,-0.000350,-0.009949, 0.004758,-0.007637, 0.042047,1, 0.002705,-0.000064, 0.000341,1,-0.283860, 0.337842, 9.796718,1,1
1778257879702,  2815.808,  2815.808, 0.028129,-0.037123,-0.994349, 0.000282,-0.000371,-0.009943,-0.008046,-0.025728, 0.045467,1, 0.001594, 0.000223,-0.000288,1,-0.283913, 0.338522, 9.796692,1,1
1778257879724,  2815.833,  2815.828, 0.027799,-0.034033,-0.995490, 0.000280,-0.000337,-0.009956,-0.005954,-0.003868, 0.030442,1, 0.001962, 0.000736,-0.000754,1,-0.284032, 0.338938, 9.796675,1,1
1778257879751,  2815.858,  2815.858, 0.027290,-0.035390,-0.994504, 0.000274,-0.000352,-0.009945,-0.016441,-0.007984, 0.043912,1, 0.000234, 0.000247, 0.000072,1,-0.284071, 0.339076, 9.796669,1,1
1778257879772,  2815.878,  2815.878, 0.027249,-0.035433,-0.995007, 0.000272,-0.000358,-0.009950,-0.016734,-0.008435, 0.038988,1,-0.000478,-0.000369,-0.000313,1,-0.283947, 0.339027, 9.796674,1,1
1778257879794,  2815.903,  2815.898, 0.028079,-0.034855,-0.996138, 0.000282,-0.000345,-0.009958,-0.006260,-0.003687, 0.034560,1,-0.001457,-0.000718,-0.000114,1,-0.283847, 0.338774, 9.796685,1,1
1778257879821,  2815.928,  2815.928, 0.028282,-0.034797,-0.995239, 0.000281,-0.000350,-0.009954,-0.006456,-0.002989, 0.036741,1,-0.002221, 0.000272,-0.000864,1,-0.283815, 0.338186, 9.796707,1,1
1778257879842,  2815.953,  2815.948, 0.027663,-0.034073,-0.994908, 0.000277,-0.000344,-0.009950,-0.005807,-0.000816, 0.046580,1,-0.002498, 0.000352,-0.000235,1,-0.283841, 0.337702, 9.796722,1,1
1778257879864,  2815.973,  2815.968, 0.028549,-0.034283,-0.995726, 0.000286,-0.000343,-0.009953,-0.009990, 0.002019, 0.036164,1,-0.002567, 0.000330, 0.001077,1,-0.283746, 0.337251, 9.796741,1,1
1778257879891,  2815.998,  2815.998, 0.029073,-0.033792,-0.995046, 0.000292,-0.000338,-0.009951, 0.001500, 0.005158, 0.038700,1,-0.002781,-0.001063,-0.000253,1,-0.283575, 0.336458, 9.796773,1,1
1778257879912,  2816.023,  2816.018, 0.028639,-0.034753,-0.994352, 0.000288,-0.000346,-0.009943, 0.000255,-0.003308, 0.048815,1,-0.002676, 0.001617,-0.000501,1,-0.283424, 0.336184, 9.796787,1,1
1778257879934,  2816.043,  2816.038, 0.027807,-0.034269,-0.995722, 0.000278,-0.000345,-0.009957,-0.009975,-0.003709, 0.033199,1,-0.002919, 0.000705,-0.000176,1,-0.283520, 0.335604, 9.796804,1,0
1778257879961,  2816.068,  2816.068, 0.027341,-0.033428,-0.995808, 0.000273,-0.000336,-0.009958,-0.017461, 0.004719, 0.030663,1,-0.003396, 0.000557, 0.000340,1,-0.283676, 0.334939, 9.796823,1,0
1778257879982,  2816.093,  2816.088, 0.028812,-0.034458,-0.994606, 0.000290,-0.000344,-0.009947,-0.006497, 0.001389, 0.031491,1,-0.004267, 0.000572,-0.000526,1,-0.283851, 0.333786, 9.796857,1,0
1778257880004,  2816.113,  2816.108, 0.029162,-0.033844,-0.994945, 0.000291,-0.000339,-0.009946,-0.004815,-0.001578, 0.043094,1,-0.003858, 0.000272, 0.000521,1,-0.283893, 0.332954, 9.796884,1,0
1778257880031,  2816.138,  2816.138, 0.027530,-0.033110,-0.994870, 0.000282,-0.000332,-0.009945,-0.002653, 0.007823, 0.045499,1,-0.002995, 0.000203,-0.000115,1,-0.283959, 0.332266, 9.796906,1,0
1778257880052,  2816.163,  2816.158, 0.028010,-0.033807,-0.996716, 0.000278,-0.000336,-0.009964,-0.015574, 0.002688, 0.037005,1,-0.003587,-0.000075,-0.000801,1,-0.283985, 0.331217, 9.796940,1,0
1778257880074,  2816.183,  2816.178, 0.028638,-0.033860,-0.994981, 0.000286,-0.000339,-0.009951,-0.005429,-0.004120, 0.033521,1,-0.003057,-0.000427,-0.000537,1,-0.283928, 0.330578, 9.796963,1,0
1778257880101,  2816.208,  2816.208, 0.029544,-0.031284,-0.994336, 0.000295,-0.000313,-0.009944, 0.005964, 0.023149, 0.045885,1,-0.002097, 0.000392,-0.000097,1,-0.283682, 0.329879, 9.796994,1,0
1778257880123,  2816.233,  2816.228, 0.029991,-0.033565,-0.995502, 0.000298,-0.000332,-0.009956, 0.012644, 0.015724, 0.037871,1,-0.001586, 0.000132, 0.000045,1,-0.283747, 0.329461, 9.797006,1,0
1778257880144,  2816.253,  2816.248, 0.028863,-0.035053,-0.995039, 0.000289,-0.000351,-0.009951, 0.000629,-0.017543, 0.033045,1,-0.001213,-0.001315,-0.000004,1,-0.283609, 0.329120, 9.797022,1,0
1778257880171,  2816.278,  2816.278, 0.029021,-0.032771,-0.994640, 0.000290,-0.000327,-0.009950, 0.000839, 0.007322, 0.042946,1,-0.001071,-0.000196, 0.000070,1,-0.283751, 0.328666, 9.797032,1,0
1778257880193,  2816.303,  2816.298, 0.029679,-0.032285,-0.995190, 0.000296,-0.000320,-0.009949, 0.004759, 0.017977, 0.035389,1,-0.000769,-0.000569, 0.000445,1,-0.283713, 0.328364, 9.797044,1,0
1778257880214,  2816.323,  2816.318, 0.029470,-0.033407,-0.994696, 0.000298,-0.000333,-0.009945, 0.011335, 0.005446, 0.040661,1,-0.000367,-0.000183, 0.000248,1,-0.283611, 0.328206, 9.797052,1,0
1778257880241,  2816.348,  2816.348, 0.028783,-0.033401,-0.994908, 0.000290,-0.000337,-0.009948,-0.001283, 0.000790, 0.040330,1, 0.000627, 0.000085,-0.000042,1,-0.283551, 0.328357, 9.797049,1,0
1778257880263,  2816.373,  2816.368, 0.027585,-0.032170,-0.995856, 0.000273,-0.000324,-0.009958,-0.011108, 0.013058, 0.033075,1, 0.001112,-0.000330,-0.000598,1,-0.283616, 0.328518, 9.797042,1,0
1778257880286,  2816.393,  2816.393, 0.027840,-0.032941,-0.994689, 0.000277,-0.000328,-0.009945,-0.010549, 0.005770, 0.042464,1, 0.001362,-0.000340, 0.000031,1,-0.283555, 0.328858, 9.797031,1,0
1778257880311,  2816.418,  2816.418, 0.028745,-0.033738,-0.995520, 0.000286,-0.000334,-0.009951,-0.001723,-0.002014, 0.034310,1, 0.001499,-0.000041,-0.000116,1,-0.283620, 0.328886, 9.797029,1,0
1778257880333,  2816.443,  2816.438, 0.028380,-0.032961,-0.994560, 0.000285,-0.000331,-0.009950,-0.002588, 0.000849, 0.039325,1, 0.002244, 0.000153, 0.000014,1,-0.283691, 0.329312, 9.797012,1,0
1778257880356,  2816.463,  2816.463, 0.028351,-0.033190,-0.994910, 0.000283,-0.000330,-0.009951,-0.005661, 0.004411, 0.040261,1, 0.001730, 0.000842, 0.000167,1,-0.283718, 0.329945, 9.796990,1,0
1778257880381,  2816.488,  2816.488, 0.028474,-0.035171,-0.995706, 0.000281,-0.000349,-0.009956,-0.004553,-0.014587, 0.032437,1, 0.002286, 0.000473,-0.000623,1,-0.283807, 0.330390, 9.796973,1,0
1778257880403,  2816.513,  2816.508, 0.028978,-0.033694,-0.995024, 0.000292,-0.000338,-0.009952,-0.005918,-0.005708, 0.038462,1, 0.001581,-0.000353,-0.001101,1,-0.283712, 0.330837, 9.796961,1,0
1778257880426,  2816.533,  2816.533, 0.029197,-0.033708,-0.994634, 0.000291,-0.000338,-0.009945, 0.002745, 0.000379, 0.042929,1, 0.000242, 0.000110,-0.000249,1,-0.283585, 0.330948, 9.796961,1,0
1778257880451,  2816.558,  2816.558, 0.028547,-0.034770,-0.995179, 0.000287,-0.000347,-0.009951,-0.003702,-0.010097, 0.037586,1,-0.000414, 0.000628,-0.000485,1,-0.283676, 0.330862, 9.796961,1,0
1778257880473,  2816.583,  2816.578, 0.029407,-0.034265,-0.995175, 0.000295,-0.000342,-0.009954, 0.004932,-0.008750, 0.034670,1,-0.001715, 0.000238,-0.000163,1,-0.283802, 0.330573, 9.796967,1,0
1778257880496,  2816.603,  2816.603, 0.029277,-0.035199,-0.993713, 0.000294,-0.000351,-0.009940, 0.003243,-0.015204, 0.051990,1,-0.002498, 0.000236,-0.000079,1,-0.283846, 0.329977, 9.796986,1,0
1778257880522,  2816.628,  2816.628, 0.029681,-0.036033,-0.993619, 0.000297,-0.000357,-0.009935, 0.007294,-0.024112, 0.052936,1,-0.005544, 0.000123,-0.000796,1,-0.283785, 0.329083, 9.797018,1,0
1778257880543,  2816.653,  2816.648, 0.030537,-0.043414,-0.995511, 0.000307,-0.000431,-0.009954, 0.011192,-0.073329, 0.040544,1,-0.011428, 0.000184,-0.000839,1,-0.283750, 0.327207, 9.797082,1,0
1778257880566,  2816.673,  2816.673, 0.031624,-0.044145,-0.994972, 0.000313,-0.000444,-0.009952, 0.026360,-0.110216, 0.039887,1,-0.021873, 0.000646,-0.002507,1,-0.283787, 0.322010, 9.797253,1,0
1778257880592,  2816.698,  2816.698, 0.031919,-0.042782,-0.994380, 0.000319,-0.000432,-0.009944, 0.029044,-0.102102, 0.045863,1,-0.030479, 0.001346,-0.003511,1,-0.284019, 0.316490, 9.797426,1,0
1778257880613,  2816.723,  2816.718, 0.036627,-0.041406,-0.992755, 0.000362,-0.000415,-0.009928, 0.052885,-0.090149, 0.057159,1,-0.042314, 0.000702,-0.003835,1,-0.284167, 0.309102, 9.797657,1,0
1778257880636,  2816.748,  2816.743, 0.040770,-0.044439,-0.996963, 0.000406,-0.000445,-0.009964, 0.115536,-0.141231, 0.021232,1,-0.064375, 0.001016,-0.001529,1,-0.284314, 0.292562, 9.798161,1,0
1778257880662,  2816.768,  2816.768, 0.045350,-0.045963,-0.995647, 0.000453,-0.000473,-0.009964, 0.160009,-0.170620, 0.034554,1,-0.081068, 0.002410,-0.001364,1,-0.284800, 0.277588, 9.798582,1,0
1778257880683,  2816.793,  2816.788, 0.046047,-0.043293,-0.990677, 0.000461,-0.000434,-0.009904, 0.166811,-0.168601, 0.063331,1,-0.096776, 0.003971,-0.003523,1,-0.285521, 0.259507, 9.799057,1,0
1778257880706,  2816.818,  2816.813, 0.048331,-0.038969,-0.996014, 0.000481,-0.000409,-0.009958, 0.185737,-0.149763, 0.032091,1,-0.113413, 0.005089,-0.005679,1,-0.288429, 0.228882, 9.799735,1,0
1778257880732,  2816.838,  2816.838, 0.051313,-0.026643,-0.997873, 0.000510,-0.000277,-0.009988, 0.214039,-0.052343, 0.014362,1,-0.124400, 0.004887,-0.004805,1,-0.289329, 0.205048, 9.800236,1,0
1778257880753,  2816.863,  2816.858, 0.051746,-0.028066,-0.991632, 0.000516,-0.000283,-0.009906, 0.228817,-0.076540, 0.064627,1,-0.131349, 0.005064,-0.006203,1,-0.290313, 0.179688, 9.800705,1,0
1778257880776,  2816.888,  2816.883, 0.053368,-0.029371,-0.995258, 0.000533,-0.000305,-0.009954, 0.231416,-0.144638, 0.041104,1,-0.143573, 0.007542,-0.008823,1,-0.292179, 0.138906, 9.801312,1,0
1778257880802,  2816.908,  2816.908, 0.058927,-0.023678,-0.993801, 0.000559,-0.000250,-0.009967, 0.284394,-0.118321, 0.055733,1,-0.157369, 0.005532,-0.006586,1,-0.293658, 0.108964, 9.801646,1,0
1778257880823,  2816.933,  2816.928, 0.056251,-0.028228,-0.989910, 0.000565,-0.000269,-0.009927, 0.255728,-0.219522, 0.060004,1,-0.170540, 0.006255,-0.006820,1,-0.295106, 0.075863, 9.801915,1,0
1778257880846,  2816.958,  2816.953, 0.056797,-0.029770,-0.991119, 0.000563,-0.000303,-0.009946, 0.259584,-0.266239, 0.082542,1,-0.202260, 0.010918,-0.012573,1,-0.297747, 0.019384, 9.802110,1,0
1778257880872,  2816.978,  2816.978, 0.054205,-0.017987,-0.990652, 0.000545,-0.000191,-0.009908, 0.231922,-0.192478, 0.087073,1,-0.220170, 0.012307,-0.011459,1,-0.300033,-0.022966, 9.802032,1,0
1778257880894,  2817.003,  2816.998, 0.055399,-0.012782,-0.994402, 0.000546,-0.000134,-0.009935, 0.234326,-0.171438, 0.080246,1,-0.241657, 0.013088,-0.011290,1,-0.302468,-0.069374, 9.801739,1,0
1778257880916,  2817.028,  2817.023, 0.055759,-0.009559,-0.994924, 0.000551,-0.000105,-0.009942, 0.240385,-0.230679, 0.044029,1,-0.272611, 0.014343,-0.013940,1,-0.306868,-0.145449, 9.800769,1,0
1778257880942,  2817.048,  2817.048, 0.057453, 0.001176,-0.992934, 0.000576,-0.000013,-0.009936, 0.253996,-0.180163, 0.062534,1,-0.286846, 0.015503,-0.013709,1,-0.309902,-0.200660, 9.799698,1,0
1778257880964,  2817.073,  2817.068, 0.061034, 0.024619,-0.993312, 0.000609, 0.000222,-0.009930, 0.275394,-0.082385, 0.061262,1,-0.296750, 0.017173,-0.014598,1,-0.312972,-0.258369, 9.798248,1,0
1778257880991,  2817.098,  2817.098, 0.062424, 0.031399,-0.997293, 0.000623, 0.000301,-0.009967, 0.294844,-0.030429, 0.015560,1,-0.307755, 0.016822,-0.014814,1,-0.317840,-0.347960, 9.795320,1,0
1778257881012,  2817.118,  2817.118, 0.060430, 0.029039,-0.998547, 0.000605, 0.000272,-0.009985, 0.271756,-0.114453, 0.000859,1,-0.310626, 0.020420,-0.014594,1,-0.321475,-0.408930, 9.792845,1,0
1778257881034,  2817.143,  2817.138, 0.055692, 0.050033,-0.990346, 0.000560, 0.000479,-0.009900, 0.241878,-0.049723, 0.071425,1,-0.306760, 0.020376,-0.017507,1,-0.325295,-0.469289, 9.790012,1,0
1778257881061,  2817.168,  2817.168, 0.049942, 0.052867,-0.992389, 0.000506, 0.000519,-0.009923, 0.159681,-0.030792, 0.053670,1,-0.303088, 0.019073,-0.021208,1,-0.330637,-0.558699, 9.785138,1,0
1778257881082,  2817.193,  2817.188, 0.069582, 0.036527,-1.010839, 0.000531, 0.000418,-0.009980, 0.106336,-0.095048, 0.026355,1,-0.306065, 0.018051,-0.024004,1,-0.333925,-0.618460, 9.781430,1,0
1778257881104,  2817.213,  2817.208, 0.069855, 0.032017,-1.004646, 0.000706, 0.000282,-0.009947, 0.351364,-0.554155,-0.042613,1,-0.309394,-0.002839,-0.032310,1,-0.336104,-0.677715, 9.777430,1,0
1778257881131,  2817.238,  2817.238, 0.104329, 0.066610,-1.014731, 0.000989, 0.000597,-0.010217, 0.688609,-0.106099,-0.179635,1,-0.312522, 0.006389,-0.047546,1,-0.334592,-0.769086, 9.770719,1,0
1778257881152,  2817.263,  2817.258, 0.070288, 0.064066,-0.948239, 0.000741, 0.000650,-0.009458, 0.712713,-0.094695, 0.455844,1,-0.329878, 0.029356,-0.039886,1,-0.338918,-0.833032, 9.765326,1,0
1778257881174,  2817.283,  2817.278, 0.032980, 0.044606,-0.992668, 0.000343, 0.000435,-0.009846, 0.072420,-0.415769, 0.256584,1,-0.352296, 0.043752,-0.039700,1,-0.346093,-0.901303, 9.759009,1,0
1778257881201,  2817.308,  2817.308, 0.034527, 0.086236,-1.041113, 0.000350, 0.000801,-0.010420,-0.015508,-0.149903,-0.460291,1,-0.359225, 0.023268,-0.062151,1,-0.354629,-1.006809, 9.748383,1,0
1778257881222,  2817.333,  2817.328, 0.062431, 0.137839,-0.957108, 0.000605, 0.001366,-0.009617, 0.155760, 0.237784,-0.032048,1,-0.344766, 0.019340,-0.061507,1,-0.357048,-1.076221, 9.740875,1,0
1778257881244,  2817.353,  2817.348, 0.078692, 0.127639,-0.957466, 0.000780, 0.001284,-0.009536, 0.327185, 0.225633, 0.497189,1,-0.316269, 0.015990,-0.061575,1,-0.359138,-1.140367, 9.733498,1,0
1778257881271,  2817.378,  2817.378, 0.090500, 0.125965,-1.015811, 0.000894, 0.001237,-0.010147, 0.526985, 0.018024,-0.237579,1,-0.275579, 0.014067,-0.069452,1,-0.360687,-1.225883, 9.723040,1,0
1778257881292,  2817.403,  2817.398, 0.131873, 0.151183,-0.981486, 0.001275, 0.001499,-0.009795, 0.746273, 0.175886,-0.132595,1,-0.235588, 0.014574,-0.073848,1,-0.361985,-1.274911, 9.716684,1,0
1778257881314,  2817.423,  2817.418, 0.164871, 0.169014,-0.979288, 0.001645, 0.001676,-0.009789, 1.130741, 0.284733, 0.199916,1,-0.168423,-0.012676,-0.084056,1,-0.359608,-1.311187, 9.711944,1,0
1778257881341,  2817.448,  2817.448, 0.194267, 0.145512,-0.990401, 0.001914, 0.001509,-0.009888, 1.550703, 0.082576,-0.004930,1,-0.094217, 0.005982,-0.096964,1,-0.354177,-1.347431, 9.707182,1,0
1778257881363,  2817.473,  2817.468, 0.186912, 0.109101,-0.990765, 0.001866, 0.001057,-0.009938, 1.562472,-0.345145, 0.008295,1,-0.061192, 0.006153,-0.100873,1,-0.352867,-1.361966, 9.705200,1,0
1778257881384,  2817.493,  2817.488, 0.184709, 0.141952,-0.983616, 0.001849, 0.001406,-0.009835, 1.456615,-0.102349, 0.000444,1,-0.038948, 0.016683,-0.107642,1,-0.352255,-1.371330, 9.703904,1,0
1778257881411,  2817.518,  2817.518, 0.167198, 0.128468,-0.991780, 0.001685, 0.001290,-0.009906, 1.286453,-0.117981,-0.023092,1,-0.010780, 0.016801,-0.117040,1,-0.353201,-1.378290, 9.702884,1,0
1778257881433,  2817.543,  2817.538, 0.161201, 0.113209,-0.990509, 0.001609, 0.001131,-0.009890, 1.198336,-0.238395,-0.014363,1, 0.004660, 0.017593,-0.132068,1,-0.352947,-1.379148, 9.702771,1,0
1778257881454,  2817.563,  2817.558, 0.168461, 0.095469,-1.034621, 0.001671, 0.000929,-0.010354, 1.211933,-0.407975,-0.264860,1, 0.017174, 0.016470,-0.134583,1,-0.352577,-1.377789, 9.702977,1,0
1778257881481,  2817.588,  2817.588, 0.186866, 0.135728,-0.926800, 0.001872, 0.001284,-0.009578, 1.481659,-0.038582, 0.615391,1, 0.056867, 0.010890,-0.145081,1,-0.350572,-1.368021, 9.704432,1,0
1778257881503,  2817.608,  2817.608, 0.200849, 0.169769,-0.845972, 0.001961, 0.001757,-0.008770, 1.618397, 0.310988, 1.410235,1, 0.075440, 0.032520,-0.180749,1,-0.351513,-1.351188, 9.706756,1,0
1778257881526,  2817.633,  2817.633, 0.142327, 0.066166,-1.108058, 0.001621, 0.000656,-0.011219, 1.040642,-0.677028,-1.156224,1, 0.117986, 0.035655,-0.183000,1,-0.355436,-1.322456, 9.710569,1,0
1778257881551,  2817.658,  2817.658, 0.053789, 0.068830,-1.021297, 0.000569, 0.000513,-0.010474, 0.169904,-0.626569,-0.302188,1, 0.133745, 0.027904,-0.154811,1,-0.357812,-1.297598, 9.713836,1,0
1778257881573,  2817.683,  2817.678, 0.131497, 0.149726,-0.972806, 0.001234, 0.001549,-0.009686, 0.561211,-0.019251,-0.081495,1, 0.125640, 0.020474,-0.157379,1,-0.357533,-1.272905, 9.717112,1,0
1778257881596,  2817.703,  2817.703, 0.182039, 0.126261,-0.983431, 0.001775, 0.001311,-0.009856, 1.427149,-0.007951, 0.076392,1, 0.101315, 0.027464,-0.199878,1,-0.358101,-1.243245, 9.720930,1,0
1778257881621,  2817.728,  2817.728, 0.194681, 0.074459,-1.000097, 0.001956, 0.000784,-0.009967, 1.549585,-0.498060,-0.084825,1, 0.100190, 0.038415,-0.192461,1,-0.360019,-1.225376, 9.723128,1,0
1778257881643,  2817.753,  2817.748, 0.133945, 0.078980,-0.978526, 0.001370, 0.000822,-0.009733, 1.208927,-0.365252, 0.410482,1, 0.095475, 0.043417,-0.184362,1,-0.363793,-1.207998, 9.725163,1,0
1778257881666,  2817.773,  2817.773, 0.153837, 0.121618,-1.013557, 0.001486, 0.001208,-0.010139, 1.139854, 0.009951,-0.211514,1, 0.115342, 0.039107,-0.195186,1,-0.369246,-1.179376, 9.728469,1,0
1778257881691,  2817.798,  2817.798, 0.158893, 0.159283,-0.954814, 0.001589, 0.001602,-0.009585, 1.187667, 0.401155, 0.367118,1, 0.119442, 0.028278,-0.176396,1,-0.370769,-1.157383, 9.731052,1,0
1778257881713,  2817.823,  2817.818, 0.196144, 0.125227,-0.945049, 0.001918, 0.001236,-0.009423, 1.301309, 0.075219, 0.533704,1, 0.133206, 0.028940,-0.170042,1,-0.372829,-1.132760, 9.733871,1,0
1778257881736,  2817.843,  2817.843, 0.272548, 0.076261,-1.013602, 0.002598, 0.000756,-0.010192, 2.296335,-0.346498,-0.201916,1, 0.182429, 0.048974,-0.198355,1,-0.377276,-1.088949, 9.738698,1,0
1778257881762,  2817.868,  2817.868, 0.298237, 0.086677,-1.003247, 0.003170, 0.000839,-0.009961, 2.540973,-0.206490,-0.096477,1, 0.219036, 0.059517,-0.199834,1,-0.384904,-1.049954, 9.742681,1,0
1778257881783,  2817.893,  2817.888, 0.032391, 0.169128,-1.008415, 0.000257, 0.001700,-0.010121, 0.060705, 0.398867,-0.451813,1, 0.222673, 0.032696,-0.166086,1,-0.389555,-1.007095, 9.747020,1,0
1778257881806,  2817.913,  2817.913, 0.092302, 0.085152,-0.988249, 0.000843, 0.000904,-0.009772, 0.515580,-0.110186, 0.061792,1, 0.262178, 0.001561,-0.187480,1,-0.389073,-0.937335, 9.753995,1,0
1778257881832,  2817.938,  2817.938, 0.135244, 0.090816,-1.010803, 0.001420, 0.000800,-0.010175, 0.943184,-0.007247,-0.154650,1, 0.244125,-0.029600,-0.178333,1,-0.381681,-0.890486, 9.758675,1,0
1778257881853,  2817.963,  2817.958, 0.140537, 0.088601,-0.952100, 0.001447, 0.000973,-0.009522, 1.050712, 0.275005, 0.087324,1, 0.242749,-0.033328,-0.139616,1,-0.372749,-0.844057, 9.763145,1,0
1778257881876,  2817.988,  2817.983, 0.199625, 0.021923,-0.914261, 0.001979, 0.000161,-0.009280, 1.599389,-0.563847, 0.803259,1, 0.266799,-0.038336,-0.165451,1,-0.356663,-0.770731, 9.769808,1,0
1778257881902,  2818.008,  2818.008, 0.208076, 0.124968,-0.837649, 0.002151, 0.001228,-0.008414, 1.688620, 0.497090, 1.558688,1, 0.260896,-0.000052,-0.167033,1,-0.351588,-0.720111, 9.773853,1,0
1778257881923,  2818.033,  2818.028, 0.214247,-0.012802,-1.021900, 0.002016, 0.000082,-0.010040, 1.564752, 0.250681, 0.669223,1, 0.243574, 0.041071,-0.143856,1,-0.355941,-0.672850, 9.777063,1,0
1778257881946,  2818.058,  2818.053, 0.303136, 0.010664,-0.949666, 0.002988,-0.000080,-0.009736, 2.596842,-0.498672, 0.467809,1, 0.282160, 0.120943,-0.159980,1,-0.379369,-0.594658, 9.781250,1,0
1778257881972,  2818.078,  2818.078, 0.354795, 0.114680,-0.811698, 0.003638, 0.001255,-0.007767, 3.073278, 0.575174, 1.822773,1, 0.274042, 0.206501,-0.112170,1,-0.412309,-0.541059, 9.783029,1,0
1778257881993,  2818.103,  2818.098, 0.236579,-0.011739,-1.244946, 0.002157,-0.000044,-0.011713, 1.906404,-0.955367,-1.304271,1, 0.262855, 0.142744,-0.144437,1,-0.443645,-0.492094, 9.784243,1,0
1778257882016,  2818.128,  2818.123, 0.000759, 0.129546,-0.990254, 0.000201, 0.001298,-0.010302,-0.457145, 0.845022, 0.075325,1, 0.239243, 0.046721,-0.127944,1,-0.465869,-0.418127, 9.786650,1,0
1778257882042,  2818.148,  2818.148,-0.027413,-0.116445,-0.975059,-0.000238,-0.001246,-0.009761,-0.735380,-1.520765, 0.226151,1, 0.236012,-0.038702,-0.122321,1,-0.465198,-0.371660, 9.788557,1,0
1778257882063,  2818.173,  2818.168, 0.094144, 0.136166,-0.845999, 0.000847, 0.001400,-0.008587,-0.250281, 0.470132, 0.941579,1, 0.257517,-0.100597,-0.168835,1,-0.446767,-0.324217, 9.791101,1,0
1778257882086,  2818.198,  2818.193, 0.088907,-0.062264,-1.113472, 0.000988,-0.000358,-0.010572, 0.445904,-0.874586,-1.125598,1, 0.197200,-0.029116,-0.113959,1,-0.424971,-0.257994, 9.794040,1,0
1778257882112,  2818.218,  2818.218, 0.081931,-0.057730,-1.509526, 0.000638,-0.000705,-0.015263, 0.367810,-0.787439,-5.008934,1, 0.228131, 0.105581,-0.169105,1,-0.438837,-0.214406, 9.794480,1,0
1778257882134,  2818.243,  2818.238, 0.017720,-0.041603,-0.585663, 0.000303,-0.000406,-0.006188, 0.561281,-0.453736, 0.994776,1, 0.305048, 0.114126,-0.157444,1,-0.462516,-0.160514, 9.794422,1,0
1778257882156,  2818.268,  2818.263,-0.036143, 0.037683,-0.696513,-0.000267, 0.000309,-0.006756,-0.833105, 0.292573, 2.964197,1, 0.315024, 0.019613,-0.197558,1,-0.479229,-0.067447, 9.794702,1,0
1778257882182,  2818.288,  2818.288,-0.006597,-0.142985,-1.279438,-0.000150,-0.001139,-0.012541,-0.548849,-1.423647,-2.752334,1, 0.311180, 0.028386,-0.222043,1,-0.485020,-0.012084, 9.794641,1,0
1778257882204,  2818.313,  2818.308,-0.030877, 0.045826,-0.899830,-0.000171, 0.000358,-0.009389,-0.524628,-1.136474,-1.296386,1, 0.283101, 0.029259,-0.246785,1,-0.491520, 0.044509, 9.794224,1,0
1778257882231,  2818.338,  2818.338, 0.063155,-0.076800,-0.987756, 0.000708,-0.000597,-0.010066, 0.125572,-0.640796, 0.106987,1, 0.254955, 0.004178,-0.187712,1,-0.493962, 0.120008, 9.793467,1,0
1778257882252,  2818.358,  2818.358, 0.090528,-0.051858,-1.114148, 0.000885,-0.000678,-0.011000, 0.394336,-0.351313,-1.133094,1, 0.229926,-0.028989,-0.238834,1,-0.492657, 0.164033, 9.792893,1,0
1778257882274,  2818.383,  2818.378, 0.168219,-0.128628,-0.975264, 0.001718,-0.001006,-0.010080, 1.308094, 0.375103,-1.530103,1, 0.176233, 0.022061,-0.194232,1,-0.493697, 0.201010, 9.792152,1,0
1778257882301,  2818.408,  2818.408, 0.163951,-0.044022,-0.809876, 0.001815,-0.000642,-0.008393, 1.111171,-0.184933, 1.848781,1, 0.177612,-0.021102,-0.231729,1,-0.495586, 0.252125, 9.790874,1,0
1778257882322,  2818.433,  2818.428, 0.161693,-0.102556,-1.114939, 0.001544,-0.001009,-0.010879, 1.257781, 0.291455,-0.624494,1, 0.120735, 0.003749,-0.194431,1,-0.498165, 0.275882, 9.790102,1,0
1778257882344,  2818.453,  2818.448, 0.154931,-0.041223,-0.907130, 0.001396,-0.000560,-0.008905, 1.133821,-0.678530,-0.476084,1, 0.115465,-0.018443,-0.202607,1,-0.500896, 0.294439, 9.789422,1,0
1778257882371,  2818.478,  2818.478, 0.178123,-0.028877,-0.971913, 0.001650,-0.000127,-0.009467, 1.245612, 0.025123, 0.257767,1, 0.012063, 0.005032,-0.139301,1,-0.501472, 0.308464, 9.788961,1,0
1778257882392,  2818.503,  2818.498, 0.184253, 0.017084,-0.994409, 0.002076,-0.000058,-0.010342, 1.230867,-0.269661, 0.590614,1,-0.023102,-0.025339,-0.129646,1,-0.496319, 0.306855, 9.789274,1,0
1778257882414,  2818.523,  2818.518, 0.223717,-0.015884,-0.909392, 0.002397,-0.000262,-0.009730, 1.738934, 0.065424, 0.005871,1,-0.053908,-0.005446,-0.112043,1,-0.492212, 0.300080, 9.789692,1,0
1778257882441,  2818.548,  2818.548, 0.127021,-0.019074,-0.931633, 0.001615,-0.000262,-0.009328, 0.758359, 0.098833, 0.654161,1,-0.055025,-0.041495,-0.091712,1,-0.486086, 0.284031, 9.790477,1,0
1778257882462,  2818.573,  2818.568,-0.005754,-0.051510,-1.087330,-0.000161,-0.000544,-0.010516,-0.184206, 0.056332,-0.921112,1,-0.041462,-0.044460,-0.083089,1,-0.480268, 0.270057, 9.791159,1,0
1778257882484,  2818.593,  2818.588,-0.024201,-0.000162,-1.075718,-0.000470,-0.000003,-0.010490,-1.027302, 0.408000, 0.298865,1,-0.003716,-0.047086,-0.088628,1,-0.474521, 0.263586, 9.791615,1,0
1778257882511,  2818.618,  2818.618,-0.053385,-0.043088,-1.012308,-0.000636,-0.000514,-0.009881,-0.991729,-0.163359,-0.135314,1,-0.021020,-0.021624,-0.101029,1,-0.467621, 0.258404, 9.792086,1,0
1778257882533,  2818.643,  2818.638,-0.068872,-0.010756,-0.983698,-0.000705,-0.000154,-0.010132,-1.186070, 0.060643,-0.621110,1,-0.003509,-0.038062,-0.093624,1,-0.459606, 0.258202, 9.792471,1,0
1778257882554,  2818.663,  2818.658,-0.045309, 0.010673,-0.854524,-0.000408, 0.000122,-0.008697,-0.503059, 0.054046, 0.051902,1, 0.021213,-0.027580,-0.100467,1,-0.454144, 0.262337, 9.792616,1,0
1778257882581,  2818.688,  2818.688,-0.034979, 0.023568,-1.030550,-0.000230, 0.000355,-0.010465,-0.783442, 0.502092,-0.313242,1, 0.058217,-0.041465,-0.099605,1,-0.439207, 0.272646, 9.793015,1,0
1778257882603,  2818.713,  2818.708, 0.050494,-0.010062,-0.864208, 0.000403,-0.000103,-0.008366,-0.186889, 0.254436, 1.493670,1, 0.079653,-0.033341,-0.076652,1,-0.435619, 0.283633, 9.792863,1,0
1778257882624,  2818.733,  2818.728, 0.047912, 0.009812,-1.082577, 0.000302, 0.000020,-0.010482,-0.161215, 0.487806, 1.140408,1, 0.082843,-0.067818,-0.051250,1,-0.425614, 0.296100, 9.792934,1,0
1778257882651,  2818.758,  2818.758, 0.020897, 0.025476,-1.004298, 0.000157, 0.000304,-0.009786,-0.215623, 0.567695,-0.056329,1, 0.079138,-0.016278,-0.027226,1,-0.420070, 0.320287, 9.792413,1,0
1778257882673,  2818.783,  2818.778, 0.013752, 0.033466,-1.048560, 0.000245, 0.000267,-0.010855,-0.449017, 0.555551, 0.280947,1, 0.077742,-0.029151,-0.005514,1,-0.411023, 0.340668, 9.792109,1,0
1778257882694,  2818.803,  2818.798,-0.013807, 0.000717,-0.937656,-0.000003,-0.000037,-0.009668,-0.646349, 0.233664, 0.159409,1, 0.085083,-0.011380, 0.023047,1,-0.406132, 0.361014, 9.791584,1,0
1778257882721,  2818.828,  2818.828,-0.049097, 0.017896,-1.051143,-0.000403, 0.000192,-0.010324,-0.876074, 0.561567,-0.517089,1, 0.097781,-0.037737, 0.040291,1,-0.393372, 0.389165, 9.791026,1,0
1778257882743,  2818.853,  2818.848,-0.041422, 0.017464,-0.942498,-0.000407, 0.000273,-0.009842,-0.546728, 0.982400,-1.876944,1, 0.090707,-0.001883, 0.063266,1,-0.392773, 0.405615, 9.790382,1,0
1778257882766,  2818.873,  2818.873, 0.015462,-0.019129,-0.870203, 0.000190,-0.000128,-0.008890,-0.237772, 0.245211, 1.255571,1, 0.108625, 0.008289, 0.074835,1,-0.389555, 0.436278, 9.789192,1,0
1778257882791,  2818.898,  2818.898, 0.130993, 0.065251,-0.908659, 0.001273, 0.000723,-0.009484, 0.888041, 1.088368, 0.877462,1, 0.062329, 0.029144, 0.112577,1,-0.397311, 0.450563, 9.788234,1,0
1778257882813,  2818.923,  2818.918,-0.103213,-0.094484,-1.187634,-0.001125,-0.000837,-0.011246,-0.216525,-0.165961,-0.768565,1, 0.008230,-0.018271, 0.160408,1,-0.396673, 0.457442, 9.787941,1,0
1778257882836,  2818.943,  2818.943,-0.113089, 0.086600,-1.121151,-0.001334, 0.000792,-0.011432,-1.496482, 1.307395,-1.206457,1,-0.041841,-0.027989, 0.198490,1,-0.386292, 0.457079, 9.788373,1,0
1778257882861,  2818.968,  2818.968,-0.008967,-0.025197,-0.864605,-0.000300,-0.000258,-0.008264,-0.460308, 0.205877, 1.310218,1,-0.063230,-0.070358, 0.186572,1,-0.369914, 0.451227, 9.789277,1,0
1778257882883,  2818.993,  2818.988, 0.180282, 0.106230,-0.984647, 0.001757, 0.001108,-0.010027, 0.930649, 1.325273, 0.335675,1,-0.088370, 0.000741, 0.186113,1,-0.361290, 0.439147, 9.790149,1,0
1778257882906,  2819.013,  2819.013, 0.142015,-0.094239,-1.014036, 0.001281,-0.000928,-0.009601, 1.030598,-0.512609,-0.152982,1,-0.125339, 0.013944, 0.293000,1,-0.362131, 0.407990, 9.791465,1,0
1778257882931,  2819.038,  2819.038, 0.091570, 0.133607,-1.314758, 0.000887, 0.001039,-0.013322, 0.529800, 1.697366,-3.101285,1,-0.139849, 0.099392, 0.271995,1,-0.370953, 0.383091, 9.792141,1,0
1778257882953,  2819.063,  2819.058, 0.020423,-0.026445,-0.914063, 0.000441,-0.000098,-0.009276,-0.083886, 0.932697, 1.725523,1,-0.121564, 0.048387, 0.323141,1,-0.381039, 0.362231, 9.792547,1,0
1778257882976,  2819.083,  2819.083, 0.057043,-0.012918,-1.014699, 0.000572,-0.000136,-0.010445, 0.170088, 0.198615,-0.157286,1,-0.158712, 0.066143, 0.315678,1,-0.391046, 0.320736, 9.793600,1,0
1778257883002,  2819.108,  2819.108, 0.054242,-0.038006,-0.960165, 0.000388,-0.000428,-0.009257, 0.137635,-0.077864, 0.378276,1,-0.196707, 0.001307, 0.338073,1,-0.394019, 0.289141, 9.794464,1,0
1778257883023,  2819.133,  2819.128, 0.086799, 0.020860,-0.907910, 0.001013, 0.000160,-0.009862, 0.658113, 0.388012,-2.145420,1,-0.189522, 0.066784, 0.317292,1,-0.398588, 0.253401, 9.795269,1,0
1778257883046,  2819.153,  2819.153, 0.077905,-0.044772,-0.883487, 0.000942,-0.000410,-0.008885, 0.360832,-0.230096, 1.132079,1,-0.177806,-0.016411, 0.305078,1,-0.402442, 0.203811, 9.796269,1,0
1778257883072,  2819.178,  2819.178, 0.168282,-0.002586,-1.094051, 0.001917,-0.000000,-0.011462, 1.239343, 0.150480,-0.932524,1,-0.170032, 0.074893, 0.278193,1,-0.413121, 0.170898, 9.796453,1,0
1778257883093,  2819.203,  2819.198, 0.052908,-0.111835,-0.961244, 0.000501,-0.001155,-0.009021, 0.707270,-0.458859, 2.054589,1,-0.137946, 0.008416, 0.265169,1,-0.421874, 0.145713, 9.796488,1,0
1778257883116,  2819.228,  2819.223, 0.091849,-0.056447,-1.021927, 0.001045,-0.000604,-0.010858, 0.465152,-0.442248,-0.225342,1,-0.108381, 0.083880, 0.189310,1,-0.438130, 0.108186, 9.796261,1,0
1778257883142,  2819.248,  2819.248, 0.021917,-0.090941,-0.926232, 0.000356,-0.000920,-0.009395,-0.226949,-0.801655, 0.713041,1,-0.117931,-0.015717, 0.158398,1,-0.441345, 0.086717, 9.796329,1,0
1778257883163,  2819.273,  2819.268, 0.111015,-0.125499,-0.864225, 0.000937,-0.001229,-0.008440, 0.572949,-0.994288,-0.714246,1,-0.109909, 0.071158, 0.113921,1,-0.451598, 0.063702, 9.796040,1,0
1778257883186,  2819.298,  2819.293, 0.023350,-0.087595,-1.099584, 0.000194,-0.001189,-0.010367,-0.231897,-0.823389,-0.987483,1,-0.150258, 0.039201, 0.062429,1,-0.462097, 0.031029, 9.795708,1,0
1778257883212,  2819.318,  2819.318, 0.024157,-0.089474,-1.057379, 0.000143,-0.000862,-0.010677,-0.239840,-0.864886,-0.574296,1,-0.111528, 0.097306, 0.020732,1,-0.479776, 0.009111, 9.794903,1,0
1778257883233,  2819.343,  2819.338,-0.042846,-0.132249,-1.119328,-0.000448,-0.001335,-0.011367,-1.254622,-1.289297, 0.431417,1,-0.125631, 0.013304,-0.014663,1,-0.482270,-0.011597, 9.794778,1,0
1778257883256,  2819.368,  2819.363,-0.091041,-0.040426,-0.838895,-0.000722,-0.000511,-0.008749,-1.388405,-0.435209, 1.567288,1,-0.081019, 0.003998,-0.082591,1,-0.495712,-0.041425, 9.794025,1,0
1778257883282,  2819.388,  2819.388,-0.067738,-0.074084,-1.118434,-0.000739,-0.000655,-0.010962,-1.159586,-0.786516,-1.174140,1,-0.108096, 0.017650,-0.087566,1,-0.495833,-0.063513, 9.793901,1,0
1778257883303,  2819.413,  2819.408,-0.089161, 0.013539,-0.908861,-0.000839,-0.000022,-0.009013,-0.951378,-1.041296,-0.012649,1,-0.073173, 0.029005,-0.148608,1,-0.505743,-0.082202, 9.793256,1,0
1778257883326,  2819.438,  2819.433,-0.041363,-0.045326,-1.056449,-0.000342,-0.000106,-0.010690,-0.912788,-0.553589,-0.567311,1,-0.076738, 0.040475,-0.141759,1,-0.508365,-0.111716, 9.792828,1,0
1778257883352,  2819.458,  2819.458,-0.019397,-0.135772,-0.845229,-0.000133,-0.001498,-0.008641,-0.706186,-1.456683, 1.503404,1,-0.049235, 0.019994,-0.208119,1,-0.516507,-0.127092, 9.792213,1,0
1778257883374,  2819.483,  2819.478, 0.009755,-0.036286,-1.097420,-0.000006,-0.000064,-0.010744,-0.397481, 0.389382,-0.053944,1,-0.086058, 0.048219,-0.185899,1,-0.522763,-0.145098, 9.791632,1,0
1778257883396,  2819.508,  2819.503,-0.041325,-0.100306,-0.977388,-0.000335,-0.001162,-0.010136,-0.941446,-1.150085, 0.205668,1,-0.048927, 0.016878,-0.244578,1,-0.536580,-0.168361, 9.790512,1,0
1778257883422,  2819.528,  2819.528, 0.005261, 0.090247,-0.952218, 0.000067, 0.000894,-0.009607,-0.486716, 0.702952, 0.452104,1,-0.079848, 0.017802,-0.219492,1,-0.538741,-0.184933, 9.790094,1,0
1778257883444,  2819.553,  2819.548,-0.019271,-0.132134,-1.015627,-0.000277,-0.001365,-0.010111,-0.349280,-1.525955,-0.562975,1,-0.085535, 0.011616,-0.220615,1,-0.542682,-0.206036, 9.789455,1,0
1778257883471,  2819.578,  2819.578, 0.027098, 0.100782,-1.021491, 0.000168, 0.001058,-0.010197,-0.274878, 0.751922,-0.228522,1,-0.141484, 0.000108,-0.230640,1,-0.540453,-0.241217, 9.788774,1,0
1778257883492,  2819.598,  2819.598, 0.006860,-0.067804,-0.968938, 0.000054,-0.000448,-0.009714,-0.291677, 0.306063,-0.324811,1,-0.126514,-0.001410,-0.211606,1,-0.539826,-0.255606, 9.788445,1,0
1778257883514,  2819.623,  2819.618, 0.029167, 0.070980,-0.981371, 0.000261, 0.000666,-0.009591,-0.394364,-0.114675, 1.409072,1,-0.127906,-0.018270,-0.267243,1,-0.535641,-0.295318, 9.787557,1,0
1778257883541,  2819.648,  2819.648, 0.025388,-0.049308,-1.063285, 0.000272,-0.000347,-0.010633,-0.284358,-0.822147,-0.640981,1,-0.150090, 0.015582,-0.219923,1,-0.533579,-0.343647, 9.786092,1,0
1778257883562,  2819.673,  2819.668,-0.019585, 0.098863,-1.010594,-0.000328, 0.000798,-0.009981,-0.940361,-0.315864, 1.129345,1,-0.121667,-0.021214,-0.255632,1,-0.530207,-0.368304, 9.785378,1,0
1778257883584,  2819.693,  2819.688,-0.009709, 0.024221,-1.066906,-0.000129, 0.000415,-0.010658,-1.037361, 0.878573,-0.854176,1,-0.118876,-0.005086,-0.226128,1,-0.524811,-0.393414, 9.784691,1,0
1778257883611,  2819.718,  2819.718,-0.058105,-0.005226,-0.847937,-0.000494,-0.000185,-0.008570,-1.093855,-0.465157, 1.468465,1,-0.047862,-0.025917,-0.259709,1,-0.522887,-0.415828, 9.783867,1,0
1778257883632,  2819.743,  2819.738,-0.000407, 0.030467,-0.932403,-0.000097, 0.000462,-0.009351,-0.857962, 0.425343, 0.294034,1,-0.027884,-0.016333,-0.241625,1,-0.515939,-0.424355, 9.783870,1,0
1778257883654,  2819.763,  2819.758,-0.037177, 0.006042,-1.312546,-0.000338,-0.000093,-0.012075,-0.367519,-0.449789, 1.341784,1, 0.023022,-0.003441,-0.244835,1,-0.514049,-0.425490, 9.783920,1,0
1778257883681,  2819.788,  2819.788,-0.130096, 0.161761,-1.292139,-0.001255, 0.001608,-0.013165,-1.801920, 1.161499,-2.888247,1, 0.038761, 0.092664,-0.237437,1,-0.528682,-0.424026, 9.783204,1,0
1778257883702,  2819.813,  2819.808,-0.071422,-0.040200,-0.900028,-0.001017,-0.000157,-0.008950,-1.627908,-0.057429,-0.730438,1, 0.066187, 0.074512,-0.203486,1,-0.542634,-0.418777, 9.782666,1,0
1778257883724,  2819.833,  2819.828,-0.000118, 0.140131,-0.696071,-0.000070, 0.001303,-0.006911,-1.333252, 0.243016, 3.005704,1, 0.097141, 0.065487,-0.227282,1,-0.554506,-0.400972, 9.782746,1,0
1778257883751,  2819.858,  2819.858,-0.070025, 0.128476,-0.934116,-0.000632, 0.001371,-0.009102,-1.253417, 0.878037, 0.622264,1, 0.069160, 0.050852,-0.164183,1,-0.568087,-0.380025, 9.782804,1,0
1778257883773,  2819.883,  2819.878,-0.087492, 0.035409,-1.054772,-0.000968, 0.000260,-0.010465,-1.836559,-0.151419,-0.707538,1, 0.105575, 0.027397,-0.176563,1,-0.574548,-0.364610, 9.783012,1,0
1778257883794,  2819.903,  2819.898,-0.045097, 0.155249,-0.845571,-0.000441, 0.001508,-0.008618,-1.363310, 0.852374, 0.805142,1, 0.132451,-0.015482,-0.164736,1,-0.573017,-0.342424, 9.783904,1,0
1778257883821,  2819.928,  2819.928,-0.001740, 0.103257,-0.827529, 0.000028, 0.001143,-0.008375,-0.574225, 0.698682, 1.670486,1, 0.113491,-0.090581,-0.091451,1,-0.554251,-0.310553, 9.786049,1,0
1778257883843,  2819.953,  2819.948, 0.068451, 0.048160,-0.788560, 0.000720, 0.000496,-0.007731,-0.078020, 0.143929, 2.116310,1, 0.121453,-0.137289,-0.098813,1,-0.529826,-0.287779, 9.788097,1,0
1778257883864,  2819.973,  2819.968,-0.059549,-0.022735,-1.634723,-0.000523, 0.000164,-0.016156,-0.551788, 0.330720,-4.375498,1, 0.022301,-0.099974,-0.087301,1,-0.502021,-0.273833, 9.789963,1,0
1778257883891,  2819.998,  2819.998, 0.035616,-0.065548,-1.299392, 0.000149,-0.001154,-0.013853,-0.151705,-0.896681,-2.952125,1, 0.055831, 0.013439,-0.110577,1,-0.501313,-0.252312, 9.790578,1,0
1778257883913,  2820.023,  2820.018, 0.242275, 0.039831,-0.533472, 0.002524, 0.000521,-0.005229, 1.597401, 0.870693, 3.624157,1, 0.046122, 0.038985,-0.046287,1,-0.507300,-0.239923, 9.790581,1,0
1778257883934,  2820.043,  2820.038, 0.109054,-0.033170,-0.907003, 0.001255,-0.000418,-0.008778, 1.141018,-0.595790, 3.600399,1,-0.013166, 0.045721,-0.046191,1,-0.514344,-0.237466, 9.790273,1,0
1778257883961,  2820.068,  2820.068,-0.077268, 0.023127,-1.252768,-0.000647, 0.000194,-0.012593,-1.285128,-0.027271,-2.496300,1,-0.069856, 0.034235,-0.087327,1,-0.528386,-0.256391, 9.789048,1,0
1778257883983,  2820.093,  2820.088,-0.102888,-0.030194,-0.906257,-0.001102,-0.000412,-0.009217,-1.945148,-0.273566,-0.286472,1,-0.076611, 0.014799,-0.036046,1,-0.531216,-0.273670, 9.788426,1,0
1778257884006,  2820.113,  2820.113,-0.045082, 0.067396,-0.886444,-0.000441, 0.000545,-0.008895,-0.972871, 0.368926, 1.094874,1,-0.068743,-0.027465,-0.079396,1,-0.529838,-0.294281, 9.787904,1,0
1778257884031,  2820.138,  2820.138,-0.003792, 0.036123,-1.066419,-0.000012, 0.000472,-0.010641,-0.563129, 0.046078,-0.670313,1,-0.081095,-0.022031,-0.072294,1,-0.525184,-0.310818, 9.787643,1,0
1778257884053,  2820.163,  2820.158, 0.022508,-0.016917,-0.970004, 0.000237,-0.000173,-0.009797,-0.454438,-0.640014,-0.170708,1,-0.064813,-0.017601,-0.071617,1,-0.520202,-0.325045, 9.787447,1,0
1778257884076,  2820.183,  2820.183, 0.016330,-0.005359,-1.022496, 0.000196,-0.000108,-0.010205,-0.359919,-0.394009,-0.240364,1,-0.052294, 0.004464,-0.106406,1,-0.520088,-0.343257, 9.786831,1,0
1778257884101,  2820.208,  2820.208,-0.022430, 0.051249,-1.013850,-0.000189, 0.000446,-0.010194,-0.741804, 0.151631,-0.156012,1,-0.047334, 0.018164,-0.122696,1,-0.522167,-0.351798, 9.786417,1,0
1778257884123,  2820.233,  2820.228,-0.071509, 0.029404,-1.063083,-0.000757, 0.000306,-0.010612,-1.287596, 0.102002,-0.426548,1,-0.054561,-0.008920,-0.106388,1,-0.521082,-0.362967, 9.786067,1,0
1778257884146,  2820.253,  2820.253,-0.028501,-0.004819,-0.957804,-0.000306,-0.000024,-0.009633,-0.801074,-0.424367, 0.392654,1,-0.039539, 0.002953,-0.119264,1,-0.521519,-0.378537, 9.785454,1,0
1778257884172,  2820.278,  2820.278, 0.037322,-0.002922,-1.009211, 0.000329,-0.000093,-0.010026,-0.153829,-0.413482,-0.111679,1,-0.036325, 0.004468,-0.139127,1,-0.519805,-0.386185, 9.785247,1,0
1778257884193,  2820.303,  2820.298, 0.089528, 0.046082,-1.009323, 0.000887, 0.000460,-0.010039, 0.320103, 0.115652,-0.001024,1,-0.049857, 0.003993,-0.124531,1,-0.521095,-0.396282, 9.784774,1,0
1778257884216,  2820.323,  2820.323, 0.113071, 0.008199,-0.973550, 0.001116, 0.000064,-0.009847, 0.588452,-0.333142, 0.236829,1,-0.062442, 0.019998,-0.117179,1,-0.520863,-0.415685, 9.783981,1,0
1778257884242,  2820.348,  2820.348, 0.120598, 0.005269,-0.932008, 0.001213, 0.000017,-0.009236, 0.660680,-0.375567, 0.643545,1,-0.065195,-0.000701,-0.135734,1,-0.521775,-0.429496, 9.783337,1,0
1778257884263,  2820.373,  2820.368, 0.152527, 0.032644,-1.078693, 0.001581, 0.000259,-0.010920, 0.822453,-0.356180,-0.882528,1,-0.067059, 0.025930,-0.149286,1,-0.522746,-0.444078, 9.782634,1,0
1778257884286,  2820.393,  2820.393, 0.128020, 0.079981,-0.979747, 0.001262, 0.000794,-0.009708, 0.732400, 0.321230, 0.173696,1,-0.063919,-0.011251,-0.131645,1,-0.522506,-0.465322, 9.781659,1,0
1778257884312,  2820.418,  2820.418, 0.143041, 0.039994,-0.967649, 0.001456, 0.000438,-0.009794, 0.884036,-0.083691, 0.291952,1,-0.063448, 0.001004,-0.121286,1,-0.518488,-0.478027, 9.781260,1,0
1778257884333,  2820.443,  2820.438, 0.182903, 0.004055,-1.041018, 0.001714,-0.000011,-0.010195, 0.932993,-0.622854, 0.460834,1,-0.035747,-0.010082,-0.141580,1,-0.515435,-0.488130, 9.780922,1,0
1778257884356,  2820.468,  2820.463, 0.156844, 0.096251,-1.020672, 0.001637, 0.000911,-0.010463, 1.028625, 0.443801,-0.228741,1,-0.033613,-0.031469,-0.124903,1,-0.508309,-0.501352, 9.780626,1,0
1778257884382,  2820.488,  2820.488, 0.139451, 0.114768,-0.981270, 0.001371, 0.001163,-0.009770, 0.903651, 0.583106, 0.200540,1,-0.035413,-0.035330,-0.108735,1,-0.504460,-0.505259, 9.780624,1,0
1778257884403,  2820.513,  2820.508, 0.174574, 0.029959,-0.956953, 0.001611, 0.000360,-0.009650, 0.760892, 0.188412, 0.119626,1,-0.023324,-0.063920,-0.114422,1,-0.486230,-0.514401, 9.781072,1,0
1778257884426,  2820.538,  2820.533, 0.225275, 0.069374,-0.846034, 0.002233, 0.000612,-0.008444, 1.737361, 0.168470, 1.485148,1, 0.023195,-0.021191,-0.107744,1,-0.470998,-0.511293, 9.781980,1,0
1778257884452,  2820.558,  2820.558, 0.198332, 0.113162,-1.010311, 0.002001, 0.001127,-0.009927, 1.478226, 0.600575,-0.125475,1, 0.020376,-0.020132,-0.078293,1,-0.465997,-0.508648, 9.782357,1,0
1778257884473,  2820.578,  2820.578, 0.155081, 0.062469,-1.147246, 0.001569, 0.000682,-0.011496, 1.056184, 0.107700,-1.468028,1, 0.039528,-0.002083,-0.080825,1,-0.464442,-0.503795, 9.782682,1,0
1778257884496,  2820.608,  2820.603,-0.022832, 0.110338,-1.010671,-0.000176, 0.000987,-0.010255,-0.674780, 0.596565,-0.127051,1, 0.070913,-0.091572,-0.089921,1,-0.448114,-0.482816, 9.784501,1,0
1778257884522,  2820.628,  2820.628,-0.025456, 0.108666,-0.992950,-0.000263, 0.001150,-0.009984,-0.682117, 0.594940, 0.048276,1, 0.076442,-0.079185,-0.044995,1,-0.429949,-0.468388, 9.786017,1,0
1778257884544,  2820.653,  2820.648, 0.090523, 0.034352,-0.783342, 0.000959, 0.000291,-0.007932, 0.362754,-0.183381, 1.229637,1, 0.117497,-0.079738,-0.041876,1,-0.414994,-0.448666, 9.787587,1,0
1778257884566,  2820.678,  2820.673, 0.132219, 0.091739,-0.896221, 0.001339, 0.000909,-0.008768, 0.897961, 0.486493, 1.000898,1, 0.135690,-0.031700,-0.053270,1,-0.397609,-0.409000, 9.790047,1,0
1778257884592,  2820.698,  2820.698, 0.149759, 0.076912,-1.192285, 0.001690, 0.000864,-0.011821, 1.077075, 0.368873,-1.901080,1, 0.155439,-0.031323,-0.037370,1,-0.390533,-0.380577, 9.791477,1,0
1778257884614,  2820.723,  2820.718, 0.052422, 0.019186,-0.747784, 0.000551, 0.000145,-0.007579, 0.209346,-0.084425, 0.817718,1, 0.220917, 0.016470,-0.047730,1,-0.390899,-0.343657, 9.792829,1,0
1778257884636,  2820.748,  2820.743, 0.018585, 0.083157,-0.944298, 0.000199, 0.000812,-0.009180,-0.208361, 0.529455, 0.534286,1, 0.200182,-0.000620,-0.050730,1,-0.390553,-0.279857, 9.794873,1,0
1778257884662,  2820.768,  2820.768, 0.021694, 0.022494,-1.203285, 0.000221, 0.000344,-0.012087,-0.183926,-0.026256,-2.004682,1, 0.210827, 0.058456,-0.032654,1,-0.398473,-0.240314, 9.795604,1,0
1778257884684,  2820.793,  2820.788,-0.003604, 0.065094,-0.884652,-0.000052, 0.000531,-0.008860,-0.339593,-0.289076, 0.504193,1, 0.256823, 0.054149,-0.061606,1,-0.410442,-0.191818, 9.796179,1,0
1778257884711,  2820.818,  2820.818,-0.032844, 0.078442,-1.033225,-0.000289, 0.000816,-0.010224,-0.740497, 0.641466,-0.335597,1, 0.248551, 0.033483,-0.032551,1,-0.419457,-0.120113, 9.796939,1,0
1778257884732,  2820.838,  2820.838,-0.063701,-0.018250,-1.141454,-0.000619,-0.000085,-0.011327,-1.049181,-0.258055,-1.396703,1, 0.261726, 0.009983,-0.043336,1,-0.424792,-0.070977, 9.797188,1,0
1778257884754,  2820.863,  2820.858,-0.087156, 0.038615,-0.878379,-0.000914, 0.000399,-0.008823,-1.345270, 0.020368, 0.388324,1, 0.271098,-0.004956,-0.052967,1,-0.423190,-0.018454, 9.797498,1,0
1778257884781,  2820.888,  2820.888,-0.123933, 0.010506,-1.040561,-0.001292, 0.000139,-0.010127,-1.630057, 0.150153,-0.406653,1, 0.218840,-0.042448,-0.001642,1,-0.413365, 0.053951, 9.797786,1,0
1778257884802,  2820.913,  2820.908,-0.080841,-0.010608,-1.103668,-0.000873,-0.000161,-0.011251,-1.636229, 0.104253,-1.733913,1, 0.208587,-0.047368,-0.009092,1,-0.403207, 0.095547, 9.797892,1,0
1778257884824,  2820.933,  2820.928,-0.070477, 0.016414,-0.821966,-0.000642, 0.000160,-0.008216,-0.936650, 0.193314, 0.821714,1, 0.215029,-0.024551,-0.009835,1,-0.399012, 0.137547, 9.797564,1,0
1778257884851,  2820.958,  2820.958,-0.062189,-0.045456,-1.053017,-0.000667,-0.000395,-0.010411,-0.997091,-0.263308,-0.529269,1, 0.146512,-0.020990, 0.010036,1,-0.386564, 0.187040, 9.797243,1,0
1778257884872,  2820.983,  2820.978,-0.007857,-0.009860,-1.058762,-0.000236,-0.000182,-0.010698,-1.156522,-0.320039,-0.694170,1, 0.135191,-0.032232, 0.003441,1,-0.380899, 0.214037, 9.796912,1,0
1778257884894,  2821.003,  2820.998, 0.067195,-0.008184,-0.849445, 0.000655,-0.000070,-0.008600,-0.021945, 0.252080, 0.512360,1, 0.115353, 0.004599, 0.013730,1,-0.379642, 0.238029, 9.796408,1,0
1778257884921,  2821.028,  2821.028, 0.066141,-0.028813,-0.835801, 0.000634,-0.000239,-0.008225, 0.379973,-0.196434, 0.684276,1, 0.063379,-0.017678, 0.022832,1,-0.374068, 0.262705, 9.795991,1,0
1778257884942,  2821.053,  2821.048, 0.109764,-0.038753,-1.041146, 0.001104,-0.000406,-0.010432, 0.743681,-0.302845,-0.453449,1, 0.022516,-0.006191, 0.017786,1,-0.373733, 0.270012, 9.795805,1,0
1778257884964,  2821.073,  2821.068, 0.221477,-0.037736,-1.036400, 0.002097,-0.000349,-0.010518, 0.908996,-0.160788,-0.699712,1,-0.007427, 0.005646, 0.027247,1,-0.371661, 0.270537, 9.795870,1,0
1778257884991,  2821.098,  2821.098, 0.333517,-0.030447,-0.743375, 0.003367,-0.000336,-0.007634, 2.885587,-0.033561, 2.505484,1,-0.031177, 0.056848, 0.046983,1,-0.386835, 0.264105, 9.795458,1,0
1778257885013,  2821.123,  2821.118, 0.340089,-0.031552,-1.142415, 0.003783,-0.000473,-0.011055, 4.002501,-0.115577, 0.998404,1,-0.059674, 0.118832, 0.047595,1,-0.405891, 0.254584, 9.794939,1,0
1778257885034,  2821.143,  2821.138, 0.129246,-0.001457,-1.312146, 0.001116,-0.000022,-0.013052, 1.135016,-0.272189,-2.671216,1,-0.094459, 0.062139, 0.036263,1,-0.423505, 0.237770, 9.794616,1,0
1778257885061,  2821.168,  2821.168,-0.039654,-0.042639,-0.784388,-0.000012,-0.000626,-0.008578,-0.827788,-0.206505, 2.102317,1,-0.096520, 0.002958, 0.098862,1,-0.438941, 0.208772, 9.794597,1,0
1778257885083,  2821.193,  2821.188, 0.043468, 0.022586,-1.079441, 0.000400, 0.000097,-0.010801,-0.368515,-0.184685, 0.322745,1,-0.125926,-0.035394, 0.053241,1,-0.433999, 0.185222, 9.795291,1,0
1778257885104,  2821.213,  2821.208, 0.179619, 0.046075,-1.026085, 0.001816, 0.000537,-0.010746, 0.888552, 0.690721,-1.676936,1,-0.155076, 0.007913, 0.049007,1,-0.431860, 0.157234, 9.795875,1,0
1778257885131,  2821.238,  2821.238, 0.182647,-0.059073,-0.819387, 0.001941,-0.000534,-0.008000, 1.356093,-0.450420, 1.760699,1,-0.103871, 0.000809, 0.068017,1,-0.435055, 0.125747, 9.796188,1,0
1778257885153,  2821.263,  2821.258, 0.049147, 0.024245,-1.197887, 0.000508, 0.000035,-0.012095, 0.259418,-0.072007,-1.026432,1,-0.080937, 0.066128, 0.040311,1,-0.440978, 0.108991, 9.796124,1,0
1778257885174,  2821.283,  2821.278,-0.086661, 0.010623,-0.897056,-0.000920, 0.000177,-0.008973,-0.751084, 0.506214,-0.455506,1,-0.040516, 0.065642, 0.042384,1,-0.456184, 0.096482, 9.795559,1,0
1778257885201,  2821.308,  2821.308,-0.151045,-0.069733,-0.822399,-0.001546,-0.000575,-0.007995,-1.939542,-0.596947, 1.730570,1,-0.034784,-0.028835, 0.009505,1,-0.457392, 0.085827, 9.795602,1,0
1778257885223,  2821.333,  2821.328,-0.178722,-0.035648,-1.092533,-0.001731,-0.000225,-0.011010,-1.778594,-0.481801,-2.108986,1,-0.035391, 0.028414,-0.014048,1,-0.461312, 0.078302, 9.795481,1,0
1778257885246,  2821.353,  2821.353,-0.161109,-0.013735,-1.031021,-0.001577,-0.000035,-0.010344,-2.038766,-0.062178,-0.315218,1,-0.026474,-0.040692, 0.021164,1,-0.457551, 0.071721, 9.795708,1,0
1778257885271,  2821.378,  2821.378,-0.139373,-0.031797,-1.056629,-0.001384,-0.000342,-0.010489,-1.820226,-0.242601,-0.566073,1,-0.010826,-0.010361,-0.020156,1,-0.453122, 0.068854, 9.795934,1,0
1778257885293,  2821.403,  2821.398,-0.051820,-0.036050,-0.968522,-0.000583,-0.000340,-0.009922,-1.355219, 0.138265,-0.531969,1,-0.017807,-0.006896,-0.027471,1,-0.451210, 0.063827, 9.796057,1,0
1778257885316,  2821.423,  2821.423,-0.056121,-0.030480,-0.862278,-0.000471,-0.000362,-0.008525,-0.999958,-0.238883, 1.340094,1,-0.022282,-0.032010,-0.025468,1,-0.448609, 0.059291, 9.796205,1,0
1778257885341,  2821.448,  2821.448,-0.045341, 0.010868,-1.068232,-0.000454, 0.000138,-0.010581,-0.890177, 0.161226,-0.679411,1,-0.027956,-0.006336,-0.030917,1,-0.445337, 0.053728, 9.796386,1,0
1778257885363,  2821.473,  2821.468,-0.036690, 0.008841,-1.108111,-0.000414, 0.000130,-0.011169,-1.049160, 0.425746,-1.238198,1,-0.033386,-0.042498,-0.040817,1,-0.440268, 0.046035, 9.796654,1,0
1778257885386,  2821.493,  2821.493, 0.099052,-0.017797,-0.780762, 0.000978,-0.000180,-0.008001, 0.541309,-0.133371, 2.140472,1,-0.002521,-0.043458,-0.036725,1,-0.428711, 0.041028, 9.797189,1,0
1778257885412,  2821.518,  2821.518, 0.198997, 0.026649,-0.884869, 0.001901, 0.000283,-0.008557, 1.528666, 0.301527, 1.119849,1,-0.008565,-0.028812,-0.010963,1,-0.421931, 0.039912, 9.797487,1,0
1778257885433,  2821.543,  2821.538, 0.190205, 0.040216,-1.162612, 0.001911, 0.000399,-0.011804, 1.509273, 0.475999,-1.773121,1,-0.000698,-0.018013,-0.011869,1,-0.417513, 0.038243, 9.797684,1,0
1778257885456,  2821.563,  2821.563, 0.229670,-0.015029,-1.099826, 0.002332,-0.000244,-0.011196, 1.836702,-0.102369,-0.987874,1, 0.035111,-0.038464,-0.000162,1,-0.414394, 0.046115, 9.797782,1,0
1778257885482,  2821.588,  2821.588, 0.232422, 0.023988,-0.733149, 0.002271, 0.000128,-0.007505, 1.872653, 0.291178, 2.608316,1, 0.050813,-0.023785, 0.035698,1,-0.405881, 0.057564, 9.798078,1,0
1778257885503,  2821.613,  2821.608, 0.180586, 0.066419,-1.062267, 0.001823, 0.000733,-0.010205, 1.828737, 0.703729, 1.586553,1, 0.017603,-0.009660, 0.044992,1,-0.404588, 0.065246, 9.798083,1,0
1778257885526,  2821.633,  2821.633, 0.156552, 0.059135,-1.254004, 0.001625, 0.000621,-0.012799, 1.128553, 0.647083,-2.499599,1, 0.004441, 0.011732, 0.039866,1,-0.407054, 0.067355, 9.797967,1,0
1778257885552,  2821.658,  2821.658, 0.117673,-0.004988,-0.861883, 0.001186,-0.000036,-0.008852, 0.747427, 0.022647, 1.345768,1, 0.025374,-0.021585, 0.075330,1,-0.405862, 0.072456, 9.797980,1,0
1778257885573,  2821.683,  2821.678, 0.169096, 0.034878,-1.024921, 0.001620, 0.000329,-0.010108, 1.112518, 0.022475, 0.680677,1, 0.010135,-0.037260, 0.075333,1,-0.398709, 0.076500, 9.798243,1,0
1778257885596,  2821.708,  2821.703, 0.238821, 0.039823,-0.921873, 0.002332, 0.000464,-0.009379, 1.947538, 0.472092, 0.757889,1, 0.030318, 0.004811, 0.097920,1,-0.394623, 0.082631, 9.798359,1,0
1778257885622,  2821.728,  2821.728, 0.213162,-0.001081,-0.881084, 0.002168,-0.000042,-0.008659, 1.696870, 0.078877, 1.157862,1, 0.039589,-0.013216, 0.107711,1,-0.393094, 0.090846, 9.798347,1,0
1778257885643,  2821.753,  2821.748, 0.194646, 0.024548,-1.129292, 0.001839, 0.000249,-0.011412, 1.415951, 0.192103,-1.428662,1, 0.042354, 0.017509, 0.097149,1,-0.393288, 0.099173, 9.798259,1,0
1778257885666,  2821.778,  2821.773, 0.149735, 0.002557,-0.863231, 0.001568, 0.000062,-0.008730, 1.065305, 0.139302, 1.332294,1, 0.051737, 0.015062, 0.127755,1,-0.403514, 0.116003, 9.797658,1,0
1778257885692,  2821.798,  2821.798, 0.071845,-0.017246,-0.990411, 0.000788,-0.000214,-0.009807, 0.303083,-0.046395, 0.085045,1, 0.025067,-0.012682, 0.119920,1,-0.401031, 0.123668, 9.797667,1,0
1778257885713,  2821.823,  2821.818, 0.111936, 0.035152,-0.996592, 0.001131, 0.000387,-0.010019, 0.670676, 0.487797,-0.481198,1, 0.004464, 0.036651, 0.126616,1,-0.405917, 0.127679, 9.797414,1,0
1778257885736,  2821.848,  2821.843, 0.005793,-0.002046,-1.073607, 0.000182,-0.000026,-0.010876,-0.341202, 0.107893,-0.730752,1,-0.008045,-0.065558, 0.141087,1,-0.395907, 0.127884, 9.797821,1,0
1778257885762,  2821.868,  2821.868, 0.092230, 0.010939,-1.037254, 0.000772, 0.000075,-0.010438, 0.512900, 0.234477,-0.373984,1,-0.018566,-0.007488, 0.136948,1,-0.391278, 0.126791, 9.798020,1,0
1778257885784,  2821.893,  2821.888, 0.061458,-0.013124,-0.977550, 0.000589,-0.000006,-0.009639, 0.583607, 0.459130, 0.951899,1,-0.033972,-0.056171, 0.169571,1,-0.382658, 0.123589, 9.798402,1,0
1778257885806,  2821.918,  2821.913, 0.147336, 0.014750,-1.005771, 0.001434, 0.000078,-0.010173, 1.062977, 0.261852,-0.064733,1,-0.034386, 0.057096, 0.162363,1,-0.383614, 0.116326, 9.798453,1,0
1778257885832,  2821.938,  2821.938, 0.079640, 0.071093,-0.891626, 0.000823, 0.000714,-0.008771, 0.391423, 0.808819, 1.054406,1,-0.041338, 0.016167, 0.191236,1,-0.390014, 0.110579, 9.798267,1,0
1778257885854,  2821.963,  2821.958,-0.001260,-0.009323,-1.100988,-0.000192,-0.000217,-0.011167,-0.621215,-0.023312,-0.779743,1,-0.054447, 0.019056, 0.185527,1,-0.389959, 0.101335, 9.798369,1,0
1778257885876,  2821.988,  2821.983,-0.023658, 0.044042,-0.908078,-0.000272, 0.000449,-0.009068,-0.629028, 0.523013, 0.892978,1,-0.047492,-0.004293, 0.191362,1,-0.396832, 0.089868, 9.798205,1,0
1778257885902,  2822.008,  2822.008, 0.020171,-0.037171,-0.965424, 0.000114,-0.000360,-0.009473,-0.194618,-0.281737, 0.330864,1,-0.048033,-0.019795, 0.190654,1,-0.392116, 0.081154, 9.798471,1,0
1778257885924,  2822.033,  2822.028, 0.085934, 0.054311,-0.871607, 0.000919, 0.000587,-0.008815, 0.743264, 0.544870, 0.439888,1,-0.039551, 0.007654, 0.182635,1,-0.393797, 0.075355, 9.798450,1,0
1778257885951,  2822.058,  2822.058, 0.075923,-0.028101,-1.009202, 0.000870,-0.000170,-0.009937, 0.353115,-0.205793,-0.098305,1,-0.019460,-0.014363, 0.192073,1,-0.390942, 0.069415, 9.798609,1,0
1778257885972,  2822.078,  2822.078, 0.062006, 0.036259,-1.201754, 0.000502, 0.000188,-0.011933, 0.215604, 0.424695,-1.986635,1,-0.010358, 0.030296, 0.162784,1,-0.393371, 0.069001, 9.798514,1,0
1778257885994,  2822.103,  2822.098,-0.031945,-0.028054,-0.967762,-0.000149,-0.000229,-0.009658,-0.422202, 0.407099, 0.607593,1, 0.034229, 0.030076, 0.181964,1,-0.399947, 0.075566, 9.798200,1,0
1778257886021,  2822.128,  2822.128,-0.015936,-0.013603,-1.105692,-0.000479,-0.000184,-0.010956,-0.559956,-0.042859,-1.045212,1, 0.074174, 0.068025, 0.128067,1,-0.405757, 0.093017, 9.797811,1,0
1778257886042,  2822.153,  2822.148,-0.102011,-0.045373,-0.983277,-0.001063,-0.000259,-0.009368,-1.514509, 0.359485, 1.244641,1, 0.092886, 0.019406, 0.157258,1,-0.412336, 0.111670, 9.797341,1,0
1778257886064,  2822.173,  2822.168,-0.134947,-0.066385,-1.057156,-0.001458,-0.000803,-0.010496,-1.897176,-1.009733,-0.042018,1, 0.103281,-0.004949, 0.130785,1,-0.410572, 0.130331, 9.797185,1,0
1778257886091,  2822.198,  2822.198,-0.146597, 0.009714,-0.929090,-0.001541, 0.000116,-0.009336,-1.852350, 0.253428, 0.685333,1, 0.099665, 0.004487, 0.104810,1,-0.414813, 0.161417, 9.796543,1,0
1778257886112,  2822.223,  2822.218,-0.078564,-0.095819,-1.070222,-0.000841,-0.001070,-0.010378,-1.543708,-0.727606, 0.582809,1, 0.082871,-0.024114, 0.088791,1,-0.409849, 0.176449, 9.796493,1,0
1778257886134,  2822.243,  2822.238,-0.054365, 0.010277,-1.129860,-0.000489, 0.000128,-0.011437,-0.802551,-0.180438,-1.682281,1, 0.048256, 0.037622, 0.045520,1,-0.415923, 0.190082, 9.795982,1,0
1778257886161,  2822.268,  2822.268,-0.032831,-0.067184,-0.950694,-0.000312,-0.000626,-0.009572,-0.746430,-0.457631, 0.472265,1, 0.019778, 0.020587, 0.071322,1,-0.425063, 0.201934, 9.795352,1,0
1778257886182,  2822.293,  2822.288,-0.032810,-0.027279,-1.119242,-0.000312,-0.000486,-0.011175,-1.059761,-0.794373,-0.437748,1,-0.002964, 0.027015, 0.045295,1,-0.426539, 0.203327, 9.795259,1,0
1778257886204,  2822.313,  2822.308,-0.006114, 0.028395,-0.932786,-0.000164, 0.000357,-0.009438,-0.805870, 0.490500,-0.527682,1,-0.033829, 0.048493, 0.061759,1,-0.434781, 0.198664, 9.794992,1,0
1778257886231,  2822.338,  2822.338,-0.005443,-0.069810,-0.911153,-0.000191,-0.000733,-0.008879,-0.486238,-0.502747, 0.860040,1,-0.077956,-0.019607, 0.047367,1,-0.432223, 0.179488, 9.795476,1,0
1778257886253,  2822.363,  2822.358, 0.106753,-0.012535,-0.785223, 0.000934,-0.000162,-0.007895, 0.424115, 0.040659, 1.113595,1,-0.083026,-0.036881, 0.041413,1,-0.428566, 0.162435, 9.795935,1,0
1778257886274,  2822.383,  2822.378, 0.150489, 0.056787,-1.230450, 0.001619, 0.000593,-0.012308, 1.172323, 0.222423,-0.851922,1,-0.141030,-0.046303, 0.074377,1,-0.419193, 0.141305, 9.796667,1,0
1778257886301,  2822.408,  2822.408, 0.124827,-0.029242,-0.859847, 0.001284,-0.000254,-0.008999, 0.809785,-0.175272, 1.365034,1,-0.084470,-0.017506, 0.083444,1,-0.413675, 0.109672, 9.797307,1,0
1778257886323,  2822.433,  2822.428, 0.279888, 0.090237,-1.261067, 0.002523, 0.000823,-0.012408, 0.991407, 0.514597,-0.692103,1,-0.077912,-0.015809, 0.061816,1,-0.405591, 0.093721, 9.797811,1,0
1778257886344,  2822.453,  2822.448, 0.216892, 0.018364,-0.767896, 0.002235, 0.000237,-0.008117, 2.101088, 1.161082,-0.391120,1,-0.040565, 0.002993, 0.108106,1,-0.408324, 0.078736, 9.797830,1,0
1778257886371,  2822.478,  2822.473, 0.203540,-0.045232,-0.862446, 0.002103,-0.000516,-0.008302, 1.594074,-0.359088, 1.340336,1, 0.045552,-0.021807, 0.074976,1,-0.401267, 0.086005, 9.798059,1,0
1778257886393,  2822.503,  2822.498, 0.208052, 0.103002,-0.974855, 0.002212, 0.001105,-0.010245, 2.271006, 1.415223,-1.443283,1, 0.057347, 0.011675, 0.078337,1,-0.402526, 0.094736, 9.797928,1,0
1778257886414,  2822.523,  2822.518, 0.137200,-0.072068,-0.904906, 0.001410,-0.000739,-0.008796, 1.580704,-0.047189, 1.051531,1, 0.106490,-0.007271, 0.119544,1,-0.403968, 0.114380, 9.797659,1,0
1778257886441,  2822.548,  2822.548, 0.146756, 0.112025,-1.207742, 0.001431, 0.000900,-0.012208, 1.039280, 1.243266,-2.046474,1, 0.089119,-0.009310, 0.083902,1,-0.399574, 0.147563, 9.797395,1,0
1778257886463,  2822.573,  2822.568, 0.149135,-0.062851,-0.710344, 0.001544,-0.000494,-0.006813, 1.592211, 0.431255, 1.674110,1, 0.121223,-0.008201, 0.141922,1,-0.399919, 0.171987, 9.796983,1,0
1778257886486,  2822.593,  2822.593, 0.181351, 0.091526,-1.182899, 0.001701, 0.000725,-0.011644, 1.381246, 1.100328,-1.803771,1, 0.078909, 0.017499, 0.130249,1,-0.397660, 0.205392, 9.796432,1,0
1778257886511,  2822.618,  2822.618, 0.137652, 0.057563,-0.993792, 0.001506, 0.000735,-0.010298, 0.945383, 0.783519, 0.050083,1, 0.074543, 0.020444, 0.196989,1,-0.405020, 0.221555, 9.795777,1,0
1778257886533,  2822.643,  2822.638, 0.120679, 0.092490,-1.088526, 0.001045, 0.000787,-0.010949, 0.506440,-0.009178,-1.046131,1, 0.047158,-0.014552, 0.180412,1,-0.402172, 0.237999, 9.795509,1,0
1778257886556,  2822.663,  2822.663, 0.130994, 0.007019,-0.800313, 0.001482, 0.000274,-0.008211, 0.875357, 0.315171, 1.946615,1, 0.008176, 0.026818, 0.252113,1,-0.409894, 0.246923, 9.794968,1,0
1778257886581,  2822.688,  2822.688, 0.096527, 0.013700,-1.087924, 0.001013, 0.000055,-0.010645, 0.535985, 0.381425,-0.873956,1,-0.030404, 0.009983, 0.241501,1,-0.410742, 0.246442, 9.794945,1,0
1778257886603,  2822.713,  2822.708, 0.064958,-0.039063,-0.994239, 0.000524,-0.000289,-0.009644, 0.647457, 1.147474,-0.182653,1,-0.065882, 0.024290, 0.295308,1,-0.416825, 0.237854, 9.794900,1,0
1778257886626,  2822.733,  2822.733, 0.103904, 0.057495,-1.008120, 0.000893, 0.000360,-0.010175, 0.607403, 0.790478,-0.090894,1,-0.060971, 0.004721, 0.265865,1,-0.411500, 0.225089, 9.795426,1,0
1778257886652,  2822.758,  2822.758, 0.199594, 0.006334,-0.765774, 0.001887, 0.000036,-0.007498, 1.540511, 0.279485, 2.285697,1,-0.065813, 0.034703, 0.312335,1,-0.417708, 0.215734, 9.795375,1,0
1778257886673,  2822.783,  2822.778, 0.123165, 0.105495,-1.191085, 0.001275, 0.001145,-0.012106, 0.716197, 0.875095,-1.613506,1,-0.077617,-0.013593, 0.305136,1,-0.413440, 0.204011, 9.795807,1,0
1778257886696,  2822.803,  2822.803, 0.094958,-0.016533,-1.010123, 0.001157,-0.000176,-0.010510, 0.520661, 0.028324,-0.109727,1,-0.044361,-0.036519, 0.300162,1,-0.409372, 0.189317, 9.796272,1,0
1778257886722,  2822.828,  2822.828, 0.163275, 0.118332,-0.923255, 0.001582, 0.001370,-0.009291, 1.195289, 1.345459, 0.742460,1,-0.044694, 0.011818, 0.301454,1,-0.406082, 0.184011, 9.796511,1,0
1778257886743,  2822.853,  2822.848, 0.241442, 0.054264,-0.953029, 0.002322, 0.000217,-0.009661, 2.114830, 0.063530, 1.627242,1,-0.040717, 0.042496, 0.332572,1,-0.411935, 0.177091, 9.796393,1,0
1778257886766,  2822.873,  2822.873, 0.220236, 0.082672,-1.097615, 0.002147, 0.000919,-0.010599, 1.732848, 0.976847,-0.967979,1,-0.081336, 0.047816, 0.368590,1,-0.428226, 0.164079, 9.795922,1,0
1778257886792,  2822.898,  2822.898, 0.088873, 0.059113,-1.052293, 0.000797, 0.000348,-0.010805, 0.441989, 0.738836,-0.523521,1,-0.052881, 0.012385, 0.345315,1,-0.429772, 0.157959, 9.795955,1,0
1778257886813,  2822.923,  2822.918,-0.006678,-0.052566,-0.931709,-0.000041,-0.000421,-0.008689, 0.172890, 0.350404, 0.591306,1,-0.062502,-0.023151, 0.356449,1,-0.428730, 0.152601, 9.796085,1,0
1778257886836,  2822.948,  2822.943, 0.068745, 0.034158,-1.048976, 0.000432, 0.000247,-0.010448, 0.247648, 0.476715,-0.490596,1,-0.070009, 0.014904, 0.358990,1,-0.426811, 0.140047, 9.796356,1,0
1778257886862,  2822.968,  2822.968, 0.015985,-0.042736,-1.088911, 0.000183,-0.000577,-0.010758,-0.267266,-0.289091,-0.881951,1,-0.077074,-0.002526, 0.341922,1,-0.423802, 0.128065, 9.796651,1,0
1778257886883,  2822.993,  2822.988, 0.037389,-0.044670,-0.820988, 0.000518,-0.000222,-0.008180, 0.816992, 0.268961, 1.139894,1,-0.087124, 0.010399, 0.334622,1,-0.426514, 0.116375, 9.796679,1,0
1778257886906,  2823.018,  2823.013, 0.034310, 0.000189,-1.122051, 0.000224,-0.000114,-0.011012,-0.087015, 0.097375,-1.206525,1,-0.095902, 0.038105, 0.286268,1,-0.424594, 0.092905, 9.797013,1,0
1778257886932,  2823.038,  2823.038, 0.024629, 0.029613,-1.155451, 0.000445, 0.000243,-0.011871,-1.623814,-0.475658, 0.107353,1,-0.056255,-0.006976, 0.265948,1,-0.425127, 0.080463, 9.797100,1,0
1778257886953,  2823.063,  2823.058, 0.058714, 0.005064,-0.889307, 0.000722,-0.000161,-0.009300,-0.663190,-0.680265,-0.001351,1,-0.011955, 0.067322, 0.216566,1,-0.432442, 0.074834, 9.796824,1,0
1778257886976,  2823.088,  2823.083, 0.013966,-0.092491,-1.056453,-0.000463,-0.000875,-0.009730,-0.312476,-0.832404,-0.564206,1,-0.010173, 0.073842, 0.172327,1,-0.451697, 0.074549, 9.795959,1,0
1778257887002,  2823.108,  2823.108,-0.016617,-0.060417,-1.069241,-0.000175,-0.000867,-0.010959,-0.625060,-0.517119,-0.690203,1, 0.000258, 0.053787, 0.130593,1,-0.463749, 0.075574, 9.795387,1,0
1778257887024,  2823.133,  2823.128,-0.110728,-0.114777,-1.170704,-0.001151,-0.000933,-0.011168,-1.672563,-0.219973,-0.959018,1,-0.025970, 0.009323, 0.103424,1,-0.469197, 0.077597, 9.795112,1,0
1778257887046,  2823.158,  2823.153,-0.005133,-0.100751,-0.717600,-0.000167,-0.001015,-0.007145,-0.527195,-0.907457, 2.757466,1,-0.000064, 0.014467, 0.055439,1,-0.477297, 0.080652, 9.794696,1,0
1778257887072,  2823.178,  2823.178, 0.108836,-0.103165,-1.074098, 0.000849,-0.001126,-0.009625, 0.596552,-0.932946,-0.738274,1,-0.070782,-0.022577, 0.015978,1,-0.470059, 0.076573, 9.795078,1,0
1778257887094,  2823.203,  2823.198, 0.135208,-0.084370,-1.084397, 0.001829,-0.000861,-0.011752, 0.416310,-0.380053,-1.872593,1,-0.066704, 0.029316,-0.002860,1,-0.470478, 0.067731, 9.795124,1,0
1778257887116,  2823.228,  2823.223, 0.118555,-0.075845,-0.775040, 0.001501,-0.000753,-0.008289, 0.692720,-0.686162, 2.194668,1, 0.003196,-0.011475,-0.021084,1,-0.469555, 0.057695, 9.795232,1,0
1778257887142,  2823.248,  2823.248, 0.141643,-0.057128,-0.915440, 0.001349,-0.000357,-0.008657, 0.922075,-0.510758, 0.817999,1,-0.052950,-0.010293,-0.047314,1,-0.466651, 0.047755, 9.795424,1,0
1778257887164,  2823.273,  2823.268, 0.196283,-0.024599,-1.014001, 0.002286,-0.000514,-0.010756, 1.421943,-0.974059,-1.070049,1,-0.028460, 0.026614,-0.067176,1,-0.468330, 0.036372, 9.795393,1,0
1778257887191,  2823.298,  2823.298, 0.228541,-0.047491,-0.950061, 0.002392,-0.000473,-0.010006, 1.772587,-0.440294, 0.478499,1,-0.007225,-0.012131,-0.081511,1,-0.468259, 0.025088, 9.795432,1,0
1778257887212,  2823.318,  2823.318, 0.261443,-0.034924,-0.804923, 0.002762,-0.000192,-0.007663, 2.096902,-0.315690, 1.901890,1, 0.041728,-0.009297,-0.120956,1,-0.466695, 0.027919, 9.795499,1,0
1778257887235,  2823.343,  2823.338, 0.292313,-0.077249,-0.881100, 0.003069,-0.000938,-0.009441, 2.667175,-0.935791, 0.575277,1, 0.069948, 0.013963,-0.136780,1,-0.466527, 0.034704, 9.795485,1,0
1778257887261,  2823.368,  2823.368, 0.214500,-0.093938,-0.975372, 0.002244,-0.000753,-0.009470, 1.639340,-0.867921, 0.230380,1, 0.125353,-0.001479,-0.141043,1,-0.464164, 0.056999, 9.795493,1,0
1778257887282,  2823.393,  2823.388, 0.077864,-0.005316,-1.028982, 0.000841, 0.000062,-0.010549, 1.147949,-0.482914,-1.444645,1, 0.099895, 0.022025,-0.168568,1,-0.467094, 0.076162, 9.795223,1,0
1778257887304,  2823.413,  2823.408, 0.029814,-0.067941,-1.034922, 0.000043,-0.000472,-0.009519, 0.237781,-0.041635,-0.040640,1, 0.138955, 0.013007,-0.191972,1,-0.471747, 0.100757, 9.794779,1,0
1778257887331,  2823.438,  2823.438,-0.018999,-0.013382,-0.880838,-0.000009,-0.000488,-0.009532,-0.654560, 0.016333, 1.156280,1, 0.182995,-0.052697,-0.186951,1,-0.466690, 0.152991, 9.794344,1,0
1778257887352,  2823.463,  2823.458, 0.005374, 0.023540,-1.131271, 0.000179,-0.000135,-0.011921,-1.234863, 0.346858, 0.684519,1, 0.257673,-0.076677,-0.188590,1,-0.452020, 0.198022, 9.794226,1,0
1778257887374,  2823.483,  2823.478, 0.055262,-0.003582,-0.967307, 0.000910,-0.000036,-0.009660,-0.080328,-0.121950,-1.191524,1, 0.284263,-0.021162,-0.203197,1,-0.445468, 0.248699, 9.793369,1,0
1778257887401,  2823.508,  2823.508, 0.104177,-0.044945,-0.979490, 0.001180,-0.000338,-0.009927, 0.575686,-0.111696, 0.185455,1, 0.342605,-0.001075,-0.191153,1,-0.446102, 0.339472, 9.790615,1,0
1778257887422,  2823.533,  2823.528, 0.029931,-0.047621,-1.012705, 0.000230,-0.000163,-0.009612, 0.051934,-0.545642,-0.954087,1, 0.295226,-0.025273,-0.155411,1,-0.442972, 0.400530, 9.788449,1,0
1778257887444,  2823.553,  2823.548, 0.021834,-0.026142,-0.906575, 0.000011,-0.000242,-0.008894,-0.255481, 0.774869, 1.624599,1, 0.315814,-0.063313,-0.155401,1,-0.435250, 0.462123, 9.786081,1,0
1778257887471,  2823.578,  2823.578, 0.083229,-0.012386,-1.041896, 0.000845,-0.000115,-0.010684, 0.400861, 0.410173,-0.434100,1, 0.242247,-0.082856,-0.138244,1,-0.412994, 0.539001, 9.783113,1,0
1778257887493,  2823.603,  2823.598, 0.140841,-0.047396,-1.053816, 0.001209,-0.000587,-0.010816,-0.112603,-0.505634,-0.450906,1, 0.190395,-0.080619,-0.101102,1,-0.398878, 0.578677, 9.781432,1,0
1778257887514,  2823.623,  2823.618, 0.096980,-0.016022,-0.813443, 0.001321,-0.000089,-0.008213, 0.735239, 0.836796, 0.982453,1, 0.152532,-0.087487,-0.078936,1,-0.380941, 0.608487, 9.780338,1,0
1778257887541,  2823.648,  2823.648, 0.187000,-0.019065,-1.279528, 0.001720,-0.000149,-0.012285, 1.478413, 0.448007,-2.768269,1, 0.079012,-0.045232,-0.058829,1,-0.354142, 0.637368, 9.779506,1,0
1778257887563,  2823.673,  2823.668, 0.276045,-0.021562,-0.890239, 0.002438,-0.000501,-0.009000, 1.982416,-1.184942,-0.300937,1, 0.071287,-0.019862,-0.024090,1,-0.350749, 0.651099, 9.778724,1,0
1778257887584,  2823.693,  2823.688, 0.277544,-0.046512,-0.823713, 0.002842,-0.000483,-0.008526, 1.610348, 0.387292, 2.608908,1, 0.046597,-0.041734, 0.004578,1,-0.344761, 0.664364, 9.778044,1,0
1778257887611,  2823.718,  2823.718, 0.234649,-0.016927,-1.164738, 0.002871,-0.000012,-0.011699, 1.952452, 0.505927,-1.644787,1, 0.049363, 0.066062, 0.001016,1,-0.350723, 0.673464, 9.777209,1,0
1778257887633,  2823.743,  2823.738, 0.314118,-0.071736,-0.758190, 0.003188,-0.000535,-0.007719, 3.022868, 0.009690, 0.346703,1, 0.053042, 0.077569, 0.009714,1,-0.366436, 0.681233, 9.776094,1,0
1778257887654,  2823.763,  2823.758, 0.284193,-0.023128,-0.788368, 0.002945,-0.000514,-0.007933, 2.310995,-0.113814, 3.482573,1, 0.067058, 0.019820, 0.016947,1,-0.374408, 0.691947, 9.775041,1,0
1778257887681,  2823.788,  2823.788, 0.069655,-0.166954,-1.516928, 0.000481,-0.001538,-0.013729, 0.314504,-0.942229,-5.100936,1,-0.034247, 0.013690, 0.012106,1,-0.368975, 0.693979, 9.775103,1,0
1778257887703,  2823.813,  2823.808, 0.318113,-0.190179,-0.677316, 0.003399,-0.002101,-0.007165, 1.616482,-0.271676,-2.305078,1, 0.078463, 0.152119, 0.020415,1,-0.394659, 0.700305, 9.773648,1,0
1778257887726,  2823.833,  2823.833, 0.347289,-0.056531,-0.684644, 0.003133,-0.000118,-0.005159, 2.999035, 0.174268, 3.057018,1, 0.077831, 0.012907,-0.035743,1,-0.407188, 0.731024, 9.770885,1,0
1778257887751,  2823.858,  2823.858, 0.314082,-0.021339,-1.240190, 0.003269,-0.000388,-0.013448, 2.664483, 0.524682,-2.391799,1, 0.055099, 0.093253,-0.018209,1,-0.418555, 0.735631, 9.770059,1,0
1778257887773,  2823.883,  2823.878, 0.248732,-0.115088,-0.849250, 0.002389,-0.000499,-0.007537, 2.561891,-0.492919, 0.790187,1, 0.115741, 0.093706,-0.011897,1,-0.440163, 0.756782, 9.767493,1,0
1778257887796,  2823.903,  2823.903, 0.233613, 0.034556,-0.984273, 0.002097, 0.000558,-0.010171, 1.836191, 1.129408, 0.111722,1, 0.140327, 0.049475,-0.001473,1,-0.456311, 0.794888, 9.763724,1,0
1778257887821,  2823.928,  2823.928, 0.144681,-0.007252,-0.822913, 0.001351,-0.000576,-0.008445, 0.960598, 0.749859, 1.691452,1, 0.151973,-0.011421,-0.003483,1,-0.457895, 0.825689, 9.761094,1,0
1778257887843,  2823.953,  2823.948, 0.109196, 0.074646,-1.241786, 0.001414, 0.000763,-0.012713, 0.015527, 0.285210,-1.988533,1, 0.143415,-0.024762,-0.008067,1,-0.451070, 0.856756, 9.758734,1,0
1778257887866,  2823.973,  2823.973, 0.220793, 0.036741,-0.917277, 0.001914,-0.000012,-0.009190, 1.715183, 1.266103, 0.758937,1, 0.189721,-0.004722, 0.011724,1,-0.449880, 0.911702, 9.753809,1,0
1778257887892,  2823.998,  2823.998, 0.243808,-0.024012,-1.066716, 0.002099,-0.000498,-0.009626, 1.940551, 0.710967,-0.710437,1, 0.171402, 0.020674, 0.031253,1,-0.450932, 0.951804, 9.749928,1,0
1778257887913,  2824.023,  2824.018, 0.262401, 0.114316,-0.961148, 0.002484, 0.001033,-0.010101, 1.694024,-0.183283,-0.659043,1, 0.201116, 0.062986, 0.094730,1,-0.456717, 0.988552, 9.746002,1,0
1778257887936,  2824.043,  2824.043, 0.139888, 0.124945,-0.868970, 0.001298, 0.000662,-0.008817, 0.902183, 2.262096, 1.218689,1, 0.133772, 0.046678, 0.158694,1,-0.470570, 1.041188, 9.739861,1,0
1778257887962,  2824.068,  2824.068,-0.015013, 0.029051,-1.382973,-0.000053,-0.000055,-0.013270,-0.622061, 1.351786,-3.825461,1, 0.098274, 0.087317, 0.191698,1,-0.476890, 1.070226, 9.736404,1,0
1778257887983,  2824.093,  2824.088, 0.091317, 0.161891,-0.816499, 0.000953, 0.001313,-0.008957,-0.598826, 0.739091, 0.457226,1, 0.096574, 0.106946, 0.271037,1,-0.490918, 1.097914, 9.732624,1,0
1778257888006,  2824.113,  2824.113, 0.013530, 0.204124,-0.959019, 0.000004, 0.000952,-0.010128,-0.362025, 3.125580, 0.324708,1, 0.017513, 0.022608, 0.312684,1,-0.494288, 1.124841, 9.729378,1,0
1778257888032,  2824.138,  2824.138, 0.080018, 0.079575,-0.985030, 0.000710,-0.000608,-0.010349, 0.289780, 1.914517, 0.068418,1,-0.014957, 0.070506, 0.345766,1,-0.495865, 1.134229, 9.728208,1,0
1778257888053,  2824.163,  2824.158,-0.091976, 0.118907,-1.211934,-0.000452, 0.001305,-0.011695,-0.270169, 1.011961, 1.782118,1,-0.037032, 0.020937, 0.356311,1,-0.497503, 1.141574, 9.727265,1,0
1778257888076,  2824.188,  2824.183,-0.072634, 0.101230,-1.382669,-0.000901, 0.000185,-0.015240,-1.201422, 2.126582,-3.830759,1,-0.072311, 0.055767, 0.442259,1,-0.489254, 1.132301, 9.728767,1,0
1778257888102,  2824.208,  2824.208, 0.051831, 0.045154,-0.235401, 0.000325, 0.000209,-0.002092, 0.022459, 1.580411, 7.419828,1,-0.012690,-0.062215, 0.424547,1,-0.483086, 1.137814, 9.728432,1,0
1778257888123,  2824.233,  2824.228, 0.294102, 0.128338,-1.980148, 0.002419, 0.001675,-0.021289,-0.972957, 1.509532,-10.725408,1,-0.128962, 0.086382, 0.376811,1,-0.472481, 1.114165, 9.731689,1,0
1778257888146,  2824.258,  2824.253, 0.167071, 0.058102, 0.302312, 0.001772,-0.000216, 0.002659, 1.143097, 1.688130,12.694746,1,-0.031081,-0.038742, 0.453123,1,-0.492499, 1.118101, 9.730246,1,0
1778257888172,  2824.278,  2824.278, 0.066565, 0.044834,-1.254081, 0.000667, 0.000361,-0.010376, 0.187109, 1.544832,-2.565292,1,-0.174262,-0.056413, 0.361706,1,-0.462646, 1.100295, 9.733740,1,0
1778257888194,  2824.303,  2824.298, 0.159771, 0.103990,-0.916476, 0.001427, 0.000192,-0.011277, 0.364228,-0.136228,-4.409221,1,-0.033034, 0.074193, 0.452620,1,-0.463405, 1.091061, 9.734743,1,0
1778257888216,  2824.328,  2824.323, 0.251185, 0.241132,-0.685544, 0.001952, 0.001342,-0.007296, 2.002603, 3.459005, 3.011613,1,-0.009524, 0.019203, 0.452445,1,-0.459702, 1.094672, 9.734513,1,0
1778257888242,  2824.348,  2824.348, 0.199692, 0.227842,-1.191098, 0.001956, 0.000810,-0.012123, 1.507953, 3.329866,-1.945825,1,-0.104101, 0.026521, 0.465553,1,-0.449558, 1.092942, 9.735182,1,0
1778257888264,  2824.373,  2824.368, 0.245505, 0.140136,-0.866271, 0.002899, 0.001857,-0.009275, 1.690908, 1.540681,-1.053055,1,-0.051278, 0.096049, 0.523675,1,-0.455848, 1.093935, 9.734777,1,0
1778257888286,  2824.398,  2824.393, 0.196849, 0.319775,-0.935718, 0.002243, 0.003012,-0.010466, 1.472175, 4.225954, 0.558839,1,-0.098436, 0.051416, 0.594460,1,-0.457788, 1.087852, 9.735368,1,0
1778257888312,  2824.418,  2824.418, 0.138704, 0.336181,-1.064265, 0.001390, 0.002859,-0.011553, 0.906068, 4.376622,-0.700445,1,-0.146249, 0.044506, 0.623939,1,-0.453399, 1.076179, 9.736871,1,0
1778257888334,  2824.443,  2824.438,-0.018946,-0.101999,-0.953024, 0.000045,-0.000418,-0.010096, 0.506944, 4.621531,-0.734995,1,-0.199394, 0.015958, 0.680517,1,-0.445120, 1.058642, 9.739175,1,0
1778257888356,  2824.468,  2824.463, 0.141438, 0.054329,-0.890481, 0.001658, 0.001215,-0.009491, 0.949997, 1.561901, 1.010072,1,-0.106312, 0.093966, 0.680420,1,-0.437721, 1.026770, 9.742922,1,0
1778257888382,  2824.488,  2824.488, 0.298822, 0.049454,-0.932373, 0.003301, 0.001468,-0.009469, 2.479749, 1.480453, 0.602124,1,-0.154435, 0.161020, 0.720487,1,-0.453404, 0.991715, 9.745835,1,0
1778257888404,  2824.513,  2824.508, 0.190953, 0.220595,-1.072508, 0.001641, 0.001004,-0.010224, 2.198877, 0.987436, 1.510130,1,-0.181653, 0.156130, 0.776389,1,-0.474185, 0.952291, 9.748778,1,0
1778257888431,  2824.538,  2824.538, 0.224573, 0.234550,-1.137515, 0.001602, 0.001399,-0.011361, 1.714053, 3.176470,-1.400011,1,-0.397392, 0.182530, 0.802062,1,-0.491684, 0.865230, 9.756024,1,0
1778257888452,  2824.558,  2824.558, 0.130372, 0.255154,-1.005190, 0.001227, 0.001732,-0.009856, 0.763351, 3.318505,-0.098528,1,-0.421567, 0.143683, 0.785755,1,-0.517581, 0.804492, 9.759881,1,0
1778257888474,  2824.583,  2824.578, 0.183425,-0.056991,-0.926521, 0.001723, 0.000124,-0.011000,-0.623509, 2.270177,-3.942474,1,-0.438731, 0.106758, 0.855708,1,-0.514156, 0.736856, 9.765402,1,0
1778257888501,  2824.608,  2824.608, 0.270663,-0.037608,-0.358177, 0.003316, 0.000724,-0.001612, 2.097320, 0.299093, 6.255488,1,-0.257344, 0.134012, 0.707382,1,-0.559943, 0.661186, 9.768300,1,0
1778257888522,  2824.633,  2824.628, 0.290382, 0.065774,-0.648060, 0.002612,-0.000496,-0.006928, 2.592692, 0.897403, 0.642206,1,-0.305528, 0.166695, 0.736249,1,-0.585736, 0.583849, 9.771715,1,0
1778257888544,  2824.653,  2824.648, 0.039624, 0.097969,-1.137683, 0.000431, 0.000592,-0.010919,-0.442278,-1.324744, 3.180297,1,-0.363409, 0.052520, 0.748616,1,-0.596426, 0.520042, 9.774673,1,0
1778257888571,  2824.678,  2824.678, 0.008665, 0.141132,-1.374604, 0.000135, 0.001517,-0.013613,-0.513560, 1.802499,-3.700852,1,-0.360963, 0.040450, 0.644374,1,-0.598931, 0.408462, 9.779818,1,0
1778257888592,  2824.703,  2824.698, 0.007071, 0.047650,-0.797583,-0.000240,-0.000119,-0.008127,-0.667938, 2.454543, 1.261894,1,-0.330553, 0.006782, 0.609661,1,-0.601991, 0.346937, 9.782005,1,0
1778257888614,  2824.723,  2824.718, 0.079231, 0.122047,-1.153841, 0.000625, 0.000160,-0.011358,-0.344752, 1.812567, 2.328088,1,-0.307989, 0.054649, 0.557877,1,-0.605154, 0.283590, 9.783852,1,0
1778257888641,  2824.748,  2824.748, 0.105444, 0.047266,-1.347077, 0.000613,-0.000284,-0.012877, 0.402781, 0.643636,-3.425677,1,-0.501870, 0.155996, 0.583169,1,-0.635789, 0.165650, 9.784616,1,0
1778257888663,  2824.773,  2824.768,-0.242657, 0.131337,-0.748804,-0.002326, 0.001849,-0.007407,-1.480526, 1.364101, 1.518650,1,-0.471361, 0.052852, 0.586745,1,-0.650723, 0.089902, 9.784624,1,0
1778257888684,  2824.793,  2824.788,-0.498128,-0.067903,-0.605491,-0.005307,-0.000833,-0.004964,-4.240667, 1.681124, 6.316902,1,-0.389683,-0.121285, 0.524318,1,-0.642209, 0.017438, 9.785583,1,0
1778257888711,  2824.818,  2824.818,-0.280462, 0.040743,-2.024570,-0.003266, 0.000463,-0.020102,-3.355552, 0.310206,-10.066714,1,-0.429407, 0.002905, 0.422245,1,-0.605360,-0.101920, 9.787417,1,0
1778257888733,  2824.843,  2824.838, 0.117427,-0.074979,-0.503379, 0.000672,-0.001044,-0.005120,-0.559553,-1.184760, 2.188430,1,-0.228947, 0.047061, 0.409179,1,-0.619247,-0.152124, 9.785897,1,0
1778257888754,  2824.863,  2824.858, 0.055024,-0.083527,-1.153481, 0.000269,-0.000910,-0.010831,-0.096328,-0.334419, 3.950419,1,-0.261598,-0.122012, 0.324167,1,-0.608461,-0.197699, 9.785759,1,0
1778257888781,  2824.888,  2824.888,-0.014014,-0.079145,-1.388772,-0.000497,-0.000975,-0.013611,-0.729832,-1.036021,-3.833919,1,-0.261683, 0.002499, 0.133096,1,-0.592592,-0.267778, 9.785066,1,0
1778257888803,  2824.913,  2824.908, 0.129905,-0.203249,-0.660670, 0.001158,-0.002231,-0.006777,-0.420401,-2.120789, 4.449746,1,-0.183209,-0.046007, 0.121549,1,-0.583425,-0.296608, 9.784785,1,0
1778257888824,  2824.933,  2824.928, 0.156734,-0.260242,-1.301970, 0.001492,-0.002367,-0.013866, 0.555048,-0.995789,-1.230751,1,-0.233797,-0.022362, 0.034374,1,-0.575992,-0.338821, 9.783855,1,0
1778257888851,  2824.958,  2824.958, 0.394433,-0.286985,-0.752237, 0.003557,-0.002305,-0.007314, 3.291671,-3.196198, 2.405318,1,-0.146554, 0.028387,-0.148818,1,-0.577097,-0.386669, 9.782016,1,0
1778257888873,  2824.983,  2824.978, 0.505150,-0.206821,-0.509849, 0.005245,-0.003179,-0.005711, 4.101522,-3.424472, 2.137349,1,-0.172151, 0.029076,-0.158819,1,-0.581753,-0.426218, 9.780096,1,0
1778257888894,  2825.003,  2824.998, 0.064850,-0.112551,-0.941889, 0.001130,-0.001359,-0.004723, 2.786777,-1.353246, 8.241251,1,-0.173583,-0.149975,-0.257884,1,-0.565683,-0.465731, 9.779237,1,0
1778257888921,  2825.028,  2825.028, 0.459605,-0.554093,-2.644069, 0.004443,-0.006443,-0.033110, 3.919180,-6.002767,-16.157019,1,-0.095429, 0.410882,-0.427862,1,-0.600015,-0.572741, 9.771506,1,0
1778257888943,  2825.053,  2825.048, 0.719142,-0.009803, 0.859755, 0.007890, 0.000369, 0.007679, 3.106045,-0.529536,22.671238,1, 0.364306, 0.859751,-0.513677,1,-0.697239,-0.542341, 9.766786,1,0
1778257888966,  2825.073,  2825.073, 0.206597, 0.258720,-2.043510,-0.000144, 0.005769,-0.019455, 1.437250, 1.809255,-10.278244,1,-0.656400, 0.089437,-0.555037,1,-0.590266,-0.749366, 9.760144,1,0
1778257888991,  2825.098,  2825.098, 0.309206,-0.448200,-0.602852, 0.003061,-0.004671,-0.006242, 2.438727,-5.083072, 3.852512,1,-0.270768, 0.188435,-0.729660,1,-0.597810,-0.697526, 9.763527,1,0
1778257889013,  2825.123,  2825.118,-0.180582,-0.382905,-1.661744,-0.001543,-0.003502,-0.013896,-0.398963,-4.030937, 3.993837,1,-0.119026,-0.248602,-0.583215,1,-0.571833,-0.712285, 9.764018,1,0
1778257889036,  2825.143,  2825.143, 0.028267,-0.438613,-1.706133, 0.000159,-0.003196,-0.019000,-0.274791,-5.021181,-6.966850,1, 0.294935, 0.072157,-0.983383,1,-0.551982,-0.712420, 9.765150,1,0
1778257889061,  2825.168,  2825.168, 0.255515,-0.516498,-0.272798, 0.002164,-0.003998,-0.003186, 1.958176,-5.746882, 7.092353,1, 0.269550,-0.009397,-0.949261,1,-0.545216,-0.675040, 9.768186,1,0
1778257889083,  2825.193,  2825.188,-0.089736,-0.229087,-1.280054,-0.000547,-0.001524,-0.012807, 0.624683,-5.338905,-0.004857,1, 0.194303,-0.073165,-1.030653,1,-0.514492,-0.644007, 9.771946,1,0
1778257889106,  2825.213,  2825.213,-0.107570,-0.645501,-1.452028,-0.001649,-0.004740,-0.014160,-1.555757,-6.921121,-4.463529,1, 0.406218, 0.095161,-1.165995,1,-0.501623,-0.580130, 9.776615,1,0
1778257889132,  2825.238,  2825.238, 0.080813,-0.450319,-0.558429,-0.000052,-0.004568,-0.005894, 0.296772,-4.957497, 4.302812,1, 0.311094,-0.025222,-1.113089,1,-0.493022,-0.533455, 9.779711,1,0
1778257889153,  2825.263,  2825.258, 0.195692,-0.441457,-0.861304, 0.001198,-0.002472,-0.008609, 0.394482,-3.368918, 0.291033,1, 0.130472, 0.029335,-1.106361,1,-0.480744,-0.498871, 9.782146,1,0
1778257889176,  2825.283,  2825.283,-0.078602,-0.342643,-1.437007,-0.000744,-0.003887,-0.015032,-1.294535,-3.818485,-4.310300,1, 0.167827,-0.051991,-1.228220,1,-0.520303,-0.455125, 9.782256,1,0
1778257889202,  2825.308,  2825.308,-0.151432,-0.249234,-1.441078,-0.002191,-0.004450,-0.013925,-1.967687,-2.883337,-4.347237,1, 0.081730, 0.027296,-1.134690,1,-0.481913,-0.438385, 9.784986,1,0
1778257889223,  2825.333,  2825.328, 0.269114,-0.174103,-0.381778, 0.001828,-0.000828,-0.003646, 0.611051,-1.108895, 3.465385,1, 0.093489, 0.165585,-1.036121,1,-0.500093,-0.415537, 9.785071,1,0
1778257889246,  2825.353,  2825.353, 0.242741,-0.154013,-0.828354, 0.002606,-0.001804,-0.007367, 1.876368,-1.903692, 1.662399,1, 0.072537, 0.095045,-0.904435,1,-0.505934,-0.392528, 9.785721,1,0
1778257889272,  2825.378,  2825.378, 0.253483,-0.063149,-0.938805, 0.002863,-0.002008,-0.009775, 1.958408,-1.003406, 0.578384,1, 0.056787, 0.140391,-0.820265,1,-0.530784,-0.383728, 9.784754,1,0
1778257889293,  2825.403,  2825.398, 0.017844,-0.218789,-1.500922,-0.000062,-0.002051,-0.014923,-1.375794, 0.085036,-4.652384,1,-0.108263,-0.002652,-0.761369,1,-0.530958,-0.390277, 9.784485,1,0
1778257889316,  2825.428,  2825.423,-0.029197, 0.086880,-0.707416, 0.000273,-0.000441,-0.007839,-0.797655, 0.479836, 2.848855,1, 0.036193,-0.055057,-0.637895,1,-0.508865,-0.372081, 9.786367,1,0
1778257889342,  2825.448,  2825.448, 0.114042, 0.036335,-1.292143, 0.001037, 0.000250,-0.013154, 0.604836,-0.012292,-2.885335,1, 0.038505, 0.125741,-0.632296,1,-0.516705,-0.368453, 9.786095,1,0
1778257889363,  2825.473,  2825.468, 0.049527, 0.064665,-0.512844, 0.001931,-0.000882,-0.005408, 1.834487,-1.338482, 2.398195,1, 0.178865, 0.115268,-0.626466,1,-0.540911,-0.345300, 9.785630,1,0
