Time,GPS_ts,fGPS_ts,scaledAccelX,scaledAccelY,scaledAccelZ,deltaVelX,deltaVelY,deltaVelZ,estLinearAccelX,estLinearAccelY,estLinearAccelZ,estLinearAccel:valid,estAngularRateX,estAngularRateY,estAngularRateZ,estAngularRate:valid,estGravityX,estGravityY,estGravityZ,estGravity:valid,flag
1778257389946,  2317.107,  2317.107, 0.053686, 0.205586,-0.916967, 0.000544, 0.002067,-0.009263,-0.023502, 0.198532, 0.628659,1, 0.062005,-0.051297, 0.251329,1,-0.549865,-1.815236, 9.621484,1,0
1778257389946,  2317.132,  2317.127, 0.066826, 0.227670,-0.844637, 0.000647, 0.002249,-0.008419, 0.026939, 0.337048, 1.459495,1, 0.073286,-0.039145, 0.261132,1,-0.550183,-1.798745, 9.624562,1,0
1778257389946,  2317.152,  2317.152, 0.095780, 0.248179,-0.910788, 0.000937, 0.002486,-0.009066, 0.382377, 0.659024, 0.696839,1, 0.080159,-0.018841, 0.281296,1,-0.557919,-1.771823, 9.629109,1,0
1778257389946,  2317.177,  2317.177, 0.117873, 0.246111,-0.914726, 0.001152, 0.002492,-0.009167, 0.590833, 0.658591, 0.661388,1, 0.094443, 0.000413, 0.273633,1,-0.566647,-1.751548, 9.632309,1,0
1778257389946,  2317.202,  2317.197, 0.155451, 0.222726,-0.894433, 0.001403, 0.002207,-0.008648, 0.584275, 0.429538, 1.410660,1, 0.100380, 0.002179, 0.285868,1,-0.576571,-1.728900, 9.635811,1,0
1778257389946,  2317.227,  2317.227, 0.099811, 0.214610,-1.439445, 0.001343, 0.002237,-0.013617, 0.379999, 0.399526,-4.477439,1, 0.038362,-0.020432, 0.333358,1,-0.599992,-1.703267, 9.638946,1,0
1778257389946,  2317.252,  2317.247,-0.159066, 0.046943,-1.147384,-0.001545, 0.000267,-0.012212,-3.087854,-1.461248,-3.398618,1, 0.121945,-0.128104, 0.357411,1,-0.585358,-1.677579, 9.644349,1,0
1778257389946,  2317.277,  2317.272,-0.030049, 0.149988,-0.916248,-0.000229, 0.001386,-0.008867,-0.849808,-0.157476, 0.669242,1, 0.226960,-0.243337, 0.221961,1,-0.548751,-1.621034, 9.656164,1,0
1778257389946,  2317.302,  2317.297, 0.068406, 0.274710,-0.837191, 0.000479, 0.002973,-0.008519,-0.853007, 1.897467, 0.973760,1, 0.201532,-0.191314, 0.190582,1,-0.510633,-1.581418, 9.664821,1,0
1778257389946,  2317.322,  2317.317, 0.120044, 0.117309,-0.793254, 0.001267, 0.001282,-0.007715, 0.925332, 0.038782, 1.890093,1, 0.222577,-0.092140, 0.234169,1,-0.496503,-1.537957, 9.672567,1,0
1778257389946,  2317.342,  2317.337, 0.012140, 0.189549,-0.969055, 0.000110, 0.001813,-0.009755,-0.018157, 0.098523, 0.995738,1, 0.209429,-0.024980, 0.258672,1,-0.492969,-1.493416, 9.679725,1,0
1778257389958,  2326.077,  2326.072, 0.038031,-0.030401,-0.994771, 0.000383,-0.000305,-0.009950,-0.006193, 0.004826, 0.039264,1, 0.005652,-0.000645,-0.000361,1,-0.379122, 0.303126, 9.794629,1,0
1778257389984,  2326.097,  2326.097, 0.038293,-0.030738,-0.994818, 0.000381,-0.000310,-0.009950,-0.003477, 0.002531, 0.038777,1, 0.004171,-0.000893,-0.000290,1,-0.378972, 0.304093, 9.794605,1,0
1778257390006,  2326.122,  2326.117, 0.038451,-0.030761,-0.994666, 0.000385,-0.000310,-0.009947,-0.002985,-0.007177, 0.040457,1, 0.004149,-0.000011,-0.000405,1,-0.378967, 0.304928, 9.794580,1,0
1778257390028,  2326.147,  2326.142, 0.038522,-0.030824,-0.995020, 0.000387,-0.000307,-0.009950,-0.001116, 0.003462, 0.036741,1, 0.003160, 0.000136, 0.000165,1,-0.378892, 0.305838, 9.794554,1,0
1778257390054,  2326.167,  2326.167, 0.038450,-0.031719,-0.994694, 0.000385,-0.000318,-0.009945,-0.001756,-0.004670, 0.039918,1, 0.002375,-0.000137, 0.000094,1,-0.378821, 0.306460, 9.794538,1,0
1778257390076,  2326.192,  2326.187, 0.037976,-0.031562,-0.994564, 0.000381,-0.000317,-0.009943,-0.007797,-0.005581, 0.039102,1, 0.003398,-0.000293,-0.000422,1,-0.378788, 0.307061, 9.794519,1,0
1778257390099,  2326.217,  2326.212, 0.037682,-0.031418,-0.995392, 0.000374,-0.000313,-0.009951,-0.009261,-0.000359, 0.033036,1, 0.001298, 0.000513,-0.000237,1,-0.378814, 0.307787, 9.794496,1,0
1778257390124,  2326.237,  2326.237, 0.037600,-0.031702,-0.995324, 0.000374,-0.000317,-0.009950,-0.010117,-0.002827, 0.033687,1, 0.001494,-0.000622, 0.000129,1,-0.378828, 0.308107, 9.794485,1,0
1778257390146,  2326.262,  2326.257, 0.038098,-0.030619,-0.994805, 0.000380,-0.000308,-0.009946,-0.012740,-0.000521, 0.041876,1, 0.000673, 0.000523,-0.000340,1,-0.378809, 0.308317, 9.794479,1,0
1778257390169,  2326.287,  2326.282, 0.039271,-0.031262,-0.995452, 0.000392,-0.000313,-0.009953, 0.006570, 0.001828, 0.032432,1, 0.000268,-0.000555, 0.000447,1,-0.378531, 0.308416, 9.794487,1,0
1778257390194,  2326.307,  2326.307, 0.038832,-0.031068,-0.995082, 0.000389,-0.000309,-0.009950, 0.002198, 0.003788, 0.036060,1, 0.000388, 0.000423,-0.000187,1,-0.378627, 0.308468, 9.794482,1,0
1778257390216,  2326.332,  2326.327, 0.038254,-0.031252,-0.994689, 0.000382,-0.000311,-0.009946,-0.000989,-0.000239, 0.036884,1,-0.000692, 0.000332, 0.000486,1,-0.378649, 0.308301, 9.794486,1,0
1778257390243,  2326.357,  2326.357, 0.037922,-0.031527,-0.995720, 0.000380,-0.000316,-0.009954,-0.006763,-0.001041, 0.029817,1,-0.000753,-0.000874,-0.000986,1,-0.378621, 0.308114, 9.794493,1,0
1778257390264,  2326.377,  2326.377, 0.038351,-0.031665,-0.995241, 0.000382,-0.000315,-0.009954,-0.002515,-0.002649, 0.034517,1,-0.001406,-0.000165,-0.000413,1,-0.378602, 0.307835, 9.794502,1,0
1778257390286,  2326.402,  2326.397, 0.038687,-0.030457,-0.994051, 0.000385,-0.000306,-0.009941,-0.004990, 0.008163, 0.041727,1,-0.001118, 0.000132,-0.000357,1,-0.378711, 0.307593, 9.794506,1,0
1778257390313,  2326.427,  2326.427, 0.038372,-0.030600,-0.994890, 0.000384,-0.000306,-0.009954,-0.002322, 0.007203, 0.037983,1,-0.000858,-0.000212, 0.000397,1,-0.378620, 0.307263, 9.794520,1,0
1778257390334,  2326.452,  2326.447, 0.037635,-0.030775,-0.994911, 0.000377,-0.000307,-0.009948,-0.005362, 0.001759, 0.037795,1,-0.000768,-0.000310,-0.000303,1,-0.378664, 0.307053, 9.794525,1,0
1778257390356,  2326.472,  2326.467, 0.037286,-0.031304,-0.995065, 0.000373,-0.000315,-0.009953,-0.017992,-0.000090, 0.038287,1,-0.001857, 0.000561,-0.000031,1,-0.378699, 0.306666, 9.794536,1,0
1778257390383,  2326.497,  2326.497, 0.037748,-0.030900,-0.995142, 0.000376,-0.000309,-0.009952,-0.008528, 0.003172, 0.035537,1,-0.001916,-0.000743,-0.000237,1,-0.378684, 0.306138, 9.794553,1,0
1778257390405,  2326.522,  2326.517, 0.039633,-0.031330,-0.994136, 0.000395,-0.000313,-0.009941, 0.001641, 0.005488, 0.041059,1,-0.001713,-0.001007, 0.000254,1,-0.378527, 0.305765, 9.794570,1,0
1778257390426,  2326.542,  2326.537, 0.038869,-0.030924,-0.994117, 0.000392,-0.000308,-0.009945, 0.009081, 0.002660, 0.046122,1,-0.002074,-0.000094,-0.000137,1,-0.378558, 0.305322, 9.794583,1,0
1778257390453,  2326.567,  2326.567, 0.038451,-0.030157,-0.994946, 0.000385,-0.000302,-0.009949,-0.001588, 0.009074, 0.037512,1,-0.001660, 0.000285,-0.000187,1,-0.378669, 0.304762, 9.794596,1,0
1778257390475,  2326.592,  2326.587, 0.038093,-0.030061,-0.995110, 0.000381,-0.000305,-0.009952,-0.006335, 0.005765, 0.038024,1,-0.001458, 0.000644, 0.000273,1,-0.378644, 0.304393, 9.794609,1,0
1778257390496,  2326.612,  2326.607, 0.037727,-0.028843,-0.995440, 0.000378,-0.000293,-0.009957,-0.008894, 0.012709, 0.030616,1,-0.000303,-0.000899,-0.000179,1,-0.378607, 0.304251, 9.794615,1,0
1778257390523,  2326.637,  2326.637, 0.038152,-0.028548,-0.994494, 0.000380,-0.000287,-0.009948,-0.004503, 0.024397, 0.041953,1, 0.001065,-0.000222, 0.000255,1,-0.378637, 0.304391, 9.794609,1,0
1778257390545,  2326.662,  2326.657, 0.038940,-0.029823,-0.994833, 0.000389,-0.000299,-0.009949,-0.001035, 0.015022, 0.041469,1, 0.001909,-0.000848,-0.000216,1,-0.378515, 0.304693, 9.794604,1,0
1778257390566,  2326.682,  2326.677, 0.038649,-0.029436,-0.994442, 0.000386,-0.000295,-0.009944, 0.003173, 0.016238, 0.032162,1, 0.003820,-0.000146,-0.000009,1,-0.378401, 0.304943, 9.794600,1,0
1778257390593,  2326.707,  2326.707, 0.037671,-0.029471,-0.995306, 0.000377,-0.000295,-0.009950,-0.008985, 0.017018, 0.033943,1, 0.004721,-0.000180,-0.000051,1,-0.378406, 0.306176, 9.794562,1,0
1778257390615,  2326.732,  2326.727, 0.038189,-0.030096,-0.995251, 0.000382,-0.000299,-0.009953,-0.009387, 0.013531, 0.038255,1, 0.006019,-0.000582,-0.000031,1,-0.378277, 0.307396, 9.794529,1,0
1778257390636,  2326.752,  2326.747, 0.038621,-0.030132,-0.994468, 0.000387,-0.000300,-0.009948, 0.003145, 0.010015, 0.033498,1, 0.008071,-0.000889,-0.000367,1,-0.378147, 0.308918, 9.794486,1,0
1778257390663,  2326.777,  2326.777, 0.039426,-0.029827,-0.994747, 0.000393,-0.000301,-0.009947, 0.008679, 0.018849, 0.039281,1, 0.009664,-0.000828, 0.000587,1,-0.377929, 0.311657, 9.794408,1,0
1778257390685,  2326.802,  2326.797, 0.038260,-0.031622,-0.995035, 0.000384,-0.000314,-0.009949, 0.001010, 0.008103, 0.045115,1, 0.010243,-0.000308,-0.000018,1,-0.377814, 0.313658, 9.794349,1,0
1778257390706,  2326.822,  2326.817, 0.037277,-0.031845,-0.995616, 0.000372,-0.000318,-0.009955,-0.010437, 0.006963, 0.033483,1, 0.011611,-0.000163, 0.000353,1,-0.377724, 0.315843, 9.794282,1,0
1778257390733,  2326.847,  2326.847, 0.036000,-0.031628,-0.994615, 0.000362,-0.000315,-0.009946,-0.024568, 0.008834, 0.040344,1, 0.012151,-0.001066, 0.000469,1,-0.377573, 0.319373, 9.794173,1,0
1778257390755,  2326.872,  2326.867, 0.037875,-0.032944,-0.995264, 0.000377,-0.000328,-0.009952,-0.011759, 0.001240, 0.033826,1, 0.011496,-0.001309,-0.000062,1,-0.377280, 0.321233, 9.794124,1,0
1778257390778,  2326.892,  2326.892, 0.039114,-0.032303,-0.995120, 0.000388,-0.000321,-0.009949, 0.006514, 0.007448, 0.035235,1, 0.012076,-0.001170, 0.000506,1,-0.377029, 0.324609, 9.794022,1,0
1778257390804,  2326.917,  2326.917, 0.039653,-0.032537,-0.994964, 0.000398,-0.000323,-0.009950, 0.012071, 0.007427, 0.036708,1, 0.011021,-0.001201, 0.000083,1,-0.376756, 0.326847, 9.793958,1,0
1778257390825,  2326.942,  2326.937, 0.038012,-0.034507,-0.994946, 0.000380,-0.000343,-0.009950,-0.001496,-0.003224, 0.037842,1, 0.011401,-0.000435, 0.000149,1,-0.376608, 0.329026, 9.793891,1,0
1778257390848,  2326.962,  2326.962, 0.037001,-0.033838,-0.994799, 0.000370,-0.000340,-0.009949,-0.013628, 0.000034, 0.038157,1, 0.010738, 0.000165,-0.000076,1,-0.376494, 0.332209, 9.793788,1,0
1778257390874,  2326.987,  2326.987, 0.037811,-0.034320,-0.995494, 0.000374,-0.000342,-0.009955,-0.005566,-0.002835, 0.031279,1, 0.008729,-0.001180, 0.000241,1,-0.376331, 0.334000, 9.793733,1,0
1778257390895,  2327.012,  2327.007, 0.040103,-0.033827,-0.994260, 0.000399,-0.000337,-0.009942, 0.013973,-0.002264, 0.037583,1, 0.008626,-0.001701, 0.000310,1,-0.376055, 0.335705, 9.793685,1,0
1778257390918,  2327.032,  2327.032, 0.039476,-0.034429,-0.994524, 0.000394,-0.000344,-0.009947, 0.011265, 0.000087, 0.040676,1, 0.007031, 0.000731, 0.000868,1,-0.375888, 0.337939, 9.793614,1,0
1778257390944,  2327.057,  2327.057, 0.038164,-0.034530,-0.994440, 0.000384,-0.000347,-0.009944,-0.001648, 0.000347, 0.041453,1, 0.006477,-0.000435, 0.000536,1,-0.375894, 0.339170, 9.793572,1,0
1778257390965,  2327.082,  2327.077, 0.037515,-0.034915,-0.994860, 0.000376,-0.000349,-0.009948,-0.011710, 0.001400, 0.038821,1, 0.006653,-0.000415, 0.000702,1,-0.375942, 0.340428, 9.793527,1,0
1778257390988,  2327.102,  2327.102, 0.037253,-0.035296,-0.994846, 0.000375,-0.000354,-0.009952,-0.010419,-0.004126, 0.037371,1, 0.006042,-0.000633,-0.000274,1,-0.375722, 0.342193, 9.793473,1,0
1778257391014,  2327.127,  2327.127, 0.037444,-0.035522,-0.995039, 0.000374,-0.000355,-0.009949,-0.008499,-0.005172, 0.035445,1, 0.006012, 0.000097, 0.000068,1,-0.375698, 0.343368, 9.793433,1,0
1778257391035,  2327.152,  2327.147, 0.036042,-0.035825,-0.994596, 0.000362,-0.000358,-0.009946,-0.015013,-0.004570, 0.044404,1, 0.004797, 0.000339,-0.000101,1,-0.375628, 0.344388, 9.793400,1,0
1778257391058,  2327.172,  2327.172, 0.036500,-0.036421,-0.995441, 0.000364,-0.000365,-0.009954,-0.017642,-0.011802, 0.031423,1, 0.002265,-0.000796,-0.000150,1,-0.375557, 0.345437, 9.793365,1,0
1778257391084,  2327.197,  2327.197, 0.037486,-0.035776,-0.995099, 0.000375,-0.000358,-0.009953,-0.007881,-0.005111, 0.034774,1, 0.000788, 0.000246,-0.000438,1,-0.375500, 0.345751, 9.793357,1,0
1778257391105,  2327.222,  2327.217, 0.038775,-0.036285,-0.995059, 0.000390,-0.000361,-0.009950, 0.006104,-0.003900, 0.038559,1, 0.000400,-0.000549, 0.000175,1,-0.375411, 0.345978, 9.793352,1,0
1778257391128,  2327.247,  2327.242, 0.039536,-0.035547,-0.994916, 0.000394,-0.000357,-0.009952, 0.012241,-0.002640, 0.036562,1,-0.001249, 0.000533,-0.000171,1,-0.375490, 0.345915, 9.793351,1,0
1778257391154,  2327.267,  2327.267, 0.038860,-0.035422,-0.994465, 0.000390,-0.000354,-0.009944, 0.005669,-0.001541, 0.040989,1,-0.001873, 0.000928, 0.000105,1,-0.375320, 0.345921, 9.793358,1,0
1778257391176,  2327.292,  2327.287, 0.037474,-0.036502,-0.995355, 0.000377,-0.000363,-0.009954,-0.003428,-0.010006, 0.042316,1,-0.002922, 0.000342,-0.000377,1,-0.375429, 0.345415, 9.793371,1,0
1778257391198,  2327.317,  2327.312, 0.037279,-0.035627,-0.994803, 0.000372,-0.000357,-0.009953,-0.009906,-0.004888, 0.037713,1,-0.004161, 0.000711,-0.000510,1,-0.375515, 0.344359, 9.793406,1,0
1778257391224,  2327.337,  2327.337, 0.038173,-0.034479,-0.994414, 0.000380,-0.000347,-0.009946,-0.001195, 0.005463, 0.041560,1,-0.004805,-0.000626, 0.000050,1,-0.375527, 0.343433, 9.793437,1,0
1778257391246,  2327.362,  2327.357, 0.038651,-0.034519,-0.994634, 0.000388,-0.000344,-0.009946, 0.002971, 0.005219, 0.043163,1,-0.005468, 0.000329,-0.000346,1,-0.375525, 0.342340, 9.793476,1,0
1778257391268,  2327.387,  2327.382, 0.038380,-0.034131,-0.994549, 0.000387,-0.000340,-0.009948, 0.000760, 0.006304, 0.040324,1,-0.004676, 0.000974,-0.000295,1,-0.375654, 0.340870, 9.793522,1,0
1778257391294,  2327.407,  2327.407, 0.036966,-0.033515,-0.994800, 0.000371,-0.000336,-0.009949,-0.013285, 0.011445, 0.037887,1,-0.004217, 0.000726, 0.000208,1,-0.375819, 0.339982, 9.793547,1,0
1778257391316,  2327.432,  2327.427, 0.035932,-0.033494,-0.995349, 0.000361,-0.000334,-0.009955,-0.020377, 0.007814, 0.034616,1,-0.003630, 0.000526,-0.000385,1,-0.375897, 0.339212, 9.793571,1,0
1778257391339,  2327.457,  2327.452, 0.036880,-0.034326,-0.995238, 0.000369,-0.000341,-0.009953,-0.014292, 0.001726, 0.033646,1,-0.002728,-0.000487,-0.000312,1,-0.375945, 0.338260, 9.793601,1,0
1778257391364,  2327.477,  2327.477, 0.038021,-0.033915,-0.994345, 0.000379,-0.000338,-0.009947,-0.002896, 0.005052, 0.042436,1,-0.003145, 0.000062, 0.000207,1,-0.375746, 0.337544, 9.793633,1,0
1778257391386,  2327.502,  2327.497, 0.038910,-0.033858,-0.994889, 0.000388,-0.000339,-0.009947, 0.003348, 0.004579, 0.044331,1,-0.003079, 0.000082,-0.000017,1,-0.375770, 0.336906, 9.793654,1,0
1778257391409,  2327.527,  2327.522, 0.039563,-0.034790,-0.995581, 0.000396,-0.000346,-0.009956, 0.012095,-0.005182, 0.030370,1,-0.003333, 0.000770, 0.000650,1,-0.375912, 0.335889, 9.793684,1,0
1778257391434,  2327.547,  2327.547, 0.039262,-0.034489,-0.994039, 0.000393,-0.000343,-0.009941, 0.009029,-0.003034, 0.045512,1,-0.004225, 0.000851,-0.000348,1,-0.376025, 0.335051, 9.793709,1,0
1778257391456,  2327.572,  2327.567, 0.038394,-0.034466,-0.995445, 0.000383,-0.000344,-0.009953, 0.003713,-0.007202, 0.035596,1,-0.005405, 0.000477,-0.000552,1,-0.376164, 0.334079, 9.793736,1,0
1778257391483,  2327.597,  2327.597, 0.038590,-0.034293,-0.995843, 0.000386,-0.000343,-0.009956, 0.002070,-0.003750, 0.027898,1,-0.006741,-0.000191,-0.000047,1,-0.376362, 0.332340, 9.793788,1,0
1778257391504,  2327.617,  2327.617, 0.038026,-0.035323,-0.994262, 0.000382,-0.000352,-0.009944,-0.003466,-0.015370, 0.043456,1,-0.008259, 0.000051,-0.000331,1,-0.376372, 0.330771, 9.793841,1,0
1778257391526,  2327.642,  2327.637, 0.039562,-0.036660,-0.994577, 0.000394,-0.000369,-0.009951, 0.001971,-0.026216, 0.044843,1,-0.011639,-0.000161,-0.000230,1,-0.376416, 0.328764, 9.793907,1,0
1778257391553,  2327.667,  2327.667, 0.039058,-0.036125,-0.995368, 0.000391,-0.000361,-0.009950, 0.006404,-0.028834, 0.032781,1,-0.015409, 0.001114,-0.000286,1,-0.376794, 0.325167, 9.794012,1,0
1778257391575,  2327.692,  2327.687, 0.037707,-0.036246,-0.994684, 0.000378,-0.000363,-0.009946, 0.002156,-0.026234, 0.048110,1,-0.018564, 0.000719,-0.001109,1,-0.376968, 0.321772, 9.794118,1,0
1778257391596,  2327.712,  2327.707, 0.036178,-0.035938,-0.994993, 0.000362,-0.000357,-0.009949,-0.016718,-0.035555, 0.039821,1,-0.022348, 0.002082,-0.001059,1,-0.377246, 0.317676, 9.794241,1,0
1778257391623,  2327.737,  2327.737, 0.035157,-0.036052,-0.995520, 0.000353,-0.000360,-0.009959,-0.032980,-0.042475, 0.031714,1,-0.027352, 0.001743,-0.001091,1,-0.377803, 0.310217, 9.794458,1,0
1778257391645,  2327.762,  2327.757, 0.037504,-0.031845,-0.994166, 0.000373,-0.000321,-0.009943,-0.019407,-0.019974, 0.041096,1,-0.030866, 0.001271,-0.001250,1,-0.378077, 0.304295, 9.794634,1,0
1778257391666,  2327.782,  2327.777, 0.038758,-0.032118,-0.994369, 0.000388,-0.000323,-0.009947,-0.006079,-0.010580, 0.044387,1,-0.034611, 0.002722,-0.000502,1,-0.378491, 0.297701, 9.794820,1,0
1778257391693,  2327.807,  2327.807, 0.042418,-0.032309,-0.991696, 0.000419,-0.000325,-0.009936, 0.036958,-0.028917, 0.069871,1,-0.038535, 0.001168,-0.001197,1,-0.379054, 0.286721, 9.795126,1,0
1778257391715,  2327.832,  2327.827, 0.041072,-0.030681,-0.995320, 0.000402,-0.000297,-0.009914, 0.015118,-0.020584,-0.006422,1,-0.042693, 0.003779,-0.000069,1,-0.379743, 0.278657, 9.795332,1,0
1778257391736,  2327.852,  2327.847, 0.037795,-0.031519,-0.995597, 0.000379,-0.000325,-0.009972,-0.011624,-0.039239, 0.051312,1,-0.046270, 0.001976, 0.000004,1,-0.380261, 0.269798, 9.795560,1,0
1778257391763,  2327.877,  2327.877, 0.041190,-0.030343,-0.997289, 0.000406,-0.000302,-0.009953, 0.023166,-0.039879, 0.015804,1,-0.054373, 0.002892,-0.000016,1,-0.380848, 0.256030, 9.795907,1,0
1778257391785,  2327.902,  2327.897, 0.041045,-0.028196,-0.993376, 0.000411,-0.000286,-0.009946, 0.009300,-0.012568, 0.051859,1,-0.059384, 0.003528, 0.001053,1,-0.381405, 0.244717, 9.796174,1,0
1778257391806,  2327.922,  2327.917, 0.042283,-0.029328,-0.995489, 0.000420,-0.000294,-0.009940, 0.034175,-0.050895, 0.046969,1,-0.064070, 0.003800, 0.000125,1,-0.382171, 0.232480, 9.796442,1,0
1778257391833,  2327.947,  2327.947, 0.042386,-0.024931,-0.993602, 0.000424,-0.000256,-0.009945, 0.032666,-0.029640, 0.052902,1,-0.069145, 0.004440, 0.000180,1,-0.383142, 0.212693, 9.796854,1,0
1778257391855,  2327.972,  2327.967, 0.043369,-0.024620,-0.995931, 0.000428,-0.000249,-0.009950, 0.043887,-0.040328, 0.045251,1,-0.074110, 0.004078, 0.000592,1,-0.383961, 0.198465, 9.797120,1,0
1778257391876,  2327.992,  2327.987, 0.043244,-0.022821,-0.994227, 0.000434,-0.000233,-0.009947, 0.030261,-0.049228, 0.033075,1,-0.077824, 0.005073,-0.001484,1,-0.384880, 0.183469, 9.797377,1,0
1778257391903,  2328.017,  2328.017, 0.044117,-0.019873,-0.994755, 0.000441,-0.000209,-0.009955, 0.046494,-0.032510, 0.042488,1,-0.082186, 0.005748,-0.001120,1,-0.386331, 0.159814, 9.797734,1,0
1778257391925,  2328.042,  2328.037, 0.043350,-0.019166,-0.992984, 0.000432,-0.000197,-0.009931, 0.042893,-0.039894, 0.053302,1,-0.088163, 0.005467,-0.001358,1,-0.387344, 0.143121, 9.797952,1,0
1778257391947,  2328.062,  2328.057, 0.042537,-0.021349,-0.994380, 0.000426,-0.000220,-0.009945, 0.034836,-0.073930, 0.052516,1,-0.096254, 0.005085,-0.001630,1,-0.388467, 0.124791, 9.798159,1,0
1778257391973,  2328.087,  2328.087, 0.042749,-0.019412,-0.996710, 0.000427,-0.000199,-0.009965, 0.027685,-0.091161, 0.023940,1,-0.110056, 0.006452,-0.000364,1,-0.391745, 0.095773, 9.798354,1,0
1778257391995,  2328.112,  2328.107, 0.043277,-0.016253,-0.992442, 0.000435,-0.000167,-0.009931, 0.028194,-0.082086, 0.055981,1,-0.122039, 0.006666,-0.000316,1,-0.393027, 0.072592, 9.798502,1,0
1778257392018,  2328.132,  2328.132, 0.043215,-0.022905,-0.971408, 0.000433,-0.000221,-0.009795, 0.028702,-0.187722, 0.272356,1,-0.144770, 0.006421, 0.000828,1,-0.395297, 0.032387, 9.798626,1,0
1778257392044,  2328.157,  2328.157, 0.057862,-0.012110,-1.031804, 0.000446,-0.000163,-0.010179, 0.171283,-0.110631,-0.319902,1,-0.152736,-0.001083,-0.005180,1,-0.396111, 0.003359, 9.798646,1,0
1778257392065,  2328.182,  2328.177, 0.054567,-0.016233,-0.981918, 0.000615,-0.000210,-0.009891, 0.294893, 0.136859,-0.046319,1,-0.167829, 0.002141,-0.005033,1,-0.396879,-0.029228, 9.798573,1,0
1778257392088,  2328.202,  2328.202, 0.062909,-0.033100,-0.967810, 0.000615,-0.000333,-0.009587, 0.217033,-0.401881, 0.307208,1,-0.198394, 0.013353,-0.008352,1,-0.400313,-0.083480, 9.798120,1,0
1778257392114,  2328.227,  2328.227, 0.115277,-0.020462,-1.020010, 0.001144,-0.000241,-0.010181, 0.731185,-0.311627,-0.204995,1,-0.156894,-0.016462,-0.032716,1,-0.398774,-0.115895, 9.797853,1,0
1778257392135,  2328.252,  2328.247, 0.122878, 0.056474,-0.958906, 0.001218, 0.000588,-0.009651, 0.819500, 0.347454,-0.184769,1,-0.169989, 0.004291,-0.030457,1,-0.397086,-0.149870, 9.797462,1,0
1778257392158,  2328.272,  2328.272, 0.088874,-0.001610,-0.942223, 0.000931, 0.000018,-0.009366, 0.468357,-0.209728, 0.556387,1,-0.169954, 0.017633,-0.008153,1,-0.403751,-0.199201, 9.796309,1,0
1778257392184,  2328.297,  2328.297, 0.067473,-0.000961,-1.040310, 0.000666,-0.000061,-0.010371, 0.254997,-0.236227,-0.406367,1,-0.165499, 0.021247,-0.028218,1,-0.407328,-0.232000, 9.795440,1,0
1778257392205,  2328.322,  2328.317, 0.086701, 0.049565,-1.007161, 0.000865, 0.000504,-0.010105, 0.420819, 0.205478,-0.333016,1,-0.161907, 0.004546,-0.025597,1,-0.409615,-0.263995, 9.794535,1,0
1778257392228,  2328.342,  2328.342, 0.105418, 0.022913,-0.967101, 0.001025, 0.000228,-0.009684, 0.625927,-0.078345, 0.309459,1,-0.134429,-0.005678,-0.024301,1,-0.407670,-0.307264, 9.793354,1,0
1778257392254,  2328.367,  2328.367, 0.135495, 0.033666,-0.984312, 0.001340, 0.000303,-0.009822, 0.922269, 0.002675, 0.139944,1,-0.114631,-0.006550,-0.036064,1,-0.406241,-0.331092, 9.792637,1,0
1778257392275,  2328.392,  2328.387, 0.153717, 0.030951,-1.003065, 0.001546, 0.000321,-0.010057, 1.102047, 0.057625,-0.134794,1,-0.099694, 0.003230,-0.031596,1,-0.405981,-0.351622, 9.791932,1,0
1778257392298,  2328.412,  2328.412, 0.144858, 0.023630,-0.974530, 0.001452, 0.000227,-0.009748, 1.012463,-0.142250, 0.234137,1,-0.073258, 0.012632,-0.040780,1,-0.408451,-0.376322, 9.790911,1,0
1778257392324,  2328.437,  2328.437, 0.131431, 0.037616,-0.980916, 0.001317, 0.000367,-0.009783, 0.878140,-0.018854, 0.170867,1,-0.066133, 0.017798,-0.044039,1,-0.411262,-0.389859, 9.790263,1,0
1778257392345,  2328.462,  2328.457, 0.106215, 0.033180,-1.015368, 0.001072, 0.000333,-0.010151, 0.727666,-0.040878,-0.137577,1,-0.060756, 0.019435,-0.040184,1,-0.414757,-0.402687, 9.789597,1,0
1778257392368,  2328.487,  2328.482, 0.098264, 0.039345,-0.990053, 0.000980, 0.000386,-0.009910, 0.545646,-0.032004, 0.079721,1,-0.045419, 0.009315,-0.049433,1,-0.418223,-0.419329, 9.788751,1,0
1778257392394,  2328.507,  2328.507, 0.097377, 0.042421,-0.980320, 0.000970, 0.000421,-0.009791, 0.536183,-0.011086, 0.174737,1,-0.043649, 0.004069,-0.051303,1,-0.418815,-0.428519, 9.788327,1,0
1778257392416,  2328.532,  2328.527, 0.113970, 0.039137,-1.012958, 0.001135, 0.000380,-0.010123, 0.630984,-0.085908,-0.030106,1,-0.038151, 0.002139,-0.054137,1,-0.418920,-0.436849, 9.787954,1,0
1778257392438,  2328.557,  2328.552, 0.115899, 0.043817,-1.009588, 0.001161, 0.000441,-0.010095, 0.718193,-0.016117,-0.113107,1,-0.025486,-0.000178,-0.060015,1,-0.418294,-0.446688, 9.787538,1,0
1778257392464,  2328.577,  2328.577, 0.112506, 0.039297,-0.977343, 0.001134, 0.000384,-0.009814, 0.685411,-0.064700, 0.202934,1,-0.012883, 0.001017,-0.061497,1,-0.417835,-0.450554, 9.787379,1,0
1778257392486,  2328.602,  2328.597, 0.109431, 0.037654,-0.990296, 0.001096, 0.000384,-0.009872, 0.675209,-0.104355, 0.148753,1,-0.003039, 0.001912,-0.063028,1,-0.417616,-0.452154, 9.787315,1,0
1778257392508,  2328.627,  2328.622, 0.108005, 0.022234,-1.020164, 0.001067, 0.000236,-0.010189, 0.641113,-0.234277,-0.217108,1, 0.006662, 0.007403,-0.070645,1,-0.418182,-0.452202, 9.787289,1,0
1778257392534,  2328.647,  2328.647, 0.114221, 0.023562,-1.008591, 0.001141, 0.000229,-0.010115, 0.701090,-0.220003,-0.103594,1, 0.012801, 0.007496,-0.078776,1,-0.419156,-0.450773, 9.787313,1,0
1778257392556,  2328.672,  2328.667, 0.129583, 0.043261,-0.957496, 0.001308, 0.000352,-0.009659, 0.805395,-0.206628, 0.442591,1, 0.027506, 0.010504,-0.078771,1,-0.419733,-0.444628, 9.787569,1,0
1778257392579,  2328.697,  2328.692, 0.135552, 0.060676,-1.016349, 0.001342, 0.000635,-0.010114, 0.906071, 0.155386,-0.179333,1, 0.019307, 0.020242,-0.082429,1,-0.423756,-0.439154, 9.787643,1,0
1778257392604,  2328.717,  2328.717, 0.126419, 0.038679,-1.023318, 0.001269, 0.000419,-0.010240, 0.813146,-0.056680,-0.247661,1, 0.026061, 0.022303,-0.091447,1,-0.427173,-0.435299, 9.787667,1,0
1778257392626,  2328.742,  2328.737, 0.131248, 0.013094,-0.956333, 0.001283, 0.000137,-0.009572, 0.776211,-0.189489,-0.029532,1, 0.029243, 0.023512,-0.093085,1,-0.428984,-0.432984, 9.787690,1,0
1778257392649,  2328.767,  2328.762, 0.130318, 0.027351,-0.964894, 0.001323, 0.000274,-0.009579, 0.840587,-0.155320, 0.325352,1, 0.029017, 0.037564,-0.081021,1,-0.438456,-0.422746, 9.787718,1,0
1778257392674,  2328.787,  2328.787, 0.096822, 0.032735,-1.080355, 0.001009, 0.000303,-0.010778, 0.507266,-0.097339,-0.806929,1, 0.033830, 0.013881,-0.095154,1,-0.442539,-0.417436, 9.787763,1,0
1778257392696,  2328.812,  2328.807, 0.071914, 0.047388,-0.917530, 0.000715, 0.000509,-0.009281, 0.240209, 0.169021,-0.068065,1, 0.049577, 0.010460,-0.097390,1,-0.443361,-0.409768, 9.788049,1,0
1778257392723,  2328.837,  2328.837, 0.059733, 0.034115,-0.970784, 0.000629, 0.000362,-0.009573, 0.141153,-0.064856, 0.268281,1, 0.041997,-0.007218,-0.086664,1,-0.444293,-0.398228, 9.788483,1,0
1778257392744,  2328.857,  2328.857, 0.082453, 0.047955,-1.030943, 0.000789, 0.000461,-0.010369, 0.364963, 0.078315,-0.321330,1, 0.041874, 0.009014,-0.094170,1,-0.443788,-0.390789, 9.788806,1,0
1778257392766,  2328.882,  2328.877, 0.106662, 0.033382,-0.919075, 0.001083, 0.000329,-0.009195, 0.701103, 0.018662, 0.588617,1, 0.058146,-0.002451,-0.092289,1,-0.444077,-0.380623, 9.789193,1,0
1778257392793,  2328.907,  2328.907, 0.115052, 0.026388,-0.907201, 0.001108, 0.000254,-0.009079, 0.685716,-0.103393, 0.893363,1, 0.085820, 0.010325,-0.090124,1,-0.442773,-0.359626, 9.790047,1,0
1778257392815,  2328.932,  2328.927, 0.115963, 0.041815,-0.946084, 0.001185, 0.000430,-0.009425, 0.834331, 0.017276, 0.642822,1, 0.094417,-0.007636,-0.094987,1,-0.442574,-0.342383, 9.790673,1,0
1778257392836,  2328.952,  2328.947, 0.096666, 0.040082,-0.921807, 0.001007, 0.000389,-0.009293, 0.546062, 0.085111, 0.574029,1, 0.103750,-0.027509,-0.095768,1,-0.437397,-0.323520, 9.791548,1,0
1778257392863,  2328.977,  2328.977, 0.074478, 0.038026,-0.890056, 0.000768, 0.000391,-0.008902, 0.309868, 0.076682, 1.064681,1, 0.105377,-0.093321,-0.092734,1,-0.417516,-0.293063, 9.793374,1,0
1778257392885,  2329.002,  2328.997, 0.087374,-0.008513,-1.202543, 0.000940,-0.000036,-0.011838, 0.453023,-0.067241,-1.109990,1, 0.088732,-0.085620,-0.089288,1,-0.398760,-0.275269, 9.794672,1,0
1778257392906,  2329.022,  2329.017, 0.171980,-0.018750,-1.278756, 0.001435,-0.000349,-0.013159, 0.275163,-0.500595,-2.993470,1, 0.091987,-0.047884,-0.090264,1,-0.386200,-0.258374, 9.795635,1,0
1778257392933,  2329.047,  2329.047, 0.114792, 0.017354,-0.868020, 0.001243, 0.000295,-0.008474, 0.742492,-0.057104, 1.284156,1, 0.143177, 0.000239,-0.107752,1,-0.383160,-0.222959, 9.796625,1,0
1778257392955,  2329.072,  2329.067,-0.005693, 0.084824,-0.884356,-0.000181, 0.000985,-0.008456,-0.821111, 0.241761, 1.181846,1, 0.150486, 0.041585,-0.096973,1,-0.386736,-0.192959, 9.797121,1,0
1778257392976,  2329.092,  2329.087,-0.023630, 0.023875,-1.185313,-0.000244, 0.000295,-0.011649,-0.321059, 0.384006, 0.086619,1, 0.117951, 0.031234,-0.085792,1,-0.394441,-0.168646, 9.797263,1,0
1778257393003,  2329.117,  2329.117,-0.046024,-0.005146,-1.234170,-0.000485,-0.000042,-0.012515,-0.848035,-0.187278,-2.305409,1, 0.145179, 0.007647,-0.105447,1,-0.396885,-0.132423, 9.797721,1,0
1778257393025,  2329.142,  2329.137,-0.076428, 0.039042,-0.813341,-0.000820, 0.000403,-0.008102,-1.273744, 0.312380, 1.710888,1, 0.147746,-0.025617,-0.087328,1,-0.393261,-0.103254, 9.798218,1,0
1778257393046,  2329.162,  2329.157,-0.000487, 0.012796,-0.973242,-0.000082, 0.000172,-0.009634,-0.852534, 0.192216, 1.101080,1, 0.117694,-0.012848,-0.060954,1,-0.389363,-0.079200, 9.798597,1,0
1778257393073,  2329.187,  2329.187, 0.054354, 0.013206,-1.022192, 0.000538, 0.000122,-0.010290, 0.144285, 0.074964,-0.225489,1, 0.097474, 0.003125,-0.072910,1,-0.388831,-0.051591, 9.798802,1,0
1778257393095,  2329.212,  2329.207, 0.099078, 0.023293,-0.904431, 0.000995, 0.000235,-0.009143, 0.492312, 0.118513, 0.394843,1, 0.100547, 0.013347,-0.062783,1,-0.390741,-0.032954, 9.798807,1,0
1778257393116,  2329.232,  2329.227, 0.099896, 0.001955,-0.823991, 0.000989, 0.000017,-0.008203, 0.655957, 0.078145, 1.550191,1, 0.106558, 0.039817,-0.048669,1,-0.396794,-0.013234, 9.798611,1,0
1778257393143,  2329.257,  2329.257, 0.097623,-0.005270,-1.043857, 0.000962,-0.000079,-0.010272, 0.550074,-0.041778,-0.438552,1, 0.076126, 0.031836,-0.043508,1,-0.408278, 0.012219, 9.798140,1,0
1778257393165,  2329.282,  2329.277, 0.063837,-0.014441,-1.054197, 0.000686,-0.000149,-0.010705, 0.480601,-0.061030,-1.326065,1, 0.070945, 0.025295,-0.042994,1,-0.413679, 0.024835, 9.797890,1,0
1778257393187,  2329.302,  2329.297, 0.026726,-0.003633,-0.989373, 0.000254,-0.000067,-0.009862,-0.120948,-0.046086, 0.022318,1, 0.062608,-0.007882,-0.036881,1,-0.414171, 0.037509, 9.797829,1,0
1778257393213,  2329.327,  2329.327, 0.036631,-0.027746,-1.021759, 0.000326,-0.000257,-0.010197,-0.053016,-0.224290,-0.222170,1, 0.033517, 0.002038,-0.036255,1,-0.412313, 0.048807, 9.797857,1,0
1778257393235,  2329.352,  2329.347, 0.039250,-0.013908,-0.998368, 0.000395,-0.000148,-0.009964, 0.048663,-0.227813,-0.109786,1, 0.035240,-0.026117,-0.053491,1,-0.409519, 0.055644, 9.797937,1,0
1778257393258,  2329.372,  2329.372, 0.054766,-0.012520,-0.946642, 0.000555,-0.000111,-0.009529, 0.135413,-0.059593, 0.514828,1, 0.026688,-0.023786,-0.042942,1,-0.400921, 0.063961, 9.798243,1,0
1778257393284,  2329.397,  2329.397, 0.026935,-0.039512,-0.985261, 0.000275,-0.000385,-0.009745,-0.132409,-0.320061, 0.136290,1, 0.019704,-0.029747,-0.051002,1,-0.395634, 0.067966, 9.798430,1,0
1778257393305,  2329.422,  2329.417, 0.007450,-0.024444,-1.030985, 0.000085,-0.000227,-0.010386,-0.318735,-0.124919,-0.547756,1, 0.020027,-0.014802,-0.059680,1,-0.391081, 0.071257, 9.798590,1,0
1778257393328,  2329.442,  2329.442,-0.022228,-0.048928,-0.982948,-0.000199,-0.000512,-0.009785,-0.607916,-0.404342, 0.159172,1, 0.014383,-0.014704,-0.070278,1,-0.389494, 0.075841, 9.798618,1,0
1778257393354,  2329.467,  2329.467,-0.041601,-0.013775,-0.997227,-0.000453,-0.000152,-0.009993,-0.792943,-0.057785, 0.019330,1, 0.006927,-0.017161,-0.070728,1,-0.383834, 0.077811, 9.798826,1,0
1778257393375,  2329.492,  2329.487,-0.034662,-0.022826,-0.951565,-0.000346,-0.000250,-0.009418,-0.708761,-0.138873, 0.673446,1,-0.002550,-0.005944,-0.074976,1,-0.383061, 0.077177, 9.798862,1,0
1778257393398,  2329.512,  2329.512,-0.010641,-0.017950,-1.099400,-0.000119,-0.000199,-0.010949,-0.483603,-0.103611,-0.982384,1,-0.021305,-0.017077,-0.070817,1,-0.378730, 0.071667, 9.799072,1,0
1778257393424,  2329.537,  2329.537, 0.011209, 0.006076,-1.022537, 0.000082, 0.000101,-0.010329,-0.267621, 0.128498,-0.228521,1,-0.004724,-0.000186,-0.070636,1,-0.377555, 0.068679, 9.799139,1,0
1778257393445,  2329.562,  2329.557, 0.009036,-0.018041,-0.995292, 0.000095,-0.000214,-0.009890,-0.234592,-0.164335, 0.385019,1, 0.002481,-0.007958,-0.086781,1,-0.377146, 0.068110, 9.799158,1,0
1778257393468,  2329.582,  2329.582, 0.007787, 0.014695,-1.003199, 0.000075, 0.000135,-0.010108,-0.298233, 0.213613,-0.038778,1, 0.015104,-0.001329,-0.082576,1,-0.374576, 0.069873, 9.799245,1,0
1778257393494,  2329.607,  2329.607,-0.003964, 0.016478,-0.935470,-0.000027, 0.000167,-0.009326,-0.413061, 0.234432, 0.625415,1, 0.021615,-0.005210,-0.077789,1,-0.374046, 0.073424, 9.799239,1,0
1778257393515,  2329.632,  2329.627, 0.010211, 0.011857,-1.077751, 0.000089, 0.000133,-0.010769,-0.330688, 0.240472,-0.502821,1, 0.021910,-0.013877,-0.074986,1,-0.371845, 0.076965, 9.799295,1,0
1778257393538,  2329.652,  2329.652, 0.026516, 0.017049,-1.002998, 0.000270, 0.000192,-0.010089,-0.109324, 0.253679,-0.036742,1, 0.053346,-0.006888,-0.063805,1,-0.369159, 0.088074, 9.799303,1,0
1778257393564,  2329.677,  2329.677, 0.035827,-0.003903,-1.013274, 0.000337,-0.000024,-0.010049,-0.014979, 0.059041,-0.137499,1, 0.073300,-0.020921,-0.066458,1,-0.365679, 0.099465, 9.799325,1,0
1778257393585,  2329.702,  2329.697, 0.089953, 0.011791,-0.964634, 0.000902, 0.000128,-0.009735, 0.471477, 0.163581,-0.256005,1, 0.101114,-0.010954,-0.065752,1,-0.362388, 0.117040, 9.799253,1,0
1778257393608,  2329.727,  2329.722, 0.083932, 0.002766,-0.967456, 0.000839, 0.000038,-0.009578, 0.463203, 0.174165, 0.311439,1, 0.119755,-0.014999,-0.054864,1,-0.359448, 0.150713, 9.798902,1,0
1778257393634,  2329.747,  2329.747, 0.073026, 0.007133,-1.051760, 0.000731, 0.000095,-0.010491, 0.359565, 0.240540,-0.515564,1, 0.126067,-0.016202,-0.054053,1,-0.356101, 0.174461, 9.798630,1,0
1778257393656,  2329.772,  2329.767, 0.099652,-0.004962,-0.938054, 0.000958,-0.000026,-0.009355, 0.457638, 0.212761, 0.302591,1, 0.137042,-0.010188,-0.051159,1,-0.354084, 0.200309, 9.798208,1,0
1778257393678,  2329.797,  2329.792, 0.124309,-0.035255,-1.048903, 0.001222,-0.000336,-0.010336, 0.868154,-0.108539,-0.488725,1, 0.148809,-0.014071,-0.044842,1,-0.350500, 0.241782, 9.797401,1,0
1778257393704,  2329.817,  2329.817, 0.106031,-0.013583,-1.070247, 0.001102,-0.000141,-0.010831, 0.691238, 0.134358,-0.698739,1, 0.167222,-0.017568,-0.043005,1,-0.348059, 0.272730, 9.796676,1,0
1778257393726,  2329.842,  2329.837, 0.083711, 0.002432,-0.904968, 0.000833, 0.000053,-0.009140, 0.427731, 0.356651, 0.305211,1, 0.173231,-0.049433,-0.038399,1,-0.340621, 0.305996, 9.795955,1,0
1778257393748,  2329.867,  2329.862, 0.135864,-0.060963,-0.856508, 0.001317,-0.000581,-0.008488, 0.998492,-0.246632, 1.395192,1, 0.170434, 0.000019,-0.029858,1,-0.334061, 0.356002, 9.794491,1,0
1778257393774,  2329.887,  2329.887, 0.092319,-0.057827,-1.129764, 0.000927,-0.000643,-0.011137, 0.571791,-0.184041,-1.285716,1, 0.164729,-0.006624,-0.031867,1,-0.333378, 0.388149, 9.793293,1,0
1778257393796,  2329.912,  2329.907, 0.033292,-0.016863,-0.981149, 0.000350,-0.000122,-0.009949, 0.235235, 0.303765,-1.102951,1, 0.171986, 0.007916,-0.023562,1,-0.334759, 0.420848, 9.791895,1,0
1778257393819,  2329.937,  2329.932,-0.000047,-0.035608,-0.875335, 0.000006,-0.000316,-0.008750,-0.328561, 0.116053, 1.206005,1, 0.157377,-0.039215,-0.021472,1,-0.326907, 0.470126, 9.789918,1,0
1778257393844,  2329.957,  2329.957, 0.006220,-0.065340,-0.896320, 0.000053,-0.000592,-0.008887, 0.016508,-0.326829, 0.481565,1, 0.125767,-0.012298,-0.018118,1,-0.323566, 0.496845, 9.788710,1,0
1778257393866,  2329.982,  2329.977,-0.002453,-0.073769,-1.076190,-0.000014,-0.000801,-0.010807,-0.334930,-0.405275,-0.555558,1, 0.113482,-0.015530,-0.015696,1,-0.320373, 0.519073, 9.787661,1,0
1778257393889,  2330.007,  2330.002, 0.009201,-0.022897,-0.955912, 0.000116,-0.000210,-0.009625,-0.231115, 0.321839, 0.411851,1, 0.102492, 0.002776,-0.012701,1,-0.321456, 0.549558, 9.785961,1,0
1778257393914,  2330.027,  2330.027,-0.012211,-0.048388,-0.892925,-0.000153,-0.000451,-0.008903,-0.440288, 0.091498, 1.028452,1, 0.096247,-0.003029,-0.016027,1,-0.320475, 0.569004, 9.784882,1,0
1778257393936,  2330.052,  2330.047,-0.026409,-0.076216,-0.974658,-0.000253,-0.000755,-0.009726,-0.487482,-0.120366, 0.396292,1, 0.083894, 0.022299,-0.022898,1,-0.323416, 0.586420, 9.783757,1,0
1778257393963,  2330.077,  2330.077,-0.052067,-0.070283,-1.056505,-0.000491,-0.000735,-0.010498,-0.842588,-0.081238,-0.578622,1, 0.069574, 0.036984,-0.018801,1,-0.333124, 0.610220, 9.781976,1,0
1778257393984,  2330.097,  2330.097,-0.097640,-0.044259,-1.087772,-0.000942,-0.000449,-0.010922,-1.295290, 0.186716,-0.886245,1, 0.064907, 0.020932,-0.019518,1,-0.338458, 0.622744, 9.781003,1,0
1778257394006,  2330.122,  2330.117,-0.036886,-0.064223,-0.925656,-0.000374,-0.000616,-0.009334,-0.895553, 0.175563, 0.079801,1, 0.058166, 0.020776,-0.007390,1,-0.342794, 0.634406, 9.780103,1,0
1778257394033,  2330.147,  2330.147,-0.007114,-0.069759,-0.961452,-0.000102,-0.000694,-0.009500,-0.416508,-0.037078, 0.350517,1, 0.034900, 0.012670, 0.005356,1,-0.347125, 0.648112, 9.779051,1,0
1778257394055,  2330.172,  2330.167, 0.002532,-0.046286,-1.016338,-0.000006,-0.000471,-0.010179,-0.391898, 0.139369,-0.298475,1, 0.020005, 0.012285, 0.022524,1,-0.349093, 0.652624, 9.778681,1,0
1778257394076,  2330.192,  2330.187, 0.027344,-0.038022,-1.009468, 0.000278,-0.000377,-0.010081,-0.217231, 0.188440, 0.040955,1, 0.023796, 0.004541, 0.014006,1,-0.350586, 0.657288, 9.778316,1,0
1778257394103,  2330.217,  2330.217, 0.055356,-0.043410,-1.045608, 0.000543,-0.000406,-0.010482, 0.194288, 0.237431,-0.475923,1, 0.025217,-0.009147, 0.014788,1,-0.348256, 0.663941, 9.777949,1,0
1778257394125,  2330.242,  2330.237, 0.085899,-0.067071,-0.963939, 0.000856,-0.000731,-0.009646, 0.419021,-0.223534, 0.188556,1, 0.034867, 0.005370, 0.025199,1,-0.347761, 0.670037, 9.777551,1,0
1778257394146,  2330.262,  2330.257, 0.109375,-0.033484,-0.995571, 0.001058,-0.000317,-0.009889, 0.639880, 0.270448, 0.196118,1, 0.027550, 0.013495, 0.026766,1,-0.349424, 0.676375, 9.777055,1,0
1778257394173,  2330.287,  2330.287, 0.099463,-0.072642,-1.012990, 0.000997,-0.000685,-0.010140, 0.624009,-0.031844,-0.157347,1, 0.009531, 0.008177, 0.045649,1,-0.351544, 0.680873, 9.776667,1,0
1778257394195,  2330.312,  2330.307, 0.066385,-0.093057,-0.968514, 0.000686,-0.000980,-0.009658, 0.438441,-0.385824, 0.427725,1,-0.013888, 0.011525, 0.051326,1,-0.353269, 0.680212, 9.776650,1,0
1778257394216,  2330.332,  2330.327, 0.046358,-0.066749,-1.049642, 0.000453,-0.000632,-0.010471, 0.215955,-0.064001,-0.383439,1,-0.065972, 0.005517, 0.056434,1,-0.353985, 0.671141, 9.777251,1,0
1778257394243,  2330.357,  2330.357, 0.057993,-0.065777,-0.975280, 0.000589,-0.000663,-0.009845, 0.211929, 0.002702, 0.214494,1,-0.110793, 0.019751, 0.064012,1,-0.357267, 0.644375, 9.778933,1,0
1778257394265,  2330.382,  2330.377, 0.072898,-0.054762,-1.041203, 0.000723,-0.000513,-0.010442, 0.333020, 0.064110,-0.335969,1,-0.157836, 0.014960, 0.076438,1,-0.359432, 0.617334, 9.780598,1,0
1778257394286,  2330.402,  2330.397, 0.072889,-0.082568,-0.902922, 0.000726,-0.000814,-0.009060, 0.365860,-0.003506, 0.221390,1,-0.176436, 0.028898, 0.104467,1,-0.362713, 0.584297, 9.782506,1,0
1778257394313,  2330.427,  2330.427, 0.017236,-0.057588,-1.010946, 0.000225,-0.000619,-0.009938,-0.197995,-0.030262,-0.128807,1,-0.209979, 0.011354, 0.082355,1,-0.367231, 0.528043, 9.785535,1,0
1778257394335,  2330.452,  2330.447,-0.007480,-0.069698,-0.998512,-0.000067,-0.000751,-0.010120,-0.435073,-0.184002,-0.616169,1,-0.208392, 0.023181, 0.087755,1,-0.370185, 0.487651, 9.787519,1,0
1778257394356,  2330.472,  2330.467, 0.006908,-0.007310,-0.968078, 0.000056,-0.000117,-0.009561,-0.393515, 0.058186, 0.421525,1,-0.192110, 0.009937, 0.079838,1,-0.373341, 0.451668, 9.789126,1,0
1778257394383,  2330.497,  2330.497, 0.045456,-0.018634,-1.001096, 0.000410,-0.000165,-0.010137, 0.072671, 0.218371,-0.026059,1,-0.186174, 0.012356, 0.087879,1,-0.373368, 0.395412, 9.791559,1,0
1778257394405,  2330.522,  2330.517, 0.051518,-0.020481,-0.963848, 0.000550,-0.000226,-0.009492, 0.349927,-0.073456, 0.783574,1,-0.148568, 0.010742, 0.073019,1,-0.375841, 0.364987, 9.792645,1,0
1778257394427,  2330.542,  2330.537, 0.002929,-0.014091,-1.064382, 0.000021,-0.000114,-0.010649,-0.196405, 0.275667,-0.356670,1,-0.123884,-0.004997, 0.077805,1,-0.374771, 0.339568, 9.793601,1,0
1778257394454,  2330.567,  2330.567,-0.028709,-0.018272,-0.982666,-0.000267,-0.000224,-0.009851,-0.656697, 0.138308, 0.157663,1,-0.057216,-0.002910, 0.059958,1,-0.375005, 0.315783, 9.794388,1,0
1778257394475,  2330.592,  2330.587, 0.026583, 0.019631,-1.030953, 0.000177, 0.000260,-0.010369,-0.553202, 0.560475,-0.437614,1,-0.036671,-0.020667, 0.047073,1,-0.371249, 0.308358, 9.794767,1,0
1778257394498,  2330.612,  2330.612, 0.091012,-0.036852,-0.845594, 0.000912,-0.000372,-0.008527, 0.521186,-0.054202, 1.502360,1, 0.018078, 0.011594, 0.057448,1,-0.371638, 0.307823, 9.794769,1,0
1778257394524,  2330.637,  2330.637, 0.107162,-0.001786,-0.926282, 0.001059,-0.000053,-0.009139, 0.677720, 0.294679, 0.710849,1, 0.025893, 0.013678, 0.055997,1,-0.373549, 0.313064, 9.794531,1,0
1778257394545,  2330.662,  2330.657, 0.119200,-0.057711,-1.028258, 0.001214,-0.000497,-0.010229, 0.795526, 0.102860,-0.287885,1, 0.031119, 0.038966, 0.053964,1,-0.379307, 0.318828, 9.794124,1,0
1778257394568,  2330.682,  2330.682, 0.093569,-0.056836,-1.032632, 0.000925,-0.000580,-0.010292, 0.525647,-0.229170,-0.333349,1, 0.037542, 0.039574, 0.043271,1,-0.393149, 0.329420, 9.793227,1,0
1778257394594,  2330.707,  2330.707, 0.138823,-0.001232,-0.968489, 0.001332,-0.000035,-0.009739, 0.959340, 0.323154, 0.295032,1, 0.024935, 0.066150, 0.046389,1,-0.404065, 0.336075, 9.792557,1,0
1778257394615,  2330.732,  2330.727, 0.126830,-0.065941,-1.046736, 0.001336,-0.000590,-0.010418, 1.280694,-0.218147, 0.359891,1, 0.003240, 0.057746, 0.056325,1,-0.415938, 0.338619, 9.791972,1,0
1778257394638,  2330.752,  2330.752, 0.116352,-0.070654,-1.012870, 0.001122,-0.000690,-0.010211, 0.715979,-0.357621,-0.141162,1,-0.026920, 0.055020, 0.052661,1,-0.426703, 0.334488, 9.791651,1,0
1778257394664,  2330.777,  2330.777, 0.050332,-0.077097,-1.036844, 0.000601,-0.000818,-0.010317, 0.062960,-0.428854,-0.376248,1,-0.053913, 0.004136, 0.052674,1,-0.430706, 0.325604, 9.791775,1,0
1778257394685,  2330.802,  2330.797, 0.080608,-0.034406,-0.995469, 0.000903,-0.000329,-0.010089, 0.327112,-0.057227,-0.420920,1,-0.069385, 0.041996, 0.054830,1,-0.435645, 0.313651, 9.791946,1,0
1778257394708,  2330.822,  2330.822, 0.042236,-0.030724,-0.964423, 0.000398,-0.000308,-0.009637,-0.024130,-0.011543, 0.334800,1,-0.101456,-0.003145, 0.042553,1,-0.438184, 0.286651, 9.792661,1,0
1778257394734,  2330.847,  2330.847, 0.025942,-0.054905,-0.958070, 0.000353,-0.000501,-0.009665,-0.181548,-0.270979, 0.397849,1,-0.119003,-0.027641, 0.039650,1,-0.435062, 0.263802, 9.793443,1,0
1778257394755,  2330.872,  2330.867, 0.038490,-0.077839,-1.037822, 0.000397,-0.000739,-0.010372,-0.085148,-0.642102,-0.548349,1,-0.146807,-0.037659, 0.047977,1,-0.428296, 0.237713, 9.794409,1,0
1778257394778,  2330.892,  2330.892, 0.068194,-0.017359,-0.969075, 0.000648,-0.000271,-0.009747, 0.251501, 0.027068, 0.292400,1,-0.165898,-0.032502, 0.036261,1,-0.416213, 0.192181, 9.795929,1,0
1778257394804,  2330.917,  2330.917, 0.089374, 0.008397,-0.951068, 0.000839, 0.000133,-0.009430, 0.467573, 0.245948, 0.469964,1,-0.178994,-0.048903, 0.035692,1,-0.407340, 0.158061, 9.796911,1,0
1778257394826,  2330.942,  2330.937, 0.061278,-0.045046,-1.047802, 0.000647,-0.000492,-0.010184, 0.428790,-0.127426, 1.104366,1,-0.183582,-0.050809, 0.039475,1,-0.397757, 0.123192, 9.797806,1,0
1778257394848,  2330.967,  2330.962, 0.019002,-0.018458,-1.187370, 0.000235,-0.000193,-0.011887,-0.204477,-0.108880,-1.845529,1,-0.189833,-0.003547, 0.030300,1,-0.390710, 0.066251, 9.798639,1,0
1778257394874,  2330.987,  2330.987, 0.034420, 0.009089,-1.128086, 0.000269, 0.000084,-0.011247,-0.055708, 0.125785,-1.264051,1,-0.175867, 0.021570, 0.028693,1,-0.393921, 0.031207, 9.798685,1,0
1778257394896,  2331.012,  2331.007, 0.053836, 0.019627,-0.822676, 0.000523, 0.000167,-0.008227, 0.049724, 0.070774, 1.184054,1,-0.125078, 0.033319, 0.020221,1,-0.398606, 0.004505, 9.798545,1,0
1778257394918,  2331.037,  2331.032, 0.070749, 0.007341,-0.931756, 0.000740, 0.000083,-0.009215, 0.280273, 0.050013, 0.660493,1,-0.084635, 0.062677, 0.010759,1,-0.415493,-0.024601, 9.797813,1,0
1778257394944,  2331.057,  2331.057, 0.024955, 0.023930,-1.046003, 0.000271, 0.000210,-0.010426,-0.180322, 0.199313,-0.460412,1,-0.051294, 0.057735, 0.002635,1,-0.426848,-0.036957, 9.797286,1,0
1778257394966,  2331.082,  2331.077,-0.023486, 0.000976,-0.961218,-0.000192, 0.000053,-0.009723,-0.309740,-0.006994,-0.452066,1,-0.021629, 0.029323,-0.006308,1,-0.436571,-0.042423, 9.796836,1,0
1778257394988,  2331.107,  2331.102,-0.023867, 0.003635,-0.908054,-0.000268, 0.000036,-0.009014,-0.668585,-0.004789, 0.891962,1, 0.010962,-0.012950,-0.021680,1,-0.434121,-0.040120, 9.796954,1,0
1778257395014,  2331.127,  2331.127, 0.034804, 0.007645,-0.977383, 0.000326, 0.000078,-0.009773,-0.090529, 0.036856, 0.212211,1, 0.016322,-0.016231,-0.025034,1,-0.431329,-0.037639, 9.797088,1,0
1778257395036,  2331.152,  2331.147, 0.079022, 0.021488,-1.068220, 0.000808, 0.000214,-0.010681, 0.268615, 0.057713,-0.557826,1, 0.034123,-0.014526,-0.027671,1,-0.428365,-0.032679, 9.797235,1,0
1778257395059,  2331.177,  2331.172, 0.086012,-0.008199,-1.005657, 0.000856,-0.000064,-0.010153, 0.418951,-0.100102,-0.064689,1, 0.072944,-0.008256,-0.026491,1,-0.424284,-0.017458, 9.797452,1,0
1778257395084,  2331.197,  2331.197, 0.088834, 0.009465,-0.879430, 0.000899, 0.000056,-0.008845, 0.447890, 0.089680, 1.173251,1, 0.094738,-0.007964,-0.037597,1,-0.423021,-0.000233, 9.797522,1,0
1778257395106,  2331.222,  2331.217, 0.083077, 0.012639,-1.025341, 0.000845, 0.000147,-0.010175, 0.424976, 0.223364, 0.235645,1, 0.085071, 0.001840,-0.028322,1,-0.422356, 0.017145, 9.797536,1,0
1778257395129,  2331.247,  2331.242, 0.068240, 0.001280,-1.057711, 0.000711, 0.000003,-0.010628, 0.245178, 0.052602,-0.575208,1, 0.092910, 0.004112,-0.024907,1,-0.424163, 0.042917, 9.797379,1,0
1778257395154,  2331.267,  2331.267, 0.064803,-0.013146,-0.992871, 0.000621,-0.000147,-0.010011, 0.208311,-0.070404, 0.060423,1, 0.105527, 0.020288,-0.024540,1,-0.429011, 0.060533, 9.797074,1,0
1778257395176,  2331.292,  2331.287, 0.111899, 0.011005,-0.889787, 0.001070, 0.000106,-0.008880, 0.435292, 0.120317, 1.188027,1, 0.118088, 0.020349,-0.025481,1,-0.433266, 0.083062, 9.796722,1,0
1778257395203,  2331.317,  2331.317, 0.126961, 0.000379,-1.002401, 0.001262, 0.000038,-0.009916, 0.804865, 0.117024,-0.034086,1, 0.112957, 0.038006,-0.025578,1,-0.441395, 0.116792, 9.796015,1,0
1778257395224,  2331.337,  2331.337, 0.101477,-0.017193,-1.037559, 0.001044,-0.000175,-0.010415, 0.546017,-0.033242,-0.379555,1, 0.116433, 0.048373,-0.030141,1,-0.450651, 0.138950, 9.795304,1,0
1778257395246,  2331.362,  2331.357, 0.046988,-0.026378,-1.004799, 0.000464,-0.000226,-0.010079, 0.115543,-0.071141,-0.398198,1, 0.118891, 0.048268,-0.028467,1,-0.459758, 0.161921, 9.794529,1,0
1778257395273,  2331.387,  2331.387,-0.015957,-0.008873,-0.943092,-0.000092,-0.000095,-0.009432,-0.627992, 0.107950, 0.544791,1, 0.124813, 0.028650,-0.031261,1,-0.472424, 0.198809, 9.793246,1,0
1778257395295,  2331.412,  2331.407,-0.038618,-0.038830,-1.067503,-0.000387,-0.000356,-0.010680,-0.839093, 0.033434,-0.393447,1, 0.109013, 0.005617,-0.031381,1,-0.474829, 0.220834, 9.792658,1,0
1778257395316,  2331.432,  2331.427,-0.042030,-0.054632,-1.045224,-0.000378,-0.000550,-0.010421,-0.824717,-0.240994,-0.456917,1, 0.101509, 0.021465,-0.029981,1,-0.477884, 0.240747, 9.792040,1,0
1778257395343,  2331.457,  2331.457,-0.034460,-0.019229,-1.036935,-0.000406,-0.000209,-0.010365,-0.817075, 0.073871,-0.377439,1, 0.076468,-0.000400,-0.020859,1,-0.479140, 0.264798, 9.791358,1,0
1778257395365,  2331.482,  2331.477,-0.017830,-0.039639,-0.915084,-0.000198,-0.000365,-0.008990,-0.575009, 0.075898, 1.074685,1, 0.059298, 0.013661,-0.003739,1,-0.480437, 0.278062, 9.790927,1,0
1778257395386,  2331.502,  2331.497,-0.050197,-0.049352,-1.091584,-0.000522,-0.000504,-0.010884,-0.922055,-0.205886,-0.088140,1, 0.030957,-0.021064,-0.005688,1,-0.478290, 0.285529, 9.790817,1,0
1778257395413,  2331.527,  2331.527,-0.048094,-0.047825,-1.000432,-0.000468,-0.000463,-0.010079,-0.949654,-0.180741,-0.020131,1,-0.004985, 0.003155,-0.004267,1,-0.478114, 0.288096, 9.790751,1,0
1778257395435,  2331.552,  2331.547, 0.003580,-0.022023,-1.015031,-0.000039,-0.000219,-0.010206,-0.766672,-0.094856,-0.366207,1,-0.025679,-0.012753,-0.007820,1,-0.475105, 0.283793, 9.791022,1,0
1778257395456,  2331.572,  2331.567, 0.012980,-0.034281,-0.908977, 0.000118,-0.000370,-0.009082,-0.351163, 0.026916, 0.622498,1,-0.033454, 0.014821,-0.007461,1,-0.477184, 0.277649, 9.791098,1,0
1778257395483,  2331.597,  2331.597,-0.009503,-0.044275,-1.022282,-0.000083,-0.000427,-0.010116,-0.468590,-0.095355, 0.383823,1,-0.049358,-0.020210,-0.002894,1,-0.475986, 0.269313, 9.791389,1,0
1778257395505,  2331.622,  2331.617,-0.017740,-0.023561,-0.983539,-0.000164,-0.000269,-0.009835,-0.609403,-0.122167,-0.060574,1,-0.055897,-0.000770,-0.009171,1,-0.473727, 0.253064, 9.791932,1,0
1778257395526,  2331.642,  2331.637, 0.006315,-0.025989,-1.038351, 0.000024,-0.000252,-0.010290,-0.503275, 0.036770,-0.084872,1,-0.068116,-0.036658,-0.006029,1,-0.468926, 0.240530, 9.792479,1,0
1778257395553,  2331.667,  2331.667, 0.049520,-0.030469,-0.985492, 0.000508,-0.000309,-0.009979, 0.020590,-0.073315, 0.128642,1,-0.048155,-0.002865,-0.020271,1,-0.464799, 0.224794, 9.793049,1,0
1778257395575,  2331.692,  2331.687, 0.062819,-0.017723,-0.994955, 0.000643,-0.000179,-0.009961, 0.171590, 0.040579, 0.162725,1,-0.042898,-0.030735,-0.018855,1,-0.460581, 0.215896, 9.793448,1,0
1778257395596,  2331.712,  2331.707, 0.066678,-0.014246,-0.934058, 0.000679,-0.000148,-0.009354, 0.269866, 0.028388, 0.261597,1,-0.027037,-0.009604,-0.018666,1,-0.457090, 0.209704, 9.793747,1,0
1778257395623,  2331.737,  2331.737, 0.047444,-0.008422,-1.030224, 0.000500,-0.000077,-0.010283, 0.013841, 0.121530,-0.308917,1,-0.017731,-0.034904,-0.022317,1,-0.450350, 0.203538, 9.794189,1,0
1778257395645,  2331.762,  2331.757, 0.063356,-0.022330,-0.987305, 0.000604,-0.000186,-0.009864, 0.123944,-0.009414,-0.261419,1,-0.005379,-0.011079,-0.023228,1,-0.446907, 0.201640, 9.794386,1,0
1778257395667,  2331.782,  2331.777, 0.088509,-0.038774,-1.048577, 0.000871,-0.000420,-0.010464, 0.231105,-0.176984,-0.088715,1, 0.003685,-0.011097,-0.025481,1,-0.445096, 0.201608, 9.794469,1,0
1778257395694,  2331.807,  2331.807, 0.095012,-0.004584,-0.954304, 0.000950,-0.000060,-0.009663, 0.492893, 0.160014, 0.436159,1, 0.025102,-0.019022,-0.030085,1,-0.438279, 0.205710, 9.794691,1,0
1778257395715,  2331.832,  2331.827, 0.054294,-0.026706,-1.000034, 0.000590,-0.000288,-0.009871, 0.281558,-0.046047, 0.881374,1, 0.012490,-0.023618,-0.024417,1,-0.434870, 0.209139, 9.794770,1,0
1778257395738,  2331.852,  2331.852, 0.029761,-0.023654,-1.064550, 0.000313,-0.000238,-0.010770,-0.134523,-0.023824,-0.644506,1,-0.005556,-0.017117,-0.023254,1,-0.425857, 0.207940, 9.795192,1,0
1778257395764,  2331.877,  2331.877, 0.030924,-0.009175,-0.951063, 0.000260,-0.000062,-0.009464,-0.121594, 0.114999, 0.468557,1,-0.026599,-0.014673,-0.014082,1,-0.424442, 0.204129, 9.795334,1,0
1778257395785,  2331.902,  2331.897, 0.052311,-0.018375,-1.002072, 0.000512,-0.000196,-0.010061, 0.000456,-0.084274,-0.289864,1,-0.035110,-0.018176,-0.011115,1,-0.420343, 0.197218, 9.795652,1,0
1778257395808,  2331.922,  2331.922, 0.036423, 0.001010,-0.942245, 0.000367, 0.000008,-0.009366,-0.060154, 0.197863, 0.555690,1,-0.041877,-0.025875,-0.009419,1,-0.416542, 0.186639, 9.796021,1,0
1778257395834,  2331.947,  2331.947, 0.025320,-0.017839,-1.038595, 0.000236,-0.000158,-0.010314,-0.162398, 0.003221,-0.388710,1,-0.052984,-0.026626,-0.002517,1,-0.409870, 0.176507, 9.796491,1,0
1778257395855,  2331.972,  2331.967, 0.018335,-0.001613,-0.975491, 0.000241,-0.000024,-0.009712,-0.113962, 0.059839, 0.188458,1,-0.041728,-0.006127,-0.004744,1,-0.408386, 0.167528, 9.796711,1,0
1778257395878,  2331.992,  2331.992, 0.034325,-0.003705,-1.111236, 0.000310,-0.000070,-0.011130,-0.066204, 0.118364,-1.100352,1,-0.043478,-0.016096,-0.002254,1,-0.402316, 0.153338, 9.797194,1,0
1778257395904,  2332.017,  2332.017, 0.074884, 0.001537,-0.875947, 0.000727, 0.000026,-0.008946, 0.332480, 0.163429, 1.207184,1,-0.023566,-0.004168,-0.002061,1,-0.401757, 0.147617, 9.797305,1,0
1778257395925,  2332.042,  2332.037, 0.096361,-0.016066,-1.052290, 0.000950,-0.000167,-0.010339, 0.490416, 0.061179, 0.979921,1,-0.035926,-0.031857, 0.012426,1,-0.397036, 0.141244, 9.797591,1,0
1778257395948,  2332.062,  2332.062, 0.082703,-0.002652,-1.051244, 0.000835,-0.000023,-0.010586, 0.416926, 0.105357,-0.511337,1,-0.026429,-0.004217, 0.002775,1,-0.395206, 0.129576, 9.797827,1,0
1778257395974,  2332.087,  2332.087, 0.076442,-0.004273,-1.075722, 0.000737,-0.000073,-0.010657, 0.358049, 0.084460,-0.751221,1,-0.021217,-0.035722, 0.004350,1,-0.390481, 0.125702, 9.798066,1,0
1778257395995,  2332.112,  2332.107, 0.147886, 0.003046,-0.830537, 0.001503, 0.000056,-0.008448, 0.747566, 0.189831, 0.365047,1,-0.002324,-0.014395, 0.012148,1,-0.385204, 0.123752, 9.798300,1,0
1778257396018,  2332.132,  2332.132, 0.131716,-0.002903,-0.940557, 0.001315,-0.000010,-0.009134, 0.914842, 0.095050, 0.574918,1,-0.007111,-0.039947, 0.023734,1,-0.375591, 0.123326, 9.798678,1,0
1778257396044,  2332.157,  2332.157, 0.112850, 0.001399,-1.113108, 0.001171, 0.000010,-0.011192, 0.734142, 0.134884,-1.117041,1,-0.014298,-0.008284, 0.024710,1,-0.372271, 0.120746, 9.798838,1,0
1778257396066,  2332.182,  2332.177, 0.072108,-0.000996,-1.061495, 0.000762,-0.000047,-0.010707, 0.287175,-0.065749,-1.096002,1, 0.002745,-0.023024, 0.023388,1,-0.368770, 0.120567, 9.798972,1,0
1778257396088,  2332.207,  2332.202, 0.074540, 0.011489,-0.891464, 0.000828, 0.000116,-0.008987, 0.367039, 0.235593, 1.056844,1, 0.014373,-0.037011, 0.030911,1,-0.362780, 0.123410, 9.799160,1,0
1778257396114,  2332.227,  2332.227, 0.077218,-0.016733,-0.900475, 0.000728,-0.000158,-0.008968, 0.399791,-0.039384, 0.968692,1, 0.004279,-0.014984, 0.036623,1,-0.356975, 0.124890, 9.799355,1,0
1778257396136,  2332.252,  2332.247, 0.044352,-0.025139,-1.080631, 0.000471,-0.000226,-0.010724, 0.392203,-0.177970,-0.287353,1,-0.009288,-0.004660, 0.030581,1,-0.356165, 0.123714, 9.799399,1,0
1778257396158,  2332.277,  2332.272, 0.078634,-0.009338,-1.081535, 0.000745,-0.000046,-0.010893, 0.413023, 0.028049,-0.806857,1,-0.007555, 0.010429, 0.026991,1,-0.358441, 0.119354, 9.799371,1,0
1778257396184,  2332.297,  2332.297, 0.056517,-0.014734,-0.914863, 0.000535,-0.000138,-0.009220, 0.197854,-0.026403, 0.827716,1,-0.007170,-0.016328, 0.031642,1,-0.355863, 0.117901, 9.799482,1,0
1778257396206,  2332.322,  2332.317, 0.081116,-0.025619,-0.942048, 0.000801,-0.000226,-0.009310, 0.431571,-0.176411, 1.110317,1,-0.015384,-0.005410, 0.027179,1,-0.354530, 0.115971, 9.799553,1,0
1778257396228,  2332.347,  2332.342, 0.101420,-0.027562,-1.057334, 0.000948,-0.000286,-0.010492, 0.638822,-0.162854,-0.569304,1,-0.043668, 0.027432, 0.027543,1,-0.356610, 0.106109, 9.799589,1,0
1778257396254,  2332.367,  2332.367, 0.129515,-0.024769,-1.016258, 0.001305,-0.000230,-0.010227, 0.910220,-0.143053,-0.166553,1,-0.038095, 0.008604, 0.021577,1,-0.360152, 0.098689, 9.799538,1,0
1778257396276,  2332.392,  2332.387, 0.164498,-0.014468,-0.881457, 0.001610,-0.000129,-0.008746, 1.061846,-0.010920, 1.033436,1,-0.030022, 0.022180, 0.019507,1,-0.362907, 0.092788, 9.799494,1,0
1778257396299,  2332.417,  2332.412, 0.175785,-0.025699,-0.970133, 0.001742,-0.000247,-0.009627, 1.353253,-0.170181, 0.285552,1,-0.049101, 0.039879, 0.021064,1,-0.371844, 0.080337, 9.799269,1,0
1778257396324,  2332.437,  2332.437, 0.171469,-0.035732,-1.106824, 0.001774,-0.000271,-0.010906, 1.300873,-0.278194,-1.055246,1,-0.047701, 0.045935, 0.010874,1,-0.382092, 0.070742, 9.798948,1,0
1778257396346,  2332.462,  2332.457, 0.015629,-0.012580,-1.011114, 0.000202,-0.000158,-0.010110,-0.049000, 0.117426, 0.081544,1,-0.046760,-0.001763, 0.014280,1,-0.384344, 0.061492, 9.798923,1,0
1778257396369,  2332.487,  2332.482,-0.018095,-0.008966,-1.021289,-0.000183,-0.000067,-0.010076,-0.557729,-0.037659,-0.216276,1,-0.053491,-0.021790, 0.014927,1,-0.379593, 0.048622, 9.799180,1,0
1778257396394,  2332.507,  2332.507, 0.033258,-0.010581,-1.067739, 0.000303,-0.000161,-0.010791,-0.046583,-0.065684,-0.671449,1,-0.069246,-0.045361, 0.010986,1,-0.371319, 0.035936, 9.799552,1,0
1778257396416,  2332.532,  2332.527, 0.128811, 0.016657,-0.850286, 0.001317, 0.000080,-0.008567, 0.737643, 0.041540, 1.238574,1,-0.051175,-0.022736, 0.013219,1,-0.366328, 0.025814, 9.799771,1,0
1778257396443,  2332.557,  2332.557, 0.141367, 0.008371,-0.975060, 0.001385, 0.000093,-0.009630, 1.024651, 0.093146, 0.237901,1,-0.054885, 0.013310, 0.015737,1,-0.362104, 0.009357, 9.799958,1,0
1778257396464,  2332.577,  2332.577, 0.156628,-0.015554,-1.064920, 0.001546,-0.000159,-0.010736, 1.166829,-0.152333,-0.643597,1,-0.050113, 0.043800, 0.013195,1,-0.370534,-0.001347, 9.799647,1,0
1778257396486,  2332.602,  2332.597, 0.065812,-0.000016,-1.030966, 0.000643, 0.000096,-0.010168, 0.479822,-0.128107,-0.116469,1,-0.041442, 0.045034, 0.013579,1,-0.378352,-0.009257, 9.799344,1,0
1778257396513,  2332.627,  2332.627,-0.007816, 0.011820,-1.093796,-0.000095, 0.000100,-0.010770,-0.471328, 0.097083,-0.927794,1,-0.039970, 0.075921, 0.009888,1,-0.397051,-0.020066, 9.798588,1,0
1778257396535,  2332.652,  2332.647,-0.020177,-0.007245,-0.933101,-0.000172,-0.000015,-0.009449,-0.122171,-0.174266,-0.906303,1,-0.020206, 0.076535,-0.008255,1,-0.415112,-0.025018, 9.797829,1,0
1778257396556,  2332.672,  2332.667,-0.000160,-0.001046,-0.856712,-0.000013, 0.000005,-0.008568,-0.551668,-0.014404, 1.320803,1, 0.006938, 0.048480,-0.007241,1,-0.424834,-0.023253, 9.797416,1,0
1778257396583,  2332.697,  2332.697,-0.043698,-0.015345,-1.003761,-0.000429,-0.000154,-0.009811,-0.864179,-0.174430,-0.046598,1,-0.004851, 0.041388,-0.011712,1,-0.436937,-0.024110, 9.796882,1,0
1778257396605,  2332.722,  2332.717,-0.036137,-0.015240,-1.081573,-0.000440,-0.000122,-0.010986,-0.729372,-0.133614,-1.869222,1,-0.009783, 0.033517,-0.018998,1,-0.444918,-0.025896, 9.796517,1,0
1778257396626,  2332.742,  2332.737,-0.009061,-0.001232,-0.828744,-0.000089,-0.000038,-0.008259,-0.680183, 0.008992, 1.034744,1, 0.024108, 0.043349,-0.020519,1,-0.452857,-0.023223, 9.796161,1,0
1778257396653,  2332.767,  2332.767,-0.053584,-0.003839,-1.040950,-0.000545,-0.000050,-0.010241,-0.981379,-0.059769,-0.412207,1,-0.002915, 0.019167,-0.032776,1,-0.456495,-0.022262, 9.795994,1,0
1778257396675,  2332.787,  2332.787,-0.050499,-0.019989,-1.160508,-0.000559,-0.000188,-0.011563,-0.955402,-0.220154,-1.584875,1,-0.005430, 0.015640,-0.031403,1,-0.460664,-0.024344, 9.795794,1,0
1778257396696,  2332.812,  2332.807, 0.002127, 0.009862,-0.847785, 0.000034, 0.000083,-0.008520,-0.472438,-0.123548, 0.477503,1, 0.015169, 0.038631,-0.036343,1,-0.466969,-0.022157, 9.795501,1,0
1778257396723,  2332.837,  2332.837,-0.021419, 0.020587,-1.002820,-0.000292, 0.000211,-0.009812,-0.679740, 0.180755,-0.038932,1,-0.001017, 0.015847,-0.049867,1,-0.470178,-0.021236, 9.795349,1,0
1778257396745,  2332.862,  2332.857,-0.019032,-0.043893,-1.065425,-0.000234,-0.000332,-0.010714,-0.743067,-0.120038,-0.980543,1,-0.009205, 0.016754,-0.042266,1,-0.474617,-0.023289, 9.795131,1,0
1778257396766,  2332.882,  2332.877, 0.022039,-0.012891,-0.877378, 0.000230,-0.000223,-0.008872,-0.435649,-0.395094, 0.318732,1, 0.012557, 0.039370,-0.043095,1,-0.479852,-0.021229, 9.794880,1,0
1778257396793,  2332.907,  2332.907, 0.010038, 0.038338,-0.930451, 0.000087, 0.000441,-0.009080,-0.386791, 0.354842, 0.670012,1,-0.005878, 0.007701,-0.041956,1,-0.485463,-0.021378, 9.794603,1,0
1778257396815,  2332.932,  2332.927,-0.000390,-0.005070,-1.106019, 0.000021,-0.000106,-0.011126,-0.464699,-0.118178,-1.090354,1,-0.016172, 0.012640,-0.042024,1,-0.488347,-0.024655, 9.794453,1,0
1778257396836,  2332.952,  2332.947, 0.043806,-0.014587,-0.993673, 0.000431,-0.000172,-0.010035,-0.286052,-0.049085,-0.598400,1,-0.008186, 0.019166,-0.038577,1,-0.490681,-0.026647, 9.794331,1,0
1778257396863,  2332.977,  2332.977, 0.064903, 0.015216,-0.890149, 0.000665, 0.000102,-0.008970, 0.139498, 0.122084, 1.064631,1, 0.002804, 0.011171,-0.043915,1,-0.497323,-0.027119, 9.793994,1,0
1778257396885,  2333.002,  2332.997, 0.046294,-0.000756,-1.057894, 0.000433, 0.000031,-0.010413, 0.085705, 0.134399, 0.006071,1,-0.004158, 0.012792,-0.041482,1,-0.500222,-0.027200, 9.793846,1,0
1778257396907,  2333.022,  2333.017, 0.056570, 0.013139,-1.016886, 0.000524, 0.000073,-0.010318,-0.139484,-0.081770,-0.513616,1, 0.000244, 0.021717,-0.032527,1,-0.503007,-0.028212, 9.793700,1,0
1778257396934,  2333.047,  2333.047, 0.066902,-0.007107,-1.008293, 0.000681,-0.000112,-0.010011, 0.081124,-0.126614, 0.019156,1,-0.005792, 0.041036,-0.034089,1,-0.510791,-0.028922, 9.793296,1,0
1778257396955,  2333.072,  2333.067, 0.036987, 0.012175,-0.942467, 0.000439, 0.000156,-0.009528,-0.095041, 0.252465, 0.444623,1, 0.008692, 0.021240,-0.043526,1,-0.516541,-0.027991, 9.792996,1,0
1778257396978,  2333.092,  2333.092, 0.053064,-0.036824,-0.997616, 0.000506,-0.000376,-0.009923, 0.002774,-0.391354, 0.009658,1,-0.016425, 0.011902,-0.034930,1,-0.517978,-0.030804, 9.792912,1,0
1778257397004,  2333.117,  2333.117, 0.076911, 0.016007,-1.020797, 0.000785, 0.000203,-0.010125, 0.231570, 0.123485,-0.217948,1,-0.019660, 0.030402,-0.033138,1,-0.523616,-0.034160, 9.792602,1,0
1778257397025,  2333.142,  2333.137, 0.080162, 0.001651,-0.962572, 0.000786,-0.000007,-0.009716, 0.179062,-0.091978,-0.358880,1,-0.019584, 0.030790,-0.035717,1,-0.528619,-0.039213, 9.792314,1,0
1778257397048,  2333.162,  2333.162, 0.026296, 0.012079,-0.944164, 0.000346, 0.000092,-0.009440,-0.275322, 0.071908, 0.532948,1,-0.031895,-0.007754,-0.028938,1,-0.532955,-0.047586, 9.792042,1,0
1778257397074,  2333.187,  2333.187, 0.043973,-0.000752,-1.026990, 0.000436, 0.000025,-0.010275,-0.103899,-0.060449,-0.279439,1,-0.031181, 0.026650,-0.028759,1,-0.535957,-0.054092, 9.791844,1,0
1778257397095,  2333.212,  2333.207, 0.081447, 0.009064,-1.015839, 0.000763, 0.000089,-0.010202, 0.081714,-0.000254,-0.367487,1,-0.033345, 0.016871,-0.035749,1,-0.540573,-0.061612, 9.791546,1,0
1778257397118,  2333.232,  2333.232, 0.087106,-0.005606,-0.949406, 0.000883,-0.000028,-0.009411, 0.309899,-0.125426, 0.480789,1,-0.030401,-0.002975,-0.033257,1,-0.544215,-0.071460, 9.791277,1,0
1778257397144,  2333.257,  2333.257, 0.106891,-0.013614,-0.951394, 0.001042,-0.000194,-0.009560, 0.503720,-0.210222, 0.461227,1,-0.029632, 0.014438,-0.034485,1,-0.544961,-0.077695, 9.791188,1,0
1778257397165,  2333.282,  2333.277, 0.170249, 0.000379,-1.072473, 0.001717,-0.000003,-0.010686, 0.978047, 0.031006,-0.438622,1,-0.033855, 0.021186,-0.035689,1,-0.550867,-0.082971, 9.790814,1,0
1778257397188,  2333.302,  2333.302, 0.161071, 0.014962,-0.992317, 0.001725, 0.000148,-0.010098, 1.020841, 0.057216, 0.059005,1,-0.013057, 0.014946,-0.050314,1,-0.559177,-0.090011, 9.790281,1,0
1778257397214,  2333.327,  2333.327, 0.114006, 0.001373,-0.962777, 0.001154, 0.000099,-0.009558, 0.560008,-0.077630, 0.348719,1,-0.004590,-0.003686,-0.043933,1,-0.557880,-0.091318, 9.790343,1,0
1778257397235,  2333.352,  2333.347, 0.143743,-0.023745,-1.037681, 0.001373,-0.000174,-0.010253, 0.671034,-0.009752, 0.255463,1,-0.010072, 0.014311,-0.033319,1,-0.559914,-0.093569, 9.790206,1,0
1778257397258,  2333.372,  2333.372, 0.161014, 0.019776,-1.137884, 0.001696, 0.000083,-0.011428, 1.016173, 0.099978,-1.368793,1, 0.008204,-0.017523,-0.037762,1,-0.562278,-0.093766, 9.790069,1,0
1778257397284,  2333.397,  2333.397, 0.124450, 0.080786,-0.970350, 0.001244, 0.000791,-0.009726, 0.661761, 0.702648, 0.274434,1, 0.034031,-0.018763,-0.033693,1,-0.558081,-0.088589, 9.790357,1,0
1778257397306,  2333.422,  2333.417, 0.121627, 0.001904,-1.027827, 0.001226, 0.000071,-0.010200, 0.620467, 0.113158,-0.131881,1, 0.029380,-0.021456,-0.037093,1,-0.553979,-0.084005, 9.790630,1,0
1778257397328,  2333.447,  2333.442, 0.125640, 0.004270,-0.874337, 0.001234,-0.000024,-0.008868, 0.686908,-0.029709, 1.216905,1, 0.067952,-0.027452,-0.039673,1,-0.544337,-0.069539, 9.791285,1,0
1778257397354,  2333.467,  2333.467, 0.162527, 0.026576,-0.949280, 0.001563, 0.000317,-0.009255, 1.054392, 0.199368, 0.482357,1, 0.058290,-0.030643,-0.018594,1,-0.538613,-0.060662, 9.791659,1,0
1778257397376,  2333.492,  2333.487, 0.193116,-0.008524,-0.999266, 0.001875,-0.000033,-0.010151, 1.223340, 0.028213,-0.785241,1, 0.074417,-0.012905,-0.022973,1,-0.533504,-0.048273, 9.792008,1,0
1778257397398,  2333.517,  2333.512, 0.181816, 0.011225,-0.830295, 0.001913, 0.000086,-0.008245, 1.247117, 0.091761, 1.649563,1, 0.126009,-0.002381,-0.038821,1,-0.535813,-0.014453, 9.791990,1,0
1778257397424,  2333.537,  2333.537, 0.156243, 0.030710,-1.081402, 0.001527, 0.000331,-0.010616, 0.997283, 0.305776,-0.812889,1, 0.115856, 0.007756,-0.019038,1,-0.535176, 0.008193, 9.792032,1,0
1778257397446,  2333.562,  2333.557, 0.169203,-0.025787,-0.896036, 0.001744,-0.000266,-0.009083, 1.347704,-0.287393,-0.609858,1, 0.136420, 0.043636,-0.023694,1,-0.542957, 0.032721, 9.791553,1,0
1778257397469,  2333.587,  2333.582, 0.160401, 0.025753,-0.910517, 0.001539, 0.000268,-0.008897, 1.027118, 0.322262, 0.862076,1, 0.125583,-0.009669,-0.023687,1,-0.545579, 0.073584, 9.791185,1,0
1778257397494,  2333.607,  2333.607, 0.210968,-0.014166,-1.038328, 0.002053,-0.000076,-0.010355, 1.522018,-0.046968,-0.391563,1, 0.112074, 0.029120,-0.013918,1,-0.547778, 0.095420, 9.790874,1,0
1778257397516,  2333.632,  2333.627, 0.214617, 0.002707,-0.882568, 0.002158, 0.000023,-0.008705, 1.859225,-0.071621, 1.221194,1, 0.120874, 0.031286,-0.017035,1,-0.555191, 0.118706, 9.790202,1,0
1778257397539,  2333.657,  2333.652, 0.188786,-0.020483,-1.123309, 0.001832,-0.000199,-0.011156, 1.294494,-0.054560,-1.226167,1, 0.092469, 0.016325, 0.009813,1,-0.557365, 0.149204, 9.789661,1,0
1778257397564,  2333.677,  2333.677, 0.237897,-0.000518,-0.947297, 0.002342, 0.000000,-0.009634, 1.767607, 0.160273, 0.499135,1, 0.106700, 0.040527, 0.009626,1,-0.566631, 0.168661, 9.788814,1,0
1778257397586,  2333.702,  2333.697, 0.093512,-0.026572,-1.087567, 0.001059,-0.000258,-0.010492, 0.897854, 0.519332, 0.774455,1, 0.077676,-0.029876, 0.021054,1,-0.565703, 0.187499, 9.788525,1,0
1778257397609,  2333.727,  2333.722, 0.107488,-0.002302,-1.038417, 0.001155,-0.000024,-0.010614, 0.487677, 0.183389,-0.395281,1, 0.062371, 0.014845, 0.039188,1,-0.566859, 0.207975, 9.788044,1,0
1778257397634,  2333.747,  2333.747, 0.030902, 0.014202,-0.977233, 0.000488, 0.000148,-0.009840,-0.260929, 0.354508, 0.204676,1, 0.008906,-0.047288, 0.071822,1,-0.562452, 0.215638, 9.788133,1,0
1778257397656,  2333.772,  2333.767, 0.013264, 0.038619,-0.993990, 0.000239, 0.000272,-0.010493,-0.331731, 0.300987,-1.141372,1, 0.000109, 0.023539, 0.076543,1,-0.560761, 0.217664, 9.788184,1,0
1778257397683,  2333.797,  2333.797, 0.007432,-0.003675,-0.843058, 0.000181, 0.000001,-0.008186,-0.494484, 0.174197, 1.520386,1,-0.068886,-0.017507, 0.105125,1,-0.566747, 0.208280, 9.788044,1,0
1778257397704,  2333.817,  2333.817,-0.013303,-0.000640,-1.169690,-0.000296,-0.000041,-0.011493,-0.699239, 0.190946,-1.682590,1,-0.076420, 0.048707, 0.109007,1,-0.570234, 0.195040, 9.788115,1,0
1778257397726,  2333.842,  2333.837, 0.014030, 0.046925,-0.933647, 0.000251, 0.000394,-0.009506,-0.804777, 0.569311, 0.513373,1,-0.049564, 0.022807, 0.114168,1,-0.576803, 0.183462, 9.787953,1,0
1778257397753,  2333.867,  2333.867, 0.081840, 0.005671,-1.019503, 0.000795, 0.000077,-0.010178, 0.230895, 0.221674,-0.209348,1,-0.077356, 0.004714, 0.109705,1,-0.571886, 0.163589, 9.788594,1,0
1778257397775,  2333.892,  2333.887, 0.090476,-0.010933,-1.038132, 0.001027,-0.000053,-0.010571, 0.208921, 0.075625, 0.315906,1,-0.075208,-0.010174, 0.122520,1,-0.571222, 0.149679, 9.788856,1,0
1778257397796,  2333.912,  2333.907, 0.217025,-0.001802,-1.156760, 0.002265,-0.000028,-0.011706, 0.528740,-0.218015,-1.530848,1,-0.091759, 0.005185, 0.132860,1,-0.565803, 0.132850, 9.789412,1,0
1778257397823,  2333.937,  2333.937, 0.235970, 0.016063,-0.907379, 0.002300, 0.000253,-0.008931, 1.747558, 0.271722, 0.891261,1,-0.077751,-0.033711, 0.132329,1,-0.565423, 0.112012, 9.789696,1,0
1778257397845,  2333.962,  2333.957, 0.246377,-0.026439,-1.071982, 0.002643,-0.000188,-0.010897, 2.121917,-0.174909,-1.290326,1,-0.104031,-0.002326, 0.120300,1,-0.560272, 0.094081, 9.790180,1,0
1778257397866,  2333.982,  2333.977, 0.251100,-0.014078,-0.862346, 0.002717,-0.000085,-0.009039, 2.054748,-0.100105,-0.079682,1,-0.085745, 0.003292, 0.120974,1,-0.560708, 0.077106, 9.790303,1,0
1778257397893,  2334.007,  2334.007, 0.306806,-0.026255,-0.968730, 0.003232,-0.000205,-0.010043, 2.448894,-0.200772, 0.290495,1,-0.071391, 0.014646, 0.101428,1,-0.560286, 0.054659, 9.790479,1,0
1778257397915,  2334.032,  2334.027, 0.267045,-0.091357,-1.066452, 0.002533,-0.000888,-0.010044, 2.159983,-0.098796, 1.043103,1,-0.061430,-0.025650, 0.100099,1,-0.559860, 0.040854, 9.790570,1,0
1778257397936,  2334.052,  2334.047, 0.261150,-0.062939,-0.909528, 0.002576,-0.000735,-0.009190, 1.876452,-0.598024, 0.033809,1,-0.039928, 0.017071, 0.079448,1,-0.561974, 0.029408, 9.790490,1,0
1778257397963,  2334.077,  2334.077, 0.157399,-0.044438,-0.899469, 0.001548,-0.000580,-0.008403, 0.987817,-0.417679, 0.970097,1,-0.082111,-0.062925, 0.043757,1,-0.553781, 0.015658, 9.790989,1,0
1778257397985,  2334.102,  2334.097, 0.007396,-0.047078,-1.123504, 0.000028,-0.000411,-0.011144, 0.083090,-0.288469,-2.091116,1,-0.080481,-0.031293, 0.023919,1,-0.545944, 0.001693, 9.791442,1,0
1778257398006,  2334.122,  2334.117,-0.007709,-0.060425,-1.011820,-0.000282,-0.000564,-0.009730,-0.505941,-0.057280,-0.657717,1,-0.074708,-0.023030, 0.017756,1,-0.544116,-0.013048, 9.791534,1,0
1778257398033,  2334.147,  2334.147,-0.070631, 0.006632,-1.020392,-0.000764,-0.000051,-0.009737,-1.232664, 0.028202,-0.214929,1,-0.131210,-0.019305,-0.014295,1,-0.539411,-0.040948, 9.791718,1,0
1778257398055,  2334.172,  2334.167,-0.194262,-0.013527,-0.941776,-0.002055,-0.000113,-0.009110,-1.757010, 0.017958, 0.654833,1,-0.124613,-0.061133,-0.012350,1,-0.531123,-0.064360, 9.792046,1,0
1778257398076,  2334.192,  2334.187,-0.185710, 0.001721,-1.042054,-0.001961, 0.000118,-0.010162,-2.063516, 0.034055,-0.653671,1,-0.112870,-0.064315,-0.007121,1,-0.520483,-0.086348, 9.792447,1,0
1778257398103,  2334.217,  2334.217,-0.118484, 0.020800,-1.072684,-0.001401, 0.000306,-0.010562,-1.667592, 0.089815,-0.726500,1,-0.101370,-0.025341,-0.004830,1,-0.504865,-0.117327, 9.792943,1,0
1778257398125,  2334.242,  2334.237, 0.017371, 0.068836,-1.003757, 0.000313, 0.000640,-0.010220,-0.954037, 0.106377, 0.962127,1,-0.089115,-0.009114,-0.013891,1,-0.500638,-0.132602, 9.792965,1,0
1778257398147,  2334.262,  2334.257, 0.000501, 0.032452,-1.131609, 0.000227, 0.000277,-0.011485,-0.352944, 0.129194,-0.839568,1,-0.082992, 0.008535,-0.005126,1,-0.498644,-0.147546, 9.792853,1,0
1778257398174,  2334.287,  2334.287,-0.045764, 0.062644,-1.295198,-0.000525, 0.000490,-0.013212,-0.950883, 0.450664,-2.909133,1,-0.056388, 0.048112, 0.001617,1,-0.503593,-0.165411, 9.792315,1,0
1778257398195,  2334.312,  2334.307, 0.095936,-0.030066,-0.694121, 0.000901,-0.000161,-0.007111, 0.476995, 0.144445,-0.364939,1,-0.033117, 0.104429, 0.005867,1,-0.524421,-0.174731, 9.791059,1,0
1778257398218,  2334.332,  2334.332, 0.086680,-0.001366,-0.841974, 0.000828, 0.000197,-0.008008, 0.309536,-0.194890, 1.533120,1,-0.054332, 0.066150,-0.007186,1,-0.542560,-0.183201, 9.789916,1,0
1778257398244,  2334.357,  2334.357, 0.051645,-0.094392,-0.866395, 0.000615,-0.000813,-0.008659,-0.046738,-1.117044, 1.292731,1,-0.039430, 0.042115,-0.024550,1,-0.554499,-0.192644, 9.789065,1,0
1778257398265,  2334.382,  2334.377,-0.125561, 0.022965,-1.057847,-0.001236, 0.000149,-0.010158,-1.393896,-0.478676, 1.924388,1,-0.040189,-0.050206,-0.031235,1,-0.548453,-0.201026, 9.789238,1,0
1778257398288,  2334.402,  2334.402, 0.000347,-0.116730,-1.345798,-0.000157,-0.001336,-0.013808,-0.544831,-1.364255,-3.408913,1,-0.047705, 0.044429,-0.089264,1,-0.549560,-0.221162, 9.788741,1,0
1778257398314,  2334.427,  2334.427, 0.150627, 0.059422,-0.796225, 0.001208, 0.000507,-0.007887, 0.924708, 0.355892, 1.980152,1,-0.052478, 0.007894,-0.099377,1,-0.552609,-0.228645, 9.788398,1,0
1778257398335,  2334.452,  2334.447, 0.063073,-0.237638,-1.013330, 0.000707,-0.002375,-0.009977, 0.973157,-2.325533, 0.882887,1,-0.064972,-0.008560,-0.120969,1,-0.550423,-0.240510, 9.788237,1,0
1778257398358,  2334.472,  2334.472, 0.017855, 0.078236,-1.166986, 0.000757, 0.000721,-0.011470,-0.374527, 0.516716,-1.656191,1,-0.047210, 0.014361,-0.201696,1,-0.549859,-0.252333, 9.787971,1,0
1778257398384,  2334.497,  2334.497,-0.054727,-0.147807,-1.128189,-0.000589,-0.001333,-0.011391,-1.085755,-1.707600,-1.275896,1, 0.009182, 0.001734,-0.215384,1,-0.548947,-0.258197, 9.787868,1,0
1778257398405,  2334.522,  2334.517, 0.005909, 0.029460,-0.899793,-0.000063, 0.000283,-0.009036,-0.454550,-0.778611,-1.069987,1, 0.060932, 0.044126,-0.299970,1,-0.556635,-0.254926, 9.787520,1,0
1778257398428,  2334.542,  2334.542, 0.107179,-0.077449,-0.460859, 0.001045,-0.000469,-0.004406, 0.488750,-1.000981, 5.268054,1, 0.062096,-0.021640,-0.272800,1,-0.561432,-0.240020, 9.787623,1,0
1778257398454,  2334.567,  2334.567, 0.096168,-0.058756,-1.155419, 0.001022,-0.001182,-0.010832, 0.390157,-0.810147,-1.542538,1, 0.015851,-0.018025,-0.345064,1,-0.552113,-0.234064, 9.788298,1,0
1778257398475,  2334.592,  2334.587, 0.054726,-0.151325,-1.226048, 0.000578,-0.001317,-0.012398,-1.255500, 0.224381,-1.509280,1, 0.059641,-0.013792,-0.312290,1,-0.547959,-0.226019, 9.788720,1,0
1778257398498,  2334.612,  2334.612, 0.069447, 0.049006,-0.794314, 0.000860, 0.000328,-0.008412, 0.140115, 0.263765, 1.999760,1, 0.034468,-0.046885,-0.292130,1,-0.539265,-0.216247, 9.789424,1,0
1778257398524,  2334.637,  2334.637, 0.205592,-0.095985,-1.091617, 0.002066,-0.000829,-0.010588, 1.484391,-1.156927,-0.915258,1,-0.011188,-0.012844,-0.287425,1,-0.531185,-0.216472, 9.789861,1,0
1778257398546,  2334.662,  2334.657, 0.274628, 0.043186,-1.005607, 0.002957, 0.000574,-0.010112, 2.118959, 0.008826,-0.224674,1,-0.049607, 0.006802,-0.304208,1,-0.530243,-0.220614, 9.789819,1,0
1778257398568,  2334.687,  2334.682, 0.296678,-0.113027,-0.908703, 0.003155,-0.001204,-0.009621, 2.377967,-1.342407, 0.878106,1,-0.006065, 0.019403,-0.291077,1,-0.531837,-0.234677, 9.789406,1,0
1778257398594,  2334.707,  2334.707, 0.327160, 0.085308,-0.839971, 0.003310, 0.000912,-0.008474, 2.677178, 0.586598, 1.551757,1,-0.059032,-0.013222,-0.279718,1,-0.530532,-0.252304, 9.789038,1,0
1778257398616,  2334.732,  2334.727, 0.444214,-0.055173,-0.999725, 0.004209,-0.000893,-0.009914, 3.163983,-1.404403, 0.380154,1,-0.062133, 0.042408,-0.293530,1,-0.535050,-0.273535, 9.788221,1,0
1778257398638,  2334.757,  2334.752, 0.440557,-0.168374,-1.113816, 0.004396,-0.001780,-0.011110, 3.775547,-1.958263,-1.136114,1,-0.133749, 0.060424,-0.299118,1,-0.546431,-0.311766, 9.786449,1,0
1778257398664,  2334.777,  2334.777, 0.385802,-0.014199,-0.932505, 0.004121,-0.000153,-0.010005, 3.226830,-0.470934, 0.640476,1,-0.086820, 0.066932,-0.326311,1,-0.558334,-0.334967, 9.785011,1,0
1778257398686,  2334.802,  2334.797, 0.258182,-0.008054,-0.831318, 0.002901,-0.000204,-0.008974, 2.515627,-1.916746, 0.300803,1,-0.072160, 0.057736,-0.375005,1,-0.568923,-0.353768, 9.783739,1,0
1778257398709,  2334.827,  2334.822, 0.196617,-0.185817,-1.018098, 0.001976,-0.001859,-0.009706, 1.354492,-2.193557,-0.201320,1,-0.016093, 0.038838,-0.440325,1,-0.574348,-0.372621, 9.782722,1,0
1778257398734,  2334.847,  2334.847, 0.136413,-0.139908,-1.134198, 0.001319,-0.001300,-0.011395, 0.758657,-1.748400,-1.340389,1, 0.020169, 0.062378,-0.460395,1,-0.580491,-0.376596, 9.782207,1,0
1778257398756,  2334.872,  2334.867, 0.002673,-0.137513,-0.949494, 0.000164,-0.001361,-0.009445,-0.017155,-1.025210, 1.536560,1, 0.127073, 0.045899,-0.506502,1,-0.588457,-0.365644, 9.782147,1,0
1778257398779,  2334.897,  2334.892,-0.182941,-0.081563,-1.005654,-0.001766,-0.000718,-0.009777,-2.373284,-1.145288,-0.078671,1, 0.133689,-0.051745,-0.554161,1,-0.577027,-0.342286, 9.783673,1,0
1778257398804,  2334.917,  2334.917,-0.413050,-0.062989,-0.785966,-0.003845,-0.001321,-0.008882,-4.606726,-0.944687, 2.077711,1, 0.083766,-0.204387,-0.587241,1,-0.549107,-0.325410, 9.785856,1,0
1778257398826,  2334.942,  2334.937,-0.260628,-0.250410,-1.455013,-0.002643,-0.002580,-0.016772,-4.688799, 1.182235,-6.575282,1, 0.041838,-0.073429,-0.541105,1,-0.519119,-0.323415, 9.787559,1,0
1778257398849,  2334.967,  2334.962,-0.057425,-0.077494,-0.419076,-0.000553,-0.000432,-0.003963,-1.070395,-1.071528, 5.678830,1, 0.060680,-0.073897,-0.556852,1,-0.504390,-0.310584, 9.788744,1,0
1778257398874,  2334.987,  2334.987, 0.021837,-0.094935,-0.749865, 0.000029,-0.000953,-0.006441,-0.271053,-1.252664, 2.435688,1,-0.087126,-0.060893,-0.571714,1,-0.482722,-0.325270, 9.789360,1,0
1778257398896,  2335.012,  2335.007,-0.080005,-0.231294,-1.232146,-0.000597,-0.002427,-0.012741,-0.972404,-2.197616,-3.355524,1,-0.112207,-0.007848,-0.615346,1,-0.473189,-0.348967, 9.789009,1,0
1778257398923,  2335.037,  2335.037, 0.106746, 0.000833,-0.862449, 0.000810, 0.000198,-0.008457, 0.579301,-0.367622, 1.330552,1,-0.073079, 0.008107,-0.584029,1,-0.467071,-0.378938, 9.788189,1,0
1778257398945,  2335.057,  2335.057, 0.207672,-0.153643,-0.903409, 0.001737,-0.001580,-0.008294, 1.574068,-1.905651, 0.928193,1,-0.125510, 0.007129,-0.613327,1,-0.461945,-0.403744, 9.787440,1,0
1778257398966,  2335.082,  2335.077, 0.185602,-0.291615,-1.278668, 0.001545,-0.002652,-0.011882, 1.519022,-1.397625,-1.600391,1,-0.157146,-0.008919,-0.648780,1,-0.454965,-0.437228, 9.786328,1,0
1778257398993,  2335.107,  2335.107, 0.151331,-0.074891,-1.132564, 0.001791,-0.000842,-0.011720, 1.034916,-1.209312,-1.321818,1,-0.148265,-0.012113,-0.682237,1,-0.447729,-0.480474, 9.784635,1,0
1778257399015,  2335.132,  2335.127, 0.505492,-0.094735,-0.824976, 0.005087,-0.001013,-0.008344, 3.389446,-1.369939, 2.200588,1,-0.004275, 0.123930,-0.702508,1,-0.455801,-0.494091, 9.783584,1,0
1778257399036,  2335.152,  2335.147, 0.260352,-0.145758,-0.921971, 0.002289,-0.001984,-0.008828, 3.545976,-2.789356, 3.722860,1, 0.005408, 0.084689,-0.724243,1,-0.470191,-0.505715, 9.782309,1,0
1778257399063,  2335.177,  2335.177,-0.011645,-0.184232,-1.571230,-0.000259,-0.001092,-0.015216,-0.572684,-2.325852,-5.626348,1, 0.044410, 0.000196,-0.830039,1,-0.457120,-0.518979, 9.782233,1,0
1778257399085,  2335.202,  2335.197, 0.318091,-0.295173,-0.599511, 0.002758,-0.002699,-0.005854, 1.379626,-1.408635, 1.815718,1, 0.148856, 0.084560,-0.789334,1,-0.462593,-0.501485, 9.782888,1,0
1778257399106,  2335.222,  2335.217, 0.372428,-0.194241,-0.683392, 0.004187,-0.001632,-0.006439, 3.560472,-1.612003, 4.834568,1, 0.122210, 0.161306,-0.702932,1,-0.483761,-0.478084, 9.783036,1,0
1778257399133,  2335.247,  2335.247, 0.176787,-0.141186,-0.952673, 0.001209,-0.001192,-0.008457, 1.238495,-1.832810, 0.441345,1, 0.132211,-0.001219,-0.877001,1,-0.493904,-0.445511, 9.784067,1,0
1778257399155,  2335.272,  2335.267,-0.031081,-0.114797,-1.715118,-0.000300,-0.001539,-0.018182,-1.430455,-0.814331,-2.752411,1, 0.105539, 0.022432,-0.833654,1,-0.482658,-0.419281, 9.785788,1,0
1778257399176,  2335.292,  2335.287,-0.087003, 0.020481,-0.657649,-0.000085,-0.000513,-0.008251,-1.171520,-2.494037,-4.113093,1, 0.280249, 0.182595,-0.931359,1,-0.509067,-0.380798, 9.786022,1,0
1778257399203,  2335.317,  2335.317,-0.151648,-0.061644,-0.952905,-0.001213,-0.001044,-0.009784,-1.974260,-0.938899, 0.444028,1, 0.210064,-0.041941,-0.765028,1,-0.484981,-0.329016, 9.789123,1,0
1778257399225,  2335.342,  2335.337,-0.035039,-0.093317,-0.998604,-0.000818,-0.000617,-0.008671,-1.531485,-1.550065,-1.076355,1, 0.174563,-0.023793,-0.796407,1,-0.477724,-0.302910, 9.790322,1,0
1778257399246,  2335.362,  2335.357,-0.159555,-0.107667,-1.021534,-0.001073,-0.001400,-0.011695,-1.465176,-0.403552, 1.479576,1, 0.174675,-0.032123,-0.813312,1,-0.465026,-0.278269, 9.791665,1,0
1778257399273,  2335.387,  2335.387,-0.032085,-0.159338,-1.253676,-0.000836,-0.000622,-0.010560,-0.764089,-1.818945,-2.501377,1, 0.103592,-0.025176,-0.743358,1,-0.448051,-0.254212, 9.793111,1,0
1778257399295,  2335.412,  2335.407, 0.040383,-0.004714,-1.004143, 0.000560,-0.000381,-0.009791,-0.827655, 0.358300, 3.107362,1, 0.098311,-0.028197,-0.733139,1,-0.438268,-0.244462, 9.793801,1,0
1778257399317,  2335.432,  2335.427,-0.065779,-0.015346,-1.089087,-0.000695, 0.000065,-0.010735,-0.224570,-2.169746,-1.791389,1, 0.033247,-0.009700,-0.720632,1,-0.432955,-0.239720, 9.794155,1,0
1778257399343,  2335.457,  2335.457, 0.060926,-0.165606,-0.992406, 0.000387,-0.001848,-0.010319, 0.167096,-1.871356, 0.061901,1,-0.022676,-0.008154,-0.651428,1,-0.429620,-0.248917, 9.794072,1,0
1778257399365,  2335.482,  2335.477,-0.193171, 0.057835,-0.768838,-0.001339,-0.000211,-0.006845,-2.019562, 0.380965,11.209327,1, 0.016475,-0.214497,-0.592018,1,-0.398715,-0.250764, 9.795332,1,0
1778257399387,  2335.502,  2335.497,-0.117271,-0.014251,-2.262451,-0.001507, 0.000234,-0.022281,-1.615604,-0.522911,-11.531393,1,-0.199607,-0.062236,-0.565600,1,-0.363267,-0.289547, 9.795641,1,0
1778257399414,  2335.527,  2335.527, 0.012497,-0.051961,-0.697744,-0.000050,-0.000920,-0.007655,-0.251988,-0.826671, 2.951830,1,-0.124606,-0.006987,-0.550662,1,-0.373773,-0.321649, 9.794244,1,0
1778257399435,  2335.552,  2335.547,-0.077198, 0.007419,-0.898176,-0.000477,-0.000396,-0.009917,-0.821198,-1.584015, 3.159025,1,-0.115305,-0.017534,-0.519341,1,-0.362949,-0.347836, 9.793756,1,0
1778257399458,  2335.572,  2335.572,-0.170932,-0.116705,-0.943787,-0.001601,-0.000783,-0.008174,-2.029193,-1.530333, 0.537308,1,-0.134999,-0.045151,-0.576094,1,-0.350809,-0.390699, 9.792583,1,0
1778257399484,  2335.597,  2335.597,-0.228705,-0.086570,-1.749415,-0.002477,-0.000364,-0.015843,-2.584837,-1.266467,-7.364119,1,-0.154454, 0.055433,-0.568254,1,-0.342979,-0.422940, 9.791520,1,0
1778257399505,  2335.622,  2335.617, 0.019155,-0.095763,-0.920967,-0.000616,-0.000159,-0.008974,-2.551685,-0.566074,-5.336827,1,-0.060329, 0.258421,-0.546150,1,-0.384217,-0.442165, 9.789140,1,0
1778257399528,  2335.642,  2335.642, 0.073839, 0.026724,-0.415294, 0.001600,-0.000685,-0.005476, 0.307800,-0.190330, 5.714716,1,-0.049845, 0.056713,-0.563987,1,-0.417271,-0.454702, 9.787211,1,0
1778257399554,  2335.667,  2335.667, 0.002537,-0.052275,-0.864093, 0.000356,-0.000187,-0.007510,-0.401366,-0.973623, 1.312674,1,-0.026766, 0.101131,-0.568143,1,-0.427863,-0.463290, 9.786351,1,0
1778257399575,  2335.692,  2335.687,-0.168175, 0.043626,-0.929370,-0.001248, 0.000197,-0.009836,-0.908957,-0.706623,-0.454904,1, 0.026388, 0.048120,-0.598171,1,-0.436110,-0.466337, 9.785843,1,0
1778257399598,  2335.712,  2335.712,-0.106671, 0.034405,-1.064278,-0.001506, 0.000366,-0.009970,-1.474814,-0.123167,-0.650561,1, 0.056952,-0.018715,-0.545157,1,-0.427349,-0.459533, 9.786551,1,0
1778257399624,  2335.737,  2335.737, 0.001700, 0.016977,-0.992617,-0.000191, 0.000083,-0.010224,-0.397536,-0.285942, 0.053202,1, 0.057366,-0.062144,-0.536596,1,-0.411500,-0.451348, 9.787611,1,0
1778257399645,  2335.762,  2335.757, 0.198248,-0.002763,-0.993940, 0.001946,-0.000044,-0.009946, 0.804898,-0.139484, 0.302450,1, 0.119700,-0.043840,-0.551956,1,-0.396478,-0.436155, 9.788920,1,0
1778257399668,  2335.782,  2335.782, 0.242446, 0.049036,-0.772924, 0.002606,-0.000048,-0.008741, 1.981511, 0.073064, 2.210363,1, 0.117427, 0.017619,-0.543487,1,-0.395911,-0.404844, 9.790288,1,0
1778257399694,  2335.807,  2335.807, 0.186312,-0.126139,-1.082222, 0.001461,-0.000853,-0.010220, 1.428960,-1.617056,-0.821785,1, 0.176516, 0.071715,-0.538911,1,-0.399719,-0.375235, 9.791313,1,0
1778257399715,  2335.832,  2335.827,-0.049247,-0.025431,-1.064007,-0.000917, 0.000080,-0.010531,-0.293877, 0.203111,-0.535873,1, 0.166717, 0.024948,-0.481454,1,-0.406048,-0.344955, 9.792166,1,0
1778257399738,  2335.852,  2335.852,-0.032574, 0.099530,-1.131129,-0.000399, 0.001099,-0.011224,-0.729394, 0.675003,-1.299137,1, 0.162829, 0.041035,-0.458619,1,-0.410793,-0.296579, 9.793552,1,0
1778257399764,  2335.877,  2335.877, 0.006413, 0.008022,-0.933353, 0.000315,-0.000076,-0.009922,-0.353346,-0.190991, 0.641033,1, 0.161888, 0.024312,-0.439669,1,-0.416618,-0.265163, 9.794208,1,0
1778257399786,  2335.902,  2335.897, 0.317437,-0.154010,-0.897516, 0.003446,-0.001797,-0.009604, 2.209063,-0.296499, 1.559190,1, 0.164601, 0.133178,-0.401588,1,-0.431467,-0.237145, 9.794283,1,0
1778257399808,  2335.927,  2335.922, 0.127134,-0.007444,-1.039925, 0.001410, 0.000046,-0.009551, 0.796300,-0.270650,-0.403877,1, 0.154435, 0.128275,-0.414480,1,-0.454192,-0.193426, 9.794217,1,0
1778257399834,  2335.947,  2335.947,-0.008224, 0.014762,-0.889182, 0.000005, 0.000217,-0.008936,-0.550402,-0.022388, 1.074067,1, 0.146362, 0.042141,-0.436123,1,-0.470830,-0.163239, 9.793981,1,0
1778257399856,  2335.972,  2335.967,-0.176145,-0.016644,-0.965877,-0.001444,-0.000154,-0.010413,-0.663991,-2.063294,-1.678469,1, 0.119183,-0.001262,-0.377561,1,-0.467503,-0.138365, 9.794523,1,0
1778257399878,  2335.997,  2335.992, 0.055926,-0.088889,-1.597682,-0.000517,-0.000045,-0.015179, 0.082078,-0.987687,-5.873046,1, 0.132623, 0.062547,-0.358289,1,-0.468181,-0.112377, 9.794824,1,0
1778257399904,  2336.017,  2336.017, 0.179122,-0.063585,-0.932455, 0.002136,-0.000852,-0.009963, 1.279335,-0.719211, 0.650301,1, 0.120556, 0.035674,-0.378212,1,-0.478249,-0.092468, 9.794545,1,0
1778257399926,  2336.042,  2336.037, 0.232765,-0.040669,-0.943968, 0.002531,-0.000957,-0.009990, 1.575966,-0.711626, 4.363587,1, 0.192208, 0.052241,-0.359919,1,-0.485712,-0.063361, 9.794410,1,0
1778257399949,  2336.067,  2336.062,-0.134758,-0.069612,-0.996449,-0.000487,-0.000963,-0.010854,-1.812350,-0.707005, 0.022500,1, 0.226600,-0.034145,-0.449345,1,-0.488666,-0.016630, 9.794454,1,0
1778257399974,  2336.087,  2336.087,-0.080365,-0.119091,-1.122922,-0.001329,-0.000766,-0.010402,-1.267391,-1.158520,-1.217183,1, 0.186900,-0.066169,-0.398054,1,-0.477220, 0.014590, 9.795021,1,0
1778257399996,  2336.112,  2336.107, 0.180845,-0.053884,-1.000307, 0.001321,-0.000451,-0.009170, 0.260571,-0.594991, 1.641504,1, 0.218427,-0.120468,-0.341673,1,-0.456757, 0.056829, 9.795842,1,0
1778257400019,  2336.137,  2336.132, 0.265161,-0.004059,-0.956829, 0.002739,-0.000410,-0.010289, 2.170892, 0.079320, 0.413228,1, 0.271723,-0.085507,-0.429472,1,-0.426945, 0.127007, 9.796529,1,0
1778257400044,  2336.157,  2336.157, 0.306183,-0.159753,-1.003056, 0.003056,-0.001140,-0.009880, 2.583742,-1.394528,-0.040438,1, 0.336009,-0.034614,-0.440552,1,-0.418048, 0.182006, 9.796044,1,0
1778257400066,  2336.182,  2336.177, 0.247457,-0.186677,-0.702955, 0.002429,-0.001498,-0.006002, 3.080626,-0.306752, 1.751818,1, 0.269678,-0.090984,-0.407667,1,-0.408212, 0.236992, 9.795283,1,0
1778257400089,  2336.207,  2336.202, 0.117169,-0.160078,-1.579088, 0.001314,-0.001806,-0.015368, 0.759562,-1.266725,-5.691342,1, 0.195450,-0.037173,-0.389956,1,-0.388692, 0.308715, 9.794080,1,0
1778257400114,  2336.227,  2336.227, 0.218165, 0.001769,-0.716698, 0.002087, 0.000060,-0.007393, 1.741279, 0.366430, 2.763931,1, 0.251779, 0.048673,-0.363019,1,-0.400106, 0.356467, 9.791998,1,0
1778257400136,  2336.252,  2336.247, 0.151288,-0.123461,-1.070314, 0.001377,-0.000697,-0.008909, 1.961823,-0.106132, 4.483161,1, 0.080589,-0.075487,-0.314659,1,-0.393350, 0.387464, 9.791095,1,0
1778257400163,  2336.277,  2336.277, 0.176266,-0.126339,-1.313929, 0.002138,-0.001731,-0.014672, 1.332788,-0.838201,-3.094779,1, 0.058524, 0.073106,-0.293253,1,-0.398468, 0.402197, 9.790294,1,0
1778257400185,  2336.297,  2336.297, 0.169501,-0.112033,-0.703922, 0.001274,-0.000754,-0.006254, 1.254152,-0.687919, 2.886428,1, 0.048106, 0.035762,-0.244849,1,-0.409519, 0.411932, 9.789433,1,0
1778257400206,  2336.322,  2336.317, 0.050113,-0.114244,-1.328436, 0.000741,-0.001726,-0.013047,-0.174340, 0.485702, 0.785164,1,-0.062769,-0.031812,-0.208813,1,-0.405907, 0.400835, 9.790044,1,0
1778257400233,  2336.347,  2336.347, 0.027213,-0.109276,-1.027471,-0.000012,-0.000772,-0.010044,-0.147363,-0.686072,-0.285742,1,-0.021722, 0.028084,-0.264091,1,-0.415426, 0.384538, 9.790298,1,0
1778257400255,  2336.372,  2336.367,-0.122171,-0.138989,-1.216638,-0.001276,-0.001374,-0.011493,-1.618876,-0.499282, 0.743223,1,-0.098266,-0.037295,-0.215245,1,-0.413661, 0.368506, 9.790989,1,0
1778257400276,  2336.392,  2336.387,-0.103004,-0.062301,-1.080808,-0.001201,-0.000445,-0.010646,-1.317383,-0.564174,-1.294430,1,-0.059132,-0.031305,-0.249431,1,-0.409250, 0.353084, 9.791743,1,0
1778257400303,  2336.417,  2336.417, 0.045939,-0.053703,-0.754131, 0.000730,-0.000832,-0.007984, 0.048263,-0.184870, 2.396935,1,-0.013910,-0.042168,-0.283073,1,-0.401240, 0.340980, 9.792503,1,0
1778257400325,  2336.442,  2336.437, 0.165115,-0.111945,-0.765975, 0.001590,-0.000916,-0.007778, 1.950571,-1.355999, 0.110629,1, 0.012112,-0.000155,-0.264288,1,-0.400640, 0.339754, 9.792571,1,0
1778257400346,  2336.462,  2336.457,-0.013485,-0.087061,-1.100369, 0.000436,-0.001305,-0.011217, 0.305019, 0.164979, 1.351501,1, 0.021422,-0.026487,-0.252268,1,-0.400004, 0.342412, 9.792504,1,0
1778257400373,  2336.487,  2336.487,-0.201277,-0.087432,-1.465316,-0.002196,-0.000388,-0.013890,-2.351549,-0.507028,-4.576733,1, 0.050887,-0.094697,-0.219920,1,-0.374991, 0.351707, 9.793164,1,0
1778257400395,  2336.512,  2336.507, 0.028503, 0.026191,-0.731398, 0.000256, 0.000187,-0.008099,-1.765695, 1.092586, 1.557237,1, 0.085649,-0.097795,-0.248412,1,-0.359998, 0.364906, 9.793244,1,0
1778257400416,  2336.532,  2336.527, 0.136702,-0.169564,-0.960091, 0.001043,-0.000766,-0.007841, 0.690995, 0.184730, 1.982502,1, 0.079907,-0.119321,-0.283657,1,-0.339741, 0.381296, 9.793344,1,0
1778257400443,  2336.557,  2336.557, 0.027387,-0.097458,-1.088986, 0.000800,-0.001874,-0.012299,-0.054655,-0.557234,-0.886085,1, 0.040264,-0.030436,-0.202319,1,-0.322534, 0.399552, 9.793198,1,0
1778257400465,  2336.582,  2336.577,-0.160183, 0.072859,-0.935596,-0.001395, 0.000711,-0.009900,-0.812858,-0.625526,-3.881784,1, 0.139849,-0.006316,-0.204705,1,-0.321468, 0.420821, 9.792341,1,0
1778257400486,  2336.602,  2336.597,-0.141481, 0.063077,-1.129821,-0.001452, 0.000305,-0.010871,-2.686986, 1.043949, 1.615388,1, 0.127196,-0.082008,-0.244015,1,-0.312698, 0.441264, 9.791725,1,0
1778257400513,  2336.627,  2336.627,-0.085797,-0.104698,-0.670371,-0.001371,-0.000744,-0.006403,-1.135652,-0.552652, 3.216670,1, 0.170656,-0.095886,-0.232010,1,-0.291628, 0.479188, 9.790593,1,0
1778257400535,  2336.652,  2336.647,-0.021901,-0.121602,-1.012531,-0.000404,-0.001076,-0.008391,-0.801241, 0.572078, 4.122535,1, 0.160411,-0.104837,-0.157564,1,-0.274053, 0.508804, 9.789607,1,0
1778257400557,  2336.672,  2336.667,-0.108977, 0.150862,-1.196046,-0.000555, 0.001150,-0.013090,-0.975578, 0.525950,-1.544807,1, 0.194768,-0.092312,-0.130012,1,-0.260272, 0.544390, 9.788069,1,0
1778257400584,  2336.697,  2336.697,-0.004068,-0.017626,-1.085899,-0.000460, 0.000096,-0.010332,-0.288871, 0.419552,-0.863458,1, 0.253825, 0.009772,-0.162742,1,-0.249583, 0.600179, 9.785085,1,0
1778257400605,  2336.722,  2336.717, 0.170845,-0.102892,-0.885269, 0.001330,-0.001056,-0.007787, 0.835402,-1.087314, 1.246062,1, 0.266317,-0.008119,-0.103813,1,-0.248886, 0.650659, 9.781876,1,0
1778257400627,  2336.742,  2336.737, 0.053323, 0.076997,-1.126662, 0.000776, 0.000657,-0.011796, 0.758706, 1.636724, 0.036503,1, 0.257752, 0.037918,-0.053359,1,-0.251239, 0.702100, 9.778257,1,0
1778257400654,  2336.767,  2336.767, 0.132481, 0.072806,-1.214245, 0.000784, 0.000859,-0.011674, 1.032495, 1.490441,-2.135455,1, 0.309916, 0.033913,-0.032125,1,-0.267831, 0.786069, 9.771425,1,0
1778257400675,  2336.792,  2336.787,-0.002069, 0.092435,-0.868760, 0.000094, 0.000575,-0.009464, 0.487005, 0.438360, 0.622523,1, 0.285810, 0.013514,-0.001831,1,-0.271347, 0.843825, 9.766510,1,0
1778257400698,  2336.812,  2336.812,-0.007471,-0.089008,-1.158002,-0.000299,-0.000866,-0.010474,-0.348078, 0.034377,-1.595403,1, 0.172275, 0.016004, 0.100352,1,-0.275016, 0.912692, 9.760212,1,0
1778257400724,  2336.837,  2336.837,-0.144829,-0.013404,-0.861102,-0.000855,-0.000153,-0.009567,-1.693968, 0.807603, 1.313217,1, 0.141643,-0.011953, 0.179322,1,-0.272771, 0.943606, 9.757335,1,0
1778257400745,  2336.862,  2336.857,-0.599507, 0.007362,-0.964008,-0.004848, 0.000190,-0.010843,-3.309972, 0.931666, 0.039521,1, 0.088443,-0.013751, 0.159835,1,-0.264321, 0.963788, 9.755595,1,0
1778257400768,  2336.882,  2336.882,-0.742706,-0.144809,-1.373455,-0.008428,-0.001054,-0.012284,-7.530658,-0.446340,-3.713943,1, 0.035504,-0.044537, 0.174480,1,-0.245273, 0.974990, 9.754979,1,0
1778257400794,  2336.907,  2336.907,-0.988621,-0.135818,-0.892440,-0.009338,-0.002072,-0.010118,-9.918784,-0.354114, 1.003369,1,-0.023732,-0.152349, 0.159567,1,-0.218493, 0.977183, 9.755397,1,0
1778257400815,  2336.932,  2336.927,-0.925529,-0.027386,-1.164340,-0.008986,-0.000399,-0.012320,-10.787330, 0.221238,-0.767450,1,-0.079928,-0.071058, 0.158028,1,-0.195738, 0.970110, 9.756585,1,0
1778257400838,  2336.952,  2336.952,-0.596554,-0.155710,-1.084906,-0.006085,-0.001597,-0.011287,-6.008250,-0.585460,-0.879225,1,-0.072405,-0.193668, 0.117917,1,-0.151685, 0.939340, 9.760380,1,0
1778257400864,  2336.977,  2336.977,-0.397251,-0.020851,-1.134639,-0.004068, 0.000072,-0.010809,-4.009397, 0.727225,-1.365388,1,-0.046449,-0.251462, 0.068701,1,-0.105682, 0.930287, 9.761853,1,0
1778257400885,  2337.002,  2336.997,-0.536271,-0.185397,-0.845669,-0.005489,-0.002044,-0.008456,-5.115953,-0.092296, 1.049046,1,-0.014118,-0.294366, 0.028553,1,-0.049035, 0.925203, 9.762785,1,0
1778257400908,  2337.022,  2337.022,-0.544671, 0.054697,-1.036969,-0.005473, 0.000577,-0.009862,-5.303338, 1.465767,-0.406766,1,-0.013986,-0.346265,-0.078111,1, 0.048587, 0.928951, 9.762432,1,0
1778257400934,  2337.047,  2337.047,-0.451605,-0.040305,-1.173709,-0.004367,-0.000376,-0.012165,-4.323045, 0.524921,-1.747354,1,-0.067003,-0.373488,-0.064701,1, 0.117106, 0.918115, 9.762876,1,0
1778257400955,  2337.072,  2337.067,-0.552335, 0.036199,-1.172843,-0.005452, 0.000326,-0.011687,-4.646065, 0.350437,-1.944881,1,-0.002777,-0.494134,-0.129703,1, 0.203596, 0.913032, 9.761931,1,0
1778257400978,  2337.092,  2337.092,-0.677798, 0.016932,-0.921726,-0.006628, 0.000161,-0.009540,-6.304744, 1.090040, 0.717962,1, 0.054940,-0.568457,-0.135303,1, 0.359438, 0.925849, 9.756228,1,0
1778257401004,  2337.117,  2337.117,-0.799662,-0.103691,-0.966393,-0.007760,-0.000999,-0.009501,-7.384943,-0.084734, 0.274438,1, 0.004573,-0.635637,-0.174573,1, 0.476276, 0.932523, 9.750587,1,0
1778257401026,  2337.142,  2337.137, 0.227867, 0.057346,-1.029625, 0.002010, 0.000526,-0.010623,-0.875117, 0.912598,-1.605007,1, 0.012709,-0.639226,-0.227986,1, 0.597753, 0.936321, 9.743530,1,0
1778257401048,  2337.167,  2337.162, 0.175266,-0.075942,-0.753739, 0.002083,-0.000610,-0.007684, 2.472376, 0.220715, 2.338194,1, 0.148185,-0.579556,-0.206717,1, 0.770917, 0.970537, 9.728007,1,0
1778257401074,  2337.187,  2337.187,-0.209068,-0.125980,-0.649864,-0.001956,-0.001293,-0.006454,-1.202157,-0.240235, 3.346081,1, 0.120914,-0.443701,-0.266513,1, 0.860985, 0.999665, 9.717498,1,0
1778257401096,  2337.212,  2337.207,-0.135192,-0.005181,-1.039285,-0.001427, 0.000012,-0.010142,-1.058259, 1.063387, 1.316071,1, 0.074945,-0.376236,-0.297697,1, 0.930867, 1.021521, 9.708777,1,0
1778257401118,  2337.237,  2337.232,-0.136076,-0.111271,-1.154470,-0.001255,-0.001074,-0.011559,-0.316469,-0.033917,-1.625296,1, 0.139829,-0.370367,-0.334723,1, 1.028289, 1.062674, 9.694521,1,0
1778257401144,  2337.257,  2337.257,-0.214711,-0.013635,-0.937003,-0.002139,-0.000211,-0.009639,-1.021704, 0.965698, 0.495495,1, 0.188465,-0.387563,-0.374778,1, 1.094525, 1.106510, 9.682357,1,0
1778257401166,  2337.282,  2337.277,-0.052360,-0.114249,-0.851692,-0.000603,-0.001077,-0.008463,-0.053596, 0.586228, 1.488161,1, 0.158058,-0.359830,-0.381644,1, 1.158907, 1.148765, 9.669936,1,0
1778257401189,  2337.307,  2337.302,-0.043769,-0.059334,-0.830392,-0.000351,-0.000693,-0.008305, 0.788529, 0.626126, 1.512099,1, 0.211831,-0.224625,-0.462546,1, 1.222888, 1.216292, 9.653785,1,0
1778257401214,  2337.327,  2337.327,-0.216474, 0.020005,-0.867164,-0.002048, 0.000256,-0.008614,-0.877742, 1.459102, 1.140965,1, 0.230577,-0.186159,-0.466515,1, 1.248985, 1.271847, 9.643279,1,0
1778257401236,  2337.352,  2337.347,-0.202886,-0.144900,-0.999731,-0.002111,-0.001457,-0.009971,-1.231684, 0.170261, 0.027183,1, 0.210917,-0.157678,-0.491175,1, 1.268688, 1.326188, 9.633382,1,0
1778257401259,  2337.377,  2337.372,-0.102812,-0.063419,-0.941473,-0.001047,-0.000660,-0.009506, 0.274795, 0.769673, 0.389551,1, 0.147936,-0.111275,-0.570961,1, 1.283922, 1.398459, 9.621135,1,0
1778257401284,  2337.397,  2337.397,-0.123174,-0.094793,-0.858788,-0.001173,-0.000902,-0.008641, 0.076360, 0.499132, 1.194799,1, 0.091269,-0.074435,-0.597364,1, 1.283843, 1.433971, 9.615917,1,0
1778257401306,  2337.422,  2337.417,-0.148978,-0.105478,-0.854380,-0.001533,-0.001073,-0.008485,-0.325474, 0.265321, 1.409685,1, 0.041539,-0.015794,-0.648456,1, 1.272434, 1.461806, 9.613242,1,0
1778257401329,  2337.447,  2337.442,-0.117874,-0.094025,-0.922308,-0.001176,-0.000914,-0.009178, 0.079844, 0.560934, 0.570022,1,-0.036673, 0.067192,-0.715661,1, 1.230362, 1.484703, 9.615210,1,0
1778257401355,  2337.467,  2337.467,-0.152107,-0.112737,-0.952439,-0.001501,-0.001133,-0.009542,-0.294226, 0.385176, 0.278191,1,-0.060970, 0.098498,-0.763470,1, 1.190796, 1.491172, 9.619189,1,0
1778257401376,  2337.492,  2337.487,-0.150854,-0.072391,-0.924829,-0.001557,-0.000707,-0.009285,-0.493111, 0.679242, 0.351164,1,-0.073205, 0.120092,-0.813393,1, 1.145255, 1.496295, 9.623922,1,0
1778257401403,  2337.517,  2337.517,-0.078024,-0.100161,-0.892088,-0.000837,-0.000989,-0.008929, 0.307888, 0.517940, 0.883236,1,-0.090605, 0.170759,-0.871465,1, 1.063650, 1.500385, 9.632647,1,0
1778257401425,  2337.537,  2337.537,-0.038145,-0.106093,-0.921354,-0.000388,-0.001073,-0.009180, 0.635171, 0.461231, 0.602898,1,-0.090250, 0.208860,-0.922928,1, 0.998423, 1.501845, 9.639399,1,0
1778257401446,  2337.562,  2337.557,-0.103761,-0.086813,-0.968709,-0.001019,-0.000863,-0.009683, 0.179480, 0.672961, 0.311698,1,-0.095353, 0.233703,-0.963641,1, 0.926002, 1.501969, 9.646605,1,0
1778257401473,  2337.587,  2337.587,-0.094677,-0.091470,-0.991441,-0.001000,-0.000917,-0.009916,-0.104537, 0.601601,-0.066340,1,-0.113321, 0.240956,-1.021432,1, 0.811647, 1.497815, 9.657544,1,0
1778257401495,  2337.612,  2337.607, 0.038439,-0.122626,-1.000171, 0.000342,-0.001174,-0.009970, 0.726936, 0.506716,-0.065388,1,-0.130731, 0.238863,-1.060491,1, 0.733895, 1.489384, 9.665067,1,0
1778257401516,  2337.632,  2337.627, 0.006454,-0.515126,-1.057403, 0.000059,-0.004931,-0.010472, 1.135258,-1.388857,-0.534930,1,-0.101354, 0.212772,-1.106756,1, 0.657691, 1.480606, 9.671899,1,0
1778257401543,  2337.657,  2337.657,-0.046064,-0.618662,-1.131682,-0.000465,-0.006175,-0.011372, 0.115241,-4.580598,-1.421263,1,-0.034488, 0.153865,-1.051536,1, 0.557262, 1.487244, 9.677187,1,0
1778257401565,  2337.682,  2337.677,-0.015366,-1.096407,-0.993109,-0.000336,-0.010667,-0.009899,-0.027646,-7.140814,-0.505022,1,-0.048664, 0.065141,-0.698915,1, 0.513286, 1.487358, 9.679602,1,0
1778257401586,  2337.702,  2337.697, 0.030375,-0.679727,-0.863029, 0.000225,-0.007187,-0.008719, 0.466961,-7.255305, 0.455457,1,-0.036715,-0.001038,-0.384989,1, 0.497161, 1.486713, 9.680542,1,0
1778257401613,  2337.727,  2337.727, 0.146525, 0.056626,-0.966070, 0.001350,-0.000019,-0.009196, 1.922197, 2.030483, 0.209001,1,-0.147685, 0.074566, 0.112646,1, 0.483503, 1.470451, 9.683718,1,0
1778257401635,  2337.752,  2337.747,-0.274884,-0.602881,-1.060276,-0.002592,-0.006008,-0.010576,-0.580996,-1.495944,-0.831720,1,-0.136582, 0.125807, 0.492469,1, 0.471903, 1.430996, 9.690198,1,0
1778257401656,  2337.772,  2337.767,-0.218256,-0.000047,-1.126370,-0.002454,-0.000642,-0.011219,-2.759637,-3.077129,-1.023834,1,-0.044859, 0.052233, 0.389703,1, 0.468785, 1.410827, 9.693307,1,0
1778257401683,  2337.797,  2337.797, 0.034776, 0.085563,-0.890185, 0.000267, 0.001321,-0.009044, 0.813550, 2.250044, 0.963377,1, 0.060948, 0.059032, 0.448740,1, 0.472712, 1.412163, 9.692922,1,0
1778257401705,  2337.822,  2337.817, 0.024531,-0.180831,-0.878567, 0.000274,-0.002173,-0.008739, 0.918243,-1.474248, 1.506248,1, 0.129443, 0.093599, 0.364486,1, 0.468732, 1.428695, 9.690692,1,0
1778257401726,  2337.842,  2337.837,-0.070435, 0.097675,-0.882368,-0.000609, 0.001051,-0.008816, 0.363260, 1.722539, 0.943718,1, 0.143314, 0.174003, 0.283197,1, 0.448589, 1.455133, 9.687711,1,0
1778257401753,  2337.867,  2337.867,-0.194246,-0.162579,-0.997203,-0.001935,-0.001502,-0.009850,-1.495831,-0.111566,-0.093958,1, 0.116386, 0.192678, 0.289115,1, 0.404107, 1.486231, 9.684947,1,0
1778257401775,  2337.892,  2337.887, 0.026302, 0.016063,-1.007430, 0.000170, 0.000125,-0.010173,-0.235336, 0.808165,-0.797853,1, 0.115823, 0.195983, 0.208864,1, 0.373537, 1.507479, 9.682890,1,0
1778257401797,  2337.912,  2337.907, 0.030709,-0.122966,-0.954066, 0.000367,-0.001074,-0.009523, 0.898489, 1.359635, 0.259985,1, 0.106370, 0.187977, 0.210926,1, 0.342421, 1.527075, 9.680969,1,0
1778257401824,  2337.937,  2337.937,-0.026589,-0.150603,-0.970905,-0.000270,-0.001627,-0.009729, 0.039431, 0.075712, 0.156976,1, 0.101428, 0.199449, 0.116717,1, 0.294607, 1.555632, 9.677996,1,0
1778257401845,  2337.962,  2337.957,-0.047376,-0.066313,-0.972584,-0.000460,-0.000560,-0.009673,-0.038194, 1.282465, 0.337584,1, 0.073576, 0.204540, 0.085405,1, 0.257685, 1.571236, 9.676528,1,0
1778257401867,  2337.982,  2337.977,-0.050881,-0.153381,-1.003284,-0.000551,-0.001560,-0.010053,-0.364875, 0.290395,-0.124508,1, 0.057596, 0.201318, 0.054419,1, 0.221009, 1.582715, 9.675565,1,0
1778257401894,  2338.007,  2338.007, 0.005372,-0.073004,-0.949130, 0.000024,-0.000768,-0.009527, 0.219200, 0.879961, 0.366704,1, 0.041975, 0.215610,-0.031805,1, 0.159714, 1.597190, 9.674392,1,0
1778257401915,  2338.032,  2338.027,-0.016622,-0.141182,-0.958646,-0.000167,-0.001377,-0.009579, 0.099533, 0.554184, 0.337992,1, 0.031244, 0.226260,-0.064428,1, 0.115249, 1.603793, 9.673931,1,0
1778257401938,  2338.052,  2338.052,-0.018745,-0.106127,-0.947109,-0.000198,-0.001118,-0.009462,-0.137080, 0.569208, 0.385504,1, 0.012296, 0.257017,-0.149987,1, 0.038067, 1.610363, 9.673451,1,0
1778257401964,  2338.077,  2338.077,-0.026089,-0.092744,-0.961726,-0.000270,-0.000885,-0.009603,-0.264663, 0.699836, 0.242377,1,-0.010833, 0.271666,-0.184440,1,-0.018089, 1.608969, 9.673741,1,0
1778257401985,  2338.102,  2338.097, 0.134895,-0.466388,-1.611796, 0.001152,-0.004132,-0.015095, 0.673141,-2.294918,-3.240160,1, 0.090355, 0.184282,-0.189941,1,-0.072959, 1.612953, 9.672820,1,0
1778257402008,  2338.122,  2338.122, 0.010668,-0.447415,-1.115279, 0.000009,-0.004555,-0.011891, 0.026883,-2.772126,-1.264800,1, 0.009341, 0.027484, 0.193411,1,-0.077582, 1.615854, 9.672299,1,0
1778257402034,  2338.147,  2338.147, 0.053993,-0.067462,-0.571622, 0.000431,-0.000760,-0.005556, 0.450196, 0.949522, 4.067382,1,-0.039203,-0.008324, 0.034482,1,-0.078863, 1.609900, 9.673282,1,0
1778257402055,  2338.172,  2338.167, 0.042827,-0.158180,-1.215269, 0.000332,-0.001522,-0.011798, 0.113548, 1.045132, 0.631386,1,-0.125545,-0.038978,-0.120634,1,-0.073040, 1.588134, 9.676925,1,0
1778257402078,  2338.192,  2338.192, 0.137625,-0.311391,-1.099384, 0.001420,-0.003199,-0.011329, 1.269567,-1.510613,-1.097126,1,-0.158959, 0.016463, 0.043806,1,-0.080369, 1.538197, 9.684930,1,0
1778257402104,  2338.217,  2338.217, 0.016260,-0.129990,-0.864156, 0.000178,-0.001449,-0.008723, 0.080347, 0.240802, 1.214034,1,-0.138629, 0.021118, 0.056279,1,-0.079489, 1.511306, 9.689170,1,0
1778257402125,  2338.242,  2338.237,-0.019478,-0.069380,-1.025798,-0.000188,-0.000529,-0.010077,-0.152197, 1.430872, 1.002370,1,-0.128576, 0.044052,-0.045380,1,-0.088983, 1.485584, 9.693065,1,0
1778257402148,  2338.262,  2338.262,-0.009756,-0.316582,-1.126074,-0.000135,-0.003070,-0.011320,-0.191893,-1.658347,-1.344075,1,-0.158554, 0.020266,-0.011287,1,-0.097139, 1.442202, 9.699536,1,0
1778257402174,  2338.287,  2338.287,-0.010518,-0.232442,-0.912044,-0.000060,-0.002491,-0.009207,-0.202523,-0.859395, 0.758675,1,-0.136016, 0.008044, 0.007839,1,-0.099587, 1.415886, 9.703388,1,0
1778257402196,  2338.312,  2338.307,-0.036031,-0.033860,-0.981633,-0.000404,-0.000284,-0.009685,-0.544055, 1.119687, 0.779490,1,-0.152271, 0.006070,-0.032132,1,-0.100749, 1.388080, 9.707393,1,0
1778257402218,  2338.332,  2338.332,-0.000596,-0.202198,-1.050877,-0.000018,-0.001904,-0.010522,-0.111778,-0.639553,-0.591954,1,-0.176534, 0.008815,-0.034841,1,-0.106351, 1.337862, 9.714381,1,0
1778257402244,  2338.357,  2338.357, 0.004778,-0.224279,-0.990564, 0.000057,-0.002349,-0.009987,-0.060899,-0.889365, 0.004034,1,-0.167076, 0.006400,-0.015124,1,-0.108013, 1.304885, 9.718847,1,0
1778257402266,  2338.382,  2338.377,-0.014459,-0.045013,-0.949803,-0.000145,-0.000460,-0.009456,-0.232369, 0.533226, 0.572093,1,-0.167436, 0.010267,-0.024231,1,-0.110362, 1.273080, 9.723039,1,0
1778257402288,  2338.407,  2338.402, 0.005396,-0.126735,-1.019456, 0.000030,-0.001196,-0.010172,-0.060665,-0.014866,-0.268647,1,-0.167326, 0.005287,-0.038888,1,-0.113895, 1.222785, 9.729450,1,0
1778257402314,  2338.427,  2338.427, 0.024889,-0.173739,-1.013465, 0.000248,-0.001776,-0.010157, 0.128930,-0.506136,-0.206141,1,-0.141027, 0.000220,-0.031000,1,-0.115271, 1.193281, 9.733097,1,0
1778257402336,  2338.452,  2338.447, 0.020905,-0.061657,-0.958758, 0.000203,-0.000639,-0.009587, 0.091748, 0.287977, 0.246549,1,-0.129586, 0.001363,-0.025627,1,-0.115989, 1.167636, 9.736198,1,0
1778257402358,  2338.477,  2338.472, 0.026553,-0.093742,-0.983141, 0.000255,-0.000888,-0.009797, 0.144561, 0.215988, 0.098706,1,-0.129804, 0.008596,-0.033385,1,-0.116120, 1.131311, 9.740484,1,0
1778257402384,  2338.497,  2338.497, 0.026217,-0.140862,-1.008685, 0.000272,-0.001428,-0.010108, 0.138693,-0.271540,-0.148900,1,-0.127476, 0.011516,-0.027024,1,-0.118864, 1.105881, 9.743371,1,0
1778257402406,  2338.522,  2338.517, 0.017418,-0.078717,-0.978186, 0.000175,-0.000818,-0.009788, 0.088810, 0.024007, 0.011127,1,-0.124715, 0.006641,-0.017479,1,-0.120988, 1.081327, 9.746100,1,0
1778257402429,  2338.547,  2338.542, 0.026955,-0.071488,-0.971590, 0.000260,-0.000703,-0.009716, 0.142034, 0.344869, 0.221904,1,-0.149250, 0.002598,-0.015320,1,-0.122436, 1.041288, 9.750442,1,0
1778257402454,  2338.567,  2338.567, 0.039947,-0.107408,-0.998754, 0.000398,-0.001073,-0.009978, 0.268593,-0.038376,-0.041221,1,-0.164477, 0.004429,-0.009932,1,-0.123321, 1.009823, 9.753739,1,0
1778257402476,  2338.592,  2338.587, 0.034126,-0.108390,-0.993407, 0.000341,-0.001096,-0.009945, 0.260969,-0.150247,-0.057267,1,-0.168509, 0.012164, 0.005190,1,-0.125344, 0.977029, 9.757053,1,0
1778257402499,  2338.617,  2338.612, 0.028915,-0.116916,-0.990204, 0.000290,-0.001176,-0.009909, 0.155096,-0.213353, 0.050718,1,-0.165932, 0.012086, 0.015685,1,-0.128792, 0.928050, 9.761788,1,0
1778257402524,  2338.637,  2338.637, 0.033946,-0.097592,-0.989134, 0.000335,-0.001006,-0.009886, 0.202904,-0.055676, 0.064177,1,-0.161936, 0.005817, 0.004731,1,-0.130160, 0.896342, 9.764733,1,0
1778257402546,  2338.662,  2338.657, 0.052868,-0.074573,-0.995399, 0.000518,-0.000743,-0.009955, 0.314840, 0.174511, 0.027759,1,-0.157639, 0.001737,-0.003899,1,-0.130651, 0.865349, 9.767522,1,0
1778257402569,  2338.687,  2338.682, 0.061871,-0.090413,-0.991537, 0.000619,-0.000902,-0.009920, 0.471688,-0.067847, 0.047815,1,-0.162151, 0.012476, 0.003785,1,-0.135443, 0.813751, 9.771891,1,0
1778257402594,  2338.707,  2338.707, 0.053582,-0.087356,-0.985050, 0.000543,-0.000891,-0.009852, 0.387643,-0.069468, 0.113986,1,-0.162033, 0.016293, 0.004770,1,-0.138310, 0.782163, 9.774429,1,0
1778257402616,  2338.732,  2338.727, 0.033148,-0.083632,-0.997646, 0.000331,-0.000834,-0.009969, 0.228898,-0.025282, 0.045326,1,-0.164316, 0.017564, 0.002281,1,-0.141528, 0.750417, 9.776872,1,0
1778257402643,  2338.757,  2338.757, 0.031330,-0.094189,-0.998259, 0.000314,-0.000950,-0.009986, 0.161400,-0.216945,-0.009514,1,-0.167405, 0.014517,-0.000711,1,-0.146291, 0.701525, 9.780432,1,0
1778257402665,  2338.777,  2338.777, 0.029336,-0.082379,-0.992653, 0.000292,-0.000849,-0.009931, 0.139252,-0.133769, 0.047727,1,-0.167666, 0.012366,-0.002865,1,-0.148824, 0.668873, 9.782681,1,0
1778257402686,  2338.802,  2338.797, 0.031217,-0.061014,-0.990683, 0.000313,-0.000618,-0.009902, 0.147984, 0.020972, 0.089881,1,-0.168597, 0.013562,-0.003781,1,-0.151463, 0.635913, 9.784838,1,0
1778257402713,  2338.827,  2338.827, 0.031529,-0.063302,-0.994603, 0.000316,-0.000643,-0.009949, 0.153739,-0.028903, 0.033813,1,-0.164926, 0.015534,-0.004933,1,-0.155950, 0.586739, 9.787840,1,0
1778257402735,  2338.852,  2338.847, 0.025733,-0.054363,-0.988788, 0.000257,-0.000552,-0.009887, 0.105281,-0.006315, 0.085202,1,-0.165631, 0.015859,-0.003735,1,-0.159108, 0.554432, 9.789672,1,0
1778257402756,  2338.872,  2338.867, 0.025413,-0.052008,-0.997026, 0.000256,-0.000531,-0.009964, 0.092187, 0.013604, 0.058351,1,-0.168607, 0.014557,-0.000727,1,-0.163134, 0.521372, 9.791422,1,0
1778257402783,  2338.897,  2338.897, 0.026692,-0.052243,-0.997106, 0.000264,-0.000535,-0.009978, 0.094734,-0.036332, 0.015390,1,-0.175069, 0.015979, 0.000490,1,-0.167520, 0.470536, 9.793922,1,0
1778257402805,  2338.922,  2338.917, 0.025206,-0.041977,-0.990862, 0.000249,-0.000431,-0.009908, 0.068870,-0.005013, 0.083927,1,-0.177122, 0.013607, 0.001101,1,-0.170334, 0.435934, 9.795475,1,0
1778257402826,  2338.942,  2338.937, 0.031409,-0.034782,-0.994055, 0.000310,-0.000361,-0.009940, 0.096677, 0.027537, 0.070393,1,-0.178131, 0.011756, 0.003015,1,-0.172857, 0.401006, 9.796923,1,0
1778257402853,  2338.967,  2338.967, 0.038747,-0.024545,-0.997419, 0.000384,-0.000257,-0.009970, 0.204658, 0.113961, 0.017329,1,-0.173789, 0.008728, 0.006537,1,-0.175585, 0.349251, 9.798856,1,0
1778257402875,  2338.992,  2338.987, 0.043850,-0.018741,-0.991535, 0.000435,-0.000195,-0.009918, 0.243509, 0.129971, 0.036174,1,-0.164438, 0.011355, 0.007839,1,-0.177489, 0.316382, 9.799938,1,0
1778257402896,  2339.012,  2339.007, 0.041389,-0.010690,-0.990222, 0.000415,-0.000115,-0.009899, 0.241580, 0.147530, 0.109496,1,-0.150748, 0.011810, 0.010902,1,-0.179754, 0.285904, 9.800833,1,0
1778257402923,  2339.037,  2339.037, 0.036698,-0.007487,-1.001840, 0.000372,-0.000076,-0.010011, 0.177248, 0.175736,-0.022915,1,-0.130867, 0.011780, 0.016316,1,-0.182991, 0.245089, 9.801879,1,0
1778257402945,  2339.062,  2339.057, 0.028254,-0.012673,-0.991035, 0.000291,-0.000132,-0.009922, 0.120232, 0.118370, 0.008943,1,-0.110994, 0.011949, 0.015569,1,-0.185285, 0.222220, 9.802381,1,0
1778257402966,  2339.082,  2339.077, 0.020524,-0.005354,-0.990311, 0.000201,-0.000059,-0.009894, 0.040706, 0.091741, 0.094950,1,-0.088813, 0.011778, 0.019146,1,-0.189815, 0.201498, 9.802742,1,0
1778257402993,  2339.107,  2339.107, 0.014579,-0.002233,-0.996520, 0.000150,-0.000022,-0.009962,-0.049683, 0.159838, 0.030546,1,-0.064442, 0.009407, 0.016566,1,-0.192942, 0.179731, 9.803104,1,0
1778257403015,  2339.132,  2339.127, 0.013863,-0.016270,-0.999913, 0.000135,-0.000160,-0.010001,-0.063062, 0.055961,-0.013319,1,-0.054995, 0.004856, 0.017675,1,-0.194032, 0.168406, 9.803284,1,0
1778257403037,  2339.152,  2339.147, 0.015363,-0.011194,-0.995704, 0.000153,-0.000128,-0.009958,-0.051152, 0.006992, 0.011691,1,-0.046789, 0.002670, 0.019863,1,-0.194710, 0.158665, 9.803433,1,0
1778257403064,  2339.177,  2339.177, 0.015523,-0.003124,-0.992554, 0.000153,-0.000026,-0.009924,-0.042512, 0.117381, 0.069969,1,-0.039072,-0.000569, 0.017517,1,-0.194718, 0.146807, 9.803617,1,0
1778257403085,  2339.202,  2339.197, 0.022420,-0.014749,-0.998237, 0.000223,-0.000146,-0.009976, 0.013114, 0.027001, 0.028450,1,-0.037785, 0.001046, 0.023368,1,-0.194662, 0.139509, 9.803725,1,0
1778257403107,  2339.222,  2339.217, 0.020115,-0.012631,-0.992421, 0.000197,-0.000129,-0.009932, 0.007827,-0.013987, 0.025535,1,-0.035194, 0.002789, 0.025245,1,-0.195007, 0.132566, 9.803815,1,0
1778257403134,  2339.247,  2339.247, 0.017404,-0.013076,-0.991377, 0.000176,-0.000131,-0.009908,-0.025376,-0.004298, 0.081816,1,-0.034713, 0.004992, 0.028516,1,-0.196193, 0.122867, 9.803917,1,0
1778257403155,  2339.272,  2339.267, 0.026673,-0.020116,-0.995800, 0.000258,-0.000207,-0.009972, 0.006949,-0.084676, 0.024696,1,-0.037448, 0.005122, 0.028943,1,-0.195788, 0.111154, 9.804066,1,0
1778257403178,  2339.292,  2339.292, 0.025617,-0.006986,-0.997477, 0.000263,-0.000081,-0.009982, 0.054008, 0.032833, 0.022237,1,-0.038005, 0.004091, 0.028711,1,-0.197326, 0.100175, 9.804152,1,0
1778257403204,  2339.317,  2339.317, 0.020709,-0.010503,-0.994916, 0.000206,-0.000095,-0.009951, 0.005227,-0.009121, 0.047414,1,-0.037757, 0.004421, 0.026205,1,-0.197990, 0.092718, 9.804213,1,0
1778257403225,  2339.342,  2339.337, 0.018985,-0.027685,-0.996589, 0.000196,-0.000285,-0.009968, 0.012086,-0.185135, 0.051043,1,-0.037890, 0.005219, 0.023115,1,-0.198892, 0.085183, 9.804263,1,0
1778257403248,  2339.362,  2339.362, 0.013111,-0.017980,-0.997778, 0.000134,-0.000182,-0.009974,-0.071434,-0.100752, 0.019458,1,-0.035437, 0.003881, 0.015212,1,-0.200131, 0.074472, 9.804325,1,0
1778257403274,  2339.387,  2339.387, 0.008842,-0.013747,-0.993930, 0.000090,-0.000137,-0.009945,-0.114026,-0.065890, 0.057226,1,-0.033153, 0.004007, 0.014527,1,-0.200854, 0.067893, 9.804358,1,0
1778257403295,  2339.412,  2339.407, 0.006489,-0.016081,-0.998393, 0.000067,-0.000162,-0.009981,-0.129187,-0.088553, 0.034674,1,-0.034178, 0.004168, 0.013924,1,-0.201629, 0.061385, 9.804385,1,0
1778257403318,  2339.432,  2339.432, 0.008120,-0.016228,-0.996169, 0.000078,-0.000163,-0.009968,-0.122832,-0.106986, 0.035337,1,-0.037797, 0.002630, 0.007701,1,-0.202544, 0.050979, 9.804425,1,0
1778257403344,  2339.457,  2339.457, 0.016457,-0.017845,-0.995802, 0.000159,-0.000177,-0.009952,-0.041420,-0.130821, 0.038969,1,-0.044505, 0.000651, 0.008724,1,-0.202827, 0.042792, 9.804459,1,0
1778257403365,  2339.482,  2339.477, 0.028463,-0.007813,-0.996912, 0.000280,-0.000091,-0.009976, 0.044284,-0.088513,-0.000885,1,-0.049643, 0.000687, 0.008897,1,-0.200889, 0.035304, 9.804528,1,0
1778257403388,  2339.502,  2339.502, 0.031482, 0.001133,-0.990921, 0.000310, 0.000007,-0.009912, 0.107380, 0.032809, 0.086943,1,-0.052448, 0.001215, 0.008092,1,-0.201395, 0.020066, 9.804562,1,0
1778257403414,  2339.527,  2339.527, 0.035705,-0.002209,-0.996321, 0.000354,-0.000020,-0.009958, 0.148385,-0.010271, 0.033990,1,-0.052785, 0.003047, 0.009453,1,-0.201852, 0.009750, 9.804567,1,0
1778257403436,  2339.552,  2339.547, 0.039952,-0.011616,-0.995023, 0.000392,-0.000117,-0.009945, 0.171608,-0.092761, 0.002533,1,-0.055791, 0.004211, 0.010325,1,-0.202601,-0.000832, 9.804557,1,0
1778257403458,  2339.572,  2339.572, 0.039478,-0.006167,-0.994801, 0.000390,-0.000068,-0.009951, 0.183386,-0.077094, 0.048851,1,-0.062593, 0.004575, 0.011670,1,-0.203904,-0.018559, 9.804512,1,0
1778257403484,  2339.597,  2339.597, 0.037459, 0.000340,-0.996414, 0.000389,-0.000026,-0.009970, 0.162563,-0.026365, 0.032983,1,-0.068573, 0.005389, 0.011700,1,-0.204959,-0.031833, 9.804457,1,0
1778257403506,  2339.622,  2339.617, 0.023552, 0.010400,-0.989695, 0.000246, 0.000101,-0.009893, 0.064243, 0.014485, 0.010016,1,-0.079401, 0.011430, 0.017130,1,-0.206833,-0.047105, 9.804356,1,0
1778257403528,  2339.647,  2339.642, 0.015547, 0.004331,-0.992869, 0.000154, 0.000058,-0.009917,-0.057518,-0.027669, 0.067430,1,-0.089788, 0.009290, 0.021114,1,-0.210276,-0.072928, 9.804124,1,0
1778257403554,  2339.667,  2339.667, 0.016630,-0.004272,-1.006308, 0.000160,-0.000053,-0.010029,-0.048798,-0.129490,-0.064544,1,-0.095662, 0.003469, 0.017530,1,-0.212865,-0.089818, 9.803928,1,0
1778257403576,  2339.692,  2339.687, 0.050247, 0.022931,-0.994375, 0.000496, 0.000198,-0.009953, 0.189202,-0.074871,-0.017058,1,-0.068240,-0.006730, 0.012672,1,-0.212399,-0.105452, 9.803782,1,0
1778257403599,  2339.717,  2339.712, 0.070551, 0.045541,-0.982004, 0.000689, 0.000465,-0.009827, 0.481315, 0.325970, 0.173477,1,-0.048234,-0.002342, 0.017908,1,-0.210488,-0.122126, 9.803630,1,0
1778257403624,  2339.737,  2339.737, 0.086348, 0.032533,-0.989019, 0.000866, 0.000345,-0.009865, 0.636244, 0.191676, 0.104597,1,-0.025601, 0.000981, 0.019757,1,-0.210577,-0.128152, 9.803552,1,0
1778257403646,  2339.762,  2339.757, 0.079799, 0.021151,-0.999384, 0.000804, 0.000206,-0.009998, 0.604150, 0.083834,-0.001199,1,-0.007654, 0.007188, 0.023419,1,-0.211572,-0.130416, 9.803500,1,0
1778257403669,  2339.787,  2339.782, 0.070658, 0.026796,-0.995165, 0.000710, 0.000276,-0.009940, 0.479064, 0.132959, 0.044221,1, 0.005254, 0.004747, 0.030967,1,-0.214010,-0.129640, 9.803457,1,0
1778257403694,  2339.807,  2339.807, 0.074895, 0.021918,-0.992484, 0.000741, 0.000218,-0.009932, 0.520148, 0.086403, 0.070522,1, 0.003170,-0.000415, 0.031549,1,-0.214320,-0.128414, 9.803467,1,0
1778257403716,  2339.832,  2339.827, 0.100544, 0.012876,-0.994455, 0.000993, 0.000126,-0.009946, 0.686106,-0.006811, 0.052749,1,-0.005920,-0.005559, 0.038658,1,-0.213574,-0.128551, 9.803481,1,0
1778257403739,  2339.857,  2339.852, 0.118488, 0.020981,-0.980388, 0.001167, 0.000201,-0.009819, 0.950034, 0.072553, 0.189130,1,-0.030613,-0.006877, 0.053810,1,-0.211744,-0.134116, 9.803447,1,0
1778257403764,  2339.877,  2339.877, 0.130988, 0.021428,-0.978326, 0.001302, 0.000218,-0.009756, 1.073241, 0.068721, 0.209247,1,-0.047018,-0.005947, 0.059680,1,-0.211180,-0.142873, 9.803335,1,0
1778257403786,  2339.902,  2339.897, 0.122678, 0.023383,-1.023576, 0.001243, 0.000225,-0.010231, 1.056403, 0.056421,-0.158568,1,-0.061626, 0.004650, 0.068219,1,-0.211563,-0.153946, 9.803159,1,0
1778257403809,  2339.927,  2339.922, 0.096350, 0.021120,-0.989480, 0.000991, 0.000212,-0.009924, 0.730729, 0.035361, 0.099321,1,-0.072098, 0.007473, 0.083481,1,-0.214424,-0.173952, 9.802762,1,0
1778257403835,  2339.947,  2339.947, 0.065764, 0.015010,-0.971466, 0.000670, 0.000149,-0.009715, 0.429165,-0.038888, 0.275682,1,-0.077648, 0.006957, 0.084223,1,-0.216024,-0.188447, 9.802459,1,0
1778257403856,  2339.972,  2339.967, 0.039993, 0.018601,-1.001703, 0.000405, 0.000182,-0.010007, 0.268658,-0.068618, 0.103586,1,-0.085718, 0.000721, 0.083919,1,-0.216914,-0.204300, 9.802122,1,0
1778257403883,  2339.997,  2339.997, 0.029384, 0.021463,-1.021612, 0.000300, 0.000209,-0.010226, 0.072068,-0.016482,-0.216950,1,-0.088047,-0.011152, 0.088842,1,-0.215809,-0.229653, 9.801585,1,0
1778257403905,  2340.017,  2340.017, 0.031487, 0.021460,-1.029383, 0.000296, 0.000206,-0.010266, 0.094456,-0.033052,-0.293514,1,-0.084655,-0.005975, 0.084145,1,-0.214207,-0.246084, 9.801222,1,0
1778257403926,  2340.042,  2340.037, 0.069265, 0.033540,-0.963772, 0.000723, 0.000320,-0.009701, 0.441508,-0.048480,-0.020721,1,-0.072854, 0.007271, 0.083003,1,-0.215348,-0.261015, 9.800810,1,0
1778257403953,  2340.067,  2340.067, 0.046835, 0.029984,-0.941613, 0.000500, 0.000306,-0.009404, 0.241493, 0.015363, 0.566203,1,-0.062036, 0.007885, 0.083105,1,-0.218608,-0.281328, 9.800176,1,0
1778257403975,  2340.092,  2340.087, 0.019315, 0.032422,-1.030653, 0.000203, 0.000294,-0.010278, 0.066290,-0.028145, 0.052778,1,-0.060334, 0.013065, 0.081130,1,-0.221591,-0.293241, 9.799760,1,0
1778257403996,  2340.112,  2340.107, 0.002971, 0.034556,-1.039357, 0.000033, 0.000340,-0.010461,-0.138595, 0.018274,-0.498546,1,-0.057285, 0.009404, 0.080510,1,-0.224082,-0.304688, 9.799354,1,0
1778257404023,  2340.137,  2340.137,-0.006166, 0.016454,-0.976850,-0.000057, 0.000160,-0.009783,-0.286330,-0.157107, 0.219245,1,-0.051183,-0.002408, 0.078848,1,-0.225863,-0.320002, 9.798825,1,0
1778257404045,  2340.162,  2340.157, 0.002153, 0.037478,-0.998063, 0.000005, 0.000345,-0.009957,-0.266735,-0.089486, 0.260999,1,-0.049240,-0.002835, 0.070362,1,-0.225582,-0.329791, 9.798507,1,0
1778257404066,  2340.182,  2340.177, 0.009250, 0.041931,-1.022320, 0.000075, 0.000452,-0.010191,-0.198021, 0.073992,-0.180284,1,-0.060251, 0.002752, 0.075392,1,-0.226270,-0.341286, 9.798098,1,0
1778257404093,  2340.207,  2340.207, 0.009990, 0.041975,-1.002044, 0.000098, 0.000429,-0.010012,-0.129687, 0.054960,-0.029179,1,-0.055903, 0.000847, 0.077145,1,-0.227773,-0.358363, 9.797453,1,0
1778257404115,  2340.232,  2340.227, 0.052560, 0.024004,-0.921416, 0.000532, 0.000079,-0.009592,-0.060293,-0.307658, 0.559415,1,-0.030657, 0.006104, 0.071472,1,-0.228677,-0.366977, 9.797112,1,0
