Time,GPS_ts,fGPS_ts,scaledAccelX,scaledAccelY,scaledAccelZ,deltaVelX,deltaVelY,deltaVelZ,estLinearAccelX,estLinearAccelY,estLinearAccelZ,estLinearAccel:valid,estAngularRateX,estAngularRateY,estAngularRateZ,estAngularRate:valid,estGravityX,estGravityY,estGravityZ,estGravity:valid,flag
1778256722852,  1638.813,  1638.813, 0.032342,-0.003680,-0.995602, 0.000325,-0.000036,-0.009954,-0.091026,-0.096763, 0.034443,1,-0.019340, 0.002139,-0.000880,1,-0.408262,-0.061274, 9.797956,1,0
1778256722852,  1638.838,  1638.833, 0.039473, 0.005628,-0.995927, 0.000389, 0.000050,-0.009960,-0.051280,-0.049531, 0.030067,1,-0.024992, 0.000770,-0.000382,1,-0.408549,-0.065880, 9.797915,1,0
1778256722852,  1638.858,  1638.858, 0.046906, 0.011001,-0.994646, 0.000465, 0.000108,-0.009949, 0.051469, 0.034325, 0.043711,1,-0.030253,-0.000221, 0.000046,1,-0.408516,-0.074502, 9.797854,1,0
1778256722852,  1638.883,  1638.883, 0.049827, 0.007815,-0.994052, 0.000502, 0.000079,-0.009939, 0.079980,-0.003043, 0.049491,1,-0.031702, 0.001413, 0.000421,1,-0.408703,-0.080671, 9.797797,1,0
1778256722852,  1638.908,  1638.903, 0.043623,-0.000618,-0.997132, 0.000441,-0.000007,-0.009973, 0.053404,-0.074411, 0.021578,1,-0.031315, 0.004051,-0.000939,1,-0.409414,-0.086828, 9.797715,1,0
1778256722852,  1638.933,  1638.933, 0.038174, 0.004085,-0.995645, 0.000383, 0.000036,-0.009957,-0.036053,-0.054547, 0.033663,1,-0.028733, 0.003716,-0.005284,1,-0.410524,-0.095514, 9.797588,1,0
1778256722852,  1638.958,  1638.953, 0.037086, 0.012336,-0.990609, 0.000367, 0.000116,-0.009914,-0.069566, 0.007385,-0.006080,1,-0.026240, 0.003698,-0.006567,1,-0.411331,-0.100991, 9.797500,1,0
1778256722852,  1638.983,  1638.978, 0.035624, 0.011896,-0.988749, 0.000366, 0.000118,-0.009884,-0.083219, 0.066478, 0.067564,1,-0.022378, 0.001495,-0.008380,1,-0.410891,-0.105797, 9.797467,1,0
1778256722852,  1639.008,  1639.003, 0.031643, 0.010250,-0.999609, 0.000320, 0.000094,-0.009996,-0.082689, 0.017473, 0.035133,1,-0.024401, 0.004705,-0.005549,1,-0.411773,-0.110593, 9.797377,1,0
1778256722852,  1639.028,  1639.023, 0.033750, 0.007819,-0.999357, 0.000330, 0.000072,-0.009996,-0.114670,-0.024720,-0.035989,1,-0.025522, 0.002119,-0.004760,1,-0.412432,-0.115901, 9.797288,1,0
1778256722852,  1639.048,  1639.043, 0.042028, 0.016832,-0.990493, 0.000420, 0.000154,-0.009919,-0.033875,-0.014144, 0.048766,1,-0.021869,-0.001257,-0.008442,1,-0.412469,-0.120598, 9.797230,1,0
1778256722863,  1658.988,  1658.983, 0.041343,-0.004449,-0.994934, 0.000414,-0.000045,-0.009950,-0.033875,-0.014144, 0.048766,1,-0.021869,-0.001257,-0.008442,1,-0.412469,-0.120598, 9.797230,1,0
1778256722890,  1659.013,  1659.013, 0.041508,-0.004640,-0.995462, 0.000416,-0.000046,-0.009956, 0.002690, 0.000617, 0.036049,1,-0.001769, 0.000333, 0.000005,1,-0.404370, 0.046066, 9.798202,1,0
1778256722911,  1659.038,  1659.033, 0.041316,-0.004797,-0.995665, 0.000414,-0.000048,-0.009958, 0.005207,-0.004196, 0.034029,1,-0.001641,-0.000018, 0.000363,1,-0.404386, 0.045707, 9.798203,1,0
1778256722933,  1659.058,  1659.053, 0.041116,-0.003840,-0.995787, 0.000413,-0.000038,-0.009958,-0.000849, 0.004495, 0.041249,1,-0.001683, 0.000583, 0.000242,1,-0.404441, 0.045439, 9.798202,1,0
1778256722960,  1659.083,  1659.083, 0.041089,-0.003899,-0.995885, 0.000412,-0.000043,-0.009955,-0.001557, 0.006813, 0.031907,1,-0.001005, 0.000424,-0.000063,1,-0.404512, 0.045020, 9.798201,1,0
1778256722981,  1659.108,  1659.103, 0.041351,-0.004156,-0.996021, 0.000414,-0.000043,-0.009961, 0.001781, 0.001208, 0.036048,1,-0.001490, 0.000320, 0.000333,1,-0.404605, 0.044764, 9.798198,1,0
1778256723003,  1659.128,  1659.123, 0.040474,-0.004262,-0.994984, 0.000405,-0.000043,-0.009949,-0.002084, 0.003546, 0.039720,1,-0.001104, 0.000007, 0.000692,1,-0.404586, 0.044526, 9.798200,1,0
1778256723030,  1659.153,  1659.153, 0.040992,-0.004017,-0.995900, 0.000410,-0.000041,-0.009957,-0.002606, 0.004839, 0.031760,1,-0.000318,-0.000321, 0.000381,1,-0.404594, 0.044227, 9.798201,1,0
1778256723052,  1659.178,  1659.173, 0.041445,-0.003362,-0.996194, 0.000414,-0.000031,-0.009956, 0.001171, 0.006567, 0.035422,1,-0.000089,-0.001389,-0.000202,1,-0.404439, 0.044181, 9.798207,1,0
1778256723073,  1659.198,  1659.193, 0.040806,-0.004023,-0.995464, 0.000408,-0.000041,-0.009953,-0.004074, 0.008503, 0.039928,1, 0.001352,-0.000217, 0.000531,1,-0.404434, 0.044242, 9.798207,1,0
1778256723100,  1659.223,  1659.223, 0.040910,-0.003650,-0.994962, 0.000410,-0.000039,-0.009950,-0.003196, 0.008985, 0.040961,1, 0.002480,-0.000052,-0.000321,1,-0.404386, 0.044856, 9.798206,1,0
1778256723122,  1659.248,  1659.243, 0.040468,-0.004573,-0.995820, 0.000403,-0.000046,-0.009957,-0.007414, 0.002833, 0.035460,1, 0.003048,-0.000297, 0.000139,1,-0.404361, 0.045489, 9.798204,1,0
1778256723143,  1659.268,  1659.263, 0.040836,-0.004511,-0.995370, 0.000407,-0.000045,-0.009954,-0.004420, 0.003134, 0.037295,1, 0.002795,-0.000320, 0.000003,1,-0.404325, 0.045982, 9.798203,1,0
1778256723170,  1659.293,  1659.293, 0.041080,-0.004362,-0.995700, 0.000411,-0.000044,-0.009956,-0.001477, 0.003908, 0.033719,1, 0.002699, 0.000072, 0.000314,1,-0.404339, 0.046765, 9.798200,1,0
1778256723192,  1659.318,  1659.313, 0.041440,-0.005100,-0.995688, 0.000416,-0.000048,-0.009955, 0.002463, 0.000064, 0.040375,1, 0.003455,-0.000409, 0.000483,1,-0.404302, 0.047381, 9.798198,1,0
1778256723213,  1659.338,  1659.333, 0.041931,-0.005000,-0.995817, 0.000417,-0.000052,-0.009956, 0.006166,-0.000871, 0.038221,1, 0.002623,-0.000099, 0.000316,1,-0.404248, 0.047837, 9.798198,1,0
1778256723240,  1659.363,  1659.363, 0.041494,-0.005540,-0.995715, 0.000413,-0.000054,-0.009954, 0.002824,-0.005647, 0.033571,1, 0.003659,-0.000547, 0.000087,1,-0.404080, 0.048792, 9.798200,1,0
1778256723262,  1659.388,  1659.383, 0.040889,-0.005095,-0.996002, 0.000409,-0.000049,-0.009959,-0.000997,-0.002982, 0.033813,1, 0.003716,-0.000091, 0.000054,1,-0.404129, 0.049414, 9.798195,1,0
1778256723283,  1659.408,  1659.403, 0.041191,-0.005268,-0.995033, 0.000413,-0.000053,-0.009953, 0.002185, 0.006908, 0.036574,1, 0.003791,-0.001173,-0.000388,1,-0.403961, 0.050139, 9.798198,1,0
1778256723310,  1659.433,  1659.433, 0.040629,-0.005437,-0.996200, 0.000406,-0.000055,-0.009958,-0.005399,-0.002291, 0.028817,1, 0.003616,-0.000414,-0.000598,1,-0.403821, 0.051141, 9.798199,1,0
1778256723332,  1659.458,  1659.453, 0.040344,-0.004881,-0.994948, 0.000406,-0.000049,-0.009947,-0.005034, 0.003136, 0.039405,1, 0.003129,-0.000343,-0.000338,1,-0.403715, 0.051735, 9.798200,1,0
1778256723355,  1659.478,  1659.478, 0.041151,-0.005017,-0.994659, 0.000411,-0.000052,-0.009947,-0.000109, 0.003251, 0.043923,1, 0.002744, 0.000003, 0.000251,1,-0.403659, 0.052539, 9.798198,1,0
1778256723380,  1659.503,  1659.503, 0.041108,-0.005727,-0.995590, 0.000413,-0.000056,-0.009955,-0.000470,-0.003277, 0.034793,1, 0.002372,-0.000450, 0.000078,1,-0.403585, 0.052958, 9.798199,1,0
1778256723402,  1659.528,  1659.523, 0.041017,-0.005973,-0.995300, 0.000412,-0.000058,-0.009954, 0.005243,-0.004052, 0.039988,1, 0.001969,-0.000859,-0.000047,1,-0.403554, 0.053462, 9.798198,1,0
1778256723425,  1659.548,  1659.548, 0.041263,-0.005608,-0.995585, 0.000414,-0.000056,-0.009952, 0.001119,-0.001049, 0.034837,1, 0.002168,-0.000285,-0.000316,1,-0.403522, 0.054016, 9.798196,1,0
1778256723451,  1659.573,  1659.573, 0.040917,-0.005953,-0.995254, 0.000410,-0.000059,-0.009955,-0.002218,-0.004094, 0.038090,1, 0.001744,-0.000615,-0.000520,1,-0.403452, 0.054335, 9.798197,1,0
1778256723472,  1659.598,  1659.593, 0.040838,-0.006182,-0.995405, 0.000408,-0.000061,-0.009953,-0.007856,-0.009289, 0.043274,1, 0.001210, 0.000879,-0.000199,1,-0.403509, 0.054540, 9.798193,1,0
1778256723495,  1659.618,  1659.618, 0.040797,-0.005143,-0.995367, 0.000410,-0.000052,-0.009952,-0.003337, 0.004301, 0.036982,1, 0.000351,-0.000609,-0.000417,1,-0.403399, 0.054747, 9.798197,1,0
1778256723521,  1659.643,  1659.643, 0.041104,-0.005776,-0.995033, 0.000412,-0.000057,-0.009952,-0.000356,-0.001822, 0.040250,1, 0.000035, 0.000494, 0.000124,1,-0.403468, 0.054821, 9.798193,1,0
1778256723542,  1659.668,  1659.663, 0.040811,-0.005819,-0.994985, 0.000410,-0.000061,-0.009950,-0.004166,-0.007606, 0.037805,1,-0.000120, 0.000195,-0.000273,1,-0.403487, 0.054849, 9.798192,1,0
1778256723565,  1659.688,  1659.688, 0.041292,-0.005052,-0.995130, 0.000411,-0.000049,-0.009953, 0.001414, 0.005057, 0.039300,1,-0.001327,-0.000048,-0.000104,1,-0.403523, 0.054559, 9.798193,1,0
1778256723591,  1659.713,  1659.713, 0.041558,-0.006118,-0.995274, 0.000413,-0.000058,-0.009953, 0.004046,-0.005593, 0.037886,1,-0.000802, 0.000234,-0.001196,1,-0.403505, 0.054381, 9.798194,1,0
1778256723612,  1659.738,  1659.733, 0.040844,-0.006278,-0.994966, 0.000408,-0.000065,-0.009950, 0.002565,-0.005774, 0.036570,1,-0.000690, 0.000385,-0.000714,1,-0.403523, 0.054301, 9.798194,1,0
1778256723635,  1659.758,  1659.758, 0.040797,-0.006684,-0.995321, 0.000410,-0.000066,-0.009952,-0.003480,-0.011388, 0.037431,1,-0.001145,-0.000689,-0.001233,1,-0.403538, 0.054122, 9.798194,1,0
1778256723661,  1659.783,  1659.783, 0.040908,-0.008411,-0.995957, 0.000407,-0.000083,-0.009959,-0.002348,-0.028554, 0.031193,1,-0.002940, 0.000418,-0.001592,1,-0.403536, 0.053849, 9.798196,1,0
1778256723682,  1659.808,  1659.803, 0.040383,-0.007640,-0.994865, 0.000405,-0.000078,-0.009951,-0.003244,-0.020807, 0.039304,1,-0.003434, 0.000309,-0.001630,1,-0.403625, 0.053160, 9.798196,1,0
1778256723705,  1659.833,  1659.828, 0.040803,-0.007151,-0.994720, 0.000409,-0.000070,-0.009947,-0.003620,-0.018625, 0.043328,1,-0.008009,-0.000230,-0.002054,1,-0.403749, 0.051248, 9.798201,1,0
1778256723731,  1659.853,  1659.853, 0.040432,-0.006572,-0.995004, 0.000408,-0.000067,-0.009951,-0.007351,-0.014752, 0.040544,1,-0.010950, 0.000929,-0.002526,1,-0.403879, 0.049356, 9.798205,1,0
1778256723752,  1659.878,  1659.873, 0.041665,-0.005579,-0.995296, 0.000416,-0.000059,-0.009956, 0.002009,-0.011466, 0.044423,1,-0.014138, 0.000755,-0.000827,1,-0.403981, 0.046782, 9.798214,1,0
1778256723775,  1659.903,  1659.898, 0.042888,-0.005022,-0.995473, 0.000424,-0.000050,-0.009951, 0.016463,-0.007098, 0.035972,1,-0.019927, 0.000689, 0.000724,1,-0.404147, 0.041534, 9.798231,1,0
1778256723801,  1659.923,  1659.923, 0.043553,-0.004123,-0.995210, 0.000435,-0.000044,-0.009953, 0.022833,-0.002381, 0.038567,1,-0.022672, 0.001225, 0.000998,1,-0.404316, 0.037343, 9.798241,1,0
1778256723823,  1659.948,  1659.943, 0.044464,-0.000672,-0.995703, 0.000446,-0.000009,-0.009955, 0.029310, 0.013259, 0.036703,1,-0.022117, 0.001439, 0.001193,1,-0.404532, 0.032893, 9.798247,1,0
1778256723845,  1659.973,  1659.968, 0.043327,-0.000066,-0.994909, 0.000435,-0.000003,-0.009950, 0.020034, 0.026451, 0.041528,1,-0.020990, 0.001961, 0.002094,1,-0.404915, 0.026444, 9.798251,1,0
1778256723871,  1659.993,  1659.993, 0.042620,-0.001243,-0.995420, 0.000429,-0.000015,-0.009953, 0.012547, 0.011250, 0.036505,1,-0.019213, 0.001085, 0.001470,1,-0.405446, 0.022848, 9.798239,1,0
1778256723893,  1660.018,  1660.013, 0.040552,-0.002876,-0.995204, 0.000406,-0.000027,-0.009953,-0.001710,-0.001805, 0.036324,1,-0.015650, 0.001186, 0.000970,1,-0.405688, 0.019617, 9.798235,1,0
1778256723915,  1660.043,  1660.038, 0.039509,-0.006152,-0.995195, 0.000397,-0.000057,-0.009953,-0.018520,-0.044556, 0.038699,1,-0.013867, 0.000269,-0.001463,1,-0.405980, 0.015337, 9.798231,1,0
1778256723941,  1660.063,  1660.063, 0.039323,-0.007438,-0.995694, 0.000395,-0.000075,-0.009955,-0.020484,-0.060056, 0.033809,1,-0.016651, 0.001015,-0.002266,1,-0.406142, 0.012366, 9.798228,1,0
1778256723963,  1660.088,  1660.083, 0.040358,-0.005354,-0.995077, 0.000403,-0.000053,-0.009952,-0.010570,-0.043813, 0.028826,1,-0.019301, 0.000630,-0.003099,1,-0.406252, 0.008870, 9.798227,1,0
1778256723986,  1660.113,  1660.108, 0.041272,-0.004601,-0.994489, 0.000415,-0.000048,-0.009944,-0.001807,-0.042461, 0.045609,1,-0.027451, 0.000759,-0.002753,1,-0.406570, 0.001800, 9.798219,1,0
1778256724011,  1660.133,  1660.133, 0.043009,-0.006451,-1.000694, 0.000424,-0.000068,-0.009992, 0.015065,-0.066634,-0.015241,1,-0.032957, 0.000943,-0.003641,1,-0.406740,-0.004408, 9.798210,1,0
1778256724033,  1660.158,  1660.153, 0.043580,-0.003770,-0.992607, 0.000435,-0.000039,-0.009921, 0.044681,-0.038603, 0.031980,1,-0.040354, 0.001474,-0.002332,1,-0.406954,-0.011929, 9.798195,1,0
1778256724060,  1660.183,  1660.183, 0.047813, 0.002759,-0.994181, 0.000470, 0.000034,-0.009971, 0.061011, 0.004340, 0.048551,1,-0.044986, 0.002839,-0.003363,1,-0.407975,-0.024015, 9.798131,1,0
1778256724081,  1660.203,  1660.203, 0.047047,-0.000674,-1.003216, 0.000447,-0.000008,-0.010020, 0.052966,-0.038551,-0.040099,1,-0.046860, 0.001468,-0.003302,1,-0.408458,-0.033407, 9.798083,1,0
1778256724103,  1660.228,  1660.223, 0.046124, 0.005950,-0.989332, 0.000460, 0.000050,-0.009887, 0.031994,-0.026105, 0.064489,1,-0.044381, 0.000957,-0.005856,1,-0.408625,-0.042473, 9.798041,1,0
1778256724130,  1660.253,  1660.253, 0.048437, 0.009004,-0.994763, 0.000482, 0.000091,-0.009930, 0.065847, 0.034473, 0.042667,1,-0.042699, 0.002600,-0.004255,1,-0.409240,-0.055165, 9.797952,1,0
1778256724151,  1660.278,  1660.273, 0.043670, 0.002527,-0.999655, 0.000432, 0.000013,-0.010000, 0.019956,-0.048978,-0.008083,1,-0.038358, 0.003626,-0.006687,1,-0.409821,-0.063285, 9.797878,1,0
1778256724173,  1660.298,  1660.293, 0.044133, 0.010444,-0.993750, 0.000440, 0.000102,-0.009931, 0.017983,-0.010670, 0.026548,1,-0.032995, 0.001736,-0.009358,1,-0.410368,-0.070314, 9.797808,1,0
1778256724200,  1660.323,  1660.323, 0.047846, 0.011048,-0.992834, 0.000477, 0.000112,-0.009928, 0.058697, 0.029389, 0.061359,1,-0.032958, 0.000229,-0.007569,1,-0.410518,-0.079992, 9.797728,1,0
1778256724221,  1660.348,  1660.343, 0.046392, 0.007522,-0.994651, 0.000470, 0.000075,-0.009956, 0.061095,-0.007126, 0.038430,1,-0.037483, 0.002447,-0.007372,1,-0.410847,-0.086963, 9.797654,1,0
1778256724243,  1660.368,  1660.363, 0.043586, 0.007163,-0.992521, 0.000440, 0.000068,-0.009932, 0.026892, 0.002907, 0.063996,1,-0.042414, 0.003552,-0.004262,1,-0.411534,-0.094916, 9.797551,1,0
1778256724270,  1660.393,  1660.393, 0.043731, 0.002083,-0.997368, 0.000436, 0.000019,-0.009972, 0.015440,-0.087250, 0.016504,1,-0.052125, 0.001375,-0.004439,1,-0.413460,-0.109312, 9.797320,1,0
1778256724292,  1660.418,  1660.413, 0.050045, 0.006964,-0.994162, 0.000496, 0.000063,-0.009946, 0.062229,-0.077871, 0.028538,1,-0.060803, 0.001887,-0.005435,1,-0.413766,-0.120584, 9.797175,1,0
1778256724313,  1660.438,  1660.433, 0.052016, 0.006725,-0.992824, 0.000519, 0.000066,-0.009925, 0.080311,-0.068856, 0.062977,1,-0.073026, 0.003271,-0.002456,1,-0.414269,-0.134113, 9.796978,1,0
1778256724340,  1660.463,  1660.463, 0.052402, 0.010598,-0.997518, 0.000522, 0.000101,-0.009972, 0.098643,-0.050996, 0.014315,1,-0.081653, 0.004745,-0.002791,1,-0.415387,-0.157482, 9.796583,1,0
1778256724362,  1660.488,  1660.483, 0.060512, 0.012740,-0.993069, 0.000600, 0.000129,-0.009928, 0.148231,-0.040260, 0.048445,1,-0.086389, 0.002680,-0.004263,1,-0.416186,-0.174101, 9.796268,1,0
1778256724383,  1660.508,  1660.503, 0.070068, 0.011574,-0.993994, 0.000694, 0.000111,-0.009945, 0.208800,-0.093092, 0.046344,1,-0.086191, 0.001294,-0.005102,1,-0.416429,-0.191155, 9.795939,1,0
1778256724410,  1660.533,  1660.533, 0.078919, 0.022410,-0.995580, 0.000788, 0.000219,-0.009951, 0.357318, 0.006352, 0.032161,1,-0.084800, 0.001504,-0.007865,1,-0.416651,-0.216070, 9.795412,1,0
1778256724432,  1660.558,  1660.553, 0.076519, 0.012430,-0.993996, 0.000767, 0.000127,-0.009940, 0.355377,-0.057247, 0.047669,1,-0.089188, 0.006331,-0.005860,1,-0.417562,-0.233194, 9.794981,1,0
1778256724453,  1660.578,  1660.573, 0.070741, 0.012277,-0.994231, 0.000708, 0.000113,-0.009935, 0.303709,-0.143527, 0.049897,1,-0.097571, 0.006895,-0.006462,1,-0.418957,-0.251780, 9.794461,1,0
1778256724480,  1660.603,  1660.603, 0.072053, 0.020545,-0.995316, 0.000714, 0.000195,-0.009954, 0.285348,-0.076890, 0.032931,1,-0.114546, 0.006299,-0.005434,1,-0.421441,-0.281946, 9.793532,1,0
1778256724502,  1660.628,  1660.623, 0.079558, 0.027970,-0.994651, 0.000792, 0.000269,-0.009948, 0.331686,-0.056305, 0.004747,1,-0.124308, 0.004653,-0.005132,1,-0.422365,-0.305590, 9.792784,1,0
1778256724523,  1660.648,  1660.643, 0.081183, 0.031795,-0.991220, 0.000815, 0.000309,-0.009908, 0.368055,-0.036741, 0.073003,1,-0.126893, 0.005917,-0.006335,1,-0.423348,-0.330475, 9.791933,1,0
1778256724550,  1660.673,  1660.673, 0.080115, 0.031420,-0.994028, 0.000802, 0.000312,-0.009934, 0.360376,-0.055745, 0.042580,1,-0.125313, 0.007673,-0.007875,1,-0.425510,-0.367790, 9.790508,1,0
1778256724572,  1660.698,  1660.693, 0.078358, 0.038481,-0.996481, 0.000794, 0.000370,-0.009986, 0.345424,-0.040884, 0.007050,1,-0.117594, 0.006641,-0.011044,1,-0.426882,-0.391398, 9.789534,1,0
1778256724595,  1660.718,  1660.718, 0.084341, 0.039326,-0.992131, 0.000836, 0.000395,-0.009944, 0.399457,-0.034221, 0.058837,1,-0.100171,-0.001794,-0.017469,1,-0.427567,-0.423021, 9.788188,1,0
1778256724620,  1660.743,  1660.738, 0.103274, 0.035697,-1.012610, 0.000971, 0.000386,-0.010018, 0.585306,-0.087593,-0.142763,1,-0.090144,-0.005488,-0.023192,1,-0.427266,-0.440501, 9.787430,1,0
1778256724642,  1660.768,  1660.763, 0.081415, 0.048280,-0.988859, 0.000778, 0.000492,-0.009825, 0.407674,-0.000919, 0.028548,1,-0.076524, 0.007341,-0.022210,1,-0.428441,-0.455971, 9.786670,1,0
1778256724665,  1660.788,  1660.788, 0.072378, 0.039531,-1.000319, 0.000716, 0.000401,-0.009937, 0.279085,-0.084665,-0.023980,1,-0.057537, 0.003085,-0.027684,1,-0.430754,-0.474150, 9.785705,1,0
1778256724691,  1660.813,  1660.813, 0.075848, 0.053035,-1.013997, 0.000755, 0.000531,-0.010090, 0.313105, 0.037120,-0.158641,1,-0.047244,-0.000151,-0.032488,1,-0.430655,-0.484491, 9.785203,1,0
1778256724712,  1660.838,  1660.833, 0.093523, 0.049395,-0.975415, 0.000897, 0.000507,-0.009816, 0.422486, 0.049923, 0.021060,1,-0.047128,-0.002552,-0.028481,1,-0.429779,-0.493946, 9.784768,1,0
1778256724735,  1660.858,  1660.858, 0.120657,-0.022534,-1.087648, 0.000821,-0.000282,-0.009578, 0.755563,-0.725303,-0.881856,1,-0.049121,-0.021329,-0.046532,1,-0.426938,-0.505917, 9.784281,1,0
1778256724761,  1660.883,  1660.883, 0.211618, 0.057252,-1.097954, 0.002106, 0.000652,-0.010918, 1.654586, 0.053877,-0.982782,1,-0.042808,-0.038812,-0.056995,1,-0.419372,-0.508979, 9.784450,1,0
1778256724782,  1660.908,  1660.903, 0.122190, 0.016008,-0.836302, 0.001193, 0.000182,-0.008276, 0.820904,-0.139160, 0.503451,1,-0.032927, 0.032693,-0.040578,1,-0.420244,-0.515877, 9.784051,1,0
1778256724805,  1660.928,  1660.928, 0.063759,-0.010361,-0.946252, 0.000715,-0.000100,-0.009292, 0.193601,-0.635840, 0.503007,1,-0.093708, 0.016602,-0.040635,1,-0.432108,-0.537208, 9.782386,1,0
1778256724831,  1660.953,  1660.953, 0.099705, 0.057698,-1.159993, 0.000922, 0.000522,-0.011563, 0.544441, 0.013722,-1.594144,1,-0.093033, 0.008289,-0.055058,1,-0.433493,-0.555077, 9.781327,1,0
1778256724852,  1660.978,  1660.973, 0.138015, 0.067047,-0.945127, 0.001402, 0.000674,-0.009579, 1.010494, 0.328118,-0.345276,1,-0.094072,-0.027864,-0.044263,1,-0.429374,-0.572711, 9.780492,1,0
1778256724875,  1660.998,  1660.998, 0.160602, 0.014511,-0.882962, 0.001559, 0.000152,-0.008699, 1.149492,-0.454717, 1.120307,1,-0.097562, 0.002547,-0.050264,1,-0.425462,-0.600123, 9.779019,1,0
1778256724901,  1661.023,  1661.023, 0.164188, 0.025396,-1.023025, 0.001652, 0.000227,-0.010138, 1.184058,-0.369837,-0.254628,1,-0.115527, 0.010963,-0.048046,1,-0.426319,-0.622551, 9.777580,1,0
1778256724922,  1661.048,  1661.043, 0.200387, 0.035071,-1.043197, 0.001995, 0.000385,-0.010433, 1.461423,-0.367475,-0.723652,1,-0.104784, 0.005444,-0.053797,1,-0.428111,-0.644898, 9.776053,1,0
1778256724945,  1661.073,  1661.068, 0.178899, 0.050791,-0.970339, 0.001792, 0.000499,-0.009769, 1.332131,-0.173547, 0.258734,1,-0.087640,-0.011408,-0.079959,1,-0.421741,-0.674472, 9.774334,1,0
1778256724971,  1661.093,  1661.093, 0.191160, 0.030607,-0.925273, 0.001899, 0.000309,-0.009218, 1.451111,-0.388671, 0.699425,1,-0.077864, 0.026629,-0.083839,1,-0.424169,-0.691363, 9.773048,1,0
1778256724993,  1661.118,  1661.113, 0.154732, 0.050657,-1.035512, 0.001567, 0.000477,-0.010347, 1.261211,-0.339279, 0.002042,1,-0.076702, 0.025860,-0.085880,1,-0.428253,-0.707359, 9.771726,1,0
1778256725015,  1661.143,  1661.138, 0.145915, 0.081582,-1.014117, 0.001458, 0.000807,-0.010153, 0.997003, 0.072619,-0.175093,1,-0.070051, 0.021735,-0.097876,1,-0.434384,-0.729738, 9.769810,1,0
1778256725041,  1661.163,  1661.163, 0.126589, 0.058577,-0.992572, 0.001328, 0.000657,-0.009838, 0.807258,-0.167264, 0.035111,1,-0.052010, 0.006928,-0.106846,1,-0.434118,-0.743474, 9.768785,1,0
1778256725063,  1661.188,  1661.183, 0.206110, 0.069398,-0.980512, 0.002085, 0.000678,-0.009818, 1.441531,-0.142130, 0.554329,1,-0.053710, 0.009868,-0.106761,1,-0.433764,-0.754998, 9.767918,1,0
1778256725085,  1661.213,  1661.208, 0.189796, 0.007177,-1.053886, 0.001891, 0.000122,-0.010484, 1.427174,-0.697474,-0.568190,1,-0.025727, 0.014913,-0.118141,1,-0.434265,-0.768816, 9.766817,1,0
1778256725111,  1661.233,  1661.233, 0.124327, 0.035732,-0.967989, 0.001308, 0.000299,-0.009774, 0.784455,-0.422272, 0.273757,1,-0.010419, 0.010355,-0.132846,1,-0.434768,-0.773193, 9.766449,1,0
1778256725133,  1661.258,  1661.253, 0.099142, 0.107601,-0.971284, 0.000993, 0.001134,-0.009610, 0.546261, 0.349826, 0.720651,1,-0.020936, 0.000344,-0.128563,1,-0.433469,-0.778244, 9.766106,1,0
1778256725155,  1661.283,  1661.278, 0.103872, 0.050471,-1.042791, 0.001029, 0.000568,-0.010394, 0.585859,-0.291976,-0.460848,1,-0.021906, 0.010056,-0.141518,1,-0.432734,-0.787804, 9.765372,1,0
1778256725181,  1661.303,  1661.303, 0.134284, 0.020547,-1.019365, 0.001321, 0.000242,-0.010257, 0.885053,-0.590348,-0.231472,1,-0.014074, 0.006514,-0.143789,1,-0.431665,-0.792483, 9.765040,1,0
1778256725203,  1661.328,  1661.323, 0.169413, 0.055281,-0.908266, 0.001727, 0.000479,-0.009078, 1.298217,-0.568841, 0.655211,1,-0.001556, 0.020727,-0.149565,1,-0.432638,-0.794938, 9.764798,1,0
1778256725226,  1661.353,  1661.348, 0.142086, 0.083958,-0.999330, 0.001422, 0.000840,-0.009906, 0.959812, 0.022361,-0.035817,1,-0.030685, 0.014139,-0.156810,1,-0.433612,-0.802160, 9.764164,1,0
1778256725251,  1661.373,  1661.373, 0.143694, 0.057524,-1.020254, 0.001412, 0.000601,-0.010215, 0.975126,-0.244131,-0.241629,1,-0.033721, 0.015910,-0.161730,1,-0.434107,-0.809518, 9.763535,1,0
1778256725273,  1661.398,  1661.393, 0.116073,-0.006623,-0.932997, 0.001135,-0.000078,-0.009516, 0.709261,-0.679540, 1.106181,1,-0.033942, 0.012049,-0.164275,1,-0.434567,-0.815662, 9.763003,1,0
1778256725300,  1661.423,  1661.423, 0.092424, 0.078690,-1.023557, 0.001010, 0.000691,-0.010302, 0.469685,-0.055084,-0.275687,1,-0.047430, 0.015033,-0.157387,1,-0.436734,-0.828460, 9.761828,1,0
1778256725321,  1661.443,  1661.443, 0.100389, 0.127730,-1.055777, 0.001051, 0.001256,-0.010818, 0.547653, 0.412891,-0.592777,1,-0.065947, 0.010306,-0.165081,1,-0.436710,-0.841988, 9.760673,1,0
1778256725343,  1661.468,  1661.463, 0.069176,-0.012507,-1.003918, 0.000742,-0.000145,-0.010090, 0.342342,-0.572254,-0.262623,1,-0.058171, 0.000439,-0.182174,1,-0.434541,-0.855026, 9.759636,1,0
1778256725370,  1661.493,  1661.493, 0.080475, 0.060538,-0.932868, 0.000796, 0.000525,-0.009270, 0.360142,-0.280791, 0.609846,1,-0.076707,-0.009964,-0.174100,1,-0.428255,-0.877088, 9.757956,1,0
1778256725391,  1661.518,  1661.513, 0.067961, 0.105367,-0.965558, 0.000658, 0.001111,-0.009685, 0.255545, 0.507733, 0.395646,1,-0.092260,-0.018425,-0.158699,1,-0.421833,-0.895208, 9.756590,1,0
1778256725413,  1661.538,  1661.533, 0.105805, 0.020197,-1.102207, 0.000999, 0.000191,-0.010520, 0.341860,-0.422687, 0.073581,1,-0.081181,-0.011277,-0.171255,1,-0.416746,-0.912359, 9.755219,1,0
1778256725440,  1661.563,  1661.563, 0.137514, 0.106614,-1.017285, 0.001352, 0.000978,-0.010690, 0.931252, 0.111261,-0.223038,1,-0.070236, 0.046890,-0.157864,1,-0.418290,-0.936656, 9.752851,1,0
1778256725462,  1661.588,  1661.583, 0.319215, 0.113877,-0.942788, 0.003003, 0.001298,-0.009245, 1.961367, 0.463575, 0.333737,1,-0.076082, 0.072799,-0.164218,1,-0.427957,-0.950582, 9.751083,1,0
1778256725483,  1661.608,  1661.603, 0.125942,-0.021087,-0.983840, 0.001718,-0.000232,-0.009489, 2.932735,-0.655830, 1.102615,1,-0.032731, 0.107445,-0.150062,1,-0.444752,-0.958543, 9.749553,1,0
1778256725510,  1661.633,  1661.633,-0.095959, 0.151545,-1.148924,-0.001035, 0.001168,-0.011795,-1.396203, 0.524114,-1.518368,1, 0.007967, 0.026454,-0.174380,1,-0.455459,-0.962036, 9.748714,1,0
1778256725532,  1661.658,  1661.653, 0.084936, 0.122395,-0.959763, 0.000788, 0.001460,-0.009545, 0.177447, 1.728313, 0.313520,1, 0.045983,-0.010663,-0.189852,1,-0.452107,-0.958116, 9.749256,1,0
1778256725553,  1661.678,  1661.673, 0.097139,-0.039611,-0.927039, 0.000979,-0.000453,-0.009219, 0.517871,-1.131200, 0.546295,1, 0.075724,-0.024520,-0.171084,1,-0.443906,-0.947287, 9.750691,1,0
1778256725580,  1661.703,  1661.703, 0.198613, 0.108827,-0.941148, 0.001969, 0.000843,-0.009498, 1.507401, 0.150377, 0.524246,1, 0.160299, 0.008975,-0.198268,1,-0.440026,-0.912153, 9.754216,1,0
1778256725602,  1661.728,  1661.723, 0.194415, 0.044544,-0.985675, 0.001994, 0.000664,-0.009852, 1.701795, 0.726956, 0.223826,1, 0.215692, 0.000018,-0.196948,1,-0.435917,-0.875893, 9.757724,1,0
1778256725623,  1661.748,  1661.743, 0.247385,-0.054579,-0.924266, 0.002428,-0.000729,-0.009392, 1.737399,-1.704711, 0.063233,1, 0.281769, 0.053091,-0.227435,1,-0.439244,-0.827100, 9.761831,1,0
1778256725650,  1661.773,  1661.773, 0.244090, 0.060585,-0.848163, 0.002523, 0.000743,-0.008459, 1.946227,-0.153440, 1.450224,1, 0.333791, 0.058906,-0.261870,1,-0.448681,-0.737566, 9.768576,1,0
1778256725672,  1661.798,  1661.793, 0.048373,-0.119326,-1.109845, 0.000466,-0.001367,-0.010731, 0.104706,-1.662239, 1.741058,1, 0.342346, 0.131527,-0.255712,1,-0.465970,-0.674451, 9.772326,1,0
1778256725693,  1661.818,  1661.813, 0.033302, 0.147866,-1.360453, 0.000454, 0.001339,-0.013762, 0.418224,-0.714394,-3.692739,1, 0.322004, 0.064048,-0.344656,1,-0.481376,-0.611493, 9.775722,1,0
1778256725720,  1661.843,  1661.843,-0.009187,-0.015552,-0.915504,-0.000115, 0.000240,-0.009157,-0.574674,-0.687167, 0.802035,1, 0.312978, 0.031403,-0.273436,1,-0.485088,-0.525328, 9.780547,1,0
1778256725742,  1661.868,  1661.863, 0.031980, 0.086300,-0.873994, 0.000343, 0.000496,-0.008574,-0.417998,-1.169626, 2.804166,1, 0.311049,-0.016445,-0.353334,1,-0.480275,-0.465633, 9.783809,1,0
1778256725763,  1661.888,  1661.883,-0.001676, 0.049165,-1.115941, 0.000056, 0.000780,-0.011007, 0.175349, 0.925143,-0.626282,1, 0.241391, 0.005594,-0.312263,1,-0.477382,-0.417246, 9.786133,1,0
1778256725790,  1661.913,  1661.913,-0.051959,-0.099656,-1.171559,-0.000442,-0.001219,-0.012006,-0.981422,-1.336614,-1.700374,1, 0.262611,-0.039667,-0.320946,1,-0.470278,-0.351623, 9.789054,1,0
1778256725812,  1661.938,  1661.933,-0.009725, 0.099129,-0.848599, 0.000276, 0.001181,-0.008409,-0.227775, 1.244663, 1.153166,1, 0.245083,-0.026277,-0.292065,1,-0.462078,-0.303239, 9.791063,1,0
1778256725835,  1661.958,  1661.958,-0.008976,-0.126680,-1.167601,-0.000222,-0.001484,-0.011720,-0.545475,-1.483791,-1.657264,1, 0.266428, 0.014551,-0.311992,1,-0.457667,-0.233637, 9.793179,1,0
1778256725860,  1661.983,  1661.983, 0.015717, 0.145035,-0.992266, 0.000084, 0.001335,-0.010005,-0.308558, 1.229725, 0.063030,1, 0.247130, 0.036627,-0.291890,1,-0.463623,-0.185281, 9.793932,1,0
1778256725882,  1662.008,  1662.003, 0.053766,-0.180344,-0.970820, 0.000411,-0.001899,-0.009969,-0.581406,-0.880208,-0.173736,1, 0.247685, 0.041713,-0.251544,1,-0.468213,-0.140114, 9.794464,1,0
1778256725905,  1662.028,  1662.028, 0.202183, 0.027311,-0.792631, 0.001833, 0.000203,-0.007604, 1.499559, 0.192952, 2.021396,1, 0.237450, 0.092784,-0.303924,1,-0.485995,-0.067941, 9.794365,1,0
1778256725931,  1662.053,  1662.053, 0.381883,-0.064110,-0.925893, 0.003919,-0.000433,-0.009205, 3.232745,-0.663490, 0.713284,1, 0.209139, 0.186958,-0.242298,1,-0.518046,-0.028656, 9.792915,1,0
1778256725952,  1662.078,  1662.073,-0.533935, 0.204062,-1.313192,-0.005062, 0.001645,-0.013920,-2.562851, 0.410156,-4.791432,1, 0.155402,-0.030557,-0.389008,1,-0.535816, 0.005297, 9.792000,1,0
1778256725975,  1662.098,  1662.098,-0.260951, 0.096904,-1.126325,-0.002815, 0.001981,-0.010954,-3.070937, 1.004525,-1.252348,1, 0.187899,-0.093581,-0.272828,1,-0.509011, 0.059634, 9.793249,1,0
1778256726001,  1662.123,  1662.123,-0.151244,-0.267138,-0.621560,-0.001698,-0.002828,-0.006078,-1.962722,-2.529458, 3.699081,1, 0.154506,-0.141812,-0.164266,1,-0.475146, 0.094834, 9.794673,1,0
1778256726022,  1662.148,  1662.143, 0.153354, 0.188560,-0.969677, 0.001521, 0.002017,-0.009532, 0.983427, 0.951661, 0.585407,1, 0.113878, 0.002600,-0.133753,1,-0.467620, 0.123397, 9.794718,1,0
1778256726045,  1662.168,  1662.168, 0.242492, 0.060053,-1.334679, 0.002478, 0.000584,-0.013472, 1.907578, 0.747808,-3.294664,1, 0.164529, 0.017343,-0.167791,1,-0.471080, 0.163768, 9.793960,1,0
1778256726071,  1662.193,  1662.193, 0.232466,-0.041030,-0.748089, 0.002301,-0.000409,-0.007796, 1.805148,-0.201661, 2.456851,1, 0.237767, 0.010387,-0.193845,1,-0.475010, 0.207820, 9.792934,1,0
1778256726092,  1662.218,  1662.213, 0.152273,-0.047684,-0.983576, 0.001469,-0.000497,-0.009380, 0.904236, 0.110854, 2.835278,1, 0.175159,-0.025990,-0.125576,1,-0.468600, 0.247308, 9.792325,1,0
1778256726115,  1662.238,  1662.238, 0.087855, 0.065485,-1.117924, 0.001038, 0.000484,-0.011511, 0.390673, 0.925910,-1.171861,1, 0.109269, 0.009634,-0.103107,1,-0.471284, 0.286970, 9.791115,1,0
1778256726141,  1662.263,  1662.263, 0.011520, 0.077972,-1.133666, 0.000301, 0.000903,-0.011347,-0.351952, 1.067299,-1.326524,1, 0.074692,-0.094415,-0.082719,1,-0.462058, 0.304862, 9.791014,1,0
1778256726162,  1662.288,  1662.283, 0.171681, 0.017213,-0.903814, 0.001595, 0.000181,-0.009569, 0.518158, 0.402739,-2.583235,1, 0.090910,-0.074146,-0.018599,1,-0.443748, 0.324042, 9.791245,1,0
1778256726185,  1662.313,  1662.308, 0.292146, 0.047709,-0.536238, 0.002807, 0.000563,-0.004836, 2.437787, 0.825208, 4.532125,1, 0.118712,-0.053210, 0.032689,1,-0.425487, 0.361090, 9.790759,1,0
1778256726211,  1662.333,  1662.333, 0.308734, 0.032406,-1.254132, 0.003077, 0.000356,-0.012026, 2.607095, 0.692978,-2.508396,1, 0.085193, 0.013545, 0.040719,1,-0.420921, 0.377896, 9.790322,1,0
1778256726232,  1662.358,  1662.353, 0.143314,-0.009853,-1.047484, 0.001524, 0.000138,-0.010410, 2.163568, 0.911620,-2.638180,1, 0.116486, 0.029969, 0.075136,1,-0.430492, 0.398501, 9.789088,1,0
1778256726255,  1662.383,  1662.378, 0.157367, 0.048067,-0.931075, 0.001409, 0.000411,-0.009368, 1.117156, 0.916136, 0.656559,1, 0.194752,-0.012627, 0.107728,1,-0.425533, 0.450921, 9.787031,1,0
1778256726281,  1662.403,  1662.403, 0.193331, 0.089133,-0.798360, 0.001788, 0.000939,-0.007826, 1.473070, 1.353743, 1.956546,1, 0.141406,-0.019279, 0.152095,1,-0.422026, 0.484259, 9.785590,1,0
1778256726303,  1662.428,  1662.423, 0.133313, 0.090171,-1.090492, 0.001332, 0.000954,-0.010842, 0.687349, 0.535569,-0.345009,1, 0.106341, 0.017030, 0.172389,1,-0.418881, 0.508547, 9.784493,1,0
1778256726325,  1662.453,  1662.448, 0.020986, 0.022386,-1.116509, 0.000332, 0.000390,-0.011416,-0.209754, 0.753176,-1.165917,1, 0.080308,-0.045836, 0.265497,1,-0.413676, 0.536499, 9.783221,1,0
1778256726351,  1662.473,  1662.473, 0.087636, 0.027693,-1.072013, 0.000666, 0.000111,-0.010852, 0.452049, 0.829842,-0.730593,1, 0.118646,-0.011451, 0.248136,1,-0.406571, 0.562286, 9.782071,1,0
1778256726373,  1662.498,  1662.493, 0.152546, 0.001927,-0.792992, 0.001387, 0.000109,-0.007780, 0.987397, 1.558648, 1.711593,1, 0.115508,-0.039941, 0.292603,1,-0.397812, 0.589483, 9.780830,1,0
1778256726395,  1662.523,  1662.518, 0.231876, 0.083106,-0.845387, 0.002301, 0.000572,-0.008593, 1.873755, 1.445922, 1.487732,1, 0.163302, 0.068186, 0.303581,1,-0.401685, 0.636397, 9.777732,1,0
1778256726421,  1662.543,  1662.543, 0.147308, 0.015799,-0.898759, 0.001634, 0.000373,-0.008954, 1.033469, 0.816877, 0.961827,1, 0.152653, 0.071331, 0.353639,1,-0.412605, 0.667158, 9.775226,1,0
1778256726443,  1662.568,  1662.563, 0.037903,-0.000738,-1.157287, 0.000493, 0.000041,-0.011591,-0.039097,-0.190514,-0.842072,1, 0.159269, 0.040732, 0.312371,1,-0.418461, 0.702752, 9.772483,1,0
1778256726466,  1662.593,  1662.588,-0.044386,-0.179431,-0.951488,-0.000165,-0.001771,-0.010013,-0.849096,-1.013238, 0.438535,1, 0.154879,-0.029212, 0.311169,1,-0.412173, 0.751609, 9.769114,1,0
1778256726491,  1662.613,  1662.613,-0.009566,-0.013419,-1.082340,-0.000226,-0.000294,-0.010851,-0.501615, 0.637635,-0.846203,1, 0.071826, 0.016997, 0.294825,1,-0.407609, 0.771843, 9.767727,1,0
1778256726513,  1662.638,  1662.633,-0.011703,-0.068113,-0.975587,-0.000201,-0.000604,-0.009417,-0.176330, 0.142869,-0.317356,1, 0.004359, 0.029478, 0.349975,1,-0.409200, 0.779719, 9.767035,1,0
1778256726540,  1662.663,  1662.663,-0.030833, 0.049846,-1.042025,-0.000146, 0.000489,-0.010826,-0.716016, 1.272957,-0.452283,1,-0.020875, 0.051561, 0.373163,1,-0.414315, 0.783980, 9.766479,1,0
1778256726561,  1662.683,  1662.683,-0.035095,-0.098603,-0.922915,-0.000356,-0.001070,-0.009013,-0.761642,-0.188987, 0.716118,1,-0.031830, 0.048224, 0.351777,1,-0.418108, 0.777453, 9.766839,1,0
1778256726583,  1662.708,  1662.703,-0.028606,-0.040179,-1.054267,-0.000217,-0.000178,-0.010422,-0.811328, 1.534684,-0.354123,1,-0.092775, 0.058508, 0.387571,1,-0.424419, 0.761043, 9.767859,1,0
1778256726610,  1662.733,  1662.733,-0.078630, 0.029899,-1.049049,-0.000741, 0.000060,-0.010614,-1.201670, 1.028718,-0.518112,1,-0.141850, 0.045172, 0.387381,1,-0.431071, 0.731624, 9.769815,1,0
1778256726631,  1662.758,  1662.753,-0.066218,-0.088117,-0.891227,-0.000688,-0.000852,-0.008904,-1.069604, 0.253485,-0.129593,1,-0.145030, 0.021276, 0.411682,1,-0.431977, 0.709782, 9.771386,1,0
1778256726653,  1662.778,  1662.773,-0.029558, 0.112582,-1.049685,-0.000307, 0.001025,-0.010301,-0.945415, 0.475564, 0.344996,1,-0.144416,-0.006380, 0.392986,1,-0.426810, 0.689134, 9.773091,1,0
1778256726680,  1662.803,  1662.803,-0.006434,-0.071591,-1.003043,-0.000141,-0.000586,-0.009933,-0.478807,-0.043499,-0.060821,1,-0.105373,-0.009620, 0.429363,1,-0.414512, 0.655860, 9.775909,1,0
1778256726702,  1662.828,  1662.823, 0.097467, 0.096668,-1.098831, 0.000914, 0.001143,-0.011158, 0.239759, 1.304567,-1.186112,1,-0.119034, 0.024491, 0.412655,1,-0.410187, 0.634618, 9.777494,1,0
1778256726723,  1662.848,  1662.843, 0.147370,-0.009473,-0.921515, 0.001405,-0.000047,-0.009223, 0.690508, 0.448544,-0.013470,1,-0.093358, 0.066063, 0.445689,1,-0.415170, 0.614802, 9.778550,1,0
1778256726750,  1662.873,  1662.873, 0.015190, 0.108449,-1.085725, 0.000238, 0.001158,-0.011028,-0.270538, 1.656153,-0.867589,1,-0.117296, 0.021237, 0.458716,1,-0.419298, 0.589596, 9.779926,1,0
1778256726772,  1662.898,  1662.893, 0.028221,-0.097220,-0.925701, 0.000268,-0.001327,-0.009173,-0.431127,-1.064018, 0.679443,1,-0.058935,-0.001864, 0.469790,1,-0.414398, 0.576232, 9.780931,1,0
1778256726793,  1662.918,  1662.913, 0.168199, 0.096497,-0.871231, 0.001621, 0.001114,-0.008520, 1.021149, 1.537010, 0.733183,1,-0.070950, 0.013174, 0.430025,1,-0.413119, 0.564335, 9.781679,1,0
1778256726820,  1662.943,  1662.943, 0.279859,-0.066184,-0.965374, 0.002795,-0.000527,-0.009458, 2.327874,-0.100980, 0.315371,1,-0.092896, 0.057525, 0.408152,1,-0.417683, 0.545713, 9.782542,1,0
1778256726842,  1662.968,  1662.963, 0.263071,-0.102725,-0.885372, 0.002602,-0.000939,-0.008988, 2.379258, 0.716317, 0.189005,1,-0.101967, 0.067081, 0.454194,1,-0.426129, 0.533543, 9.782848,1,0
1778256726863,  1662.988,  1662.983, 0.129787, 0.041458,-1.257045, 0.000973, 0.000089,-0.012594, 1.483338,-0.692594,-0.282307,1,-0.106974, 0.058571, 0.449508,1,-0.432698, 0.522723, 9.783145,1,0
1778256726890,  1663.013,  1663.013, 0.175318,-0.055340,-0.997591, 0.001731,-0.000279,-0.010459, 1.266339,-0.039385, 0.000217,1,-0.053763, 0.097053, 0.435362,1,-0.455270, 0.502273, 9.783192,1,0
1778256726912,  1663.038,  1663.033, 0.039026, 0.010041,-0.818483, 0.000553, 0.000122,-0.008032, 0.874281, 0.336280, 2.798712,1,-0.061662,-0.025313, 0.372859,1,-0.453540, 0.495843, 9.783600,1,0
1778256726933,  1663.058,  1663.053,-0.004989,-0.134262,-1.167933, 0.000006,-0.001221,-0.011309, 0.298520, 0.252909,-1.352066,1,-0.098287,-0.027010, 0.387595,1,-0.443654, 0.484553, 9.784618,1,0
1778256726960,  1663.083,  1663.083,-0.017626, 0.013109,-1.015590,-0.000352, 0.000146,-0.010267,-0.603032, 0.598700,-0.173611,1,-0.072870,-0.030011, 0.403700,1,-0.428636, 0.468425, 9.786074,1,0
1778256726982,  1663.108,  1663.103,-0.037783, 0.099843,-1.005258,-0.000315, 0.000957,-0.010060,-0.776436, 0.400412,-0.281594,1,-0.110316,-0.048394, 0.360270,1,-0.415347, 0.453040, 9.787371,1,0
1778256727003,  1663.128,  1663.123,-0.091320,-0.036970,-0.938781,-0.000730,-0.000174,-0.009686,-0.798742, 1.358418,-0.224746,1,-0.113450,-0.028053, 0.363392,1,-0.405031, 0.435607, 9.788594,1,0
1778256727030,  1663.153,  1663.153,-0.088910, 0.038193,-1.047976,-0.000821, 0.000341,-0.010448,-1.264311, 0.784786,-0.486932,1,-0.107297, 0.000067, 0.377852,1,-0.391909, 0.407370, 9.790344,1,0
1778256727052,  1663.178,  1663.173,-0.091598, 0.003416,-0.957375,-0.000894,-0.000196,-0.009582,-1.544466, 0.175002, 1.356941,1,-0.099136, 0.018424, 0.410834,1,-0.391917, 0.389262, 9.791080,1,0
1778256727075,  1663.198,  1663.198,-0.113290, 0.134919,-1.061000,-0.001183, 0.001367,-0.010571,-1.505207, 1.688366,-0.612945,1,-0.114437, 0.038067, 0.400929,1,-0.394929, 0.362195, 9.791998,1,0
1778256727100,  1663.223,  1663.223,-0.161897,-0.051987,-1.035382,-0.001750,-0.000569,-0.010253,-1.983225,-0.162820,-0.361106,1,-0.086850, 0.001627, 0.386150,1,-0.395185, 0.344773, 9.792617,1,0
1778256727122,  1663.248,  1663.243,-0.132537, 0.060599,-0.917175,-0.001274, 0.000895,-0.009551,-1.585618, 1.081543,-1.540198,1,-0.067751, 0.051236, 0.366380,1,-0.398711, 0.331848, 9.792920,1,0
1778256727145,  1663.268,  1663.268,-0.038225,-0.055038,-0.907943,-0.000276,-0.000491,-0.009221,-0.776592,-0.220343, 0.889332,1,-0.045883, 0.007903, 0.363756,1,-0.401605, 0.318433, 9.793247,1,0
1778256727171,  1663.293,  1663.293, 0.049300, 0.100897,-1.000256, 0.000648, 0.001027,-0.010465, 0.077663, 1.304553,-0.015975,1,-0.049997, 0.025005, 0.370540,1,-0.406208, 0.314013, 9.793200,1,0
1778256727192,  1663.318,  1663.313, 0.092737,-0.075738,-1.041477, 0.000965,-0.000788,-0.010226, 0.596961,-0.329505,-0.228875,1,-0.031059, 0.000940, 0.356764,1,-0.406651, 0.312464, 9.793232,1,0
1778256727215,  1663.338,  1663.338, 0.188726, 0.076518,-0.935754, 0.001972, 0.000904,-0.010071, 1.435393, 1.063169, 0.616245,1,-0.006473, 0.045988, 0.356483,1,-0.416456, 0.313049, 9.792801,1,0
1778256727241,  1663.363,  1663.363, 0.233430,-0.149164,-0.953131, 0.002327,-0.001293,-0.009407, 1.872589,-1.147947, 0.445716,1,-0.014862, 0.002747, 0.349452,1,-0.416315, 0.314854, 9.792749,1,0
1778256727262,  1663.388,  1663.383, 0.326510, 0.021976,-0.906126, 0.003023, 0.000233,-0.008967, 2.652161, 0.641638,-0.180314,1,-0.015365, 0.040170, 0.329961,1,-0.421918, 0.316605, 9.792453,1,0
1778256727285,  1663.408,  1663.408, 0.343784,-0.081685,-1.140963, 0.003202,-0.001180,-0.010875, 2.947184,-0.484329,-1.396676,1,-0.040208, 0.041668, 0.320788,1,-0.425165, 0.315903, 9.792335,1,0
1778256727311,  1663.433,  1663.433, 0.376827,-0.040184,-1.130415, 0.003953,-0.000211,-0.011510, 3.568069, 0.185564,-0.589964,1,-0.047276, 0.054836, 0.320089,1,-0.434889, 0.310277, 9.792088,1,0
1778256727332,  1663.458,  1663.453, 0.448505,-0.039655,-1.012270, 0.004501,-0.000261,-0.010198, 3.934406,-0.091510,-1.270943,1,-0.091473, 0.073187, 0.309892,1,-0.443832, 0.299655, 9.792017,1,0
1778256727355,  1663.478,  1663.478, 0.394444,-0.104408,-1.006229, 0.003940,-0.001051,-0.009166, 3.403801,-0.741973,-0.076147,1,-0.121388, 0.095584, 0.291451,1,-0.467090, 0.278567, 9.791558,1,0
1778256727381,  1663.503,  1663.503, 0.373158,-0.073688,-0.937897, 0.003664,-0.001006,-0.009381, 3.182643,-0.463047, 0.593984,1,-0.157756, 0.033829, 0.286756,1,-0.477603, 0.255107, 9.791690,1,0
1778256727402,  1663.528,  1663.523, 0.149381,-0.017536,-1.177778, 0.001525,-0.000595,-0.012454, 1.218246,-0.272964,-0.932356,1,-0.147716, 0.041768, 0.265113,1,-0.482449, 0.228115, 9.792119,1,0
1778256727425,  1663.553,  1663.548, 0.122412,-0.025733,-0.979213, 0.001149,-0.000188,-0.010323, 0.701721,-0.069241, 0.189446,1,-0.162465, 0.070298, 0.216428,1,-0.500798, 0.178393, 9.792230,1,0
1778256727451,  1663.573,  1663.573, 0.059319,-0.084994,-0.927558, 0.000336,-0.000690,-0.008254, 0.076691,-0.684255, 0.696261,1,-0.219896, 0.025809, 0.206167,1,-0.505732, 0.142726, 9.792561,1,0
1778256727472,  1663.598,  1663.593, 0.087115,-0.051082,-0.872353, 0.000402,-0.000721,-0.008045, 0.202052,-0.330348, 1.831722,1,-0.228853, 0.017502, 0.199935,1,-0.508650, 0.098978, 9.792950,1,0
1778256727495,  1663.623,  1663.613, 0.011668, 0.042860,-0.904055, 0.000113, 0.000017,-0.009683, 0.202052,-0.330348, 1.831722,1,-0.228853, 0.017502, 0.199935,1,-0.508650, 0.098978, 9.792950,1,0
1778256727521,  1663.643,  1663.643, 0.017477, 0.027873,-1.006294, 0.000205, 0.000349,-0.010115,-0.331077, 0.266942,-0.074617,1,-0.233086, 0.029967, 0.122835,1,-0.503409,-0.013465, 9.793712,1,0
1778256727543,  1663.668,  1663.663,-0.028144,-0.018162,-0.676762,-0.000096,-0.000292,-0.007219,-0.462868,-0.796234, 1.827577,1,-0.186890, 0.035851, 0.138135,1,-0.510784,-0.053816, 9.793191,1,0
1778256727565,  1663.693,  1663.688,-0.183481, 0.017815,-1.165712,-0.001964, 0.000192,-0.010174,-2.302246, 0.073595,-1.638504,1,-0.189684,-0.022790, 0.076451,1,-0.502226,-0.106896, 9.793198,1,0
1778256727591,  1663.713,  1663.713,-0.104889,-0.044143,-1.420393,-0.001137,-0.000219,-0.014317,-1.536159,-0.564591,-4.136676,1,-0.102801, 0.033998, 0.016758,1,-0.508616,-0.134872, 9.792522,1,0
1778256727613,  1663.738,  1663.733,-0.115942,-0.087196,-0.980985,-0.001350,-0.000949,-0.009434,-2.363448,-0.903186, 2.152554,1,-0.034811,-0.038066,-0.003810,1,-0.505929,-0.142570, 9.792553,1,0
1778256727635,  1663.763,  1663.758,-0.209177,-0.076645,-1.000616,-0.002383,-0.000960,-0.011019,-2.546564,-0.893154,-0.019574,1, 0.059877,-0.016493,-0.115936,1,-0.494673,-0.139838, 9.793167,1,0
1778256727661,  1663.783,  1663.783,-0.255463, 0.009007,-0.859025,-0.002265, 0.000067,-0.008517,-2.993689,-0.039718, 1.369482,1, 0.102615,-0.048863,-0.160116,1,-0.486847,-0.125078, 9.793759,1,0
1778256727683,  1663.808,  1663.803,-0.159302,-0.143920,-0.955187,-0.001336,-0.002018,-0.010468,-2.340024,-2.389482,-0.404379,1, 0.135494,-0.026802,-0.210047,1,-0.479261,-0.107202, 9.794345,1,0
1778256727706,  1663.833,  1663.828,-0.115764,-0.023649,-1.130637,-0.000907,-0.000053,-0.011165,-1.600024,-0.308066,-1.292428,1, 0.130965,-0.047099,-0.243671,1,-0.463237,-0.072427, 9.795435,1,0
1778256727731,  1663.853,  1663.853,-0.063521,-0.145137,-0.968722,-0.000539,-0.001482,-0.010290,-1.082631,-1.473566, 0.295823,1, 0.182069,-0.028944,-0.317634,1,-0.458753,-0.045041, 9.795811,1,0
1778256727753,  1663.878,  1663.873, 0.083173,-0.229592,-1.048220, 0.000832,-0.002336,-0.010388,-0.281158,-1.001402, 1.023295,1, 0.141715,-0.043863,-0.328993,1,-0.451311,-0.021319, 9.796236,1,0
1778256727780,  1663.903,  1663.903, 0.118519,-0.080415,-1.004137, 0.001137,-0.000990,-0.010168, 0.719690,-0.789267,-0.050559,1, 0.073827,-0.031689,-0.377734,1,-0.441592, 0.001107, 9.796702,1,0
1778256727801,  1663.923,  1663.923, 0.140654,-0.218245,-1.081058, 0.001460,-0.002080,-0.011284, 0.940043,-2.131973,-0.804757,1, 0.069028,-0.011820,-0.394054,1,-0.438941, 0.009883, 9.796817,1,0
1778256727823,  1663.948,  1663.943, 0.147287,-0.167039,-1.047437, 0.001482,-0.001475,-0.010001, 1.088598,-0.641358, 0.966452,1, 0.040052,-0.013337,-0.417377,1,-0.439069, 0.015768, 9.796803,1,0
1778256727850,  1663.973,  1663.973, 0.100610,-0.111466,-1.029075, 0.000967,-0.001376,-0.010367, 0.552334,-1.078191,-0.294767,1, 0.012840,-0.017032,-0.462733,1,-0.433809, 0.014680, 9.797039,1,0
1778256727871,  1663.998,  1663.993, 0.134723,-0.182967,-0.957272, 0.001173,-0.001869,-0.009667, 0.788083,-1.076334, 0.180052,1, 0.012595,-0.055723,-0.464111,1,-0.425677, 0.012807, 9.797399,1,0
1778256727893,  1664.018,  1664.013, 0.164656,-0.062511,-1.006736, 0.001706,-0.000576,-0.009731, 0.892329,-0.849337, 1.242100,1, 0.057421,-0.065092,-0.515652,1,-0.415320, 0.018113, 9.797834,1,0
1778256727920,  1664.043,  1664.043, 0.145737,-0.187138,-1.058276, 0.001495,-0.002173,-0.010951, 1.033553,-1.803243,-0.579533,1, 0.108858,-0.058337,-0.540539,1,-0.393872, 0.034668, 9.798676,1,0
1778256727942,  1664.068,  1664.063, 0.131257,-0.205279,-1.132796, 0.001169,-0.002089,-0.011054, 0.747603,-0.679085, 0.935817,1, 0.158097,-0.100854,-0.546517,1,-0.378733, 0.057921, 9.799163,1,0
1778256727963,  1664.088,  1664.083, 0.134364,-0.078706,-1.166711, 0.001657,-0.000810,-0.012080, 0.482271,-0.711255,-1.396716,1, 0.194906,-0.049047,-0.584453,1,-0.366341, 0.088912, 9.799401,1,0
1778256727990,  1664.113,  1664.113, 0.139241,-0.095479,-0.793616, 0.001704,-0.001546,-0.008889, 1.006384,-0.793698, 2.016315,1, 0.247926,-0.044113,-0.629084,1,-0.358009, 0.149642, 9.798970,1,0
1778256728012,  1664.138,  1664.133, 0.139630,-0.127668,-0.984067, 0.001786,-0.001898,-0.010699, 1.093352,-1.282406, 0.694043,1, 0.275566,-0.061260,-0.616409,1,-0.346132, 0.194655, 9.798606,1,0
1778256728033,  1664.158,  1664.153, 0.130471,-0.092710,-0.937487, 0.001573,-0.000564,-0.009220, 1.810645,-0.855560,-0.799365,1, 0.236367,-0.025261,-0.624425,1,-0.342580, 0.239697, 9.797732,1,0
1778256728060,  1664.183,  1664.183, 0.241933,-0.074213,-0.893986, 0.002092,-0.000449,-0.008162, 2.030848,-0.422782, 1.028933,1, 0.267313,-0.004846,-0.609232,1,-0.342153, 0.312682, 9.795691,1,0
1778256728082,  1664.208,  1664.203, 0.243203,-0.098242,-1.033342, 0.002145,-0.000569,-0.009216, 2.242906,-1.391162,-1.338527,1, 0.232827, 0.022230,-0.588734,1,-0.346435, 0.357099, 9.794021,1,0
1778256728103,  1664.228,  1664.223, 0.345374,-0.146902,-1.064239, 0.003545,-0.001767,-0.010510, 1.968404,-0.158547, 0.997930,1, 0.255319, 0.027054,-0.568413,1,-0.355926, 0.400641, 9.791996,1,0
1778256728130,  1664.253,  1664.253, 0.274138,-0.071906,-0.927399, 0.002833,-0.000598,-0.009607, 2.306085,-0.244483, 0.693680,1, 0.253971, 0.071048,-0.536189,1,-0.385291, 0.467940, 9.787899,1,0
1778256728152,  1664.278,  1664.273, 0.150912,-0.095197,-1.050757, 0.001420,-0.000362,-0.010124, 1.690426,-0.286516,-2.250578,1, 0.179868, 0.055391,-0.487335,1,-0.403443, 0.506562, 9.785245,1,0
1778256728173,  1664.298,  1664.293, 0.208515,-0.010354,-0.591310, 0.001956,-0.000261,-0.006228, 1.292028, 0.540004, 2.936232,1, 0.198331, 0.042990,-0.426838,1,-0.418504, 0.542692, 9.782675,1,0
1778256728200,  1664.323,  1664.323, 0.051983,-0.053205,-1.273077, 0.000442, 0.000061,-0.011729, 0.093642, 0.055527,-2.703824,1, 0.114559, 0.000402,-0.363413,1,-0.416820, 0.580377, 9.780583,1,0
1778256728222,  1664.348,  1664.343, 0.186589,-0.062149,-0.725791, 0.001642,-0.000402,-0.007057, 2.058797,-0.561581,-1.464966,1, 0.082371, 0.067718,-0.333081,1,-0.432753, 0.593470, 9.779105,1,0
1778256728244,  1664.368,  1664.363, 0.072656, 0.029360,-0.989241, 0.001015, 0.000108,-0.010120, 0.939103, 0.163932, 2.117954,1, 0.079700,-0.014059,-0.293703,1,-0.437006, 0.607657, 9.778045,1,0
1778256728270,  1664.393,  1664.393,-0.038418,-0.121485,-1.286092,-0.000327,-0.001451,-0.012931,-0.819797,-0.581114,-2.834642,1, 0.000528, 0.033881,-0.245182,1,-0.444580, 0.609918, 9.777563,1,0
1778256728292,  1664.418,  1664.413,-0.143253, 0.028010,-0.891747,-0.001688, 0.000159,-0.009361,-1.836394,-0.379024,-0.104483,1, 0.029336, 0.022651,-0.224550,1,-0.451668, 0.613497, 9.777014,1,0
1778256728315,  1664.438,  1664.438,-0.204190,-0.045488,-1.019780,-0.001852,-0.000712,-0.010247,-2.453635, 0.163900,-0.223377,1,-0.048210,-0.042536,-0.189790,1,-0.450259, 0.608216, 9.777409,1,0
1778256728341,  1664.463,  1664.463,-0.248948,-0.051091,-1.015616,-0.002633, 0.000190,-0.009327,-2.888712, 0.101835,-0.181920,1, 0.028653,-0.006880,-0.166323,1,-0.447472, 0.603518, 9.777828,1,0
1778256728362,  1664.488,  1664.483,-0.140967,-0.070554,-0.983948,-0.001838,-0.000292,-0.008955,-2.019593, 0.676175, 0.585639,1,-0.056418,-0.039419,-0.151602,1,-0.442310, 0.593782, 9.778659,1,0
1778256728385,  1664.508,  1664.508,-0.167389, 0.041003,-0.970643,-0.001565,-0.000046,-0.010380,-2.081740, 0.992578, 0.260200,1,-0.023531,-0.015305,-0.125501,1,-0.439977, 0.589567, 9.779019,1,0
1778256728411,  1664.533,  1664.533,-0.108656,-0.054397,-0.985119,-0.001347,-0.000064,-0.009239,-1.510478, 0.057527, 0.117995,1, 0.038046, 0.028699,-0.098366,1,-0.446006, 0.592029, 9.778597,1,0
1778256728432,  1664.558,  1664.553,-0.115032,-0.013253,-1.066014,-0.001656, 0.000434,-0.009880,-1.186753, 0.957108,-1.090486,1, 0.022748, 0.009851,-0.095516,1,-0.448842, 0.595124, 9.778279,1,0
1778256728455,  1664.578,  1664.578,-0.097654,-0.017165,-1.269531,-0.001135,-0.000555,-0.012907,-1.404288, 0.441438,-2.672369,1, 0.035099,-0.006116,-0.070772,1,-0.446569, 0.610740, 9.777421,1,0
1778256728481,  1664.603,  1664.603,-0.162170,-0.035479,-0.865806,-0.001196,-0.000380,-0.009240,-2.034615, 0.278051, 1.285909,1, 0.107058,-0.044911,-0.058424,1,-0.442987, 0.629230, 9.776411,1,0
1778256728502,  1664.628,  1664.623, 0.031596, 0.008637,-0.878164, 0.000593, 0.000112,-0.009363,-0.251215, 1.467597,-0.150596,1, 0.124311, 0.007500,-0.053883,1,-0.442973, 0.647487, 9.775220,1,0
1778256728525,  1664.648,  1664.648, 0.075056,-0.020235,-1.070627, 0.000723,-0.000500,-0.010945, 0.294114, 0.473109,-0.725619,1, 0.093199, 0.018366,-0.009698,1,-0.442525, 0.674429, 9.773418,1,0
1778256728551,  1664.673,  1664.673, 0.162117,-0.002545,-0.849413, 0.001437, 0.000339,-0.008031, 1.145128, 0.664909, 1.442344,1, 0.112446, 0.009293, 0.032919,1,-0.444914, 0.693411, 9.771981,1,0
1778256728572,  1664.698,  1664.693, 0.203480,-0.017184,-0.930631, 0.002068, 0.000123,-0.009570, 2.216075, 1.101092,-1.250253,1, 0.047104, 0.029163, 0.050370,1,-0.447267, 0.705787, 9.770988,1,0
1778256728595,  1664.718,  1664.718, 0.310110, 0.008373,-1.109536, 0.002612,-0.000166,-0.010601, 2.591812, 0.799586,-1.110786,1,-0.015037, 0.012314, 0.109739,1,-0.449465, 0.717168, 9.770058,1,0
1778256728621,  1664.743,  1664.743, 0.320002,-0.042454,-0.989967, 0.003058,-0.000499,-0.009897, 2.690267, 0.301230, 0.061837,1,-0.038594, 0.001769, 0.168340,1,-0.447552, 0.716604, 9.770187,1,0
1778256728642,  1664.768,  1664.763, 0.414612,-0.029385,-1.043089, 0.003876,-0.000125,-0.010352, 2.607704, 2.042171,-0.348846,1,-0.071964, 0.033265, 0.187997,1,-0.449398, 0.705660, 9.770899,1,0
1778256728665,  1664.793,  1664.788, 0.437337, 0.138999,-0.886648, 0.004541, 0.001487,-0.009624, 3.824110, 2.044266, 1.076873,1,-0.125001, 0.101375, 0.286974,1,-0.467236, 0.677684, 9.772042,1,0
1778256728691,  1664.813,  1664.813, 0.317103, 0.095342,-0.787805, 0.003276, 0.000627,-0.007834, 2.635384, 1.593374, 2.047288,1,-0.178845, 0.003820, 0.325784,1,-0.473766, 0.653313, 9.773388,1,0
1778256728713,  1664.838,  1664.833, 0.069804, 0.082327,-0.740776, 0.001187, 0.000094,-0.007854, 0.954403, 0.787918, 5.421432,1,-0.157145,-0.111013, 0.369624,1,-0.454848, 0.621757, 9.776344,1,0
1778256728735,  1664.863,  1664.858,-0.362233,-0.111678,-2.843088,-0.003144,-0.000839,-0.025163,-3.973330,-0.550635,-18.098724,1,-0.482997, 0.070990, 0.392072,1,-0.422566, 0.530037, 9.783194,1,0
1778256728761,  1664.883,  1664.883, 0.298339, 0.194882,-0.757895, 0.003180, 0.001182,-0.013634, 2.456587, 2.391423, 2.351225,1,-0.230646, 0.294400, 0.489686,1,-0.477538, 0.473826, 9.783549,1,0
1778256728783,  1664.908,  1664.903, 0.050368, 0.211333,-0.705163,-0.000132, 0.002379,-0.003066, 1.480947, 0.372252,11.950091,1,-0.224924,-0.087912, 0.487084,1,-0.482249, 0.458745, 9.784037,1,0
1778256728805,  1664.933,  1664.928,-0.128420, 0.102078,-1.555532,-0.001005, 0.000972,-0.017599,-1.733788, 1.370738,-5.466373,1,-0.338121, 0.097360, 0.384279,1,-0.476995, 0.359744, 9.788434,1,0
1778256728831,  1664.953,  1664.953,-0.397590,-0.206614,-0.999133,-0.004542,-0.001866,-0.009477,-4.386567,-1.699390,-0.009081,1,-0.207392, 0.065720, 0.442760,1,-0.489128, 0.321024, 9.789182,1,0
1778256728853,  1664.978,  1664.973,-0.184563, 0.077256,-1.181423,-0.002581, 0.001257,-0.009533,-3.617804, 0.744000, 1.535180,1,-0.235456,-0.036599, 0.371850,1,-0.485113, 0.282899, 9.790558,1,0
1778256728875,  1665.003,  1664.998,-0.216959, 0.023848,-0.806447,-0.001559,-0.000320,-0.010363,-2.605972, 0.469295, 1.883596,1,-0.202161,-0.058884, 0.269378,1,-0.476289, 0.229535, 9.792387,1,0
1778256728901,  1665.023,  1665.023,-0.111926,-0.132359,-1.025426,-0.001312,-0.000536,-0.009155,-1.570902,-1.089737,-0.262983,1,-0.086712,-0.009940, 0.256590,1,-0.472799, 0.205946, 9.793081,1,0
1778256728923,  1665.048,  1665.043,-0.108362,-0.055700,-1.185322,-0.001287,-0.000217,-0.011353,-1.521638,-0.163615,-0.528614,1,-0.163116,-0.041418, 0.239068,1,-0.462554, 0.182180, 9.794041,1,0
1778256728946,  1665.073,  1665.068,-0.167288,-0.108893,-1.096753,-0.001736,-0.001456,-0.010809,-2.092170,-0.902368,-0.960626,1,-0.079067,-0.050971, 0.171098,1,-0.449958, 0.163286, 9.794961,1,0
1778256728971,  1665.093,  1665.093,-0.186640, 0.006383,-0.924211,-0.001443,-0.000109,-0.010348,-2.274263, 0.220690, 0.731906,1,-0.015245,-0.047842, 0.117230,1,-0.442398, 0.157783, 9.795396,1,0
1778256728993,  1665.118,  1665.113,-0.046102,-0.043088,-1.043369,-0.000077,-0.000793,-0.011779,-1.530176,-0.642243,-1.262313,1,-0.013173,-0.016126, 0.081054,1,-0.436864, 0.154095, 9.795703,1,0
1778256729020,  1665.143,  1665.143,-0.064034,-0.094527,-0.798363,-0.000370,-0.000675,-0.007780,-1.055245,-0.780659, 1.966979,1, 0.001382,-0.044510, 0.058798,1,-0.425866, 0.146454, 9.796304,1,0
1778256729041,  1665.163,  1665.163, 0.105186,-0.074564,-0.963697, 0.000872,-0.000558,-0.009707, 0.610808,-0.594090, 0.346022,1,-0.022725,-0.013670, 0.023862,1,-0.420275, 0.136452, 9.796690,1,0
1778256729063,  1665.188,  1665.183, 0.095809,-0.071951,-1.128573, 0.001334,-0.000561,-0.011828, 0.548176,-0.648421,-1.071171,1,-0.103588,-0.009838, 0.023499,1,-0.417226, 0.122232, 9.797008,1,0
1778256729090,  1665.213,  1665.213, 0.044097,-0.066616,-0.900042, 0.000560,-0.000526,-0.008743, 0.012023,-0.554980, 0.970746,1,-0.087914, 0.018144, 0.012938,1,-0.420980, 0.095579, 9.797144,1,0
1778256729111,  1665.238,  1665.233,-0.011693,-0.001921,-0.856061, 0.000104, 0.000015,-0.008720,-0.326452,-0.349769,-0.665059,1,-0.144005, 0.040416, 0.006781,1,-0.425067, 0.067381, 9.797202,1,0
1778256729133,  1665.258,  1665.253, 0.022671,-0.060388,-1.116424, 0.000062,-0.000238,-0.010567,-0.193581, 0.112515,-0.456512,1,-0.223207,-0.015305, 0.006370,1,-0.427632, 0.034037, 9.797263,1,0
1778256729160,  1665.283,  1665.283, 0.018522,-0.027495,-0.926901, 0.000105,-0.000453,-0.009139,-0.245897,-0.290664, 0.707504,1,-0.253276,-0.039636, 0.009985,1,-0.426298,-0.028914, 9.797338,1,0
1778256729182,  1665.308,  1665.303, 0.163249,-0.012606,-0.883668, 0.001286, 0.000071,-0.008800, 0.067674, 0.504759,-0.584667,1,-0.254949,-0.001448, 0.025096,1,-0.420422,-0.079176, 9.797314,1,0
1778256729203,  1665.328,  1665.323, 0.279750, 0.006464,-0.933832, 0.002779,-0.000035,-0.009043, 1.115897,-0.265919, 2.145930,1,-0.262730, 0.019694, 0.043075,1,-0.424261,-0.129162, 9.796617,1,0
1778256729230,  1665.353,  1665.353, 0.335905, 0.024714,-0.789452, 0.003278, 0.000297,-0.007638, 2.839491, 0.039706, 2.052120,1,-0.301425, 0.150993, 0.045511,1,-0.459347,-0.211983, 9.793592,1,0
1778256729252,  1665.378,  1665.373,-0.248903,-0.080074,-1.264458,-0.002380,-0.000789,-0.012118,-0.159269,-0.006009,-1.402234,1,-0.331324, 0.091467, 0.056706,1,-0.485960,-0.273247, 9.790790,1,0
1778256729273,  1665.398,  1665.393,-0.366907, 0.001369,-1.121305,-0.003617, 0.000012,-0.012313,-5.028390,-0.178374,-2.322327,1,-0.284071,-0.063786, 0.026859,1,-0.480356,-0.331226, 9.789276,1,0
1778256729300,  1665.423,  1665.423,-0.042467, 0.070753,-0.876995,-0.000560, 0.000766,-0.008348,-0.880362, 0.299421, 1.187337,1,-0.242964,-0.070094,-0.044576,1,-0.461666,-0.402067, 9.787522,1,0
1778256729322,  1665.448,  1665.443, 0.290625,-0.142404,-0.872405, 0.003079,-0.001745,-0.008793, 1.707754,-0.568543, 1.993554,1,-0.147223,-0.002110,-0.034301,1,-0.457863,-0.439715, 9.786081,1,0
1778256729343,  1665.468,  1665.463, 0.175276,-0.003300,-1.089602, 0.001964,-0.000377,-0.011628, 1.895042,-1.213164, 0.394982,1,-0.102881, 0.013406,-0.093440,1,-0.455313,-0.464378, 9.785062,1,0
1778256729370,  1665.493,  1665.493, 0.099524,-0.079590,-0.963984, 0.001108,-0.000956,-0.009662, 0.504458,-1.264054, 0.329913,1,-0.001576, 0.066086,-0.174668,1,-0.473332,-0.483858, 9.783262,1,0
1778256729392,  1665.518,  1665.513, 0.044473,-0.078918,-0.893715, 0.000661,-0.001466,-0.009430, 0.628788,-2.308971, 0.275762,1, 0.046608, 0.041848,-0.242306,1,-0.481095,-0.481664, 9.782992,1,0
1778256729413,  1665.538,  1665.533, 0.160362,-0.149106,-1.058172, 0.001373,-0.001208,-0.010529, 0.620022,-1.118342, 0.054917,1, 0.047835, 0.025432,-0.308449,1,-0.481313,-0.474556, 9.783329,1,0
1778256729440,  1665.563,  1665.563, 0.290074,-0.071577,-0.864256, 0.002551,-0.000731,-0.008520, 2.360375,-1.159963, 1.308512,1, 0.060090, 0.027508,-0.357127,1,-0.484612,-0.456711, 9.784015,1,0
1778256729462,  1665.588,  1665.583, 0.374241,-0.090336,-0.979600, 0.003531,-0.000953,-0.009577, 3.243147,-2.975568,-0.709802,1, 0.063092, 0.026829,-0.379234,1,-0.489264,-0.447932, 9.784189,1,0
1778256729483,  1665.608,  1665.603, 0.482758,-0.254279,-1.044251, 0.004679,-0.002593,-0.010704, 3.442904,-1.627781,-0.080501,1, 0.052705, 0.050701,-0.407654,1,-0.494467,-0.441050, 9.784241,1,0
1778256729510,  1665.633,  1665.633, 0.387971,-0.154614,-0.951140, 0.004297,-0.001171,-0.009273, 3.300544,-1.942243, 0.456916,1, 0.089723, 0.056351,-0.481312,1,-0.505258,-0.423979, 9.784444,1,0
1778256729532,  1665.658,  1665.653, 0.209294,-0.260716,-1.222600, 0.002201,-0.002280,-0.011958, 1.692543,-1.418021, 0.274755,1, 0.102846, 0.015211,-0.538368,1,-0.504072,-0.407940, 9.785187,1,0
1778256729555,  1665.678,  1665.678, 0.191375,-0.013875,-0.928737, 0.001950,-0.000135,-0.009953, 1.373583,-0.510145, 0.678790,1, 0.216839, 0.035744,-0.613021,1,-0.503545,-0.368304, 9.786786,1,0
1778256729581,  1665.703,  1665.703, 0.126202,-0.136506,-1.002452, 0.001344,-0.001788,-0.009721, 0.737839,-1.675999,-0.042601,1, 0.198434,-0.024341,-0.655340,1,-0.498322,-0.332197, 9.788345,1,0
1778256729602,  1665.728,  1665.723, 0.039091,-0.028436,-1.011482, 0.000274,-0.000488,-0.011285,-0.230385,-3.255565,-1.185783,1, 0.290790,-0.027813,-0.699837,1,-0.485877,-0.287393, 9.790389,1,0
1778256729625,  1665.748,  1665.748, 0.077697,-0.133250,-0.999402, 0.000965,-0.001932,-0.010108, 0.283530,-1.527382,-0.008305,1, 0.280982,-0.010289,-0.755938,1,-0.477563,-0.213040, 9.792698,1,0
1778256729651,  1665.773,  1665.773, 0.039398,-0.359803,-0.833625, 0.000117,-0.003109,-0.006999,-0.085907,-3.698365, 1.618719,1, 0.322266,-0.001954,-0.771538,1,-0.471792,-0.161015, 9.793971,1,0
1778256729672,  1665.798,  1665.793,-0.081319,-0.163854,-1.093884,-0.000715,-0.002666,-0.010646,-1.312845,-2.541585, 1.265306,1, 0.228531,-0.057392,-0.787781,1,-0.460744,-0.124032, 9.795035,1,0
1778256729695,  1665.818,  1665.818,-0.224603,-0.189791,-0.579929,-0.002284,-0.001628,-0.005266,-2.638690,-1.946630, 4.109412,1, 0.192810,-0.138917,-0.796523,1,-0.431537,-0.080512, 9.796820,1,0
1778256729721,  1665.843,  1665.843,-0.248470,-0.165615,-1.626001,-0.002277,-0.001274,-0.016998,-2.844856,-1.708758,-6.147844,1, 0.002376,-0.064791,-0.753251,1,-0.405970,-0.085530, 9.797870,1,0
1778256729742,  1665.868,  1665.863, 0.071954,-0.117454,-0.517627, 0.000465,-0.000346,-0.003908, 0.647086,-1.662270,-0.185268,1,-0.021757, 0.007879,-0.777803,1,-0.411133,-0.088668, 9.797626,1,0
1778256729765,  1665.888,  1665.888, 0.055147,-0.031846,-0.977856, 0.000950,-0.000799,-0.010963, 0.149308,-0.427505, 0.208659,1,-0.136732,-0.048806,-0.701406,1,-0.389723,-0.120338, 9.798164,1,0
1778256729791,  1665.913,  1665.913, 0.116626,-0.179937,-1.174359, 0.000722,-0.001689,-0.010568, 0.750488,-1.907676,-1.718808,1,-0.153098, 0.041600,-0.717068,1,-0.394196,-0.148771, 9.797595,1,0
1778256729812,  1665.938,  1665.933,-0.074872,-0.006460,-0.699250,-0.000431,-0.000442,-0.007914,-0.840058,-0.614799, 2.629047,1,-0.099346,-0.047377,-0.677496,1,-0.389019,-0.174504, 9.797377,1,0
1778256729835,  1665.958,  1665.958,-0.079404,-0.123771,-1.619560,-0.001376,-0.000344,-0.012646,-1.148181,-1.425399,-6.085058,1,-0.182603, 0.013257,-0.661634,1,-0.369465,-0.218089, 9.797260,1,0
1778256729861,  1665.983,  1665.983, 0.010870,-0.106026,-1.524738,-0.000040,-0.001404,-0.018388,-0.291029,-1.285644,-5.157076,1,-0.065193, 0.247853,-0.643450,1,-0.404841,-0.248711, 9.795133,1,0
1778256729882,  1666.008,  1666.003, 0.211894,-0.123886,-0.936893, 0.001289,-0.000698,-0.006016, 2.203009,-2.059761, 5.284580,1,-0.021115, 0.109761,-0.614539,1,-0.435551,-0.263995, 9.793415,1,0
1778256729905,  1666.033,  1666.028,-0.004637,-0.102069,-0.929012, 0.000036,-0.001308,-0.011008,-0.510098,-1.297574, 0.680650,1,-0.032513, 0.177657,-0.660910,1,-0.469537,-0.298605, 9.790851,1,0
1778256729931,  1666.053,  1666.053,-0.166077,-0.158555,-0.827360,-0.001621,-0.000651,-0.006454,-2.114470,-1.862538, 1.676149,1,-0.030090, 0.077716,-0.636511,1,-0.487611,-0.309563, 9.789627,1,0
1778256729953,  1666.078,  1666.073,-0.385688, 0.145698,-0.964563,-0.003661, 0.000899,-0.011421,-4.422703, 0.343612, 0.927664,1,-0.039345, 0.002127,-0.589671,1,-0.483855,-0.324534, 9.789329,1,0
1778256729975,  1666.103,  1666.098,-0.106945, 0.011145,-1.137437,-0.001671, 0.000302,-0.009570,-1.529817,-0.235700,-1.365681,1,-0.086391,-0.013677,-0.575299,1,-0.479988,-0.348566, 9.788692,1,0
1778256730001,  1666.123,  1666.123,-0.167232,-0.066791,-0.939050,-0.001518,-0.001398,-0.010634,-2.098581,-1.022061, 0.580101,1,-0.067044,-0.056574,-0.586179,1,-0.456150,-0.370011, 9.789045,1,0
1778256730023,  1666.148,  1666.143, 0.017056,-0.183680,-0.845563, 0.000266,-0.001630,-0.008411,-0.068795,-1.123259,-1.177479,1,-0.055034, 0.054963,-0.542212,1,-0.459388,-0.387855, 9.788203,1,0
1778256730045,  1666.173,  1666.168, 0.016072,-0.000671,-1.011869, 0.000618,-0.000092,-0.010948,-0.317118,-0.410568,-0.136228,1,-0.038212, 0.033973,-0.602035,1,-0.475014,-0.406088, 9.786717,1,0
1778256730071,  1666.193,  1666.193,-0.196108, 0.024318,-1.158968,-0.001497,-0.000312,-0.012250,-2.405087,-0.170724,-1.579344,1, 0.009594, 0.081212,-0.576682,1,-0.483704,-0.409781, 9.786138,1,0
1778256730093,  1666.218,  1666.213,-0.242208, 0.180306,-0.874059,-0.002127, 0.001091,-0.009906,-2.470888,-1.720828,-0.233249,1, 0.048119, 0.047779,-0.581953,1,-0.487894,-0.410535, 9.785898,1,0
1778256730115,  1666.243,  1666.238,-0.104095, 0.088576,-1.068516,-0.000757, 0.000667,-0.011560,-1.138427,-0.941544,-1.064198,1, 0.055615, 0.032555,-0.537246,1,-0.488819,-0.411337, 9.785818,1,0
1778256730141,  1666.263,  1666.263, 0.012627, 0.022835,-0.908343, 0.000503, 0.000160,-0.009867,-0.362520,-0.188622, 0.878084,1, 0.017018,-0.028402,-0.515107,1,-0.484782,-0.412820, 9.785956,1,0
1778256730163,  1666.288,  1666.283, 0.173567, 0.043646,-0.865758, 0.001705, 0.000154,-0.009243,-0.140151,-0.292850, 1.810759,1, 0.048905, 0.026126,-0.497067,1,-0.482365,-0.410710, 9.786165,1,0
1778256730186,  1666.313,  1666.308,-0.002532,-0.038771,-0.972775, 0.000589,-0.000903,-0.010079,-0.508114,-0.798001, 0.246154,1,-0.018284,-0.003405,-0.473716,1,-0.482550,-0.419085, 9.785801,1,0
1778256730211,  1666.333,  1666.333,-0.146451, 0.107975,-1.224644,-0.001574, 0.001258,-0.011434,-1.911362, 0.634255,-2.223729,1,-0.025181,-0.051897,-0.487214,1,-0.472893,-0.426139, 9.785968,1,0
1778256730233,  1666.358,  1666.353,-0.157037, 0.034710,-1.102264,-0.001454, 0.000790,-0.010234,-1.362214, 0.192104,-0.933469,1,-0.019053,-0.061464,-0.465586,1,-0.456458,-0.429069, 9.786620,1,0
1778256730260,  1666.383,  1666.383,-0.088092, 0.054028,-0.951350,-0.001226, 0.000209,-0.009762,-1.298863, 0.090055, 0.457562,1,-0.010052,-0.072322,-0.337732,1,-0.432194,-0.440632, 9.787208,1,0
1778256730281,  1666.403,  1666.403, 0.074884, 0.013853,-1.109263, 0.000409, 0.000203,-0.011114, 0.312991,-0.311902,-1.090795,1,-0.013250,-0.023512,-0.323044,1,-0.420174,-0.448605, 9.787369,1,0
1778256730303,  1666.428,  1666.423, 0.048302, 0.009754,-0.927484, 0.000352, 0.000127,-0.008922, 0.648311, 1.026624, 2.276419,1,-0.020500,-0.016677,-0.307588,1,-0.415630,-0.453593, 9.787333,1,0
1778256730330,  1666.453,  1666.453, 0.031919, 0.042161,-1.013870, 0.000263, 0.000056,-0.010186,-0.103265,-0.042763,-0.155489,1,-0.010118, 0.034586,-0.339138,1,-0.416871,-0.456982, 9.787123,1,0
1778256730351,  1666.478,  1666.473,-0.070281, 0.019777,-0.867467,-0.000569,-0.000453,-0.009438,-0.394987,-0.818128, 1.123382,1, 0.023410, 0.039725,-0.310984,1,-0.421861,-0.458189, 9.786853,1,0
1778256730373,  1666.498,  1666.493,-0.061969, 0.001392,-1.140506,-0.000856, 0.000354,-0.010830,-1.263194,-0.113971,-0.114002,1,-0.058193,-0.013144,-0.311423,1,-0.417222,-0.467736, 9.786600,1,0
1778256730400,  1666.523,  1666.523, 0.179628, 0.014138,-0.953992, 0.001563, 0.000272,-0.009219, 1.338870,-0.343911, 0.430176,1,-0.070488, 0.054836,-0.323594,1,-0.423893,-0.485188, 9.785463,1,0
1778256730422,  1666.548,  1666.543, 0.061092,-0.049060,-1.109752, 0.000647,-0.000912,-0.011031, 0.623356,-2.045064,-0.978546,1,-0.056658, 0.045092,-0.303293,1,-0.424377,-0.501141, 9.784638,1,0
1778256730443,  1666.568,  1666.563, 0.078516,-0.053900,-1.141766, 0.000319,-0.000234,-0.010537, 0.623556,-1.093339,-0.955092,1,-0.067038, 0.061087,-0.321923,1,-0.435582,-0.518601, 9.783236,1,0
1778256730470,  1666.593,  1666.593, 0.142902,-0.007322,-0.873776, 0.001102,-0.000138,-0.009406, 0.953189,-0.613481, 1.212597,1,-0.068381, 0.109892,-0.373987,1,-0.450977,-0.544339, 9.781140,1,0
1778256730492,  1666.618,  1666.613, 0.077806,-0.133748,-0.786782, 0.000675,-0.001158,-0.007526, 1.037691,-3.375025, 0.784176,1,-0.056742, 0.037121,-0.417380,1,-0.460501,-0.559335, 9.779850,1,0
1778256730513,  1666.638,  1666.633, 0.141660,-0.140835,-1.056617, 0.001122,-0.001519,-0.010745, 0.746547,-1.128253, 1.176583,1,-0.035206, 0.013104,-0.460322,1,-0.458950,-0.570975, 9.779250,1,0
1778256730540,  1666.663,  1666.663, 0.176254,-0.092607,-1.173447, 0.001789,-0.000914,-0.011609, 1.270944,-1.485475,-1.728644,1, 0.039761, 0.050213,-0.526448,1,-0.458116,-0.576838, 9.778945,1,0
1778256730562,  1666.688,  1666.683, 0.278966,-0.172018,-0.928789, 0.002684,-0.001356,-0.009127, 0.995285,-1.721598, 0.536542,1, 0.093061, 0.059357,-0.604824,1,-0.462756,-0.565571, 9.779385,1,0
1778256730583,  1666.708,  1666.703, 0.136219,-0.241348,-0.996340, 0.001691,-0.002869,-0.010040, 1.541408,-2.750355, 0.887893,1, 0.157547, 0.044924,-0.647543,1,-0.467107,-0.543137, 9.780450,1,0
1778256730610,  1666.733,  1666.733, 0.135414,-0.264336,-1.304400, 0.001272,-0.002428,-0.013103, 0.851535,-3.096773,-3.009727,1, 0.196241, 0.121732,-0.742630,1,-0.479023,-0.499541, 9.782197,1,0
1778256730632,  1666.758,  1666.753, 0.086771,-0.253348,-0.708471, 0.000904,-0.002443,-0.007319, 0.868037,-1.950370, 2.554629,1, 0.248804, 0.072590,-0.773007,1,-0.492923,-0.459507, 9.783469,1,0
1778256730653,  1666.778,  1666.773, 0.058901,-0.054270,-1.017342, 0.000225,-0.000718,-0.009941, 0.321270,-1.744639, 3.011613,1, 0.235189,-0.026246,-0.814619,1,-0.484743,-0.419100, 9.785692,1,0
1778256730680,  1666.803,  1666.803, 0.113693,-0.276920,-1.525504, 0.000685,-0.002693,-0.014696, 0.638068,-3.079583,-5.171799,1, 0.243193, 0.082237,-0.839600,1,-0.478468,-0.357622, 9.788440,1,0
1778256730702,  1666.828,  1666.823,-0.007447, 0.037220,-0.799242, 0.000311,-0.000289,-0.008467,-0.199450,-2.023294, 3.812314,1, 0.307808,-0.044122,-0.855144,1,-0.474490,-0.306165, 9.790379,1,0
1778256730723,  1666.848,  1666.843, 0.004385,-0.252694,-1.302512,-0.000599,-0.001827,-0.011594,-0.037937,-1.382228,-2.621186,1, 0.209527,-0.092509,-0.858985,1,-0.454018,-0.263635, 9.792586,1,0
1778256730750,  1666.873,  1666.873,-0.013090,-0.225134,-0.966223, 0.000279,-0.002914,-0.011776,-0.568301,-2.412273, 0.319226,1, 0.250323,-0.059097,-0.873289,1,-0.437517,-0.197883, 9.794887,1,0
1778256730772,  1666.898,  1666.893,-0.049104,-0.078903,-0.764639, 0.000038,-0.001116,-0.009061,-0.050287,-0.948613, 0.995144,1, 0.339162,-0.016903,-0.847505,1,-0.430449,-0.142033, 9.796169,1,0
1778256730795,  1666.918,  1666.918, 0.047282,-0.176995,-1.241614, 0.000277,-0.000931,-0.010855, 0.048626,-1.809444,-2.378493,1, 0.292011,-0.032073,-0.832089,1,-0.413854,-0.065707, 9.797693,1,0
1778256730821,  1666.943,  1666.943, 0.034191, 0.011753,-0.751028, 0.000497,-0.000594,-0.008804,-0.069820, 0.097050, 2.433189,1, 0.317510,-0.066146,-0.822210,1,-0.403005,-0.009362, 9.798361,1,0
1778256730842,  1666.968,  1666.963, 0.015386, 0.000378,-0.995080, 0.000450,-0.000164,-0.010658,-0.485415,-1.485150,-0.526069,1, 0.331859,-0.065593,-0.800797,1,-0.387542, 0.047628, 9.798874,1,0
1778256730865,  1666.988,  1666.988, 0.066747,-0.139092,-1.060294, 0.000264,-0.001146,-0.009654, 0.281053,-1.250652,-0.599059,1, 0.271382,-0.062771,-0.765714,1,-0.371825, 0.120926, 9.798852,1,0
1778256730891,  1667.013,  1667.013, 0.042443,-0.110298,-0.935018, 0.000869,-0.001216,-0.010588, 0.053780,-0.926807, 0.629330,1, 0.241113,-0.073196,-0.710296,1,-0.360511, 0.161551, 9.798690,1,0
1778256730912,  1667.038,  1667.033,-0.000679,-0.119367,-1.016273, 0.000201,-0.000995,-0.010304, 0.491767,-0.669901,-0.432573,1, 0.197478,-0.077394,-0.674978,1,-0.349215, 0.198993, 9.798409,1,0
1778256730935,  1667.058,  1667.058, 0.193317,-0.112111,-1.011886, 0.001523,-0.001083,-0.009903, 1.550625,-0.856255,-0.125653,1, 0.162884,-0.006246,-0.655811,1,-0.345477, 0.247534, 9.797437,1,0
1778256730961,  1667.083,  1667.083, 0.043317,-0.111519,-0.968445, 0.000856,-0.001265,-0.009638, 0.078266,-0.814593, 0.299347,1, 0.211130,-0.005805,-0.643321,1,-0.346913, 0.284914, 9.796370,1,0
1778256730982,  1667.108,  1667.103,-0.030301,-0.082632,-0.971211,-0.000159,-0.000760,-0.009669, 0.183113,-2.143971,-1.057147,1, 0.246859, 0.013609,-0.647865,1,-0.350651, 0.326130, 9.794951,1,0
1778256731005,  1667.128,  1667.128,-0.039260,-0.130164,-1.049006,-0.000349,-0.001809,-0.010744,-0.738365,-0.885903,-0.494738,1, 0.267882,-0.035429,-0.657069,1,-0.353066, 0.398180, 9.792200,1,0
1778256731031,  1667.153,  1667.153,-0.037183,-0.239820,-0.804700,-0.000428,-0.001666,-0.007811,-0.711667,-1.906763, 1.898978,1, 0.377092,-0.065829,-0.676311,1,-0.345925, 0.456076, 9.789929,1,0
1778256731052,  1667.178,  1667.173, 0.056344,-0.286120,-1.070288,-0.000062,-0.002288,-0.009314,-0.260305,-0.386395, 1.420709,1, 0.247972,-0.163827,-0.669023,1,-0.326869, 0.510373, 9.787904,1,0
1778256731075,  1667.198,  1667.198,-0.036646,-0.107925,-0.957635, 0.000138,-0.001544,-0.010700,-0.662385,-0.475682, 0.393441,1, 0.266673,-0.117886,-0.608032,1,-0.300460, 0.590420, 9.784248,1,0
1778256731101,  1667.223,  1667.223, 0.101001,-0.134558,-0.969203, 0.000451,-0.001000,-0.008844, 0.697938,-0.680812, 0.276815,1, 0.290894,-0.089172,-0.630599,1,-0.291047, 0.647218, 9.780940,1,0
1778256731122,  1667.248,  1667.243, 0.086249,-0.147829,-1.112204, 0.000745,-0.001303,-0.010713,-0.091184,-0.260504,-0.196068,1, 0.229539,-0.086631,-0.611986,1,-0.280193, 0.695166, 9.777966,1,0
1778256731145,  1667.273,  1667.268,-0.071689,-0.084334,-0.750617,-0.000351,-0.001463,-0.008726,-0.978803,-0.062754, 2.411892,1, 0.281916,-0.099200,-0.557141,1,-0.274043, 0.772562, 9.772330,1,0
1778256731171,  1667.293,  1667.293,-0.043729,-0.152523,-1.300677,-0.000369,-0.001158,-0.012350,-0.700033,-0.682521,-2.986175,1, 0.248671,-0.036027,-0.532879,1,-0.271454, 0.820492, 9.768495,1,0
1778256731193,  1667.318,  1667.313,-0.089963,-0.013538,-0.932741,-0.000575,-0.000372,-0.010428,-1.471696, 0.395099, 1.512793,1, 0.336078,-0.048528,-0.516578,1,-0.270955, 0.875286, 9.763751,1,0
1778256731215,  1667.343,  1667.338,-0.016088,-0.059456,-0.954856,-0.000733,-0.000232,-0.009004,-0.426236, 0.363602, 0.393216,1, 0.323042, 0.012319,-0.452053,1,-0.270210, 0.956310, 9.756169,1,0
1778256731241,  1667.363,  1667.363,-0.205964,-0.063461,-1.059923,-0.001778,-0.000174,-0.010135,-2.285234, 0.376970,-0.642312,1, 0.264965,-0.104684,-0.350260,1,-0.263277, 1.007238, 9.751233,1,0
1778256731263,  1667.388,  1667.383,-0.069276, 0.112713,-0.830656, 0.000039, 0.000692,-0.010054,-0.545455, 1.701306,-1.084895,1, 0.300442,-0.018655,-0.330150,1,-0.261271, 1.067304, 9.744895,1,0
1778256731285,  1667.413,  1667.408, 0.086796, 0.063619,-0.881712,-0.000015, 0.000549,-0.007642, 0.595510, 1.782443, 1.087970,1, 0.358017,-0.112538,-0.268076,1,-0.253165, 1.169427, 9.733382,1,0
1778256731311,  1667.433,  1667.433,-0.008773, 0.010890,-0.851231,-0.000004,-0.000152,-0.009208,-0.320166, 1.327053, 1.379887,1, 0.321396,-0.125919,-0.137699,1,-0.230766, 1.230107, 9.726458,1,0
1778256731333,  1667.458,  1667.453, 0.086277, 0.015909,-1.316792, 0.000647, 0.000161,-0.013041,-0.239854, 1.996960,-1.531952,1, 0.278913,-0.051710,-0.095339,1,-0.218788, 1.281361, 9.720115,1,0
1778256731356,  1667.483,  1667.478, 0.197350, 0.162476,-0.924203, 0.001668, 0.001468,-0.009275, 1.719060, 2.930222, 0.649352,1, 0.199977, 0.010294, 0.063200,1,-0.216335, 1.343103, 9.711831,1,0
1778256731381,  1667.503,  1667.503, 0.301540, 0.078099,-0.658128, 0.003212, 0.000413,-0.007295, 2.749583, 2.141736, 3.253408,1, 0.146324,-0.088659, 0.145759,1,-0.204136, 1.380462, 9.706855,1,0
1778256731403,  1667.528,  1667.523, 0.074826,-0.010852,-1.711863, 0.000885,-0.000701,-0.018400,-0.521674, 1.689933,-5.488582,1, 0.087975, 0.018998, 0.262043,1,-0.191642, 1.399199, 9.704427,1,0
1778256731426,  1667.553,  1667.548, 0.298662, 0.249390,-0.639807, 0.002993, 0.002320,-0.008124, 2.705903, 3.852648, 3.428270,1, 0.044115, 0.162555, 0.390369,1,-0.226248, 1.408607, 9.702320,1,0
1778256731451,  1667.573,  1667.573, 0.351953, 0.257689,-0.869270, 0.003328, 0.002518,-0.007649, 3.224525, 3.945821, 1.176194,1,-0.070846, 0.038787, 0.494378,1,-0.225922, 1.416926, 9.701117,1,0
1778256731473,  1667.598,  1667.593, 0.315144, 0.122361,-1.196571, 0.003494, 0.001173,-0.013184, 1.924310, 2.382319,-2.918795,1,-0.040689, 0.122980, 0.540035,1,-0.226217, 1.411156, 9.701951,1,0
1778256731500,  1667.623,  1667.623, 0.476870, 0.134894,-0.940532, 0.004154, 0.001393,-0.008751, 4.432753, 2.718364, 0.480324,1,-0.106939, 0.149590, 0.645687,1,-0.245493, 1.392705, 9.704148,1,0
1778256731521,  1667.643,  1667.643, 0.476870, 0.134894,-0.940532, 0.004154, 0.001393,-0.008751, 3.571976, 2.961735,-0.485819,1,-0.101742, 0.194926, 0.703941,1,-0.259145, 1.375435, 9.706256,1,0
1778256731543,  1667.668,  1667.663, 0.354300, 0.119478,-0.889446, 0.003551, 0.000568,-0.009950, 3.793118, 2.126314, 1.730245,1,-0.145231, 0.145472, 0.773988,1,-0.271225, 1.347691, 9.709817,1,0
1778256731570,  1667.693,  1667.693, 0.363297, 0.153614,-1.161561, 0.002973, 0.001779,-0.010480, 3.272322, 2.812234,-1.676038,1,-0.230284, 0.207001, 0.786921,1,-0.293528, 1.299397, 9.715750,1,0
1778256731591,  1667.718,  1667.713, 0.145235,-0.048957,-1.162776, 0.001169, 0.000352,-0.011006, 1.180863, 2.010225, 0.254021,1,-0.227628, 0.153926, 0.827271,1,-0.303154, 1.261402, 9.720460,1,0
1778256731613,  1667.738,  1667.733, 0.060346, 0.049153,-1.098360, 0.000833, 0.001010,-0.011399,-0.336574, 1.163500,-2.715056,1,-0.230616, 0.187848, 0.809820,1,-0.315672, 1.218543, 9.725528,1,0
1778256731640,  1667.763,  1667.763,-0.104368, 0.156816,-0.781259,-0.000985, 0.001066,-0.009348,-1.348361, 2.701623, 2.070392,1,-0.239837, 0.087837, 0.817779,1,-0.324550, 1.157195, 9.732726,1,0
1778256731662,  1667.788,  1667.783,-0.374867,-0.141481,-1.005764,-0.003356,-0.001643,-0.010986,-3.064223, 2.012297,-0.171261,1,-0.181576, 0.062957, 0.763591,1,-0.320224, 1.125056, 9.736636,1,0
1778256731683,  1667.808,  1667.803,-0.402151,-0.204377,-1.074979,-0.003385,-0.001421,-0.009947,-3.836304, 1.202920,-0.924896,1,-0.130384, 0.067066, 0.658900,1,-0.321446, 1.101990, 9.739234,1,0
1778256731710,  1667.833,  1667.833,-0.345715,-0.170738,-0.986661,-0.003681,-0.000585,-0.009654,-3.706555,-0.579052, 0.064319,1, 0.060979, 0.061420, 0.533439,1,-0.316295, 1.097740, 9.739882,1,0
1778256731732,  1667.858,  1667.853,-0.453386,-0.096229,-0.821009,-0.004280,-0.001298,-0.009895,-3.884849, 1.297288, 0.986755,1, 0.043833, 0.065690, 0.461303,1,-0.315937, 1.108499, 9.738675,1,0
1778256731753,  1667.878,  1667.873,-0.362722,-0.159279,-1.139464,-0.003695,-0.001079,-0.009850,-4.654981, 0.637985, 0.819356,1, 0.097908, 0.019492, 0.357938,1,-0.314888, 1.136196, 9.735517,1,0
1778256731780,  1667.903,  1667.903,-0.317642,-0.047491,-0.973875,-0.003027,-0.001146,-0.010784,-3.419707, 0.718405, 0.179676,1, 0.163592,-0.028928, 0.305380,1,-0.302659, 1.189494, 9.729537,1,0
1778256731802,  1667.928,  1667.923,-0.104312,-0.110063,-0.936246,-0.001203,-0.000711,-0.008159,-1.897444,-0.788842,-0.229825,1, 0.264535, 0.002465, 0.268072,1,-0.297741, 1.244732, 9.722776,1,0
1778256731823,  1667.948,  1667.943,-0.122625,-0.028670,-0.917870,-0.000572,-0.000715,-0.010285,-1.094798, 2.201232, 1.019751,1, 0.315436, 0.000316, 0.241047,1,-0.287909, 1.301930, 9.715579,1,0
1778256731850,  1667.973,  1667.973,-0.043050,-0.123744,-1.227449,-0.001381,-0.000570,-0.010372,-0.688520, 0.167644,-2.331918,1, 0.331973,-0.024716, 0.258495,1,-0.264446, 1.391629, 9.703804,1,0
1778256731872,  1667.998,  1667.993,-0.008410,-0.102833,-1.214811,-0.000078,-0.000220,-0.010772,-0.280036, 0.967823,-1.376379,1, 0.188907,-0.132764, 0.321767,1,-0.237949, 1.440519, 9.697353,1,0
1778256731893,  1668.018,  1668.013, 0.347043,-0.037237,-0.752095, 0.003139,-0.000589,-0.008424, 1.638633, 1.301994,-1.249867,1, 0.266021,-0.029103, 0.351394,1,-0.209774, 1.492630, 9.690121,1,0
1778256731920,  1668.043,  1668.043, 0.378390, 0.143611,-1.052048, 0.004060, 0.001617,-0.009748, 2.821951, 2.753117, 2.515227,1, 0.242343,-0.032453, 0.317037,1,-0.195588, 1.544286, 9.682320,1,0
1778256731942,  1668.068,  1668.063, 0.425246,-0.048169,-0.998899, 0.004255,-0.000283,-0.010231, 3.165847, 1.179849,-0.650292,1, 0.134841, 0.068043, 0.481291,1,-0.187384, 1.594708, 9.674305,1,0
1778256731964,  1668.088,  1668.083, 0.316410, 0.204702,-0.942086, 0.003485, 0.001407,-0.010408, 3.351596, 2.380300, 1.999733,1, 0.127681, 0.097075, 0.551084,1,-0.187777, 1.620358, 9.670034,1,0
1778256731990,  1668.113,  1668.113, 0.371188, 0.089489,-1.085677, 0.002990, 0.001328,-0.009469, 3.452837, 2.510524,-0.978927,1,-0.002835, 0.114663, 0.662613,1,-0.187360, 1.633247, 9.667873,1,0
1778256732012,  1668.138,  1668.133, 0.222119, 0.086287,-1.155890, 0.002679, 0.000361,-0.011898, 1.767701, 3.061557, 1.018215,1,-0.068099, 0.104633, 0.717437,1,-0.184549, 1.621638, 9.669882,1,0
1778256732035,  1668.158,  1668.158, 0.378158, 0.042270,-0.877824, 0.003065, 0.001041,-0.006869, 3.520266, 2.009747, 1.065693,1,-0.108789, 0.161185, 0.806309,1,-0.189064, 1.592349, 9.674661,1,0
1778256732061,  1668.183,  1668.183, 0.143358, 0.154788,-0.947996, 0.001632, 0.000771,-0.010979, 1.222572, 3.076051, 0.383682,1,-0.196419, 0.121894, 0.873561,1,-0.182760, 1.552587, 9.681243,1,0
1778256732082,  1668.208,  1668.203, 0.039150, 0.063524,-1.040843, 0.000341, 0.000776,-0.009592, 1.541637, 1.075011,-1.676274,1,-0.172964, 0.174379, 0.900626,1,-0.191942, 1.508712, 9.688000,1,0
1778256732105,  1668.228,  1668.228,-0.130489, 0.015209,-1.205457,-0.000931, 0.000378,-0.010182,-1.477415, 1.599631,-2.124726,1,-0.280384, 0.163093, 0.872162,1,-0.198756, 1.442376, 9.697960,1,0
1778256732131,  1668.253,  1668.253,-0.042816,-0.056461,-1.099702,-0.000662,-0.000021,-0.009405,-0.626775, 0.853768,-1.081476,1,-0.177510, 0.186208, 0.797180,1,-0.209066, 1.402498, 9.703590,1,0
1778256732152,  1668.278,  1668.273, 0.062062,-0.104153,-0.966990, 0.000672,-0.000815,-0.009934, 0.183394, 0.403189, 0.062065,1,-0.184094, 0.156928, 0.789116,1,-0.216903, 1.361544, 9.709250,1,0
1778256732175,  1668.298,  1668.298, 0.140443, 0.067462,-0.872810, 0.000964,-0.000077,-0.010346, 1.154959, 1.982892, 1.155344,1,-0.206652, 0.102884, 0.698039,1,-0.222555, 1.315414, 9.715479,1,0
1778256732201,  1668.323,  1668.323, 0.075759,-0.033242,-1.135872, 0.000924,-0.000873,-0.011203, 0.517489, 0.975785,-1.421848,1,-0.179733, 0.077061, 0.646900,1,-0.225156, 1.296686, 9.717937,1,0
1778256732222,  1668.348,  1668.343, 0.213022,-0.147368,-0.972102, 0.002511,-0.000865,-0.009407, 0.969204, 0.288400,-0.916100,1,-0.089743, 0.106033, 0.590477,1,-0.227833, 1.280228, 9.720057,1,0
1778256732245,  1668.368,  1668.368, 0.250922,-0.115117,-0.787632, 0.002494,-0.000435,-0.007756, 2.222935, 0.135608, 1.997847,1,-0.044304, 0.063387, 0.490274,1,-0.237755, 1.263521, 9.722005,1,0
1778256732271,  1668.393,  1668.393, 0.216035,-0.019167,-1.335555, 0.001461,-0.000091,-0.013396, 1.879293, 1.064129,-3.373877,1,-0.102563, 0.114987, 0.488392,1,-0.240898, 1.249282, 9.723767,1,0
1778256732292,  1668.418,  1668.413, 0.149840,-0.204570,-0.917839, 0.001308,-0.001922,-0.008367, 0.691888,-0.378610, 1.331914,1,-0.021736, 0.065611, 0.465051,1,-0.243670, 1.249562, 9.723662,1,0
1778256732315,  1668.438,  1668.438, 0.046348,-0.029480,-1.054530, 0.001329, 0.000113,-0.010859, 0.209325, 0.970320,-0.619057,1, 0.064673, 0.086332, 0.328205,1,-0.246552, 1.261676, 9.722025,1,0
1778256732341,  1668.463,  1668.463, 0.060170,-0.060767,-0.934525, 0.000829,-0.000299,-0.009663, 0.339436, 0.675238, 0.556129,1, 0.101806, 0.076630, 0.341617,1,-0.251624, 1.274580, 9.720212,1,0
1778256732362,  1668.488,  1668.483,-0.053103,-0.082217,-0.845496,-0.000452,-0.001335,-0.008661, 0.267781, 1.043018, 1.253623,1, 0.089602, 0.032500, 0.342642,1,-0.252626, 1.289812, 9.718176,1,0
1778256732385,  1668.513,  1668.508,-0.060639,-0.067817,-0.822649,-0.000273,-0.000497,-0.009226,-0.847406, 0.647762, 1.647657,1, 0.055672, 0.018574, 0.335081,1,-0.251915, 1.314812, 9.714844,1,0
1778256732411,  1668.533,  1668.533,-0.021842,-0.018705,-1.014644, 0.000111, 0.000097,-0.010614,-0.461752, 1.141671,-0.236697,1, 0.024020, 0.042729, 0.356339,1,-0.247369, 1.326127, 9.713423,1,0
1778256732433,  1668.558,  1668.553, 0.002434,-0.019971,-0.843613, 0.000244,-0.000900,-0.008435, 0.337079, 2.248850, 0.909786,1, 0.003058, 0.035984, 0.378316,1,-0.248315, 1.331902, 9.712608,1,0
1778256732455,  1668.583,  1668.578, 0.037724,-0.052243,-0.990719, 0.000578,-0.000866,-0.010369, 0.125818, 0.814921,-0.002287,1,-0.053476, 0.049314, 0.397777,1,-0.243967, 1.325815, 9.713552,1,0
1778256732481,  1668.603,  1668.603, 0.069975,-0.136926,-0.877871, 0.001069,-0.001113,-0.009426, 0.439078,-0.029421, 1.106184,1,-0.083021, 0.060866, 0.452054,1,-0.247131, 1.311152, 9.715462,1,0
1778256732503,  1668.628,  1668.623, 0.134123, 0.232840,-1.080971, 0.001458, 0.001523,-0.011051, 0.655145, 0.921718,-0.260193,1,-0.134473, 0.095918, 0.521248,1,-0.251707, 1.285156, 9.718817,1,0
1778256732525,  1668.653,  1668.648, 0.118789, 0.125119,-0.954956, 0.001589, 0.000594,-0.009116, 0.886345, 2.469854, 0.358660,1,-0.240756, 0.165916, 0.563721,1,-0.281484, 1.235906, 9.724386,1,0
1778256732551,  1668.673,  1668.673, 0.021155, 0.061285,-0.929210, 0.000524, 0.000008,-0.008392,-0.084286, 1.809013, 0.615146,1,-0.241494, 0.143071, 0.593479,1,-0.293889, 1.201086, 9.728381,1,0
1778256732573,  1668.698,  1668.693, 0.000720, 0.120515,-1.162216, 0.000194, 0.001250,-0.011962,-0.158324, 2.339622,-0.971087,1,-0.303042, 0.146712, 0.637531,1,-0.307185, 1.159674, 9.732994,1,0
1778256732596,  1668.723,  1668.718, 0.093690, 0.145714,-1.005895, 0.000775, 0.001229,-0.010995, 0.591390, 2.534374,-0.125817,1,-0.234485, 0.164490, 0.647650,1,-0.330209, 1.098815, 9.739300,1,0
1778256732621,  1668.743,  1668.743, 0.103088, 0.248725,-0.927498, 0.000884, 0.001869,-0.010641, 0.665745, 3.505734, 0.646707,1,-0.256255, 0.165299, 0.626007,1,-0.348200, 1.059317, 9.743048,1,0
1778256732643,  1668.768,  1668.763, 0.004688,-0.096348,-1.011789,-0.000283,-0.000843,-0.010136, 0.211160, 2.932683,-1.137356,1,-0.273965, 0.147278, 0.644439,1,-0.361733, 1.021031, 9.746642,1,0
1778256732666,  1668.793,  1668.788,-0.061224,-0.042715,-0.872763,-0.000638,-0.000125,-0.009033,-0.977230, 0.562379, 1.191275,1,-0.133973, 0.094280, 0.646204,1,-0.377733, 0.977886, 9.750459,1,0
1778256732691,  1668.813,  1668.813, 0.037885,-0.066416,-1.047117, 0.000130, 0.000087,-0.009861,-0.012797, 0.299179,-0.515802,1,-0.144681, 0.102101, 0.625840,1,-0.385602, 0.946773, 9.753221,1,0
1778256732713,  1668.838,  1668.833, 0.013377, 0.179991,-1.077731,-0.000152, 0.001319,-0.010995,-0.771625, 0.544463, 0.525564,1,-0.150380, 0.088587, 0.636111,1,-0.393821, 0.916972, 9.755739,1,0
1778256732740,  1668.863,  1668.863,-0.000259, 0.142725,-0.997681,-0.000010, 0.000816,-0.009824,-0.404356, 2.280475,-0.025168,1,-0.159907, 0.072243, 0.621307,1,-0.402319, 0.876643, 9.759099,1,0
1778256732761,  1668.883,  1668.883,-0.035200, 0.116875,-1.140118,-0.000268, 0.000277,-0.010801,-0.747743, 2.008852,-1.420402,1,-0.162109, 0.046931, 0.608872,1,-0.402334, 0.858440, 9.760716,1,0
1778256732783,  1668.908,  1668.903, 0.046800, 0.002293,-0.898610, 0.000966, 0.000889,-0.009144,-0.037218, 2.295696,-0.538948,1,-0.126110, 0.087672, 0.593652,1,-0.404983, 0.844934, 9.761786,1,0
1778256732810,  1668.933,  1668.933, 0.013245, 0.031272,-0.957481, 0.001054, 0.001267,-0.009382,-0.286389, 1.151357, 0.371647,1, 0.036304, 0.052796, 0.539768,1,-0.416466, 0.846523, 9.761165,1,0
1778256732832,  1668.958,  1668.953, 0.011795,-0.147008,-0.931073, 0.000359,-0.001963,-0.009408,-0.229354, 1.059674,-1.462654,1, 0.057047, 0.083372, 0.527910,1,-0.424231, 0.849021, 9.760613,1,0
1778256732853,  1668.978,  1668.973, 0.016884,-0.093660,-0.942008, 0.000405,-0.001447,-0.008790,-0.264074, 0.915040, 1.995663,1, 0.095995, 0.052283, 0.481509,1,-0.430205, 0.860603, 9.759337,1,0
1778256732880,  1669.003,  1669.003, 0.055666,-0.091597,-0.974494, 0.000618,-0.000964,-0.009945, 0.108954,-0.020388, 0.200973,1, 0.017545, 0.075596, 0.399823,1,-0.438171, 0.878973, 9.757346,1,0
1778256732902,  1669.028,  1669.023, 0.067322, 0.054498,-0.991249, 0.000687, 0.000056,-0.010383,-0.310521,-0.640654, 0.912408,1, 0.028496, 0.028862, 0.398659,1,-0.439950, 0.894547, 9.755850,1,0
1778256732923,  1669.048,  1669.043, 0.048635, 0.020117,-1.034323, 0.000336,-0.000429,-0.010796,-0.103654,-0.251142,-0.229549,1, 0.039560, 0.029180, 0.390573,1,-0.439714, 0.908412, 9.754580,1,0
1778256732950,  1669.073,  1669.073, 0.074570, 0.071319,-0.946267, 0.000199,-0.000046,-0.010098, 0.294252, 1.617908, 0.474049,1, 0.004479, 0.011886, 0.374488,1,-0.436304, 0.919167, 9.753725,1,0
1778256732972,  1669.098,  1669.093, 0.051076,-0.025976,-0.904835, 0.000808, 0.000619,-0.008686, 0.325324, 0.843501,-0.456484,1,-0.055280, 0.033005, 0.344688,1,-0.435977, 0.922464, 9.753428,1,0
1778256732993,  1669.118,  1669.113, 0.068458, 0.053924,-1.034773, 0.000717, 0.000940,-0.011073, 0.095151, 0.688938,-0.130002,1,-0.078520, 0.025086, 0.353231,1,-0.430907, 0.919643, 9.753921,1,0
1778256733020,  1669.143,  1669.143, 0.076823, 0.029157,-1.108811, 0.000622, 0.000752,-0.010875, 0.326170, 1.193768,-1.118534,1,-0.044717, 0.043685, 0.371727,1,-0.427485, 0.906957, 9.755259,1,0
1778256733042,  1669.168,  1669.163, 0.061460,-0.090544,-1.007402, 0.000085,-0.001295,-0.010080, 0.322959, 2.290564, 0.579289,1,-0.089284, 0.010412, 0.389390,1,-0.424695, 0.888132, 9.757113,1,0
1778256733063,  1669.188,  1669.183, 0.090642,-0.110923,-1.003961, 0.000575,-0.001078,-0.009709, 0.930826, 1.887390, 0.434166,1,-0.084692, 0.050553, 0.368737,1,-0.424788, 0.870431, 9.758703,1,0
1778256733090,  1669.213,  1669.213, 0.055920,-0.124903,-0.932223, 0.000327,-0.000941,-0.009024, 0.115758,-0.381142, 0.618719,1,-0.137213, 0.053130, 0.369515,1,-0.433285, 0.839984, 9.760998,1,0
1778256733112,  1669.238,  1669.233, 0.090706, 0.032676,-1.073632, 0.001033,-0.000115,-0.011391, 0.174511,-0.146957,-1.135237,1,-0.145049, 0.091899, 0.384201,1,-0.440700, 0.814359, 9.762837,1,0
1778256733133,  1669.258,  1669.253, 0.053017, 0.060111,-0.832157, 0.000591, 0.000150,-0.007991, 0.194206,-0.354127, 0.656142,1,-0.122054, 0.063915, 0.364248,1,-0.450455, 0.789705, 9.764417,1,0
1778256733160,  1669.283,  1669.283, 0.011649, 0.040888,-1.054263, 0.000340,-0.000085,-0.010318,-0.334688, 1.155998,-0.571564,1,-0.181592, 0.022196, 0.319941,1,-0.448842, 0.749834, 9.767634,1,0
1778256733182,  1669.308,  1669.303, 0.032691, 0.009236,-0.894284, 0.000870, 0.000488,-0.009154,-0.307426, 0.203004,-0.964136,1,-0.174261, 0.041185, 0.327991,1,-0.453102, 0.723772, 9.769403,1,0
1778256733204,  1669.328,  1669.323, 0.069423, 0.050626,-0.948408, 0.000994, 0.000809,-0.009413, 0.066916, 0.025196, 0.763276,1,-0.161464, 0.018510, 0.322104,1,-0.452464, 0.701552, 9.771053,1,0
1778256733230,  1669.353,  1669.353, 0.106108, 0.126466,-0.941445, 0.001281, 0.001357,-0.009905, 0.592753, 1.914680, 0.540748,1,-0.077091,-0.003442, 0.295485,1,-0.447067, 0.672493, 9.773345,1,0
1778256733252,  1669.378,  1669.373, 0.055007,-0.159737,-0.945960, 0.000090,-0.001527,-0.008940, 0.937796, 1.524676, 0.667543,1,-0.073194,-0.009616, 0.299453,1,-0.444109, 0.656266, 9.774583,1,0
1778256733275,  1669.398,  1669.398, 0.058196,-0.170204,-1.043120, 0.000035,-0.001391,-0.010334, 0.137826,-1.032829,-0.453109,1,-0.083058,-0.005916, 0.263356,1,-0.432160, 0.634076, 9.776583,1,0
1778256733301,  1669.423,  1669.423, 0.083618,-0.153092,-1.077770, 0.000221,-0.000742,-0.010160, 0.389686,-0.874493,-0.792185,1,-0.034649, 0.022265, 0.235768,1,-0.430549, 0.626066, 9.777170,1,0
1778256733322,  1669.448,  1669.443, 0.160057, 0.017671,-1.007630, 0.001331,-0.000120,-0.009941, 0.025681,-1.481353,-0.411235,1,-0.032810,-0.006208, 0.246395,1,-0.426986, 0.617506, 9.777870,1,0
1778256733345,  1669.468,  1669.468, 0.147351, 0.037579,-0.922030, 0.001517, 0.000001,-0.009643, 1.012732, 0.980134, 0.735979,1,-0.043730, 0.012554, 0.183121,1,-0.432320, 0.610498, 9.778076,1,0
1778256733371,  1669.493,  1669.493, 0.037901,-0.032704,-1.078833, 0.000798,-0.000744,-0.010713,-0.060631, 0.289514,-0.801643,1,-0.034928, 0.002573, 0.180326,1,-0.432040, 0.609396, 9.778157,1,0
1778256733392,  1669.518,  1669.513,-0.044200,-0.040364,-0.975278, 0.000047,-0.000175,-0.009949,-0.379176, 0.166562, 0.003991,1,-0.005878, 0.003140, 0.148420,1,-0.433514, 0.609686, 9.778074,1,0
1778256733415,  1669.538,  1669.538, 0.040654,-0.036549,-1.013303, 0.000573,-0.000062,-0.010155,-0.034059, 0.251671,-0.159026,1, 0.024896, 0.013676, 0.124946,1,-0.432924, 0.611036, 9.778016,1,0
1778256733441,  1669.563,  1669.563, 0.087597,-0.062835,-0.798253, 0.000853,-0.000224,-0.007880, 0.429168,-0.006106, 1.950025,1, 0.029613,-0.028968, 0.105193,1,-0.428755, 0.611158, 9.778192,1,0
1778256733462,  1669.588,  1669.583, 0.167837,-0.064001,-1.059286, 0.001081,-0.001124,-0.010464, 1.156177, 0.157602, 0.601727,1, 0.031751,-0.000353, 0.102200,1,-0.425176, 0.609117, 9.778476,1,0
1778256733485,  1669.608,  1669.608, 0.149312,-0.101540,-1.072337, 0.001014,-0.001251,-0.010025, 1.040655,-0.390707,-0.737239,1,-0.024511, 0.015236, 0.105335,1,-0.423866, 0.604441, 9.778823,1,0
1778256733511,  1669.633,  1669.633, 0.105541,-0.093448,-1.072740, 0.001077,-0.001699,-0.010706, 0.609706,-0.312246,-0.741205,1,-0.064758, 0.011403, 0.093931,1,-0.425476, 0.602278, 9.778886,1,0
1778256733532,  1669.658,  1669.653, 0.034506, 0.008151,-0.912228, 0.001539, 0.000439,-0.009460, 0.264208,-0.459976,-0.851636,1,-0.051026, 0.018625, 0.087435,1,-0.425855, 0.601813, 9.778898,1,0
1778256733555,  1669.678,  1669.678, 0.120480, 0.067024,-0.757758, 0.001791, 0.000921,-0.008260, 0.747285, 1.256289, 2.347630,1, 0.047184, 0.033787, 0.098387,1,-0.435084, 0.600614, 9.778565,1,0
1778256733581,  1669.703,  1669.703, 0.065554,-0.095108,-0.968750, 0.000483,-0.000598,-0.009261, 0.212032,-0.337441, 0.278886,1,-0.008561,-0.021091, 0.096111,1,-0.429994, 0.595120, 9.779127,1,0
1778256733602,  1669.728,  1669.723, 0.125693,-0.080393,-0.959060, 0.000919,-0.000978,-0.009599, 0.767424, 0.275944,-1.930654,1,-0.012886, 0.088511, 0.076067,1,-0.440538, 0.588876, 9.779036,1,0
1778256733625,  1669.753,  1669.748, 0.020462,-0.074176,-0.992463, 0.000376,-0.000784,-0.008863,-0.241541,-0.147452, 0.046754,1,-0.084955,-0.017614, 0.094611,1,-0.441486, 0.577459, 9.779674,1,0
1778256733651,  1669.773,  1669.773, 0.048281,-0.072001,-1.143879, 0.000419,-0.000949,-0.011595, 0.034767,-0.137199,-1.437325,1,-0.104540, 0.009914, 0.069393,1,-0.438888, 0.565736, 9.780476,1,0
1778256733673,  1669.798,  1669.793, 0.076915,-0.015217,-1.002605, 0.000992, 0.000351,-0.009720, 0.578291,-0.223913, 0.354909,1,-0.086589, 0.008396, 0.065226,1,-0.438267, 0.553142, 9.781224,1,0
1778256733695,  1669.823,  1669.818, 0.116054,-0.004136,-0.924028, 0.001516, 0.000455,-0.009242, 0.695515, 0.495151, 0.720379,1,-0.017919, 0.015346, 0.075921,1,-0.442933, 0.535262, 9.782008,1,0
1778256733721,  1669.843,  1669.843, 0.009071,-0.039227,-0.985567, 0.000717,-0.000276,-0.009785,-0.354101, 0.142593, 0.117323,1,-0.040155,-0.001702, 0.080138,1,-0.442867, 0.526142, 9.782506,1,0
1778256733743,  1669.868,  1669.863, 0.155713,-0.015137,-0.968291, 0.001127,-0.000753,-0.009480,-0.342489,-0.185012, 1.410328,1, 0.005729, 0.004451, 0.077387,1,-0.445856, 0.520326, 9.782681,1,0
1778256733765,  1669.893,  1669.888, 0.175470, 0.052424,-1.058471, 0.001047,-0.000383,-0.011555, 1.274234, 1.027818,-0.597055,1,-0.090399, 0.001528, 0.063157,1,-0.446486, 0.510990, 9.783145,1,0
1778256733791,  1669.913,  1669.913, 0.077865, 0.003365,-1.009485, 0.000821,-0.000268,-0.009833, 0.316955, 0.547921,-0.116733,1,-0.018665,-0.012995, 0.046054,1,-0.446157, 0.514408, 9.782981,1,0
1778256733813,  1669.938,  1669.933, 0.030639,-0.079893,-0.912654, 0.000127,-0.000608,-0.009573, 0.875128, 1.273984, 0.652577,1, 0.006633,-0.008477, 0.042012,1,-0.442412, 0.517737, 9.782975,1,0
1778256733836,  1669.963,  1669.958, 0.057132,-0.114020,-1.115123,-0.000041,-0.000317,-0.010090, 0.127835,-0.589212,-1.152799,1, 0.062406, 0.006337, 0.062391,1,-0.432536, 0.530972, 9.782707,1,0
1778256733861,  1669.983,  1669.983, 0.058629,-0.044763,-0.784834, 0.000561,-0.000211,-0.008359, 0.140691, 0.097717, 2.085724,1, 0.066220, 0.005522, 0.033592,1,-0.434464, 0.538614, 9.782205,1,0
1778256733883,  1670.008,  1670.003, 0.084673,-0.005172,-1.044482, 0.001117,-0.000272,-0.010951, 0.109387,-0.660958,-0.747240,1, 0.040544,-0.004975, 0.087384,1,-0.433656, 0.548257, 9.781704,1,0
1778256733906,  1670.033,  1670.028, 0.163662, 0.071875,-0.981619, 0.001692, 0.000555,-0.009861, 1.168973, 1.263920, 0.154598,1, 0.059863, 0.010816, 0.068395,1,-0.436220, 0.561028, 9.780867,1,0
1778256733931,  1670.053,  1670.053, 0.084583, 0.078265,-0.947661, 0.001131, 0.000789,-0.010213, 0.396074, 1.338384, 0.487045,1, 0.068637,-0.009575, 0.056255,1,-0.432997, 0.573081, 9.780311,1,0
1778256733953,  1670.078,  1670.073, 0.098152,-0.058095,-1.170229, 0.000694,-0.000911,-0.011336, 0.095224, 1.351012, 0.299228,1, 0.074344, 0.021469, 0.094089,1,-0.436358, 0.586288, 9.779378,1,0
1778256733980,  1670.103,  1670.103, 0.212241,-0.003975,-0.888652, 0.001165,-0.000793,-0.009307, 1.637930, 0.564697, 1.063302,1,-0.004361, 0.009001, 0.138116,1,-0.443460, 0.603735, 9.777997,1,0
1778256734001,  1670.123,  1670.123, 0.108497, 0.031378,-1.167922, 0.000917,-0.000085,-0.011435, 0.620969, 0.919832,-1.675908,1, 0.004154, 0.031521, 0.130803,1,-0.443745, 0.612430, 9.777444,1,0
1778256734023,  1670.148,  1670.143, 0.039950,-0.051665,-0.880489, 0.000412, 0.000371,-0.008113, 0.611143, 0.709591, 1.439279,1,-0.017947,-0.014952, 0.176804,1,-0.442874, 0.620268, 9.776989,1,0
1778256734050,  1670.173,  1670.173, 0.062086, 0.003200,-1.104972, 0.000492, 0.000746,-0.010459, 0.178216, 0.658149,-1.058953,1, 0.034913,-0.016279, 0.190384,1,-0.429749, 0.628116, 9.777074,1,0
1778256734072,  1670.198,  1670.193, 0.127902, 0.147703,-1.073457, 0.001501, 0.000867,-0.011109,-0.698084, 0.141156, 0.054398,1, 0.003242,-0.041963, 0.242175,1,-0.422245, 0.621723, 9.777809,1,0
1778256734093,  1670.218,  1670.213, 0.231160, 0.174479,-0.923346, 0.002378, 0.001541,-0.009576, 0.464143,-0.139613, 0.692304,1, 0.020298, 0.036938, 0.254653,1,-0.422561, 0.616736, 9.778111,1,0
1778256734120,  1670.243,  1670.243, 0.060457, 0.170675,-1.019974, 0.001431, 0.001753,-0.010811, 0.168537, 2.266167,-0.222995,1,-0.093399, 0.018042, 0.304051,1,-0.424329, 0.589918, 9.779690,1,0
1778256734142,  1670.268,  1670.263, 0.172616, 0.051081,-1.076028, 0.001028,-0.000161,-0.010529,-0.228654, 1.578778, 1.184230,1,-0.035542, 0.017836, 0.314512,1,-0.426445, 0.576246, 9.780413,1,0
1778256734163,  1670.288,  1670.283, 0.085341, 0.052836,-1.020736, 0.000963,-0.000193,-0.010419,-0.327983, 1.334166, 0.890550,1,-0.016471, 0.020721, 0.305097,1,-0.426361, 0.559927, 9.781364,1,0
1778256734190,  1670.313,  1670.313, 0.047633, 0.095134,-1.044354, 0.000583, 0.000374,-0.010683, 0.043376, 1.466844,-0.458685,1,-0.137753, 0.017954, 0.319480,1,-0.423758, 0.530040, 9.783142,1,0
1778256734212,  1670.338,  1670.333, 0.073762,-0.096105,-1.032706, 0.000329,-0.000597,-0.010109, 1.104374, 1.896256, 0.111374,1,-0.117616, 0.047970, 0.320381,1,-0.428277, 0.515170, 9.783740,1,0
1778256734233,  1670.358,  1670.353, 0.026171, 0.001602,-0.893696, 0.000546, 0.000048,-0.008898, 0.341115, 1.576388,-0.050522,1,-0.065464, 0.016973, 0.320223,1,-0.429332, 0.505158, 9.784216,1,0
1778256734260,  1670.383,  1670.383, 0.110856,-0.053883,-1.121828, 0.000535,-0.000728,-0.010510, 0.657970,-0.028459,-1.216886,1,-0.099144, 0.021706, 0.283063,1,-0.429447, 0.497226, 9.784616,1,0
1778256734282,  1670.408,  1670.403,-0.032597, 0.036503,-0.783534, 0.000232, 0.001004,-0.008531, 0.831103, 1.222119,-1.438231,1,-0.107660, 0.040238, 0.296320,1,-0.432245, 0.488692, 9.784924,1,0
1778256734303,  1670.428,  1670.423, 0.054583,-0.105897,-1.048997, 0.000372,-0.000092,-0.009561, 0.846116, 1.380947, 0.515036,1,-0.107882, 0.007309, 0.295994,1,-0.430059, 0.485357, 9.785186,1,0
1778256734330,  1670.453,  1670.453, 0.095671,-0.072720,-1.057446, 0.000626,-0.000293,-0.009907, 0.502488,-0.224709,-0.585220,1, 0.028681, 0.087441, 0.274655,1,-0.438022, 0.489707, 9.784616,1,0
1778256734352,  1670.478,  1670.473, 0.161127, 0.155878,-0.956940, 0.001982, 0.002002,-0.010058, 0.946094, 0.229517,-1.104166,1,-0.080297, 0.103593, 0.292375,1,-0.452798, 0.484794, 9.784188,1,0
1778256734373,  1670.498,  1670.493, 0.003950,-0.073004,-0.782093, 0.000286, 0.000402,-0.006571, 1.648953, 0.705946, 0.271888,1,-0.135481, 0.044953, 0.311283,1,-0.463019, 0.476311, 9.784126,1,0
1778256734400,  1670.523,  1670.523, 0.037447, 0.042778,-1.095982, 0.000112, 0.000580,-0.011291,-0.089393, 0.895207,-0.963452,1,-0.003052, 0.008815, 0.288280,1,-0.456462, 0.476025, 9.784449,1,0
1778256734422,  1670.548,  1670.543, 0.057056, 0.108881,-0.993672, 0.001049, 0.001233,-0.010036, 0.164096, 0.139833,-1.646032,1,-0.024669, 0.034968, 0.293086,1,-0.463067, 0.468030, 9.784524,1,0
1778256734444,  1670.568,  1670.563, 0.101467, 0.078596,-0.916183, 0.001511, 0.001027,-0.009022, 0.708613, 0.106303, 0.914314,1,-0.027347, 0.056869, 0.311901,1,-0.470800, 0.461365, 9.784471,1,0
1778256734470,  1670.593,  1670.593, 0.019901, 0.091133,-1.027247, 0.000415, 0.001490,-0.010586,-0.281148, 1.339933,-0.288946,1,-0.011567, 0.046939, 0.331353,1,-0.477304, 0.446365, 9.784852,1,0
1778256734492,  1670.618,  1670.613, 0.145134, 0.172811,-0.813265, 0.001800, 0.000911,-0.008867, 0.461917, 0.247839, 0.357053,1, 0.029061, 0.092588, 0.347427,1,-0.494537, 0.436951, 9.784421,1,0
1778256734515,  1670.638,  1670.638, 0.017847, 0.143314,-0.776584, 0.000914, 0.002094,-0.008171,-0.322447, 1.815309, 2.169758,1,-0.036987,-0.002407, 0.339610,1,-0.496943, 0.409262, 9.785496,1,0
1778256734541,  1670.663,  1670.663,-0.069901,-0.006124,-1.069144,-0.000495, 0.001046,-0.009754,-1.179441, 0.331198,-0.698342,1,-0.018295,-0.022488, 0.342577,1,-0.492821, 0.391226, 9.786443,1,0
1778256734562,  1670.688,  1670.683, 0.053794, 0.093472,-0.798820, 0.001098, 0.000411,-0.008715,-0.814597, 0.387035, 1.105139,1,-0.037914, 0.010361, 0.326526,1,-0.492478, 0.373277, 9.787161,1,0
1778256734585,  1670.708,  1670.708, 0.034588, 0.154517,-1.205206, 0.000784, 0.002085,-0.011361,-0.148282, 1.859326,-2.030556,1,-0.088227,-0.000288, 0.331522,1,-0.487103, 0.341795, 9.788580,1,0
1778256734611,  1670.733,  1670.733,-0.030806, 0.068992,-0.803845, 0.000281, 0.001158,-0.008518,-0.785719, 1.005169, 1.906180,1,-0.040372,-0.023255, 0.317237,1,-0.482558, 0.327819, 9.789283,1,0
1778256734632,  1670.758,  1670.753, 0.042455, 0.085723,-1.153147, 0.000792, 0.000648,-0.011797,-1.582355,-0.015306,-0.601648,1,-0.065466,-0.063877, 0.273532,1,-0.470461, 0.314998, 9.790293,1,0
1778256734655,  1670.778,  1670.778, 0.109185, 0.051873,-0.915047, 0.002008, 0.000648,-0.008991, 0.607150, 0.801495, 0.817759,1,-0.049628, 0.022920, 0.261814,1,-0.463741, 0.291566, 9.791339,1,0
1778256734681,  1670.803,  1670.803, 0.021466, 0.060885,-0.834832, 0.001052, 0.000843,-0.008925,-0.254722, 0.882242, 1.604546,1,-0.009929,-0.014789, 0.241512,1,-0.464547, 0.285211, 9.791488,1,0
1778256734702,  1670.828,  1670.823, 0.193000, 0.080301,-1.058981, 0.001786, 0.000201,-0.012037,-0.665537,-0.458960,-1.568606,1, 0.052905, 0.034512, 0.225636,1,-0.467976, 0.279952, 9.791476,1,0
1778256734725,  1670.848,  1670.848, 0.030564, 0.159305,-0.853987, 0.001549, 0.001337,-0.009445,-0.175638, 1.829145, 1.416733,1,-0.065987, 0.022180, 0.206989,1,-0.475888, 0.265149, 9.791507,1,0
1778256734751,  1670.873,  1670.873,-0.038345, 0.030898,-1.119840,-0.000076, 0.000752,-0.009912,-0.853531, 0.565481,-1.190377,1,-0.014160, 0.026984, 0.194263,1,-0.478175, 0.262326, 9.791471,1,0
1778256734772,  1670.898,  1670.893, 0.165702, 0.069607,-0.843270, 0.001667, 0.000048,-0.008849,-0.786442,-0.578305, 1.862141,1, 0.035907,-0.004822, 0.172203,1,-0.474624, 0.255497, 9.791825,1,0
1778256734795,  1670.918,  1670.918, 0.058740,-0.004575,-0.895118, 0.001102,-0.000087,-0.008313, 0.101680, 0.198988, 1.014022,1,-0.036153,-0.013545, 0.146493,1,-0.473823, 0.242943, 9.792183,1,0
1778256734821,  1670.943,  1670.943, 0.097309,-0.039558,-1.099627, 0.001588,-0.000345,-0.010885, 0.480494,-0.148864,-0.991374,1,-0.033273,-0.004557, 0.115774,1,-0.473551, 0.238203, 9.792313,1,0
1778256734843,  1670.968,  1670.963, 0.147801,-0.022963,-1.011672, 0.001248,-0.000375,-0.010123, 0.183270,-0.853700, 0.284828,1, 0.017684,-0.009020, 0.079925,1,-0.472852, 0.237881, 9.792355,1,0
1778256734865,  1670.993,  1670.988, 0.110943,-0.084145,-1.070013, 0.001644,-0.000694,-0.011181, 0.613784,-0.588219,-0.700934,1,-0.006368, 0.016051, 0.036366,1,-0.474679, 0.236807, 9.792293,1,0
1778256734891,  1671.013,  1671.013, 0.032717,-0.068766,-0.749621, 0.001476,-0.000594,-0.008071,-0.157777,-0.432315, 2.440698,1, 0.071118, 0.010533, 0.000645,1,-0.478949, 0.244271, 9.791901,1,0
1778256734913,  1671.038,  1671.033, 0.141542,-0.108819,-1.013019, 0.002180,-0.001552,-0.010764,-0.662766,-1.089079, 0.208499,1, 0.049978, 0.008497,-0.032172,1,-0.479534, 0.248302, 9.791771,1,0
1778256734935,  1671.063,  1671.058,-0.001433,-0.128970,-0.885096, 0.001046,-0.001288,-0.008811,-0.497004,-1.010405, 1.111618,1, 0.058084,-0.011684,-0.065899,1,-0.482641, 0.256072, 9.791418,1,0
1778256734961,  1671.083,  1671.083,-0.052308,-0.103953,-0.998251,-0.000309,-0.000926,-0.009712,-0.989584,-0.764133, 0.002234,1, 0.017969,-0.040582,-0.093878,1,-0.475432, 0.255713, 9.791780,1,0
1778256734983,  1671.108,  1671.103, 0.047356,-0.143188,-0.754180, 0.001054,-0.001793,-0.007464,-1.048396,-0.759487,-0.192124,1, 0.006096,-0.034400,-0.116762,1,-0.469459, 0.254791, 9.792092,1,0
1778256735005,  1671.133,  1671.128,-0.072025,-0.054950,-0.893983, 0.000072,-0.000911,-0.009096,-1.163543,-0.287243, 1.025775,1,-0.023629,-0.087424,-0.140146,1,-0.454610, 0.250697, 9.792899,1,0
1778256735031,  1671.153,  1671.153,-0.025868,-0.156535,-1.147631,-0.000447,-0.001202,-0.011451,-0.699533,-1.294793,-1.460854,1, 0.007470,-0.010731,-0.189557,1,-0.445669, 0.240252, 9.793571,1,0
1778256735053,  1671.178,  1671.173, 0.008388,-0.094305,-0.944523, 0.001149,-0.001088,-0.009625, 0.152550,-1.877333,-0.217740,1,-0.061106,-0.013204,-0.199394,1,-0.445325, 0.228783, 9.793861,1,0
1778256735076,  1671.203,  1671.198, 0.014478,-0.118691,-0.851713, 0.000488,-0.001168,-0.008759,-0.315111,-0.950690, 1.441222,1,-0.004444, 0.063400,-0.241853,1,-0.459232, 0.212778, 9.793580,1,0
1778256735101,  1671.223,  1671.223, 0.099209,-0.153841,-0.843235, 0.000066,-0.001400,-0.007060, 0.509107,-1.306108, 1.524274,1,-0.061556, 0.008899,-0.250565,1,-0.464237, 0.200265, 9.793609,1,0
1778256735123,  1671.248,  1671.243,-0.103700,-0.074283,-1.166041,-0.000798,-0.001712,-0.011970,-0.079134,-1.419718,-2.203276,1,-0.026981,-0.047537,-0.265238,1,-0.457638, 0.187446, 9.794172,1,0
1778256735146,  1671.273,  1671.268,-0.075113,-0.028264,-0.946862,-0.000902,-0.000320,-0.009727,-1.197050,-0.100035, 0.508689,1,-0.024466, 0.006011,-0.296414,1,-0.460795, 0.175939, 9.794238,1,0
1778256735171,  1671.293,  1671.293, 0.096834,-0.204797,-0.923010,-0.000077,-0.001076,-0.008441, 0.490832,-1.829998, 0.742648,1, 0.047754,-0.015569,-0.319649,1,-0.458485, 0.179400, 9.794284,1,0
1778256735193,  1671.318,  1671.313, 0.020281,-0.019323,-1.020579,-0.000118,-0.000208,-0.010667, 1.051897,-2.180325,-1.970534,1, 0.040189, 0.002318,-0.359979,1,-0.455658, 0.183137, 9.794347,1,0
1778256735220,  1671.343,  1671.343, 0.161552,-0.170134,-1.019992, 0.000415,-0.001078,-0.008743, 1.118465,-1.474404,-0.209047,1, 0.096708, 0.056649,-0.334368,1,-0.467795, 0.196557, 9.793514,1,0
1778256735242,  1671.363,  1671.363, 0.277865,-0.173009,-0.971014, 0.001980,-0.001331,-0.008971, 2.253657,-1.486870, 0.270680,1, 0.107116, 0.018872,-0.335973,1,-0.472080, 0.212600, 9.792974,1,0
1778256735263,  1671.388,  1671.383, 0.182438,-0.070120,-1.288789, 0.000323,-0.000541,-0.012265, 0.272653,-0.314302,-0.735132,1, 0.080560,-0.005930,-0.322944,1,-0.474236, 0.226273, 9.792562,1,0
1778256735290,  1671.413,  1671.413, 0.206728,-0.056531,-0.921483, 0.001824,-0.000540,-0.009673, 1.540342,-0.298185, 0.754537,1, 0.125738,-0.005285,-0.291625,1,-0.487041, 0.259665, 9.791105,1,0
1778256735312,  1671.438,  1671.433, 0.047697,-0.059330,-1.044018,-0.000196,-0.000201,-0.009396, 0.300195, 0.233472, 0.488515,1, 0.121706,-0.003279,-0.257944,1,-0.487794, 0.280784, 9.790485,1,0
1778256735333,  1671.458,  1671.453, 0.175849,-0.054533,-1.177041, 0.000760,-0.000492,-0.011758,-0.913394, 0.751146, 0.297408,1, 0.107703,-0.063129,-0.204345,1,-0.479621, 0.298470, 9.790366,1,0
1778256735360,  1671.483,  1671.483, 0.240381, 0.008316,-0.906040, 0.002491,-0.000364,-0.009984, 1.879347, 0.401761, 0.904544,1, 0.078598, 0.003542,-0.132695,1,-0.478235, 0.322460, 9.789673,1,0
1778256735382,  1671.508,  1671.503, 0.240686, 0.004062,-1.247864, 0.001424,-0.000202,-0.011785,-0.427850, 1.718684, 1.446697,1, 0.052729,-0.066399,-0.084601,1,-0.471409, 0.337248, 9.789506,1,0
1778256735403,  1671.528,  1671.523, 0.167246, 0.110980,-1.001106, 0.002084, 0.000106,-0.011287,-0.194428, 0.824781,-0.483434,1, 0.132246, 0.018265,-0.066117,1,-0.471690, 0.352168, 9.788967,1,0
1778256735430,  1671.553,  1671.553,-0.014102, 0.096295,-0.896650, 0.001098, 0.001131,-0.009043,-0.604219, 1.304939, 0.995804,1, 0.087296, 0.009096,-0.001822,1,-0.466212, 0.363322, 9.788821,1,0
1778256735452,  1671.578,  1671.573, 0.155937, 0.116355,-0.728674, 0.002251, 0.000534,-0.008965,-0.119581, 0.844298,-0.032571,1, 0.102966, 0.034679, 0.018578,1,-0.475268, 0.374040, 9.787982,1,0
1778256735473,  1671.598,  1671.593,-0.070040, 0.078168,-0.927935, 0.000251, 0.001470,-0.008555, 1.033633,-0.502789,-0.287384,1, 0.035436, 0.000269, 0.056130,1,-0.479589, 0.380528, 9.787521,1,0
1778256735500,  1671.623,  1671.623, 0.055840,-0.053071,-1.104983,-0.000007, 0.000266,-0.010784, 0.068319,-0.133189,-1.048911,1, 0.092125, 0.023606, 0.069662,1,-0.479938, 0.390237, 9.787122,1,0
1778256735522,  1671.648,  1671.643,-0.073422, 0.001060,-0.999253,-0.000217, 0.000649,-0.010371, 0.572941, 0.046290, 0.585167,1, 0.017917,-0.010130, 0.106172,1,-0.481194, 0.393906, 9.786914,1,0
1778256735543,  1671.668,  1671.663,-0.077294,-0.025381,-0.805947,-0.000889, 0.000262,-0.007824, 1.110158, 1.385393,-1.266665,1,-0.068201, 0.021671, 0.142062,1,-0.481803, 0.392406, 9.786943,1,0
1778256735570,  1671.693,  1671.693, 0.094861, 0.036404,-1.185114,-0.000362,-0.000225,-0.011145, 0.458219, 0.754562,-1.834785,1,-0.084306,-0.003946, 0.135357,1,-0.471751, 0.395141, 9.787323,1,0
1778256735592,  1671.718,  1671.713,-0.012606,-0.073492,-0.948283,-0.001061,-0.000140,-0.008086, 1.635859, 1.212948,-0.885644,1,-0.130222, 0.010635, 0.177954,1,-0.472361, 0.390142, 9.787495,1,0
1778256735613,  1671.738,  1671.733, 0.203919, 0.043354,-1.263366, 0.000864,-0.000288,-0.012325,-0.773953, 1.483019, 1.749913,1,-0.007760,-0.015700, 0.189271,1,-0.468664, 0.390277, 9.787667,1,0
1778256735640,  1671.763,  1671.763, 0.175222, 0.093180,-0.793389, 0.002177, 0.000076,-0.008894, 1.247741, 1.295985, 2.007406,1,-0.069481, 0.048317, 0.189815,1,-0.471875, 0.380325, 9.787905,1,0
1778256735662,  1671.788,  1671.783, 0.181987, 0.068863,-1.126694, 0.001204, 0.000092,-0.011337,-1.440549, 1.290292, 1.528873,1,-0.036008,-0.003867, 0.193992,1,-0.470680, 0.376726, 9.788101,1,0
1778256735684,  1671.808,  1671.803, 0.018847, 0.037674,-0.971406, 0.000896, 0.000294,-0.009300,-0.461899,-0.154326,-2.149157,1, 0.002670, 0.048278, 0.188926,1,-0.477044, 0.369782, 9.788057,1,0
1778256735711,  1671.833,  1671.833,-0.058336, 0.043512,-0.932272, 0.000098, 0.000694,-0.009855,-1.047385, 0.785473, 0.646085,1, 0.011924,-0.029142, 0.154538,1,-0.474218, 0.359370, 9.788583,1,0
1778256735732,  1671.853,  1671.853,-0.074662,-0.044300,-1.025971,-0.001112, 0.000149,-0.009973,-1.205048,-0.081510,-0.272452,1, 0.031014,-0.004906, 0.160141,1,-0.472534, 0.354129, 9.788856,1,0
1778256735755,  1671.878,  1671.878,-0.104118, 0.015088,-0.870489, 0.000113, 0.000566,-0.009613,-1.493732, 0.490688, 1.252674,1, 0.040663,-0.020131, 0.155004,1,-0.471886, 0.344224, 9.789240,1,0
1778256735781,  1671.903,  1671.903,-0.037901,-0.078011,-1.053112,-0.001065,-0.000024,-0.009218,-0.846250,-0.419970,-0.538423,1, 0.067149, 0.030073, 0.129724,1,-0.475361, 0.347344, 9.788961,1,0
1778256735802,  1671.928,  1671.923,-0.086875,-0.055095,-0.890922,-0.000148,-0.000111,-0.008621, 1.873855,-0.180625,-1.108793,1,-0.070584, 0.017284, 0.126541,1,-0.476192, 0.341894, 9.789113,1,0
1778256735825,  1671.948,  1671.948, 0.023626,-0.088027,-1.139847,-0.000633,-0.000672,-0.010795,-0.247353,-0.517706,-1.389236,1,-0.016533,-0.012911, 0.107383,1,-0.478521, 0.345197, 9.788883,1,0
1778256735851,  1671.973,  1671.973, 0.200728,-0.086444,-1.055874, 0.000921,-0.000873,-0.009647, 1.491932,-0.503266,-0.565587,1,-0.009806, 0.042837, 0.085895,1,-0.477778, 0.344286, 9.788952,1,0
1778256735872,  1671.998,  1671.993, 0.044249,-0.103116,-1.087054,-0.000560,-0.000297,-0.009589, 1.419486, 0.746832, 0.754973,1,-0.051597, 0.011830, 0.089693,1,-0.478855, 0.341948, 9.788981,1,0
1778256735895,  1672.018,  1672.018, 0.237808,-0.057030,-1.133626, 0.001497,-0.000885,-0.011479, 1.848819,-0.214578,-1.328409,1,-0.048380, 0.042159, 0.098168,1,-0.484485, 0.343340, 9.788655,1,0
1778256735921,  1672.043,  1672.043, 0.177648, 0.077219,-0.904783, 0.002450, 0.000319,-0.009224, 1.250981, 1.100384, 0.915438,1,-0.052562, 0.033347, 0.090482,1,-0.492094, 0.341629, 9.788336,1,0
1778256735942,  1672.068,  1672.063, 0.330015, 0.015459,-1.212883, 0.002111,-0.000673,-0.012267,-1.400771, 0.938208, 1.307299,1, 0.006072,-0.009131, 0.088712,1,-0.492774, 0.340695, 9.788334,1,0
1778256735965,  1672.088,  1672.088, 0.001440, 0.059519,-0.944298, 0.001983, 0.000242,-0.010548,-0.486771, 0.920119, 0.527666,1,-0.053466,-0.002360, 0.123952,1,-0.500684, 0.334973, 9.788130,1,0
1778256735991,  1672.113,  1672.113,-0.141288, 0.045215,-0.805316,-0.000208, 0.000805,-0.008314,-1.889857, 0.782389, 1.890359,1, 0.092331, 0.021362, 0.097951,1,-0.504850, 0.342015, 9.787673,1,0
1778256736012,  1672.138,  1672.133,-0.102507, 0.067927,-1.090381, 0.000378, 0.000805,-0.011289,-0.356296,-0.117179,-0.711818,1, 0.009414,-0.021902, 0.114955,1,-0.501657, 0.340503, 9.787889,1,0
1778256736035,  1672.158,  1672.158,-0.021629,-0.013010,-0.969730,-0.000498, 0.000119,-0.009980,-0.715137, 0.205027, 0.278286,1, 0.021740, 0.001435, 0.110186,1,-0.502956, 0.333461, 9.788065,1,0
1778256736061,  1672.183,  1672.183, 0.039718, 0.013396,-1.047036,-0.000653, 0.000494,-0.009129,-0.109705, 0.459250,-0.479467,1,-0.047447, 0.000256, 0.139258,1,-0.499286, 0.326558, 9.788486,1,0
1778256736083,  1672.208,  1672.203,-0.049918, 0.020331,-0.768779,-0.000250, 0.000749,-0.008010, 1.685407, 1.003559,-0.629777,1,-0.155531, 0.047216, 0.167433,1,-0.506033, 0.310833, 9.788651,1,0
1778256736105,  1672.233,  1672.228, 0.071985, 0.038105,-1.106608,-0.000317, 0.000303,-0.010196, 0.200639, 0.659130,-1.062659,1,-0.156104, 0.010560, 0.204092,1,-0.505431, 0.280911, 9.789587,1,0
1778256736131,  1672.253,  1672.253, 0.269274, 0.151609,-1.256772, 0.002099, 0.000536,-0.012523, 2.130611, 1.735457,-2.534508,1,-0.300193, 0.074510, 0.232966,1,-0.512200, 0.239708, 9.790331,1,0
1778256736153,  1672.278,  1672.273, 0.248407, 0.069621,-0.966544, 0.000668, 0.000001,-0.009242,-0.722250, 1.918808, 4.017250,1,-0.232864,-0.025981, 0.266679,1,-0.514426, 0.203628, 9.791031,1,0
1778256736175,  1672.303,  1672.298, 0.145190, 0.178018,-1.065924, 0.002260, 0.001116,-0.012057, 0.907355, 1.889011,-0.661162,1,-0.344460, 0.006541, 0.288477,1,-0.516545, 0.132992, 9.792133,1,0
1778256736201,  1672.323,  1672.323,-0.161042, 0.065890,-0.883042,-0.000050, 0.001174,-0.008393,-2.095264, 0.749271, 1.132836,1,-0.159807, 0.002754, 0.271274,1,-0.515976, 0.098577, 9.792570,1,0
1778256736223,  1672.348,  1672.343, 0.002797, 0.033390,-0.924281, 0.000959,-0.000070,-0.010171,-0.954668,-0.873734,-0.105916,1,-0.103684, 0.000503, 0.232979,1,-0.513337, 0.068554, 9.792965,1,0
1778256736246,  1672.373,  1672.368,-0.053495,-0.124671,-1.081975, 0.000094,-0.000969,-0.009647,-1.034578,-1.182308,-0.817248,1,-0.051537,-0.016095, 0.109532,1,-0.509452, 0.038869, 9.793331,1,0
1778256736271,  1672.393,  1672.393,-0.092867,-0.152005,-0.963290,-0.001298,-0.001640,-0.009902,-1.413846,-1.453012, 0.347009,1, 0.066516, 0.003365, 0.000940,1,-0.503225, 0.039721, 9.793650,1,0
1778256736293,  1672.418,  1672.413,-0.112665,-0.115135,-0.722304,-0.000316,-0.001854,-0.007939, 0.985742,-2.469997, 0.734359,1, 0.137287,-0.010261,-0.090633,1,-0.503554, 0.060553, 9.793526,1,0
1778256736316,  1672.443,  1672.438,-0.087384,-0.208508,-1.015008,-0.001621,-0.001856,-0.009740,-1.349180,-1.948142,-0.160021,1, 0.196308,-0.038633,-0.223461,1,-0.491104, 0.102388, 9.793810,1,0
1778256736341,  1672.463,  1672.463, 0.173073,-0.362197,-1.120535, 0.000170,-0.002661,-0.009877, 1.214492,-3.429353,-1.194704,1, 0.154867,-0.033002,-0.312386,1,-0.481862, 0.126939, 9.793982,1,0
1778256736363,  1672.488,  1672.483, 0.063331,-0.102859,-0.881109,-0.000414,-0.000317,-0.007357, 2.427848,-2.623155,-0.528232,1, 0.037268,-0.050332,-0.305367,1,-0.477468, 0.136617, 9.794066,1,0
1778256736386,  1672.513,  1672.508, 0.275103,-0.173939,-1.298424, 0.001667,-0.001114,-0.012966, 2.227612,-1.578635,-2.938644,1,-0.079928,-0.018122,-0.253281,1,-0.469769, 0.124255, 9.794603,1,0
1778256736411,  1672.533,  1672.533, 0.197257,-0.181650,-0.930121, 0.002624,-0.001402,-0.010020, 1.455856,-1.673680, 0.673000,1,-0.062216, 0.063175,-0.225751,1,-0.480623, 0.105415, 9.794298,1,0
1778256736433,  1672.558,  1672.553, 0.190682,-0.193763,-1.136732, 0.000961,-0.000990,-0.010604,-1.047998,-0.256116, 1.151995,1,-0.198212,-0.002779,-0.183313,1,-0.485374, 0.073366, 9.794356,1,0
1778256736460,  1672.583,  1672.583,-0.009202,-0.083505,-0.928519, 0.000858,-0.000999,-0.010337,-0.586981,-0.792689, 0.688359,1,-0.181422, 0.017514,-0.190043,1,-0.497399, 0.020293, 9.794006,1,0
1778256736481,  1672.603,  1672.603,-0.154480, 0.013950,-0.823172,-0.000860,-0.000766,-0.008653,-2.012947, 0.124726, 1.721430,1,-0.211821,-0.004486,-0.172334,1,-0.497868,-0.018949, 9.793985,1,0
1778256736503,  1672.628,  1672.623,-0.091699,-0.041139,-0.986230, 0.000163,-0.001002,-0.011022,-1.644067, 0.148177,-0.292790,1,-0.165323, 0.042193,-0.177522,1,-0.502458,-0.053220, 9.793625,1,0
1778256736530,  1672.653,  1672.653,-0.263480, 0.061106,-0.697789,-0.001634,-0.000097,-0.008038,-3.084643, 0.506146, 2.950433,1,-0.110572,-0.044591,-0.165757,1,-0.499346,-0.096808, 9.793450,1,0
1778256736552,  1672.678,  1672.673,-0.130722,-0.009291,-0.865965, 0.000235,-0.000426,-0.010041,-1.782939,-0.755565,-0.737717,1,-0.091582, 0.020009,-0.197496,1,-0.494318,-0.119843, 9.793450,1,0
1778256736573,  1672.698,  1672.693,-0.196990, 0.014736,-0.914742,-0.001471,-0.000086,-0.008867, 0.694982,-0.976927,-1.437564,1,-0.123399,-0.000277,-0.197736,1,-0.493713,-0.138998, 9.793228,1,0
1778256736600,  1672.723,  1672.723, 0.020523,-0.021581,-1.182972,-0.001057,-0.000094,-0.011743,-0.299586,-0.365150,-1.808349,1,-0.030159, 0.075300,-0.197707,1,-0.503102,-0.154767, 9.792514,1,0
1778256736622,  1672.748,  1672.743,-0.133432,-0.066424,-0.924642,-0.001067,-0.001299,-0.008576, 0.012301,-0.259400, 1.814653,1,-0.026842, 0.010300,-0.202952,1,-0.510725,-0.158391, 9.792061,1,0
1778256736643,  1672.768,  1672.763,-0.224298,-0.002498,-0.989646,-0.002076,-0.000672,-0.010629,-1.254158,-1.377025,-1.784809,1, 0.040454,-0.025645,-0.213007,1,-0.507568,-0.157544, 9.792239,1,0
1778256736670,  1672.793,  1672.793,-0.073986,-0.018822,-1.210094,-0.001599, 0.000252,-0.010488,-1.743226,-1.469755,-1.385886,1, 0.021046,-0.045021,-0.251207,1,-0.498401,-0.157237, 9.792714,1,0
1778256736692,  1672.818,  1672.813,-0.193504,-0.031773,-0.755640,-0.001340,-0.001077,-0.008318,-0.823539,-0.272376, 1.323373,1, 0.040146,-0.079781,-0.223325,1,-0.482177,-0.148688, 9.793660,1,0
1778256736713,  1672.838,  1672.833,-0.040477,-0.050617,-1.051313,-0.000612,-0.000381,-0.009616,-0.122648,-1.491030,-2.148101,1, 0.061054,-0.033173,-0.250171,1,-0.469781,-0.137492, 9.794426,1,0
1778256736740,  1672.863,  1672.863, 0.015130,-0.053150,-1.101073,-0.000510,-0.000521,-0.009652,-0.230622,-1.724746, 0.451467,1, 0.116419,-0.049668,-0.266672,1,-0.463824,-0.123626, 9.794895,1,0
1778256736762,  1672.888,  1672.883,-0.071215,-0.134013,-0.938470,-0.000331,-0.001730,-0.008777, 0.507107,-0.551535,-1.216806,1, 0.099086,-0.002069,-0.282213,1,-0.462171,-0.094980, 9.795293,1,0
1778256736783,  1672.908,  1672.903,-0.024097,-0.113403,-0.909952,-0.000462,-0.001780,-0.008596, 0.084026,-0.803171, 0.343740,1, 0.180073,-0.031745,-0.315327,1,-0.458067,-0.068623, 9.795706,1,0
1778256736810,  1672.933,  1672.933, 0.101947,-0.078772,-1.078701, 0.000297,-0.001348,-0.010492, 0.542299,-0.797045,-0.782508,1, 0.137806, 0.015440,-0.356445,1,-0.457909,-0.020778, 9.795932,1,0
1778256736832,  1672.958,  1672.953, 0.003230,-0.116193,-0.848137, 0.000780,-0.001429,-0.008264, 0.117433,-1.026985,-1.946381,1, 0.204277, 0.034570,-0.349365,1,-0.464218, 0.020699, 9.795634,1,0
1778256736853,  1672.978,  1672.973,-0.002744, 0.006133,-0.816240, 0.000015,-0.000788,-0.008292, 0.855519,-0.627038, 1.559349,1, 0.280355, 0.003497,-0.338874,1,-0.467108, 0.068849, 9.795278,1,0
1778256736880,  1673.003,  1673.003,-0.113921, 0.046506,-1.044916,-0.000944, 0.000205,-0.010218,-1.571103, 0.583239,-0.451819,1, 0.221094,-0.063886,-0.295547,1,-0.452051, 0.133637, 9.795314,1,0
1778256736902,  1673.028,  1673.023,-0.012679, 0.022572,-0.944388, 0.000673, 0.000262,-0.009338, 0.345990, 0.502759,-1.863779,1, 0.182549,-0.027134,-0.280293,1,-0.445026, 0.169218, 9.795086,1,0
1778256736924,  1673.048,  1673.043, 0.018941, 0.152969,-0.615459, 0.000617, 0.001376,-0.007454, 1.158199, 0.812728,-0.437847,1, 0.106379,-0.047486,-0.197723,1,-0.435360, 0.194610, 9.795049,1,0
1778256736951,  1673.073,  1673.073,-0.004585, 0.093378,-0.771613,-0.000193, 0.001315,-0.007347,-0.466318, 1.137093, 2.228150,1, 0.127152,-0.046959,-0.076285,1,-0.419940, 0.225233, 9.795065,1,0
1778256736972,  1673.098,  1673.093, 0.029261, 0.150721,-1.124033, 0.001570, 0.001153,-0.012369, 0.201660, 0.238213,-3.371628,1, 0.035075, 0.072939,-0.020848,1,-0.420585, 0.229299, 9.794943,1,0
1778256736995,  1673.118,  1673.118,-0.088301, 0.211246,-0.684586,-0.000248, 0.001974,-0.007351,-1.294282, 2.297898, 3.081182,1, 0.038861, 0.006358, 0.070779,1,-0.428495, 0.227591, 9.794641,1,0
1778256737021,  1673.143,  1673.143,-0.043789, 0.023388,-1.047937,-0.001083, 0.001366,-0.008905,-0.861987, 0.455930,-0.482268,1, 0.037953, 0.023805, 0.116010,1,-0.433222, 0.227917, 9.794425,1,0
