Time,GPS_ts,fGPS_ts,scaledAccelX,scaledAccelY,scaledAccelZ,deltaVelX,deltaVelY,deltaVelZ,estLinearAccelX,estLinearAccelY,estLinearAccelZ,estLinearAccel:valid,estAngularRateX,estAngularRateY,estAngularRateZ,estAngularRate:valid,estGravityX,estGravityY,estGravityZ,estGravity:valid,flag
1778021468872,   446.297,   446.294, 0.015627,-0.045692,-0.996553, 0.000047,-0.000137,-0.002990,-0.011553,-0.016737, 0.031310,1, 0.001560, 0.000185, 0.001026,1,-0.169272, 0.433081, 9.795620,1,0
1778021468872,   446.306,   446.303, 0.015437,-0.045016,-0.995650, 0.000046,-0.000135,-0.002987,-0.019433,-0.009235, 0.024266,1,-0.000434, 0.000626, 0.000538,1,-0.169304, 0.433103, 9.795618,1,0
1778021468872,   446.315,   446.312, 0.015304,-0.044906,-0.994961, 0.000047,-0.000135,-0.002984,-0.023669,-0.006647, 0.037388,1,-0.000913, 0.000449, 0.001073,1,-0.169323, 0.433007, 9.795623,1,0
1778021468872,   446.324,   446.321, 0.014802,-0.044649,-0.995473, 0.000045,-0.000134,-0.002986,-0.030359,-0.004925, 0.030205,1, 0.000175,-0.001071, 0.000450,1,-0.169272, 0.433010, 9.795623,1,0
1778021468872,   446.333,   446.330, 0.014695,-0.044124,-0.994313, 0.000044,-0.000132,-0.002983,-0.026451,-0.003386, 0.041522,1, 0.002035, 0.000385, 0.000421,1,-0.169262, 0.433181, 9.795616,1,0
1778021468872,   446.342,   446.339, 0.014965,-0.044387,-0.994442, 0.000044,-0.000133,-0.002983,-0.030870, 0.001795, 0.043587,1, 0.001029,-0.000310, 0.000465,1,-0.169254, 0.433304, 9.795610,1,0
1778021468872,   446.351,   446.348, 0.013937,-0.043998,-0.993320, 0.000042,-0.000132,-0.002980,-0.035527, 0.002210, 0.051306,1, 0.002127, 0.000173, 0.000274,1,-0.170730, 0.433830, 9.795562,1,0
1778021468872,   446.360,   446.357, 0.013983,-0.043664,-0.994686, 0.000042,-0.000131,-0.002984,-0.034487, 0.011171, 0.049289,1, 0.002237, 0.000331, 0.000533,1,-0.170773, 0.433978, 9.795554,1,0
1778021468872,   446.369,   446.366, 0.013872,-0.043266,-0.993908, 0.000041,-0.000130,-0.002982,-0.034599, 0.012511, 0.049253,1, 0.002067,-0.000491,-0.000862,1,-0.170784, 0.434124, 9.795547,1,0
1778021468872,   446.378,   446.375, 0.014332,-0.043806,-0.994102, 0.000043,-0.000132,-0.002982,-0.034951, 0.009978, 0.049124,1, 0.002070, 0.000344, 0.000199,1,-0.170772, 0.434370, 9.795537,1,0
1778021468872,   446.384,   446.381, 0.013745,-0.044008,-0.995380, 0.000041,-0.000132,-0.002986,-0.031414, 0.001947, 0.044239,1, 0.004297,-0.001398, 0.000105,1,-0.170721, 0.434615, 9.795527,1,0
1778021468878,   461.978,   461.978, 0.016260,-0.045452,-0.993808, 0.000049,-0.000136,-0.002981,-0.010151,-0.016314, 0.049848,1,-0.005765, 0.000636,-0.000576,1,-0.169615, 0.429359, 9.795778,1,0
1778021468889,   461.987,   461.984, 0.016236,-0.045819,-0.995178, 0.000049,-0.000138,-0.002985,-0.009241,-0.017255, 0.037097,1,-0.006258,-0.000659,-0.000197,1,-0.169594, 0.429027, 9.795793,1,0
1778021468899,   461.996,   461.993, 0.016823,-0.045788,-0.995362, 0.000051,-0.000137,-0.002986,-0.013527,-0.017905, 0.034054,1,-0.005088,-0.000710,-0.000715,1,-0.169635, 0.428569, 9.795813,1,0
1778021468910,   462.005,   462.002, 0.016442,-0.045686,-0.995343, 0.000049,-0.000137,-0.002986,-0.014231,-0.018136, 0.038527,1,-0.006020,-0.001354,-0.000750,1,-0.169584, 0.428031, 9.795836,1,0
1778021468921,   462.014,   462.011, 0.017219,-0.044874,-0.996151, 0.000051,-0.000134,-0.002989,-0.009387,-0.016776, 0.014990,1,-0.006496, 0.000400,-0.000293,1,-0.169632, 0.427478, 9.795860,1,0
1778021468932,   462.020,   462.020, 0.016344,-0.044106,-0.995879, 0.000049,-0.000132,-0.002987,-0.009419,-0.005605, 0.029644,1,-0.007047, 0.000816,-0.000356,1,-0.169711, 0.426861, 9.795885,1,0
1778021468942,   462.029,   462.029, 0.017336,-0.045052,-0.995010, 0.000052,-0.000135,-0.002985, 0.000236,-0.015464, 0.038189,1,-0.005472, 0.000293,-0.000143,1,-0.169779, 0.426292, 9.795909,1,0
1778021468953,   462.038,   462.038, 0.017797,-0.045692,-0.993242, 0.000054,-0.000137,-0.002980, 0.004769,-0.022229, 0.055549,1,-0.006431,-0.000071,-0.001133,1,-0.169764, 0.425794, 9.795931,1,0
1778021468964,   462.047,   462.047, 0.018015,-0.047299,-0.995293, 0.000054,-0.000142,-0.002986, 0.006861,-0.038475, 0.035462,1,-0.005383, 0.000234,-0.000822,1,-0.169809, 0.425320, 9.795951,1,0
1778021468975,   462.056,   462.053, 0.018474,-0.047145,-0.993648, 0.000054,-0.000141,-0.002980, 0.005207,-0.033596, 0.056630,1,-0.004671, 0.000420,-0.001637,1,-0.169834, 0.425006, 9.795964,1,0
1778021468985,   462.065,   462.062, 0.017365,-0.046032,-0.993553, 0.000050,-0.000137,-0.002979, 0.004613,-0.026015, 0.062533,1,-0.005485,-0.000717,-0.001289,1,-0.169801, 0.424517, 9.795986,1,0
1778021468996,   462.074,   462.071, 0.017587,-0.045852,-0.995412, 0.000052,-0.000137,-0.002985, 0.014198,-0.028867, 0.032018,1,-0.007051, 0.001235, 0.000339,1,-0.169921, 0.423923, 9.796009,1,0
1778021469007,   462.128,   462.128, 0.017606,-0.043112,-0.994674, 0.000053,-0.000130,-0.002984, 0.002455,-0.003059, 0.041768,1,-0.007049,-0.000357, 0.000323,1,-0.170197, 0.419663, 9.796188,1,0
1778021469018,   462.137,   462.137, 0.017721,-0.042234,-0.998183, 0.000053,-0.000127,-0.002995, 0.003523, 0.004978, 0.007378,1,-0.006002, 0.001318, 0.000138,1,-0.170276, 0.419093, 9.796211,1,0
1778021469028,   462.146,   462.143, 0.017275,-0.043200,-0.993751, 0.000052,-0.000130,-0.002981, 0.007528,-0.001921, 0.029049,1,-0.005982, 0.001040, 0.000586,1,-0.170241, 0.419521, 9.796193,1,0
1778021469039,   462.155,   462.152, 0.017720,-0.045407,-0.992348, 0.000053,-0.000136,-0.002977, 0.005835,-0.015312, 0.063336,1,-0.004156, 0.000355,-0.000174,1,-0.170339, 0.419100, 9.796209,1,0
1778021469050,   462.164,   462.161, 0.016791,-0.046810,-0.992838, 0.000051,-0.000141,-0.002978,-0.006836,-0.042706, 0.072146,1,-0.004394,-0.000237,-0.000887,1,-0.170358, 0.418733, 9.796225,1,0
1778021469061,   462.173,   462.170, 0.016509,-0.047046,-0.994544, 0.000050,-0.000141,-0.002984,-0.010159,-0.048506, 0.058140,1,-0.006148, 0.000303,-0.001470,1,-0.170368, 0.418272, 9.796245,1,0
1778021469071,   462.182,   462.179, 0.016800,-0.046584,-0.995760, 0.000050,-0.000139,-0.002987,-0.008178,-0.045773, 0.029770,1,-0.007385, 0.000281, 0.000078,1,-0.170448, 0.417654, 9.796269,1,0
1778021469082,   462.188,   462.188, 0.017118,-0.044924,-0.993938, 0.000051,-0.000135,-0.002981,-0.002589,-0.023620, 0.049095,1,-0.009449, 0.000772, 0.000951,1,-0.170469, 0.416847, 9.796304,1,0
1778021469093,   462.197,   462.197, 0.017263,-0.043125,-0.994849, 0.000052,-0.000129,-0.002985,-0.001304,-0.006856, 0.040198,1,-0.009996, 0.002120,-0.000036,1,-0.170617, 0.415966, 9.796338,1,0
1778021469104,   462.206,   462.206, 0.016171,-0.042064,-0.995818, 0.000048,-0.000126,-0.002987,-0.012036, 0.002810, 0.030726,1,-0.006269,-0.000412,-0.000265,1,-0.170615, 0.415260, 9.796369,1,0
1778021469115,   462.215,   462.215, 0.016997,-0.042162,-0.995184, 0.000051,-0.000126,-0.002985,-0.003966, 0.001310, 0.036966,1,-0.006375, 0.000389,-0.000385,1,-0.170653, 0.414718, 9.796391,1,0
1778021469125,   462.224,   462.221, 0.017930,-0.043010,-0.995447, 0.000053,-0.000129,-0.002986, 0.004401,-0.006038, 0.026659,1,-0.006056,-0.001070,-0.000948,1,-0.170607, 0.414370, 9.796406,1,0
1778021469136,   462.233,   462.230, 0.017349,-0.042993,-0.993137, 0.000053,-0.000129,-0.002980, 0.011978,-0.005454, 0.050264,1,-0.004980, 0.000722,-0.000356,1,-0.170634, 0.413904, 9.796426,1,0
1778021469147,   462.242,   462.239, 0.018280,-0.043509,-0.995333, 0.000055,-0.000130,-0.002987, 0.008746,-0.014066, 0.042173,1,-0.004105, 0.001057,-0.000146,1,-0.170716, 0.413532, 9.796440,1,0
1778021469158,   462.251,   462.248, 0.018294,-0.043293,-0.993784, 0.000055,-0.000129,-0.002981, 0.004832,-0.009670, 0.037650,1,-0.004201,-0.000290,-0.000553,1,-0.170725, 0.413180, 9.796454,1,0
1778021469168,   462.257,   462.257, 0.017797,-0.043297,-0.993874, 0.000053,-0.000130,-0.002982, 0.003791,-0.011842, 0.049894,1,-0.005031, 0.000178,-0.000233,1,-0.170735, 0.412713, 9.796474,1,0
1778021469179,   462.266,   462.266, 0.017997,-0.045282,-0.995845, 0.000053,-0.000136,-0.002987, 0.005804,-0.031697, 0.030589,1,-0.004385,-0.000644,-0.000322,1,-0.170683, 0.412322, 9.796492,1,0
1778021469190,   462.275,   462.275, 0.017066,-0.045513,-0.992563, 0.000049,-0.000136,-0.002975,-0.003355,-0.034315, 0.062785,1,-0.004214, 0.000162,-0.000575,1,-0.170712, 0.411972, 9.796506,1,0
1778021469201,   462.284,   462.284, 0.017024,-0.045031,-0.994723, 0.000051,-0.000134,-0.002983,-0.003809,-0.030030, 0.041616,1,-0.004538, 0.000671,-0.000520,1,-0.170762, 0.411536, 9.796523,1,0
1778021469211,   462.293,   462.290, 0.016831,-0.043359,-0.991334, 0.000052,-0.000130,-0.002975, 0.005164,-0.036559, 0.032307,1,-0.004802,-0.000386,-0.000573,1,-0.170778, 0.411275, 9.796534,1,0
1778021469222,   462.302,   462.299, 0.016488,-0.042187,-0.992785, 0.000049,-0.000127,-0.002978, 0.003020,-0.014076, 0.053851,1,-0.006644, 0.000861,-0.000123,1,-0.170845, 0.410747, 9.796555,1,0
1778021469233,   462.311,   462.308, 0.017540,-0.041644,-0.998106, 0.000053,-0.000125,-0.002995,-0.013304,-0.005578, 0.018617,1,-0.006196, 0.000649,-0.000322,1,-0.170831, 0.410219, 9.796577,1,0
1778021469244,   462.320,   462.317, 0.016475,-0.040960,-0.994382, 0.000049,-0.000123,-0.002983,-0.022168,-0.011641, 0.031906,1,-0.004589,-0.000182, 0.000597,1,-0.170797, 0.409667, 9.796600,1,0
1778021469254,   462.329,   462.326, 0.016584,-0.042247,-0.998328, 0.000049,-0.000127,-0.002996,-0.009562, 0.004571, 0.023772,1,-0.003135,-0.000963,-0.000925,1,-0.170742, 0.409258, 9.796618,1,0
1778021469265,   462.335,   462.335, 0.018594,-0.042497,-0.996738, 0.000057,-0.000127,-0.002991, 0.011569,-0.007689, 0.021965,1,-0.002556, 0.000162,-0.000014,1,-0.170782, 0.409036, 9.796627,1,0
1778021469276,   462.344,   462.344, 0.017692,-0.043194,-0.993223, 0.000053,-0.000129,-0.002979, 0.002674,-0.014057, 0.056413,1,-0.001201, 0.001614,-0.000359,1,-0.170842, 0.409559, 9.796604,1,0
1778021469287,   462.353,   462.353, 0.017755,-0.044079,-0.993894, 0.000053,-0.000132,-0.002982, 0.003277,-0.022778, 0.049840,1,-0.000827,-0.000083,-0.000983,1,-0.170842, 0.409478, 9.796608,1,0
1778021469297,   462.362,   462.362, 0.017127,-0.044692,-0.991763, 0.000051,-0.000134,-0.002976,-0.002867,-0.028879, 0.070741,1,-0.001561, 0.000011,-0.000371,1,-0.170829, 0.409388, 9.796612,1,0
1778021469308,   462.449,   462.368, 0.017447,-0.042786,-0.994993, 0.000053,-0.000128,-0.002985, 0.004934,-0.032637, 0.060325,1,-0.003335, 0.000471,-0.000419,1,-0.170867, 0.409197, 9.796619,1,0
1778021469319,   462.458,   462.455, 0.017266,-0.042531,-0.996180, 0.000052,-0.000128,-0.002989, 0.001184,-0.016985, 0.035678,1,-0.004524, 0.001190,-0.000514,1,-0.171158, 0.405975, 9.796748,1,0
1778021469330,   462.464,   462.464, 0.017464,-0.042351,-0.995661, 0.000053,-0.000127,-0.002986, 0.000147,-0.009617, 0.032657,1,-0.002283,-0.000075, 0.000293,1,-0.171119, 0.405685, 9.796761,1,0
1778021469341,   462.473,   462.473, 0.018225,-0.043165,-0.993054, 0.000056,-0.000129,-0.002979, 0.007584,-0.017714, 0.058234,1,-0.000862, 0.000552,-0.000217,1,-0.171148, 0.405579, 9.796764,1,0
1778021469351,   462.482,   462.482, 0.017325,-0.044227,-0.993484, 0.000052,-0.000133,-0.002980,-0.001285,-0.028302, 0.054016,1,-0.002189,-0.000381,-0.000108,1,-0.171184, 0.405397, 9.796772,1,0
1778021469362,   462.491,   462.491, 0.016946,-0.043737,-0.993395, 0.000051,-0.000131,-0.002980,-0.004976,-0.023741, 0.054906,1,-0.002487, 0.000782,-0.000832,1,-0.171166, 0.405151, 9.796782,1,0
1778021469373,   462.500,   462.497, 0.016748,-0.043035,-0.994209, 0.000051,-0.000129,-0.002982,-0.004703,-0.014469, 0.052975,1,-0.003834,-0.001166, 0.000550,1,-0.171130, 0.404958, 9.796791,1,0
1778021469384,   462.509,   462.506, 0.016975,-0.042797,-0.996530, 0.000051,-0.000128,-0.002990,-0.000751,-0.017472, 0.026229,1,-0.003550, 0.000303, 0.000034,1,-0.171130, 0.404565, 9.796807,1,0
1778021469394,   462.518,   462.515, 0.017119,-0.042884,-0.995462, 0.000051,-0.000129,-0.002986, 0.000131,-0.007320, 0.029778,1,-0.003625, 0.000632,-0.000175,1,-0.171147, 0.404250, 9.796820,1,0
1778021469405,   462.527,   462.524, 0.017316,-0.043042,-0.995515, 0.000052,-0.000129,-0.002986,-0.005609,-0.011462, 0.035904,1,-0.003162,-0.000398,-0.000063,1,-0.171082, 0.403918, 9.796834,1,0
1778021469416,   462.536,   462.533, 0.017383,-0.043223,-0.995415, 0.000052,-0.000130,-0.002986, 0.002185,-0.017301, 0.033269,1,-0.001403, 0.000741,-0.000661,1,-0.171103, 0.403780, 9.796840,1,0
1778021469427,   462.542,   462.542, 0.017331,-0.043524,-0.994194, 0.000052,-0.000131,-0.002982,-0.001174,-0.022526, 0.047104,1,-0.000178, 0.000436,-0.000635,1,-0.171136, 0.404479, 9.796810,1,0
1778021469437,   462.551,   462.551, 0.017976,-0.044033,-0.994466, 0.000054,-0.000132,-0.002983, 0.005121,-0.027418, 0.044430,1,-0.002046, 0.000364,-0.000185,1,-0.171165, 0.404378, 9.796814,1,0
1778021469448,   462.560,   462.560, 0.017645,-0.042991,-0.992624, 0.000053,-0.000129,-0.002978, 0.001858,-0.017479, 0.062512,1,-0.003786, 0.000912, 0.000088,1,-0.171190, 0.404089, 9.796825,1,0
1778021469459,   462.569,   462.569, 0.017465,-0.043150,-0.994866, 0.000052,-0.000129,-0.002984, 0.000028,-0.019372, 0.040530,1,-0.003770, 0.000200,-0.000694,1,-0.171246, 0.403753, 9.796839,1,0
1778021469470,   462.578,   462.575, 0.017334,-0.042199,-0.995313, 0.000051,-0.000127,-0.002986,-0.002115,-0.017831, 0.033477,1,-0.003779, 0.001450, 0.000187,1,-0.171310, 0.403501, 9.796847,1,0
1778021469480,   462.587,   462.584, 0.017550,-0.043046,-0.995228, 0.000053,-0.000129,-0.002986,-0.000581,-0.014504, 0.045877,1,-0.002110,-0.000546, 0.000069,1,-0.171338, 0.403276, 9.796857,1,0
1778021469491,   462.596,   462.593, 0.017671,-0.042851,-0.995818, 0.000053,-0.000129,-0.002988,-0.001559,-0.015334, 0.027313,1,-0.002241,-0.000223,-0.000523,1,-0.171398, 0.403086, 9.796864,1,0
1778021469502,   462.605,   462.602, 0.017599,-0.042125,-0.994495, 0.000053,-0.000127,-0.002984, 0.002343,-0.010170, 0.044163,1,-0.001667, 0.000248,-0.000240,1,-0.171411, 0.402959, 9.796868,1,0
1778021469513,   462.614,   462.611, 0.017396,-0.042588,-0.994271, 0.000052,-0.000128,-0.002984,-0.001407,-0.009393, 0.049784,1,-0.001384, 0.000140,-0.000737,1,-0.171466, 0.402799, 9.796874,1,0
1778021469523,   462.620,   462.620, 0.018435,-0.041557,-0.994568, 0.000056,-0.000125,-0.002984, 0.009392,-0.004833, 0.043494,1,-0.001259,-0.000869, 0.000138,1,-0.171390, 0.402685, 9.796880,1,0
1778021469534,   462.629,   462.629, 0.017439,-0.041316,-0.994171, 0.000052,-0.000124,-0.002982,-0.000377,-0.002602, 0.047397,1,-0.001846, 0.000790, 0.000400,1,-0.171406, 0.402548, 9.796885,1,0
1778021469545,   462.635,   462.638, 0.017937,-0.041922,-0.994099, 0.000054,-0.000126,-0.002982, 0.005461,-0.006856, 0.045076,1,-0.000735, 0.000354,-0.000209,1,-0.171390, 0.402440, 9.796890,1,0
1778021469556,   462.647,   462.644, 0.017420,-0.042230,-0.994587, 0.000052,-0.000127,-0.002983,-0.000009,-0.008606, 0.047592,1, 0.000379, 0.000273,-0.000043,1,-0.171413, 0.402418, 9.796890,1,0
1778021469567,   462.656,   462.653, 0.017290,-0.043626,-0.994773, 0.000052,-0.000131,-0.002985,-0.003592,-0.021861, 0.045655,1, 0.001523,-0.000565, 0.000048,1,-0.171362, 0.402472, 9.796889,1,0
1778021469577,   462.665,   462.662, 0.017100,-0.043356,-0.995871, 0.000051,-0.000130,-0.002988,-0.001814,-0.021219, 0.029076,1, 0.000544, 0.000068,-0.000372,1,-0.171351, 0.402547, 9.796886,1,0
1778021469588,   462.674,   462.671, 0.017014,-0.043675,-0.994984, 0.000051,-0.000131,-0.002985,-0.003330,-0.028393, 0.043343,1, 0.001336,-0.000174, 0.000485,1,-0.171310, 0.402583, 9.796885,1,0
1778021469599,   462.683,   462.680, 0.017105,-0.043420,-0.994928, 0.000051,-0.000131,-0.002985,-0.005808,-0.020224, 0.042990,1,-0.001004,-0.000424,-0.000777,1,-0.171266, 0.402559, 9.796887,1,0
1778021469610,   462.689,   462.689, 0.016858,-0.042841,-0.995563, 0.000050,-0.000128,-0.002987,-0.005946,-0.017695, 0.033755,1,-0.001683, 0.000780,-0.000982,1,-0.171272, 0.402414, 9.796893,1,0
1778021469620,   462.698,   462.698, 0.016775,-0.042550,-0.994212, 0.000051,-0.000128,-0.002982,-0.006785,-0.014981, 0.047007,1, 0.000315,-0.000019,-0.000291,1,-0.171288, 0.402296, 9.796898,1,0
1778021469631,   462.755,   462.752, 0.017280,-0.042691,-0.995425, 0.000052,-0.000128,-0.002986, 0.004190,-0.014434, 0.043082,1,-0.000810,-0.001234, 0.000302,1,-0.171124, 0.402863, 9.796877,1,0
1778021469642,   462.764,   462.761, 0.017879,-0.043141,-0.995085, 0.000054,-0.000129,-0.002985, 0.004251,-0.017818, 0.048076,1,-0.000532, 0.000634,-0.000210,1,-0.171125, 0.402867, 9.796877,1,0
1778021469653,   462.773,   462.770, 0.018131,-0.042860,-0.995347, 0.000055,-0.000129,-0.002986, 0.000768,-0.024754, 0.031393,1,-0.000124,-0.000046,-0.000190,1,-0.171120, 0.402813, 9.796880,1,0
1778021469663,   462.779,   462.779, 0.017228,-0.043724,-0.995025, 0.000052,-0.000132,-0.002985,-0.002227,-0.025997, 0.039013,1,-0.000624, 0.000211,-0.000017,1,-0.171181, 0.402782, 9.796880,1,0
1778021469674,   462.788,   462.788, 0.017364,-0.042814,-0.994493, 0.000052,-0.000128,-0.002983,-0.000875,-0.017154, 0.044236,1,-0.001025, 0.000456,-0.000268,1,-0.171166, 0.402693, 9.796884,1,0
1778021469685,   462.797,   462.797, 0.018532,-0.042323,-0.994227, 0.000056,-0.000127,-0.002983, 0.010591,-0.012374, 0.046846,1,-0.000835,-0.000462, 0.000507,1,-0.171138, 0.402663, 9.796885,1,0
1778021469696,   462.806,   462.806, 0.018000,-0.042419,-0.994227, 0.000054,-0.000127,-0.002983, 0.005413,-0.013419, 0.046856,1,-0.001648,-0.000051,-0.000460,1,-0.171105, 0.402555, 9.796890,1,0
1778021469706,   462.815,   462.812, 0.017984,-0.041903,-0.995071, 0.000054,-0.000125,-0.002985, 0.008066,-0.005232, 0.043099,1,-0.001629,-0.000709, 0.000415,1,-0.171094, 0.402491, 9.796893,1,0
1778021469717,   462.824,   462.821, 0.018007,-0.042029,-0.995024, 0.000054,-0.000126,-0.002984, 0.007377,-0.014284, 0.041034,1, 0.001011,-0.000238, 0.000703,1,-0.171053, 0.402478, 9.796894,1,0
1778021469728,   462.833,   462.830, 0.018162,-0.042660,-0.995421, 0.000055,-0.000128,-0.002986, 0.006626,-0.018724, 0.048221,1, 0.001356,-0.000485,-0.000480,1,-0.171021, 0.402587, 9.796890,1,0
1778021469739,   462.842,   462.839, 0.018442,-0.042599,-0.995264, 0.000055,-0.000128,-0.002985, 0.003592,-0.016073, 0.033544,1, 0.000457, 0.000381, 0.000285,1,-0.171024, 0.402647, 9.796887,1,0
1778021469749,   462.851,   462.848, 0.017479,-0.042960,-0.994302, 0.000052,-0.000129,-0.002983, 0.006023,-0.018106, 0.042149,1,-0.000404,-0.000384,-0.000031,1,-0.170969, 0.402690, 9.796887,1,0
1778021469760,   462.857,   462.857, 0.017706,-0.042933,-0.994550, 0.000053,-0.000128,-0.002984, 0.002663,-0.018300, 0.043681,1,-0.000015,-0.000262, 0.000199,1,-0.170967, 0.402728, 9.796885,1,0
1778021469771,   462.866,   462.863, 0.017736,-0.044166,-0.993527, 0.000053,-0.000132,-0.002980, 0.002104,-0.025890, 0.048106,1,-0.000095, 0.000042,-0.000331,1,-0.170973, 0.402778, 9.796884,1,0
1778021469782,   462.875,   462.875, 0.017772,-0.043324,-0.994479, 0.000053,-0.000130,-0.002983, 0.003314,-0.021998, 0.044376,1, 0.001527,-0.000107,-0.000358,1,-0.170972, 0.402877, 9.796879,1,0
1778021469793,   462.884,   462.881, 0.017650,-0.042907,-0.994580, 0.000053,-0.000128,-0.002984,-0.000530,-0.020098, 0.043017,1, 0.000549, 0.000606,-0.000209,1,-0.170970, 0.402922, 9.796878,1,0
1778021469803,   462.893,   462.890, 0.017344,-0.042747,-0.995179, 0.000052,-0.000128,-0.002985,-0.001349,-0.019348, 0.041343,1,-0.000499,-0.000565, 0.000477,1,-0.170968, 0.402943, 9.796877,1,0
1778021469814,   462.902,   462.899, 0.017272,-0.043285,-0.995043, 0.000052,-0.000130,-0.002985, 0.005020,-0.019110, 0.038498,1, 0.000166,-0.000052, 0.000165,1,-0.170927, 0.402913, 9.796879,1,0
1778021469825,   462.911,   462.908, 0.016877,-0.043409,-0.995321, 0.000050,-0.000131,-0.002986,-0.005988,-0.019718, 0.032914,1,-0.000460,-0.000858,-0.000043,1,-0.170936, 0.402856, 9.796881,1,0
1778021469836,   462.920,   462.917, 0.016752,-0.043833,-0.994282, 0.000051,-0.000132,-0.002983,-0.005045,-0.021623, 0.040034,1,-0.000011,-0.000320,-0.000414,1,-0.170899, 0.402889, 9.796880,1,0
1778021469846,   462.926,   462.926, 0.017388,-0.042943,-0.993920, 0.000052,-0.000129,-0.002981,-0.000376,-0.018249, 0.049852,1,-0.000094, 0.000161,-0.000382,1,-0.170895, 0.402877, 9.796881,1,0
1778021469857,   462.935,   462.935, 0.017347,-0.043182,-0.994689, 0.000052,-0.000130,-0.002984,-0.000749,-0.020612, 0.042312,1,-0.000993,-0.000233,-0.000341,1,-0.170861, 0.402849, 9.796883,1,0
1778021469868,   462.944,   462.944, 0.016303,-0.042316,-0.994783, 0.000049,-0.000127,-0.002984,-0.011084,-0.011434, 0.041360,1, 0.001351,-0.000439,-0.000293,1,-0.170968, 0.403602, 9.796849,1,0
1778021469879,   462.953,   462.953, 0.017362,-0.042359,-0.994418, 0.000053,-0.000127,-0.002983,-0.000680,-0.011797, 0.044937,1,-0.000500,-0.000668,-0.000596,1,-0.170936, 0.403594, 9.796850,1,0
1778021469889,   462.962,   462.959, 0.017105,-0.041799,-0.994225, 0.000052,-0.000125,-0.002983,-0.004465,-0.008686, 0.044060,1, 0.001070,-0.000995,-0.001014,1,-0.170891, 0.403622, 9.796850,1,0
1778021469900,   462.971,   462.968, 0.017705,-0.042461,-0.993878, 0.000053,-0.000127,-0.002982, 0.004849,-0.007634, 0.055023,1, 0.001949,-0.000026,-0.000138,1,-0.170925, 0.403717, 9.796845,1,0
1778021469911,   462.980,   462.977, 0.016849,-0.043111,-0.994882, 0.000050,-0.000129,-0.002984,-0.005368,-0.017856, 0.041108,1, 0.000875,-0.000866, 0.000011,1,-0.170898, 0.403840, 9.796841,1,0
1778021469922,   462.989,   462.986, 0.017072,-0.043758,-0.994119, 0.000051,-0.000131,-0.002982,-0.001362,-0.021200, 0.047659,1, 0.000702,-0.000416,-0.000650,1,-0.170869, 0.403858, 9.796841,1,0
1778021469932,   463.070,   463.070, 0.017835,-0.042257,-0.995995, 0.000053,-0.000127,-0.002989, 0.004179,-0.009419, 0.029418,1, 0.002506,-0.000808, 0.000259,1,-0.170712, 0.405009, 9.796796,1,0
1778021469943,   463.079,   463.079, 0.017298,-0.042119,-0.994444, 0.000051,-0.000126,-0.002983,-0.001092,-0.007805, 0.044623,1, 0.002638,-0.000687, 0.000179,1,-0.170721, 0.405262, 9.796785,1,0
1778021469954,   463.088,   463.085, 0.016721,-0.043756,-0.994816, 0.000050,-0.000132,-0.002984, 0.000236,-0.015466, 0.038610,1, 0.004752, 0.000552,-0.000791,1,-0.170740, 0.405482, 9.796776,1,0
1778021469965,   463.097,   463.094, 0.017736,-0.042626,-0.994796, 0.000053,-0.000128,-0.002985, 0.003945,-0.017466, 0.037935,1, 0.003639,-0.001096,-0.000814,1,-0.170660, 0.405832, 9.796762,1,0
1778021469975,   463.106,   463.103, 0.016630,-0.043919,-0.993456, 0.000050,-0.000132,-0.002980,-0.007989,-0.025939, 0.051311,1, 0.003223, 0.000635, 0.000068,1,-0.170678, 0.406197, 9.796747,1,0
1778021469986,   463.115,   463.112, 0.016888,-0.043488,-0.994212, 0.000050,-0.000130,-0.002983,-0.004342,-0.022613, 0.047218,1, 0.004026,-0.000177,-0.000808,1,-0.170639, 0.406509, 9.796735,1,0
1778021469997,   463.124,   463.121, 0.017673,-0.043366,-0.994849, 0.000053,-0.000130,-0.002985,-0.002056,-0.018821, 0.039029,1, 0.001984, 0.001112, 0.000030,1,-0.170661, 0.406769, 9.796723,1,0
1778021470008,   463.130,   463.130, 0.017466,-0.042520,-0.995850, 0.000052,-0.000128,-0.002988, 0.000586,-0.010021, 0.030763,1, 0.001939, 0.000644,-0.000246,1,-0.170700, 0.406972, 9.796715,1,0
1778021470019,   463.139,   463.139, 0.018109,-0.042545,-0.995431, 0.000054,-0.000127,-0.002986, 0.006881,-0.010051, 0.034864,1, 0.001543, 0.000553,-0.000487,1,-0.170709, 0.407190, 9.796705,1,0
1778021470029,   463.148,   463.148, 0.017454,-0.042187,-0.995815, 0.000053,-0.000126,-0.002987, 0.000638,-0.005595, 0.031064,1, 0.003980,-0.000386,-0.000029,1,-0.170522, 0.408154, 9.796669,1,0
1778021470040,   463.157,   463.157, 0.018030,-0.042307,-0.994122, 0.000054,-0.000127,-0.002983, 0.006351,-0.006383, 0.047648,1, 0.004630,-0.000922,-0.000283,1,-0.170458, 0.408552, 9.796653,1,0
1778021470051,   463.166,   463.163, 0.018094,-0.042339,-0.994240, 0.000054,-0.000128,-0.002983, 0.009777,-0.013941, 0.047064,1, 0.005486,-0.001013, 0.000274,1,-0.170431, 0.408834, 9.796642,1,0
1778021470062,   463.175,   463.172, 0.018678,-0.042964,-0.993538, 0.000057,-0.000129,-0.002981, 0.002328,-0.004128, 0.046943,1, 0.003246,-0.000063, 0.000525,1,-0.170453, 0.409203, 9.796626,1,0
1778021470072,   463.184,   463.181, 0.017623,-0.043133,-0.993939, 0.000053,-0.000129,-0.002982, 0.005929,-0.015237, 0.048897,1, 0.006229, 0.000147, 0.000181,1,-0.170417, 0.409688, 9.796606,1,0
1778021470083,   463.193,   463.190, 0.016947,-0.043396,-0.994192, 0.000051,-0.000130,-0.002982,-0.004530,-0.016602, 0.043468,1, 0.005350,-0.000796, 0.000230,1,-0.170393, 0.410097, 9.796590,1,0
1778021470094,   463.202,   463.199, 0.017188,-0.042952,-0.994818, 0.000052,-0.000129,-0.002985,-0.003460,-0.013868, 0.040348,1, 0.005185, 0.000207,-0.000124,1,-0.170362, 0.410553, 9.796571,1,0
1778021470105,   463.208,   463.208, 0.016285,-0.043638,-0.994601, 0.000049,-0.000131,-0.002984,-0.010649,-0.017047, 0.042848,1, 0.004858, 0.000053, 0.000241,1,-0.170352, 0.410942, 9.796556,1,0
1778021470115,   463.217,   463.217, 0.016209,-0.043433,-0.995654, 0.000048,-0.000130,-0.002987,-0.011373,-0.014575, 0.032506,1, 0.005186,-0.001303, 0.000266,1,-0.170314, 0.411405, 9.796536,1,0
1778021470126,   463.226,   463.226, 0.016990,-0.043061,-0.995151, 0.000052,-0.000129,-0.002986,-0.003602,-0.010481, 0.037422,1, 0.005473,-0.000067, 0.001324,1,-0.170212, 0.411855, 9.796519,1,0
1778021470137,   463.235,   463.235, 0.015705,-0.043281,-0.994241, 0.000048,-0.000129,-0.002983,-0.016132,-0.012152, 0.046326,1, 0.005122, 0.000424, 0.000354,1,-0.170152, 0.412336, 9.796500,1,0
1778021470148,   463.244,   463.241, 0.016534,-0.043208,-0.994980, 0.000050,-0.000130,-0.002985,-0.011306,-0.013785, 0.041215,1, 0.005451,-0.000796, 0.000868,1,-0.170131, 0.412660, 9.796487,1,0
1778021470158,   463.253,   463.250, 0.015943,-0.043345,-0.995788, 0.000048,-0.000130,-0.002987,-0.009996,-0.011377, 0.031736,1, 0.006445, 0.000174,-0.000170,1,-0.170142, 0.413151, 9.796466,1,0
1778021470169,   463.262,   463.259, 0.016968,-0.043699,-0.994370, 0.000051,-0.000131,-0.002984,-0.010125,-0.012819, 0.038177,1, 0.005701,-0.000323, 0.000268,1,-0.170113, 0.413582, 9.796448,1,0
1778021470180,   463.271,   463.268, 0.017789,-0.043463,-0.994214, 0.000053,-0.000130,-0.002983, 0.002116,-0.011846, 0.036824,1, 0.005781,-0.000602,-0.000190,1,-0.170098, 0.414008, 9.796431,1,0
1778021470191,   463.277,   463.277, 0.017303,-0.044156,-0.994519, 0.000052,-0.000132,-0.002983,-0.000406,-0.018543, 0.043511,1, 0.005831,-0.000859,-0.000199,1,-0.170082, 0.414534, 9.796409,1,0
1778021470201,   463.286,   463.286, 0.017738,-0.043421,-0.993933, 0.000053,-0.000130,-0.002982, 0.003856,-0.010775, 0.049238,1, 0.007010,-0.000145,-0.000020,1,-0.170097, 0.415106, 9.796384,1,0
1778021470212,   463.295,   463.295, 0.017618,-0.044029,-0.994617, 0.000053,-0.000132,-0.002984, 0.002741,-0.016100, 0.042502,1, 0.006417,-0.000164,-0.000546,1,-0.170032, 0.415736, 9.796358,1,0
1778021470223,   463.304,   463.304, 0.018072,-0.043838,-0.995462, 0.000054,-0.000132,-0.002986, 0.007172,-0.013622, 0.034182,1, 0.006725, 0.000473, 0.000312,1,-0.170056, 0.416341, 9.796332,1,0
1778021470234,   463.313,   463.310, 0.018365,-0.043617,-0.995277, 0.000055,-0.000131,-0.002986, 0.005741,-0.012631, 0.037436,1, 0.006380,-0.001254, 0.000175,1,-0.170026, 0.416746, 9.796315,1,0
1778021470245,   463.322,   463.319, 0.017883,-0.043967,-0.994940, 0.000053,-0.000132,-0.002985, 0.006443,-0.013678, 0.040270,1, 0.007271,-0.002388, 0.000542,1,-0.169930, 0.417319, 9.796293,1,0
1778021470255,   463.376,   463.376, 0.016289,-0.043774,-0.994776, 0.000049,-0.000131,-0.002984,-0.010116,-0.007756, 0.040696,1, 0.006931,-0.000193,-0.000303,1,-0.169858, 0.421587, 9.796111,1,0
1778021470266,   463.385,   463.385, 0.017333,-0.043201,-0.995035, 0.000051,-0.000130,-0.002985, 0.000138,-0.001529, 0.038128,1, 0.006988,-0.000002, 0.000008,1,-0.169845, 0.422197, 9.796085,1,0
1778021470277,   463.394,   463.394, 0.017302,-0.044147,-0.995058, 0.000052,-0.000133,-0.002986,-0.000155,-0.010136, 0.037876,1, 0.007003,-0.000791, 0.000978,1,-0.169823, 0.422866, 9.796057,1,0
1778021470288,   463.403,   463.400, 0.016963,-0.044797,-0.993925, 0.000051,-0.000134,-0.002982,-0.007016,-0.017924, 0.043445,1, 0.008085,-0.000464,-0.000261,1,-0.169764, 0.423316, 9.796039,1,0
1778021470298,   463.412,   463.409, 0.016758,-0.046186,-0.994519, 0.000050,-0.000139,-0.002983,-0.008048,-0.023195, 0.046030,1, 0.008119,-0.000473,-0.000362,1,-0.169742, 0.424016, 9.796008,1,0
1778021470309,   463.421,   463.418, 0.016542,-0.046186,-0.994927, 0.000050,-0.000138,-0.002985,-0.007843,-0.020958, 0.042648,1, 0.006909,-0.000894,-0.000497,1,-0.169640, 0.424717, 9.795979,1,0
1778021470320,   463.430,   463.427, 0.017504,-0.046405,-0.994103, 0.000052,-0.000139,-0.002982,-0.004059,-0.033945, 0.046161,1, 0.007127,-0.001209, 0.000181,1,-0.169593, 0.425258, 9.795958,1,0
1778021470331,   463.439,   463.436, 0.016796,-0.046344,-0.994342, 0.000050,-0.000139,-0.002983,-0.001725,-0.029440, 0.044249,1, 0.006445,-0.000552,-0.000389,1,-0.169574, 0.425801, 9.795934,1,0
1778021470341,   463.445,   463.445, 0.016132,-0.045701,-0.994675, 0.000048,-0.000137,-0.002984,-0.011316,-0.021964, 0.041492,1, 0.004999,-0.000883, 0.000407,1,-0.169514, 0.426253, 9.795916,1,0
1778021470352,   463.454,   463.454, 0.017097,-0.045670,-0.995193, 0.000051,-0.000137,-0.002986,-0.001768,-0.021201, 0.036390,1, 0.006117,-0.000541, 0.000690,1,-0.169430, 0.426724, 9.795897,1,0
1778021470363,   463.463,   463.463, 0.016829,-0.045024,-0.994970, 0.000050,-0.000135,-0.002985,-0.004381,-0.014370, 0.038553,1, 0.006253,-0.000389, 0.000488,1,-0.169418, 0.427220, 9.795875,1,0
1778021470374,   463.472,   463.472, 0.017039,-0.044959,-0.993689, 0.000051,-0.000135,-0.002981,-0.002255,-0.013246, 0.051094,1, 0.005101,-0.001283, 0.000031,1,-0.169338, 0.427702, 9.795856,1,0
1778021470384,   463.481,   463.478, 0.017453,-0.045003,-0.995096, 0.000052,-0.000135,-0.002985, 0.002450,-0.016325, 0.046512,1, 0.005628, 0.000663, 0.000349,1,-0.169350, 0.428015, 9.795841,1,0
1778021470395,   463.490,   463.487, 0.017563,-0.045296,-0.993985, 0.000053,-0.000136,-0.002983, 0.002277,-0.022170, 0.046117,1, 0.004346, 0.000308, 0.000105,1,-0.169311, 0.428464, 9.795822,1,0
1778021470406,   463.499,   463.496, 0.018043,-0.046515,-0.994172, 0.000053,-0.000140,-0.002982, 0.011001,-0.032894, 0.048323,1, 0.004684,-0.000249, 0.000014,1,-0.169339, 0.428860, 9.795805,1,0
1778021470417,   463.508,   463.505, 0.018199,-0.046281,-0.995446, 0.000055,-0.000139,-0.002987, 0.007569,-0.024755, 0.042696,1, 0.005082,-0.000890,-0.000021,1,-0.169271, 0.429316, 9.795786,1,0
1778021470427,   463.514,   463.514, 0.017810,-0.046553,-0.994540, 0.000053,-0.000140,-0.002984, 0.005338,-0.026857, 0.042668,1, 0.003433, 0.001172, 0.000205,1,-0.169333, 0.429700, 9.795768,1,0
1778021470438,   463.523,   463.523, 0.017661,-0.046336,-0.994658, 0.000053,-0.000139,-0.002984, 0.003831,-0.024347, 0.041484,1, 0.003729, 0.000119, 0.000468,1,-0.169361, 0.430089, 9.795751,1,0
1778021470449,   463.532,   463.532, 0.017710,-0.046512,-0.994601, 0.000054,-0.000139,-0.002984, 0.004312,-0.025781, 0.042029,1, 0.003245, 0.000398, 0.000840,1,-0.169371, 0.430381, 9.795737,1,0
1778021470460,   463.541,   463.541, 0.017760,-0.046259,-0.994764, 0.000054,-0.000139,-0.002985, 0.004764,-0.022548, 0.040403,1, 0.002400, 0.000141, 0.000646,1,-0.169388, 0.431514, 9.795687,1,0
1778021470471,   463.550,   463.547, 0.017468,-0.045921,-0.994063, 0.000052,-0.000138,-0.002982, 0.004598,-0.018667, 0.045330,1, 0.002073,-0.000076,-0.000614,1,-0.169363, 0.431668, 9.795681,1,0
1778021470481,   463.559,   463.556, 0.017681,-0.046571,-0.993514, 0.000052,-0.000140,-0.002981,-0.006901,-0.016875, 0.052706,1, 0.002976,-0.000457, 0.000318,1,-0.169352, 0.431915, 9.795671,1,0
1778021470492,   463.568,   463.565, 0.017120,-0.046373,-0.994947, 0.000051,-0.000139,-0.002986,-0.001676,-0.022036, 0.049190,1, 0.002599,-0.000674,-0.000018,1,-0.169376, 0.432205, 9.795657,1,0
1778021470503,   463.577,   463.574, 0.016425,-0.046874,-0.996603, 0.000050,-0.000141,-0.002990, 0.002299,-0.026832, 0.032761,1, 0.002487, 0.000436,-0.000158,1,-0.169366, 0.432440, 9.795647,1,0
1778021470514,   463.586,   463.583, 0.017128,-0.045866,-0.996423, 0.000051,-0.000138,-0.002990,-0.000896,-0.025227, 0.030750,1, 0.000616, 0.000438, 0.000469,1,-0.169396, 0.432612, 9.795639,1,0
1778021470524,   463.592,   463.592, 0.016710,-0.046319,-0.995101, 0.000051,-0.000139,-0.002985,-0.005609,-0.021475, 0.037025,1, 0.001183, 0.001440,-0.000248,1,-0.169492, 0.432773, 9.795630,1,0
1778021470535,   463.601,   463.598, 0.017337,-0.046192,-0.994101, 0.000052,-0.000138,-0.002982,-0.002490,-0.018953, 0.043761,1, 0.000550, 0.000372, 0.000155,1,-0.169521, 0.432815, 9.795628,1,0
1778021470546,   463.610,   463.610, 0.017353,-0.046184,-0.993154, 0.000052,-0.000138,-0.002979, 0.000673,-0.019977, 0.056108,1, 0.001479,-0.000642,-0.000136,1,-0.169493, 0.432946, 9.795622,1,0
1778021470557,   463.694,   463.691, 0.016997,-0.046426,-0.993986, 0.000052,-0.000139,-0.002981,-0.006865,-0.020840, 0.051018,1,-0.000294,-0.000398,-0.000628,1,-0.169458, 0.433312, 9.795607,1,0
1778021470567,   463.703,   463.700, 0.016874,-0.045664,-0.994305, 0.000050,-0.000137,-0.002983,-0.006060,-0.016515, 0.038963,1,-0.001709,-0.000476, 0.000884,1,-0.169437, 0.433125, 9.795615,1,0
1778021470578,   463.712,   463.709, 0.015857,-0.045423,-0.993825, 0.000047,-0.000136,-0.002982,-0.010056,-0.009502, 0.046922,1,-0.000823, 0.000049, 0.000017,1,-0.169423, 0.432931, 9.795624,1,0
1778021470589,   463.721,   463.718, 0.016530,-0.046346,-0.994263, 0.000049,-0.000140,-0.002983,-0.002659,-0.021855, 0.043821,1,-0.002110, 0.000257,-0.000929,1,-0.169437, 0.432844, 9.795628,1,0
1778021470600,   463.727,   463.727, 0.016943,-0.046105,-0.995326, 0.000050,-0.000138,-0.002986,-0.003277,-0.019321, 0.034810,1, 0.000550,-0.000476,-0.000569,1,-0.169427, 0.432823, 9.795629,1,0
1778021470610,   463.736,   463.736, 0.016872,-0.046687,-0.994421, 0.000051,-0.000140,-0.002983,-0.003934,-0.025012, 0.043686,1, 0.000288, 0.000299,-0.000135,1,-0.169397, 0.432835, 9.795629,1,0
1778021470621,   463.745,   463.745, 0.016417,-0.046883,-0.995426, 0.000049,-0.000140,-0.002987,-0.008324,-0.026150, 0.033805,1,-0.000917, 0.000631,-0.000618,1,-0.169327, 0.433634, 9.795594,1,0
1778021470632,   463.754,   463.751, 0.016237,-0.046940,-0.994232, 0.000049,-0.000141,-0.002982,-0.010188,-0.025073, 0.041160,1,-0.000152,-0.000656,-0.000603,1,-0.169333, 0.433593, 9.795596,1,0
1778021470643,   463.763,   463.760, 0.016369,-0.046265,-0.993278, 0.000049,-0.000139,-0.002980,-0.006049,-0.028073, 0.050082,1,-0.001877, 0.000549, 0.000060,1,-0.169379, 0.433435, 9.795603,1,0
1778021470653,   463.772,   463.766, 0.017073,-0.046707,-0.993809, 0.000051,-0.000140,-0.002982,-0.006463,-0.019786, 0.042824,1,-0.001949, 0.000357,-0.000678,1,-0.169359, 0.433309, 9.795609,1,0
1778021470664,   463.781,   463.778, 0.016167,-0.046658,-0.994274, 0.000048,-0.000140,-0.002983,-0.008189,-0.015019, 0.045358,1,-0.002963,-0.001100,-0.000172,1,-0.169347, 0.432934, 9.795626,1,0
1778021470675,   463.790,   463.787, 0.017193,-0.045877,-0.994898, 0.000052,-0.000137,-0.002985,-0.008484,-0.017410, 0.049187,1,-0.002165,-0.001103,-0.000672,1,-0.169272, 0.432720, 9.795636,1,0
1778021470686,   463.796,   463.796, 0.017330,-0.045826,-0.995689, 0.000052,-0.000137,-0.002987, 0.000775,-0.016911, 0.031276,1,-0.002412,-0.002117,-0.000380,1,-0.169152, 0.432467, 9.795650,1,0
1778021470697,   463.805,   463.805, 0.017030,-0.046077,-0.994578, 0.000051,-0.000138,-0.002984,-0.002091,-0.019581, 0.042178,1,-0.003166,-0.000273,-0.001347,1,-0.169101, 0.432250, 9.795660,1,0
1778021470707,   463.814,   463.814, 0.017648,-0.046288,-0.996579, 0.000053,-0.000138,-0.002990, 0.003942,-0.021937, 0.022571,1,-0.003538, 0.001326, 0.000177,1,-0.169137, 0.431964, 9.795671,1,0
1778021470718,   463.823,   463.823, 0.017477,-0.044927,-0.994833, 0.000053,-0.000135,-0.002984, 0.002219,-0.008812, 0.039697,1,-0.001950, 0.000040,-0.000483,1,-0.169169, 0.431752, 9.795680,1,0
1778021470729,   463.832,   463.829, 0.018325,-0.046641,-0.993776, 0.000054,-0.000140,-0.002981, 0.010619,-0.019076, 0.048891,1,-0.002937, 0.000515,-0.001459,1,-0.169225, 0.431595, 9.795687,1,0
1778021470740,   463.841,   463.838, 0.017698,-0.046940,-0.993439, 0.000053,-0.000141,-0.002980, 0.004420,-0.028745, 0.053694,1,-0.002150, 0.000296,-0.000955,1,-0.169271, 0.431355, 9.795696,1,0
1778021470750,   463.850,   463.847, 0.017575,-0.046876,-0.993687, 0.000052,-0.000141,-0.002981, 0.007820,-0.028089, 0.060362,1,-0.002769, 0.000453,-0.001438,1,-0.169311, 0.431151, 9.795705,1,0
1778021470761,   463.859,   463.856, 0.017192,-0.046124,-0.993464, 0.000052,-0.000139,-0.002980, 0.005601,-0.030965, 0.045957,1,-0.003216,-0.000129,-0.000842,1,-0.169342, 0.430921, 9.795714,1,0
1778021470772,   463.868,   463.865, 0.017318,-0.046837,-0.994740, 0.000052,-0.000141,-0.002984, 0.003773,-0.028987, 0.049452,1,-0.004455, 0.000369,-0.000991,1,-0.169345, 0.430571, 9.795730,1,0
1778021470783,   463.874,   463.874, 0.017313,-0.044811,-0.995085, 0.000052,-0.000134,-0.002985, 0.000425,-0.009299, 0.037293,1,-0.006251, 0.000454, 0.000003,1,-0.169363, 0.430086, 9.795751,1,0
1778021470793,   463.883,   463.883, 0.016342,-0.043705,-0.996316, 0.000050,-0.000132,-0.002991,-0.009134, 0.001063, 0.025249,1,-0.005964,-0.000243,-0.000454,1,-0.169391, 0.429603, 9.795772,1,0
1778021470804,   463.892,   463.892, 0.017051,-0.044597,-0.993161, 0.000052,-0.000135,-0.002981,-0.002239,-0.008122, 0.056202,1,-0.004373,-0.000433,-0.001321,1,-0.169448, 0.429183, 9.795789,1,0
1778021470815,   463.901,   463.901, 0.018137,-0.045715,-0.997171, 0.000055,-0.000137,-0.002991, 0.008441,-0.019368, 0.016894,1,-0.002909, 0.000094,-0.001676,1,-0.169424, 0.428918, 9.795800,1,0
1778021470826,   463.910,   463.907, 0.016954,-0.046306,-0.995243, 0.000052,-0.000139,-0.002986,-0.008104,-0.020981, 0.036793,1,-0.003558,-0.001353,-0.000547,1,-0.169366, 0.428738, 9.795810,1,0
1778021470836,   463.919,   463.916, 0.016586,-0.047436,-0.994155, 0.000050,-0.000142,-0.002982, 0.002652,-0.024201, 0.050370,1,-0.003101,-0.000186,-0.001391,1,-0.169349, 0.428444, 9.795823,1,0
1778021470847,   463.928,   463.925, 0.017565,-0.045638,-0.994187, 0.000053,-0.000137,-0.002982, 0.003554,-0.018320, 0.038790,1,-0.003602,-0.000276,-0.001804,1,-0.169324, 0.428106, 9.795837,1,0
1778021470858,   463.937,   463.934, 0.017665,-0.045473,-0.992664, 0.000054,-0.000136,-0.002977, 0.010131,-0.018652, 0.056428,1,-0.004448,-0.000419,-0.001586,1,-0.169322, 0.427706, 9.795856,1,0
1778021470869,   463.943,   463.943, 0.017708,-0.045112,-0.995089, 0.000054,-0.000136,-0.002985, 0.004344,-0.014312, 0.037349,1,-0.004351, 0.000993,-0.000803,1,-0.169316, 0.428141, 9.795836,1,0
1778021470879,   464.003,   464.000, 0.017768,-0.044719,-0.994582, 0.000053,-0.000134,-0.002983, 0.007789,-0.009078, 0.039219,1,-0.004888, 0.001132,-0.001126,1,-0.169385, 0.425520, 9.795949,1,0
1778021470890,   464.012,   464.009, 0.018090,-0.044815,-0.996713, 0.000055,-0.000134,-0.002990, 0.011533,-0.015568, 0.032729,1,-0.004969,-0.000770,-0.000207,1,-0.169342, 0.425047, 9.795971,1,0
1778021470901,   464.021,   464.018, 0.018386,-0.044121,-0.994727, 0.000055,-0.000132,-0.002984, 0.007727,-0.008008, 0.030131,1,-0.004340,-0.000413,-0.000340,1,-0.169333, 0.424605, 9.795990,1,0
1778021470912,   464.030,   464.027, 0.017933,-0.044161,-0.994628, 0.000054,-0.000132,-0.002984, 0.005998,-0.009371, 0.050497,1,-0.005033, 0.000366,-0.000181,1,-0.169394, 0.424146, 9.796009,1,0
1778021470923,   464.036,   464.036, 0.018493,-0.044554,-0.995105, 0.000056,-0.000134,-0.002985, 0.011985,-0.013078, 0.037375,1,-0.002689,-0.000867,-0.000285,1,-0.169357, 0.423826, 9.796023,1,0
1778021470933,   464.045,   464.045, 0.017453,-0.044059,-0.992747, 0.000053,-0.000132,-0.002978, 0.001865,-0.008437, 0.060513,1,-0.001230,-0.000916,-0.000549,1,-0.169282, 0.423620, 9.796034,1,0
1778021470944,   464.054,   464.054, 0.017681,-0.044560,-0.994373, 0.000053,-0.000133,-0.002984, 0.004105,-0.013524, 0.044568,1,-0.001918, 0.000197,-0.000173,1,-0.169287, 0.423445, 9.796041,1,0
1778021470955,   464.063,   464.063, 0.017004,-0.044216,-0.995332, 0.000051,-0.000133,-0.002987,-0.002530,-0.010420, 0.035177,1,-0.003716, 0.000021,-0.000663,1,-0.169283, 0.423159, 9.796054,1,0
1778021470966,   464.072,   464.069, 0.016747,-0.044575,-0.994586, 0.000050,-0.000134,-0.002983,-0.005720,-0.013237, 0.041293,1,-0.002423, 0.000216,-0.000603,1,-0.169292, 0.423042, 9.796059,1,0
1778021470976,   464.081,   464.078, 0.016340,-0.044920,-0.996386, 0.000049,-0.000135,-0.002989,-0.004794,-0.015727, 0.022405,1,-0.004354, 0.000448, 0.000175,1,-0.169296, 0.422728, 9.796072,1,0
1778021470987,   464.090,   464.087, 0.015473,-0.044160,-0.994608, 0.000046,-0.000133,-0.002984,-0.011232,-0.014367, 0.033198,1,-0.003232,-0.001302,-0.000563,1,-0.169262, 0.422379, 9.796087,1,0
1778021470998,   464.099,   464.096, 0.015719,-0.043449,-0.995761, 0.000047,-0.000130,-0.002987,-0.015727,-0.006870, 0.034850,1,-0.002919,-0.000223, 0.000380,1,-0.169246, 0.422104, 9.796100,1,0
1778021471009,   464.108,   464.105, 0.016333,-0.043029,-0.994301, 0.000049,-0.000129,-0.002983,-0.007665,-0.008948, 0.044743,1,-0.003285, 0.000705,-0.000313,1,-0.169304, 0.421861, 9.796109,1,0
1778021471019,   464.114,   464.114, 0.016154,-0.043399,-0.992686, 0.000048,-0.000130,-0.002978,-0.010788,-0.003881, 0.061197,1,-0.001382,-0.001457, 0.000356,1,-0.169193, 0.421702, 9.796118,1,0
1778021471030,   464.123,   464.123, 0.016076,-0.043417,-0.993999, 0.000049,-0.000131,-0.002982,-0.011554,-0.004193, 0.048322,1,-0.001738, 0.000137, 0.000084,1,-0.169205, 0.421568, 9.796124,1,0
1778021471041,   464.132,   464.132, 0.014772,-0.042896,-0.993894, 0.000045,-0.000129,-0.002982,-0.024337, 0.000780, 0.049357,1,-0.000676,-0.000394,-0.000011,1,-0.169199, 0.421444, 9.796129,1,0
1778021471052,   464.141,   464.138, 0.015543,-0.043958,-0.995136, 0.000046,-0.000132,-0.002985,-0.022143,-0.009066, 0.039834,1,-0.000976,-0.000783, 0.000667,1,-0.169144, 0.421362, 9.796133,1,0
1778021471062,   464.150,   464.147, 0.015505,-0.044348,-0.994968, 0.000047,-0.000133,-0.002985,-0.022393,-0.014026, 0.044054,1,-0.000994,-0.000884,-0.000230,1,-0.169145, 0.421742, 9.796117,1,0
1778021471073,   464.159,   464.156, 0.015709,-0.045204,-0.995136, 0.000047,-0.000136,-0.002985,-0.016781,-0.015424, 0.037313,1,-0.000344, 0.000793, 0.000182,1,-0.169210, 0.421632, 9.796121,1,0
1778021471084,   464.168,   464.165, 0.015604,-0.044178,-0.996834, 0.000047,-0.000132,-0.002991,-0.010537,-0.014691, 0.031800,1,-0.000694,-0.000736, 0.000322,1,-0.169201, 0.421601, 9.796123,1,0
1778021471095,   464.177,   464.174, 0.016076,-0.044879,-0.994211, 0.000048,-0.000135,-0.002982,-0.012813,-0.018396, 0.038840,1,-0.001799,-0.000780,-0.000624,1,-0.169084, 0.421511, 9.796128,1,0
1778021471106,   464.183,   464.183, 0.015812,-0.044674,-0.994389, 0.000046,-0.000134,-0.002983,-0.014070,-0.016735, 0.044509,1,-0.001466, 0.000075,-0.000067,1,-0.169132, 0.421354, 9.796134,1,0
1778021471116,   464.192,   464.192, 0.016204,-0.043712,-0.994148, 0.000048,-0.000131,-0.002982,-0.010192,-0.007469, 0.046876,1,-0.001139,-0.001337,-0.000049,1,-0.169090, 0.421187, 9.796142,1,0
1778021471127,   464.201,   464.201, 0.017168,-0.043345,-0.993987, 0.000052,-0.000130,-0.002981,-0.000763,-0.003977, 0.048465,1,-0.000591,-0.000297,-0.000567,1,-0.169121, 0.421089, 9.796145,1,0
1778021471138,   464.210,   464.210, 0.016843,-0.042976,-0.995066, 0.000050,-0.000129,-0.002986,-0.003959,-0.000388, 0.037886,1, 0.000238, 0.000981,-0.000020,1,-0.169144, 0.421069, 9.796146,1,0
1778021471149,   464.219,   464.216, 0.017542,-0.043537,-0.993764, 0.000053,-0.000131,-0.002981, 0.004201,-0.005401, 0.041625,1, 0.000094, 0.000312,-0.000280,1,-0.169170, 0.421070, 9.796145,1,0
1778021471159,   464.228,   464.225, 0.018478,-0.044205,-0.994195, 0.000056,-0.000133,-0.002982, 0.006286,-0.013555, 0.047264,1, 0.000801, 0.001412,-0.000796,1,-0.169217, 0.421179, 9.796140,1,0
1778021471170,   464.237,   464.234, 0.017029,-0.044964,-0.994188, 0.000051,-0.000135,-0.002983,-0.001007,-0.014805, 0.038496,1, 0.000260,-0.001123,-0.000273,1,-0.169150, 0.421247, 9.796138,1,0
1778021471181,   464.318,   464.315, 0.019442,-0.044679,-0.994496, 0.000059,-0.000134,-0.002984, 0.018511,-0.014108, 0.049519,1, 0.000825, 0.000536,-0.000810,1,-0.169153, 0.421469, 9.796128,1,0
1778021471192,   464.327,   464.324, 0.018579,-0.044689,-0.994304, 0.000056,-0.000134,-0.002983, 0.013092,-0.007892, 0.039017,1, 0.001616, 0.000094,-0.000623,1,-0.169116, 0.421592, 9.796124,1,0
1778021471202,   464.336,   464.333, 0.018036,-0.044788,-0.994372, 0.000054,-0.000134,-0.002983, 0.014460,-0.022666, 0.048468,1, 0.001149,-0.000017,-0.000944,1,-0.169106, 0.421690, 9.796120,1,0
1778021471213,   464.345,   464.342, 0.017998,-0.045310,-0.996064, 0.000054,-0.000136,-0.002988, 0.012992,-0.021883, 0.035960,1, 0.000872, 0.000387, 0.000186,1,-0.169122, 0.422330, 9.796092,1,0
1778021471224,   464.354,   464.351, 0.017213,-0.044766,-0.995767, 0.000051,-0.000134,-0.002988, 0.003686,-0.017757, 0.034045,1, 0.001002, 0.000249,-0.000215,1,-0.169153, 0.422449, 9.796086,1,0
1778021471235,   464.360,   464.360, 0.016415,-0.045503,-0.994594, 0.000049,-0.000136,-0.002984,-0.008160,-0.023690, 0.042443,1, 0.001484, 0.000641,-0.000639,1,-0.169147, 0.422557, 9.796082,1,0
1778021471245,   464.369,   464.369, 0.017601,-0.045133,-0.994690, 0.000053,-0.000136,-0.002984, 0.003427,-0.020014, 0.041502,1, 0.000496,-0.000708, 0.000555,1,-0.169170, 0.422595, 9.796080,1,0
1778021471256,   464.378,   464.378, 0.016322,-0.044739,-0.993230, 0.000049,-0.000134,-0.002979,-0.009114,-0.016114, 0.055819,1, 0.000197, 0.000881, 0.000022,1,-0.169181, 0.422628, 9.796078,1,0
1778021471267,   464.387,   464.384, 0.017011,-0.044437,-0.993931, 0.000051,-0.000133,-0.002982,-0.009951,-0.012869, 0.053772,1, 0.000779, 0.000347, 0.000434,1,-0.169185, 0.422694, 9.796075,1,0
1778021471278,   464.396,   464.393, 0.016502,-0.044332,-0.994547, 0.000049,-0.000133,-0.002984,-0.007647,-0.015157, 0.043602,1, 0.000843,-0.001065, 0.000194,1,-0.169172, 0.422726, 9.796074,1,0
1778021471288,   464.405,   464.402, 0.016187,-0.045273,-0.993868, 0.000048,-0.000136,-0.002981,-0.010714,-0.017105, 0.046973,1, 0.001003,-0.001632,-0.000247,1,-0.169096, 0.422829, 9.796071,1,0
1778021471299,   464.414,   464.411, 0.016167,-0.044937,-0.996054, 0.000049,-0.000134,-0.002988,-0.014717,-0.014353, 0.031804,1, 0.000741, 0.000291,-0.000786,1,-0.169094, 0.422871, 9.796069,1,0
1778021471310,   464.423,   464.420, 0.016130,-0.044309,-0.994582, 0.000049,-0.000133,-0.002983,-0.008320,-0.017069, 0.038975,1, 0.001139, 0.000331, 0.000181,1,-0.169116, 0.422952, 9.796065,1,0
1778021471321,   464.429,   464.429, 0.016042,-0.045151,-0.994333, 0.000049,-0.000135,-0.002983,-0.011809,-0.019767, 0.044983,1, 0.000814, 0.001765, 0.000085,1,-0.169146, 0.423022, 9.796062,1,0
1778021471332,   464.438,   464.438, 0.016685,-0.044844,-0.994431, 0.000050,-0.000135,-0.002983,-0.005522,-0.016635, 0.044019,1, 0.001422, 0.000061,-0.000517,1,-0.169151, 0.423148, 9.796056,1,0
1778021471342,   464.447,   464.447, 0.016741,-0.044669,-0.992565, 0.000050,-0.000134,-0.002977,-0.004970,-0.014809, 0.062318,1, 0.001174, 0.000605, 0.000244,1,-0.169145, 0.423254, 9.796052,1,1
1778021471353,   464.456,   464.456, 0.017011,-0.045680,-0.994001, 0.000052,-0.000137,-0.002982,-0.002276,-0.024608, 0.048223,1, 0.000874,-0.000665, 0.000005,1,-0.169094, 0.423366, 9.796048,1,1
1778021471364,   464.465,   464.462, 0.016881,-0.046287,-0.995149, 0.000051,-0.000139,-0.002986,-0.000268,-0.034032, 0.041948,1, 0.001567, 0.000329, 0.000219,1,-0.169115, 0.423429, 9.796044,1,1
1778021471375,   464.474,   464.471, 0.016518,-0.046087,-0.995208, 0.000050,-0.000138,-0.002986,-0.001530,-0.026974, 0.037840,1,-0.000149,-0.000779, 0.000192,1,-0.169116, 0.423422, 9.796045,1,1
1778021471385,   464.483,   464.480, 0.016774,-0.045827,-0.994524, 0.000051,-0.000138,-0.002984,-0.004546,-0.026740, 0.035597,1,-0.001748, 0.000266, 0.000095,1,-0.169052, 0.423359, 9.796049,1,1
1778021471396,   464.492,   464.489, 0.016948,-0.044920,-0.993493, 0.000051,-0.000135,-0.002980, 0.000295,-0.021138, 0.045619,1,-0.001580, 0.000327,-0.000049,1,-0.169104, 0.423189, 9.796055,1,1
1778021471407,   464.501,   464.498, 0.017105,-0.043652,-0.995269, 0.000052,-0.000131,-0.002986,-0.004241,-0.013064, 0.044633,1,-0.001781, 0.000117,-0.000223,1,-0.169120, 0.423120, 9.796058,1,1
1778021471418,   464.507,   464.507, 0.017647,-0.044109,-0.995544, 0.000053,-0.000133,-0.002986, 0.003935,-0.009442, 0.033108,1,-0.000523,-0.000101,-0.000122,1,-0.169121, 0.423118, 9.796058,1,1
1778021471428,   464.516,   464.516, 0.017810,-0.043754,-0.994349, 0.000053,-0.000131,-0.002983, 0.005501,-0.005869, 0.044819,1, 0.000780,-0.000661,-0.000825,1,-0.169147, 0.423221, 9.796053,1,1
1778021471439,   464.525,   464.525, 0.018317,-0.044551,-0.994566, 0.000055,-0.000134,-0.002984, 0.010476,-0.013617, 0.042693,1,-0.000285,-0.000143,-0.000336,1,-0.169154, 0.423273, 9.796051,1,1
1778021471450,   464.534,   464.534, 0.017917,-0.044938,-0.993987, 0.000054,-0.000135,-0.002982, 0.006562,-0.017403, 0.048367,1, 0.001648,-0.000533,-0.000659,1,-0.169136, 0.423302, 9.796050,1,1
1778021471461,   464.543,   464.540, 0.017529,-0.045657,-0.994439, 0.000053,-0.000137,-0.002983, 0.002537,-0.022504, 0.043363,1, 0.000524,-0.000491, 0.000369,1,-0.169088, 0.423338, 9.796049,1,1
1778021471471,   464.552,   464.549, 0.017423,-0.045467,-0.994791, 0.000053,-0.000137,-0.002984, 0.002591,-0.019986, 0.040120,1,-0.000531, 0.000884,-0.000979,1,-0.168984, 0.424020, 9.796021,1,1
1778021471482,   464.561,   464.558, 0.017521,-0.045941,-0.994444, 0.000053,-0.000138,-0.002983, 0.004382,-0.021731, 0.041669,1, 0.000284,-0.000207,-0.000561,1,-0.168962, 0.424030, 9.796021,1,1
1778021471493,   464.567,   464.567, 0.017446,-0.045958,-0.994359, 0.000052,-0.000137,-0.002983, 0.002084,-0.026683, 0.044690,1,-0.000234, 0.000457, 0.000578,1,-0.169008, 0.424013, 9.796021,1,1
1778021471504,   464.627,   464.624, 0.016826,-0.044510,-0.994934, 0.000050,-0.000134,-0.002984,-0.013950,-0.016923, 0.041617,1,-0.002080,-0.000184, 0.000268,1,-0.168990, 0.422955, 9.796067,1,1
1778021471514,   464.636,   464.633, 0.017137,-0.043721,-0.993692, 0.000052,-0.000131,-0.002982,-0.004555,-0.016122, 0.041432,1,-0.002470, 0.000634,-0.000093,1,-0.169051, 0.422677, 9.796079,1,1
1778021471525,   464.645,   464.642, 0.017448,-0.043860,-0.993245, 0.000052,-0.000132,-0.002980,-0.008408,-0.006251, 0.050259,1,-0.001790,-0.000459,-0.000426,1,-0.169027, 0.422506, 9.796086,1,1
1778021471536,   464.654,   464.651, 0.016619,-0.044956,-0.992882, 0.000050,-0.000135,-0.002979,-0.010540,-0.014227, 0.055580,1,-0.001414,-0.000569,-0.000209,1,-0.168964, 0.422342, 9.796094,1,1
1778021471547,   464.660,   464.660, 0.017413,-0.044426,-0.993458, 0.000053,-0.000133,-0.002980, 0.001804,-0.013462, 0.053607,1,-0.001876,-0.000337,-0.000940,1,-0.168953, 0.422192, 9.796101,1,1
1778021471558,   464.669,   464.669, 0.016809,-0.046154,-0.995348, 0.000050,-0.000139,-0.002986,-0.004119,-0.030625, 0.035080,1,-0.002594,-0.000487, 0.000208,1,-0.168951, 0.421969, 9.796110,1,1
1778021471568,   464.678,   464.678, 0.016914,-0.045599,-0.995160, 0.000050,-0.000137,-0.002985,-0.003079,-0.025353, 0.036929,1,-0.001915,-0.000580,-0.000050,1,-0.168939, 0.421802, 9.796118,1,1
1778021471579,   464.687,   464.687, 0.016761,-0.045352,-0.995244, 0.000050,-0.000137,-0.002985,-0.004573,-0.023224, 0.036116,1,-0.003245, 0.000263, 0.000046,1,-0.168946, 0.421498, 9.796131,1,1
1778021471590,   464.696,   464.693, 0.017138,-0.045764,-0.995418, 0.000052,-0.000138,-0.002986,-0.006651,-0.027447, 0.035414,1,-0.003915, 0.000630, 0.000414,1,-0.168976, 0.421267, 9.796141,1,1
1778021471601,   464.705,   464.702, 0.018016,-0.044856,-0.995164, 0.000055,-0.000134,-0.002986, 0.005655,-0.018965, 0.035461,1,-0.003864, 0.000915, 0.000655,1,-0.169061, 0.420895, 9.796155,1,1
1778021471611,   464.714,   464.711, 0.017682,-0.043467,-0.993576, 0.000053,-0.000130,-0.002980,-0.002111,-0.015549, 0.056387,1,-0.004789, 0.000260, 0.000143,1,-0.169089, 0.420481, 9.796172,1,1
1778021471622,   464.723,   464.720, 0.018216,-0.043657,-0.993537, 0.000054,-0.000131,-0.002981, 0.009759,-0.008830, 0.047281,1,-0.004345, 0.000656,-0.000530,1,-0.169083, 0.420101, 9.796188,1,1
1778021471633,   464.732,   464.729, 0.017706,-0.043240,-0.994050, 0.000053,-0.000130,-0.002982, 0.008571,-0.002310, 0.046383,1,-0.003599, 0.000076,-0.000366,1,-0.169085, 0.419798, 9.796202,1,1
1778021471644,   464.738,   464.738, 0.018089,-0.043660,-0.994306, 0.000054,-0.000131,-0.002983, 0.008265,-0.008625, 0.045401,1,-0.002685, 0.000223,-0.000899,1,-0.169129, 0.419512, 9.796213,1,1
1778021471654,   464.747,   464.747, 0.017647,-0.043704,-0.994410, 0.000053,-0.000131,-0.002983, 0.003981,-0.008506, 0.044359,1,-0.002077, 0.000748,-0.000463,1,-0.169085, 0.420071, 9.796190,1,1
1778021471665,   464.756,   464.756, 0.018677,-0.044083,-0.994150, 0.000056,-0.000132,-0.002982, 0.014040,-0.012399, 0.046917,1,-0.001324, 0.000117, 0.000386,1,-0.169119, 0.419898, 9.796197,1,1
1778021471676,   464.765,   464.762, 0.018532,-0.044235,-0.994048, 0.000056,-0.000133,-0.002982, 0.014907,-0.010526, 0.044893,1,-0.001640, 0.000996, 0.000226,1,-0.169137, 0.419772, 9.796202,1,1
1778021471687,   464.774,   464.771, 0.018116,-0.044494,-0.994906, 0.000054,-0.000133,-0.002984,-0.000094,-0.020286, 0.043027,1,-0.001801, 0.000069, 0.000487,1,-0.169164, 0.419607, 9.796208,1,1
1778021471697,   464.783,   464.780, 0.017974,-0.045400,-0.994860, 0.000054,-0.000136,-0.002984, 0.011900,-0.021724, 0.041581,1,-0.003309, 0.000050, 0.000610,1,-0.169138, 0.419380, 9.796219,1,1
1778021471708,   464.792,   464.789, 0.018974,-0.044694,-0.995082, 0.000057,-0.000134,-0.002985, 0.011559,-0.022075, 0.035903,1,-0.001839,-0.000688, 0.000032,1,-0.169160, 0.419253, 9.796224,1,1
1778021471719,   464.801,   464.798, 0.018020,-0.044688,-0.994480, 0.000054,-0.000134,-0.002984, 0.013247,-0.017648, 0.036649,1,-0.002882, 0.001255,-0.000730,1,-0.169201, 0.418995, 9.796234,1,1
1778021471730,   464.807,   464.807, 0.018110,-0.044279,-0.995402, 0.000054,-0.000133,-0.002986, 0.008419,-0.015487, 0.034689,1,-0.003682,-0.001307, 0.000169,1,-0.169172, 0.418704, 9.796247,1,1
1778021471740,   464.816,   464.816, 0.018323,-0.044619,-0.994807, 0.000055,-0.000134,-0.002984, 0.010468,-0.019156, 0.040533,1,-0.002992, 0.001110,-0.000355,1,-0.169230, 0.418377, 9.796260,1,1
1778021471751,   464.825,   464.825, 0.018519,-0.043636,-0.993956, 0.000056,-0.000131,-0.002982, 0.012350,-0.009786, 0.048894,1,-0.003713,-0.000219,-0.000013,1,-0.169253, 0.418104, 9.796271,1,1
1778021471762,   464.834,   464.834, 0.017950,-0.043606,-0.993784, 0.000054,-0.000131,-0.002981, 0.006830,-0.009726, 0.050585,1,-0.002887, 0.000419, 0.000471,1,-0.169199, 0.417875, 9.796282,1,1
1778021471773,   464.843,   464.840, 0.017364,-0.044248,-0.994006, 0.000052,-0.000133,-0.002982, 0.003787,-0.018660, 0.038559,1,-0.003443, 0.000700, 0.000309,1,-0.169213, 0.417653, 9.796291,1,1
1778021471784,   464.852,   464.849, 0.016239,-0.044193,-0.993835, 0.000048,-0.000133,-0.002982,-0.004033,-0.016892, 0.052610,1,-0.003220, 0.000872,-0.000520,1,-0.169320, 0.417394, 9.796300,1,1
1778021471794,   464.861,   464.858, 0.016626,-0.044372,-0.994265, 0.000049,-0.000133,-0.002983,-0.010219,-0.015580, 0.045376,1,-0.002849, 0.000236,-0.000775,1,-0.169361, 0.417165, 9.796309,1,1
1778021471805,   464.942,   464.939, 0.013894,-0.044164,-0.994297, 0.000041,-0.000132,-0.002983,-0.030716,-0.016523, 0.039163,1,-0.002863, 0.000322, 0.000373,1,-0.169638, 0.414485, 9.796418,1,1
1778021471816,   464.948,   464.948, 0.014367,-0.043554,-0.993930, 0.000043,-0.000130,-0.002982,-0.028612,-0.012271, 0.049284,1,-0.002681,-0.001229, 0.000049,1,-0.169493, 0.414822, 9.796407,1,1
1778021471827,   464.957,   464.957, 0.014583,-0.043836,-0.995323, 0.000044,-0.000132,-0.002986,-0.026516,-0.015330, 0.035630,1,-0.003658,-0.000599,-0.000569,1,-0.169525, 0.414525, 9.796418,1,1
1778021471837,   464.966,   464.966, 0.015174,-0.044297,-0.996670, 0.000046,-0.000133,-0.002990,-0.020717,-0.020155, 0.022435,1,-0.002808,-0.001050,-0.000608,1,-0.169509, 0.414225, 9.796432,1,1
1778021471848,   464.975,   464.975, 0.016241,-0.043665,-0.996721, 0.000049,-0.000131,-0.002990,-0.010257,-0.014258, 0.021952,1,-0.004544, 0.000860,-0.001209,1,-0.169534, 0.413907, 9.796445,1,1
1778021471859,   464.984,   464.981, 0.016734,-0.043828,-0.995765, 0.000050,-0.000132,-0.002987,-0.008161,-0.022586, 0.034119,1,-0.003837, 0.000423,-0.000079,1,-0.169544, 0.413691, 9.796453,1,1
1778021471870,   464.993,   464.990, 0.017459,-0.044615,-0.993993, 0.000052,-0.000134,-0.002982, 0.001781,-0.018483, 0.049510,1,-0.003151,-0.001125,-0.000596,1,-0.169543, 0.413394, 9.796466,1,1
1778021471880,   465.002,   464.999, 0.017838,-0.044205,-0.992985, 0.000052,-0.000133,-0.002979, 0.005408,-0.016045, 0.053597,1,-0.004335,-0.000890,-0.001072,1,-0.169522, 0.413115, 9.796478,1,1
1778021471891,   465.011,   465.008, 0.019234,-0.043968,-0.993951, 0.000058,-0.000132,-0.002982, 0.014620,-0.019576, 0.053105,1,-0.003512,-0.000184,-0.000075,1,-0.169504, 0.412779, 9.796493,1,1
1778021471902,   465.017,   465.017, 0.019320,-0.044513,-0.993932, 0.000058,-0.000134,-0.002982, 0.019924,-0.024024, 0.049356,1,-0.003776,-0.001259,-0.000776,1,-0.169528, 0.412461, 9.796506,1,1
1778021471913,   465.026,   465.026, 0.020365,-0.044057,-0.995312, 0.000061,-0.000132,-0.002985, 0.030217,-0.019962, 0.035842,1,-0.005144,-0.000505,-0.000912,1,-0.169493, 0.412040, 9.796524,1,1
1778021471923,   465.035,   465.035, 0.020825,-0.043701,-0.995637, 0.000063,-0.000131,-0.002987, 0.034758,-0.016925, 0.032677,1,-0.004713,-0.000563,-0.000712,1,-0.169464, 0.411591, 9.796543,1,1
1778021471934,   465.044,   465.044, 0.021132,-0.043662,-0.995223, 0.000063,-0.000131,-0.002986, 0.037753,-0.016929, 0.036756,1,-0.004395, 0.000527,-0.000506,1,-0.169490, 0.411210, 9.796558,1,1
1778021471945,   465.053,   465.050, 0.022026,-0.043505,-0.994003, 0.000066,-0.000131,-0.002982, 0.043181,-0.016123, 0.037648,1,-0.003346,-0.000314,-0.000525,1,-0.169486, 0.410994, 9.796568,1,1
1778021471956,   465.062,   465.059, 0.022176,-0.043122,-0.994835, 0.000067,-0.000129,-0.002984, 0.043488,-0.011841, 0.045189,1,-0.004268, 0.000287,-0.001652,1,-0.169505, 0.410632, 9.796583,1,1
1778021471966,   465.071,   465.068, 0.022254,-0.043536,-0.994827, 0.000067,-0.000131,-0.002984, 0.054943,-0.009755, 0.044921,1,-0.002873, 0.001078,-0.001662,1,-0.169557, 0.410362, 9.796593,1,1
1778021471977,   465.080,   465.077, 0.021322,-0.043027,-0.994590, 0.000064,-0.000129,-0.002984, 0.044786,-0.014595, 0.044682,1,-0.003358, 0.000575,-0.001765,1,-0.169599, 0.410072, 9.796604,1,1
1778021471988,   465.089,   465.086, 0.021028,-0.042599,-0.993437, 0.000063,-0.000128,-0.002980, 0.043603,-0.008728, 0.048654,1,-0.002907, 0.000550,-0.000752,1,-0.169682, 0.409830, 9.796614,1,1
1778021471999,   465.095,   465.095, 0.020488,-0.043083,-0.994453, 0.000061,-0.000129,-0.002984, 0.031279,-0.012876, 0.044364,1,-0.002973,-0.000131,-0.000563,1,-0.169641, 0.409599, 9.796623,1,1
1778021472010,   465.104,   465.104, 0.019718,-0.043638,-0.994975, 0.000059,-0.000131,-0.002985, 0.023773,-0.018585, 0.039261,1,-0.002070,-0.000518,-0.000491,1,-0.169590, 0.409334, 9.796636,1,1
1778021472020,   465.113,   465.113, 0.018713,-0.044060,-0.995247, 0.000056,-0.000132,-0.002986, 0.013892,-0.022982, 0.036608,1,-0.002927,-0.000491,-0.000243,1,-0.169616, 0.409068, 9.796646,1,1
1778021472031,   465.122,   465.122, 0.018044,-0.044330,-0.995261, 0.000054,-0.000133,-0.002986, 0.007301,-0.025911, 0.036481,1,-0.004055, 0.000249, 0.000018,1,-0.169655, 0.408784, 9.796658,1,1
1778021472042,   465.131,   465.128, 0.017213,-0.043970,-0.994330, 0.000052,-0.000132,-0.002983, 0.001757,-0.020665, 0.049343,1,-0.003863, 0.000539,-0.000487,1,-0.169699, 0.408531, 9.796667,1,1
1778021472053,   465.140,   465.137, 0.016931,-0.043274,-0.994099, 0.000051,-0.000130,-0.002982,-0.002591,-0.009039, 0.050545,1,-0.005276, 0.000359,-0.000881,1,-0.169753, 0.408112, 9.796683,1,1
1778021472063,   465.149,   465.146, 0.015315,-0.042341,-0.995489, 0.000046,-0.000127,-0.002986,-0.013374,-0.010967, 0.041882,1,-0.004723, 0.000582, 0.000153,1,-0.170291, 0.408335, 9.796665,1,1
1778021472074,   465.158,   465.155, 0.014984,-0.041469,-0.996024, 0.000044,-0.000125,-0.002988,-0.022008,-0.002079, 0.029608,1,-0.004254, 0.000223, 0.000488,1,-0.170287, 0.407966, 9.796680,1,1
1778021472085,   465.167,   465.164, 0.014711,-0.042568,-0.994162, 0.000044,-0.000128,-0.002982,-0.027905,-0.009242, 0.043079,1,-0.002578, 0.000445,-0.000022,1,-0.170335, 0.407704, 9.796691,1,1
1778021472096,   465.173,   465.173, 0.014413,-0.042910,-0.994406, 0.000043,-0.000129,-0.002984,-0.029015,-0.013256, 0.044907,1,-0.002577, 0.000059,-0.000379,1,-0.170362, 0.407523, 9.796698,1,1
1778021472106,   465.182,   465.182, 0.013717,-0.043418,-0.994001, 0.000041,-0.000130,-0.002981,-0.035871,-0.018502, 0.048887,1,-0.003158, 0.000221,-0.000745,1,-0.170396, 0.407256, 9.796708,1,1
1778021472117,   465.242,   465.242, 0.015226,-0.042760,-0.994551, 0.000045,-0.000129,-0.002984,-0.021038,-0.014244, 0.043582,1,-0.004068,-0.000703,-0.000840,1,-0.170351, 0.405053, 9.796801,1,1
1778021472128,   465.251,   465.248, 0.016553,-0.041288,-0.993557, 0.000050,-0.000125,-0.002981,-0.012283,-0.008127, 0.048242,1,-0.001893, 0.000668,-0.000053,1,-0.170382, 0.404900, 9.796806,1,1
1778021472139,   465.260,   465.257, 0.015915,-0.042167,-0.993551, 0.000048,-0.000126,-0.002981,-0.008650,-0.009185, 0.049379,1,-0.002385, 0.001323,-0.000852,1,-0.170431, 0.404696, 9.796814,1,1
1778021472149,   465.269,   465.266, 0.016515,-0.042449,-0.993792, 0.000050,-0.000127,-0.002982,-0.007599,-0.011008, 0.052470,1,-0.001371, 0.000919, 0.000026,1,-0.170470, 0.404540, 9.796820,1,1
1778021472160,   465.278,   465.275, 0.016214,-0.042175,-0.994365, 0.000049,-0.000127,-0.002983,-0.012830,-0.006950, 0.053599,1,-0.002327,-0.001244,-0.000109,1,-0.170412, 0.404335, 9.796829,1,1
1778021472171,   465.287,   465.284, 0.016457,-0.041709,-0.994755, 0.000049,-0.000125,-0.002985,-0.004321,-0.012050, 0.044529,1,-0.001555,-0.000748,-0.001256,1,-0.170354, 0.404201, 9.796836,1,1
1778021472182,   465.293,   465.293, 0.017382,-0.042784,-0.995674, 0.000052,-0.000128,-0.002988, 0.000095,-0.015535, 0.032617,1,-0.002423,-0.000022,-0.000297,1,-0.170361, 0.404011, 9.796844,1,1
1778021472192,   465.302,   465.302, 0.017876,-0.042303,-0.994521, 0.000054,-0.000127,-0.002983, 0.004944,-0.011023, 0.043932,1,-0.002991, 0.000165,-0.000886,1,-0.170359, 0.403798, 9.796852,1,1
1778021472203,   465.311,   465.311, 0.018062,-0.041616,-0.995851, 0.000054,-0.000125,-0.002988, 0.006830,-0.004441, 0.030897,1,-0.000960,-0.000796,-0.000373,1,-0.170295, 0.403665, 9.796859,1,1
1778021472214,   465.320,   465.320, 0.019216,-0.041032,-0.997068, 0.000057,-0.000123,-0.002992, 0.018154, 0.001208, 0.018960,1,-0.001321, 0.000269,-0.000357,1,-0.170291, 0.403585, 9.796862,1,1
1778021472225,   465.329,   465.326, 0.019495,-0.040505,-0.997373, 0.000058,-0.000122,-0.002992, 0.023416, 0.007032, 0.015636,1,-0.000279,-0.000772,-0.001064,1,-0.170270, 0.403549, 9.796864,1,1
1778021472236,   465.338,   465.335, 0.019567,-0.041201,-0.993709, 0.000059,-0.000124,-0.002982, 0.021933,-0.005084, 0.024145,1, 0.001676, 0.000890,-0.000474,1,-0.170353, 0.403591, 9.796861,1,1
1778021472246,   465.347,   465.344, 0.020005,-0.043428,-0.991054, 0.000060,-0.000131,-0.002973, 0.007491,-0.006629, 0.096640,1, 0.003183, 0.001781,-0.000841,1,-0.169979, 0.404226, 9.796841,1,1
1778021472257,   465.356,   465.353, 0.018493,-0.046554,-0.992452, 0.000055,-0.000139,-0.002977, 0.012868,-0.024481, 0.084938,1, 0.002418,-0.000008,-0.000938,1,-0.170041, 0.404462, 9.796830,1,1
1778021472268,   465.365,   465.362, 0.017995,-0.044963,-0.988889, 0.000053,-0.000134,-0.002965, 0.010907,-0.038975, 0.092896,1, 0.000487,-0.000345,-0.001237,1,-0.170038, 0.404611, 9.796824,1,1
1778021472279,   465.371,   465.371, 0.017781,-0.045103,-0.993150, 0.000054,-0.000135,-0.002981, 0.004321,-0.037713, 0.057349,1,-0.002149,-0.000195, 0.000482,1,-0.170045, 0.404578, 9.796825,1,1
1778021472289,   465.380,   465.380, 0.017841,-0.043373,-0.999745, 0.000054,-0.000130,-0.002999, 0.004927,-0.021076,-0.007315,1,-0.004538, 0.000538, 0.000125,1,-0.170041, 0.404224, 9.796840,1,1
1778021472300,   465.389,   465.389, 0.016653,-0.040033,-0.996466, 0.000050,-0.000120,-0.002989,-0.006689, 0.011352, 0.024854,1,-0.003143,-0.000670, 0.001104,1,-0.169995, 0.403912, 9.796854,1,1
1778021472311,   465.398,   465.395, 0.016269,-0.040480,-1.003333, 0.000049,-0.000121,-0.003010, 0.000545, 0.008666,-0.020477,1,-0.003159, 0.000723, 0.000941,1,-0.170005, 0.403735, 9.796861,1,1
1778021472322,   465.407,   465.404, 0.017360,-0.041855,-0.997995, 0.000053,-0.000126,-0.002994, 0.012479,-0.006310,-0.025099,1,-0.000410, 0.000706,-0.000014,1,-0.170102, 0.403584, 9.796865,1,1
1778021472332,   465.413,   465.413, 0.017983,-0.042474,-0.991013, 0.000054,-0.000127,-0.002972, 0.006299,-0.012785, 0.078337,1, 0.003375,-0.000659,-0.000793,1,-0.170048, 0.403775, 9.796859,1,1
1778021472343,   465.425,   465.422, 0.019649,-0.044101,-0.994353, 0.000059,-0.000133,-0.002983, 0.011153,-0.039538, 0.044287,1, 0.002926,-0.000920,-0.000704,1,-0.169996, 0.404137, 9.796844,1,1
1778021472354,   465.434,   465.431, 0.019330,-0.042662,-0.988376, 0.000058,-0.000128,-0.002965, 0.017566,-0.023552, 0.094206,1,-0.000757,-0.000985,-0.000587,1,-0.169918, 0.404208, 9.796843,1,1
1778021472365,   465.440,   465.440, 0.020002,-0.041549,-0.992243, 0.000060,-0.000125,-0.002976, 0.026259,-0.003335, 0.066268,1,-0.002407, 0.000433, 0.000244,1,-0.169899, 0.404102, 9.796847,1,1
1778021472375,   465.449,   465.449, 0.019343,-0.040414,-0.995053, 0.000058,-0.000121,-0.002985, 0.019763, 0.007638, 0.038711,1,-0.002938, 0.000260, 0.000219,1,-0.169926, 0.403935, 9.796854,1,1
1778021472386,   465.458,   465.458, 0.018161,-0.038971,-0.994551, 0.000054,-0.000117,-0.002984, 0.008108, 0.021618, 0.043643,1,-0.000296, 0.001447,-0.000027,1,-0.170008, 0.403794, 9.796858,1,1
1778021472397,   465.467,   465.467, 0.017814,-0.041341,-0.999260, 0.000054,-0.000124,-0.002998, 0.004654,-0.001465,-0.002547,1, 0.003618, 0.000241,-0.000997,1,-0.170040, 0.403989, 9.796849,1,1
1778021472408,   465.476,   465.473, 0.016319,-0.043900,-0.994000, 0.000049,-0.000132,-0.002981,-0.004241,-0.011928, 0.036764,1, 0.006233,-0.000412,-0.001092,1,-0.170035, 0.404315, 9.796836,1,1
1778021472418,   465.485,   465.482, 0.016124,-0.045250,-0.994390, 0.000048,-0.000136,-0.002983,-0.014305,-0.040599, 0.053935,1, 0.007658, 0.000406,-0.001246,1,-0.170048, 0.404945, 9.796810,1,1
1778021472429,   465.566,   465.566, 0.018824,-0.043003,-0.991316, 0.000056,-0.000129,-0.002974, 0.014603,-0.015448, 0.075265,1, 0.000267,-0.000068, 0.000564,1,-0.169994, 0.406272, 9.796756,1,1
1778021472440,   465.575,   465.572, 0.018778,-0.042433,-0.994471, 0.000056,-0.000127,-0.002983, 0.015016,-0.016112, 0.057061,1,-0.000195,-0.000723, 0.000335,1,-0.169990, 0.406232, 9.796758,1,1
1778021472451,   465.584,   465.581, 0.018164,-0.042190,-0.994966, 0.000054,-0.000127,-0.002985, 0.008523,-0.005573, 0.034943,1, 0.000734, 0.000036,-0.000267,1,-0.169982, 0.406272, 9.796756,1,1
1778021472462,   465.593,   465.590, 0.017894,-0.041858,-0.996515, 0.000053,-0.000125,-0.002990, 0.007153,-0.005115, 0.034959,1, 0.002834,-0.000701,-0.000084,1,-0.169968, 0.406417, 9.796750,1,1
1778021472472,   465.602,   465.599, 0.017629,-0.042682,-0.996118, 0.000053,-0.000128,-0.002988,-0.003269,-0.010037, 0.015687,1, 0.003608,-0.000746,-0.000382,1,-0.169907, 0.406672, 9.796741,1,1
1778021472483,   465.611,   465.608, 0.017720,-0.043450,-0.994460, 0.000053,-0.000130,-0.002983, 0.005857,-0.016581, 0.034605,1, 0.003725,-0.000051, 0.000825,1,-0.169892, 0.407075, 9.796724,1,1
1778021472494,   465.617,   465.617, 0.017193,-0.043960,-0.995217, 0.000051,-0.000132,-0.002986,-0.001292,-0.023808, 0.036966,1, 0.002447, 0.000301, 0.001292,1,-0.169897, 0.407313, 9.796715,1,1
1778021472505,   465.626,   465.626, 0.017501,-0.043543,-0.994337, 0.000052,-0.000131,-0.002983, 0.001670,-0.019566, 0.045591,1, 0.001379, 0.000486, 0.000753,1,-0.169963, 0.407455, 9.796707,1,1
1778021472515,   465.635,   465.635, 0.016822,-0.043011,-0.993836, 0.000051,-0.000129,-0.002981,-0.004984,-0.014276, 0.050504,1, 0.000975, 0.000287,-0.000240,1,-0.169952, 0.407525, 9.796704,1,1
1778021472526,   465.644,   465.641, 0.017369,-0.043034,-0.994794, 0.000052,-0.000129,-0.002984,-0.003748,-0.015831, 0.038841,1,-0.000070,-0.000306,-0.000647,1,-0.169929, 0.407549, 9.796704,1,1
1778021472537,   465.653,   465.650, 0.017761,-0.042865,-0.994846, 0.000053,-0.000129,-0.002984,-0.002477,-0.015789, 0.050553,1, 0.001065,-0.000618,-0.001483,1,-0.169835, 0.407566, 9.796705,1,1
1778021472548,   465.662,   465.659, 0.018330,-0.043187,-0.997671, 0.000055,-0.000129,-0.002993, 0.003812,-0.012237, 0.024275,1, 0.002017,-0.001169,-0.000414,1,-0.169789, 0.407666, 9.796701,1,1
1778021472558,   465.671,   465.668, 0.017703,-0.043199,-0.994649, 0.000053,-0.000130,-0.002985, 0.004428,-0.015386, 0.031202,1, 0.002993, 0.000016,-0.000397,1,-0.169747, 0.407916, 9.796692,1,1
1778021472569,   465.680,   465.677, 0.018006,-0.043291,-0.992794, 0.000054,-0.000130,-0.002978, 0.007206,-0.013858, 0.058645,1, 0.001539, 0.000971,-0.000686,1,-0.169761, 0.408033, 9.796687,1,1
1778021472580,   465.686,   465.686, 0.018243,-0.043428,-0.992380, 0.000054,-0.000130,-0.002977, 0.009142,-0.017722, 0.064758,1, 0.000762,-0.000359,-0.000049,1,-0.169761, 0.408164, 9.796681,1,1
1778021472591,   465.695,   465.695, 0.018257,-0.043539,-0.993080, 0.000055,-0.000131,-0.002979, 0.009266,-0.018646, 0.057887,1, 0.001456,-0.000626,-0.000349,1,-0.169767, 0.408337, 9.796674,1,1
1778021472601,   465.704,   465.704, 0.017806,-0.042539,-0.995164, 0.000053,-0.000128,-0.002985, 0.004891,-0.008765, 0.037444,1, 0.001132,-0.000789, 0.000222,1,-0.169716, 0.408406, 9.796672,1,1
1778021472612,   465.713,   465.713, 0.017701,-0.042751,-0.996394, 0.000053,-0.000128,-0.002989, 0.003935,-0.010757, 0.025386,1, 0.000200,-0.000946,-0.000315,1,-0.169646, 0.408488, 9.796670,1,1
1778021472623,   465.722,   465.719, 0.016739,-0.043182,-0.995930, 0.000051,-0.000130,-0.002988,-0.005106,-0.015417, 0.032684,1, 0.000969, 0.000591, 0.000062,1,-0.169618, 0.408508, 9.796670,1,1
1778021472634,   465.731,   465.728, 0.017233,-0.042282,-0.996190, 0.000051,-0.000126,-0.002989,-0.002660,-0.010354, 0.024111,1, 0.001640,-0.001734, 0.000006,1,-0.169572, 0.408629, 9.796665,1,1
1778021472644,   465.740,   465.737, 0.016596,-0.042729,-0.994088, 0.000050,-0.000128,-0.002982,-0.006512,-0.009382, 0.048815,1, 0.003139,-0.000847, 0.000267,1,-0.169570, 0.408796, 9.796659,1,1
1778021472655,   465.749,   465.743, 0.015980,-0.043252,-0.992730, 0.000047,-0.000130,-0.002978,-0.017331,-0.008706, 0.053321,1, 0.003715,-0.000317, 0.000107,1,-0.169694, 0.409623, 9.796621,1,1
1778021472666,   465.758,   465.755, 0.015194,-0.043035,-0.994916, 0.000045,-0.000129,-0.002985,-0.015089,-0.010755, 0.051228,1, 0.002794,-0.001298,-0.000424,1,-0.169579, 0.410001, 9.796608,1,1
1778021472677,   465.764,   465.764, 0.015624,-0.043637,-0.994795, 0.000047,-0.000131,-0.002985,-0.016330,-0.017753, 0.040994,1, 0.001783,-0.000101, 0.000244,1,-0.169547, 0.410197, 9.796600,1,1
1778021472688,   465.773,   465.773, 0.015685,-0.043818,-0.994656, 0.000047,-0.000132,-0.002984,-0.015711,-0.019391, 0.042355,1, 0.000752,-0.000415, 0.000027,1,-0.169521, 0.410326, 9.796596,1,1
1778021472698,   465.782,   465.782, 0.014784,-0.044327,-0.993983, 0.000044,-0.000133,-0.002982,-0.024529,-0.024256, 0.048947,1, 0.001771, 0.000950,-0.000269,1,-0.169518, 0.410462, 9.796590,1,1
1778021472709,   465.791,   465.791, 0.015004,-0.043886,-0.995194, 0.000045,-0.000131,-0.002985,-0.022403,-0.019809, 0.037065,1, 0.001391,-0.000704,-0.000185,1,-0.169537, 0.410574, 9.796585,1,1
1778021472720,   465.800,   465.797, 0.016098,-0.043756,-0.996730, 0.000048,-0.000131,-0.002990,-0.011205,-0.013358, 0.022877,1, 0.002227, 0.000666,-0.000290,1,-0.169544, 0.410696, 9.796579,1,1
1778021472731,   465.809,   465.806, 0.016311,-0.044158,-0.994953, 0.000049,-0.000132,-0.002985,-0.011706,-0.021085, 0.027476,1, 0.002601,-0.000042, 0.000146,1,-0.169585, 0.410913, 9.796570,1,1
1778021472741,   465.866,   465.863, 0.017261,-0.044273,-0.994694, 0.000052,-0.000134,-0.002984, 0.004125,-0.024532, 0.045641,1, 0.000906,-0.000945,-0.000261,1,-0.169437, 0.411599, 9.796543,1,1
1778021472752,   465.875,   465.872, 0.017547,-0.044136,-0.994718, 0.000052,-0.000133,-0.002984, 0.006695,-0.020415, 0.037738,1, 0.000447,-0.000777,-0.000302,1,-0.169416, 0.411683, 9.796540,1,1
1778021472763,   465.881,   465.881, 0.018672,-0.043240,-0.995943, 0.000056,-0.000130,-0.002988, 0.013649,-0.012382, 0.029678,1,-0.000290,-0.000272,-0.000442,1,-0.169455, 0.411656, 9.796540,1,1
1778021472774,   465.890,   465.890, 0.019099,-0.043026,-0.995157, 0.000058,-0.000129,-0.002986, 0.017859,-0.010295, 0.037386,1,-0.000315, 0.000446, 0.000021,1,-0.169437, 0.411640, 9.796541,1,1
1778021472784,   465.899,   465.899, 0.018863,-0.042719,-0.994761, 0.000057,-0.000128,-0.002983, 0.015499,-0.007259, 0.041262,1, 0.001122, 0.000447, 0.000230,1,-0.169487, 0.411687, 9.796538,1,1
1778021472795,   465.908,   465.908, 0.019363,-0.042045,-0.993432, 0.000058,-0.000126,-0.002980, 0.020439,-0.000575, 0.054297,1, 0.000318, 0.000707,-0.000282,1,-0.169458, 0.411753, 9.796536,1,1
1778021472806,   465.917,   465.914, 0.019965,-0.043014,-0.993244, 0.000060,-0.000129,-0.002980, 0.027057,-0.008750, 0.051853,1, 0.001159,-0.000024,-0.000337,1,-0.169475, 0.411836, 9.796533,1,1
1778021472817,   465.926,   465.923, 0.019595,-0.043211,-0.993626, 0.000059,-0.000130,-0.002981, 0.025145,-0.021668, 0.056971,1, 0.002941,-0.000257,-0.000532,1,-0.169499, 0.412040, 9.796524,1,1
1778021472827,   465.935,   465.932, 0.019034,-0.043998,-0.995077, 0.000057,-0.000132,-0.002985, 0.016159,-0.020439, 0.044997,1, 0.001730,-0.000531,-0.000014,1,-0.169461, 0.412246, 9.796515,1,1
1778021472838,   465.944,   465.941, 0.018816,-0.043433,-0.996177, 0.000056,-0.000130,-0.002989, 0.014270,-0.015767, 0.024010,1, 0.000930, 0.000845,-0.000109,1,-0.169530, 0.412942, 9.796485,1,1
1778021472849,   465.953,   465.950, 0.017629,-0.042784,-0.995538, 0.000052,-0.000128,-0.002987, 0.011900,-0.008597, 0.023738,1, 0.002014,-0.000500, 0.000317,1,-0.169478, 0.413066, 9.796481,1,1
1778021472860,   465.959,   465.959, 0.017997,-0.044100,-0.994712, 0.000054,-0.000132,-0.002984, 0.007034,-0.019319, 0.041688,1, 0.001381,-0.000351, 0.000775,1,-0.169450, 0.413170, 9.796477,1,1
1778021472870,   465.968,   465.968, 0.017734,-0.043306,-0.993820, 0.000053,-0.000129,-0.002981, 0.004471,-0.011406, 0.050431,1, 0.002300,-0.000037, 0.000345,1,-0.169442, 0.413307, 9.796472,1,1
1778021472881,   465.977,   465.977, 0.016909,-0.044559,-0.993569, 0.000051,-0.000134,-0.002980,-0.003676,-0.023482, 0.052876,1, 0.003705,-0.000525, 0.000148,1,-0.169495, 0.413525, 9.796461,1,1
1778021472892,   465.986,   465.986, 0.016743,-0.043705,-0.993931, 0.000050,-0.000132,-0.002982,-0.005284,-0.014889, 0.049322,1, 0.002368,-0.000158, 0.000175,1,-0.169476, 0.413729, 9.796453,1,1
1778021472903,   465.995,   465.992, 0.015732,-0.043013,-0.993851, 0.000047,-0.000129,-0.002981,-0.012494,-0.007690, 0.047705,1, 0.002442, 0.000150, 0.000214,1,-0.169486, 0.413868, 9.796447,1,1
1778021472914,   466.004,   466.001, 0.015266,-0.043451,-0.995520, 0.000046,-0.000130,-0.002987,-0.020027,-0.012506, 0.045372,1, 0.001183,-0.000678,-0.000540,1,-0.169404, 0.414025, 9.796442,1,1
1778021472924,   466.013,   466.010, 0.015713,-0.043757,-0.996650, 0.000047,-0.000131,-0.002991,-0.024379,-0.011493, 0.029534,1, 0.000532, 0.000743, 0.000249,1,-0.169416, 0.414133, 9.796437,1,1
1778021472935,   466.022,   466.019, 0.015095,-0.043128,-0.996801, 0.000045,-0.000129,-0.002990,-0.023393,-0.011231, 0.024343,1, 0.001736,-0.000444,-0.000400,1,-0.169414, 0.414274, 9.796431,1,1
1778021472946,   466.028,   466.028, 0.015167,-0.043349,-0.996260, 0.000045,-0.000130,-0.002989,-0.020627,-0.010655, 0.026454,1, 0.003721,-0.000807,-0.000293,1,-0.169360, 0.414489, 9.796423,1,1
1778021472957,   466.037,   466.037, 0.015063,-0.044015,-0.993431, 0.000045,-0.000132,-0.002980,-0.021665,-0.016912, 0.054183,1, 0.003160, 0.000120,-0.000178,1,-0.169388, 0.414762, 9.796411,1,1
1778021472967,   466.046,   466.046, 0.015902,-0.044505,-0.993298, 0.000047,-0.000133,-0.002980,-0.013420,-0.021470, 0.055479,1, 0.002975,-0.000384, 0.000434,1,-0.169366, 0.415007, 9.796401,1,1
1778021472978,   466.055,   466.055, 0.016117,-0.044368,-0.992576, 0.000049,-0.000134,-0.002978,-0.011270,-0.019889, 0.062545,1, 0.002101,-0.000903,-0.000527,1,-0.169318, 0.415230, 9.796392,1,1
1778021472989,   466.064,   466.061, 0.016888,-0.044056,-0.993213, 0.000051,-0.000132,-0.002980,-0.009701,-0.015686, 0.056429,1, 0.001394,-0.001094,-0.000710,1,-0.169242, 0.415304, 9.796391,1,1
1778021473000,   466.073,   466.070, 0.016827,-0.043735,-0.996671, 0.000051,-0.000131,-0.002990,-0.002626,-0.019189, 0.031398,1, 0.000448, 0.000632, 0.000537,1,-0.169226, 0.415337, 9.796390,1,1
1778021473010,   466.082,   466.079, 0.016730,-0.042714,-0.996818, 0.000050,-0.000128,-0.002991,-0.002866,-0.009645, 0.024440,1, 0.000548,-0.001308, 0.000131,1,-0.169209, 0.415367, 9.796389,1,1
1778021473021,   466.091,   466.088, 0.017018,-0.043835,-0.997105, 0.000051,-0.000131,-0.002992,-0.003143,-0.012428, 0.026343,1, 0.001986, 0.000467, 0.000024,1,-0.169234, 0.415477, 9.796383,1,1
1778021473032,   466.100,   466.097, 0.017846,-0.044225,-0.995032, 0.000054,-0.000133,-0.002985, 0.003230,-0.012976, 0.032998,1, 0.001473,-0.000038, 0.000262,1,-0.169299, 0.415674, 9.796373,1,1
1778021473043,   466.181,   466.103, 0.019292,-0.044967,-0.993279, 0.000058,-0.000135,-0.002980, 0.002598,-0.014813, 0.059480,1, 0.003123, 0.000045, 0.000134,1,-0.169309, 0.415842, 9.796367,1,1
1778021473053,   466.190,   466.187, 0.018377,-0.043667,-0.992718, 0.000055,-0.000131,-0.002978, 0.014857,-0.016050, 0.055644,1, 0.000382, 0.000698,-0.000785,1,-0.168841, 0.417778, 9.796292,1,1
1778021473064,   466.199,   466.196, 0.017825,-0.043487,-0.993976, 0.000054,-0.000130,-0.002982, 0.009033,-0.006032, 0.047753,1, 0.000607,-0.000847,-0.001095,1,-0.168813, 0.417814, 9.796291,1,1
1778021473075,   466.205,   466.205, 0.017457,-0.042655,-0.995416, 0.000052,-0.000128,-0.002986, 0.002420,-0.000463, 0.034589,1, 0.001171,-0.001313,-0.000783,1,-0.168765, 0.417854, 9.796290,1,1
1778021473086,   466.214,   466.214, 0.016850,-0.042846,-0.995446, 0.000051,-0.000129,-0.002987,-0.003498,-0.002271, 0.034294,1, 0.001122, 0.000000,-0.000228,1,-0.168739, 0.417916, 9.796288,1,1
1778021473096,   466.223,   466.223, 0.016497,-0.043762,-0.994259, 0.000049,-0.000131,-0.002983,-0.007010,-0.011048, 0.045926,1, 0.003512,-0.001160,-0.000601,1,-0.168776, 0.418147, 9.796277,1,1
1778021473107,   466.232,   466.232, 0.015977,-0.044253,-0.995051, 0.000048,-0.000133,-0.002986,-0.012015,-0.015562, 0.038145,1, 0.003213,-0.000951,-0.001058,1,-0.168690, 0.418445, 9.796267,1,1
1778021473118,   466.241,   466.238, 0.015317,-0.045559,-0.994914, 0.000046,-0.000136,-0.002985,-0.015168,-0.026834, 0.030841,1, 0.003770,-0.000231,-0.000400,1,-0.168641, 0.418667, 9.796258,1,1
1778021473129,   466.250,   466.247, 0.015486,-0.044911,-0.994601, 0.000046,-0.000135,-0.002984,-0.016563,-0.022797, 0.042164,1, 0.002621, 0.000353, 0.000056,1,-0.168659, 0.418966, 9.796245,1,1
1778021473140,   466.259,   466.256, 0.015584,-0.044934,-0.994335, 0.000046,-0.000135,-0.002983,-0.017580,-0.020525, 0.046423,1, 0.000937,-0.000761, 0.000884,1,-0.168683, 0.419050, 9.796241,1,1
1778021473150,   466.268,   466.265, 0.015219,-0.044112,-0.994093, 0.000045,-0.000132,-0.002983,-0.018215,-0.015425, 0.055898,1,-0.000257, 0.001174,-0.000492,1,-0.168764, 0.419033, 9.796240,1,1
1778021473161,   466.277,   466.274, 0.015391,-0.043424,-0.994871, 0.000046,-0.000130,-0.002985,-0.017629,-0.009588, 0.039458,1, 0.000810,-0.000502,-0.000030,1,-0.168745, 0.419076, 9.796238,1,1
1778021473172,   466.283,   466.283, 0.015364,-0.043158,-0.995573, 0.000046,-0.000130,-0.002987,-0.018109,-0.004043, 0.032992,1, 0.002139, 0.001163,-0.000186,1,-0.168788, 0.419212, 9.796232,1,1
1778021473183,   466.292,   466.292, 0.014566,-0.043769,-0.994718, 0.000043,-0.000131,-0.002984,-0.025929,-0.009831, 0.041371,1, 0.002887,-0.000610,-0.000634,1,-0.168769, 0.419423, 9.796223,1,1
1778021473193,   466.301,   466.301, 0.015150,-0.044396,-0.994249, 0.000045,-0.000133,-0.002983,-0.020194,-0.015737, 0.045964,1, 0.002198, 0.000788, 0.000097,1,-0.168769, 0.419655, 9.796213,1,1
1778021473204,   466.310,   466.307, 0.016704,-0.044528,-0.995429, 0.000050,-0.000134,-0.002986,-0.005172,-0.012517, 0.041875,1, 0.001654,-0.000624,-0.000190,1,-0.168751, 0.419749, 9.796209,1,1
1778021473215,   466.319,   466.316, 0.015767,-0.044128,-0.996382, 0.000048,-0.000132,-0.002989,-0.005657,-0.018990, 0.029829,1, 0.000425, 0.000034, 0.000198,1,-0.168793, 0.419824, 9.796206,1,1
1778021473226,   466.328,   466.325, 0.016948,-0.044215,-0.995194, 0.000051,-0.000132,-0.002985,-0.003780,-0.007522, 0.039764,1, 0.000329, 0.000094,-0.000528,1,-0.168794, 0.419930, 9.796201,1,1
1778021473236,   466.337,   466.334, 0.017325,-0.044692,-0.994630, 0.000052,-0.000134,-0.002984,-0.001959,-0.014968, 0.048551,1, 0.000593, 0.000024, 0.000070,1,-0.168782, 0.420023, 9.796197,1,1
1778021473247,   466.346,   466.343, 0.016968,-0.044182,-0.993300, 0.000051,-0.000132,-0.002980,-0.002051,-0.014773, 0.052710,1, 0.002217,-0.000280, 0.000125,1,-0.168793, 0.420733, 9.796166,1,1
1778021473258,   466.352,   466.352, 0.017625,-0.045281,-0.993497, 0.000053,-0.000136,-0.002980, 0.004070,-0.023075, 0.053275,1, 0.002112, 0.000193,-0.000161,1,-0.168773, 0.421002, 9.796155,1,1
1778021473269,   466.361,   466.361, 0.017432,-0.045309,-0.994742, 0.000052,-0.000135,-0.002984, 0.002171,-0.023113, 0.041063,1, 0.001646,-0.000116,-0.000034,1,-0.168775, 0.421228, 9.796145,1,1
1778021473279,   466.370,   466.370, 0.018637,-0.044683,-0.994598, 0.000056,-0.000134,-0.002984, 0.014039,-0.016897, 0.042466,1,-0.000113,-0.000181,-0.000032,1,-0.168729, 0.421290, 9.796144,1,1
1778021473290,   466.379,   466.379, 0.018035,-0.044429,-0.995609, 0.000054,-0.000133,-0.002986, 0.008141,-0.014388, 0.032552,1, 0.000916,-0.000027, 0.000292,1,-0.168725, 0.421316, 9.796143,1,1
1778021473301,   466.388,   466.385, 0.018615,-0.044229,-0.995493, 0.000056,-0.000133,-0.002987, 0.019672,-0.003944, 0.031998,1, 0.000405, 0.000961, 0.000117,1,-0.168759, 0.421311, 9.796143,1,1
1778021473312,   466.397,   466.394, 0.018484,-0.044495,-0.994021, 0.000056,-0.000134,-0.002982, 0.010233,-0.013586, 0.044290,1, 0.001478,-0.001095,-0.000282,1,-0.168723, 0.421402, 9.796139,1,1
1778021473322,   466.406,   466.403, 0.018891,-0.044091,-0.994304, 0.000056,-0.000132,-0.002983, 0.010751,-0.015212, 0.045962,1, 0.002354, 0.001103, 0.000866,1,-0.168754, 0.421545, 9.796132,1,1
1778021473333,   466.415,   466.412, 0.018898,-0.044659,-0.994578, 0.000057,-0.000134,-0.002983, 0.017469,-0.019911, 0.037432,1, 0.001442,-0.000826, 0.000197,1,-0.168768, 0.421661, 9.796127,1,1
1778021473344,   466.424,   466.421, 0.019201,-0.045410,-0.994676, 0.000058,-0.000136,-0.002984, 0.016085,-0.022210, 0.041730,1, 0.002367, 0.000632,-0.000065,1,-0.168769, 0.421871, 9.796118,1,1
1778021473355,   466.430,   466.430, 0.018796,-0.044133,-0.994162, 0.000056,-0.000133,-0.002983, 0.015564,-0.010822, 0.046710,1, 0.001249,-0.001014,-0.000640,1,-0.168754, 0.421990, 9.796113,1,1
1778021473366,   466.490,   466.490, 0.018329,-0.044212,-0.995395, 0.000054,-0.000133,-0.002985, 0.011135,-0.010292, 0.034566,1, 0.002992, 0.000438, 0.000179,1,-0.168612, 0.423305, 9.796059,1,1
1778021473376,   466.499,   466.499, 0.018400,-0.044404,-0.995156, 0.000056,-0.000134,-0.002985, 0.011831,-0.011997, 0.036909,1, 0.002721, 0.000023,-0.000612,1,-0.168616, 0.423480, 9.796051,1,1
1778021473387,   466.508,   466.505, 0.017334,-0.044164,-0.993258, 0.000052,-0.000132,-0.002980,-0.000026,-0.010118, 0.039268,1, 0.002784,-0.000192, 0.000566,1,-0.168584, 0.423673, 9.796043,1,1
1778021473398,   466.517,   466.514, 0.017086,-0.045169,-0.992856, 0.000052,-0.000136,-0.002979,-0.000413,-0.013341, 0.059414,1, 0.002564,-0.000465,-0.000287,1,-0.168534, 0.423919, 9.796034,1,1
1778021473409,   466.526,   466.520, 0.016121,-0.045467,-0.993707, 0.000048,-0.000137,-0.002981,-0.002838,-0.016873, 0.062686,1, 0.003223,-0.000112,-0.000850,1,-0.168538, 0.424103, 9.796025,1,1
1778021473419,   466.535,   466.532, 0.014993,-0.045034,-0.994729, 0.000045,-0.000135,-0.002984,-0.012324,-0.016527, 0.047443,1, 0.002251, 0.000545,-0.000150,1,-0.168552, 0.424431, 9.796011,1,1
1778021473430,   466.544,   466.541, 0.015360,-0.045387,-0.996214, 0.000046,-0.000136,-0.002988,-0.012780,-0.022852, 0.029831,1, 0.003157,-0.000088,-0.000416,1,-0.168838, 0.425207, 9.795973,1,1
1778021473441,   466.550,   466.550, 0.015992,-0.045803,-0.997175, 0.000048,-0.000137,-0.002991,-0.012013,-0.023861, 0.017024,1, 0.001033, 0.000837, 0.000179,1,-0.168847, 0.425324, 9.795967,1,1
1778021473452,   466.559,   466.559, 0.015280,-0.044924,-0.995818, 0.000046,-0.000134,-0.002988,-0.019012,-0.015124, 0.030320,1, 0.001224, 0.000775, 0.000599,1,-0.168868, 0.425443, 9.795961,1,1
1778021473462,   466.568,   466.565, 0.015386,-0.044322,-0.995114, 0.000046,-0.000133,-0.002985,-0.023347,-0.010361, 0.036004,1, 0.001321, 0.001022, 0.000036,1,-0.168943, 0.425506, 9.795958,1,1
1778021473473,   466.577,   466.577, 0.014902,-0.043431,-0.994887, 0.000045,-0.000130,-0.002985,-0.022800,-0.000192, 0.039443,1, 0.001840,-0.000582,-0.000718,1,-0.168932, 0.425735, 9.795948,1,1
1778021473484,   466.586,   466.583, 0.015393,-0.044116,-0.994616, 0.000046,-0.000133,-0.002984,-0.012875,-0.012522, 0.046687,1, 0.001165,-0.000168,-0.000495,1,-0.168930, 0.425790, 9.795945,1,1
1778021473495,   466.595,   466.592, 0.015106,-0.044490,-0.993485, 0.000045,-0.000133,-0.002980,-0.015918,-0.015390, 0.057842,1, 0.002332,-0.000600, 0.000066,1,-0.168942, 0.425957, 9.795938,1,1
1778021473505,   466.604,   466.601, 0.016202,-0.044999,-0.993330, 0.000049,-0.000134,-0.002979,-0.011171,-0.016265, 0.057792,1, 0.002382,-0.000322, 0.000280,1,-0.168888, 0.426153, 9.795931,1,1
1778021473516,   466.613,   466.610, 0.016556,-0.045414,-0.995251, 0.000050,-0.000136,-0.002986,-0.009016,-0.012331, 0.040694,1, 0.000695,-0.000739, 0.000118,1,-0.168835, 0.426322, 9.795924,1,1
1778021473527,   466.622,   466.619, 0.015763,-0.044839,-0.996943, 0.000047,-0.000135,-0.002991,-0.011048,-0.014658, 0.039736,1, 0.001256, 0.000326, 0.000291,1,-0.168859, 0.426451, 9.795918,1,1
1778021473538,   466.628,   466.628, 0.016606,-0.044631,-0.996042, 0.000050,-0.000134,-0.002988,-0.006053,-0.011170, 0.028081,1, 0.000817, 0.000958, 0.000123,1,-0.168914, 0.426516, 9.795915,1,1
1778021473548,   466.637,   466.637, 0.016442,-0.044980,-0.994946, 0.000049,-0.000135,-0.002985,-0.007676,-0.014442, 0.038821,1, 0.002595,-0.000178, 0.000102,1,-0.168913, 0.426690, 9.795907,1,1
1778021473559,   466.646,   466.646, 0.016673,-0.045523,-0.993658, 0.000050,-0.000137,-0.002980,-0.005383,-0.019642, 0.051449,1, 0.001125,-0.000294, 0.000484,1,-0.168886, 0.426797, 9.795902,1,1
1778021473570,   466.655,   466.652, 0.016720,-0.045453,-0.992434, 0.000050,-0.000136,-0.002978,-0.006824,-0.016074, 0.056225,1, 0.001394,-0.000060, 0.000157,1,-0.168892, 0.426888, 9.795898,1,1
1778021473581,   466.664,   466.661, 0.017042,-0.045194,-0.994114, 0.000051,-0.000136,-0.002982,-0.001375,-0.016462, 0.053113,1, 0.001017,-0.000201, 0.000726,1,-0.168921, 0.427008, 9.795893,1,1
1778021473592,   466.673,   466.670, 0.017150,-0.044676,-0.995302, 0.000052,-0.000134,-0.002986,-0.003259,-0.013956, 0.035136,1,-0.001112, 0.000021,-0.000309,1,-0.168886, 0.427007, 9.795894,1,1
1778021473602,   466.682,   466.679, 0.017747,-0.044857,-0.994426, 0.000053,-0.000135,-0.002983,-0.001050,-0.014977, 0.041142,1,-0.000485, 0.000665,-0.000234,1,-0.168970, 0.426989, 9.795893,1,1
1778021473613,   466.691,   466.688, 0.016830,-0.045157,-0.995119, 0.000051,-0.000135,-0.002986, 0.003698,-0.012605, 0.033986,1,-0.000139,-0.000644, 0.000597,1,-0.168930, 0.426931, 9.795896,1,1
1778021473624,   466.697,   466.697, 0.017788,-0.044314,-0.994645, 0.000054,-0.000133,-0.002983, 0.005480,-0.007665, 0.041762,1,-0.000810,-0.000552, 0.000456,1,-0.168956, 0.426896, 9.795897,1,1
1778021473635,   466.706,   466.706, 0.017925,-0.044936,-0.994219, 0.000053,-0.000135,-0.002983, 0.006721,-0.013676, 0.045937,1, 0.001271, 0.000689,-0.000277,1,-0.169065, 0.427007, 9.795890,1,1
1778021473645,   466.715,   466.715, 0.017551,-0.044887,-0.993893, 0.000053,-0.000135,-0.002982, 0.003071,-0.013062, 0.049121,1, 0.001665,-0.000348,-0.000221,1,-0.169039, 0.427143, 9.795885,1,1
1778021473656,   466.724,   466.724, 0.017730,-0.045589,-0.992373, 0.000053,-0.000136,-0.002977, 0.004832,-0.019836, 0.064022,1, 0.000378, 0.000431, 0.000425,1,-0.169047, 0.427246, 9.795880,1,1
1778021473667,   466.802,   466.802, 0.018613,-0.046295,-0.994895, 0.000056,-0.000139,-0.002985, 0.013803,-0.025892, 0.039256,1, 0.000738,-0.000913,-0.000571,1,-0.168721, 0.428117, 9.795848,1,1
1778021473678,   466.811,   466.811, 0.018266,-0.045819,-0.995863, 0.000055,-0.000138,-0.002988, 0.010404,-0.021188, 0.029763,1,-0.000013,-0.000227, 0.000466,1,-0.168719, 0.428142, 9.795847,1,1
1778021473688,   466.820,   466.820, 0.018000,-0.046106,-0.994494, 0.000054,-0.000138,-0.002983, 0.007810,-0.024036, 0.043191,1, 0.000521,-0.000753, 0.000108,1,-0.168704, 0.428110, 9.795848,1,1
1778021473699,   466.829,   466.826, 0.018224,-0.045850,-0.994842, 0.000055,-0.000138,-0.002985, 0.012402,-0.017200, 0.034592,1, 0.000432,-0.000584,-0.000560,1,-0.168712, 0.428131, 9.795847,1,1
1778021473710,   466.838,   466.835, 0.018122,-0.045012,-0.993244, 0.000054,-0.000135,-0.002980, 0.010659,-0.016018, 0.048894,1,-0.000133, 0.000786,-0.000977,1,-0.168746, 0.428129, 9.795847,1,1
1778021473721,   466.847,   466.844, 0.018322,-0.044827,-0.993869, 0.000055,-0.000135,-0.002982, 0.012094,-0.013595, 0.050879,1,-0.000556,-0.001041,-0.000495,1,-0.168756, 0.428076, 9.795849,1,1
1778021473731,   466.856,   466.853, 0.018018,-0.043967,-0.994462, 0.000054,-0.000132,-0.002984, 0.010407,-0.009764, 0.043870,1, 0.000860,-0.000789,-0.000545,1,-0.168789, 0.428072, 9.795849,1,1
1778021473742,   466.865,   466.862, 0.018249,-0.044409,-0.994748, 0.000055,-0.000134,-0.002985, 0.010197,-0.006001, 0.039650,1,-0.000113,-0.000663, 0.000191,1,-0.168752, 0.428001, 9.795853,1,1
1778021473753,   466.871,   466.871, 0.018022,-0.044085,-0.995712, 0.000054,-0.000133,-0.002987, 0.007990,-0.004326, 0.031257,1, 0.000428,-0.000631,-0.000381,1,-0.168743, 0.428006, 9.795853,1,1
1778021473764,   466.880,   466.880, 0.017688,-0.044683,-0.995533, 0.000053,-0.000134,-0.002986, 0.004723,-0.010165, 0.033011,1, 0.000215, 0.000271, 0.000173,1,-0.168737, 0.428026, 9.795852,1,1
1778021473774,   466.889,   466.889, 0.017435,-0.044508,-0.995339, 0.000053,-0.000133,-0.002985, 0.002219,-0.008427, 0.034912,1, 0.000206, 0.000463, 0.000462,1,-0.168765, 0.428047, 9.795850,1,1
1778021473785,   466.898,   466.898, 0.017905,-0.044563,-0.995129, 0.000054,-0.000134,-0.002986, 0.006813,-0.008840, 0.036961,1, 0.001726,-0.000274, 0.000208,1,-0.168772, 0.428192, 9.795843,1,1
1778021473796,   466.907,   466.904, 0.017789,-0.044228,-0.993496, 0.000054,-0.000132,-0.002980,-0.000084,-0.010646, 0.052760,1, 0.001529,-0.001156, 0.000489,1,-0.168728, 0.428263, 9.795841,1,1
1778021473807,   466.916,   466.913, 0.017001,-0.044669,-0.994452, 0.000051,-0.000134,-0.002983, 0.002359,-0.006417, 0.045849,1, 0.001637,-0.000767, 0.000784,1,-0.168694, 0.428459, 9.795834,1,1
1778021473818,   466.925,   466.922, 0.016734,-0.045384,-0.992865, 0.000051,-0.000136,-0.002979,-0.005530,-0.011127, 0.049210,1, 0.001545, 0.000064, 0.001044,1,-0.168707, 0.428596, 9.795827,1,1
1778021473828,   466.934,   466.931, 0.016415,-0.046047,-0.993602, 0.000049,-0.000138,-0.002981,-0.007869,-0.006911, 0.049251,1, 0.000889, 0.000267, 0.000402,1,-0.168700, 0.428726, 9.795821,1,1
1778021473839,   466.940,   466.940, 0.016350,-0.045616,-0.994601, 0.000048,-0.000136,-0.002984,-0.008380,-0.018495, 0.042114,1, 0.001623,-0.000287, 0.000292,1,-0.168713, 0.428863, 9.795815,1,1
1778021473850,   466.949,   466.949, 0.016191,-0.045499,-0.995308, 0.000048,-0.000137,-0.002987,-0.010122,-0.016789, 0.035154,1, 0.000291, 0.000115, 0.001016,1,-0.168904, 0.429404, 9.795789,1,1
1778021473861,   466.958,   466.958, 0.016123,-0.044542,-0.995667, 0.000049,-0.000134,-0.002987,-0.010758,-0.007437, 0.031636,1,-0.000778,-0.000939, 0.000858,1,-0.168862, 0.429361, 9.795791,1,1
1778021473871,   466.967,   466.967, 0.016077,-0.044407,-0.995330, 0.000048,-0.000133,-0.002986,-0.011165,-0.006073, 0.034934,1, 0.000516, 0.000116, 0.000115,1,-0.168831, 0.429414, 9.795789,1,1
1778021473882,   466.976,   466.973, 0.016291,-0.043953,-0.994397, 0.000049,-0.000132,-0.002983,-0.012600,-0.001050, 0.042163,1, 0.000684,-0.000511, 0.000773,1,-0.168814, 0.429451, 9.795788,1,1
1778021473893,   466.985,   466.982, 0.016879,-0.044609,-0.994833, 0.000050,-0.000134,-0.002985,-0.001588,-0.005700, 0.042934,1, 0.002089,-0.000697,-0.000237,1,-0.168801, 0.429572, 9.795783,1,1
1778021473904,   466.994,   466.991, 0.017224,-0.044385,-0.995176, 0.000052,-0.000133,-0.002985,-0.003128,-0.006468, 0.037116,1, 0.002015, 0.000107, 0.000515,1,-0.168774, 0.429782, 9.795774,1,1
1778021473914,   467.003,   467.000, 0.017341,-0.044831,-0.994368, 0.000052,-0.000135,-0.002983, 0.002137,-0.004488, 0.040825,1, 0.002477, 0.000037, 0.000427,1,-0.168759, 0.429996, 9.795765,1,1
1778021473925,   467.012,   467.009, 0.018237,-0.044510,-0.994183, 0.000055,-0.000133,-0.002982, 0.011211,-0.013591, 0.038518,1, 0.001266,-0.000106,-0.000640,1,-0.168749, 0.430148, 9.795758,1,1
1778021473936,   467.018,   467.018, 0.017413,-0.044906,-0.994330, 0.000053,-0.000134,-0.002982, 0.002032,-0.010050, 0.044702,1, 0.001589,-0.000286, 0.000782,1,-0.168730, 0.430345, 9.795750,1,1
1778021473947,   467.027,   467.027, 0.017011,-0.044216,-0.994535, 0.000051,-0.000132,-0.002983,-0.001939,-0.003010, 0.042685,1, 0.003535, 0.000116,-0.000101,1,-0.168763, 0.430629, 9.795737,1,1
1778021473957,   467.036,   467.036, 0.017551,-0.043497,-0.994377, 0.000053,-0.000131,-0.002984, 0.003373, 0.004307, 0.044221,1, 0.002757,-0.001013, 0.000478,1,-0.168734, 0.430895, 9.795726,1,1
1778021473968,   467.045,   467.045, 0.016966,-0.044255,-0.993770, 0.000051,-0.000133,-0.002981,-0.002389,-0.002719, 0.050154,1, 0.005343, 0.000974, 0.000245,1,-0.168779, 0.431326, 9.795706,1,1
1778021473979,   467.054,   467.051, 0.015969,-0.045448,-0.993420, 0.000048,-0.000137,-0.002980,-0.009699,-0.009605, 0.050463,1, 0.005201, 0.000602, 0.000260,1,-0.168787, 0.431614, 9.795693,1,1
1778021473990,   467.114,   467.111, 0.016221,-0.045278,-0.994695, 0.000049,-0.000136,-0.002984,-0.009311,-0.012112, 0.039675,1, 0.002026,-0.000677, 0.000050,1,-0.168554, 0.433782, 9.795602,1,1
1778021474001,   467.123,   467.120, 0.017583,-0.045753,-0.994039, 0.000052,-0.000137,-0.002982,-0.000959,-0.016165, 0.045070,1, 0.002460, 0.000470, 0.001141,1,-0.168572, 0.434028, 9.795590,1,1
1778021474011,   467.132,   467.129, 0.017624,-0.045232,-0.993856, 0.000052,-0.000135,-0.002982, 0.001869,-0.014132, 0.049510,1, 0.002818, 0.000795, 0.000418,1,-0.168610, 0.434309, 9.795577,1,1
1778021474022,   467.138,   467.138, 0.016323,-0.045307,-0.994626, 0.000049,-0.000136,-0.002984,-0.008540,-0.009742, 0.041615,1, 0.003291,-0.000693, 0.000937,1,-0.168604, 0.434600, 9.795565,1,1
1778021474033,   467.147,   467.147, 0.017062,-0.045705,-0.993683, 0.000051,-0.000137,-0.002981,-0.001122,-0.012988, 0.050840,1, 0.002774,-0.000378, 0.000967,1,-0.168435, 0.435250, 9.795538,1,1
1778021474044,   467.156,   467.156, 0.017557,-0.046262,-0.993553, 0.000052,-0.000139,-0.002980, 0.003725,-0.018197, 0.052099,1, 0.003539, 0.000899, 0.000510,1,-0.168455, 0.435516, 9.795527,1,1
1778021474054,   467.165,   467.165, 0.017513,-0.045269,-0.994008, 0.000053,-0.000136,-0.002982, 0.003288,-0.008225, 0.047633,1, 0.002556,-0.000756, 0.000675,1,-0.168451, 0.435734, 9.795517,1,1
1778021474065,   467.174,   467.171, 0.017333,-0.046011,-0.996324, 0.000052,-0.000138,-0.002989, 0.002747,-0.018416, 0.034262,1, 0.002393, 0.000589, 0.000432,1,-0.168486, 0.435855, 9.795510,1,1
1778021474076,   467.183,   467.180, 0.016365,-0.046251,-0.996242, 0.000049,-0.000138,-0.002989,-0.003396,-0.014898, 0.017540,1, 0.001938, 0.000204, 0.000803,1,-0.168482, 0.436105, 9.795500,1,1
1778021474087,   467.192,   467.189, 0.017357,-0.046239,-0.995334, 0.000053,-0.000139,-0.002986, 0.007245,-0.016190, 0.029636,1, 0.002198, 0.000498, 0.000884,1,-0.168484, 0.436305, 9.795490,1,1
1778021474097,   467.201,   467.198, 0.016985,-0.046245,-0.993444, 0.000051,-0.000139,-0.002980,-0.005566,-0.021650, 0.047957,1, 0.002405, 0.000545, 0.000798,1,-0.168552, 0.436481, 9.795482,1,1
1778021474108,   467.210,   467.207, 0.017132,-0.046263,-0.993423, 0.000051,-0.000139,-0.002980,-0.007685,-0.021847, 0.052820,1, 0.002033, 0.000269, 0.000438,1,-0.168581, 0.436699, 9.795471,1,1
1778021474119,   467.216,   467.216, 0.016730,-0.046619,-0.994202, 0.000050,-0.000140,-0.002983,-0.004521,-0.020344, 0.045677,1, 0.001605, 0.001044, 0.000843,1,-0.168594, 0.436850, 9.795465,1,1
1778021474130,   467.225,   467.225, 0.017453,-0.045608,-0.993807, 0.000052,-0.000136,-0.002981, 0.002602,-0.010332, 0.049539,1, 0.001179,-0.000324, 0.001558,1,-0.168552, 0.436945, 9.795461,1,1
1778021474140,   467.234,   467.234, 0.017677,-0.045387,-0.994494, 0.000053,-0.000136,-0.002984, 0.004798,-0.008005, 0.042803,1, 0.001922, 0.000567, 0.000533,1,-0.168563, 0.437111, 9.795453,1,1
1778021474151,   467.243,   467.243, 0.017384,-0.044938,-0.995310, 0.000052,-0.000135,-0.002986, 0.001920,-0.003453, 0.034790,1, 0.001460,-0.000047,-0.000318,1,-0.168557, 0.437256, 9.795447,1,1
1778021474162,   467.252,   467.249, 0.016427,-0.045264,-0.995849, 0.000049,-0.000136,-0.002987,-0.000019,-0.003467, 0.026351,1, 0.001996, 0.000483, 0.000436,1,-0.168572, 0.437369, 9.795442,1,1
1778021474173,   467.261,   467.258, 0.017353,-0.045587,-0.994983, 0.000052,-0.000137,-0.002984,-0.003360,-0.007747, 0.030222,1, 0.002397, 0.000957, 0.000029,1,-0.168627, 0.437579, 9.795431,1,1
1778021474183,   467.270,   467.267, 0.017385,-0.047280,-0.993750, 0.000052,-0.000142,-0.002981,-0.004057,-0.019141, 0.037767,1, 0.003035,-0.000163,-0.000231,1,-0.168646, 0.437842, 9.795419,1,1
1778021474194,   467.279,   467.276, 0.017342,-0.047600,-0.992211, 0.000052,-0.000143,-0.002977, 0.001633,-0.022792, 0.060860,1, 0.004740, 0.000082, 0.000391,1,-0.168709, 0.438173, 9.795403,1,1
1778021474205,   467.285,   467.285, 0.016839,-0.047462,-0.992187, 0.000050,-0.000142,-0.002976,-0.003553,-0.027042, 0.065365,1, 0.002168,-0.001009, 0.000237,1,-0.168675, 0.438421, 9.795393,1,1
1778021474216,   467.294,   467.294, 0.017684,-0.046642,-0.993967, 0.000053,-0.000140,-0.002982, 0.004773,-0.018849, 0.047898,1, 0.002258,-0.000404,-0.000177,1,-0.168648, 0.438573, 9.795386,1,1
1778021474227,   467.303,   467.303, 0.016738,-0.046000,-0.995474, 0.000050,-0.000138,-0.002987,-0.004551,-0.012446, 0.033115,1, 0.000671, 0.001553, 0.000327,1,-0.168712, 0.438662, 9.795382,1,1
1778021474237,   467.312,   467.312, 0.016541,-0.045012,-0.995709, 0.000049,-0.000135,-0.002986,-0.006492,-0.002700, 0.030805,1, 0.000804, 0.000586, 0.000103,1,-0.168710, 0.438729, 9.795379,1,1
1778021474248,   467.321,   467.318, 0.016261,-0.045200,-0.996006, 0.000049,-0.000135,-0.002988,-0.001109,-0.003159, 0.024489,1, 0.000899, 0.000459, 0.000266,1,-0.168730, 0.438779, 9.795376,1,1
1778021474259,   467.330,   467.327, 0.016782,-0.046350,-0.995838, 0.000050,-0.000139,-0.002988,-0.005289,-0.015992, 0.032654,1, 0.002978,-0.000008, 0.000286,1,-0.168761, 0.438979, 9.795366,1,1
1778021474270,   467.339,   467.336, 0.016880,-0.047091,-0.995233, 0.000050,-0.000141,-0.002985,-0.005415,-0.022195, 0.035851,1, 0.003433,-0.000227,-0.000044,1,-0.168770, 0.439246, 9.795354,1,1
1778021474280,   467.348,   467.345, 0.017304,-0.047455,-0.992504, 0.000052,-0.000142,-0.002978, 0.002030,-0.024801, 0.051402,1, 0.002205,-0.000398,-0.000079,1,-0.168642, 0.440072, 9.795320,1,1
1778021474291,   467.429,   467.426, 0.018306,-0.046312,-0.993651, 0.000054,-0.000139,-0.002982, 0.010908,-0.013692, 0.044891,1,-0.001866, 0.000384, 0.000594,1,-0.168760, 0.440110, 9.795316,1,1
1778021474302,   467.438,   467.435, 0.018642,-0.045358,-0.993100, 0.000056,-0.000136,-0.002979, 0.008935,-0.007132, 0.050758,1,-0.001160,-0.000386, 0.000269,1,-0.168717, 0.440059, 9.795319,1,1
1778021474313,   467.447,   467.444, 0.018022,-0.045832,-0.994772, 0.000054,-0.000137,-0.002985, 0.010734,-0.015734, 0.044649,1, 0.000100,-0.000941,-0.000312,1,-0.168695, 0.439990, 9.795322,1,1
1778021474323,   467.456,   467.453, 0.017574,-0.047245,-0.994984, 0.000053,-0.000142,-0.002986, 0.015374,-0.021151, 0.040102,1,-0.000241,-0.000226, 0.000437,1,-0.168664, 0.440002, 9.795322,1,1
1778021474334,   467.462,   467.462, 0.017695,-0.047547,-0.994854, 0.000053,-0.000142,-0.002984, 0.004877,-0.026318, 0.039141,1,-0.001529,-0.000069,-0.001082,1,-0.168647, 0.439942, 9.795325,1,1
1778021474345,   467.471,   467.471, 0.018196,-0.046722,-0.995042, 0.000055,-0.000140,-0.002985, 0.009764,-0.018416, 0.037305,1,-0.002165, 0.000689, 0.000059,1,-0.168687, 0.439746, 9.795333,1,1
1778021474356,   467.480,   467.480, 0.017628,-0.047032,-0.995267, 0.000053,-0.000141,-0.002986, 0.004158,-0.021573, 0.035103,1,-0.001880, 0.000797, 0.000092,1,-0.168723, 0.439639, 9.795338,1,1
1778021474366,   467.489,   467.489, 0.018145,-0.047116,-0.994606, 0.000054,-0.000141,-0.002984, 0.009233,-0.022601, 0.041589,1,-0.001883,-0.000463,-0.000463,1,-0.168706, 0.439436, 9.795347,1,1
1778021474377,   467.498,   467.495, 0.018401,-0.046149,-0.993734, 0.000055,-0.000139,-0.002981, 0.004911,-0.013472, 0.041580,1,-0.002886,-0.001354,-0.000288,1,-0.168678, 0.439235, 9.795356,1,1
1778021474388,   467.507,   467.504, 0.018637,-0.046599,-0.994016, 0.000056,-0.000140,-0.002982, 0.005363,-0.016702, 0.050026,1,-0.003383,-0.001051,-0.000213,1,-0.168606, 0.438973, 9.795369,1,1
1778021474399,   467.516,   467.513, 0.017540,-0.046224,-0.994787, 0.000053,-0.000138,-0.002984, 0.007789,-0.018714, 0.042473,1,-0.002817, 0.000427,-0.000650,1,-0.168632, 0.438757, 9.795379,1,1
1778021474409,   467.525,   467.522, 0.018233,-0.045852,-0.995369, 0.000055,-0.000137,-0.002986, 0.004006,-0.013933, 0.042342,1,-0.002477,-0.000000,-0.000091,1,-0.168597, 0.438523, 9.795389,1,1
1778021474420,   467.534,   467.531, 0.017960,-0.046041,-0.994488, 0.000054,-0.000138,-0.002983, 0.004513,-0.015672, 0.039648,1,-0.003604,-0.001272, 0.000579,1,-0.168584, 0.438203, 9.795404,1,1
1778021474431,   467.540,   467.540, 0.018243,-0.046733,-0.994995, 0.000055,-0.000141,-0.002985, 0.010303,-0.020379, 0.037845,1,-0.003082, 0.000503, 0.000136,1,-0.168601, 0.437887, 9.795418,1,1
1778021474442,   467.549,   467.549, 0.017458,-0.046282,-0.994449, 0.000053,-0.000139,-0.002983, 0.002356,-0.015606, 0.043186,1,-0.004028,-0.001174, 0.001010,1,-0.168836, 0.438228, 9.795399,1,1
1778021474453,   467.558,   467.558, 0.017325,-0.045192,-0.995270, 0.000052,-0.000136,-0.002986, 0.001024,-0.005303, 0.035147,1,-0.004141, 0.001307,-0.000350,1,-0.168887, 0.437841, 9.795415,1,1
1778021474463,   467.567,   467.564, 0.017933,-0.045486,-0.994322, 0.000053,-0.000136,-0.002983,-0.000340,-0.005973, 0.048975,1,-0.003151,-0.000275, 0.000126,1,-0.168874, 0.437673, 9.795423,1,1
1778021474474,   467.576,   467.573, 0.017254,-0.045400,-0.993638, 0.000052,-0.000136,-0.002981, 0.003326,-0.013955, 0.050203,1,-0.003383, 0.000213, 0.000978,1,-0.168917, 0.437384, 9.795435,1,1
1778021474485,   467.585,   467.582, 0.017150,-0.046062,-0.993169, 0.000052,-0.000138,-0.002979,-0.002612,-0.009268, 0.064690,1,-0.001916,-0.000477,-0.000391,1,-0.168911, 0.437135, 9.795446,1,1
1778021474496,   467.594,   467.591, 0.016984,-0.046409,-0.994923, 0.000051,-0.000139,-0.002984,-0.002928,-0.017410, 0.049937,1,-0.001374,-0.000482,-0.001071,1,-0.168909, 0.436952, 9.795454,1,1
1778021474506,   467.603,   467.600, 0.016227,-0.046486,-0.995751, 0.000049,-0.000140,-0.002987,-0.006955,-0.013066, 0.030732,1,-0.004866, 0.000404,-0.000591,1,-0.168905, 0.436624, 9.795469,1,1
1778021474517,   467.609,   467.609, 0.016736,-0.045901,-0.994856, 0.000051,-0.000138,-0.002985,-0.004874,-0.013798, 0.039279,1,-0.003881, 0.000731, 0.000344,1,-0.169006, 0.436301, 9.795482,1,1
1778021474528,   467.618,   467.618, 0.016352,-0.045614,-0.994889, 0.000049,-0.000137,-0.002984,-0.008644,-0.011384, 0.038965,1,-0.003570, 0.000163, 0.000160,1,-0.169008, 0.435906, 9.795499,1,1
1778021474539,   467.627,   467.627, 0.016121,-0.045989,-0.994644, 0.000048,-0.000138,-0.002984,-0.010931,-0.015457, 0.041388,1,-0.004891, 0.000819,-0.000307,1,-0.169029, 0.435494, 9.795517,1,1
1778021474549,   467.636,   467.636, 0.016623,-0.045765,-0.994465, 0.000050,-0.000138,-0.002984,-0.006062,-0.013668, 0.043161,1,-0.004146, 0.000767,-0.000069,1,-0.169081, 0.435090, 9.795534,1,1
1778021474560,   467.645,   467.642, 0.016004,-0.045091,-0.994504, 0.000048,-0.000135,-0.002984,-0.013529,-0.008954, 0.039907,1,-0.004279,-0.000418,-0.000298,1,-0.169093, 0.434858, 9.795545,1,1
1778021474571,   467.654,   467.651, 0.016800,-0.045630,-0.993151, 0.000050,-0.000137,-0.002979,-0.009069,-0.012814, 0.050614,1,-0.003336,-0.000384,-0.000586,1,-0.169116, 0.434514, 9.795559,1,1
1778021474582,   467.663,   467.660, 0.016197,-0.045895,-0.993470, 0.000048,-0.000138,-0.002981,-0.007003,-0.015313, 0.048232,1,-0.004214, 0.000487, 0.000492,1,-0.169121, 0.434206, 9.795573,1,1
1778021474592,   467.672,   467.669, 0.015378,-0.045033,-0.994229, 0.000047,-0.000135,-0.002983,-0.018125,-0.009201, 0.046945,1,-0.005615, 0.000146,-0.000559,1,-0.169146, 0.433782, 9.795591,1,1
1778021474603,   467.678,   467.678, 0.015811,-0.045614,-0.994441, 0.000047,-0.000136,-0.002983,-0.014121,-0.013959, 0.043475,1,-0.004766, 0.000203, 0.000015,1,-0.169180, 0.433314, 9.795611,1,1
1778021474614,   467.735,   467.735, 0.015868,-0.045902,-0.994900, 0.000047,-0.000138,-0.002985,-0.013629,-0.019330, 0.039083,1,-0.005738,-0.001065, 0.000734,1,-0.169231, 0.430762, 9.795723,1,1
1778021474625,   467.744,   467.744, 0.016519,-0.044871,-0.995646, 0.000050,-0.000135,-0.002987,-0.006995,-0.009334, 0.031776,1,-0.006170, 0.000234, 0.000810,1,-0.168981, 0.430668, 9.795732,1,1
1778021474635,   467.753,   467.753, 0.015955,-0.044814,-0.995422, 0.000048,-0.000135,-0.002987,-0.012529,-0.009228, 0.033992,1,-0.005946, 0.000438,-0.000175,1,-0.168997, 0.430191, 9.795753,1,1
1778021474646,   467.762,   467.759, 0.016910,-0.044442,-0.995022, 0.000051,-0.000133,-0.002985,-0.010026,-0.007067, 0.042637,1,-0.006217,-0.000165, 0.000612,1,-0.169010, 0.429821, 9.795768,1,1
1778021474657,   467.771,   467.768, 0.015814,-0.044204,-0.993890, 0.000047,-0.000133,-0.002982,-0.014585,-0.005792, 0.039410,1,-0.005878, 0.000573, 0.000385,1,-0.169015, 0.429262, 9.795793,1,1
1778021474668,   467.780,   467.777, 0.016515,-0.044344,-0.994757, 0.000049,-0.000134,-0.002984,-0.003188,-0.006810, 0.045326,1,-0.006512,-0.000154,-0.000582,1,-0.169058, 0.428683, 9.795817,1,1
1778021474679,   467.789,   467.786, 0.016474,-0.044389,-0.993938, 0.000049,-0.000133,-0.002982,-0.002510,-0.007696, 0.050878,1,-0.006545, 0.000242,-0.000378,1,-0.169127, 0.428159, 9.795839,1,1
1778021474689,   467.798,   467.795, 0.016894,-0.044811,-0.992209, 0.000051,-0.000135,-0.002977,-0.004941,-0.010412, 0.063262,1,-0.005471,-0.000328,-0.000090,1,-0.169139, 0.427648, 9.795861,1,1
1778021474700,   467.804,   467.804, 0.017447,-0.044762,-0.992902, 0.000052,-0.000134,-0.002980, 0.001955,-0.011738, 0.058835,1,-0.004272,-0.000714,-0.000335,1,-0.169135, 0.427191, 9.795881,1,1
1778021474711,   467.813,   467.813, 0.016758,-0.045448,-0.994630, 0.000050,-0.000136,-0.002983,-0.004828,-0.018911, 0.041908,1,-0.005110, 0.000575, 0.000895,1,-0.169168, 0.426733, 9.795900,1,1
1778021474722,   467.822,   467.822, 0.016966,-0.044251,-0.996682, 0.000051,-0.000132,-0.002990,-0.002837,-0.007651, 0.021803,1,-0.005917, 0.001364,-0.000384,1,-0.169229, 0.426245, 9.795920,1,1
1778021474732,   467.831,   467.831, 0.017597,-0.044170,-0.995307, 0.000053,-0.000133,-0.002986, 0.003274,-0.007390, 0.035315,1,-0.005766, 0.001031,-0.000451,1,-0.169300, 0.425718, 9.795942,1,1
1778021474743,   467.840,   467.837, 0.016549,-0.044036,-0.994855, 0.000049,-0.000132,-0.002984,-0.004743,-0.013983, 0.044145,1,-0.006808,-0.000460,-0.000083,1,-0.169281, 0.425365, 9.795958,1,1
1778021474754,   467.849,   467.846, 0.017301,-0.044342,-0.995851, 0.000052,-0.000133,-0.002988, 0.000946,-0.009242, 0.031279,1,-0.005339, 0.001672,-0.000760,1,-0.169335, 0.424882, 9.795978,1,1
1778021474765,   467.858,   467.855, 0.016456,-0.044803,-0.995030, 0.000049,-0.000134,-0.002985,-0.007182,-0.007858, 0.032547,1,-0.004789, 0.000595, 0.000086,1,-0.169389, 0.424462, 9.795996,1,1
1778021474775,   467.867,   467.864, 0.017104,-0.044739,-0.992947, 0.000051,-0.000134,-0.002979,-0.002137,-0.013658, 0.047973,1,-0.005272, 0.000144,-0.000084,1,-0.169412, 0.424017, 9.796014,1,1
1778021474786,   467.876,   467.873, 0.016933,-0.044001,-0.991795, 0.000051,-0.000131,-0.002975,-0.000748,-0.005766, 0.068127,1,-0.004818, 0.000669, 0.000520,1,-0.169505, 0.423616, 9.796030,1,1
1778021474797,   467.882,   467.882, 0.016886,-0.043786,-0.993112, 0.000050,-0.000131,-0.002979,-0.003929,-0.006144, 0.056942,1,-0.005116, 0.000621,-0.001134,1,-0.169534, 0.423207, 9.796047,1,1
1778021474808,   467.891,   467.891, 0.017051,-0.043367,-0.996741, 0.000051,-0.000131,-0.002990,-0.002310,-0.002477, 0.021371,1,-0.004921,-0.000923, 0.001087,1,-0.169514, 0.422761, 9.796066,1,1
1778021474818,   467.900,   467.900, 0.017270,-0.043537,-0.996733, 0.000052,-0.000131,-0.002990,-0.000206,-0.004542, 0.021466,1,-0.002762,-0.000468, 0.000116,1,-0.169560, 0.422388, 9.796082,1,1
1778021474829,   467.909,   467.906, 0.016501,-0.044178,-0.994964, 0.000050,-0.000133,-0.002985,-0.004671,-0.008643, 0.031813,1,-0.003192, 0.000520, 0.000594,1,-0.169598, 0.422212, 9.796089,1,1
1778021474840,   467.918,   467.915, 0.017370,-0.044189,-0.993462, 0.000052,-0.000133,-0.002980,-0.003328,-0.005675, 0.047639,1,-0.002591,-0.000050, 0.000105,1,-0.169616, 0.421949, 9.796100,1,1
1778021474851,   467.927,   467.924, 0.017330,-0.043347,-0.993476, 0.000052,-0.000130,-0.002980, 0.001324,-0.007252, 0.065255,1,-0.002770,-0.000041, 0.000936,1,-0.169628, 0.421727, 9.796109,1,1
1778021474861,   467.936,   467.933, 0.016979,-0.043214,-0.995267, 0.000050,-0.000130,-0.002985,-0.003522,-0.008722, 0.033556,1,-0.002314, 0.001321,-0.000451,1,-0.169653, 0.421541, 9.796117,1,1
1778021474872,   467.945,   467.942, 0.017062,-0.043209,-0.993880, 0.000051,-0.000129,-0.002981, 0.002009,-0.008336, 0.050492,1,-0.002451,-0.000207, 0.000124,1,-0.169518, 0.421681, 9.796113,1,1
1778021474883,   467.951,   467.951, 0.017184,-0.043215,-0.993678, 0.000052,-0.000130,-0.002981,-0.000984,-0.002264, 0.051463,1,-0.000856,-0.001285,-0.001170,1,-0.169490, 0.421524, 9.796121,1,1
1778021474894,   467.960,   467.960, 0.017908,-0.043394,-0.994728, 0.000054,-0.000131,-0.002985, 0.006090,-0.004107, 0.041173,1,-0.001193,-0.000556,-0.000011,1,-0.169525, 0.421436, 9.796124,1,1
1778021474905,   467.969,   467.969, 0.017386,-0.042863,-0.996010, 0.000052,-0.000129,-0.002988, 0.001033, 0.001022, 0.028608,1,-0.000490, 0.000555,-0.000382,1,-0.169475, 0.421359, 9.796127,1,1
1778021474915,   468.050,   468.050, 0.016311,-0.043653,-0.995280, 0.000049,-0.000131,-0.002986,-0.009710,-0.006943, 0.035771,1, 0.000756, 0.000184, 0.000282,1,-0.169664, 0.421157, 9.796133,1,1
1778021474926,   468.059,   468.059, 0.016444,-0.044049,-0.993370, 0.000049,-0.000132,-0.002980,-0.008460,-0.010794, 0.054500,1, 0.000088, 0.000880,-0.000754,1,-0.169730, 0.421183, 9.796131,1,1
1778021474937,   468.068,   468.068, 0.016137,-0.043904,-0.994583, 0.000049,-0.000132,-0.002984,-0.011509,-0.009317, 0.042605,1, 0.000019,-0.000280,-0.000145,1,-0.169755, 0.421234, 9.796128,1,1
1778021474948,   468.077,   468.077, 0.016408,-0.043859,-0.994124, 0.000049,-0.000131,-0.002981,-0.008888,-0.008965, 0.047107,1,-0.000944, 0.000276,-0.000417,1,-0.169799, 0.421140, 9.796131,1,1
1778021474958,   468.086,   468.083, 0.016452,-0.043826,-0.994576, 0.000049,-0.000132,-0.002983,-0.011199,-0.007811, 0.044444,1,-0.001028,-0.000485,-0.000157,1,-0.169787, 0.421087, 9.796134,1,1
1778021474969,   468.095,   468.092, 0.016177,-0.044822,-0.993989, 0.000049,-0.000135,-0.002982,-0.009586,-0.014825, 0.049115,1,-0.000106, 0.000605,-0.000453,1,-0.169805, 0.421045, 9.796136,1,1
1778021474980,   468.104,   468.101, 0.016919,-0.044471,-0.994907, 0.000051,-0.000133,-0.002985,-0.008315,-0.020162, 0.041434,1,-0.001245, 0.000313, 0.000276,1,-0.169883, 0.420941, 9.796139,1,1
1778021474991,   468.113,   468.110, 0.017048,-0.043975,-0.995828, 0.000051,-0.000132,-0.002987,-0.006670,-0.015108, 0.033490,1, 0.000353, 0.000239, 0.000238,1,-0.169912, 0.420871, 9.796142,1,1
1778021475001,   468.122,   468.119, 0.016279,-0.044283,-0.994102, 0.000049,-0.000133,-0.002983,-0.006652,-0.015366, 0.031775,1,-0.000968, 0.000451,-0.000208,1,-0.169910, 0.420774, 9.796145,1,1
1778021475012,   468.128,   468.128, 0.017663,-0.044335,-0.993191, 0.000053,-0.000133,-0.002980, 0.003325,-0.014152, 0.056277,1,-0.002585,-0.000427, 0.000888,1,-0.169887, 0.420603, 9.796153,1,1
1778021475023,   468.137,   468.137, 0.016868,-0.043898,-0.994295, 0.000050,-0.000131,-0.002983,-0.004455,-0.009996, 0.045459,1,-0.001313, 0.001027, 0.000958,1,-0.169881, 0.420487, 9.796158,1,1
1778021475034,   468.143,   468.146, 0.018033,-0.044025,-0.993913, 0.000054,-0.000132,-0.002981, 0.006148,-0.008617, 0.042010,1,-0.000662, 0.000246, 0.001078,1,-0.169771, 0.420836, 9.796145,1,1
1778021475044,   468.155,   468.155, 0.018289,-0.043501,-0.994732, 0.000055,-0.000130,-0.002984, 0.009627,-0.005852, 0.041165,1,-0.002424,-0.001144,-0.000385,1,-0.169713, 0.420729, 9.796151,1,1
1778021475055,   468.164,   468.161, 0.018318,-0.043627,-0.995006, 0.000055,-0.000130,-0.002985, 0.004642,-0.008844, 0.044122,1,-0.000085,-0.000785, 0.000071,1,-0.169667, 0.420696, 9.796153,1,1
1778021475066,   468.173,   468.170, 0.018086,-0.043885,-0.994765, 0.000055,-0.000132,-0.002984, 0.006856,-0.014637, 0.034659,1,-0.000103,-0.000100,-0.000045,1,-0.169674, 0.420743, 9.796151,1,1
1778021475077,   468.182,   468.179, 0.017814,-0.044126,-0.995336, 0.000054,-0.000132,-0.002987, 0.018592,-0.014294, 0.033971,1,-0.001022, 0.000118,-0.000675,1,-0.169641, 0.420764, 9.796150,1,1
1778021475087,   468.191,   468.188, 0.018043,-0.045205,-0.995114, 0.000055,-0.000135,-0.002985, 0.003379,-0.010517, 0.041977,1,-0.000300, 0.000272, 0.000192,1,-0.169650, 0.420734, 9.796151,1,1
1778021475098,   468.197,   468.197, 0.017974,-0.044842,-0.995036, 0.000054,-0.000135,-0.002985, 0.006619,-0.019032, 0.038179,1, 0.000527,-0.001184, 0.000086,1,-0.169636, 0.420727, 9.796152,1,1
1778021475109,   468.206,   468.206, 0.018841,-0.045191,-0.994927, 0.000057,-0.000136,-0.002984, 0.015096,-0.022512, 0.039254,1,-0.001669, 0.000141,-0.000072,1,-0.169668, 0.420649, 9.796155,1,1
1778021475120,   468.215,   468.215, 0.018638,-0.044997,-0.993946, 0.000056,-0.000135,-0.002982, 0.013086,-0.020738, 0.048883,1,-0.001996,-0.000703,-0.000170,1,-0.169680, 0.420510, 9.796161,1,1
1778021475131,   468.224,   468.224, 0.018576,-0.045330,-0.994892, 0.000056,-0.000135,-0.002984, 0.012443,-0.024189, 0.039610,1,-0.002977, 0.000600,-0.000044,1,-0.169735, 0.420321, 9.796167,1,1
1778021475141,   468.233,   468.230, 0.018934,-0.044490,-0.993975, 0.000057,-0.000134,-0.002982, 0.018903,-0.026327, 0.039914,1,-0.002526, 0.001073, 0.000676,1,-0.169771, 0.420191, 9.796173,1,1
1778021475152,   468.242,   468.239, 0.018713,-0.044598,-0.993905, 0.000057,-0.000134,-0.002982, 0.010040,-0.012650, 0.051064,1,-0.001210,-0.000024,-0.000053,1,-0.169805, 0.419993, 9.796181,1,1
1778021475163,   468.251,   468.248, 0.018942,-0.043465,-0.995860, 0.000057,-0.000130,-0.002987, 0.014727,-0.002316, 0.041530,1,-0.001736, 0.000041,-0.000256,1,-0.169817, 0.419864, 9.796186,1,1
1778021475174,   468.260,   468.257, 0.018320,-0.042816,-0.995107, 0.000055,-0.000128,-0.002986, 0.015548, 0.003098, 0.028152,1,-0.000960, 0.000241,-0.000051,1,-0.169824, 0.419773, 9.796189,1,1
1778021475184,   468.269,   468.266, 0.018969,-0.042836,-0.995404, 0.000056,-0.000128,-0.002986, 0.015438,-0.003666, 0.032400,1,-0.001259, 0.000485,-0.000600,1,-0.169869, 0.419703, 9.796192,1,1
1778021475195,   468.275,   468.275, 0.018060,-0.042879,-0.994570, 0.000053,-0.000128,-0.002984, 0.007197,-0.000807, 0.042793,1, 0.000186, 0.001589, 0.000124,1,-0.169924, 0.419694, 9.796191,1,1
1778021475206,   468.284,   468.284, 0.018257,-0.044011,-0.994420, 0.000055,-0.000132,-0.002983, 0.009118,-0.011895, 0.044266,1, 0.000491, 0.000780,-0.000426,1,-0.169931, 0.419709, 9.796190,1,1
1778021475217,   468.293,   468.293, 0.016970,-0.045306,-0.994714, 0.000051,-0.000136,-0.002984,-0.003523,-0.024582, 0.041374,1, 0.000622, 0.000415, 0.000007,1,-0.169941, 0.419726, 9.796189,1,1
1778021475227,   468.353,   468.299, 0.016739,-0.043710,-0.995601, 0.000050,-0.000131,-0.002988, 0.000164,-0.022604, 0.050839,1, 0.000350,-0.000627, 0.000200,1,-0.169942, 0.419767, 9.796188,1,1
1778021475238,   468.362,   468.359, 0.016390,-0.043996,-0.994680, 0.000049,-0.000132,-0.002984,-0.010048,-0.005515, 0.031950,1,-0.001207,-0.000553,-0.000258,1,-0.170246, 0.419124, 9.796210,1,1
1778021475249,   468.371,   468.368, 0.016416,-0.043790,-0.993496, 0.000050,-0.000131,-0.002981,-0.015984,-0.010134, 0.054083,1,-0.002240, 0.000592,-0.000806,1,-0.170298, 0.418973, 9.796216,1,1
1778021475260,   468.380,   468.377, 0.015807,-0.044394,-0.994928, 0.000048,-0.000133,-0.002985,-0.012875,-0.018910, 0.048178,1,-0.003118, 0.000177,-0.000429,1,-0.170310, 0.418726, 9.796227,1,1
1778021475270,   468.389,   468.386, 0.016328,-0.044602,-0.995612, 0.000049,-0.000133,-0.002986,-0.015644,-0.014740, 0.032610,1,-0.002929,-0.000210,-0.000358,1,-0.170309, 0.418504, 9.796236,1,1
1778021475281,   468.395,   468.395, 0.015309,-0.044548,-0.995062, 0.000046,-0.000133,-0.002985,-0.020110,-0.018618, 0.038026,1,-0.003159,-0.000292,-0.000162,1,-0.170235, 0.418216, 9.796249,1,1
1778021475292,   468.404,   468.404, 0.016005,-0.043743,-0.994413, 0.000048,-0.000131,-0.002983,-0.013293,-0.011017, 0.044396,1,-0.003796, 0.000237, 0.000513,1,-0.170249, 0.417922, 9.796262,1,1
1778021475303,   468.413,   468.413, 0.016671,-0.043077,-0.993991, 0.000050,-0.000129,-0.002983,-0.006700,-0.004826, 0.048548,1,-0.002842,-0.000331, 0.000245,1,-0.170183, 0.417587, 9.796277,1,1
1778021475313,   468.422,   468.422, 0.015419,-0.043648,-0.995209, 0.000046,-0.000131,-0.002986,-0.019019,-0.010698, 0.036616,1,-0.003206, 0.001081,-0.000138,1,-0.170239, 0.417313, 9.796288,1,1
1778021475324,   468.431,   468.428, 0.016357,-0.045010,-0.996177, 0.000049,-0.000135,-0.002988,-0.019443,-0.019617, 0.042705,1,-0.003227, 0.000991,-0.000979,1,-0.170298, 0.417121, 9.796295,1,1
1778021475335,   468.440,   468.437, 0.015827,-0.044212,-0.993742, 0.000048,-0.000133,-0.002981,-0.013083,-0.014038, 0.043609,1,-0.004792,-0.000438,-0.000263,1,-0.170293, 0.416814, 9.796308,1,1
1778021475346,   468.449,   468.446, 0.016156,-0.044923,-0.993779, 0.000048,-0.000134,-0.002982,-0.014721,-0.019261, 0.048612,1,-0.004493,-0.000206,-0.000143,1,-0.170329, 0.416429, 9.796324,1,1
1778021475357,   468.458,   468.455, 0.016975,-0.044654,-0.995078, 0.000051,-0.000134,-0.002985,-0.014360,-0.020772, 0.046302,1,-0.005870, 0.001414,-0.000519,1,-0.170392, 0.415991, 9.796341,1,1
1778021475367,   468.467,   468.464, 0.016420,-0.044239,-0.994944, 0.000049,-0.000133,-0.002986,-0.009550,-0.018367, 0.038715,1,-0.004418, 0.000554,-0.000705,1,-0.170399, 0.415542, 9.796360,1,1
1778021475378,   468.473,   468.473, 0.016583,-0.043674,-0.994386, 0.000050,-0.000130,-0.002984,-0.007769,-0.013143, 0.044783,1,-0.005714, 0.000185,-0.000937,1,-0.170390, 0.415095, 9.796379,1,1
1778021475389,   468.482,   468.482, 0.016761,-0.043599,-0.995760, 0.000050,-0.000131,-0.002987,-0.006019,-0.012890, 0.031330,1,-0.004898, 0.000985,-0.000726,1,-0.170396, 0.414628, 9.796399,1,1
