Time,GPS_ts,fGPS_ts,scaledAccelX,scaledAccelY,scaledAccelZ,deltaVelX,deltaVelY,deltaVelZ,estLinearAccelX,estLinearAccelY,estLinearAccelZ,estLinearAccel:valid,estAngularRateX,estAngularRateY,estAngularRateZ,estAngularRate:valid,estGravityX,estGravityY,estGravityZ,estGravity:valid,flag
1778777001889,  1676.959,  1676.959, 0.002220, 0.094875,-0.973972, 0.000008, 0.000960,-0.009718,-0.077016, 0.029567, 0.213281,1, 0.000691, 0.000830, 0.001131,1,-0.098816,-0.900812, 9.764689,1,0
1778777001889,  1676.984,  1676.979, 0.013775, 0.092266,-0.999405, 0.000159, 0.000911,-0.010028, 0.125672,-0.070610,-0.129241,1, 0.003639,-0.004243,-0.000273,1,-0.097901,-0.899494, 9.764820,1,0
1778777001889,  1677.009,  1677.009,-0.002591, 0.094663,-0.975788,-0.000037, 0.000961,-0.009730,-0.123907, 0.026876, 0.195426,1, 0.001052,-0.001457, 0.000618,1,-0.098231,-0.901510, 9.764630,1,0
1778777001889,  1677.034,  1677.029, 0.015841, 0.092147,-1.002334, 0.000185, 0.000913,-0.010068, 0.116706,-0.077728,-0.197168,1, 0.003873,-0.004016,-0.000248,1,-0.096931,-0.900034, 9.764780,1,0
1778777001889,  1677.059,  1677.054, 0.000100, 0.093219,-0.968775,-0.000009, 0.000947,-0.009670,-0.097603, 0.012700, 0.264195,1, 0.002494, 0.001992, 0.000606,1,-0.098644,-0.901385, 9.764638,1,0
1778777001889,  1677.084,  1677.079, 0.011507, 0.092958,-1.004195, 0.000141, 0.000913,-0.010081, 0.092048,-0.069307,-0.164494,1, 0.005062,-0.004518,-0.000272,1,-0.097464,-0.899678, 9.764808,1,0
1778777001889,  1677.104,  1677.104,-0.000878, 0.094214,-0.977610,-0.000023, 0.000948,-0.009758,-0.107289, 0.022476, 0.177551,1,-0.000169, 0.000103, 0.000886,1,-0.098681,-0.901455, 9.764631,1,0
1778777001889,  1677.129,  1677.129, 0.024037, 0.085662,-1.009792, 0.000237, 0.000847,-0.010098, 0.137929,-0.060305,-0.137939,1, 0.002023,-0.002751,-0.000491,1,-0.097705,-0.900295, 9.764749,1,0
1778777001889,  1677.154,  1677.149, 0.000061, 0.094573,-0.972558,-0.000016, 0.000960,-0.009687,-0.082693, 0.049585, 0.233681,1,-0.007666, 0.006159,-0.000619,1,-0.098653,-0.901838, 9.764596,1,0
1778777001889,  1677.179,  1677.179, 0.018781, 0.084954,-1.018972, 0.000186, 0.000847,-0.010183, 0.086972,-0.066682,-0.227906,1, 0.005052,-0.005216,-0.000798,1,-0.097045,-0.899638, 9.764815,1,0
1778777001889,  1677.194,  1677.189,-0.001052, 0.097194,-0.976900,-0.000003, 0.000971,-0.009796, 0.006429,-0.000864,-0.088178,1,-0.007538, 0.004769,-0.001150,1,-0.097315,-0.900246, 9.764756,1,0
1778777001901,  1695.779,  1695.774, 0.016509, 0.087397,-0.990402, 0.000137, 0.000888,-0.009868, 0.072453,-0.037705, 0.052808,1, 0.003919,-0.004174, 0.001310,1,-0.089323,-0.894652, 9.765347,1,0
1778777001927,  1695.799,  1695.799, 0.015952, 0.089848,-0.992353, 0.000183, 0.000888,-0.009952, 0.066933,-0.013715, 0.033674,1,-0.007652, 0.006805,-0.001381,1,-0.089712,-0.895058, 9.765306,1,0
1778777001948,  1695.824,  1695.819, 0.007100, 0.088194,-1.004505, 0.000051, 0.000895,-0.010007,-0.126859, 0.029266, 0.162172,1, 0.004564,-0.000574,-0.000258,1,-0.090779,-0.895240, 9.765280,1,0
1778777001971,  1695.849,  1695.844, 0.012551, 0.091039,-1.001930, 0.000144, 0.000897,-0.010067, 0.033819,-0.001209,-0.060166,1,-0.007806, 0.002618,-0.000989,1,-0.089347,-0.894239, 9.765385,1,0
1778777001997,  1695.869,  1695.869, 0.002205, 0.093955,-0.967936, 0.000014, 0.000952,-0.009665,-0.068484, 0.026151, 0.273073,1, 0.001476, 0.000671, 0.000691,1,-0.090134,-0.895188, 9.765290,1,0
1778777002018,  1695.894,  1695.889, 0.010118, 0.091990,-1.002380, 0.000127, 0.000904,-0.010059, 0.100844,-0.070826,-0.141833,1, 0.005259,-0.003123,-0.000665,1,-0.089348,-0.893621, 9.765441,1,0
1778777002041,  1695.919,  1695.914,-0.000875, 0.094744,-0.980218,-0.000024, 0.000957,-0.009782,-0.098969, 0.034086, 0.152650,1,-0.000727,-0.001479, 0.001242,1,-0.090348,-0.895055, 9.765301,1,0
1778777002067,  1695.939,  1695.939, 0.021670, 0.084564,-1.008129, 0.000217, 0.000838,-0.010084, 0.123099,-0.064884,-0.120981,1, 0.001799,-0.003466, 0.000009,1,-0.089300,-0.894116, 9.765396,1,0
1778777002088,  1695.964,  1695.959, 0.001232, 0.094380,-0.976609,-0.000006, 0.000953,-0.009726,-0.095888, 0.058539, 0.231868,1,-0.004898, 0.006518,-0.000442,1,-0.090305,-0.895386, 9.765271,1,0
1778777002111,  1695.989,  1695.984, 0.019999, 0.083864,-1.017762, 0.000200, 0.000835,-0.010180, 0.107045,-0.071033,-0.215374,1, 0.003017,-0.002615,-0.000918,1,-0.088989,-0.893359, 9.765469,1,0
1778777002137,  1696.009,  1696.009,-0.001240, 0.096465,-0.974222, 0.000000, 0.000961,-0.009767,-0.102093, 0.051264, 0.211476,1,-0.008345, 0.007877, 0.000147,1,-0.090107,-0.894987, 9.765309,1,0
1778777002158,  1696.034,  1696.029, 0.020454, 0.084845,-1.009707, 0.000211, 0.000844,-0.010106, 0.050455,-0.047806,-0.014781,1, 0.006994,-0.005886, 0.000627,1,-0.089685,-0.894418, 9.765366,1,0
1778777002185,  1696.059,  1696.059,-0.001661, 0.096770,-0.975959,-0.000009, 0.000968,-0.009779,-0.106542, 0.053681, 0.194392,1,-0.005215, 0.005191, 0.000283,1,-0.090411,-0.895468, 9.765263,1,0
1778777002207,  1696.079,  1696.079, 0.015788, 0.085406,-1.003003, 0.000142, 0.000859,-0.010003, 0.064964,-0.056837,-0.070738,1, 0.009664,-0.006657, 0.000299,1,-0.089661,-0.894084, 9.765396,1,0
1778777002229,  1696.104,  1696.099,-0.001089, 0.097258,-0.970187,-0.000007, 0.000969,-0.009715, 0.005524, 0.014999, 0.048210,1,-0.008476, 0.004606,-0.001330,1,-0.089798,-0.894572, 9.765350,1,0
1778777002255,  1696.129,  1696.129, 0.014118, 0.085150,-1.004559, 0.000123, 0.000859,-0.010008, 0.048846,-0.059270,-0.085985,1, 0.008823,-0.006723, 0.001069,1,-0.089394,-0.894029, 9.765404,1,0
1778777002277,  1696.154,  1696.149,-0.000038, 0.096572,-0.974317, 0.000001, 0.000964,-0.009757, 0.001062, 0.009065,-0.018019,1,-0.008015, 0.005656,-0.000644,1,-0.089544,-0.894486, 9.765360,1,0
1778777002299,  1696.174,  1696.169, 0.016639, 0.085515,-0.999471, 0.000153, 0.000866,-0.009961,-0.039985, 0.011265, 0.172844,1, 0.003639,-0.002084, 0.000851,1,-0.090160,-0.895009, 9.765306,1,0
1778777002326,  1696.199,  1696.199, 0.005408, 0.092884,-0.992004, 0.000079, 0.000924,-0.009956,-0.036755, 0.016532, 0.037138,1,-0.006605, 0.005156,-0.000703,1,-0.089950,-0.894552, 9.765350,1,0
1778777002347,  1696.224,  1696.219, 0.016729, 0.085016,-1.008315, 0.000149, 0.000863,-0.010061,-0.074423, 0.010971, 0.097216,1, 0.007440,-0.005225, 0.000581,1,-0.089874,-0.894269, 9.765377,1,0
1778777002369,  1696.244,  1696.239, 0.010269, 0.093693,-0.987302, 0.000127, 0.000926,-0.009919, 0.122078,-0.045335,-0.149684,1,-0.001297,-0.000604,-0.001144,1,-0.088809,-0.893269, 9.765478,1,0
1778777002396,  1696.269,  1696.269, 0.003362, 0.091415,-0.976070, 0.000019, 0.000925,-0.009721,-0.057270, 0.001810, 0.193364,1, 0.006364,-0.002676, 0.001187,1,-0.090156,-0.894465, 9.765356,1,0
1778777002417,  1696.294,  1696.289, 0.003854, 0.095190,-0.994524, 0.000062, 0.000942,-0.009986, 0.074758,-0.043572,-0.185179,1, 0.000303,-0.002705,-0.001124,1,-0.089009,-0.893318, 9.765472,1,0
1778777002439,  1696.314,  1696.309, 0.006747, 0.091385,-0.983973, 0.000040, 0.000923,-0.009801,-0.125566, 0.061948, 0.202590,1,-0.004566, 0.002670, 0.000064,1,-0.089696,-0.894728, 9.765337,1,0
1778777002466,  1696.339,  1696.339, 0.020926, 0.085518,-1.006015, 0.000224, 0.000842,-0.010078, 0.116517,-0.054625,-0.100160,1,-0.001659, 0.002215,-0.001482,1,-0.088767,-0.893320, 9.765474,1,0
1778777002487,  1696.364,  1696.359, 0.003142, 0.090671,-0.986849, 0.000009, 0.000921,-0.009826,-0.120212, 0.053315, 0.240241,1,-0.001561, 0.005576, 0.000221,1,-0.090249,-0.894303, 9.765370,1,0
1778777002509,  1696.384,  1696.379, 0.017213, 0.086249,-1.012939, 0.000185, 0.000853,-0.010158, 0.059823,-0.057114,-0.157906,1, 0.006722,-0.007555, 0.000086,1,-0.089032,-0.892827, 9.765517,1,0
1778777002536,  1696.409,  1696.409, 0.000447, 0.095876,-0.968992,-0.000001, 0.000964,-0.009693,-0.085189, 0.045864, 0.262805,1,-0.003527, 0.002723, 0.000086,1,-0.089600,-0.894450, 9.765363,1,0
1778777002557,  1696.434,  1696.429, 0.016626, 0.087812,-1.005689, 0.000191, 0.000863,-0.010086, 0.118586,-0.064562,-0.084503,1, 0.008691,-0.005172,-0.000463,1,-0.088616,-0.892824, 9.765521,1,0
1778777002579,  1696.454,  1696.449,-0.007121, 0.096138,-0.974079,-0.000077, 0.000972,-0.009734,-0.091104, 0.042826, 0.119194,1,-0.008276, 0.006270,-0.000699,1,-0.089339,-0.893787, 9.765426,1,0
1778777002606,  1696.479,  1696.479, 0.018148, 0.083467,-1.016261, 0.000171, 0.000835,-0.010149, 0.089701,-0.074128,-0.200575,1, 0.007501,-0.007316,-0.000303,1,-0.088045,-0.892426, 9.765562,1,0
1778777002628,  1696.504,  1696.499, 0.001990, 0.095299,-0.965212, 0.000013, 0.000963,-0.009645,-0.029054, 0.043667, 0.138272,1,-0.010545, 0.007988,-0.000713,1,-0.088869,-0.893792, 9.765430,1,0
1778777002649,  1696.524,  1696.519, 0.019110, 0.083675,-1.006992, 0.000184, 0.000840,-0.010042, 0.012036,-0.033195, 0.141634,1, 0.008103,-0.004121, 0.000691,1,-0.089200,-0.893466, 9.765457,1,0
1778777002676,  1696.549,  1696.549,-0.000619, 0.096076,-0.986905, 0.000006, 0.000951,-0.009894,-0.094975, 0.048647, 0.087217,1,-0.007674, 0.005125,-0.000368,1,-0.089065,-0.893770, 9.765430,1,0
1778777002698,  1696.574,  1696.569, 0.021736, 0.084317,-1.009985, 0.000209, 0.000851,-0.010093,-0.000931,-0.014854, 0.015958,1, 0.008075,-0.006954, 0.001317,1,-0.088512,-0.893186, 9.765489,1,0
1778777002720,  1696.594,  1696.594, 0.004775, 0.094155,-0.974687, 0.000066, 0.000936,-0.009783,-0.041986, 0.029579, 0.207019,1,-0.006700, 0.007717,-0.000515,1,-0.089054,-0.893972, 9.765411,1,0
1778777002746,  1696.619,  1696.619, 0.006442, 0.088128,-0.989670, 0.000050, 0.000891,-0.009855,-0.025838,-0.028984, 0.060131,1, 0.010883,-0.007756, 0.000377,1,-0.088779,-0.892887, 9.765513,1,0
1778777002768,  1696.644,  1696.639, 0.000181, 0.096693,-0.984711, 0.000016, 0.000957,-0.009890, 0.027236,-0.006833,-0.141351,1,-0.004397, 0.002035,-0.001493,1,-0.088035,-0.892261, 9.765577,1,0
1778777002791,  1696.664,  1696.664, 0.012042, 0.087992,-0.990264, 0.000099, 0.000888,-0.009866, 0.029636,-0.030119, 0.054328,1, 0.007833,-0.006267, 0.000605,1,-0.088259,-0.892785, 9.765528,1,0
1778777002816,  1696.689,  1696.689, 0.015462, 0.091151,-0.999965, 0.000178, 0.000896,-0.010029, 0.063552, 0.001374,-0.040750,1,-0.005740, 0.005167,-0.001680,1,-0.088237,-0.892692, 9.765536,1,0
1778777002838,  1696.714,  1696.709, 0.007476, 0.087056,-0.998642, 0.000047, 0.000881,-0.009939,-0.141135, 0.034327, 0.183320,1, 0.002428, 0.000409, 0.001177,1,-0.089207,-0.893442, 9.765459,1,0
1778777002861,  1696.734,  1696.734, 0.015311, 0.089145,-1.001805, 0.000169, 0.000883,-0.010054, 0.062337,-0.018166,-0.058782,1,-0.006963, 0.003677,-0.000560,1,-0.087928,-0.892594, 9.765548,1,0
1778777002886,  1696.759,  1696.759, 0.004795, 0.093777,-0.968286, 0.000039, 0.000953,-0.009666,-0.041795, 0.026012, 0.269800,1, 0.001511, 0.000871, 0.001012,1,-0.088852,-0.893581, 9.765450,1,0
1778777002908,  1696.784,  1696.779, 0.010911, 0.089303,-1.002768, 0.000136, 0.000887,-0.010057, 0.093765,-0.061200,-0.112292,1, 0.004251,-0.001606,-0.000202,1,-0.088204,-0.892317, 9.765571,1,0
1778777002931,  1696.804,  1696.804,-0.002653, 0.094644,-0.979868,-0.000042, 0.000955,-0.009785,-0.115001, 0.034423, 0.156216,1, 0.000554,-0.001409, 0.001309,1,-0.088872,-0.893675, 9.765441,1,0
1778777002956,  1696.829,  1696.829, 0.021805, 0.084908,-1.011363, 0.000216, 0.000846,-0.010118, 0.126066,-0.059944,-0.152531,1, 0.002555,-0.004490,-0.000654,1,-0.087630,-0.892531, 9.765556,1,0
1778777002978,  1696.854,  1696.849,-0.000295, 0.094274,-0.969818,-0.000008, 0.000952,-0.009680,-0.050463, 0.057688, 0.212646,1,-0.007779, 0.007609,-0.000723,1,-0.088752,-0.894048, 9.765408,1,0
1778777003001,  1696.874,  1696.874, 0.015848, 0.085078,-1.014507, 0.000152, 0.000847,-0.010132, 0.067543,-0.058249,-0.183368,1, 0.005357,-0.005726,-0.001372,1,-0.087690,-0.892416, 9.765567,1,0
1778777003027,  1696.899,  1696.899, 0.001772, 0.095389,-0.984773, 0.000030, 0.000948,-0.009883,-0.070708, 0.042135, 0.108157,1,-0.007836, 0.005158,-0.000269,1,-0.088246,-0.893555, 9.765457,1,0
1778777003048,  1696.924,  1696.919, 0.024205, 0.083619,-1.006304, 0.000240, 0.000838,-0.010051, 0.065170,-0.036176, 0.055097,1, 0.008368,-0.004419, 0.001117,1,-0.088062,-0.892972, 9.765512,1,0
1778777003071,  1696.949,  1696.944,-0.002058, 0.096109,-0.974581, 0.000001, 0.000957,-0.009772,-0.108617, 0.048910, 0.208074,1,-0.008261, 0.007429,-0.000129,1,-0.088661,-0.893851, 9.765427,1,0
1778777003097,  1696.969,  1696.969, 0.006493, 0.088927,-1.001093, 0.000044, 0.000901,-0.009965,-0.024312,-0.021106,-0.051871,1, 0.009940,-0.011024, 0.001717,1,-0.087644,-0.892871, 9.765525,1,0
1778777003118,  1696.994,  1696.989, 0.003675, 0.095590,-0.977942, 0.000056, 0.000949,-0.009825, 0.070870,-0.012381,-0.141448,1,-0.008138, 0.004506,-0.000851,1,-0.087021,-0.892929, 9.765526,1,0
1778777003141,  1697.019,  1697.014, 0.009936, 0.089126,-0.983747, 0.000085, 0.000900,-0.009797, 0.009034,-0.019758, 0.118170,1, 0.008484,-0.003799, 0.001425,1,-0.088297,-0.893518, 9.765460,1,0
1778777003167,  1697.039,  1697.039, 0.011491, 0.088530,-1.005702, 0.000137, 0.000870,-0.010082, 0.024699,-0.024923,-0.097072,1,-0.004141, 0.003174,-0.001165,1,-0.088081,-0.893236, 9.765488,1,0
1778777003188,  1697.064,  1697.059, 0.011768, 0.089892,-0.995894, 0.000092, 0.000910,-0.009928,-0.115735, 0.045761, 0.143976,1,-0.001115, 0.001428, 0.001606,1,-0.089023,-0.894237, 9.765388,1,0
1778777003211,  1697.089,  1697.084, 0.019730, 0.088137,-0.996461, 0.000215, 0.000871,-0.009997, 0.104920,-0.029654,-0.006527,1,-0.008538, 0.004969,-0.001213,1,-0.088717,-0.894248, 9.765389,1,0
1778777003237,  1697.109,  1697.109,-0.002261, 0.096151,-0.966248,-0.000028, 0.000970,-0.009635,-0.111977, 0.047618, 0.289629,1, 0.001450, 0.001018, 0.000054,1,-0.089831,-0.895257, 9.765287,1,0
1778777003258,  1697.134,  1697.129, 0.013929, 0.088148,-1.016757, 0.000154, 0.000869,-0.010199, 0.061034,-0.081275,-0.238211,1, 0.009758,-0.008971,-0.000754,1,-0.088040,-0.892956, 9.765514,1,0
1778777003281,  1697.159,  1697.154, 0.000677, 0.095627,-0.970870, 0.000001, 0.000963,-0.009709,-0.081786, 0.043760, 0.244434,1,-0.002250, 0.001740, 0.000230,1,-0.088484,-0.894092, 9.765406,1,0
1778777003307,  1697.179,  1697.179, 0.021083, 0.082738,-1.001800, 0.000208, 0.000829,-0.010001, 0.118958,-0.081640,-0.058793,1, 0.005387,-0.003650,-0.000062,1,-0.087683,-0.892852, 9.765527,1,0
1778777003329,  1697.204,  1697.199,-0.007100, 0.095970,-0.978656,-0.000076, 0.000963,-0.009778,-0.098392, 0.033028, 0.094520,1,-0.007518, 0.006222,-0.000539,1,-0.088526,-0.893782, 9.765434,1,0
1778777003351,  1697.229,  1697.224, 0.020285, 0.084924,-1.014966, 0.000192, 0.000847,-0.010138, 0.111332,-0.060009,-0.187892,1, 0.004428,-0.007168, 0.000240,1,-0.087374,-0.892687, 9.765545,1,0
1778777003377,  1697.249,  1697.249, 0.007916, 0.094913,-0.974842, 0.000102, 0.000941,-0.009792,-0.010558, 0.036797, 0.205481,1,-0.011503, 0.009809,-0.001250,1,-0.088485,-0.894339, 9.765384,1,0
1778777003399,  1697.274,  1697.269, 0.015668, 0.083921,-1.014047, 0.000145, 0.000843,-0.010101,-0.029677,-0.005943, 0.125703,1, 0.010117,-0.005114, 0.000874,1,-0.088795,-0.893825, 9.765428,1,0
1778777003426,  1697.299,  1697.299, 0.002745, 0.095337,-0.992375, 0.000041, 0.000945,-0.009965,-0.061068, 0.041591, 0.033600,1,-0.010207, 0.005001,-0.000192,1,-0.088144,-0.893664, 9.765449,1,0
1778777003447,  1697.319,  1697.319, 0.008915, 0.090556,-0.982549, 0.000062, 0.000922,-0.009791,-0.000912,-0.005998, 0.129900,1, 0.004796,-0.003409,-0.000016,1,-0.088228,-0.893903, 9.765426,1,0
1778777003469,  1697.344,  1697.339, 0.002235, 0.093574,-0.981650, 0.000051, 0.000925,-0.009852, 0.092336,-0.046675,-0.060127,1,-0.002475, 0.003597,-0.000736,1,-0.087895,-0.893292, 9.765485,1,0
1778777003496,  1697.369,  1697.369, 0.004830, 0.091180,-0.994523, 0.000022, 0.000927,-0.009901,-0.041225, 0.000653, 0.012520,1, 0.009768,-0.006732, 0.001022,1,-0.088388,-0.893217, 9.765487,1,0
1778777003517,  1697.394,  1697.389, 0.005659, 0.093559,-0.978778, 0.000078, 0.000927,-0.009841, 0.103797,-0.039056,-0.154429,1,-0.005656, 0.003484,-0.000832,1,-0.087856,-0.892781, 9.765532,1,0
1778777003539,  1697.414,  1697.409, 0.009154, 0.090430,-0.982130, 0.000066, 0.000914,-0.009770,-0.101420, 0.060134, 0.338306,1,-0.002124, 0.003891, 0.000865,1,-0.089137,-0.894285, 9.765383,1,0
1778777003566,  1697.439,  1697.439, 0.015047, 0.088102,-1.014390, 0.000172, 0.000856,-0.010171, 0.059981,-0.028155,-0.182181,1,-0.002455, 0.000489,-0.000958,1,-0.087589,-0.892214, 9.765586,1,0
1778777003587,  1697.464,  1697.459, 0.009839, 0.088072,-0.990488, 0.000070, 0.000890,-0.009865,-0.113290, 0.044906, 0.195927,1,-0.001770, 0.000651, 0.001060,1,-0.088532,-0.893378, 9.765471,1,0
1778777003609,  1697.484,  1697.479, 0.017274, 0.088376,-1.000060, 0.000193, 0.000868,-0.010027, 0.121498,-0.081170,-0.104486,1, 0.002823,-0.004135, 0.000355,1,-0.087454,-0.892439, 9.765567,1,0
1778777003636,  1697.509,  1697.509,-0.001435, 0.095192,-0.972536,-0.000025, 0.000960,-0.009704,-0.102487, 0.039306, 0.228076,1,-0.000161, 0.000251, 0.001213,1,-0.088428,-0.894216, 9.765395,1,0
1778777003657,  1697.534,  1697.529, 0.012485, 0.089939,-1.002203, 0.000145, 0.000885,-0.010062, 0.082878,-0.073645,-0.175444,1, 0.004125,-0.006077, 0.000104,1,-0.087078,-0.892908, 9.765527,1,0
1778777003679,  1697.554,  1697.549, 0.000966, 0.095573,-0.969269, 0.000001, 0.000966,-0.009677,-0.070102, 0.049634, 0.196357,1,-0.007469, 0.006224,-0.000079,1,-0.087835,-0.894189, 9.765403,1,0
1778777003706,  1697.579,  1697.579, 0.019497, 0.083795,-1.009513, 0.000199, 0.000834,-0.010098, 0.104308,-0.071125,-0.134407,1, 0.004097,-0.002953,-0.001220,1,-0.086800,-0.892746, 9.765544,1,0
1778777003727,  1697.604,  1697.599,-0.001060, 0.095039,-0.979239,-0.000024, 0.000956,-0.009770,-0.104954, 0.050998, 0.152260,1,-0.004904, 0.005731,-0.000777,1,-0.087874,-0.893689, 9.765449,1,0
1778777003749,  1697.624,  1697.619, 0.019391, 0.085028,-1.012594, 0.000191, 0.000844,-0.010128, 0.022110,-0.029167,-0.044759,1, 0.007543,-0.008247, 0.000075,1,-0.086949,-0.892754, 9.765542,1,0
1778777003776,  1697.649,  1697.649,-0.000124, 0.096809,-0.976593, 0.000005, 0.000966,-0.009783,-0.088829, 0.055637, 0.188344,1,-0.006015, 0.007229, 0.000298,1,-0.087842,-0.893926, 9.765427,1,0
1778777003798,  1697.674,  1697.669, 0.019372, 0.085272,-1.013216, 0.000191, 0.000846,-0.010134, 0.040488,-0.043401,-0.050293,1, 0.007918,-0.005867, 0.000126,1,-0.087306,-0.892853, 9.765530,1,0
1778777003819,  1697.694,  1697.689, 0.000313, 0.096652,-0.975596, 0.000010, 0.000965,-0.009770, 0.023062, 0.016394,-0.020740,1,-0.007717, 0.006138,-0.000376,1,-0.087487,-0.893310, 9.765487,1,0
1778777003846,  1697.719,  1697.719, 0.016134, 0.085921,-0.999194, 0.000146, 0.000869,-0.009956, 0.070355,-0.050751,-0.033265,1, 0.007358,-0.006753, 0.000569,1,-0.087660,-0.893121, 9.765502,1,0
1778777003868,  1697.744,  1697.739,-0.002929, 0.095977,-0.973312,-0.000022, 0.000964,-0.009748,-0.008246, 0.012644, 0.018631,1,-0.008521, 0.006597,-0.000472,1,-0.087940,-0.893737, 9.765444,1,0
1778777003889,  1697.764,  1697.759, 0.016478, 0.086482,-1.004278, 0.000151, 0.000873,-0.010012,-0.058160, 0.009495, 0.148412,1, 0.004802,-0.005063, 0.000859,1,-0.088257,-0.894165, 9.765401,1,0
1778777003916,  1697.789,  1697.789, 0.008807, 0.092765,-0.989816, 0.000113, 0.000919,-0.009940,-0.001411, 0.015842, 0.058657,1,-0.008700, 0.007641,-0.001313,1,-0.088008,-0.894146, 9.765406,1,0
1778777003938,  1697.814,  1697.809, 0.016684, 0.085448,-1.004287, 0.000154, 0.000859,-0.010012,-0.052169, 0.001228, 0.161157,1, 0.007308,-0.004884, 0.000246,1,-0.088373,-0.894035, 9.765412,1,0
1778777003961,  1697.834,  1697.834, 0.005800, 0.093027,-0.990790, 0.000078, 0.000921,-0.009943,-0.030641, 0.018765, 0.049134,1,-0.008080, 0.004936,-0.000835,1,-0.087672,-0.893771, 9.765443,1,0
1778777003986,  1697.859,  1697.859, 0.005201, 0.090748,-0.985409, 0.000029, 0.000915,-0.009813,-0.036944,-0.003874, 0.101875,1, 0.007754,-0.004261, 0.000651,1,-0.087816,-0.893564, 9.765460,1,0
1778777004008,  1697.884,  1697.879, 0.004347, 0.094300,-0.985436, 0.000063, 0.000937,-0.009890, 0.090575,-0.036277,-0.122687,1,-0.003487, 0.000399,-0.001076,1,-0.086978,-0.892896, 9.765529,1,0
1778777004031,  1697.904,  1697.904, 0.004820, 0.089877,-0.986508, 0.000025, 0.000910,-0.009821,-0.040708,-0.012775, 0.091060,1, 0.007609,-0.005025, 0.001062,1,-0.087821,-0.893931, 9.765427,1,0
1778777004056,  1697.929,  1697.929, 0.015975, 0.088247,-1.012288, 0.000179, 0.000867,-0.010153, 0.069634,-0.027786,-0.161650,1,-0.003674, 0.002068,-0.001704,1,-0.087085,-0.893313, 9.765490,1,0
1778777004078,  1697.954,  1697.949, 0.008097, 0.090154,-0.983939, 0.000060, 0.000910,-0.009802,-0.110169, 0.049545, 0.247515,1,-0.002537, 0.003514, 0.000999,1,-0.088432,-0.894794, 9.765342,1,0
1778777004101,  1697.974,  1697.974, 0.017178, 0.087966,-1.006084, 0.000196, 0.000864,-0.010092, 0.080759,-0.030875,-0.100851,1,-0.004763, 0.003870,-0.001631,1,-0.087820,-0.893673, 9.765450,1,0
1778777004126,  1697.999,  1697.999,-0.002704, 0.094869,-0.970749,-0.000040, 0.000958,-0.009698,-0.115526, 0.035491, 0.245531,1, 0.000431, 0.001790, 0.000378,1,-0.089065,-0.894844, 9.765332,1,0
1778777004148,  1698.024,  1698.019, 0.013193, 0.104047,-1.013901, 0.000212, 0.000962,-0.010125, 0.190065,-0.177406,-0.063535,1, 0.002845,-0.009067,-0.002664,1,-0.087195,-0.893114, 9.765507,1,0
1778777004171,  1698.044,  1698.044,-0.007306, 0.110907,-0.975994,-0.000010, 0.001095,-0.009682,-0.158795, 0.192190, 0.194062,1,-0.005952,-0.008331, 0.000320,1,-0.086893,-0.895626, 9.765280,1,0
1778777004197,  1698.069,  1698.069, 0.015598, 0.084148,-1.023647, 0.000151, 0.000823,-0.010191, 0.067119,-0.067987,-0.273039,1,-0.003055,-0.005017, 0.000089,1,-0.085693,-0.893289, 9.765505,1,0
1778777004218,  1698.094,  1698.089, 0.000468, 0.096131,-0.970323,-0.000012, 0.000962,-0.009693,-0.096241,-0.000553, 0.127811,1,-0.009506, 0.011246, 0.002361,1,-0.086988,-0.894815, 9.765353,1,0
1778777004241,  1698.114,  1698.114, 0.025120, 0.080846,-1.007397, 0.000258, 0.000805,-0.010043, 0.158642,-0.100787,-0.113734,1, 0.004875,-0.004090, 0.000546,1,-0.087579,-0.893460, 9.765472,1,0
1778777004267,  1698.139,  1698.139, 0.000493, 0.093101,-0.974574, 0.000024, 0.000925,-0.009777,-0.083642, 0.018392, 0.208050,1,-0.009296, 0.005105, 0.000225,1,-0.088637,-0.894904, 9.765330,1,0
1778777004288,  1698.164,  1698.159, 0.020746, 0.084427,-1.016960, 0.000202, 0.000835,-0.010177,-0.009775,-0.036856,-0.069127,1, 0.010920,-0.011502, 0.000566,1,-0.087082,-0.894000, 9.765427,1,0
1778777004311,  1698.189,  1698.184,-0.002736, 0.096142,-0.971646,-0.000010, 0.000953,-0.009756,-0.114224, 0.047566, 0.236717,1,-0.007824, 0.008356,-0.000890,1,-0.087652,-0.895509, 9.765284,1,0
1778777004337,  1698.209,  1698.209, 0.014342, 0.087426,-0.993074, 0.000122, 0.000885,-0.009880, 0.053227,-0.037161, 0.026642,1, 0.013509,-0.009582,-0.000110,1,-0.087102,-0.894072, 9.765420,1,0
1778777004358,  1698.234,  1698.229,-0.000545, 0.095132,-0.977601, 0.000002, 0.000947,-0.009798, 0.010970,-0.002294,-0.062945,1,-0.005888, 0.005384,-0.001508,1,-0.086783,-0.893891, 9.765440,1,0
1778777004381,  1698.259,  1698.254, 0.013894, 0.085446,-0.998082, 0.000111, 0.000861,-0.009946, 0.049677,-0.055900,-0.022396,1, 0.008512,-0.007590, 0.000930,1,-0.086344,-0.893574, 9.765472,1,0
1778777004407,  1698.279,  1698.279, 0.009891, 0.092262,-0.991791, 0.000126, 0.000920,-0.009951, 0.010652, 0.011004, 0.039303,1,-0.008383, 0.006200,-0.000666,1,-0.086533,-0.894042, 9.765428,1,1
1778777004428,  1698.304,  1698.299, 0.013610, 0.086967,-1.006137, 0.000120, 0.000879,-0.010020,-0.078002, 0.011921, 0.185180,1, 0.004974,-0.000941, 0.001767,1,-0.087472,-0.894542, 9.765374,1,1
1778777004451,  1698.329,  1698.324, 0.010147, 0.093393,-0.998188, 0.000125, 0.000931,-0.010035, 0.012916, 0.021820,-0.023455,1,-0.012021, 0.007765,-0.001366,1,-0.086826,-0.894426, 9.765390,1,1
1778777004477,  1698.349,  1698.349, 0.001299, 0.092962,-0.973273,-0.000003, 0.000942,-0.009707,-0.074846, 0.016362, 0.220753,1, 0.004983,-0.002363, 0.001209,1,-0.087514,-0.895125, 9.765320,1,1
1778777004499,  1698.374,  1698.369, 0.008171, 0.091366,-0.999272, 0.000106, 0.000909,-0.010032, 0.099459,-0.044900,-0.167751,1, 0.002501,-0.001231,-0.000880,1,-0.086514,-0.893637, 9.765465,1,1
1778777004521,  1698.399,  1698.394, 0.003972, 0.092114,-0.981598, 0.000019, 0.000932,-0.009789,-0.049093, 0.008715, 0.139178,1, 0.005295,-0.001852, 0.001433,1,-0.087989,-0.894449, 9.765378,1,1
1778777004547,  1698.419,  1698.419, 0.021928, 0.086632,-1.007453, 0.000228, 0.000858,-0.010088, 0.127806,-0.044101,-0.114287,1,-0.003656, 0.000858,-0.000671,1,-0.087253,-0.893780, 9.765446,1,1
1778777004569,  1698.444,  1698.439, 0.001441, 0.092776,-0.979606,-0.000006, 0.000939,-0.009749,-0.116497, 0.052345, 0.266003,1,-0.007768, 0.006138, 0.001049,1,-0.088661,-0.895937, 9.765235,1,1
1778777004591,  1698.469,  1698.464, 0.019255, 0.086159,-1.019566, 0.000198, 0.000853,-0.010211, 0.102048,-0.048979,-0.233088,1, 0.001512,-0.004091,-0.001616,1,-0.086645,-0.893866, 9.765443,1,1
1778777004617,  1698.489,  1698.489, 0.000480, 0.096059,-0.969569, 0.000011, 0.000962,-0.009719,-0.082687, 0.046757, 0.257087,1,-0.005449, 0.005030, 0.000151,1,-0.087550,-0.895426, 9.765292,1,1
1778777004639,  1698.514,  1698.509, 0.015762, 0.084981,-1.009808, 0.000170, 0.000842,-0.010106, 0.047387,-0.061922,-0.002942,1, 0.009750,-0.007940, 0.000876,1,-0.086499,-0.893931, 9.765438,1,1
1778777004666,  1698.539,  1698.539,-0.006032, 0.096343,-0.980531,-0.000054, 0.000962,-0.009822,-0.146091, 0.050087, 0.149636,1,-0.004521, 0.005100, 0.000361,1,-0.087094,-0.894856, 9.765348,1,1
1778777004687,  1698.559,  1698.559, 0.016784, 0.087407,-1.003377, 0.000151, 0.000880,-0.010013, 0.078025,-0.036972,-0.074354,1, 0.006111,-0.006676, 0.000869,1,-0.086364,-0.893956, 9.765437,1,1
1778777004709,  1698.584,  1698.579,-0.000189, 0.095810,-0.965342, 0.000008, 0.000950,-0.009665, 0.033763,-0.000027, 0.093577,1,-0.009639, 0.008507,-0.000677,1,-0.087093,-0.894987, 9.765337,1,1
1778777004736,  1698.609,  1698.609, 0.012159, 0.086227,-1.006227, 0.000103, 0.000873,-0.010016,-0.080201, 0.004621, 0.206492,1, 0.008305,-0.003822, 0.000513,1,-0.087740,-0.894894, 9.765339,1,1
1778777004757,  1698.634,  1698.629, 0.000514, 0.095473,-0.975266, 0.000008, 0.000952,-0.009776, 0.010033,-0.002629,-0.063390,1,-0.009261, 0.003752,-0.000981,1,-0.086360,-0.893948, 9.765438,1,1
1778777004779,  1698.654,  1698.649, 0.016825, 0.086029,-0.996306, 0.000149, 0.000872,-0.009926,-0.050283, 0.006812, 0.208291,1, 0.002315, 0.000327, 0.001566,1,-0.087133,-0.894832, 9.765350,1,1
1778777004806,  1698.679,  1698.679, 0.007803, 0.092527,-0.995153, 0.000108, 0.000920,-0.009992,-0.010613, 0.012971, 0.006267,1,-0.008623, 0.006937,-0.000520,1,-0.087349,-0.894674, 9.765363,1,1
1778777004827,  1698.704,  1698.699, 0.013386, 0.088069,-1.006286, 0.000115, 0.000892,-0.010030,-0.111545, 0.030477, 0.144255,1, 0.006304,-0.005500, 0.000936,1,-0.087579,-0.895011, 9.765330,1,1
1778777004849,  1698.724,  1698.719, 0.014487, 0.091072,-0.994146, 0.000169, 0.000905,-0.009997, 0.136787,-0.044288,-0.212695,1, 0.002828,-0.006372,-0.001444,1,-0.085589,-0.893425, 9.765492,1,1
1778777004876,  1698.749,  1698.749, 0.002073, 0.094020,-0.967548, 0.000005, 0.000947,-0.009642,-0.066655, 0.027385, 0.276965,1, 0.006345,-0.000933, 0.000729,1,-0.086955,-0.894442, 9.765388,1,1
1778777004898,  1698.774,  1698.769, 0.006452, 0.090160,-1.002936, 0.000086, 0.000890,-0.010067, 0.082577,-0.063905,-0.208144,1, 0.000732,-0.002739,-0.000555,1,-0.085787,-0.893101, 9.765521,1,1
1778777004919,  1698.794,  1698.789, 0.001169, 0.094184,-0.980544,-0.000015, 0.000950,-0.009778,-0.127274, 0.046398, 0.158455,1,-0.009402, 0.006224, 0.000683,1,-0.087026,-0.895055, 9.765331,1,1
1778777004946,  1698.819,  1698.819, 0.024232, 0.084407,-1.007428, 0.000242, 0.000841,-0.010082, 0.151623,-0.066601,-0.114090,1,-0.000451,-0.000505,-0.000475,1,-0.085992,-0.894366, 9.765403,1,1
1778777004968,  1698.844,  1698.839,-0.002663, 0.094303,-0.976399,-0.000040, 0.000953,-0.009722,-0.113763, 0.054332, 0.266986,1,-0.004066, 0.007801, 0.000361,1,-0.087458,-0.895712, 9.765266,1,1
1778777004989,  1698.864,  1698.859, 0.015556, 0.084399,-1.020173, 0.000157, 0.000836,-0.010215,-0.004052,-0.047549,-0.104552,1, 0.012543,-0.010501, 0.000190,1,-0.086216,-0.893802, 9.765452,1,1
1778777005016,  1698.889,  1698.889,-0.001360, 0.096733,-0.973053,-0.000004, 0.000965,-0.009765,-0.099363, 0.054085, 0.222991,1,-0.007491, 0.004983,-0.000272,1,-0.086182,-0.894778, 9.765364,1,1
1778777005038,  1698.914,  1698.909, 0.020528, 0.083224,-1.009182, 0.000213, 0.000823,-0.010099, 0.080801,-0.060462, 0.016642,1, 0.008616,-0.005217, 0.000041,1,-0.085699,-0.893826, 9.765455,1,1
1778777005059,  1698.934,  1698.929,-0.004278, 0.096959,-0.978655,-0.000034, 0.000963,-0.009804,-0.004221,-0.007487,-0.016132,1,-0.007057, 0.007378,-0.001190,1,-0.086234,-0.894066, 9.765429,1,1
1778777005086,  1698.959,  1698.959, 0.013376, 0.086809,-1.004379, 0.000110, 0.000876,-0.010013, 0.044829,-0.042532,-0.084142,1, 0.005521,-0.008389, 0.001400,1,-0.086092,-0.893669, 9.765466,1,1
1778777005108,  1698.984,  1698.979, 0.003331, 0.095500,-0.969806, 0.000042, 0.000950,-0.009708, 0.061204,-0.006441, 0.031294,1,-0.009661, 0.006190,-0.000600,1,-0.086229,-0.894564, 9.765383,1,1
1778777005129,  1699.004,  1698.999, 0.015214, 0.086812,-0.999740, 0.000137, 0.000881,-0.009952,-0.040696, 0.011843, 0.216962,1, 0.003680, 0.000006, 0.001054,1,-0.087131,-0.895162, 9.765320,1,1
1778777005156,  1699.029,  1699.029, 0.007979, 0.093298,-0.999818, 0.000099, 0.000926,-0.010035,-0.008326, 0.020590,-0.039463,1,-0.009126, 0.005800,-0.000103,1,-0.086756,-0.894639, 9.765371,1,1
1778777005178,  1699.054,  1699.049, 0.015993, 0.087299,-0.999703, 0.000143, 0.000885,-0.009969,-0.068335, 0.027890, 0.156798,1, 0.001921,-0.001947, 0.000913,1,-0.087355,-0.895364, 9.765300,1,1
1778777005201,  1699.074,  1699.074, 0.012009, 0.093285,-0.993046, 0.000147, 0.000926,-0.009971, 0.031008, 0.020054, 0.026905,1,-0.006393, 0.006316,-0.001052,1,-0.086958,-0.894954, 9.765341,1,1
1778777005226,  1699.099,  1699.099, 0.000695, 0.094229,-0.977894,-0.000006, 0.000952,-0.009752,-0.080679, 0.028877, 0.175449,1, 0.005661,-0.003270, 0.000603,1,-0.087398,-0.895014, 9.765331,1,1
1778777005248,  1699.124,  1699.119, 0.006693, 0.092294,-0.997801, 0.000089, 0.000909,-0.010022, 0.071311,-0.055199,-0.180263,1, 0.002125,-0.005370,-0.001138,1,-0.085863,-0.893521, 9.765482,1,1
1778777005271,  1699.144,  1699.144, 0.001845, 0.094397,-0.977935,-0.000002, 0.000948,-0.009747,-0.068412, 0.031337, 0.175125,1, 0.004696,-0.003222, 0.000494,1,-0.086410,-0.894236, 9.765411,1,1
1778777005297,  1699.169,  1699.169, 0.019942, 0.082981,-1.010895, 0.000201, 0.000823,-0.010113, 0.110012,-0.079337,-0.147974,1, 0.001233, 0.000240,-0.001357,1,-0.085555,-0.893066, 9.765526,1,1
1778777005318,  1699.194,  1699.189,-0.000922, 0.091558,-0.979287,-0.000028, 0.000931,-0.009758,-0.112008, 0.040090, 0.201457,1,-0.004362, 0.006432,-0.000063,1,-0.086910,-0.894273, 9.765404,1,1
1778777005341,  1699.214,  1699.214, 0.017039, 0.083905,-1.012711, 0.000174, 0.000833,-0.010133, 0.081408,-0.070142,-0.165770,1, 0.000534,-0.002021,-0.000319,1,-0.085623,-0.892949, 9.765536,1,1
1778777005367,  1699.239,  1699.239,-0.000310, 0.095958,-0.973300, 0.000003, 0.000960,-0.009753,-0.089607, 0.046933, 0.220614,1,-0.005326, 0.007798, 0.000737,1,-0.086812,-0.894262, 9.765406,1,1
1778777005388,  1699.259,  1699.259, 0.016679, 0.085382,-0.999342, 0.000152, 0.000862,-0.009966, 0.076795,-0.056302,-0.034732,1, 0.007169,-0.003399,-0.000230,1,-0.086660,-0.893394, 9.765486,1,1
1778777005411,  1699.284,  1699.284,-0.002886, 0.097533,-0.972363,-0.000019, 0.000973,-0.009742,-0.116152, 0.061719, 0.229726,1,-0.007051, 0.006571,-0.000172,1,-0.088058,-0.894974, 9.765329,1,1
1778777005437,  1699.309,  1699.309, 0.015970, 0.085659,-1.003820, 0.000143, 0.000865,-0.010002, 0.069282,-0.054125,-0.078701,1, 0.008826,-0.009740, 0.000625,1,-0.087030,-0.893879, 9.765439,1,1
1778777005458,  1699.334,  1699.329, 0.000424, 0.097710,-0.971088, 0.000006, 0.000975,-0.009724, 0.017901, 0.014051,-0.001676,1,-0.007495, 0.006397,-0.000916,1,-0.087155,-0.894261, 9.765403,1,1
1778777005481,  1699.354,  1699.354, 0.018204, 0.085189,-1.003266, 0.000166, 0.000860,-0.009989, 0.091236,-0.058407,-0.073243,1, 0.008632,-0.006899, 0.000823,1,-0.087074,-0.893561, 9.765468,1,1
1778777005507,  1699.379,  1699.379, 0.005905, 0.092635,-0.993563, 0.000080, 0.000919,-0.009974,-0.029361, 0.014467, 0.021905,1,-0.009326, 0.007616,-0.000941,1,-0.087505,-0.894264, 9.765399,1,1
1778777005528,  1699.404,  1699.399, 0.015259, 0.086045,-1.007782, 0.000136, 0.000872,-0.010042,-0.075300, 0.020868, 0.128464,1, 0.006637,-0.005411, 0.000983,1,-0.087596,-0.894403, 9.765386,1,1
1778777005551,  1699.429,  1699.424, 0.006907, 0.093440,-0.988130, 0.000092, 0.000929,-0.009929,-0.019051, 0.022303, 0.075186,1,-0.008744, 0.007868,-0.000445,1,-0.087026,-0.894298, 9.765400,1,1
1778777005577,  1699.449,  1699.449, 0.003196, 0.091471,-0.978347, 0.000015, 0.000927,-0.009749,-0.056088, 0.002714, 0.171088,1, 0.008570,-0.004115, 0.000485,1,-0.087304,-0.894045, 9.765421,1,1
1778777005598,  1699.474,  1699.469, 0.001351, 0.094095,-0.990144, 0.000032, 0.000928,-0.009939, 0.050256,-0.046848,-0.128033,1,-0.001143,-0.000127,-0.001036,1,-0.086527,-0.893092, 9.765515,1,1
1778777005621,  1699.499,  1699.494, 0.008028, 0.091059,-0.989252, 0.000057, 0.000919,-0.009859,-0.008530,-0.000974, 0.064182,1, 0.005850,-0.004697, 0.001212,1,-0.087113,-0.893777, 9.765448,1,1
1778777005647,  1699.519,  1699.519, 0.018734, 0.086738,-1.004176, 0.000204, 0.000849,-0.010072, 0.096916,-0.042832,-0.082119,1,-0.005693, 0.004872,-0.001195,1,-0.086951,-0.893616, 9.765463,1,1
1778777005669,  1699.544,  1699.539, 0.007564, 0.090237,-0.991061, 0.000053, 0.000911,-0.009860,-0.091094, 0.055031, 0.236674,1,-0.000926, 0.003965, 0.000631,1,-0.088509,-0.894897, 9.765332,1,1
1778777005691,  1699.569,  1699.564, 0.015757, 0.088323,-1.008765, 0.000173, 0.000866,-0.010111, 0.067234,-0.027605,-0.127163,1,-0.005094, 0.001572,-0.001183,1,-0.087331,-0.893921, 9.765432,1,1
1778777005717,  1699.589,  1699.589, 0.003724, 0.095804,-0.974949, 0.000024, 0.000971,-0.009742,-0.051617, 0.044664, 0.204351,1,-0.000098, 0.002169, 0.000851,1,-0.088209,-0.894859, 9.765338,1,1
1778777005739,  1699.614,  1699.609, 0.014429, 0.089908,-0.998670, 0.000169, 0.000883,-0.010014, 0.112344,-0.061766,-0.082836,1, 0.004432,-0.003340,-0.000570,1,-0.087341,-0.893658, 9.765456,1,1
1778777005761,  1699.639,  1699.634,-0.002786, 0.095547,-0.977697,-0.000037, 0.000966,-0.009765,-0.115530, 0.042253, 0.177417,1, 0.003397,-0.000889, 0.001008,1,-0.088188,-0.894640, 9.765359,1,1
1778777005787,  1699.659,  1699.659, 0.016264, 0.084710,-1.013384, 0.000160, 0.000848,-0.010130, 0.072604,-0.062620,-0.172410,1, 0.004775,-0.007365,-0.000694,1,-0.086662,-0.893197, 9.765504,1,1
1778777005809,  1699.684,  1699.679, 0.000634, 0.095142,-0.968214, 0.000001, 0.000963,-0.009671,-0.061424, 0.058161, 0.172700,1,-0.007730, 0.005855,-0.000806,1,-0.087163,-0.894508, 9.765380,1,1
1778777005832,  1699.709,  1699.699, 0.015263, 0.084009,-1.009116, 0.000151, 0.000839,-0.010074,-0.061424, 0.058161, 0.172700,1,-0.007730, 0.005855,-0.000806,1,-0.087163,-0.894508, 9.765380,1,1
1778777005857,  1699.729,  1699.729,-0.002434, 0.096038,-0.988155,-0.000018, 0.000954,-0.009904,-0.111352, 0.047656, 0.074916,1,-0.007660, 0.010284, 0.000237,1,-0.087805,-0.894397, 9.765385,1,1
1778777005879,  1699.754,  1699.749, 0.024671, 0.083839,-1.007704, 0.000246, 0.000844,-0.010082, 0.027278,-0.027920,-0.014531,1, 0.003802,-0.000140, 0.001928,1,-0.088209,-0.894160, 9.765402,1,1
1778777005906,  1699.779,  1699.779, 0.003547, 0.094527,-0.973727, 0.000050, 0.000946,-0.009761,-0.054556, 0.031494, 0.216266,1,-0.007436, 0.010904, 0.000720,1,-0.089678,-0.895734, 9.765244,1,1
1778777005927,  1699.799,  1699.799, 0.008206, 0.087867,-0.996512, 0.000069, 0.000892,-0.009916,-0.009052,-0.033082,-0.007114,1, 0.011924,-0.009200, 0.000377,1,-0.089240,-0.894393, 9.765371,1,1
1778777005949,  1699.824,  1699.819, 0.001933, 0.095984,-0.977035, 0.000030, 0.000953,-0.009819, 0.043629,-0.022395,-0.118879,1,-0.007286, 0.003984,-0.001631,1,-0.088584,-0.894121, 9.765403,1,1
1778777005976,  1699.849,  1699.849, 0.012937, 0.087008,-0.990537, 0.000108, 0.000877,-0.009867, 0.037629,-0.041513, 0.051491,1, 0.008131,-0.005432, 0.001089,1,-0.089073,-0.894513, 9.765362,1,1
1778777005998,  1699.874,  1699.869,-0.002025, 0.097405,-0.979887,-0.000008, 0.000959,-0.009823, 0.055417,-0.015537,-0.056884,1,-0.007867, 0.003685,-0.001727,1,-0.089176,-0.894839, 9.765331,1,1
1778777006019,  1699.894,  1699.889, 0.009148, 0.088267,-0.997156, 0.000067, 0.000891,-0.009930,-0.126720, 0.042247, 0.178984,1, 0.002869,-0.002843, 0.000996,1,-0.089666,-0.895618, 9.765255,1,1
1778777006046,  1699.919,  1699.919, 0.017443, 0.088456,-1.003446, 0.000193, 0.000876,-0.010066, 0.082998,-0.027170,-0.075079,1,-0.005411, 0.001809,-0.001488,1,-0.088112,-0.894795, 9.765345,1,1
1778777006068,  1699.944,  1699.939, 0.011768, 0.087153,-0.992356, 0.000100, 0.000890,-0.009882,-0.076743, 0.014462, 0.244412,1, 0.003187, 0.002081, 0.001049,1,-0.089053,-0.895237, 9.765296,1,1
1778777006089,  1699.964,  1699.959, 0.009037, 0.087245,-1.002655, 0.000117, 0.000864,-0.010067, 0.087565,-0.087373,-0.147556,1, 0.002969,-0.001666, 0.000069,1,-0.088297,-0.893923, 9.765423,1,1
1778777006116,  1699.989,  1699.989,-0.005574, 0.093565,-0.976660,-0.000065, 0.000950,-0.009750,-0.143960, 0.021845, 0.187483,1, 0.000865,-0.002764, 0.001116,1,-0.089217,-0.895686, 9.765253,1,1
1778777006138,  1700.014,  1700.009, 0.015975, 0.089102,-0.997476, 0.000185, 0.000876,-0.010018, 0.113110,-0.092005,-0.148179,1, 0.000635,-0.004426,-0.000283,1,-0.087774,-0.894392, 9.765385,1,1
1778777006159,  1700.034,  1700.029,-0.002538, 0.094722,-0.967285,-0.000029, 0.000953,-0.009657,-0.072546, 0.051352, 0.224512,1,-0.009349, 0.007997,-0.000120,1,-0.088836,-0.896153, 9.765214,1,1
1778777006186,  1700.059,  1700.059, 0.015127, 0.083918,-1.011855, 0.000148, 0.000837,-0.010108, 0.060240,-0.072369,-0.157608,1, 0.003408,-0.006536,-0.000870,1,-0.087901,-0.895214, 9.765308,1,1
1778777006208,  1700.084,  1700.079, 0.000757, 0.097634,-0.976760,-0.000011, 0.000984,-0.009751,-0.087649, 0.078841, 0.114455,1,-0.010440, 0.005733,-0.000171,1,-0.088472,-0.896984, 9.765141,1,1
1778777006229,  1700.104,  1700.099, 0.025322, 0.087298,-1.005840, 0.000248, 0.000874,-0.010052, 0.067633, 0.012511, 0.036834,1, 0.002539,-0.003508, 0.000983,1,-0.088413,-0.897084, 9.765132,1,1
1778777006256,  1700.129,  1700.129, 0.002410, 0.101713,-0.974146, 0.000044, 0.001008,-0.009767,-0.065839, 0.098853, 0.211874,1,-0.009289, 0.010137, 0.000381,1,-0.089787,-0.898904, 9.764953,1,1
1778777006278,  1700.154,  1700.149, 0.017839, 0.090200,-1.019394, 0.000171, 0.000904,-0.010185,-0.025816, 0.046031,-0.011321,1, 0.009945,-0.007171, 0.001509,1,-0.089541,-0.897948, 9.765042,1,1
1778777006299,  1700.174,  1700.169, 0.004400, 0.102548,-0.980946, 0.000065, 0.001015,-0.009856, 0.064099, 0.033058,-0.143799,1,-0.004470, 0.001860,-0.000937,1,-0.088820,-0.897648, 9.765077,1,1
1778777006326,  1700.199,  1700.199, 0.012081, 0.093753,-0.983886, 0.000101, 0.000949,-0.009804, 0.028983, 0.021945, 0.116463,1, 0.011115,-0.004945, 0.000340,1,-0.089340,-0.897111, 9.765121,1,1
1778777006348,  1700.224,  1700.219,-0.002470, 0.096405,-0.988074,-0.000006, 0.000954,-0.009912, 0.027652,-0.008838,-0.093501,1, 0.001887, 0.001571,-0.001657,1,-0.088996,-0.896611, 9.765170,1,1
1778777006369,  1700.244,  1700.239, 0.005426, 0.087958,-0.999950, 0.000024, 0.000890,-0.009962,-0.168499, 0.043021, 0.127440,1, 0.005895,-0.001224, 0.001398,1,-0.089520,-0.896278, 9.765196,1,1
1778777006396,  1700.269,  1700.269, 0.019336, 0.085374,-1.006110, 0.000210, 0.000836,-0.010092, 0.101318,-0.057109,-0.101187,1,-0.002441, 0.002753,-0.000353,1,-0.088391,-0.894413, 9.765377,1,1
1778777006418,  1700.294,  1700.289, 0.009878, 0.084598,-0.989060, 0.000079, 0.000862,-0.009837,-0.082344, 0.007453, 0.281767,1, 0.001542, 0.002931, 0.000960,1,-0.089687,-0.895110, 9.765302,1,1
1778777006441,  1700.314,  1700.314, 0.013500, 0.081253,-1.010038, 0.000153, 0.000798,-0.010131, 0.044146,-0.096352,-0.139593,1,-0.002793,-0.000296,-0.001888,1,-0.088224,-0.893255, 9.765485,1,1
1778777006467,  1700.339,  1700.339,-0.001322, 0.089505,-0.974749,-0.000021, 0.000909,-0.009744,-0.101356,-0.016164, 0.206399,1, 0.000166,-0.002364, 0.000192,1,-0.088316,-0.893901, 9.765425,1,1
1778777006488,  1700.364,  1700.359, 0.019585, 0.079673,-0.997564, 0.000219, 0.000782,-0.010009, 0.137794,-0.158953,-0.085595,1, 0.002096,-0.004399,-0.000297,1,-0.087059,-0.892971, 9.765521,1,1
1778777006511,  1700.384,  1700.384,-0.000935, 0.091421,-0.970876,-0.000014, 0.000919,-0.009699,-0.097309, 0.001584, 0.244292,1,-0.004411, 0.001848, 0.000676,1,-0.088204,-0.895086, 9.765318,1,1
1778777006537,  1700.409,  1700.409, 0.017930, 0.082810,-1.007712, 0.000172, 0.000824,-0.010066, 0.088358,-0.082069,-0.116871,1,-0.002590,-0.004534, 0.000559,1,-0.087342,-0.893805, 9.765443,1,1
1778777006558,  1700.434,  1700.429,-0.000576, 0.100780,-0.969518,-0.000014, 0.001009,-0.009683,-0.046392, 0.067891, 0.157005,1,-0.013452, 0.007142, 0.000449,1,-0.088089,-0.896230, 9.765214,1,1
1778777006581,  1700.454,  1700.454, 0.020531, 0.088740,-1.009988, 0.000200, 0.000884,-0.010077, 0.113582,-0.025707,-0.139359,1, 0.004364,-0.004145,-0.000227,1,-0.087628,-0.895812, 9.765256,1,1
1778777006607,  1700.479,  1700.479, 0.000552, 0.103269,-0.981592, 0.000024, 0.001022,-0.009847,-0.082952, 0.115979, 0.139034,1,-0.007602, 0.007526,-0.000306,1,-0.088600,-0.896983, 9.765140,1,1
1778777006628,  1700.504,  1700.499, 0.016877, 0.088033,-1.015823, 0.000161, 0.000885,-0.010138,-0.042353, 0.030424, 0.026654,1, 0.010359,-0.007017, 0.000147,1,-0.088136,-0.896110, 9.765224,1,1
1778777006651,  1700.524,  1700.524,-0.000003, 0.100452,-0.985005, 0.000019, 0.000998,-0.009892,-0.088004, 0.089167, 0.105644,1,-0.005866, 0.007214,-0.000192,1,-0.088201,-0.896109, 9.765224,1,1
1778777006677,  1700.549,  1700.549, 0.007055, 0.093540,-0.990923, 0.000048, 0.000954,-0.009874,-0.019287, 0.021557, 0.047622,1, 0.007847,-0.003614, 0.001007,1,-0.088360,-0.895517, 9.765277,1,1
1778777006698,  1700.574,  1700.569,-0.001603, 0.096969,-0.982724, 0.000005, 0.000960,-0.009864, 0.037333,-0.002268,-0.100663,1,-0.002770, 0.005526,-0.000153,1,-0.088369,-0.895115, 9.765313,1,1
1778777006721,  1700.594,  1700.594, 0.007771, 0.090438,-0.994691, 0.000050, 0.000916,-0.009905,-0.012793,-0.008099, 0.010732,1, 0.010039,-0.008364, 0.000332,1,-0.088742,-0.894680, 9.765349,1,1
1778777006747,  1700.619,  1700.619, 0.016157, 0.087089,-1.002243, 0.000180, 0.000853,-0.010064, 0.070959,-0.040909,-0.063314,1,-0.003612, 0.001319,-0.000949,1,-0.087511,-0.895090, 9.765324,1,1
1778777006768,  1700.644,  1700.639, 0.013564, 0.084526,-0.991789, 0.000110, 0.000858,-0.009871,-0.078351, 0.007196, 0.261996,1, 0.001787,-0.000226, 0.000531,1,-0.088205,-0.895559, 9.765274,1,1
1778777006791,  1700.669,  1700.664, 0.015592, 0.085147,-1.002126, 0.000177, 0.000835,-0.010053, 0.065362,-0.059294,-0.062106,1,-0.007075, 0.005779,-0.001507,1,-0.087714,-0.894521, 9.765373,1,1
1778777006817,  1700.689,  1700.689, 0.001635, 0.092593,-0.972246, 0.000000, 0.000938,-0.009700,-0.072563, 0.012174, 0.230763,1,-0.001255, 0.001015, 0.001209,1,-0.088636,-0.895887, 9.765240,1,1
1778777006839,  1700.714,  1700.709, 0.017369, 0.087117,-0.998307, 0.000200, 0.000855,-0.010023, 0.168862,-0.119118,-0.141344,1, 0.001279,-0.002940,-0.000076,1,-0.087731,-0.894986, 9.765331,1,1
1778777006861,  1700.739,  1700.734, 0.000986, 0.094201,-0.973233, 0.000001, 0.000953,-0.009711,-0.078906, 0.027596, 0.221058,1, 0.003499,-0.002107,-0.000203,1,-0.088506,-0.896092, 9.765223,1,1
1778777006887,  1700.759,  1700.759, 0.018131, 0.082494,-1.013401, 0.000183, 0.000821,-0.010138, 0.090602,-0.085862,-0.172725,1, 0.002994,-0.004552,-0.000404,1,-0.087064,-0.894754, 9.765358,1,1
1778777006909,  1700.784,  1700.779,-0.001813, 0.095973,-0.977803,-0.000037, 0.000967,-0.009759,-0.119087, 0.065046, 0.174198,1,-0.006637, 0.005527,-0.000044,1,-0.087838,-0.896021, 9.765235,1,1
1778777006932,  1700.809,  1700.804, 0.018394, 0.085954,-1.015338, 0.000188, 0.000848,-0.010157, 0.093114,-0.051756,-0.191697,1,-0.000511,-0.002379,-0.001227,1,-0.087332,-0.894456, 9.765383,1,1
1778777006957,  1700.829,  1700.829,-0.005547, 0.100926,-0.975260,-0.000043, 0.001000,-0.009771,-0.142788, 0.093866, 0.201204,1,-0.007450, 0.006237,-0.000515,1,-0.088582,-0.896111, 9.765220,1,1
1778777006979,  1700.849,  1700.849, 0.011226, 0.088501,-1.003465, 0.000089, 0.000893,-0.009992, 0.022093,-0.027259,-0.075318,1, 0.008832,-0.007714, 0.000837,1,-0.087758,-0.894883, 9.765340,1,1
1778777007002,  1700.879,  1700.874,-0.002070, 0.100757,-0.974734,-0.000019, 0.001008,-0.009761,-0.108639, 0.092409, 0.206389,1,-0.003913, 0.006053, 0.000835,1,-0.088529,-0.895804, 9.765248,1,1
1778777007027,  1700.899,  1700.899, 0.017158, 0.087514,-0.999949, 0.000154, 0.000886,-0.009965, 0.080340,-0.036657,-0.040809,1, 0.007652,-0.005670, 0.000518,1,-0.087748,-0.894643, 9.765362,1,1
1778777007049,  1700.924,  1700.919,-0.001930, 0.099147,-0.972769,-0.000012, 0.000993,-0.009737,-0.004668, 0.020220, 0.059822,1,-0.009166, 0.009591, 0.000261,1,-0.088622,-0.895571, 9.765269,1,1
1778777007072,  1700.949,  1700.944, 0.017901, 0.086977,-1.004363, 0.000164, 0.000879,-0.010022, 0.086694,-0.041976,-0.084110,1, 0.007211,-0.005907, 0.000968,1,-0.088674,-0.894702, 9.765348,1,1
1778777007097,  1700.969,  1700.969, 0.010390, 0.092956,-0.988134, 0.000125, 0.000916,-0.009925, 0.013011, 0.016535, 0.075030,1,-0.005945, 0.005957,-0.000615,1,-0.089062,-0.895242, 9.765295,1,1
1778777007119,  1700.994,  1700.989, 0.018895, 0.084473,-1.003618, 0.000180, 0.000850,-0.010011,-0.007757, 0.005159, 0.148009,1, 0.008564,-0.003809, 0.000537,1,-0.089368,-0.894792, 9.765334,1,1
1778777007146,  1701.019,  1701.019, 0.005271, 0.091798,-0.989173, 0.000074, 0.000906,-0.009926,-0.037113, 0.005661, 0.064888,1,-0.007148, 0.003674,-0.000539,1,-0.088921,-0.894802, 9.765337,1,1
1778777007168,  1701.039,  1701.039, 0.004351, 0.088699,-0.988497, 0.000022, 0.000898,-0.009847,-0.046086,-0.024981, 0.071496,1, 0.006213,-0.006633, 0.001135,1,-0.088549,-0.894627, 9.765356,1,1
1778777007189,  1701.064,  1701.059, 0.006044, 0.091428,-0.987738, 0.000082, 0.000908,-0.009912, 0.092033,-0.075498,-0.134546,1,-0.003223, 0.000326,-0.001740,1,-0.087611,-0.894188, 9.765405,1,1
1778777007216,  1701.089,  1701.089, 0.002817, 0.088580,-0.983208, 0.000011, 0.000902,-0.009788,-0.060574,-0.026417, 0.123342,1, 0.006457,-0.004888, 0.000703,1,-0.088049,-0.894891, 9.765337,1,1
1778777007238,  1701.114,  1701.109, 0.001659, 0.093039,-0.990227, 0.000038, 0.000923,-0.009942, 0.057472,-0.058638,-0.150023,1,-0.002245,-0.000531,-0.001162,1,-0.087031,-0.894253, 9.765405,1,1
1778777007259,  1701.134,  1701.129, 0.004127, 0.091512,-0.985988, 0.000018, 0.000926,-0.009830,-0.151135, 0.055324, 0.214576,1,-0.003056, 0.003652, 0.000824,1,-0.087934,-0.895516, 9.765281,1,1
1778777007286,  1701.159,  1701.159, 0.019636, 0.088921,-1.009625, 0.000213, 0.000873,-0.010123, 0.105242,-0.022745,-0.135689,1,-0.005779, 0.004294,-0.000994,1,-0.087448,-0.894945, 9.765337,1,1
1778777007308,  1701.184,  1701.179, 0.002749, 0.094780,-0.982850, 0.000002, 0.000953,-0.009785,-0.134311, 0.081379, 0.274195,1,-0.003408, 0.006521, 0.001014,1,-0.089322,-0.896671, 9.765162,1,1
1778777007329,  1701.204,  1701.199, 0.019805, 0.089148,-1.015212, 0.000207, 0.000876,-0.010176, 0.076401,-0.040444,-0.160328,1, 0.007966,-0.007750, 0.000581,1,-0.088186,-0.895209, 9.765306,1,1
1778777007356,  1701.229,  1701.229, 0.000007, 0.099595,-0.970420,-0.000003, 0.001002,-0.009700,-0.088731, 0.080345, 0.248623,1,-0.002421, 0.004757, 0.001317,1,-0.088947,-0.896423, 9.765188,1,1
1778777007378,  1701.254,  1701.249, 0.018487, 0.087632,-1.006665, 0.000203, 0.000862,-0.010085, 0.118874,-0.059634,-0.092998,1, 0.007398,-0.003016, 0.000109,1,-0.088414,-0.895072, 9.765317,1,1
1778777007399,  1701.274,  1701.269,-0.004356, 0.098436,-0.972871,-0.000049, 0.000994,-0.009720,-0.058372, 0.042909, 0.099536,1,-0.008921, 0.008303,-0.000631,1,-0.089390,-0.896148, 9.765209,1,1
1778777007426,  1701.299,  1701.299, 0.020432, 0.084738,-1.011908, 0.000192, 0.000856,-0.010107, 0.111788,-0.064093,-0.158111,1, 0.006384,-0.006990, 0.000083,1,-0.088364,-0.894887, 9.765334,1,1
1778777007448,  1701.324,  1701.319, 0.001468, 0.096866,-0.964362, 0.000014, 0.000975,-0.009645,-0.011130, 0.023420, 0.156638,1,-0.008284, 0.006327,-0.000857,1,-0.088909,-0.896091, 9.765219,1,1
1778777007469,  1701.344,  1701.339, 0.016116, 0.083470,-1.005790, 0.000156, 0.000845,-0.010036,-0.011005,-0.006972, 0.142343,1, 0.008417,-0.006970, 0.000917,1,-0.088575,-0.895532, 9.765273,1,1
1778777007496,  1701.369,  1701.369,-0.000657, 0.092541,-0.990504, 0.000012, 0.000913,-0.009934,-0.094281, 0.012558, 0.051809,1,-0.004015, 0.002264,-0.001241,1,-0.087907,-0.895081, 9.765321,1,1
1778777007518,  1701.394,  1701.389, 0.019395, 0.081793,-1.009786, 0.000183, 0.000822,-0.010082,-0.027147,-0.011499, 0.021244,1, 0.007684,-0.007041, 0.000163,1,-0.087275,-0.894456, 9.765384,1,1
1778777007540,  1701.414,  1701.409, 0.003764, 0.093140,-0.981500, 0.000056, 0.000924,-0.009845, 0.085808,-0.046755,-0.080634,1,-0.005149, 0.002924,-0.002084,1,-0.087049,-0.894180, 9.765410,1,1
1778777007566,  1701.439,  1701.439, 0.004412, 0.086656,-0.992645, 0.000022, 0.000881,-0.009877,-0.044737,-0.044910, 0.030832,1, 0.008888,-0.005451, 0.000566,1,-0.087840,-0.894435, 9.765381,1,1
1778777007588,  1701.464,  1701.459, 0.004579, 0.095400,-0.986612, 0.000061, 0.000950,-0.009906, 0.059316,-0.038630,-0.166938,1,-0.006036, 0.002292,-0.001027,1,-0.087309,-0.894248, 9.765402,1,1
1778777007610,  1701.484,  1701.479, 0.011647, 0.089210,-0.982810, 0.000098, 0.000906,-0.009797,-0.072849, 0.048876, 0.239128,1,-0.005684, 0.004310, 0.001318,1,-0.088422,-0.895953, 9.765236,1,1
1778777007637,  1701.509,  1701.509, 0.016395, 0.090189,-1.001650, 0.000184, 0.000887,-0.010042, 0.072626,-0.011433,-0.057585,1,-0.007008, 0.003167,-0.000244,1,-0.088249,-0.896100, 9.765224,1,1
1778777007658,  1701.534,  1701.529, 0.003181, 0.097231,-0.993067, 0.000014, 0.000970,-0.009902,-0.155796, 0.047424, 0.202449,1,-0.001985, 0.003333, 0.001347,1,-0.089508,-0.897483, 9.765085,1,1
1778777007681,  1701.554,  1701.554, 0.018408, 0.090420,-1.008093, 0.000199, 0.000896,-0.010119, 0.091431,-0.009716,-0.120830,1,-0.004725, 0.006394,-0.000716,1,-0.089289,-0.896581, 9.765170,1,1
1778777007707,  1701.579,  1701.579,-0.000808, 0.097827,-0.961738,-0.000007, 0.000979,-0.009620,-0.098865, 0.061711, 0.333630,1, 0.000574, 0.005844, 0.000586,1,-0.091121,-0.897627, 9.765058,1,1
1778777007728,  1701.604,  1701.599, 0.012821, 0.089106,-1.012869, 0.000144, 0.000879,-0.010142, 0.070243,-0.060280,-0.102231,1, 0.010271,-0.006308,-0.001145,1,-0.090124,-0.895651, 9.765248,1,1
1778777007751,  1701.624,  1701.624,-0.007645, 0.095478,-0.982033,-0.000079, 0.000963,-0.009818,-0.166261, 0.040658, 0.134783,1, 0.002269, 0.005620,-0.000238,1,-0.091462,-0.895592, 9.765241,1,1
1778777007777,  1701.649,  1701.649, 0.014884, 0.086968,-1.009919, 0.000140, 0.000872,-0.010085, 0.054150,-0.041265,-0.138546,1, 0.008747, 0.004967,-0.001112,1,-0.091962,-0.893859, 9.765395,1,1
1778777007798,  1701.674,  1701.669, 0.000640, 0.091578,-0.973459, 0.000017, 0.000946,-0.009749,-0.034017, 0.017025, 0.073976,1, 0.000863, 0.022411,-0.001092,1,-0.095285,-0.893301, 9.765414,1,1
1778777007821,  1701.694,  1701.694, 0.014164, 0.085893,-1.006439, 0.000122, 0.000870,-0.010041, 0.040162,-0.048023,-0.104151,1, 0.014938, 0.008925,-0.002148,1,-0.099015,-0.889886, 9.765689,1,1
1778777007847,  1701.719,  1701.719, 0.020720, 0.092912,-0.995248, 0.000196, 0.000939,-0.010010, 0.101696, 0.022093, 0.005693,1, 0.002297, 0.019700,-0.001838,1,-0.102101,-0.888989, 9.765739,1,1
1778777007868,  1701.744,  1701.739, 0.005440, 0.091634,-0.978396, 0.000019, 0.000877,-0.009738,-0.099448,-0.140654, 0.355703,1, 0.003407, 0.023986, 0.004396,1,-0.107461,-0.885570, 9.765992,1,1
1778777007891,  1701.764,  1701.764, 0.006964, 0.089367,-1.030411, 0.000083, 0.000887,-0.010337,-0.040820,-0.006587,-0.338672,1, 0.010073, 0.014847,-0.000395,1,-0.109578,-0.882662, 9.766232,1,1
1778777007917,  1701.789,  1701.789, 0.017545, 0.087229,-0.975061, 0.000153, 0.000828,-0.009752, 0.058850,-0.026314, 0.204189,1, 0.004185, 0.002267, 0.020185,1,-0.113339,-0.881598, 9.766285,1,1
1778777007939,  1701.814,  1701.809, 0.029451, 0.087106,-0.993268, 0.000323, 0.000828,-0.009892, 0.053374,-0.022273, 0.046203,1, 0.022777, 0.022531,-0.002197,1,-0.115233,-0.878370, 9.766554,1,1
1778777007961,  1701.834,  1701.834,-0.002941, 0.082477,-0.973932,-0.000043, 0.000845,-0.009756,-0.149450,-0.065800, 0.215811,1, 0.017432, 0.023559, 0.005776,1,-0.121358,-0.874076, 9.766865,1,1
1778777007987,  1701.859,  1701.859, 0.018832, 0.087190,-1.009748, 0.000201, 0.000853,-0.010096, 0.062460,-0.016756,-0.135193,1, 0.012940,-0.000801, 0.000587,1,-0.122199,-0.871391, 9.767095,1,1
1778777008009,  1701.884,  1701.879, 0.015151, 0.081983,-0.968111, 0.000155, 0.000845,-0.009681, 0.098736,-0.009932, 0.135998,1, 0.001814, 0.016564, 0.001905,1,-0.125080,-0.870185, 9.767165,1,1
1778777008031,  1701.909,  1701.904, 0.024607, 0.091661,-0.999518, 0.000227, 0.000882,-0.009973, 0.116079, 0.030541,-0.034595,1, 0.006674,-0.001531,-0.003506,1,-0.125180,-0.868143, 9.767345,1,1
1778777008057,  1701.929,  1701.929, 0.000224, 0.091364,-0.989462, 0.000018, 0.000891,-0.009914,-0.123006, 0.028599, 0.064109,1,-0.002805,-0.000637,-0.001547,1,-0.125181,-0.867468, 9.767406,1,1
1778777008079,  1701.954,  1701.949, 0.020148, 0.092765,-1.009696, 0.000182, 0.000896,-0.010092, 0.017525,-0.069017, 0.009031,1, 0.002322,-0.004162,-0.002144,1,-0.124677,-0.866537, 9.767495,1,1
1778777008102,  1701.979,  1701.974, 0.006764, 0.093933,-0.972882, 0.000065, 0.000924,-0.009727,-0.059015, 0.053475, 0.226668,1,-0.006964, 0.006790,-0.000169,1,-0.125562,-0.867914, 9.767361,1,1
1778777008127,  1701.999,  1701.999, 0.014825, 0.083895,-0.989996, 0.000146, 0.000853,-0.009869, 0.019986,-0.044301, 0.058899,1, 0.009544,-0.005278,-0.001007,1,-0.125226,-0.866738, 9.767469,1,1
1778777008149,  1702.024,  1702.019, 0.004122, 0.093642,-0.975813, 0.000068, 0.000937,-0.009770,-0.028225, 0.016720, 0.037357,1,-0.001647, 0.011131, 0.001020,1,-0.126688,-0.865976, 9.767519,1,1
1778777008172,  1702.049,  1702.044, 0.015555, 0.084817,-0.998144, 0.000126, 0.000848,-0.009944, 0.025313,-0.034823,-0.020994,1, 0.000241,-0.001721,-0.000872,1,-0.127171,-0.866589, 9.767458,1,1
1778777008197,  1702.069,  1702.069, 0.011880, 0.093495,-0.995909, 0.000138, 0.000930,-0.009988,-0.011264, 0.049987, 0.000895,1,-0.003798, 0.007722,-0.001079,1,-0.128008,-0.867006, 9.767410,1,1
1778777008219,  1702.094,  1702.089, 0.009615, 0.079442,-0.999771, 0.000067, 0.000787,-0.009982, 0.025767, 0.054683, 0.074464,1, 0.006768,-0.003221, 0.009762,1,-0.128836,-0.866629, 9.767432,1,1
1778777008242,  1702.119,  1702.114, 0.015717, 0.091939,-0.994060, 0.000187, 0.000914,-0.009951, 0.025331, 0.036328, 0.019150,1,-0.002032,-0.002089, 0.000526,1,-0.128736,-0.865353, 9.767547,1,1
1778777008267,  1702.139,  1702.139, 0.015278, 0.085824,-0.986995, 0.000123, 0.000877,-0.009863, 0.021097,-0.024377, 0.088369,1,-0.005575, 0.001738, 0.002106,1,-0.128793,-0.866195, 9.767471,1,1
1778777008289,  1702.164,  1702.159, 0.013566, 0.091341,-0.992927, 0.000146, 0.000911,-0.009959, 0.091210,-0.019041,-0.085101,1,-0.010715, 0.000711, 0.001391,1,-0.128534,-0.867825, 9.767330,1,1
1778777008312,  1702.189,  1702.184, 0.005630, 0.089229,-0.991752, 0.000047, 0.000904,-0.009878,-0.073841, 0.004704, 0.041331,1,-0.001755,-0.008880, 0.002419,1,-0.128779,-0.870386, 9.767099,1,1
1778777008338,  1702.209,  1702.209, 0.020307, 0.087558,-1.011148, 0.000207, 0.000863,-0.010130, 0.071397,-0.012079,-0.148889,1,-0.007420, 0.000570, 0.000197,1,-0.127744,-0.870957, 9.767062,1,1
1778777008359,  1702.234,  1702.229, 0.016830, 0.085786,-0.976947, 0.000151, 0.000864,-0.009747,-0.033086, 0.016737, 0.234605,1,-0.005866, 0.001120, 0.001639,1,-0.128367,-0.872418, 9.766923,1,1
1778777008386,  1702.259,  1702.259, 0.019024, 0.086254,-0.995427, 0.000214, 0.000847,-0.009970, 0.059514,-0.027224, 0.005080,1,-0.007128,-0.001034, 0.000405,1,-0.127016,-0.873312, 9.766861,1,1
1778777008408,  1702.279,  1702.279,-0.004005, 0.090541,-0.978622,-0.000042, 0.000915,-0.009779,-0.166086, 0.013324, 0.169751,1,-0.003774,-0.006215, 0.002006,1,-0.126621,-0.874692, 9.766743,1,1
1778777008429,  1702.304,  1702.299, 0.020358, 0.086409,-1.006374, 0.000208, 0.000846,-0.010096, 0.027697,-0.085543,-0.172968,1,-0.002536,-0.010234, 0.000923,1,-0.124116,-0.874830, 9.766763,1,1
1778777008456,  1702.329,  1702.329, 0.005964, 0.092169,-0.964109, 0.000058, 0.000925,-0.009639,-0.066381, 0.026648, 0.311862,1,-0.004202, 0.003303, 0.001753,1,-0.124977,-0.877353, 9.766525,1,1
1778777008478,  1702.354,  1702.349, 0.013810, 0.086382,-1.010512, 0.000155, 0.000852,-0.010114, 0.059524,-0.061172,-0.058785,1, 0.003551,-0.005889, 0.000798,1,-0.124119,-0.876737, 9.766592,1,1
1778777008499,  1702.374,  1702.369,-0.000000, 0.094145,-0.988061,-0.000007, 0.000949,-0.009874,-0.095216, 0.031848,-0.006378,1,-0.006762, 0.003712, 0.001220,1,-0.124363,-0.877633, 9.766508,1,1
1778777008526,  1702.399,  1702.399, 0.026775, 0.082650,-1.012412, 0.000257, 0.000834,-0.010123, 0.139230,-0.067362,-0.161873,1,-0.003649,-0.002204, 0.000512,1,-0.123275,-0.877999, 9.766489,1,1
1778777008548,  1702.424,  1702.419, 0.002818, 0.093193,-0.969858, 0.000028, 0.000938,-0.009678,-0.015434, 0.034537, 0.217106,1,-0.005622, 0.005206, 0.001687,1,-0.124314,-0.879261, 9.766362,1,1
1778777008569,  1702.444,  1702.439, 0.017211, 0.083271,-1.013821, 0.000165, 0.000828,-0.010123,-0.048120,-0.033778, 0.039135,1, 0.004591,-0.009453, 0.000822,1,-0.123220,-0.878835, 9.766415,1,1
1778777008596,  1702.469,  1702.469, 0.007653, 0.097679,-0.988218, 0.000086, 0.000970,-0.009918,-0.047643, 0.077301, 0.075157,1,-0.013629, 0.003484, 0.001717,1,-0.122803,-0.881028, 9.766222,1,1
1778777008618,  1702.494,  1702.489, 0.029697, 0.085080,-1.000388, 0.000298, 0.000844,-0.010000, 0.094581, 0.002760, 0.066670,1,-0.003492,-0.006362, 0.001202,1,-0.122288,-0.882475, 9.766098,1,1
1778777008639,  1702.514,  1702.509, 0.006183, 0.097735,-0.977170, 0.000080, 0.000976,-0.009788, 0.082528, 0.017452, 0.027108,1,-0.007483, 0.003288,-0.000852,1,-0.122274,-0.883498, 9.766006,1,1
1778777008666,  1702.539,  1702.539, 0.011589, 0.086545,-1.003167, 0.000093, 0.000877,-0.010002,-0.007093,-0.033908,-0.071601,1, 0.006964,-0.014540, 0.001349,1,-0.120292,-0.882406, 9.766129,1,1
1778777008688,  1702.564,  1702.559, 0.016080, 0.096427,-0.978266, 0.000172, 0.000962,-0.009816, 0.098029, 0.010302,-0.068050,1,-0.014329,-0.001172, 0.000364,1,-0.118879,-0.883932, 9.766008,1,1
1778777008710,  1702.584,  1702.579, 0.016456, 0.088512,-0.982391, 0.000155, 0.000901,-0.009790,-0.005296, 0.038135, 0.272619,1,-0.009114,-0.003771, 0.003018,1,-0.118955,-0.886143, 9.765807,1,1
1778777008737,  1702.609,  1702.609, 0.009469, 0.094276,-1.002189, 0.000116, 0.000929,-0.010032,-0.024154, 0.037005,-0.062411,1,-0.006863,-0.007787, 0.000816,1,-0.116997,-0.887831, 9.765677,1,1
1778777008758,  1702.634,  1702.629, 0.005481, 0.087279,-0.998629, 0.000037, 0.000879,-0.009966,-0.169867, 0.012453, 0.059580,1,-0.002841,-0.010197, 0.002584,1,-0.115419,-0.888668, 9.765620,1,1
1778777008780,  1702.654,  1702.649, 0.014365, 0.090944,-0.994814, 0.000168, 0.000901,-0.009994, 0.051392,-0.052582,-0.107955,1,-0.004912,-0.005888, 0.000034,1,-0.113491,-0.889179, 9.765596,1,1
1778777008807,  1702.679,  1702.679, 0.000345, 0.090503,-0.966809,-0.000003, 0.000915,-0.009652,-0.110860,-0.003692, 0.284239,1,-0.001613,-0.002249, 0.001449,1,-0.114176,-0.891270, 9.765397,1,1
1778777008828,  1702.704,  1702.699, 0.007642, 0.090827,-1.007198, 0.000094, 0.000894,-0.010098, 0.033859,-0.067189,-0.169054,1, 0.000772,-0.005076,-0.000965,1,-0.112702,-0.890713, 9.765466,1,1
1778777008850,  1702.724,  1702.719, 0.003608, 0.091206,-0.984556, 0.000016, 0.000920,-0.009822,-0.120453, 0.056950, 0.088573,1,-0.008032, 0.004029, 0.000389,1,-0.113384,-0.892419, 9.765302,1,1
1778777008877,  1702.749,  1702.749, 0.024189, 0.081706,-1.005853, 0.000247, 0.000812,-0.010070, 0.124638,-0.091234,-0.098743,1,-0.002037, 0.002031,-0.001399,1,-0.112630,-0.892565, 9.765297,1,1
1778777008898,  1702.774,  1702.769, 0.001910, 0.090528,-0.985223, 0.000006, 0.000909,-0.009818, 0.017826,-0.019779, 0.073695,1,-0.005165, 0.006237,-0.000690,1,-0.113293,-0.893123, 9.765239,1,1
1778777008921,  1702.794,  1702.794, 0.022753, 0.085955,-1.014476, 0.000233, 0.000850,-0.010166, 0.110697,-0.049553,-0.183303,1,-0.006114, 0.000634, 0.000161,1,-0.112455,-0.892672, 9.765289,1,1
1778777008947,  1702.819,  1702.819, 0.010428, 0.097911,-0.970958, 0.000106, 0.000975,-0.009728,-0.010370, 0.065426, 0.243249,1,-0.012075, 0.003926, 0.002291,1,-0.112742,-0.895119, 9.765062,1,1
1778777008968,  1702.844,  1702.839, 0.020985, 0.090197,-1.002369, 0.000226, 0.000885,-0.010039, 0.131773,-0.043998,-0.006797,1, 0.000021,-0.005440, 0.000561,1,-0.112082,-0.895381, 9.765045,1,1
1778777008991,  1702.864,  1702.864,-0.004727, 0.098697,-0.978328,-0.000037, 0.000995,-0.009791,-0.158047, 0.071469, 0.170835,1,-0.000184,-0.006594, 0.000818,1,-0.111489,-0.896423, 9.764956,1,1
1778777009017,  1702.889,  1702.889, 0.020256, 0.084982,-1.008940, 0.000176, 0.000866,-0.010066, 0.089004,-0.062431,-0.129288,1, 0.003722,-0.012026,-0.001263,1,-0.109260,-0.895707, 9.765048,1,1
1778777009038,  1702.914,  1702.909, 0.007476, 0.096816,-0.965857, 0.000093, 0.000971,-0.009676, 0.054571, 0.041990, 0.089691,1,-0.010079, 0.005796, 0.000733,1,-0.109252,-0.897187, 9.764912,1,1
1778777009061,  1702.934,  1702.934, 0.015111, 0.082922,-0.995068, 0.000148, 0.000841,-0.009926, 0.039695,-0.084510, 0.006585,1, 0.003704,-0.009957, 0.001426,1,-0.108190,-0.897580, 9.764888,1,1
1778777009087,  1702.959,  1702.959, 0.003103, 0.094127,-0.996370, 0.000044, 0.000944,-0.009990,-0.076439, 0.024598,-0.006231,1,-0.006309,-0.004622, 0.000470,1,-0.106727,-0.898669, 9.764804,1,1
1778777009109,  1702.984,  1702.979, 0.018006, 0.083748,-1.006120, 0.000159, 0.000841,-0.010043,-0.061830,-0.016320, 0.041235,1, 0.001891,-0.009863, 0.001585,1,-0.105418,-0.899023, 9.764785,1,1
1778777009131,  1703.004,  1703.004, 0.013115, 0.094315,-0.987920, 0.000163, 0.000947,-0.009928, 0.023609, 0.024377, 0.076463,1,-0.008824, 0.006421, 0.001212,1,-0.105338,-0.900849, 9.764618,1,1
1778777009157,  1703.029,  1703.029, 0.000001, 0.089338,-0.976718,-0.000008, 0.000896,-0.009740,-0.105827,-0.025116, 0.186245,1, 0.005650,-0.005050, 0.000514,1,-0.105687,-0.901042, 9.764596,1,1
1778777009179,  1703.054,  1703.049, 0.003550, 0.093873,-1.003366, 0.000046, 0.000934,-0.010082, 0.001516,-0.057181,-0.243182,1,-0.001320,-0.007780,-0.002599,1,-0.103567,-0.899876, 9.764727,1,1
1778777009201,  1703.074,  1703.074, 0.009770, 0.089229,-0.981043, 0.000091, 0.000899,-0.009798,-0.007786,-0.026879, 0.143788,1,-0.003342,-0.007248, 0.000763,1,-0.103375,-0.902022, 9.764530,1,1
1778777009227,  1703.099,  1703.099, 0.024526, 0.089262,-0.994424, 0.000261, 0.000871,-0.009957, 0.137397,-0.027756, 0.012462,1,-0.011431, 0.002863,-0.001187,1,-0.103208,-0.903471, 9.764399,1,1
1778777009249,  1703.124,  1703.119,-0.001246, 0.091995,-0.992892,-0.000031, 0.000928,-0.009891,-0.145717, 0.037908, 0.213854,1,-0.001213,-0.002705, 0.000070,1,-0.103606,-0.904285, 9.764318,1,1
1778777009272,  1703.149,  1703.144, 0.017435, 0.090200,-1.015523, 0.000178, 0.000885,-0.010176, 0.069861,-0.019127,-0.194476,1,-0.009065,-0.001843,-0.000978,1,-0.101054,-0.903974, 9.764374,1,1
1778777009297,  1703.169,  1703.169, 0.008672, 0.098207,-0.966650, 0.000079, 0.000992,-0.009683,-0.017181, 0.057287, 0.284598,1,-0.008163, 0.006836, 0.002193,1,-0.102448,-0.906044, 9.764168,1,1
1778777009319,  1703.194,  1703.189, 0.016441, 0.095977,-1.002493, 0.000184, 0.000933,-0.010034, 0.042919, 0.026584, 0.211932,1, 0.000183,-0.000506, 0.001602,1,-0.102501,-0.906228, 9.764150,1,1
1778777009342,  1703.219,  1703.214,-0.005604, 0.099979,-0.986031,-0.000054, 0.001011,-0.009853,-0.157183, 0.074861, 0.094551,1, 0.002809,-0.006243, 0.001171,1,-0.102037,-0.905507, 9.764222,1,1
1778777009367,  1703.239,  1703.239, 0.021446, 0.087844,-1.011313, 0.000198, 0.000882,-0.010119, 0.109893,-0.043400,-0.153294,1,-0.000331,-0.005426,-0.000333,1,-0.100249,-0.904864, 9.764300,1,1
1778777009389,  1703.264,  1703.259, 0.001778, 0.098657,-0.964686, 0.000011, 0.000998,-0.009636,-0.020766, 0.073330, 0.206143,1,-0.009374, 0.008160, 0.000337,1,-0.101324,-0.906753, 9.764113,1,1
1778777009412,  1703.289,  1703.284, 0.017782, 0.086340,-1.014156, 0.000178, 0.000868,-0.010117, 0.073437,-0.058904,-0.181251,1, 0.006163,-0.008272,-0.000289,1,-0.100687,-0.905421, 9.764244,1,1
1778777009437,  1703.309,  1703.309,-0.000907, 0.098312,-0.985885,-0.000004, 0.000979,-0.009889,-0.109965, 0.057988, 0.095949,1,-0.004692, 0.005047, 0.000422,1,-0.101231,-0.906268, 9.764159,1,1
1778777009459,  1703.334,  1703.329, 0.023997, 0.082571,-1.009723, 0.000238, 0.000823,-0.010100, 0.022867,-0.055535, 0.007988,1, 0.007757,-0.010310, 0.001038,1,-0.099812,-0.905065, 9.764286,1,1
1778777009482,  1703.359,  1703.354, 0.003076, 0.094115,-0.973261, 0.000049, 0.000939,-0.009757,-0.070087, 0.016953, 0.219763,1,-0.003959, 0.006567, 0.000480,1,-0.100460,-0.906126, 9.764181,1,1
1778777009508,  1703.379,  1703.379, 0.008678, 0.085674,-0.997654, 0.000066, 0.000863,-0.009941,-0.014941,-0.065022,-0.019377,1, 0.006987,-0.006908,-0.000034,1,-0.099831,-0.904979, 9.764294,1,1
1778777009529,  1703.404,  1703.399, 0.001780, 0.095142,-0.978347, 0.000026, 0.000950,-0.009813, 0.010249,-0.013475,-0.067274,1,-0.008599, 0.002780,-0.000367,1,-0.099552,-0.905598, 9.764239,1,1
1778777009552,  1703.429,  1703.424, 0.015927, 0.085512,-0.993113, 0.000138, 0.000865,-0.009900, 0.056901,-0.067766, 0.025062,1, 0.003934,-0.005348, 0.000623,1,-0.099124,-0.906230, 9.764185,1,1
1778777009578,  1703.449,  1703.449, 0.012740, 0.091437,-0.994154, 0.000152, 0.000904,-0.009972, 0.025686,-0.010325, 0.014789,1,-0.008624, 0.005654,-0.000414,1,-0.099429,-0.907284, 9.764084,1,1
1778777009599,  1703.474,  1703.469, 0.012733, 0.087322,-1.002063, 0.000110, 0.000882,-0.009989,-0.088901, 0.021595, 0.158622,1, 0.003381,-0.003290, 0.001318,1,-0.099913,-0.907846, 9.764027,1,1
1778777009626,  1703.499,  1703.499, 0.013859, 0.095336,-0.996605, 0.000152, 0.000950,-0.009998, 0.036800, 0.027214,-0.009313,1,-0.007516, 0.004459,-0.000717,1,-0.099245,-0.907951, 9.764024,1,1
1778777009648,  1703.519,  1703.519, 0.003979, 0.095741,-0.978912, 0.000026, 0.000973,-0.009765,-0.060431, 0.030661, 0.164145,1, 0.004966,-0.003095, 0.001388,1,-0.099364,-0.908083, 9.764010,1,1
1778777009669,  1703.544,  1703.539, 0.009938, 0.096289,-0.998251, 0.000122, 0.000953,-0.010019, 0.091129,-0.037882,-0.124361,1,-0.001062, 0.000244,-0.001571,1,-0.098739,-0.907356, 9.764084,1,1
1778777009696,  1703.569,  1703.569, 0.001671, 0.096217,-0.980102, 0.000005, 0.000971,-0.009785,-0.083566, 0.035741, 0.152506,1, 0.005771,-0.002632, 0.000078,1,-0.099868,-0.907649, 9.764046,1,1
1778777009718,  1703.594,  1703.589, 0.015484, 0.096967,-0.992425, 0.000169, 0.000961,-0.009961, 0.118511,-0.033241,-0.125200,1,-0.004299,-0.003977, 0.000013,1,-0.098553,-0.907105, 9.764110,1,1
1778777009739,  1703.614,  1703.609, 0.003284, 0.094378,-0.976108, 0.000028, 0.000951,-0.009735,-0.042374, 0.062426, 0.223625,1,-0.007916, 0.004397, 0.001437,1,-0.099691,-0.909301, 9.763893,1,1
1778777009766,  1703.639,  1703.639, 0.014542, 0.087730,-1.009097, 0.000147, 0.000866,-0.010090, 0.044176,-0.048964,-0.131960,1,-0.004032,-0.003186,-0.001728,1,-0.098324,-0.909429, 9.763896,1,1
1778777009788,  1703.664,  1703.659,-0.003115, 0.093449,-0.979846,-0.000053, 0.000944,-0.009778,-0.157703, 0.054004, 0.141475,1,-0.003393, 0.003001,-0.000837,1,-0.098762,-0.910619, 9.763781,1,1
1778777009810,  1703.684,  1703.679, 0.019080, 0.085293,-1.009472, 0.000194, 0.000842,-0.010102, 0.006402,-0.064356,-0.026159,1, 0.011046,-0.004385,-0.002164,1,-0.098159,-0.908940, 9.763943,1,1
1778777009836,  1703.709,  1703.709, 0.002512, 0.095593,-0.973626, 0.000042, 0.000955,-0.009758,-0.075315, 0.028921, 0.215947,1, 0.001497, 0.011184,-0.001214,1,-0.100293,-0.908484, 9.763964,1,1
1778777009858,  1703.734,  1703.729, 0.021174, 0.084004,-1.012887, 0.000214, 0.000832,-0.010129, 0.025279,-0.061840, 0.006756,1, 0.009830,-0.002401,-0.000974,1,-0.100442,-0.906657, 9.764132,1,1
1778777009880,  1703.754,  1703.749, 0.002258, 0.096568,-0.978602, 0.000029, 0.000956,-0.009814, 0.031919,-0.015557,-0.058814,1,-0.004846, 0.005943,-0.001857,1,-0.100791,-0.906598, 9.764133,1,1
1778777009907,  1703.779,  1703.779, 0.018564, 0.089619,-0.998756, 0.000168, 0.000903,-0.009954, 0.080484,-0.026903,-0.030248,1, 0.009713,-0.004891,-0.000544,1,-0.101411,-0.905466, 9.764233,1,1
1778777009928,  1703.804,  1703.799, 0.004692, 0.098802,-0.974344, 0.000059, 0.000983,-0.009761, 0.085947, 0.013656, 0.001382,1,-0.005690, 0.007748,-0.001166,1,-0.102080,-0.905630, 9.764210,1,1
1778777009950,  1703.824,  1703.819, 0.014449, 0.088952,-1.002201, 0.000122, 0.000900,-0.009979,-0.077002, 0.032513, 0.175177,1, 0.007443,-0.003331, 0.000427,1,-0.102642,-0.904978, 9.764265,1,1
1778777009977,  1703.849,  1703.849, 0.013575, 0.095763,-1.002192, 0.000152, 0.000946,-0.010062, 0.031845, 0.034866,-0.063797,1,-0.008576, 0.002677,-0.000353,1,-0.101366,-0.904515, 9.764321,1,1
1778777009998,  1703.874,  1703.869, 0.012806, 0.091017,-0.995433, 0.000113, 0.000924,-0.009923,-0.088980, 0.050658, 0.193405,1,-0.001562,-0.002781, 0.001173,1,-0.101570,-0.905668, 9.764212,1,1
1778777010020,  1703.894,  1703.889, 0.007370, 0.095538,-0.999821, 0.000096, 0.000941,-0.010033, 0.072324,-0.056069,-0.131636,1,-0.004636,-0.000160,-0.000216,1,-0.100781,-0.905489, 9.764236,1,1
1778777010047,  1703.919,  1703.919,-0.003638, 0.097463,-0.979254,-0.000047, 0.000984,-0.009770,-0.138283, 0.048401, 0.160843,1, 0.000405, 0.000350, 0.001843,1,-0.102624,-0.907368, 9.764043,1,1
1778777010068,  1703.944,  1703.939, 0.015427, 0.090376,-0.992239, 0.000173, 0.000888,-0.009956, 0.068382,-0.078792,-0.103292,1,-0.002980, 0.001598, 0.000109,1,-0.102283,-0.907210, 9.764061,1,1
1778777010090,  1703.964,  1703.959, 0.003000, 0.093463,-0.968673, 0.000017, 0.000942,-0.009668,-0.065302, 0.029628, 0.241335,1,-0.003945, 0.008995, 0.000207,1,-0.103899,-0.908501, 9.763925,1,1
1778777010117,  1703.989,  1703.989, 0.020312, 0.084455,-1.004938, 0.000201, 0.000840,-0.010041, 0.094943,-0.079085,-0.091046,1, 0.002901, 0.000595,-0.001350,1,-0.104265,-0.907215, 9.764040,1,1
1778777010138,  1704.014,  1704.009, 0.003385, 0.094150,-0.975576, 0.000027, 0.000959,-0.009743,-0.048392, 0.056835, 0.155477,1,-0.003670, 0.008317, 0.000930,1,-0.105500,-0.908080, 9.763947,1,1
1778777010161,  1704.034,  1704.034, 0.025046, 0.085710,-1.011482, 0.000238, 0.000854,-0.010092, 0.140344,-0.065746,-0.155136,1, 0.007965,-0.001636,-0.000204,1,-0.105223,-0.906029, 9.764140,1,1
1778777010187,  1704.059,  1704.059, 0.007874, 0.096766,-0.986646, 0.000094, 0.000958,-0.009894,-0.028802, 0.043004, 0.088443,1,-0.002435, 0.008101, 0.000778,1,-0.106277,-0.906026, 9.764129,1,1
1778777010208,  1704.084,  1704.079, 0.019464, 0.085154,-1.014119, 0.000191, 0.000851,-0.010130, 0.013232,-0.039252, 0.015821,1, 0.010322,-0.007196, 0.001010,1,-0.106014,-0.904597, 9.764264,1,1
1778777010231,  1704.104,  1704.104, 0.008494, 0.100105,-0.990829, 0.000100, 0.000988,-0.009931,-0.022677, 0.077130, 0.047555,1,-0.004970, 0.004081, 0.000308,1,-0.106107,-0.904715, 9.764252,1,1
1778777010257,  1704.129,  1704.129, 0.012399, 0.094217,-0.994726, 0.000103, 0.000957,-0.009928, 0.015728, 0.019248, 0.009324,1, 0.002035,-0.004231, 0.001134,1,-0.105732,-0.904638, 9.764263,1,1
1778777010279,  1704.154,  1704.149, 0.002045, 0.094173,-0.981214, 0.000042, 0.000935,-0.009838, 0.059842,-0.018774,-0.046151,1,-0.005690,-0.001550,-0.000574,1,-0.105079,-0.905376, 9.764202,1,1
1778777010301,  1704.174,  1704.174, 0.001730, 0.090126,-0.989256,-0.000009, 0.000913,-0.009861,-0.087618,-0.021878, 0.062892,1, 0.005378,-0.005443,-0.000758,1,-0.104416,-0.905547, 9.764194,1,1
1778777010327,  1704.199,  1704.199, 0.015210, 0.088653,-1.005427, 0.000161, 0.000869,-0.010081, 0.044912,-0.036261,-0.095690,1,-0.008051, 0.005816,-0.001212,1,-0.104421,-0.905900, 9.764160,1,1
1778777010349,  1704.224,  1704.219, 0.008665, 0.091478,-0.975473, 0.000070, 0.000930,-0.009707,-0.097792, 0.063328, 0.343082,1,-0.004427, 0.007583, 0.001225,1,-0.106589,-0.907621, 9.763977,1,1
1778777010371,  1704.244,  1704.244, 0.019882, 0.089035,-1.007607, 0.000211, 0.000873,-0.010090, 0.089113,-0.032509,-0.117084,1, 0.003214,-0.000151,-0.000855,1,-0.105859,-0.905541, 9.764178,1,1
1778777010397,  1704.269,  1704.269,-0.002631, 0.099124,-0.973583,-0.000021, 0.000996,-0.009743,-0.132377, 0.066388, 0.216564,1, 0.000227, 0.003377, 0.001766,1,-0.106681,-0.905677, 9.764156,1,1
1778777010419,  1704.294,  1704.289, 0.020650, 0.088772,-1.008662, 0.000217, 0.000870,-0.010097, 0.058360,-0.069390,-0.029228,1, 0.004826,-0.003188, 0.000226,1,-0.106303,-0.904712, 9.764250,1,1
1778777010442,  1704.314,  1704.314, 0.004207, 0.102561,-0.980908, 0.000043, 0.001020,-0.009813,-0.066864, 0.100396, 0.144744,1,-0.001791, 0.009020, 0.000694,1,-0.108406,-0.905441, 9.764159,1,1
1778777010467,  1704.339,  1704.339, 0.020986, 0.085789,-1.009977, 0.000195, 0.000863,-0.010073, 0.097313,-0.063029,-0.140234,1, 0.007579,-0.002695,-0.000013,1,-0.108407,-0.904097, 9.764284,1,1
1778777010489,  1704.359,  1704.359, 0.013119, 0.093376,-0.992800, 0.000155, 0.000921,-0.009966, 0.020011, 0.011744, 0.028246,1,-0.003216, 0.004619,-0.001255,1,-0.108785,-0.904065, 9.764282,1,1
1778777010512,  1704.389,  1704.384, 0.016971, 0.081581,-1.008789, 0.000146, 0.000829,-0.010051, 0.057961,-0.103171,-0.128470,1, 0.008558,-0.006545,-0.001224,1,-0.108261,-0.902937, 9.764393,1,1
1778777010537,  1704.409,  1704.409, 0.017260, 0.092726,-1.003702, 0.000189, 0.000916,-0.010080, 0.061189, 0.005886,-0.078611,1,-0.009689, 0.005066,-0.000539,1,-0.108252,-0.903742, 9.764318,1,1
1778777010559,  1704.434,  1704.429, 0.015906, 0.084741,-0.986240, 0.000142, 0.000861,-0.009828,-0.049509, 0.013269, 0.265766,1,-0.002464,-0.000758, 0.000650,1,-0.108856,-0.905201, 9.764176,1,1
1778777010582,  1704.459,  1704.454, 0.008297, 0.093258,-0.997927, 0.000112, 0.000913,-0.010007,-0.025892, 0.010042,-0.022064,1,-0.005085,-0.002546,-0.000363,1,-0.107180,-0.904662, 9.764245,1,1
1778777010608,  1704.479,  1704.479,-0.003756, 0.096971,-0.978627,-0.000054, 0.000975,-0.009772,-0.143831, 0.045497, 0.167117,1,-0.000873,-0.004077, 0.001168,1,-0.106877,-0.905495, 9.764172,1,1
1778777010629,  1704.504,  1704.499, 0.016501, 0.094476,-0.988910, 0.000193, 0.000926,-0.009935, 0.124921,-0.093107,-0.116963,1,-0.004048,-0.000516, 0.000919,1,-0.106091,-0.905437, 9.764185,1,1
1778777010652,  1704.529,  1704.524,-0.005900, 0.101294,-0.963761,-0.000068, 0.001027,-0.009610,-0.166020, 0.085723, 0.312694,1, 0.002721, 0.003600, 0.000801,1,-0.108274,-0.907550, 9.763965,1,1
1778777010678,  1704.549,  1704.549, 0.015838, 0.084109,-1.019406, 0.000150, 0.000832,-0.010182, 0.047565,-0.081058,-0.232836,1, 0.004947,-0.002308,-0.000186,1,-0.107676,-0.905727, 9.764141,1,1
1778777010699,  1704.574,  1704.569, 0.008582, 0.102590,-0.971495, 0.000078, 0.001034,-0.009720, 0.002863, 0.087439, 0.059032,1,-0.008189, 0.009040, 0.000430,1,-0.108980,-0.906838, 9.764024,1,1
1778777010722,  1704.599,  1704.594, 0.031766, 0.086390,-1.000135, 0.000326, 0.000863,-0.009974, 0.201984,-0.058991,-0.043902,1, 0.011422,-0.007548, 0.000477,1,-0.109306,-0.905834, 9.764112,1,1
1778777010748,  1704.619,  1704.619,-0.002331, 0.100170,-0.986973, 0.000001, 0.000982,-0.009898,-0.131889, 0.076616, 0.085232,1,-0.002177, 0.001482, 0.000336,1,-0.109081,-0.905789, 9.764119,1,1
1778777010769,  1704.644,  1704.639, 0.019320, 0.079071,-1.028518, 0.000176, 0.000788,-0.010287,-0.086151,-0.049407,-0.129657,1, 0.009879,-0.012294, 0.001657,1,-0.107567,-0.904429, 9.764262,1,1
1778777010792,  1704.669,  1704.664, 0.010275, 0.098123,-0.976562, 0.000132, 0.000974,-0.009820,-0.006793, 0.055566, 0.187246,1,-0.019416, 0.009845,-0.000393,1,-0.107857,-0.907298, 9.763993,1,1
1778777010818,  1704.689,  1704.689, 0.005285, 0.087064,-0.975811, 0.000038, 0.000889,-0.009701,-0.057086,-0.054670, 0.194437,1, 0.001967,-0.000177, 0.000319,1,-0.108908,-0.908420, 9.763877,1,1
1778777010839,  1704.714,  1704.709, 0.002448, 0.097429,-1.001092, 0.000043, 0.000968,-0.010050, 0.036566,-0.041910,-0.216240,1, 0.000176, 0.000366,-0.001458,1,-0.108596,-0.907688, 9.763948,1,1
1778777010866,  1704.739,  1704.739, 0.013832, 0.092643,-0.973432, 0.000099, 0.000944,-0.009711, 0.026386,-0.000884, 0.217670,1, 0.001669,-0.002305, 0.001243,1,-0.109195,-0.909344, 9.763788,1,1
1778777010888,  1704.759,  1704.759, 0.031383, 0.086237,-0.993816, 0.000335, 0.000840,-0.009956, 0.199387,-0.062865, 0.017862,1,-0.002353, 0.000685, 0.000198,1,-0.108401,-0.908634, 9.763863,1,1
1778777010909,  1704.784,  1704.779, 0.004071, 0.092952,-0.986171, 0.000025, 0.000957,-0.009803,-0.099984, 0.093559, 0.346398,1,-0.003364, 0.002136, 0.002209,1,-0.109693,-0.910129, 9.763709,1,1
1778777010936,  1704.809,  1704.809, 0.020786, 0.092126,-1.021094, 0.000214, 0.000894,-0.010244, 0.096661,-0.005634,-0.249681,1,-0.010433,-0.003775, 0.002674,1,-0.107045,-0.909337, 9.763812,1,1
1778777010958,  1704.834,  1704.829, 0.006134, 0.093005,-0.971342, 0.000032, 0.000929,-0.009688,-0.059413, 0.066369, 0.240765,1,-0.013955,-0.003119, 0.004485,1,-0.106884,-0.912519, 9.763517,1,1
1778777010980,  1704.854,  1704.849, 0.014570, 0.089890,-1.015235, 0.000176, 0.000874,-0.010148, 0.063362,-0.093222,-0.012853,1, 0.006367,-0.009004, 0.000671,1,-0.105460,-0.912450, 9.763539,1,1
1778777011007,  1704.879,  1704.879,-0.014407, 0.100149,-0.991314,-0.000145, 0.000998,-0.009933,-0.245803, 0.070105, 0.042120,1,-0.001160, 0.003141,-0.001843,1,-0.104611,-0.912060, 9.763585,1,1
1778777011028,  1704.904,  1704.899, 0.015145, 0.086338,-1.010308, 0.000159, 0.000847,-0.010133, 0.002147,-0.103131,-0.149775,1, 0.010602,-0.006836,-0.000685,1,-0.103648,-0.910373, 9.763753,1,1
1778777011050,  1704.924,  1704.919,-0.001497, 0.097239,-0.965793,-0.000017, 0.000982,-0.009657,-0.041854, 0.023418, 0.111922,1,-0.004567, 0.014510,-0.002745,1,-0.105262,-0.910554, 9.763719,1,1
1778777011077,  1704.949,  1704.949, 0.015937, 0.082001,-1.006615, 0.000144, 0.000825,-0.010036, 0.049762,-0.104576,-0.107642,1, 0.011792, 0.000403,-0.002202,1,-0.106536,-0.908366, 9.763908,1,1
1778777011098,  1704.974,  1704.969,-0.002726, 0.096201,-0.967551,-0.000029, 0.000971,-0.009690,-0.063068, 0.015673, 0.083789,1,-0.001457, 0.011231,-0.003329,1,-0.108051,-0.907894, 9.763935,1,1
1778777011120,  1704.994,  1704.989, 0.022884, 0.082114,-0.995923, 0.000161, 0.000832,-0.009921,-0.043400,-0.041954, 0.189070,1, 0.010664,-0.007157, 0.001374,1,-0.108795,-0.907266, 9.763986,1,1
1778777011147,  1705.019,  1705.019, 0.013186, 0.096458,-0.986862, 0.000154, 0.000973,-0.009892, 0.019185, 0.040331, 0.086312,1, 0.000801, 0.013103,-0.000508,1,-0.110509,-0.905568, 9.764124,1,1
1778777011168,  1705.044,  1705.039, 0.019489, 0.088700,-1.004154, 0.000182, 0.000876,-0.010013,-0.027334,-0.018107, 0.120507,1, 0.010942, 0.001752,-0.002420,1,-0.111747,-0.904439, 9.764215,1,1
1778777011190,  1705.064,  1705.059, 0.010707, 0.102600,-0.994989, 0.000114, 0.001013,-0.009985, 0.075754, 0.006994,-0.155592,1, 0.008369, 0.005122,-0.003971,1,-0.111998,-0.901904, 9.764446,1,1
1778777011217,  1705.089,  1705.089, 0.015135, 0.089766,-0.988004, 0.000125, 0.000913,-0.009844, 0.033550,-0.020187, 0.075533,1, 0.013038, 0.001955,-0.000415,1,-0.114938,-0.900088, 9.764580,1,1
1778777011238,  1705.114,  1705.109, 0.014173, 0.098987,-0.992152, 0.000157, 0.000990,-0.009945, 0.119691, 0.017709,-0.123049,1, 0.005428, 0.005300,-0.002346,1,-0.115498,-0.898127, 9.764753,1,1
1778777011260,  1705.134,  1705.129, 0.013572, 0.087675,-0.990120, 0.000113, 0.000888,-0.009864,-0.049693, 0.048292, 0.155001,1, 0.005579, 0.002565,-0.001626,1,-0.116842,-0.897795, 9.764768,1,1
1778777011287,  1705.159,  1705.159, 0.021627, 0.091609,-1.008696, 0.000235, 0.000905,-0.010117, 0.096299, 0.002106,-0.127005,1,-0.001406, 0.001748,-0.000530,1,-0.115846,-0.896315, 9.764916,1,1
1778777011309,  1705.184,  1705.179, 0.012902, 0.088719,-0.987272, 0.000113, 0.000899,-0.009834,-0.092047, 0.051719, 0.228759,1,-0.003949, 0.000152, 0.001748,1,-0.116570,-0.897668, 9.764783,1,1
1778777011330,  1705.204,  1705.199, 0.016500, 0.093877,-1.001782, 0.000185, 0.000917,-0.010053, 0.100092,-0.065019,-0.111745,1, 0.000001,-0.008878, 0.000251,1,-0.114808,-0.897219, 9.764845,1,1
1778777011357,  1705.229,  1705.229,-0.001285, 0.096539,-0.969365,-0.000016, 0.000975,-0.009685,-0.128428, 0.046698, 0.258348,1,-0.004961,-0.002050, 0.002792,1,-0.115776,-0.900178, 9.764562,1,1
1778777011379,  1705.254,  1705.249, 0.012904, 0.093904,-0.998717, 0.000149, 0.000918,-0.010018, 0.062557,-0.070126,-0.084885,1, 0.000333,-0.005392, 0.001039,1,-0.114447,-0.899692, 9.764622,1,1
1778777011401,  1705.274,  1705.274,-0.000951, 0.096266,-0.971268,-0.000021, 0.000981,-0.009696,-0.124943, 0.042830, 0.239585,1, 0.001438, 0.001984, 0.001143,1,-0.115685,-0.901176, 9.764470,1,1
1778777011427,  1705.299,  1705.299, 0.020821, 0.080632,-1.009791, 0.000199, 0.000811,-0.010085, 0.089328,-0.108978,-0.138056,1, 0.006932,-0.002771, 0.000122,1,-0.114772,-0.899489, 9.764637,1,1
1778777011449,  1705.324,  1705.319, 0.001303, 0.093523,-0.974799, 0.000007, 0.000949,-0.009734,-0.064095, 0.028668, 0.156145,1,-0.003378, 0.007023,-0.000618,1,-0.115850,-0.899914, 9.764585,1,1
1778777011471,  1705.344,  1705.344, 0.018801, 0.080326,-1.009730, 0.000185, 0.000800,-0.010084, 0.068543,-0.111167,-0.137388,1, 0.001579,-0.000367, 0.000121,1,-0.115824,-0.898844, 9.764684,1,1
1778777011497,  1705.369,  1705.369, 0.005626, 0.094799,-0.987481, 0.000071, 0.000942,-0.009904,-0.061490, 0.029768, 0.080696,1,-0.006889, 0.006370, 0.000294,1,-0.116858,-0.900106, 9.764555,1,1
1778777011519,  1705.394,  1705.389, 0.024821, 0.082259,-1.010760, 0.000245, 0.000814,-0.010102, 0.041473,-0.076986,-0.012546,1, 0.005588,-0.002419, 0.000922,1,-0.117011,-0.899885, 9.764574,1,1
1778777011542,  1705.414,  1705.414, 0.004945, 0.099165,-0.978598, 0.000068, 0.000987,-0.009811,-0.068949, 0.071694, 0.167717,1,-0.010124, 0.007621, 0.000510,1,-0.117674,-0.901096, 9.764454,1,1
1778777011567,  1705.439,  1705.439, 0.009543, 0.086049,-0.996352, 0.000077, 0.000867,-0.009922,-0.023873,-0.056844,-0.006383,1, 0.007307,-0.006856, 0.000290,1,-0.117247,-0.900469, 9.764517,1,1
1778777011589,  1705.464,  1705.459, 0.009911, 0.100403,-0.985681, 0.000111, 0.001008,-0.009892, 0.072902, 0.025788,-0.125162,1,-0.005346, 0.001914,-0.001504,1,-0.116814,-0.900196, 9.764547,1,1
1778777011612,  1705.484,  1705.484, 0.017256, 0.088654,-0.979714, 0.000156, 0.000900,-0.009770, 0.051374,-0.031472, 0.156758,1, 0.007944,-0.001419, 0.000170,1,-0.117802,-0.900627, 9.764496,1,1
1778777011637,  1705.509,  1705.509, 0.024234, 0.095666,-1.005504, 0.000245, 0.000926,-0.010047, 0.119898, 0.038621,-0.096034,1, 0.005986, 0.005267,-0.003283,1,-0.117914,-0.899356, 9.764611,1,1
1778777011659,  1705.534,  1705.529, 0.011729, 0.089699,-1.000270, 0.000108, 0.000923,-0.009959,-0.140695, 0.075575, 0.181396,1, 0.003496, 0.000721,-0.000808,1,-0.118507,-0.899385, 9.764602,1,1
1778777011682,  1705.554,  1705.554, 0.021781, 0.093850,-1.004325, 0.000223, 0.000921,-0.010098, 0.096726, 0.022290,-0.084319,1,-0.007746, 0.009009,-0.001669,1,-0.117147,-0.898307, 9.764717,1,1
1778777011707,  1705.579,  1705.579,-0.000451, 0.097795,-0.962351,-0.000003, 0.000983,-0.009606,-0.122719, 0.060111, 0.327202,1, 0.003589, 0.000244, 0.000238,1,-0.118303,-0.898822, 9.764656,1,1
1778777011729,  1705.604,  1705.599, 0.012262, 0.092323,-1.017768, 0.000144, 0.000905,-0.010195, 0.079569,-0.073021,-0.158527,1, 0.012111,-0.006475,-0.000799,1,-0.117460,-0.896113, 9.764915,1,1
1778777011752,  1705.629,  1705.624, 0.006060, 0.095865,-0.981656, 0.000048, 0.000968,-0.009817,-0.058596, 0.042935, 0.138058,1,-0.002611, 0.000884, 0.001448,1,-0.118054,-0.897260, 9.764803,1,1
1778777011778,  1705.649,  1705.649, 0.025807, 0.082059,-1.001202, 0.000253, 0.000820,-0.010012, 0.135734,-0.091924,-0.053567,1, 0.001398,-0.002369,-0.000156,1,-0.117273,-0.896607, 9.764873,1,1
1778777011799,  1705.674,  1705.669,-0.002511, 0.096792,-0.976538,-0.000026, 0.000985,-0.009741,-0.114194, 0.061165, 0.220610,1,-0.005479, 0.005038, 0.000567,1,-0.117990,-0.897777, 9.764756,1,1
1778777011822,  1705.699,  1705.694, 0.020157, 0.081863,-1.023624, 0.000187, 0.000813,-0.010230, 0.081253,-0.093013,-0.273366,1, 0.003002,-0.006302, 0.000028,1,-0.116225,-0.895724, 9.764966,1,1
1778777011848,  1705.719,  1705.719, 0.013695, 0.099097,-0.976975, 0.000148, 0.000988,-0.009812, 0.017368, 0.074380, 0.183947,1,-0.010232, 0.006754, 0.000032,1,-0.117142,-0.897746, 9.764769,1,1
1778777011869,  1705.744,  1705.739, 0.020240, 0.083222,-0.997741, 0.000208, 0.000829,-0.009956, 0.034190,-0.056796, 0.196316,1, 0.004193,-0.004855, 0.001998,1,-0.116948,-0.897765, 9.764770,1,1
1778777011892,  1705.769,  1705.764,-0.001124, 0.096667,-0.992841, 0.000005, 0.000961,-0.009952,-0.126802, 0.050149, 0.028328,1,-0.006575, 0.000445, 0.000886,1,-0.115794,-0.898039, 9.764758,1,1
1778777011918,  1705.789,  1705.789, 0.013353, 0.087038,-0.997299, 0.000108, 0.000882,-0.009953, 0.015598,-0.044888,-0.015441,1, 0.001328,-0.006090, 0.001443,1,-0.115170,-0.898396, 9.764732,1,1
1778777011939,  1705.814,  1705.809, 0.010805, 0.096177,-0.966332, 0.000135, 0.000961,-0.009692, 0.129600,-0.005922, 0.056808,1,-0.010019, 0.005101, 0.000242,1,-0.115221,-0.899537, 9.764627,1,1
1778777011962,  1705.839,  1705.834, 0.003456, 0.086934,-0.987281, 0.000017, 0.000881,-0.009817,-0.081303,-0.046979, 0.082713,1, 0.014391,-0.011327,-0.000193,1,-0.114846,-0.899061, 9.764675,1,1
1778777011988,  1705.859,  1705.859, 0.009443, 0.088405,-1.023244, 0.000106, 0.000867,-0.010262,-0.020662,-0.030866,-0.269788,1,-0.003529,-0.000667,-0.001494,1,-0.113243,-0.897929, 9.764798,1,1
1778777012009,  1705.884,  1705.879, 0.013149, 0.086372,-0.979132, 0.000113, 0.000880,-0.009764,-0.064886, 0.016298, 0.233083,1,-0.003719, 0.001563, 0.000689,1,-0.114288,-0.899360, 9.764654,1,1
1778777012032,  1705.909,  1705.904, 0.019918, 0.089774,-0.998227, 0.000222, 0.000883,-0.009992, 0.081306,-0.017953,-0.024514,1, 0.002068, 0.005987,-0.001785,1,-0.114207,-0.898273, 9.764755,1,1
1778777012058,  1705.929,  1705.929,-0.004379, 0.095697,-0.989082,-0.000051, 0.000970,-0.009880,-0.158027, 0.040788, 0.065217,1, 0.005099, 0.001359,-0.000199,1,-0.115125,-0.897520, 9.764813,1,1
1778777012079,  1705.954,  1705.949, 0.018621, 0.090087,-1.004277, 0.000196, 0.000879,-0.010079, 0.056186,-0.081440,-0.188279,1, 0.003262,-0.003897,-0.000562,1,-0.114229,-0.896283, 9.764938,1,1
1778777012106,  1705.979,  1705.979, 0.007486, 0.098090,-0.969518, 0.000069, 0.000987,-0.009678,-0.042302, 0.064482, 0.257088,1, 0.000604, 0.004524, 0.000532,1,-0.115860,-0.897431, 9.764813,1,1
1778777012128,  1705.999,  1705.999, 0.022288, 0.085661,-1.009878, 0.000213, 0.000859,-0.010079, 0.103012,-0.056076,-0.138586,1, 0.006108,-0.002017,-0.000478,1,-0.115492,-0.895935, 9.764955,1,1
1778777012150,  1706.024,  1706.019, 0.003143, 0.098726,-0.980789, 0.000025, 0.001000,-0.009804,-0.044151, 0.083210, 0.034999,1,-0.006807, 0.003359, 0.000022,1,-0.115875,-0.896742, 9.764876,1,1
1778777012177,  1706.049,  1706.049, 0.022048, 0.081405,-1.004789, 0.000217, 0.000819,-0.010033, 0.101705,-0.097879,-0.088675,1, 0.002418,-0.008540,-0.000629,1,-0.114240,-0.896114, 9.764954,1,1
1778777012198,  1706.074,  1706.069, 0.001724, 0.096321,-0.969603, 0.000020, 0.000972,-0.009693,-0.009784, 0.051996, 0.132352,1,-0.009129, 0.004445,-0.000634,1,-0.114476,-0.897594, 9.764814,1,1
1778777012220,  1706.094,  1706.089, 0.020229, 0.083842,-1.003068, 0.000194, 0.000842,-0.010013,-0.033871,-0.013311, 0.122191,1, 0.003376,-0.002478, 0.001079,1,-0.114618,-0.897855, 9.764789,1,1
1778777012247,  1706.119,  1706.119, 0.005867, 0.098134,-0.981048, 0.000075, 0.000970,-0.009858,-0.056608, 0.064272, 0.143976,1,-0.005291, 0.005249,-0.000840,1,-0.114308,-0.898262, 9.764755,1,1
1778777012268,  1706.144,  1706.139, 0.017050, 0.082538,-1.004599, 0.000157, 0.000830,-0.010024,-0.058771,-0.014872, 0.130796,1, 0.009583,-0.008664, 0.000481,1,-0.113624,-0.897371, 9.764845,1,1
1778777012290,  1706.164,  1706.159, 0.006712, 0.095243,-0.987714, 0.000091, 0.000947,-0.009908, 0.078111,-0.036108,-0.100574,1, 0.000278, 0.000475,-0.001370,1,-0.112710,-0.896251, 9.764958,1,1
1778777012317,  1706.189,  1706.189, 0.004554, 0.090653,-0.987242, 0.000022, 0.000923,-0.009836,-0.069226,-0.007447, 0.083387,1, 0.007558,-0.000803, 0.000501,1,-0.113864,-0.896213, 9.764949,1,1
1778777012338,  1706.214,  1706.209, 0.008354, 0.095273,-0.993136, 0.000101, 0.000947,-0.009970, 0.077744,-0.033866,-0.173412,1,-0.000247, 0.000611,-0.001363,1,-0.113238,-0.895441, 9.765027,1,1
1778777012360,  1706.234,  1706.229, 0.008616, 0.089840,-0.986927, 0.000063, 0.000915,-0.009829,-0.105554, 0.058947, 0.193953,1,-0.002533, 0.004599, 0.000280,1,-0.114397,-0.896427, 9.764923,1,1
1778777012387,  1706.259,  1706.259, 0.022890, 0.085529,-1.012091, 0.000239, 0.000835,-0.010139, 0.110578,-0.056441,-0.160185,1,-0.003794, 0.005172,-0.001103,1,-0.114055,-0.895316, 9.765029,1,1
1778777012408,  1706.284,  1706.279, 0.006969, 0.090166,-0.986232, 0.000053, 0.000918,-0.009832,-0.091142, 0.072371, 0.213901,1,-0.003432, 0.004958, 0.000674,1,-0.115753,-0.896707, 9.764881,1,1
1778777012430,  1706.304,  1706.299, 0.020751, 0.085966,-1.010325, 0.000219, 0.000842,-0.010123, 0.071739,-0.085287,-0.109789,1, 0.006124,-0.005394, 0.000094,1,-0.115002,-0.895607, 9.764991,1,1
1778777012457,  1706.329,  1706.329, 0.003245, 0.097360,-0.973589, 0.000032, 0.000973,-0.009743,-0.083247, 0.057780, 0.217216,1,-0.004695, 0.001428, 0.000252,1,-0.115118,-0.897146, 9.764849,1,1
1778777012478,  1706.354,  1706.349, 0.022390, 0.086419,-1.002278, 0.000236, 0.000850,-0.010041, 0.102154,-0.073992,-0.035263,1, 0.005318,-0.003129, 0.000677,1,-0.114538,-0.896387, 9.764925,1,1
1778777012500,  1706.374,  1706.369, 0.000788, 0.099376,-0.970917, 0.000008, 0.001001,-0.009710,-0.013850, 0.035483, 0.102506,1,-0.007371, 0.005737, 0.000011,1,-0.115182,-0.897357, 9.764828,1,1
1778777012527,  1706.399,  1706.399, 0.017151, 0.083665,-1.006194, 0.000156, 0.000848,-0.010035, 0.054287,-0.075670,-0.102439,1, 0.008661,-0.010496, 0.000864,1,-0.113580,-0.895874, 9.764983,1,1
1778777012549,  1706.424,  1706.419, 0.001892, 0.098662,-0.971282, 0.000027, 0.000991,-0.009719, 0.002859, 0.048648, 0.052955,1,-0.007658, 0.004417, 0.000097,1,-0.113688,-0.896542, 9.764920,1,1
1778777012570,  1706.444,  1706.439, 0.017794, 0.084677,-1.000633, 0.000166, 0.000850,-0.009976,-0.058418, 0.006308, 0.168429,1, 0.003651,-0.000693, 0.000646,1,-0.114053,-0.897027, 9.764872,1,1
1778777012597,  1706.469,  1706.469, 0.005590, 0.097549,-0.992697, 0.000076, 0.000970,-0.009965, 0.060048,-0.023827,-0.129306,1,-0.001204,-0.000526,-0.001129,1,-0.113570,-0.896338, 9.764940,1,1
1778777012619,  1706.494,  1706.489, 0.019616, 0.083231,-1.008630, 0.000179, 0.000836,-0.010070,-0.078133,-0.000793, 0.079164,1, 0.008864,-0.005071, 0.000786,1,-0.113994,-0.896346, 9.764935,1,1
1778777012641,  1706.514,  1706.514, 0.013549, 0.094098,-0.988666, 0.000157, 0.000931,-0.009932, 0.018898, 0.026559, 0.069445,1,-0.008616, 0.009178,-0.000202,1,-0.114259,-0.896499, 9.764917,1,1
1778777012667,  1706.539,  1706.539, 0.006092, 0.091629,-0.980187, 0.000045, 0.000927,-0.009767,-0.055251, 0.001657, 0.152520,1, 0.004282,-0.001910, 0.000476,1,-0.114936,-0.896781, 9.764884,1,1
1778777012689,  1706.564,  1706.559, 0.008546, 0.093067,-0.997061, 0.000103, 0.000922,-0.010005, 0.060608,-0.056596,-0.174790,1,-0.002729,-0.000294,-0.001035,1,-0.114336,-0.896271, 9.764937,1,1
1778777012712,  1706.584,  1706.584, 0.009294, 0.091619,-0.985704, 0.000073, 0.000934,-0.009830,-0.023217, 0.001140, 0.098387,1, 0.002713,-0.005484, 0.001146,1,-0.114194,-0.897251, 9.764850,1,1
1778777012737,  1706.609,  1706.609, 0.024403, 0.085955,-1.000147, 0.000254, 0.000842,-0.010015, 0.125798,-0.054084,-0.043212,1,-0.004394, 0.000946,-0.000826,1,-0.113497,-0.897156, 9.764866,1,1
1778777012759,  1706.634,  1706.629, 0.001758, 0.090886,-0.984392, 0.000001, 0.000925,-0.009805,-0.122592, 0.055468, 0.244737,1,-0.001308, 0.002066, 0.000110,1,-0.114178,-0.898154, 9.764767,1,1
1778777012782,  1706.654,  1706.654, 0.019186, 0.086175,-1.016771, 0.000200, 0.000841,-0.010188, 0.075409,-0.051367,-0.206176,1,-0.001410,-0.002568,-0.001016,1,-0.112654,-0.896499, 9.764936,1,1
1778777012807,  1706.679,  1706.679, 0.004047, 0.098240,-0.969358, 0.000044, 0.000982,-0.009710,-0.073643, 0.065456, 0.258643,1,-0.006082, 0.003591, 0.000979,1,-0.113443,-0.898142, 9.764776,1,1
1778777012829,  1706.704,  1706.699, 0.021636, 0.086194,-1.007900, 0.000228, 0.000841,-0.010083, 0.091872,-0.084757,-0.002037,1, 0.008599,-0.005313,-0.000064,1,-0.112809,-0.896863, 9.764901,1,1
1778777012852,  1706.724,  1706.724,-0.001819, 0.100374,-0.982197,-0.000010, 0.001006,-0.009826,-0.131410, 0.086880, 0.132779,1,-0.002323, 0.003423,-0.000058,1,-0.113679,-0.897527, 9.764830,1,1
1778777012877,  1706.749,  1706.749, 0.017665, 0.085565,-1.005207, 0.000157, 0.000866,-0.010026, 0.060043,-0.057563,-0.092804,1, 0.006639,-0.005554, 0.000203,1,-0.113025,-0.896459, 9.764935,1,1
1778777012899,  1706.774,  1706.769, 0.002825, 0.097945,-0.973549, 0.000035, 0.000980,-0.009746, 0.027246, 0.031790, 0.022927,1,-0.006331, 0.005274,-0.000487,1,-0.113303,-0.897100, 9.764874,1,1
1778777012922,  1706.794,  1706.794, 0.015058, 0.084536,-1.004353, 0.000135, 0.000856,-0.010010, 0.034395,-0.066813,-0.084350,1, 0.010535,-0.006438,-0.000374,1,-0.113073,-0.895504, 9.765023,1,1
1778777012948,  1706.819,  1706.819, 0.009957, 0.094817,-0.995589, 0.000119, 0.000943,-0.009999,-0.015439, 0.033949, 0.001593,1,-0.008904, 0.005278,-0.001140,1,-0.113247,-0.896168, 9.764960,1,1
1778777012969,  1706.844,  1706.839, 0.017273, 0.085178,-0.999638, 0.000158, 0.000858,-0.009969,-0.068189, 0.015442, 0.161662,1, 0.003311,-0.002670, 0.001358,1,-0.113630,-0.896631, 9.764913,1,1
1778777012992,  1706.869,  1706.864, 0.010983, 0.095372,-0.990233, 0.000133, 0.000942,-0.009944,-0.005607, 0.038639, 0.054048,1,-0.008439, 0.006567,-0.000469,1,-0.113514,-0.896905, 9.764889,1,1
1778777013018,  1706.889,  1706.889, 0.003159, 0.092816,-0.977397, 0.000013, 0.000940,-0.009743,-0.083090, 0.012927, 0.179858,1, 0.005333,-0.002463, 0.000963,1,-0.113992,-0.897117, 9.764864,1,1
1778777013039,  1706.914,  1706.909, 0.014130, 0.094327,-0.992837, 0.000161, 0.000934,-0.009969, 0.113168,-0.062579,-0.149704,1,-0.000221, 0.001133,-0.000332,1,-0.113383,-0.896163, 9.764958,1,1
1778777013062,  1706.939,  1706.934, 0.007815, 0.093255,-0.975827, 0.000060, 0.000951,-0.009727,-0.038337, 0.017162, 0.195239,1, 0.003864,-0.001063, 0.001869,1,-0.114946,-0.897236, 9.764842,1,1
1778777013088,  1706.959,  1706.959, 0.024491, 0.083583,-1.011720, 0.000254, 0.000821,-0.010124, 0.126130,-0.076727,-0.156651,1,-0.001789,-0.001500, 0.000451,1,-0.113996,-0.896447, 9.764926,1,1
1778777013109,  1706.984,  1706.979, 0.003540, 0.092679,-0.983807, 0.000019, 0.000945,-0.009806,-0.104547, 0.067658, 0.187136,1,-0.004967, 0.002728, 0.001131,1,-0.114747,-0.897829, 9.764790,1,1
1778777013132,  1707.009,  1707.004, 0.020217, 0.086498,-1.011971, 0.000210, 0.000849,-0.010131, 0.084499,-0.048880,-0.159179,1,-0.003567,-0.000161,-0.000283,1,-0.113758,-0.897267, 9.764853,1,1
1778777013158,  1707.029,  1707.029,-0.000535, 0.098561,-0.976775, 0.000004, 0.000990,-0.009777,-0.119827, 0.068230, 0.185853,1,-0.003709, 0.003497, 0.000696,1,-0.114693,-0.898437, 9.764734,1,1
1778777013179,  1707.054,  1707.049, 0.021143, 0.084446,-1.010953, 0.000225, 0.000825,-0.010131, 0.058113,-0.079129,-0.091801,1, 0.009240,-0.003437,-0.000204,1,-0.114264,-0.897087, 9.764864,1,1
1778777013202,  1707.079,  1707.074, 0.000546, 0.096940,-0.972382, 0.000011, 0.000975,-0.009734,-0.110035, 0.052752, 0.228968,1,-0.003974, 0.004454, 0.000749,1,-0.115527,-0.898030, 9.764762,1,1
1778777013228,  1707.099,  1707.099, 0.016201, 0.080282,-1.001009, 0.000142, 0.000810,-0.009984, 0.044092,-0.110085,-0.051713,1, 0.004085,-0.006603, 0.000663,1,-0.114582,-0.897253, 9.764845,1,1
1778777013250,  1707.124,  1707.119, 0.003428, 0.098802,-0.972514, 0.000034, 0.000989,-0.009739,-0.001282, 0.021609, 0.043288,1,-0.012120, 0.005491,-0.000360,1,-0.114875,-0.898826, 9.764696,1,1
1778777013272,  1707.149,  1707.144, 0.023962, 0.086984,-0.999009, 0.000222, 0.000876,-0.009953, 0.119777,-0.046794,-0.032329,1, 0.002029,-0.006205, 0.000778,1,-0.115015,-0.899749, 9.764610,1,1
1778777013298,  1707.169,  1707.169, 0.010998, 0.096271,-0.988100, 0.000135, 0.000952,-0.009917,-0.007006, 0.043493, 0.074579,1,-0.008857, 0.003591, 0.001063,1,-0.114979,-0.900879, 9.764506,1,1
1778777013320,  1707.194,  1707.189, 0.016918, 0.086025,-1.014071, 0.000154, 0.000866,-0.010112,-0.061013, 0.019270, 0.089325,1, 0.007295,-0.011585, 0.001082,1,-0.114038,-0.900594, 9.764544,1,1
1778777013347,  1707.219,  1707.219, 0.009751, 0.098364,-0.990131, 0.000121, 0.000973,-0.009942,-0.017076, 0.063318, 0.054629,1,-0.013477, 0.003799,-0.000230,1,-0.112815,-0.901723, 9.764454,1,1
1778777013368,  1707.239,  1707.239, 0.005440, 0.093747,-0.980675, 0.000037, 0.000952,-0.009777,-0.059730, 0.016786, 0.147234,1, 0.003434,-0.002617, 0.000723,1,-0.113001,-0.902455, 9.764383,1,1
1778777013390,  1707.264,  1707.259, 0.007518, 0.099101,-0.993400, 0.000095, 0.000977,-0.009977, 0.070446,-0.014252,-0.159047,1, 0.000638, 0.000727,-0.002071,1,-0.112441,-0.901488, 9.764480,1,1
1778777013417,  1707.289,  1707.289, 0.009470, 0.089314,-0.984812, 0.000072, 0.000909,-0.009823,-0.020000,-0.025404, 0.106785,1, 0.010006,-0.005521, 0.000606,1,-0.112704,-0.900961, 9.764525,1,1
1778777013438,  1707.314,  1707.309, 0.006446, 0.093014,-0.982353, 0.000088, 0.000924,-0.009850, 0.100538,-0.062366,-0.066396,1,-0.001454, 0.002454,-0.001231,1,-0.112201,-0.899993, 9.764620,1,1
1778777013460,  1707.334,  1707.329, 0.005001, 0.087937,-0.990022, 0.000027, 0.000897,-0.009860,-0.133395, 0.035794, 0.226199,1, 0.001031, 0.001546, 0.000226,1,-0.113169,-0.900569, 9.764556,1,1
1778777013487,  1707.359,  1707.359, 0.019338, 0.087184,-1.009808, 0.000202, 0.000849,-0.010126, 0.077504,-0.044483,-0.138163,1,-0.006251, 0.003097,-0.000817,1,-0.112228,-0.899665, 9.764650,1,1
1778777013508,  1707.384,  1707.379, 0.008311, 0.088105,-0.980404, 0.000066, 0.000898,-0.009768,-0.099383, 0.038052, 0.255420,1, 0.000085, 0.004743, 0.000398,1,-0.113521,-0.900528, 9.764556,1,1
1778777013530,  1707.404,  1707.399, 0.017092, 0.087947,-1.006560, 0.000187, 0.000858,-0.010084, 0.067662,-0.094086,-0.063790,1, 0.007447,-0.002323,-0.000498,1,-0.113180,-0.898878, 9.764711,1,1
1778777013557,  1707.429,  1707.429, 0.000008, 0.097174,-0.976810,-0.000006, 0.000979,-0.009768,-0.114035, 0.053410, 0.185409,1,-0.001728, 0.003340, 0.000481,1,-0.114218,-0.899599, 9.764633,1,1
1778777013578,  1707.454,  1707.449, 0.023433, 0.090687,-1.001781, 0.000249, 0.000884,-0.010047, 0.121152,-0.072025,-0.104281,1, 0.002619,-0.002494,-0.000582,1,-0.113740,-0.898881, 9.764705,1,1
1778777013600,  1707.474,  1707.469, 0.003651, 0.100799,-0.972089, 0.000033, 0.001014,-0.009712,-0.008557, 0.079094, 0.138727,1,-0.006722, 0.007350, 0.000019,1,-0.114797,-0.900105, 9.764580,1,1
1778777013627,  1707.499,  1707.499, 0.020388, 0.084566,-1.012823, 0.000195, 0.000849,-0.010109, 0.085651,-0.069105,-0.167658,1, 0.007003,-0.005042,-0.001049,1,-0.114129,-0.898197, 9.764763,1,1
1778777013649,  1707.524,  1707.519, 0.004231, 0.098047,-0.976959, 0.000035, 0.000995,-0.009758,-0.033209, 0.068789, 0.078015,1,-0.005925, 0.003926,-0.000800,1,-0.114571,-0.899014, 9.764683,1,1
1778777013670,  1707.544,  1707.539, 0.024567, 0.084095,-1.006625, 0.000243, 0.000845,-0.010049, 0.028891,-0.023095, 0.055874,1, 0.006015,-0.004965, 0.001186,1,-0.114244,-0.898497, 9.764734,1,1
1778777013697,  1707.569,  1707.569, 0.003126, 0.098075,-0.982319, 0.000051, 0.000975,-0.009849,-0.083550, 0.062742, 0.131424,1,-0.005908, 0.003779, 0.000540,1,-0.114324,-0.899234, 9.764666,1,1
1778777013719,  1707.594,  1707.589, 0.017367, 0.082420,-1.014025, 0.000166, 0.000826,-0.010132,-0.059035,-0.024244,-0.012098,1, 0.009552,-0.009234, 0.001243,1,-0.113274,-0.898243, 9.764769,1,1
1778777013740,  1707.614,  1707.609, 0.006256, 0.097886,-0.976843, 0.000077, 0.000972,-0.009809, 0.048567,-0.006522,-0.085380,1,-0.007296, 0.002881,-0.000208,1,-0.112619,-0.898512, 9.764751,1,1
1778777013767,  1707.639,  1707.639, 0.013133, 0.087921,-0.982563, 0.000109, 0.000891,-0.009787, 0.015032,-0.037056, 0.129015,1, 0.006807,-0.002374, 0.000759,1,-0.113684,-0.899059, 9.764689,1,1
1778777013789,  1707.664,  1707.659, 0.000905, 0.098490,-0.982031, 0.000023, 0.000981,-0.009848, 0.027366,-0.000863,-0.043740,1,-0.004082, 0.003506,-0.001372,1,-0.113726,-0.898876, 9.764706,1,1
1778777013810,  1707.684,  1707.679, 0.011863, 0.086249,-0.997341, 0.000094, 0.000879,-0.009936,-0.120017, 0.039031, 0.168349,1, 0.004093,-0.002776, 0.001228,1,-0.114190,-0.899220, 9.764668,1,1
1778777013837,  1707.709,  1707.709, 0.021289, 0.089193,-0.997907, 0.000227, 0.000876,-0.010011, 0.095423,-0.023709,-0.021368,1,-0.006943, 0.005081,-0.001806,1,-0.113504,-0.898608, 9.764732,1,1
1778777013859,  1707.734,  1707.729, 0.011683, 0.086604,-0.993631, 0.000100, 0.000878,-0.009894,-0.078306, 0.031595, 0.220948,1, 0.002967, 0.003153, 0.000786,1,-0.114767,-0.899200, 9.764664,1,1
1778777013882,  1707.754,  1707.754, 0.013714, 0.089528,-1.006579, 0.000156, 0.000882,-0.010094, 0.020260,-0.020217,-0.106404,1,-0.004825, 0.001672,-0.001545,1,-0.114278,-0.898341, 9.764749,1,1
1778777013907,  1707.779,  1707.779, 0.003364, 0.094807,-0.981706, 0.000019, 0.000961,-0.009802,-0.081421, 0.030929, 0.137455,1, 0.002980,-0.003057, 0.000825,1,-0.114315,-0.898718, 9.764713,1,1
1778777013929,  1707.804,  1707.799, 0.018868, 0.091939,-0.996903, 0.000209, 0.000899,-0.010006, 0.126222,-0.088778,-0.128535,1,-0.000229,-0.000802,-0.000628,1,-0.113470,-0.897992, 9.764790,1,1
1778777013952,  1707.824,  1707.824,-0.000618, 0.096563,-0.976541,-0.000012, 0.000975,-0.009744,-0.120987, 0.047302, 0.188022,1, 0.002211, 0.000313, 0.001244,1,-0.114944,-0.899590, 9.764626,1,1
1778777013977,  1707.849,  1707.849, 0.020118, 0.084871,-1.015501, 0.000198, 0.000841,-0.010154, 0.083244,-0.066066,-0.193915,1, 0.002617,-0.004448,-0.000733,1,-0.113908,-0.898290, 9.764757,1,1
1778777013999,  1707.874,  1707.869, 0.004350, 0.095969,-0.969585, 0.000034, 0.000971,-0.009682,-0.061681, 0.078176, 0.190203,1,-0.007494, 0.003806, 0.000312,1,-0.114441,-0.899794, 9.764612,1,1
1778777014022,  1707.894,  1707.894, 0.023669, 0.082872,-1.005670, 0.000238, 0.000824,-0.010050, 0.118574,-0.085904,-0.097520,1, 0.001442,-0.002706,-0.000527,1,-0.113455,-0.898556, 9.764738,1,1
1778777014048,  1707.919,  1707.919,-0.000221, 0.099103,-0.978212, 0.000011, 0.000984,-0.009798,-0.116564, 0.072340, 0.171652,1,-0.004595, 0.006315,-0.000769,1,-0.114595,-0.899667, 9.764623,1,1
1778777014069,  1707.944,  1707.939, 0.023110, 0.082944,-1.011258, 0.000227, 0.000828,-0.010118, 0.008067,-0.032939,-0.041785,1, 0.008591,-0.006300, 0.000519,1,-0.113927,-0.898522, 9.764735,1,1
1778777014092,  1707.964,  1707.964, 0.006085, 0.097804,-0.971725, 0.000076, 0.000973,-0.009743,-0.054580, 0.059877, 0.235300,1,-0.002950, 0.004764,-0.000342,1,-0.114396,-0.899346, 9.764654,1,1
1778777014118,  1707.989,  1707.989, 0.013719, 0.085910,-0.995897, 0.000123, 0.000867,-0.009923, 0.020469,-0.055685,-0.001645,1, 0.009291,-0.003772,-0.000154,1,-0.113951,-0.897882, 9.764794,1,1
1778777014139,  1708.014,  1708.009, 0.000210, 0.098808,-0.983511, 0.000011, 0.000982,-0.009857,-0.007796, 0.010851,-0.058607,1,-0.006428, 0.005549,-0.000832,1,-0.114274,-0.898175, 9.764764,1,1
1778777014162,  1708.034,  1708.034, 0.016362, 0.086210,-0.999509, 0.000141, 0.000868,-0.009969, 0.045755,-0.052712,-0.037077,1, 0.006049,-0.004008, 0.000578,1,-0.114576,-0.897955, 9.764780,1,1
1778777014188,  1708.059,  1708.059, 0.017087, 0.092469,-0.995640, 0.000194, 0.000911,-0.009990, 0.052996, 0.008646, 0.000865,1,-0.006586, 0.003765,-0.001355,1,-0.114681,-0.898375, 9.764740,1,1
1778777014209,  1708.084,  1708.079, 0.014698, 0.084693,-1.003533, 0.000128, 0.000856,-0.009998,-0.065580, 0.023987, 0.140585,1, 0.004979,-0.002625, 0.000681,1,-0.114928,-0.898493, 9.764727,1,1
1778777014232,  1708.109,  1708.104, 0.011811, 0.093754,-0.997324, 0.000138, 0.000925,-0.010007, 0.001483, 0.020767,-0.015684,1,-0.010200, 0.004280,-0.000038,1,-0.114471,-0.898966, 9.764688,1,1
1778777014258,  1708.129,  1708.129, 0.005058, 0.095199,-0.977371, 0.000033, 0.000969,-0.009748,-0.065006, 0.033893, 0.179887,1, 0.003698,-0.003810, 0.001068,1,-0.114492,-0.899580, 9.764631,1,1
1778777014279,  1708.154,  1708.149, 0.015606, 0.093109,-0.992159, 0.000183, 0.000920,-0.009955, 0.135760,-0.068556,-0.103574,1, 0.000567,-0.000516,-0.001405,1,-0.113720,-0.898642, 9.764727,1,1
1778777014302,  1708.179,  1708.174, 0.003367, 0.093891,-0.977076, 0.000024, 0.000953,-0.009746,-0.081662, 0.021821, 0.182841,1, 0.008022,-0.001535, 0.000728,1,-0.114638,-0.898687, 9.764712,1,1
1778777014328,  1708.199,  1708.199, 0.018238, 0.085173,-1.008514, 0.000189, 0.000842,-0.010096, 0.065181,-0.062474,-0.125337,1,-0.000614,-0.002827,-0.001435,1,-0.113582,-0.897759, 9.764810,1,1
1778777014349,  1708.224,  1708.219, 0.004603, 0.094296,-0.980788, 0.000027, 0.000956,-0.009787,-0.099341, 0.063230, 0.180262,1,-0.005505, 0.002583, 0.000645,1,-0.114155,-0.899125, 9.764677,1,1
1778777014372,  1708.249,  1708.244, 0.022024, 0.085139,-1.008469, 0.000225, 0.000841,-0.010094, 0.102354,-0.063162,-0.124921,1,-0.000687, 0.000794,-0.001096,1,-0.113645,-0.898114, 9.764776,1,1
1778777014398,  1708.269,  1708.269,-0.000156, 0.098130,-0.974780, 0.000008, 0.000980,-0.009756, 0.003673, 0.023536, 0.033728,1,-0.005184, 0.006225,-0.001006,1,-0.114220,-0.898604, 9.764725,1,1
1778777014420,  1708.294,  1708.289, 0.021663, 0.083965,-1.014601, 0.000218, 0.000830,-0.010151, 0.022145,-0.064906,-0.074069,1, 0.009734,-0.005563, 0.000518,1,-0.113860,-0.897179, 9.764860,1,1
1778777014442,  1708.319,  1708.314, 0.006524, 0.098451,-0.978095, 0.000069, 0.000983,-0.009795,-0.050845, 0.067502, 0.172939,1,-0.004840, 0.006420, 0.000470,1,-0.115025,-0.898125, 9.764759,1,1
1778777014468,  1708.339,  1708.339, 0.018100, 0.086301,-0.997624, 0.000167, 0.000872,-0.009946, 0.062414,-0.051047,-0.018518,1, 0.006510,-0.001959, 0.000159,1,-0.115024,-0.897168, 9.764848,1,1
1778777014490,  1708.364,  1708.359, 0.001189, 0.097496,-0.981294, 0.000024, 0.000975,-0.009823, 0.011034, 0.017158,-0.013737,1,-0.001528, 0.004968,-0.001586,1,-0.115506,-0.897125, 9.764846,1,1
1778777014512,  1708.389,  1708.384, 0.015433, 0.085485,-1.004108, 0.000132, 0.000864,-0.010020, 0.036206,-0.057103,-0.081932,1, 0.011684,-0.006861,-0.001154,1,-0.114920,-0.895062, 9.765041,1,1
1778777014538,  1708.409,  1708.409, 0.016432, 0.092503,-0.996381, 0.000185, 0.000916,-0.010004, 0.046561, 0.012316,-0.006093,1,-0.004270, 0.003489,-0.001095,1,-0.114670,-0.894949, 9.765055,1,1
1778777014560,  1708.434,  1708.429, 0.011744, 0.084423,-0.993269, 0.000101, 0.000850,-0.009896,-0.088707,-0.006621, 0.233922,1, 0.003475,-0.003516, 0.000811,1,-0.114868,-0.895044, 9.765044,1,1
1778777014587,  1708.459,  1708.459, 0.009058, 0.092626,-0.999844, 0.000110, 0.000910,-0.010031,-0.025018, 0.013944,-0.040005,1,-0.007635, 0.002986,-0.000948,1,-0.113936,-0.894641, 9.765092,1,1
1778777014608,  1708.479,  1708.479, 0.002732, 0.093559,-0.975824, 0.000006, 0.000947,-0.009735,-0.087717, 0.021735, 0.195416,1,-0.002554,-0.001065, 0.000906,1,-0.114477,-0.895844, 9.764976,1,1
1778777014630,  1708.504,  1708.499, 0.015381, 0.093462,-0.989528, 0.000172, 0.000920,-0.009921, 0.115162,-0.082769,-0.061028,1,-0.003306, 0.001996,-0.000864,1,-0.114086,-0.895760, 9.764988,1,1
1778777014657,  1708.529,  1708.529, 0.003872, 0.096014,-0.978710, 0.000025, 0.000975,-0.009753,-0.078040, 0.044802, 0.166999,1, 0.004088, 0.000020, 0.001400,1,-0.116020,-0.896649, 9.764883,1,1
1778777014678,  1708.554,  1708.549, 0.016902, 0.093872,-0.998708, 0.000189, 0.000927,-0.010022, 0.111485,-0.050716,-0.166615,1,-0.000631, 0.001554, 0.000206,1,-0.115796,-0.895891, 9.764956,1,1
1778777014700,  1708.574,  1708.569, 0.010139, 0.095662,-0.979389, 0.000084, 0.000966,-0.009769,-0.042045, 0.079544, 0.173488,1,-0.003672, 0.004906, 0.000836,1,-0.116851,-0.896892, 9.764851,1,1
1778777014727,  1708.599,  1708.599, 0.022143, 0.086558,-1.009715, 0.000227, 0.000855,-0.010104, 0.101089,-0.046671,-0.136932,1, 0.001616,-0.002566,-0.000879,1,-0.115979,-0.895470, 9.764992,1,1
1778777014748,  1708.624,  1708.619, 0.001004, 0.093916,-0.988474,-0.000008, 0.000949,-0.009859, 0.008978, 0.035138,-0.031398,1,-0.003473, 0.002955,-0.000586,1,-0.116339,-0.895869, 9.764951,1,1
1778777014770,  1708.644,  1708.639, 0.020800, 0.083885,-1.013374, 0.000213, 0.000828,-0.010145, 0.026583,-0.060950,-0.103946,1, 0.007378,-0.007356, 0.000104,1,-0.115245,-0.894757, 9.765066,1,1
1778777014797,  1708.669,  1708.669, 0.003412, 0.096789,-0.971061, 0.000040, 0.000967,-0.009724,-0.082045, 0.053195, 0.242091,1,-0.006326, 0.005701, 0.000291,1,-0.115684,-0.896174, 9.764931,1,1
1778777014819,  1708.694,  1708.689, 0.019223, 0.083906,-1.007707, 0.000202, 0.000830,-0.010085, 0.049341,-0.078732,-0.023399,1, 0.004539,-0.004425, 0.000519,1,-0.115122,-0.895490, 9.765000,1,1
1778777014840,  1708.714,  1708.709,-0.000747, 0.099213,-0.976380,-0.000003, 0.000993,-0.009774,-0.028812, 0.019750, 0.029917,1,-0.007650, 0.005750,-0.000257,1,-0.115539,-0.896381, 9.764914,1,1
1778777014867,  1708.739,  1708.739, 0.017384, 0.084748,-0.999695, 0.000156, 0.000862,-0.009968, 0.055173,-0.065260,-0.038738,1, 0.004079,-0.004813, 0.001380,1,-0.115161,-0.896231, 9.764932,1,1
1778777014889,  1708.764,  1708.759, 0.002305, 0.095543,-0.972351, 0.000035, 0.000949,-0.009730, 0.021989,-0.003441, 0.082134,1,-0.006138, 0.005472,-0.000220,1,-0.115558,-0.896976, 9.764858,1,1
1778777014910,  1708.784,  1708.779, 0.015022, 0.084818,-1.001949, 0.000137, 0.000854,-0.009985,-0.080480, 0.009296, 0.179064,1, 0.005816,-0.001041, 0.001808,1,-0.116148,-0.896932, 9.764855,1,1
1778777014937,  1708.809,  1708.809, 0.008774, 0.094365,-0.994142, 0.000104, 0.000931,-0.009982,-0.029787, 0.028472, 0.015651,1,-0.009602, 0.007194,-0.001003,1,-0.115972,-0.897191, 9.764834,1,1
1778777014959,  1708.834,  1708.829, 0.022400, 0.084824,-1.004748, 0.000202, 0.000859,-0.010015,-0.049829, 0.027678, 0.146726,1, 0.005008,-0.002447, 0.001000,1,-0.116415,-0.897540, 9.764796,1,1
1778777014980,  1708.854,  1708.849, 0.016144, 0.093257,-0.993349, 0.000181, 0.000925,-0.009974, 0.152149,-0.064673,-0.169387,1, 0.000312, 0.001151,-0.001365,1,-0.115772,-0.896564, 9.764894,1,1
1778777015007,  1708.879,  1708.879, 0.003451, 0.091570,-0.980138, 0.000022, 0.000933,-0.009768,-0.082774, 0.000937, 0.152968,1, 0.006152,-0.006450, 0.000164,1,-0.116412,-0.896870, 9.764858,1,1
1778777015029,  1708.904,  1708.899, 0.010084, 0.092640,-0.999415, 0.000118, 0.000912,-0.010030, 0.069817,-0.085289,-0.187331,1,-0.002360,-0.004606,-0.000948,1,-0.114733,-0.896200, 9.764939,1,1
1778777015050,  1708.924,  1708.919, 0.008836, 0.095600,-0.980602, 0.000071, 0.000970,-0.009783,-0.083919, 0.076227, 0.153905,1,-0.009657, 0.004793, 0.000717,1,-0.115523,-0.898323, 9.764735,1,1
1778777015077,  1708.949,  1708.949, 0.023946, 0.085629,-1.002115, 0.000246, 0.000846,-0.010036, 0.119793,-0.058706,-0.062658,1,-0.003427, 0.000308, 0.000296,1,-0.115044,-0.898546, 9.764720,1,1
1778777015099,  1708.974,  1708.969, 0.000628, 0.095336,-0.981532,-0.000006, 0.000966,-0.009789,-0.115091, 0.078762, 0.217782,1, 0.000204, 0.002482, 0.000340,1,-0.115730,-0.899288, 9.764644,1,1
1778777015122,  1708.994,  1708.994, 0.020343, 0.084601,-1.012951, 0.000202, 0.000834,-0.010138, 0.085136,-0.068024,-0.168852,1,-0.001617,-0.002413,-0.000945,1,-0.114282,-0.897727, 9.764805,1,1
1778777015147,  1709.019,  1709.019, 0.007037, 0.099154,-0.973309, 0.000077, 0.000991,-0.009756,-0.046002, 0.072968, 0.219740,1,-0.008737, 0.004906, 0.000883,1,-0.115164,-0.899671, 9.764615,1,1
1778777015169,  1709.044,  1709.039, 0.019915, 0.085759,-1.007447, 0.000207, 0.000849,-0.010067, 0.051997,-0.046053, 0.044072,1, 0.005728,-0.005214, 0.000108,1,-0.114815,-0.899377, 9.764647,1,1
1778777015192,  1709.064,  1709.064,-0.001233, 0.100597,-0.983223, 0.000003, 0.001008,-0.009850,-0.126814, 0.087036, 0.122509,1,-0.001621, 0.000784, 0.000124,1,-0.114748,-0.899537, 9.764632,1,1
1778777015218,  1709.089,  1709.089, 0.015065, 0.085289,-1.001474, 0.000123, 0.000869,-0.009986, 0.033678,-0.062200,-0.056383,1, 0.007951,-0.006514, 0.000874,1,-0.113863,-0.898353, 9.764752,1,1
1778777015239,  1709.114,  1709.109, 0.005267, 0.097011,-0.972058, 0.000072, 0.000966,-0.009741, 0.065802,-0.000594, 0.003533,1,-0.007846, 0.006816,-0.000048,1,-0.114026,-0.898916, 9.764698,1,1
1778777015262,  1709.134,  1709.134, 0.011409, 0.087466,-0.996972, 0.000097, 0.000883,-0.009934,-0.002834,-0.041646,-0.012307,1, 0.005139,-0.005829, 0.000761,1,-0.114539,-0.899234, 9.764663,1,1
1778777015288,  1709.159,  1709.159, 0.012380, 0.090501,-1.005641, 0.000144, 0.000888,-0.010091, 0.007215,-0.011912,-0.097317,1,-0.006658, 0.001802,-0.000393,1,-0.114248,-0.899627, 9.764630,1,1
1778777015309,  1709.184,  1709.179, 0.015883, 0.085626,-0.991613, 0.000142, 0.000866,-0.009885,-0.077057, 0.034501, 0.188587,1, 0.002983,-0.001181, 0.001225,1,-0.114648,-0.900247, 9.764568,1,1
1778777015332,  1709.204,  1709.204, 0.016925, 0.090439,-0.992460, 0.000186, 0.000889,-0.009953, 0.051787,-0.012612, 0.031935,1,-0.004076, 0.005522,-0.001502,1,-0.114334,-0.899635, 9.764628,1,1
1778777015358,  1709.229,  1709.229,-0.001102, 0.095357,-0.981058,-0.000024, 0.000972,-0.009782,-0.125570, 0.035424, 0.143723,1, 0.005530,-0.001183, 0.000079,1,-0.114724,-0.899542, 9.764632,1,1
1778777015379,  1709.254,  1709.249, 0.017504, 0.091542,-1.004131, 0.000191, 0.000903,-0.010079, 0.093432,-0.080512,-0.213585,1, 0.004027,-0.004002,-0.001682,1,-0.113683,-0.898081, 9.764779,1,1
1778777015402,  1709.274,  1709.274, 0.005889, 0.096031,-0.968411, 0.000047, 0.000973,-0.009670,-0.056676, 0.042278, 0.267779,1, 0.001040,-0.000338, 0.001445,1,-0.114417,-0.899432, 9.764647,1,1
1778777015428,  1709.299,  1709.299, 0.022505, 0.082266,-1.006578, 0.000226, 0.000821,-0.010052, 0.106982,-0.091637,-0.106410,1, 0.002903,-0.001570,-0.000590,1,-0.113670,-0.898297, 9.764759,1,1
1778777015449,  1709.324,  1709.319, 0.001743, 0.098014,-0.981404, 0.000007, 0.000991,-0.009796,-0.073588, 0.067391, 0.125200,1,-0.004761, 0.004217, 0.000179,1,-0.114581,-0.899257, 9.764661,1,1
1778777015472,  1709.349,  1709.344, 0.024752, 0.084050,-1.006799, 0.000246, 0.000834,-0.010070, 0.129034,-0.074379,-0.108602,1, 0.000039,-0.002601,-0.000915,1,-0.113613,-0.898628, 9.764729,1,1
1778777015498,  1709.369,  1709.369, 0.005381, 0.098267,-0.974504, 0.000075, 0.000974,-0.009769,-0.061426, 0.064277, 0.208030,1,-0.003400, 0.003835, 0.000375,1,-0.114317,-0.899497, 9.764642,1,1
1778777015520,  1709.394,  1709.389, 0.020120, 0.083326,-1.015169, 0.000204, 0.000829,-0.010144, 0.004169,-0.030811,-0.008465,1, 0.010759,-0.007104,-0.000204,1,-0.113613,-0.898154, 9.764773,1,1
1778777015542,  1709.419,  1709.414, 0.003335, 0.100323,-0.977542, 0.000042, 0.001000,-0.009808,-0.080848, 0.085211, 0.178317,1,-0.006289, 0.004288, 0.000559,1,-0.113692,-0.898814, 9.764711,1,1
1778777015568,  1709.439,  1709.439, 0.012050, 0.088521,-0.991694, 0.000101, 0.000903,-0.009878, 0.004978,-0.030071, 0.039576,1, 0.008245,-0.005611, 0.000016,1,-0.113021,-0.897910, 9.764803,1,1
1778777015590,  1709.464,  1709.459,-0.000269, 0.099140,-0.983310, 0.000009, 0.000985,-0.009855, 0.020876, 0.011384,-0.062096,1,-0.002331, 0.001453,-0.000906,1,-0.112737,-0.897463, 9.764847,1,1
1778777015612,  1709.489,  1709.484, 0.011670, 0.086848,-0.999532, 0.000096, 0.000878,-0.009967, 0.002134,-0.045424,-0.037176,1, 0.005265,-0.006226, 0.000731,1,-0.112121,-0.896949, 9.764901,1,1
1778777015638,  1709.509,  1709.509, 0.014342, 0.091249,-0.997297, 0.000160, 0.000901,-0.010007, 0.028226,-0.002671,-0.015295,1,-0.008043, 0.006926, 0.000160,1,-0.112633,-0.897763, 9.764820,1,1
1778777015660,  1709.534,  1709.529, 0.016727, 0.086032,-0.995200, 0.000145, 0.000873,-0.009926,-0.099433, 0.038245, 0.182951,1,-0.000645, 0.001262, 0.001712,1,-0.113473,-0.898722, 9.764723,1,1
1778777015683,  1709.559,  1709.554, 0.020190, 0.091873,-0.993053, 0.000216, 0.000901,-0.009971, 0.084631, 0.001951, 0.026170,1,-0.009145, 0.006855, 0.000263,1,-0.113583,-0.899301, 9.764668,1,1
1778777015708,  1709.579,  1709.579, 0.009145, 0.095304,-0.970137, 0.000087, 0.000965,-0.009678,-0.024454, 0.034516, 0.250791,1, 0.002071,-0.004012, 0.001384,1,-0.114014,-0.900035, 9.764595,1,1
1778777015730,  1709.604,  1709.599, 0.013954, 0.090240,-1.004037, 0.000160, 0.000892,-0.010064, 0.101027,-0.084760,-0.119066,1, 0.002044,-0.010246,-0.000822,1,-0.111892,-0.899127, 9.764704,1,1
1778777015753,  1709.629,  1709.624, 0.001027, 0.091076,-0.983456,-0.000007, 0.000928,-0.009822,-0.100743,-0.007109, 0.120206,1,-0.001081,-0.004295, 0.001293,1,-0.110683,-0.900296, 9.764609,1,1
1778777015778,  1709.649,  1709.649, 0.021264, 0.084534,-1.007704, 0.000215, 0.000842,-0.010073, 0.098802,-0.071149,-0.117571,1,-0.002594,-0.002370,-0.000111,1,-0.109649,-0.900226, 9.764627,1,1
1778777015800,  1709.674,  1709.669,-0.002072, 0.095293,-0.979599,-0.000034, 0.000972,-0.009764,-0.116799, 0.076482, 0.201455,1,-0.003120, 0.006813, 0.000570,1,-0.110875,-0.901379, 9.764507,1,1
1778777015827,  1709.699,  1709.699, 0.018969, 0.083091,-1.021439, 0.000186, 0.000824,-0.010214, 0.076723,-0.083974,-0.252138,1, 0.006552,-0.003033,-0.001728,1,-0.109201,-0.898615, 9.764781,1,1
1778777015848,  1709.719,  1709.719, 0.004762, 0.098636,-0.978629, 0.000060, 0.000978,-0.009817,-0.063555, 0.067988, 0.167638,1,-0.004287, 0.008278,-0.000918,1,-0.110512,-0.899430, 9.764691,1,1
1778777015870,  1709.744,  1709.739, 0.016383, 0.085471,-1.004595, 0.000169, 0.000845,-0.010040, 0.014771,-0.038729, 0.087775,1, 0.006949,-0.001885,-0.001492,1,-0.110873,-0.898767, 9.764749,1,1
1778777015897,  1709.769,  1709.769,-0.004440, 0.100327,-0.988086,-0.000039, 0.001000,-0.009894,-0.155278, 0.085561, 0.074964,1, 0.001001, 0.006065,-0.001927,1,-0.111921,-0.898283, 9.764781,1,1
1778777015919,  1709.794,  1709.789, 0.027309, 0.084181,-1.005173, 0.000271, 0.000833,-0.010072, 0.065211,-0.056593,-0.094153,1, 0.010169,-0.000800,-0.002101,1,-0.112148,-0.896586, 9.764935,1,1
1778777015940,  1709.814,  1709.809, 0.004704, 0.097629,-0.961098, 0.000066, 0.000981,-0.009622, 0.078665,-0.001059, 0.121416,1,-0.000364, 0.012033,-0.002902,1,-0.113139,-0.896069, 9.764970,1,1
1778777015967,  1709.839,  1709.839, 0.007817, 0.081268,-0.999510, 0.000064, 0.000819,-0.009940,-0.036838,-0.095833,-0.036576,1, 0.019288,-0.009611,-0.002695,1,-0.113194,-0.892203, 9.765324,1,1
1778777015989,  1709.864,  1709.859, 0.001214, 0.094535,-0.980871, 0.000013, 0.000944,-0.009836,-0.031927,-0.017801,-0.138019,1,-0.003657, 0.008103,-0.001731,1,-0.113137,-0.891334, 9.765404,1,1
1778777016010,  1709.884,  1709.879, 0.022526, 0.083114,-0.986903, 0.000207, 0.000842,-0.009840,-0.054049, 0.011698, 0.228777,1,-0.002682, 0.007576, 0.000795,1,-0.114951,-0.892484, 9.765278,1,1
1778777016037,  1709.909,  1709.909, 0.019130, 0.092928,-0.986307, 0.000215, 0.000922,-0.009887, 0.070452, 0.019089, 0.092911,1,-0.002037, 0.014406, 0.000008,1,-0.117599,-0.892282, 9.765265,1,1
1778777016059,  1709.934,  1709.929, 0.017712, 0.087555,-1.008251, 0.000158, 0.000876,-0.010051,-0.067912, 0.032135, 0.138603,1, 0.012093,-0.001956,-0.000462,1,-0.118617,-0.890805, 9.765387,1,1
