unix_time_ms_sensor,GPS_ts_week,GPS_ts_tow,scaledAccelX,scaledAccelY,scaledAccelZ,deltaVelX,deltaVelY,deltaVelZ,unix_time_ms_filter,fGPS_ts_week,fGPS_ts_tow,estLinAccelX,estLinAccelY,estLinAccelZ,estLinAccel_valid,estAngRateX,estAngRateY,estAngRateZ,estAngRate_valid,estGravityX,estGravityY,estGravityZ,estGravity_valid,flag_sensor,flag_filter
1779140814624.000000000,2419,164832.624000000,0.013496737,-0.025743535,-0.995297134,0.000137025,-0.000256351,-0.009948667,1779140814624.000000000,2419,164832.624000000,-0.008030404,-0.011929452,0.042163081,1,-0.000166834,-0.000669244,0.000107184,1,-0.140368968,0.240522444,9.802695274,1,0,0
1779140814634.000000000,2419,164832.634000000,0.013878087,-0.024483284,-0.995709717,0.000137658,-0.000245985,-0.009961028,1779140814634.000000000,2419,164832.634000000,-0.004224327,0.000442915,0.038117815,1,-0.000482619,-0.000091705,0.000430725,1,-0.140318796,0.240527019,9.802695274,1,0,0
1779140814654.000000000,2419,164832.654000000,0.014276190,-0.023086935,-0.995138347,0.000143875,-0.000234327,-0.009959414,1779140814654.000000000,2419,164832.654000000,-0.000291540,0.014068589,0.043723088,1,-0.000377033,-0.000771286,-0.000095967,1,-0.140269145,0.240462303,9.802698135,1,0,0
1779140814664.000000000,2419,164832.664000000,0.014802581,-0.023832209,-0.997201085,0.000145601,-0.000233666,-0.009966183,1779140814664.000000000,2419,164832.664000000,0.004857054,0.006742259,0.023494553,1,0.000077439,0.000747779,0.000349297,1,-0.140329748,0.240458980,9.802697182,1,0,0
1779140814674.000000000,2419,164832.674000000,0.014190588,-0.023401588,-0.994682372,0.000142888,-0.000236262,-0.009949124,1779140814674.000000000,2419,164832.674000000,-0.001123752,0.010894928,0.048196796,1,-0.000766527,0.000049700,-0.000521381,1,-0.140287846,0.240361974,9.802700043,1,0,0
1779140814694.000000000,2419,164832.694000000,0.013668504,-0.024624100,-0.995715559,0.000136779,-0.000244386,-0.009951252,1779140814694.000000000,2419,164832.694000000,-0.006227774,-0.001072327,0.038064402,1,0.000491253,0.000012709,0.000491991,1,-0.140270025,0.240423158,9.802699089,1,0,0
1779140814704.000000000,2419,164832.704000000,0.013254200,-0.025017498,-0.995134354,0.000134567,-0.000250131,-0.009958429,1779140814704.000000000,2419,164832.704000000,-0.010234373,-0.004901597,0.043764442,1,-0.000083588,-0.000795754,0.000298936,1,-0.140188619,0.240433797,9.802700043,1,0,0
1779140814724.000000000,2419,164832.724000000,0.013417060,-0.023890929,-0.993976831,0.000135523,-0.000238873,-0.009946344,1779140814724.000000000,2419,164832.724000000,-0.008596455,0.006098544,0.055116989,1,-0.000350286,0.000312211,0.000096174,1,-0.140182540,0.240377650,9.802700996,1,0,0
1779140814734.000000000,2419,164832.734000000,0.014553902,-0.024768386,-0.997141540,0.000143915,-0.000246729,-0.009967768,1779140814734.000000000,2419,164832.734000000,0.002513131,-0.002494881,0.024081055,1,0.000436210,-0.000278229,-0.000042539,1,-0.140203252,0.240413621,9.802700043,1,0,0
1779140814754.000000000,2419,164832.754000000,0.015233371,-0.024481514,-0.996120334,0.000151060,-0.000247382,-0.009967962,1779140814754.000000000,2419,164832.754000000,0.009231926,0.000317972,0.034096397,1,0.000282608,-0.000088118,0.000376873,1,-0.140153378,0.240408629,9.802700996,1,0,0
1779140814764.000000000,2419,164832.764000000,0.014712473,-0.024218651,-0.996671855,0.000146812,-0.000238657,-0.009958903,1779140814764.000000000,2419,164832.764000000,0.004142650,0.002913204,0.028688569,1,0.000199748,-0.000317723,0.000039589,1,-0.140127495,0.240423292,9.802700996,1,0,0
1779140814784.000000000,2419,164832.784000000,0.014291236,-0.025126351,-0.996081412,0.000142994,-0.000248815,-0.009958345,1779140814784.000000000,2419,164832.784000000,0.000083842,-0.005991048,0.034479719,1,0.000378147,0.000107049,-0.000521584,1,-0.140069053,0.240425870,9.802701950,1,0,0
1779140814794.000000000,2419,164832.794000000,0.012855284,-0.024374221,-0.995051026,0.000129905,-0.000242279,-0.009950336,1779140814794.000000000,2419,164832.794000000,-0.013931578,0.001349012,0.044586264,1,-0.000359533,-0.000333969,-0.000033545,1,-0.139988452,0.240367249,9.802703857,1,0,0
1779140814804.000000000,2419,164832.804000000,0.013196552,-0.024885869,-0.995953918,0.000130525,-0.000249818,-0.009959763,1779140814804.000000000,2419,164832.804000000,-0.010560950,-0.003643215,0.035731137,1,0.000429760,-0.000129128,-0.000286922,1,-0.139971107,0.240417093,9.802702904,1,0,0
1779140814824.000000000,2419,164832.824000000,0.013033670,-0.024267996,-0.995722473,0.000130085,-0.000242173,-0.009963428,1779140814824.000000000,2419,164832.824000000,-0.012051164,0.002437462,0.038002096,1,-0.000229037,-0.000706255,-0.000373894,1,-0.139843673,0.240418494,9.802704811,1,0,0
1779140814834.000000000,2419,164832.834000000,0.014110375,-0.024260260,-0.997337580,0.000138455,-0.000240068,-0.009965949,1779140814834.000000000,2419,164832.834000000,-0.001515389,0.002523755,0.022162680,1,0.000007435,0.001449444,0.000144537,1,-0.139935881,0.240435988,9.802702904,1,0,0
1779140814854.000000000,2419,164832.854000000,0.014130784,-0.025470523,-0.996758103,0.000140873,-0.000252091,-0.009961475,1779140814854.000000000,2419,164832.854000000,-0.001373599,-0.009385964,0.027845738,1,0.000003955,0.000185266,-0.000421023,1,-0.139955372,0.240394503,9.802703857,1,0,0
1779140814864.000000000,2419,164832.864000000,0.013818706,-0.024979044,-0.995276511,0.000140105,-0.000248873,-0.009952466,1779140814864.000000000,2419,164832.864000000,-0.004426114,-0.004586279,0.042375471,1,0.000582494,0.000405810,0.000030336,1,-0.139953986,0.240392670,9.802703857,1,0,0
1779140814884.000000000,2419,164832.884000000,0.013912991,-0.023737291,-0.996273339,0.000137710,-0.000238318,-0.009952492,1779140814884.000000000,2419,164832.884000000,-0.003483039,0.007640034,0.032599397,1,0.000759301,-0.000416743,0.000243435,1,-0.139909685,0.240447149,9.802703857,1,0,0
1779140814894.000000000,2419,164832.894000000,0.014271565,-0.023105236,-0.995684862,0.000146480,-0.000234840,-0.009962998,1779140814894.000000000,2419,164832.894000000,0.000044449,0.013906315,0.038368266,1,0.000150630,-0.000445495,0.000032398,1,-0.139897883,0.240496010,9.802701950,1,0,0
1779140814914.000000000,2419,164832.914000000,0.015553407,-0.024146160,-0.994768262,0.000153643,-0.000240061,-0.009951502,1779140814914.000000000,2419,164832.914000000,0.012588459,0.003664675,0.047357202,1,-0.000450226,-0.000076621,0.000128711,1,-0.139935881,0.240443647,9.802702904,1,0,0
1779140814924.000000000,2419,164832.924000000,0.016363347,-0.025021207,-0.996154845,0.000164142,-0.000250856,-0.009961306,1779140814924.000000000,2419,164832.924000000,0.020500418,-0.004955583,0.033760708,1,-0.001003882,-0.000157907,-0.000049947,1,-0.139964312,0.240387306,9.802703857,1,0,0
1779140814944.000000000,2419,164832.944000000,0.015089569,-0.024557980,-0.995828450,0.000155616,-0.000249003,-0.009965330,1779140814944.000000000,2419,164832.944000000,0.008045055,-0.000535215,0.036965154,1,-0.000786874,-0.000105729,0.000248749,1,-0.139929593,0.240271866,9.802707672,1,0,0
1779140814954.000000000,2419,164832.954000000,0.014438366,-0.024661604,-0.996799290,0.000144814,-0.000246137,-0.009959360,1779140814954.000000000,2419,164832.954000000,0.001642865,-0.001584927,0.027444649,1,-0.000312953,0.000480853,0.000379536,1,-0.139963865,0.240253210,9.802707672,1,0,0
1779140814964.000000000,2419,164832.964000000,0.013398605,-0.023631783,-0.994868457,0.000135994,-0.000240835,-0.009954693,1779140814964.000000000,2419,164832.964000000,-0.008532603,0.008446399,0.046382088,1,-0.000734454,-0.000300885,0.000145504,1,-0.139918551,0.240172192,9.802709579,1,0,0
1779140814984.000000000,2419,164832.984000000,0.012654121,-0.024508854,-0.994141519,0.000124540,-0.000244373,-0.009947454,1779140814984.000000000,2419,164832.984000000,-0.015734080,-0.000142232,0.053511370,1,-0.000041977,-0.000663160,0.000216244,1,-0.139807761,0.240206331,9.802710533,1,0,0
1779140814994.000000000,2419,164832.994000000,0.013062392,-0.025225474,-0.996127427,0.000131493,-0.000251494,-0.009958687,1779140814994.000000000,2419,164832.994000000,-0.011676569,-0.007169090,0.034037657,1,-0.000663708,-0.000937605,0.000359992,1,-0.139745355,0.240187749,9.802712440,1,0,0
1779140815014.000000000,2419,164833.014000000,0.014538298,-0.025911652,-0.996202290,0.000145248,-0.000261151,-0.009960993,1779140815014.000000000,2419,164833.014000000,0.002883788,-0.014006951,0.033307757,1,-0.001475767,0.000474328,0.000623226,1,-0.139694154,0.240056574,9.802716255,1,0,0
1779140815024.000000000,2419,164833.024000000,0.015146561,-0.025130980,-0.996410429,0.000151192,-0.000253441,-0.009962918,1779140815024.000000000,2419,164833.024000000,0.008872700,-0.006403751,0.031267643,1,-0.000252374,-0.000755039,0.000609386,1,-0.139639765,0.240039572,9.802717209,1,0,0
1779140815044.000000000,2419,164833.044000000,0.015062473,-0.023089005,-0.996995091,0.000151071,-0.000231035,-0.009969336,1779140815044.000000000,2419,164833.044000000,0.007995422,0.013540098,0.025534941,1,-0.000438478,0.000103332,-0.000219942,1,-0.139720365,0.239952117,9.802718163,1,0,0
1779140815054.000000000,2419,164833.054000000,0.014257769,-0.021957248,-0.995256603,0.000140680,-0.000216870,-0.009953255,1779140815054.000000000,2419,164833.054000000,0.000051118,0.024613556,0.042583421,1,0.000035402,0.001340330,0.000279720,1,-0.139811441,0.239941850,9.802717209,1,0,0
1779140815074.000000000,2419,164833.074000000,0.012953827,-0.023234727,-0.996013403,0.000128441,-0.000229319,-0.009953940,1779140815074.000000000,2419,164833.074000000,-0.012842955,0.011971977,0.035163563,1,-0.000061933,0.000980766,-0.000450007,1,-0.139907554,0.239824697,9.802719116,1,0,0
1779140815084.000000000,2419,164833.084000000,0.012444653,-0.024537981,-0.994740486,0.000122741,-0.000247009,-0.009953245,1779140815084.000000000,2419,164833.084000000,-0.017972745,-0.000820727,0.047644682,1,-0.000000644,0.001569970,-0.000476303,1,-0.140062451,0.239814430,9.802717209,1,0,0
1779140815094.000000000,2419,164833.094000000,0.012999143,-0.026472710,-0.996376693,0.000129345,-0.000261962,-0.009955064,1779140815094.000000000,2419,164833.094000000,-0.012598516,-0.019805599,0.031598683,1,-0.000140936,0.000296687,-0.001000035,1,-0.140086576,0.239798188,9.802717209,1,0,0
1779140815114.000000000,2419,164833.114000000,0.015227981,-0.025991715,-0.996976435,0.000149581,-0.000260294,-0.009969143,1779140815114.000000000,2419,164833.114000000,0.009256591,-0.015082723,0.025717739,1,0.000531915,-0.000189864,0.000212599,1,-0.140072808,0.239825636,9.802716255,1,0,0
1779140815124.000000000,2419,164833.124000000,0.014996046,-0.025497425,-0.996706843,0.000152106,-0.000253996,-0.009964049,1779140815124.000000000,2419,164833.124000000,0.007050703,-0.010208634,0.028361186,1,-0.000246200,-0.000523300,0.000137870,1,-0.139993846,0.239828095,9.802717209,1,0,0
1779140815144.000000000,2419,164833.144000000,0.014535522,-0.024457697,-0.995719314,0.000147064,-0.000243098,-0.009951442,1779140815144.000000000,2419,164833.144000000,0.002536341,-0.000019030,0.038045831,1,0.000380984,0.000005840,0.000030908,1,-0.140008599,0.239840969,9.802717209,1,0,0
1779140815154.000000000,2419,164833.154000000,0.012892273,-0.025067421,-0.995520413,0.000129069,-0.000252900,-0.009955681,1779140815154.000000000,2419,164833.154000000,-0.013587236,-0.005998161,0.039996166,1,-0.000177278,0.000379097,0.000395988,1,-0.140028790,0.239823923,9.802717209,1,0,0
1779140815174.000000000,2419,164833.174000000,0.012181720,-0.024471762,-0.996077240,0.000122916,-0.000245843,-0.009956138,1779140815174.000000000,2419,164833.174000000,-0.020571595,-0.000096942,0.034533776,1,0.000626287,-0.000589393,-0.000220777,1,-0.140015244,0.239908516,9.802715302,1,0,0
1779140815184.000000000,2419,164833.184000000,0.012127414,-0.024137957,-0.995997012,0.000121416,-0.000244956,-0.009964456,1779140815184.000000000,2419,164833.184000000,-0.021094432,0.003190717,0.035319999,1,-0.000190269,0.000457651,0.000319209,1,-0.140037790,0.239897430,9.802715302,1,0,0
1779140815204.000000000,2419,164833.204000000,0.013183733,-0.023693871,-0.995614111,0.000133271,-0.000240130,-0.009964609,1779140815204.000000000,2419,164833.204000000,-0.010811599,0.007492635,0.039075542,1,0.000005926,-0.000170908,-0.000418900,1,-0.140094846,0.239850134,9.802715302,1,0,0
1779140815214.000000000,2419,164833.214000000,0.014463419,-0.023530303,-0.995480418,0.000137891,-0.000237228,-0.009951409,1779140815214.000000000,2419,164833.214000000,0.001829954,0.009134647,0.040386785,1,-0.000403872,0.000760130,-0.000521107,1,-0.139965951,0.239897624,9.802716255,1,0,0
1779140815234.000000000,2419,164833.234000000,0.015987482,-0.024335008,-0.995949388,0.000160088,-0.000241546,-0.009961828,1779140815234.000000000,2419,164833.234000000,0.016838225,0.001284236,0.035787575,1,0.000196329,-0.000454614,0.000295213,1,-0.139930725,0.239935517,9.802715302,1,0,0
1779140815244.000000000,2419,164833.244000000,0.016475812,-0.024116900,-0.996156573,0.000164536,-0.000244138,-0.009958019,1779140815244.000000000,2419,164833.244000000,0.021569198,0.003441155,0.033754673,1,0.000144272,0.000806828,0.000114478,1,-0.140028402,0.239951730,9.802714348,1,0,0
1779140815254.000000000,2419,164833.254000000,0.016681174,-0.024491912,-0.995323062,0.000166498,-0.000247066,-0.009956757,1779140815254.000000000,2419,164833.254000000,0.023656560,-0.000223633,0.041929357,1,-0.000032768,-0.001150501,-0.000073182,1,-0.139894038,0.239958942,9.802715302,1,0,0
1779140815274.000000000,2419,164833.274000000,0.015813004,-0.024857296,-0.995976508,0.000158895,-0.000249011,-0.009961543,1779140815274.000000000,2419,164833.274000000,0.015086606,-0.003820992,0.035520874,1,-0.000922554,0.000470712,-0.000564906,1,-0.140001133,0.239916772,9.802715302,1,0,0
1779140815284.000000000,2419,164833.284000000,0.013989622,-0.024933491,-0.996470749,0.000142301,-0.000251333,-0.009968806,1779140815284.000000000,2419,164833.284000000,-0.002841591,-0.004659177,0.030675653,1,-0.000543515,0.000274824,-0.000090034,1,-0.140041575,0.239837855,9.802716255,1,0,0
1779140815304.000000000,2419,164833.304000000,0.013330241,-0.023791334,-0.995629370,0.000136212,-0.000243211,-0.009959010,1779140815304.000000000,2419,164833.304000000,-0.009428627,0.006401806,0.038928222,1,0.000587741,0.000016974,-0.000225046,1,-0.140154347,0.239733338,9.802717209,1,0,0
1779140815314.000000000,2419,164833.314000000,0.013086384,-0.024217930,-0.996158183,0.000130468,-0.000240686,-0.009955586,1779140815314.000000000,2419,164833.314000000,-0.011812306,0.002282981,0.033740956,1,0.000350762,-0.000041147,-0.000401857,1,-0.140144929,0.239790514,9.802716255,1,0,0
1779140815334.000000000,2419,164833.334000000,0.014124710,-0.023492370,-0.995998383,0.000142184,-0.000237625,-0.009955647,1779140815334.000000000,2419,164833.334000000,-0.001705713,0.009485658,0.035304688,1,0.000587861,-0.000658083,0.000213526,1,-0.140201107,0.239885569,9.802713394,1,0,0
1779140815344.000000000,2419,164833.344000000,0.013906266,-0.024182824,-0.995974123,0.000138786,-0.000242170,-0.009959660,1779140815344.000000000,2419,164833.344000000,-0.003852350,0.002783281,0.035540596,1,0.000790583,0.000523764,0.000135446,1,-0.140242472,0.239960521,9.802710533,1,0,0
1779140815364.000000000,2419,164833.364000000,0.015191098,-0.024366157,-0.996449232,0.000152575,-0.000241431,-0.009959504,1779140815364.000000000,2419,164833.364000000,0.008622004,0.001049731,0.030878421,1,0.000457303,0.000542775,-0.000182515,1,-0.140368864,0.240014300,9.802707672,1,0,0
1779140815374.000000000,2419,164833.374000000,0.015025857,-0.024195323,-0.995014668,0.000148819,-0.000244305,-0.009954676,1779140815374.000000000,2419,164833.374000000,0.006979573,0.002755790,0.044945873,1,-0.000209279,0.000017892,-0.000971294,1,-0.140375063,0.240023896,9.802706718,1,0,0
1779140815384.000000000,2419,164833.384000000,0.015836388,-0.024618873,-0.996471822,0.000156323,-0.000245849,-0.009958649,1779140815384.000000000,2419,164833.384000000,0.014811740,-0.001399037,0.030654458,1,0.000285725,0.000220184,0.000063275,1,-0.140496999,0.240038574,9.802704811,1,0,0
1779140815404.000000000,2419,164833.404000000,0.014491798,-0.024300538,-0.995656908,0.000144163,-0.000243814,-0.009961775,1779140815404.000000000,2419,164833.404000000,0.001588395,0.001784715,0.038643789,1,-0.000380354,0.000657466,-0.000312496,1,-0.140548363,0.240079597,9.802702904,1,0,0
1779140815414.000000000,2419,164833.414000000,0.013807415,-0.023632206,-0.995073795,0.000139766,-0.000235611,-0.009946780,1779140815414.000000000,2419,164833.414000000,-0.005334055,0.008320279,0.044359587,1,0.000309791,0.000242293,-0.000429057,1,-0.140827656,0.240073502,9.802699089,1,0,0
1779140815434.000000000,2419,164833.434000000,0.013352563,-0.024847656,-0.995470524,0.000134644,-0.000247486,-0.009953476,1779140815434.000000000,2419,164833.434000000,-0.009887351,-0.003585350,0.040467057,1,-0.000360460,-0.000146098,-0.000446671,1,-0.140827402,0.240075469,9.802699089,1,0,0
1779140815444.000000000,2419,164833.444000000,0.014073930,-0.024453567,-0.995345712,0.000141402,-0.000244118,-0.009955904,1779140815444.000000000,2419,164833.444000000,-0.002771397,0.000243563,0.041693084,1,-0.000176885,-0.000687223,-0.000025117,1,-0.140768111,0.240045622,9.802700996,1,0,0
1779140815464.000000000,2419,164833.464000000,0.014290910,-0.024474146,-0.995527923,0.000143315,-0.000245915,-0.009955781,1779140815464.000000000,2419,164833.464000000,-0.000629819,-0.000010132,0.039906990,1,-0.000316578,0.000105347,-0.000310355,1,-0.140779316,0.239989251,9.802701950,1,0,0
1779140815474.000000000,2419,164833.474000000,0.014455441,-0.024332603,-0.995542943,0.000144213,-0.000243478,-0.009955228,1779140815474.000000000,2419,164833.474000000,0.000934722,0.001390307,0.039759096,1,0.000199784,-0.000024779,-0.000159081,1,-0.140824094,0.240017816,9.802700996,1,0,0
1779140815494.000000000,2419,164833.494000000,0.015190039,-0.025009418,-0.995270073,0.000150983,-0.000250357,-0.009953553,1779140815494.000000000,2419,164833.494000000,0.008119766,-0.005205415,0.042434487,1,0.000430113,0.000428563,-0.000186529,1,-0.140857145,0.240066558,9.802699089,1,0,0
1779140815504.000000000,2419,164833.504000000,0.014199701,-0.025593307,-0.995961308,0.000143290,-0.000254419,-0.009955914,1779140815504.000000000,2419,164833.504000000,-0.001609811,-0.010861084,0.035652980,1,0.000919733,-0.000155882,0.000510270,1,-0.140856072,0.240152463,9.802697182,1,0,0
1779140815524.000000000,2419,164833.524000000,0.013921577,-0.024448536,-0.995574355,0.000140934,-0.000245548,-0.009960559,1779140815524.000000000,2419,164833.524000000,-0.004347515,0.000368586,0.039447889,1,-0.000296206,0.000194846,-0.000136088,1,-0.140877753,0.240117535,9.802697182,1,0,0
1779140815534.000000000,2419,164833.534000000,0.013155685,-0.024369303,-0.995464385,0.000129578,-0.000242546,-0.009952694,1779140815534.000000000,2419,164833.534000000,-0.011887582,0.001141476,0.040525287,1,0.000741204,0.000588380,-0.000169641,1,-0.140919283,0.240145773,9.802696228,1,0,0
1779140815544.000000000,2419,164833.544000000,0.013005160,-0.023487853,-0.995794058,0.000129455,-0.000236202,-0.009961642,1779140815544.000000000,2419,164833.544000000,-0.013388760,0.009852690,0.037290338,1,0.000766960,-0.000240370,-0.000114532,1,-0.140918419,0.240213737,9.802694321,1,0,0
1779140815564.000000000,2419,164833.564000000,0.013121958,-0.024094908,-0.994856119,0.000128631,-0.000238989,-0.009947070,1779140815564.000000000,2419,164833.564000000,-0.012242088,0.003927008,0.046487637,1,0.000396970,0.000145413,-0.000606759,1,-0.140929535,0.240229458,9.802694321,1,0,0
1779140815574.000000000,2419,164833.574000000,0.014109852,-0.024404677,-0.995876491,0.000138510,-0.000241347,-0.009957215,1779140815574.000000000,2419,164833.574000000,-0.002562334,0.000836033,0.036483414,1,-0.000856420,0.000128704,-0.000326474,1,-0.140936986,0.240137279,9.802696228,1,0,0
1779140815594.000000000,2419,164833.594000000,0.015040804,-0.026382538,-0.995218098,0.000148026,-0.000262440,-0.009955181,1779140815594.000000000,2419,164833.594000000,0.006475847,-0.018599562,0.042939026,1,0.000349459,0.000156195,-0.000464347,1,-0.141029298,0.240135446,9.802695274,1,0,0
1779140815604.000000000,2419,164833.604000000,0.015226710,-0.026746860,-0.996080101,0.000150778,-0.000266674,-0.009956708,1779140815604.000000000,2419,164833.604000000,0.008224932,-0.022216827,0.034486379,1,-0.000795504,0.000165485,0.000083127,1,-0.141103193,0.240055501,9.802696228,1,0,0
1779140815624.000000000,2419,164833.624000000,0.015820246,-0.023444755,-0.996848285,0.000157165,-0.000238218,-0.009963420,1779140815624.000000000,2419,164833.624000000,0.014123349,0.010251550,0.026950832,1,0.001629700,-0.000151634,0.000305390,1,-0.141012296,0.240218580,9.802693367,1,0,0
1779140815634.000000000,2419,164833.634000000,0.014816105,-0.023032088,-0.995815754,0.000150978,-0.000230396,-0.009959496,1779140815634.000000000,2419,164833.634000000,0.004326372,0.014384223,0.037076015,1,0.000287022,-0.000324600,-0.000099191,1,-0.140959740,0.240260869,9.802693367,1,0,0
1779140815654.000000000,2419,164833.654000000,0.013791590,-0.023272246,-0.995405912,0.000138478,-0.000226848,-0.009952746,1779140815654.000000000,2419,164833.654000000,-0.005669273,0.012023395,0.041095987,1,-0.000151098,-0.000858764,-0.000299004,1,-0.140892014,0.240241334,9.802694321,1,0,0
1779140815664.000000000,2419,164833.664000000,0.013229902,-0.024003217,-0.995425820,0.000131756,-0.000238309,-0.009959999,1779140815664.000000000,2419,164833.664000000,-0.011107434,0.004877193,0.040901028,1,0.000332795,-0.000202219,0.000186933,1,-0.140842006,0.240278825,9.802694321,1,0,0
1779140815674.000000000,2419,164833.674000000,0.014165862,-0.024946822,-0.996451199,0.000140843,-0.000249638,-0.009961444,1779140815674.000000000,2419,164833.674000000,-0.001970682,-0.004358492,0.030844713,1,-0.000283533,0.000471191,-0.000396249,1,-0.140905350,0.240277246,9.802693367,1,0,0
1779140815694.000000000,2419,164833.694000000,0.014929976,-0.024999963,-0.996823430,0.000147063,-0.000250242,-0.009964827,1779140815694.000000000,2419,164833.694000000,0.005440500,-0.004910444,0.027193863,1,-0.000297684,0.000650809,-0.000141068,1,-0.140992984,0.240246117,9.802692413,1,0,0
1779140815704.000000000,2419,164833.704000000,0.015368452,-0.025173560,-0.995068789,0.000151885,-0.000246923,-0.009950375,1779140815704.000000000,2419,164833.704000000,0.009712892,-0.006628537,0.044400804,1,-0.000149613,0.000202817,-0.000075954,1,-0.141006544,0.240235075,9.802693367,1,0,0
1779140815724.000000000,2419,164833.724000000,0.015689680,-0.024700377,-0.995628119,0.000155510,-0.000248898,-0.009951307,1779140815724.000000000,2419,164833.724000000,0.012880207,-0.002048958,0.038917214,1,0.000123167,0.000735406,0.000468069,1,-0.141005576,0.240183055,9.802694321,1,0,0
1779140815734.000000000,2419,164833.734000000,0.015259358,-0.024219302,-0.995532990,0.000155734,-0.000243324,-0.009958274,1779140815734.000000000,2419,164833.734000000,0.008672383,0.002649162,0.039851401,1,-0.000251292,-0.000624037,0.000040598,1,-0.140951306,0.240151569,9.802696228,1,0,0
1779140815754.000000000,2419,164833.754000000,0.013705865,-0.023554511,-0.995007157,0.000139729,-0.000235849,-0.009954927,1779140815754.000000000,2419,164833.754000000,-0.006526358,0.009152087,0.045008820,1,0.000157762,0.000154300,0.000447583,1,-0.140939459,0.240148097,9.802696228,1,0,0
1779140815764.000000000,2419,164833.764000000,0.013447730,-0.023536805,-0.996006131,0.000136556,-0.000234125,-0.009961241,1779140815764.000000000,2419,164833.764000000,-0.009040648,0.009325256,0.035212215,1,-0.000468294,-0.000501790,-0.000387947,1,-0.140902475,0.240127698,9.802697182,1,0,0
1779140815784.000000000,2419,164833.784000000,0.013126429,-0.024651337,-0.996337056,0.000134132,-0.000246084,-0.009967729,1779140815784.000000000,2419,164833.784000000,-0.012160556,-0.001647637,0.031968229,1,0.000039135,0.000355410,0.000044188,1,-0.140897915,0.240100652,9.802698135,1,0,0
1779140815794.000000000,2419,164833.794000000,0.013401113,-0.025207644,-0.995949984,0.000132089,-0.000251533,-0.009953366,1779140815794.000000000,2419,164833.794000000,-0.009526702,-0.007101935,0.035763368,1,0.000237847,-0.000109052,-0.000296878,1,-0.140943557,0.240107924,9.802697182,1,0,0
1779140815814.000000000,2419,164833.814000000,0.014592533,-0.023541981,-0.996626973,0.000144791,-0.000234289,-0.009963095,1779140815814.000000000,2419,164833.814000000,0.002138963,0.009198012,0.029125385,1,0.000146458,-0.000370943,-0.000059962,1,-0.140976787,0.240059331,9.802697182,1,0,0
1779140815824.000000000,2419,164833.824000000,0.015415039,-0.023673132,-0.994618416,0.000151719,-0.000237240,-0.009944960,1779140815824.000000000,2419,164833.824000000,0.010193804,0.007925726,0.048821680,1,0.000571042,0.000081789,-0.000381863,1,-0.140980467,0.240096793,9.802696228,1,0,0
1779140815834.000000000,2419,164833.834000000,0.015902376,-0.024493728,-0.996890128,0.000157081,-0.000247094,-0.009972703,1779140815834.000000000,2419,164833.834000000,0.014958808,-0.000095674,0.026543016,1,-0.000032359,-0.000023365,0.000526383,1,-0.140989199,0.240104929,9.802696228,1,0,0
1779140815854.000000000,2419,164833.854000000,0.015486129,-0.024897564,-0.994959891,0.000155667,-0.000251128,-0.009958589,1779140815854.000000000,2419,164833.854000000,0.010848336,-0.004046447,0.045470983,1,-0.000227582,0.000443865,-0.000682651,1,-0.141033083,0.240107864,9.802695274,1,0,0
1779140815864.000000000,2419,164833.864000000,0.014909782,-0.025600880,-0.996322095,0.000147063,-0.000253635,-0.009956245,1779140815864.000000000,2419,164833.864000000,0.005155196,-0.010976030,0.032112613,1,-0.000305122,0.000359763,-0.000545596,1,-0.141071469,0.240073085,9.802696228,1,0,0
1779140815884.000000000,2419,164833.884000000,0.013415990,-0.025128527,-0.996461809,0.000132353,-0.000252539,-0.009960736,1779140815884.000000000,2419,164833.884000000,-0.009475959,-0.006368256,0.030743722,1,-0.001275396,-0.000376594,0.000011015,1,-0.141030133,0.240018651,9.802698135,1,0,0
1779140815894.000000000,2419,164833.894000000,0.012263451,-0.023320444,-0.995401442,0.000122141,-0.000233238,-0.009952046,1779140815894.000000000,2419,164833.894000000,-0.020756992,0.011327324,0.041143782,1,0.000159279,0.000053725,0.000730726,1,-0.141021490,0.240028068,9.802698135,1,0,0
1779140815914.000000000,2419,164833.914000000,0.013270500,-0.023939058,-0.996669948,0.000130786,-0.000237260,-0.009959139,1779140815914.000000000,2419,164833.914000000,-0.010911684,0.005379113,0.028699977,1,0.000711240,-0.000202170,0.000537827,1,-0.141044125,0.240163535,9.802694321,1,0,0
1779140815924.000000000,2419,164833.924000000,0.013687138,-0.023952130,-0.995546877,0.000136295,-0.000241491,-0.009959836,1779140815924.000000000,2419,164833.924000000,-0.006763202,0.005239675,0.039714910,1,-0.000529623,-0.000334662,0.000163266,1,-0.140977621,0.240113407,9.802696228,1,0,0
1779140815944.000000000,2419,164833.944000000,0.014200740,-0.024622409,-0.994329631,0.000143109,-0.000244794,-0.009944252,1779140815944.000000000,2419,164833.944000000,-0.001801778,-0.001370302,0.051652219,1,0.000213227,0.000597659,0.000052908,1,-0.141082078,0.240099743,9.802695274,1,0,0
1779140815954.000000000,2419,164833.954000000,0.014839377,-0.025678590,-0.996813953,0.000148905,-0.000258831,-0.009971627,1779140815954.000000000,2419,164833.954000000,0.004433887,-0.011785839,0.027290404,1,-0.001175383,-0.000128825,-0.000210612,1,-0.141086847,0.239998356,9.802697182,1,0,0
1779140815964.000000000,2419,164833.964000000,0.014890873,-0.024917794,-0.994996250,0.000147395,-0.000247775,-0.009945598,1779140815964.000000000,2419,164833.964000000,0.004912184,-0.004364972,0.045116171,1,-0.000619178,0.000672722,0.000702330,1,-0.141137853,0.239976138,9.802697182,1,0,0
1779140815984.000000000,2419,164833.984000000,0.013760559,-0.023839045,-0.996329069,0.000138002,-0.000238204,-0.009954307,1779140815984.000000000,2419,164833.984000000,-0.006215330,0.006180525,0.032046560,1,-0.000395040,0.000322312,0.000526975,1,-0.141169980,0.239949629,9.802697182,1,0,0
1779140815994.000000000,2419,164833.994000000,0.014239460,-0.023404416,-0.994861782,0.000143873,-0.000235111,-0.009954615,1779140815994.000000000,2419,164833.994000000,-0.001550728,0.010450422,0.046434946,1,-0.000150179,0.000890125,-0.000089769,1,-0.141219988,0.239964619,9.802696228,1,0,0
1779140816014.000000000,2419,164834.014000000,0.014709760,-0.023903415,-0.995223582,0.000147070,-0.000239393,-0.009947540,1779140816014.000000000,2419,164834.014000000,0.003102741,0.005565573,0.042887121,1,0.000149139,-0.000677260,-0.000380397,1,-0.141120613,0.239981636,9.802697182,1,0,0
1779140816024.000000000,2419,164834.024000000,0.015292960,-0.026065078,-0.995450974,0.000151748,-0.000258132,-0.009962930,1779140816024.000000000,2419,164834.024000000,0.008889151,-0.015627006,0.040657558,1,-0.000326714,-0.001237200,-0.000199174,1,-0.141044512,0.239973769,9.802699089,1,0,0
1779140816044.000000000,2419,164834.044000000,0.016122550,-0.024475306,-0.995323122,0.000165857,-0.000252414,-0.009966996,1779140816044.000000000,2419,164834.044000000,0.017213868,-0.000050283,0.041914623,1,-0.000259280,-0.000104243,0.000524588,1,-0.140890688,0.239962637,9.802700996,1,0,0
1779140816054.000000000,2419,164834.054000000,0.016672976,-0.024216920,-0.997474015,0.000166689,-0.000244067,-0.009963747,1779140816054.000000000,2419,164834.054000000,0.022625322,0.002504789,0.020821413,1,0.000115172,-0.000485740,-0.000008644,1,-0.140865594,0.239995256,9.802700996,1,0,0
1779140816074.000000000,2419,164834.074000000,0.013299417,-0.022215750,-0.997021437,0.000133324,-0.000219409,-0.009969771,1779140816074.000000000,2419,164834.074000000,-0.010365534,0.022208525,0.025259588,1,0.000380890,-0.000403237,-0.000099896,1,-0.140775755,0.240082473,9.802700043,1,0,0
1779140816084.000000000,2419,164834.084000000,0.011541937,-0.022165475,-0.995360613,0.000116252,-0.000219521,-0.009952612,1779140816084.000000000,2419,164834.084000000,-0.027578063,0.022724492,0.041546039,1,0.000718467,-0.000319364,0.000216816,1,-0.140755668,0.240116075,9.802699089,1,0,0
1779140816104.000000000,2419,164834.104000000,0.011747790,-0.025426678,-0.995744467,0.000117613,-0.000250505,-0.009951696,1779140816104.000000000,2419,164834.104000000,-0.025559882,-0.009212979,0.037780613,1,0.000746577,0.000680166,-0.000540412,1,-0.140787989,0.240160629,9.802698135,1,0,0
1779140816114.000000000,2419,164834.114000000,0.012908697,-0.024628850,-0.995407462,0.000128704,-0.000251067,-0.009957051,1779140816114.000000000,2419,164834.114000000,-0.014175750,-0.001322533,0.041084029,1,0.000990744,-0.000282157,-0.000598621,1,-0.140758485,0.240234643,9.802696228,1,0,0
1779140816124.000000000,2419,164834.124000000,0.014313397,-0.025234975,-0.996758521,0.000139274,-0.000251483,-0.009960905,1779140816124.000000000,2419,164834.124000000,-0.000397532,-0.007191836,0.027833244,1,0.000302896,0.000100106,-0.000288899,1,-0.140767351,0.240288079,9.802695274,1,0,0
1779140816144.000000000,2419,164834.144000000,0.015881978,-0.026192924,-0.996493101,0.000157839,-0.000262124,-0.009970058,1779140816144.000000000,2419,164834.144000000,0.015100753,-0.016570004,0.030437142,1,-0.000666725,-0.001087308,0.000108859,1,-0.140614226,0.240274101,9.802697182,1,0,0
1779140816154.000000000,2419,164834.154000000,0.016162604,-0.025221061,-0.995778859,0.000157287,-0.000251765,-0.009951169,1779140816154.000000000,2419,164834.154000000,0.017879825,-0.007062809,0.037441265,1,0.000206541,0.000306563,-0.000199773,1,-0.140630901,0.240277693,9.802697182,1,0,0
1779140816174.000000000,2419,164834.174000000,0.014988452,-0.025401564,-0.996694386,0.000147943,-0.000254188,-0.009955590,1779140816174.000000000,2419,164834.174000000,0.006391163,-0.008798202,0.028463319,1,-0.000345535,-0.000013136,0.000319724,1,-0.140594691,0.240295425,9.802697182,1,0,0
1779140816184.000000000,2419,164834.184000000,0.014339679,-0.023924775,-0.995011508,0.000144776,-0.000245208,-0.009958010,1779140816184.000000000,2419,164834.184000000,0.000015340,0.005639458,0.044968098,1,-0.000905546,-0.000208416,0.000311667,1,-0.140602142,0.240233257,9.802699089,1,0,0
1779140816204.000000000,2419,164834.204000000,0.013217349,-0.022545749,-0.994691312,0.000132274,-0.000225271,-0.009944570,1779140816204.000000000,2419,164834.204000000,-0.010966966,0.019031718,0.048111502,1,-0.000134574,0.000645918,-0.000346562,1,-0.140605301,0.240125641,9.802700996,1,0,0
1779140816214.000000000,2419,164834.214000000,0.013376648,-0.023499517,-0.995929539,0.000134343,-0.000233008,-0.009963991,1779140816214.000000000,2419,164834.214000000,-0.009492224,0.009691772,0.035966601,1,-0.000287734,-0.000369654,-0.000083025,1,-0.140678212,0.240143299,9.802700043,1,0,0
1779140816234.000000000,2419,164834.234000000,0.013392917,-0.023502130,-0.995637178,0.000135410,-0.000236444,-0.009961122,1779140816234.000000000,2419,164834.234000000,-0.009305417,0.009620258,0.038835704,1,0.000110778,-0.000320088,-0.000349060,1,-0.140635431,0.240100771,9.802701950,1,0,0
1779140816244.000000000,2419,164834.244000000,0.014017418,-0.024956727,-0.995668173,0.000139262,-0.000245390,-0.009954315,1779140816244.000000000,2419,164834.244000000,-0.003207974,-0.004635379,0.038530957,1,0.000118351,0.001425962,-0.000259445,1,-0.140716597,0.240110129,9.802700043,1,0,0
1779140816254.000000000,2419,164834.254000000,0.013599942,-0.025042664,-0.995578885,0.000136226,-0.000249447,-0.009959613,1779140816254.000000000,2419,164834.254000000,-0.007308212,-0.005475231,0.039405603,1,0.000472919,-0.000142494,-0.000199018,1,-0.140673801,0.240124092,9.802700043,1,0,0
1779140816274.000000000,2419,164834.274000000,0.013751682,-0.025119241,-0.995751977,0.000138826,-0.000252836,-0.009955154,1779140816274.000000000,2419,164834.274000000,-0.005832953,-0.006256436,0.037709218,1,-0.000318950,0.000175953,0.000579069,1,-0.140695944,0.240069494,9.802700996,1,0,0
1779140816284.000000000,2419,164834.284000000,0.014444612,-0.024641128,-0.995486736,0.000140942,-0.000248576,-0.009959275,1779140816284.000000000,2419,164834.284000000,0.000964012,-0.001584997,0.040310323,1,-0.000518747,-0.000801537,-0.000694918,1,-0.140664771,0.240045428,9.802702904,1,0,0
1779140816304.000000000,2419,164834.304000000,0.014141057,-0.023983451,-0.994422495,0.000143377,-0.000241931,-0.009952529,1779140816304.000000000,2419,164834.304000000,-0.001980332,0.004811105,0.050749622,1,-0.000646193,-0.000534075,0.000008797,1,-0.140640065,0.239988282,9.802703857,1,0,0
1779140816314.000000000,2419,164834.314000000,0.015733799,-0.024397740,-0.997427642,0.000156002,-0.000246896,-0.009968430,1779140816314.000000000,2419,164834.314000000,0.013651561,0.000768734,0.021278506,1,0.000041093,0.000026823,0.000465816,1,-0.140644789,0.240030363,9.802702904,1,0,0
1779140816334.000000000,2419,164834.334000000,0.016130686,-0.024994679,-0.996138811,0.000162323,-0.000248391,-0.009962185,1779140816334.000000000,2419,164834.334000000,0.017570404,-0.005034226,0.033916611,1,-0.000028967,0.000078069,-0.000151206,1,-0.140620157,0.240078866,9.802701950,1,0,0
1779140816344.000000000,2419,164834.344000000,0.015583511,-0.024469154,-0.995768666,0.000154859,-0.000244516,-0.009956060,1779140816344.000000000,2419,164834.344000000,0.012186256,0.000070524,0.037547819,1,0.000138153,0.000256346,0.000026276,1,-0.140643775,0.240035295,9.802702904,1,0,0
1779140816364.000000000,2419,164834.364000000,0.014515741,-0.024465442,-0.996228933,0.000146225,-0.000242368,-0.009955179,1779140816364.000000000,2419,164834.364000000,0.001669236,0.000077298,0.033034358,1,-0.000572935,0.000169507,-0.000140343,1,-0.140686974,0.239983380,9.802703857,1,0,0
1779140816374.000000000,2419,164834.374000000,0.013976017,-0.023961809,-0.995330870,0.000141434,-0.000239835,-0.009958211,1779140816374.000000000,2419,164834.374000000,-0.003598082,0.004991630,0.041841898,1,0.000196233,0.000144415,0.000234350,1,-0.140660331,0.239982948,9.802703857,1,0,0
1779140816394.000000000,2419,164834.394000000,0.013184127,-0.024056965,-0.995882392,0.000134599,-0.000238839,-0.009957157,1779140816394.000000000,2419,164834.394000000,-0.011324724,0.004102254,0.036432844,1,0.000045115,0.000055044,0.000068517,1,-0.140618533,0.240021929,9.802703857,1,0,0
1779140816404.000000000,2419,164834.404000000,0.013394950,-0.024112927,-0.996203363,0.000135806,-0.000243394,-0.009965844,1779140816404.000000000,2419,164834.404000000,-0.009244142,0.003558461,0.033285175,1,-0.000268252,-0.000885778,-0.000000924,1,-0.140576094,0.240017131,9.802704811,1,0,0
1779140816414.000000000,2419,164834.414000000,0.013121456,-0.023952188,-0.995826781,0.000131695,-0.000238385,-0.009952486,1779140816414.000000000,2419,164834.414000000,-0.011986108,0.005134376,0.036977977,1,0.000398120,0.001125170,0.000175557,1,-0.140708610,0.240038171,9.802701950,1,0,0
1779140816434.000000000,2419,164834.434000000,0.013134771,-0.024311516,-0.997257173,0.000129069,-0.000241239,-0.009962969,1779140816434.000000000,2419,164834.434000000,-0.011865256,0.001638237,0.022950372,1,-0.000630941,-0.000110542,-0.000211047,1,-0.140670121,0.240032986,9.802702904,1,0,0
1779140816444.000000000,2419,164834.444000000,0.012843058,-0.024174219,-0.995240211,0.000129079,-0.000241746,-0.009956304,1779140816444.000000000,2419,164834.444000000,-0.014682413,0.002988410,0.042730335,1,0.000593178,-0.000077008,-0.000132282,1,-0.140627503,0.240074992,9.802701950,1,0,0
1779140816464.000000000,2419,164834.464000000,0.013309442,-0.024965053,-0.995231271,0.000132805,-0.000246704,-0.009946167,1779140816464.000000000,2419,164834.464000000,-0.010136691,-0.004742735,0.042816579,1,-0.000144867,-0.000399749,0.000475060,1,-0.140644893,0.240076497,9.802701950,1,0,0
1779140816474.000000000,2419,164834.474000000,0.012893303,-0.024938308,-0.995442033,0.000129746,-0.000252190,-0.009961464,1779140816474.000000000,2419,164834.474000000,-0.014212455,-0.004506477,0.040750321,1,0.000271633,-0.000754848,-0.000488508,1,-0.140629396,0.240063041,9.802702904,1,0,0
1779140816494.000000000,2419,164834.494000000,0.013963887,-0.023931930,-0.994395852,0.000141517,-0.000238621,-0.009950839,1779140816494.000000000,2419,164834.494000000,-0.003708031,0.005416368,0.051008638,1,-0.000012087,-0.000684761,-0.000202069,1,-0.140625775,0.240107968,9.802701950,1,0,0
1779140816504.000000000,2419,164834.504000000,0.015236291,-0.025135273,-0.995665371,0.000149677,-0.000250373,-0.009955877,1779140816504.000000000,2419,164834.504000000,0.008728750,-0.006399403,0.038558464,1,-0.000254867,0.000541713,0.000102284,1,-0.140705049,0.240085512,9.802700996,1,0,0
1779140816524.000000000,2419,164834.524000000,0.014836766,-0.022825485,-0.996011734,0.000149156,-0.000232757,-0.009964931,1779140816524.000000000,2419,164834.524000000,0.004873713,0.016219210,0.035163239,1,-0.000476611,0.000665174,0.000251839,1,-0.140645832,0.240046009,9.802702904,1,0,0
1779140816534.000000000,2419,164834.534000000,0.014083779,-0.023075636,-0.996105373,0.000144550,-0.000229314,-0.009955518,1779140816534.000000000,2419,164834.534000000,-0.002591712,0.013762076,0.034244396,1,-0.000079018,0.000359961,0.000499410,1,-0.140717268,0.240054533,9.802701950,1,0,0
1779140816544.000000000,2419,164834.544000000,0.012057168,-0.024549549,-0.994229019,0.000121506,-0.000241551,-0.009948700,1779140816544.000000000,2419,164834.544000000,-0.022478785,-0.000688834,0.052645005,1,-0.000605968,0.000480624,-0.000296794,1,-0.140734449,0.240040973,9.802701950,1,0,0
1779140816554.000000000,2419,164834.554000000,0.012013254,-0.026233148,-0.996322334,0.000117437,-0.000259183,-0.009958863,1779140816554.000000000,2419,164834.554000000,-0.023008596,-0.017295791,0.032117169,1,-0.001796936,0.000562430,-0.000083211,1,-0.140835986,0.239907429,9.802703857,1,0,0
1779140816564.000000000,2419,164834.564000000,0.012353828,-0.026267692,-0.993453026,0.000122351,-0.000264634,-0.009941490,1779140816564.000000000,2419,164834.564000000,-0.019651810,-0.017794158,0.060259640,1,-0.000929072,0.000040638,-0.000555087,1,-0.140803173,0.239774674,9.802706718,1,0,0
1779140816574.000000000,2419,164834.574000000,0.014585614,-0.026405370,-0.995875180,0.000141806,-0.000261927,-0.009954098,1779140816574.000000000,2419,164834.574000000,0.002185264,-0.019171920,0.036505848,1,-0.000465748,0.000313144,-0.000197390,1,-0.140860677,0.239761695,9.802706718,1,0,0
1779140816594.000000000,2419,164834.594000000,0.016612206,-0.022420745,-0.996678174,0.000170718,-0.000227294,-0.009970760,1779140816594.000000000,2419,164834.594000000,0.021997754,0.020078372,0.028626859,1,0.000447908,0.000401644,0.001026175,1,-0.140924081,0.239965215,9.802700996,1,0,0
1779140816604.000000000,2419,164834.604000000,0.016287882,-0.021140907,-0.995430708,0.000164194,-0.000211104,-0.009953359,1779140816604.000000000,2419,164834.604000000,0.018757138,0.032677211,0.040858049,1,0.000474351,0.000854708,0.000563486,1,-0.140998676,0.240013748,9.802698135,1,0,0
1779140816624.000000000,2419,164834.624000000,0.014072581,-0.024312504,-0.995693922,0.000142511,-0.000240919,-0.009958825,1779140816624.000000000,2419,164834.624000000,-0.002820245,0.001457949,0.038281597,1,-0.001069072,-0.000549842,0.000092064,1,-0.140804663,0.239849105,9.802704811,1,0,0
1779140816634.000000000,2419,164834.634000000,0.013505594,-0.026288152,-0.995444119,0.000136436,-0.000265862,-0.009955939,1779140816634.000000000,2419,164834.634000000,-0.008425583,-0.017938888,0.040730983,1,-0.000458494,0.000973334,-0.000438666,1,-0.140900716,0.239845350,9.802703857,1,0,0
1779140816654.000000000,2419,164834.654000000,0.013029122,-0.025677830,-0.995035529,0.000128810,-0.000254639,-0.009949072,1779140816654.000000000,2419,164834.654000000,-0.013311209,-0.012107083,0.044738915,1,-0.000916830,0.000705182,0.000165031,1,-0.141105145,0.239677876,9.802704811,1,0,0
1779140816664.000000000,2419,164834.664000000,0.014106013,-0.025165604,-0.995567620,0.000140761,-0.000253508,-0.009960385,1779140816664.000000000,2419,164834.664000000,-0.002812229,-0.007172299,0.039522246,1,-0.000386539,0.001043624,-0.000008730,1,-0.141177535,0.239605919,9.802705765,1,0,0
1779140816684.000000000,2419,164834.684000000,0.014676505,-0.021591824,-0.994635999,0.000146894,-0.000217627,-0.009948135,1779140816684.000000000,2419,164834.684000000,0.002860240,0.027820971,0.048660785,1,-0.000214694,-0.000824289,-0.000053464,1,-0.141041443,0.239557743,9.802708626,1,0,0
1779140816694.000000000,2419,164834.694000000,0.015280377,-0.022263717,-0.996687174,0.000150268,-0.000222891,-0.009966190,1779140816694.000000000,2419,164834.694000000,0.008822850,0.021254454,0.028546069,1,0.000671898,-0.000596965,0.000184657,1,-0.141007707,0.239608005,9.802708626,1,0,0
1779140816704.000000000,2419,164834.704000000,0.015052294,-0.024033386,-0.995587111,0.000151713,-0.000238342,-0.009955198,1779140816704.000000000,2419,164834.704000000,0.006645146,0.003937865,0.039333425,1,0.000413184,0.000001362,-0.000123015,1,-0.140967578,0.239637718,9.802707672,1,0,0
1779140816724.000000000,2419,164834.724000000,0.014762797,-0.026916418,-0.995607138,0.000147897,-0.000266683,-0.009951044,1779140816724.000000000,2419,164834.724000000,0.003883994,-0.024367990,0.039138675,1,-0.000373637,-0.000348468,0.000033421,1,-0.140878707,0.239580274,9.802710533,1,0,0
1779140816734.000000000,2419,164834.734000000,0.014676539,-0.025989313,-0.995561302,0.000147357,-0.000261837,-0.009957388,1779140816734.000000000,2419,164834.734000000,0.003083490,-0.015295750,0.039589547,1,0.000067182,0.000362472,-0.000235717,1,-0.140855700,0.239574343,9.802711487,1,0,0
1779140816754.000000000,2419,164834.754000000,0.013219839,-0.023817727,-0.995849490,0.000133827,-0.000241610,-0.009955358,1779140816754.000000000,2419,164834.754000000,-0.011293655,0.006038772,0.036761571,1,-0.000486988,0.000413755,0.000297076,1,-0.140948683,0.239595860,9.802709579,1,0,0
1779140816764.000000000,2419,164834.764000000,0.013147143,-0.022794487,-0.994799376,0.000132462,-0.000227588,-0.009950741,1779140816764.000000000,2419,164834.764000000,-0.012037759,0.016019160,0.047059897,1,-0.000561213,-0.000214426,-0.000018423,1,-0.140960515,0.239539206,9.802710533,1,0,0
1779140816784.000000000,2419,164834.784000000,0.013970606,-0.024488818,-0.996665299,0.000139110,-0.000241724,-0.009964864,1779140816784.000000000,2419,164834.784000000,-0.003969186,-0.000599648,0.028761905,1,0.001060554,-0.000195860,0.000212314,1,-0.140967757,0.239586830,9.802709579,1,0,0
1779140816814.000000000,2419,164834.814000000,0.013693848,-0.022867011,-0.995832801,0.000136132,-0.000230067,-0.009956777,1779140816814.000000000,2419,164834.814000000,-0.006640630,0.015420361,0.036923308,1,0.000356833,0.000063911,-0.000025580,1,-0.140915766,0.239671752,9.802707672,1,0,0
1779140816824.000000000,2419,164834.824000000,0.013903905,-0.023374230,-0.995334685,0.000136394,-0.000229188,-0.009953233,1779140816824.000000000,2419,164834.824000000,-0.004636584,0.010457638,0.041807108,1,0.000018209,0.001193721,-0.000522984,1,-0.141023815,0.239680335,9.802706718,1,0,0
1779140816844.000000000,2419,164834.844000000,0.014402976,-0.025662970,-0.995857239,0.000142662,-0.000252557,-0.009954029,1779140816844.000000000,2419,164834.844000000,0.000197643,-0.012069346,0.036682975,1,-0.000256766,0.000633675,-0.000090826,1,-0.141067147,0.239590392,9.802707672,1,0,0
1779140816854.000000000,2419,164834.854000000,0.015413918,-0.026335906,-0.995402455,0.000150377,-0.000261755,-0.009962299,1779140816854.000000000,2419,164834.854000000,0.010075216,-0.018673087,0.041143451,1,-0.000136481,-0.000409673,-0.000608675,1,-0.141071364,0.239589408,9.802707672,1,0,0
1779140816864.000000000,2419,164834.864000000,0.015106057,-0.025609072,-0.996397197,0.000150702,-0.000257231,-0.009959149,1779140816864.000000000,2419,164834.864000000,0.007101953,-0.011547284,0.031388637,1,0.000836685,-0.000692399,0.000093596,1,-0.141016185,0.239618108,9.802707672,1,0,0
1779140816884.000000000,2419,164834.884000000,0.015563864,-0.024304135,-0.995377719,0.000154059,-0.000242694,-0.009955202,1779140816884.000000000,2419,164834.884000000,0.011557090,0.001351487,0.041383520,1,0.000043409,-0.000429074,0.000370299,1,-0.141058624,0.239695176,9.802705765,1,0,0
1779140816894.000000000,2419,164834.894000000,0.016009444,-0.023948623,-0.995786428,0.000158091,-0.000234723,-0.009955664,1779140816894.000000000,2419,164834.894000000,0.015970208,0.004836372,0.037375811,1,-0.000383706,-0.000489865,0.000405034,1,-0.141013235,0.239680350,9.802706718,1,0,0
1779140816904.000000000,2419,164834.904000000,0.015909335,-0.024522342,-0.995169222,0.000161849,-0.000242924,-0.009953985,1779140816904.000000000,2419,164834.904000000,0.015060922,-0.000836968,0.043431297,1,-0.000521316,-0.000757843,0.000136031,1,-0.140932620,0.239628881,9.802708626,1,0,0
1779140816914.000000000,2419,164834.914000000,0.016122391,-0.024886632,-0.996198297,0.000162112,-0.000249952,-0.009961932,1779140816914.000000000,2419,164834.914000000,0.017185714,-0.004409106,0.033340201,1,0.000434729,-0.000098431,-0.000203420,1,-0.140918031,0.239658892,9.802708626,1,0,0
1779140816924.000000000,2419,164834.924000000,0.015422667,-0.024867693,-0.994956017,0.000157561,-0.000248519,-0.009949083,1779140816924.000000000,2419,164834.924000000,0.010404884,-0.004135874,0.045521796,1,0.001422017,-0.000445908,-0.000066096,1,-0.140825957,0.239777237,9.802706718,1,0,0
1779140816944.000000000,2419,164834.944000000,0.013242894,-0.023647495,-0.995571733,0.000135212,-0.000238787,-0.009955680,1779140816944.000000000,2419,164834.944000000,-0.010881184,0.007820655,0.039484933,1,-0.000524021,0.000307129,-0.000183299,1,-0.140759334,0.239706933,9.802709579,1,0,0
1779140816954.000000000,2419,164834.954000000,0.012973969,-0.023531176,-0.995751441,0.000130964,-0.000237030,-0.009958656,1779140816954.000000000,2419,164834.954000000,-0.013546062,0.008921548,0.037723314,1,-0.000826778,0.000316947,0.000343762,1,-0.140786871,0.239657938,9.802710533,1,0,0
1779140816974.000000000,2419,164834.974000000,0.012750809,-0.025033519,-0.995695114,0.000126581,-0.000249151,-0.009958735,1779140816974.000000000,2419,164834.974000000,-0.015729401,-0.005851546,0.038276747,1,0.000300232,0.000033801,-0.000856318,1,-0.140773833,0.239652410,9.802710533,1,0,0
1779140816984.000000000,2419,164834.984000000,0.013503112,-0.025256069,-0.995886862,0.000133486,-0.000251156,-0.009956588,1779140816984.000000000,2419,164834.984000000,-0.008336044,-0.008030811,0.036396418,1,-0.000127459,-0.000328496,0.000322248,1,-0.140745848,0.239642814,9.802711487,1,0,0
1779140816994.000000000,2419,164834.994000000,0.013983035,-0.025358209,-0.995495021,0.000138714,-0.000251639,-0.009954748,1779140816994.000000000,2419,164834.994000000,-0.003638890,-0.009038196,0.040238913,1,0.000467907,0.000236111,-0.000507158,1,-0.140773386,0.239655286,9.802710533,1,0,0
1779140817014.000000000,2419,164835.014000000,0.015088491,-0.022496562,-0.996335268,0.000152182,-0.000229980,-0.009962657,1779140817014.000000000,2419,164835.014000000,0.007168109,0.019116754,0.031996172,1,0.000324560,-0.000398056,0.000142941,1,-0.140807807,0.239758551,9.802707672,1,0,0
1779140817024.000000000,2419,164835.024000000,0.014029921,-0.021087265,-0.995892704,0.000142625,-0.000211081,-0.009959467,1779140817024.000000000,2419,164835.024000000,-0.003134559,0.032999750,0.036335863,1,0.000495933,-0.001092466,-0.000726146,1,-0.140688911,0.239811361,9.802707672,1,0,0
1779140817044.000000000,2419,164835.044000000,0.011769473,-0.025411971,-0.995632529,0.000118537,-0.000252587,-0.009960804,1779140817044.000000000,2419,164835.044000000,-0.025125703,-0.009276915,0.038886964,1,-0.000072109,-0.001000701,-0.000215461,1,-0.140513748,0.239927068,9.802707672,1,0,0
1779140817054.000000000,2419,164835.054000000,0.010543286,-0.028118027,-0.995964944,0.000106685,-0.000275153,-0.009954861,1779140817054.000000000,2419,164835.054000000,-0.037109874,-0.035782572,0.035627060,1,0.000283346,-0.000325174,0.000131775,1,-0.140493944,0.239969999,9.802706718,1,0,0
1779140817074.000000000,2419,164835.074000000,0.010350157,-0.029484842,-0.995594323,0.000100295,-0.000296212,-0.009957800,1779140817074.000000000,2419,164835.074000000,-0.038918339,-0.049186986,0.039262503,1,0.000417970,-0.000291334,0.001138242,1,-0.140408739,0.239974111,9.802707672,1,0,0
1779140817084.000000000,2419,164835.084000000,0.011381131,-0.027300986,-0.995108187,0.000111408,-0.000276759,-0.009951873,1779140817084.000000000,2419,164835.084000000,-0.028741347,-0.027802579,0.044031512,1,-0.000578984,-0.000750207,0.001083656,1,-0.140327886,0.239911079,9.802710533,1,0,0
1779140817104.000000000,2419,164835.104000000,0.016491260,-0.019342361,-0.995861471,0.000157721,-0.000195586,-0.009958671,1779140817104.000000000,2419,164835.104000000,0.021522576,0.050216239,0.036647383,1,0.000557386,-0.000202348,0.001349375,1,-0.140194118,0.239917994,9.802712440,1,0,0
1779140817114.000000000,2419,164835.114000000,0.019410642,-0.018591311,-0.996149540,0.000192585,-0.000182953,-0.009955520,1779140817114.000000000,2419,164835.114000000,0.050207909,0.057625514,0.033821817,1,0.000832673,0.000181446,0.001367003,1,-0.140150085,0.239970595,9.802711487,1,0,0
1779140817134.000000000,2419,164835.134000000,0.021353226,-0.021233421,-0.996279359,0.000212332,-0.000208777,-0.009958285,1779140817134.000000000,2419,164835.134000000,0.069277756,0.031784944,0.032547299,1,0.000677839,0.000134477,-0.000400918,1,-0.140130371,0.240034655,9.802710533,1,0,0
1779140817144.000000000,2419,164835.144000000,0.020928903,-0.022633614,-0.995083630,0.000211535,-0.000221909,-0.009955186,1779140817144.000000000,2419,164835.144000000,0.065101877,0.018113276,0.044271883,1,0.000822597,0.000012124,-0.001406992,1,-0.140142009,0.240098253,9.802708626,1,0,0
1779140817154.000000000,2419,164835.154000000,0.015617313,-0.027332302,-0.996117055,0.000159236,-0.000265929,-0.009953705,1779140817154.000000000,2419,164835.154000000,0.013021297,-0.027873607,0.034135096,1,0.000472287,-0.000165725,-0.001150093,1,-0.140127942,0.240178958,9.802706718,1,0,0
1779140817174.000000000,2419,164835.174000000,0.018284775,-0.024140952,-0.989965081,0.000174485,-0.000215951,-0.009943330,1779140817174.000000000,2419,164835.174000000,0.039185822,0.003665444,0.094459645,1,0.001717467,0.001611498,-0.002180838,1,-0.140178531,0.240459934,9.802699089,1,0,0
1779140817184.000000000,2419,164835.184000000,0.020299915,-0.027921077,-0.998703480,0.000223768,-0.000265568,-0.009985719,1779140817184.000000000,2419,164835.184000000,0.058965191,-0.033286955,0.008762873,1,0.001569712,-0.003323934,-0.002795954,1,-0.140007406,0.240573019,9.802699089,1,0,0
1779140817204.000000000,2419,164835.204000000,0.016161865,-0.028742200,-0.998569071,0.000165144,-0.000295714,-0.009949733,1779140817204.000000000,2419,164835.204000000,0.018635180,-0.041360632,0.010084864,1,0.000416649,-0.001295187,0.000072340,1,-0.139818132,0.240517125,9.802702904,1,0,0
1779140817214.000000000,2419,164835.214000000,0.012280531,-0.025556715,-0.991496503,0.000122010,-0.000259151,-0.009921345,1779140817214.000000000,2419,164835.214000000,-0.019571548,-0.010122234,0.079440780,1,0.001812446,-0.001050367,0.000754748,1,-0.140167162,0.240520492,9.802698135,1,0,0
1779140817234.000000000,2419,164835.234000000,0.010659511,-0.022859087,-0.991936862,0.000111203,-0.000229607,-0.009935015,1779140817234.000000000,2419,164835.234000000,-0.035542466,0.016511194,0.075116828,1,0.000165760,-0.001424756,0.001199044,1,-0.140032038,0.240687788,9.802696228,1,0,0
1779140817244.000000000,2419,164835.244000000,0.011319346,-0.023394987,-0.998483539,0.000113617,-0.000232427,-0.009987318,1779140817244.000000000,2419,164835.244000000,-0.028885122,0.011223846,0.010919306,1,-0.001186355,-0.002372282,0.000129158,1,-0.139815927,0.240613341,9.802700996,1,0,0
1779140817264.000000000,2419,164835.264000000,0.011838840,-0.027552202,-0.999453783,0.000122234,-0.000271068,-0.009986511,1779140817264.000000000,2419,164835.264000000,-0.023631429,-0.029658116,0.001409971,1,0.000781937,-0.002225013,-0.000507819,1,-0.139661759,0.240560874,9.802703857,1,0,0
1779140817274.000000000,2419,164835.274000000,0.008355882,-0.024277337,-0.992684126,0.000084529,-0.000250551,-0.009945395,1779140817274.000000000,2419,164835.274000000,-0.057652868,0.002419258,0.067800619,1,-0.000571299,0.000362870,0.000250321,1,-0.139607221,0.240480915,9.802706718,1,0,0
1779140817284.000000000,2419,164835.284000000,0.012520396,-0.023140598,-0.998365343,0.000120803,-0.000232302,-0.009972573,1779140817284.000000000,2419,164835.284000000,-0.016866785,0.013540424,0.012086190,1,-0.000221721,-0.000354570,-0.000354712,1,-0.139639139,0.240465119,9.802706718,1,0,0
1779140817304.000000000,2419,164835.304000000,0.012374185,-0.023630816,-0.998754799,0.000113631,-0.000229152,-0.009969810,1779140817304.000000000,2419,164835.304000000,-0.018240035,0.008678872,0.008268978,1,-0.000570780,0.000972364,-0.000561146,1,-0.139620125,0.240399972,9.802708626,1,0,0
1779140817314.000000000,2419,164835.314000000,0.011317611,-0.024964740,-0.992153823,0.000117389,-0.000254929,-0.009945635,1779140817314.000000000,2419,164835.314000000,-0.028519988,-0.004519616,0.073006287,1,-0.001634626,-0.001086250,-0.000346920,1,-0.139474213,0.240249708,9.802714348,1,0,0
1779140817334.000000000,2419,164835.334000000,0.014550231,-0.026002172,-0.993736148,0.000148719,-0.000266206,-0.009958682,1779140817334.000000000,2419,164835.334000000,0.003139450,-0.014761048,0.057490766,1,0.000123111,0.000460050,-0.000045970,1,-0.139563978,0.240236983,9.802713394,1,0,0
1779140817344.000000000,2419,164835.344000000,0.015996514,-0.026553292,-0.998086393,0.000157440,-0.000262374,-0.009962624,1779140817344.000000000,2419,164835.344000000,0.017173445,-0.020053884,0.014823839,1,0.000945602,0.001763092,0.000828470,1,-0.139753163,0.240374848,9.802707672,1,0,0
1779140817364.000000000,2419,164835.364000000,0.015720341,-0.021935256,-0.995542228,0.000155441,-0.000216064,-0.009949834,1779140817364.000000000,2419,164835.364000000,0.014449473,0.025272455,0.039773151,1,0.000373447,0.000332424,0.000182261,1,-0.139724642,0.240395576,9.802707672,1,0,0
1779140817374.000000000,2419,164835.374000000,0.016199412,-0.021816771,-0.994343579,0.000161179,-0.000210260,-0.009954865,1779140817374.000000000,2419,164835.374000000,0.019139403,0.026408045,0.051528387,1,0.000230414,0.000422851,-0.000182453,1,-0.139735907,0.240364611,9.802707672,1,0,0
1779140817394.000000000,2419,164835.394000000,0.014606182,-0.023926347,-0.995086074,0.000150423,-0.000246243,-0.009952579,1779140817394.000000000,2419,164835.394000000,0.003489557,0.005636385,0.044249069,1,-0.001346528,0.000045350,-0.000663165,1,-0.139750093,0.240231425,9.802710533,1,0,0
1779140817404.000000000,2419,164835.404000000,0.013481059,-0.023010159,-0.996052086,0.000138157,-0.000232100,-0.009953815,1779140817404.000000000,2419,164835.404000000,-0.007575728,0.014657935,0.034773558,1,0.000890631,0.000127710,-0.000303073,1,-0.139783978,0.240338176,9.802707672,1,0,0
1779140817424.000000000,2419,164835.424000000,0.012228833,-0.026582219,-0.997760177,0.000121771,-0.000260794,-0.009964477,1779140817424.000000000,2419,164835.424000000,-0.019550072,-0.020193867,0.018023392,1,-0.000237405,0.001049780,-0.000147474,1,-0.139495492,0.240482375,9.802708626,1,0,0
1779140817434.000000000,2419,164835.434000000,0.011650873,-0.026918910,-0.993198574,0.000118001,-0.000274587,-0.009943844,1779140817434.000000000,2419,164835.434000000,-0.025241664,-0.023592614,0.062759176,1,-0.000969274,0.000057544,-0.000188924,1,-0.139498904,0.240361497,9.802711487,1,0,0
1779140817444.000000000,2419,164835.444000000,0.012702288,-0.027713936,-0.996197760,0.000122658,-0.000272910,-0.009957716,1779140817444.000000000,2419,164835.444000000,-0.014920088,-0.031427387,0.033347979,1,-0.000001289,-0.000798223,0.000304920,1,-0.139461800,0.240353614,9.802712440,1,0,0
1779140817464.000000000,2419,164835.464000000,0.014976952,-0.025920769,-0.998782575,0.000148494,-0.000260403,-0.009976300,1779140817464.000000000,2419,164835.464000000,0.007414612,-0.013758321,0.007998161,1,0.000310862,0.000070567,0.000780093,1,-0.139460728,0.240447640,9.802709579,1,0,0
1779140817474.000000000,2419,164835.474000000,0.015253063,-0.021802096,-0.993924379,0.000150918,-0.000224688,-0.009945706,1779140817474.000000000,2419,164835.474000000,0.010135434,0.026562052,0.055642687,1,-0.000491759,-0.000384259,0.000986177,1,-0.139433280,0.240352675,9.802712440,1,0,0
1779140817494.000000000,2419,164835.494000000,0.014957752,-0.018804960,-0.993664682,0.000149335,-0.000183663,-0.009935176,1779140817494.000000000,2419,164835.494000000,0.007355995,0.055887710,0.058193292,1,-0.000177730,0.000364908,0.000216425,1,-0.139340684,0.240295932,9.802715302,1,0,0
1779140817504.000000000,2419,164835.504000000,0.016060214,-0.022744274,-0.997109473,0.000160588,-0.000224528,-0.009967491,1779140817504.000000000,2419,164835.504000000,0.018123934,0.017275222,0.024409883,1,0.000200660,-0.000340627,-0.000260191,1,-0.139362544,0.240326509,9.802714348,1,0,0
1779140817524.000000000,2419,164835.524000000,0.014798808,-0.025117161,-0.995076180,0.000149419,-0.000252647,-0.009953245,1779140817524.000000000,2419,164835.524000000,0.005703793,-0.006077234,0.044351276,1,0.000044323,0.001466428,-0.001231305,1,-0.139469638,0.240238830,9.802714348,1,0,0
1779140817534.000000000,2419,164835.534000000,0.014704171,-0.025777431,-0.995318174,0.000146810,-0.000257549,-0.009947505,1779140817534.000000000,2419,164835.534000000,0.004693977,-0.012493379,0.041975845,1,0.000292504,-0.000029969,-0.000759020,1,-0.139504328,0.240305662,9.802712440,1,0,0
1779140817554.000000000,2419,164835.554000000,0.014968128,-0.025264038,-0.994699121,0.000148081,-0.000254199,-0.009956876,1779140817554.000000000,2419,164835.554000000,0.007143843,-0.007438713,0.048043899,1,-0.000371356,0.001564323,-0.000302567,1,-0.139692396,0.240305156,9.802709579,1,0,0
1779140817564.000000000,2419,164835.564000000,0.013154746,-0.023646923,-0.995905042,0.000133822,-0.000236866,-0.009958145,1779140817564.000000000,2419,164835.564000000,-0.010628399,0.008409080,0.036218029,1,0.000365782,-0.001497789,-0.001161935,1,-0.139586553,0.240317076,9.802711487,1,0,0
1779140817574.000000000,2419,164835.574000000,0.012724811,-0.022942299,-0.992952764,0.000124463,-0.000230662,-0.009936645,1779140817574.000000000,2419,164835.574000000,-0.014851239,0.015297734,0.065170683,1,0.000270164,0.001560127,-0.000473102,1,-0.139688060,0.240293071,9.802710533,1,0,0
1779140817594.000000000,2419,164835.594000000,0.013513962,-0.025534960,-0.994605958,0.000135824,-0.000258756,-0.009950464,1779140817594.000000000,2419,164835.594000000,-0.007167448,-0.010117138,0.048956741,1,0.000043824,-0.000903129,-0.000324639,1,-0.139666215,0.240296513,9.802710533,1,0,0
1779140817604.000000000,2419,164835.604000000,0.014858958,-0.025020013,-0.997188807,0.000146337,-0.000250121,-0.009973013,1779140817604.000000000,2419,164835.604000000,0.005978326,-0.005089188,0.023627773,1,-0.000667495,0.000148725,0.000781574,1,-0.139742330,0.240252852,9.802710533,1,0,0
1779140817624.000000000,2419,164835.624000000,0.013403121,-0.023610974,-0.996015012,0.000135455,-0.000234059,-0.009963267,1779140817624.000000000,2419,164835.624000000,-0.008156894,0.008875471,0.035136819,1,0.000406181,0.000342639,0.000218432,1,-0.139605910,0.240433514,9.802707672,1,0,0
1779140817634.000000000,2419,164835.634000000,0.014342390,-0.023050161,-0.995203733,0.000141316,-0.000234026,-0.009946082,1779140817634.000000000,2419,164835.634000000,0.000977869,0.014414717,0.043090764,1,0.000717812,0.000852778,0.000015144,1,-0.139699459,0.240482047,9.802705765,1,0,0
1779140817654.000000000,2419,164835.654000000,0.013842653,-0.023574449,-0.995202184,0.000137057,-0.000230075,-0.009946044,1779140817654.000000000,2419,164835.654000000,-0.003923229,0.009310149,0.043105472,1,-0.000715234,0.000946462,-0.000382011,1,-0.139703125,0.240474060,9.802705765,1,0,0
1779140817664.000000000,2419,164835.664000000,0.013935541,-0.024876537,-0.994942069,0.000136747,-0.000245868,-0.009949032,1779140817664.000000000,2419,164835.664000000,-0.003055431,-0.003512929,0.045657109,1,0.000051174,-0.000659820,-0.000713379,1,-0.139696375,0.240443870,9.802706718,1,0,0
1779140817684.000000000,2419,164835.684000000,0.014065273,-0.025862144,-0.995620608,0.000133959,-0.000257582,-0.009949164,1779140817684.000000000,2419,164835.684000000,-0.001796330,-0.013149262,0.039001524,1,0.000498298,0.000387102,-0.000284856,1,-0.139741838,0.240487173,9.802704811,1,0,0
1779140817694.000000000,2419,164835.694000000,0.012548949,-0.024698699,-0.994533777,0.000133322,-0.000248894,-0.009954439,1779140817694.000000000,2419,164835.694000000,-0.016577480,-0.001743443,0.049661417,1,-0.000257276,-0.001512259,-0.000561298,1,-0.139593884,0.240459800,9.802707672,1,0,0
1779140817714.000000000,2419,164835.714000000,0.013544898,-0.023986604,-0.994655490,0.000136860,-0.000241282,-0.009951688,1779140817714.000000000,2419,164835.714000000,-0.006795258,0.005430194,0.048463289,1,0.001213704,-0.000434882,0.000196405,1,-0.139611617,0.240696400,9.802701950,1,0,0
1779140817724.000000000,2419,164835.724000000,0.013578128,-0.024193013,-0.996801317,0.000137546,-0.000243141,-0.009969617,1779140817724.000000000,2419,164835.724000000,-0.006445804,0.003507704,0.027417699,1,-0.000096530,-0.000822501,0.000244409,1,-0.139575914,0.240757242,9.802700996,1,0,0
1779140817734.000000000,2419,164835.734000000,0.013573046,-0.023872437,-0.994946659,0.000133495,-0.000237537,-0.009943921,1779140817734.000000000,2419,164835.734000000,-0.006437603,0.006626527,0.045607269,1,0.000767136,0.000582474,-0.000227922,1,-0.139562070,0.240759030,9.802700996,1,0,0
1779140817754.000000000,2419,164835.754000000,0.014187858,-0.025730139,-0.995912194,0.000139472,-0.000255483,-0.009950715,1779140817754.000000000,2419,164835.754000000,-0.000385639,-0.011397690,0.036134206,1,0.001135824,0.000640356,-0.000083718,1,-0.139541060,0.240964204,9.802696228,1,0,0
1779140817764.000000000,2419,164835.764000000,0.014095438,-0.024996083,-0.995393932,0.000142060,-0.000255432,-0.009961034,1779140817764.000000000,2419,164835.764000000,-0.001310647,-0.004183659,0.041216116,1,-0.000071979,-0.000272756,0.000005651,1,-0.139531165,0.240941942,9.802696228,1,0,0
1779140817784.000000000,2419,164835.784000000,0.013521801,-0.023820579,-0.995557249,0.000136134,-0.000239907,-0.009953037,1779140817784.000000000,2419,164835.784000000,-0.006867433,0.007399504,0.039613977,1,0.000684926,0.000461971,0.000227601,1,-0.139485240,0.241021082,9.802695274,1,0,0
1779140817794.000000000,2419,164835.794000000,0.014185141,-0.023835668,-0.995449185,0.000143347,-0.000241616,-0.009958757,1779140817794.000000000,2419,164835.794000000,-0.000429435,0.007268687,0.040672123,1,0.000249905,-0.000192316,0.000030349,1,-0.139532134,0.241024554,9.802694321,1,0,0
1779140817814.000000000,2419,164835.814000000,0.014290126,-0.024599483,-0.994945884,0.000146239,-0.000247484,-0.009959324,1779140817814.000000000,2419,164835.814000000,0.000814966,-0.000228103,0.045610640,1,-0.000615894,-0.000533482,0.000325440,1,-0.139249042,0.240983650,9.802700043,1,0,0
1779140817824.000000000,2419,164835.824000000,0.014669768,-0.025344934,-0.996621668,0.000144515,-0.000251498,-0.009956337,1779140817824.000000000,2419,164835.824000000,0.004659162,-0.007489994,0.029177606,1,0.001556430,-0.000637036,0.000236083,1,-0.139178336,0.241107091,9.802697182,1,0,0
1779140817844.000000000,2419,164835.844000000,0.014939498,-0.024523053,-0.996773064,0.000149925,-0.000243541,-0.009965573,1779140817844.000000000,2419,164835.844000000,0.007444059,0.000632955,0.027693421,1,0.000460857,0.000612898,0.000289538,1,-0.139081255,0.241136476,9.802698135,1,0,0
1779140817854.000000000,2419,164835.854000000,0.014352562,-0.021686057,-0.994352758,0.000145632,-0.000216038,-0.009949355,1779140817854.000000000,2419,164835.854000000,0.001710800,0.028493386,0.051428445,1,0.000457836,0.000166364,0.000172394,1,-0.139044806,0.241175324,9.802698135,1,0,0
1779140817864.000000000,2419,164835.864000000,0.014434607,-0.021928474,-0.995279610,0.000143602,-0.000220230,-0.009960989,1779140817864.000000000,2419,164835.864000000,0.002513720,0.026145214,0.042337894,1,-0.000194772,0.000394970,0.000057248,1,-0.139053702,0.241184041,9.802697182,1,0,0
1779140817884.000000000,2419,164835.884000000,0.014919648,-0.024903150,-0.995711505,0.000151243,-0.000250234,-0.009961259,1779140817884.000000000,2419,164835.884000000,0.007288663,-0.003086679,0.038103990,1,0.000346707,-0.000643810,-0.000427977,1,-0.139003351,0.241140455,9.802699089,1,0,0
1779140817894.000000000,2419,164835.894000000,0.015228597,-0.025454750,-0.995823979,0.000150217,-0.000253657,-0.009957770,1779140817894.000000000,2419,164835.894000000,0.010275929,-0.008457785,0.036999967,1,0.000665501,0.000178228,-0.000778377,1,-0.139071763,0.241188496,9.802697182,1,0,0
1779140817914.000000000,2419,164835.914000000,0.015324615,-0.026899457,-0.996915221,0.000156917,-0.000269416,-0.009972705,1779140817914.000000000,2419,164835.914000000,0.011307557,-0.022650052,0.026299974,1,-0.000420967,-0.000509272,-0.000108514,1,-0.138959780,0.241130337,9.802700043,1,0,0
1779140817924.000000000,2419,164835.924000000,0.016554162,-0.025548210,-0.994764328,0.000163236,-0.000253896,-0.009943993,1779140817924.000000000,2419,164835.924000000,0.023388155,-0.009459134,0.047394760,1,0.000353380,-0.000159960,0.000440402,1,-0.138947412,0.241094440,9.802700996,1,0,0
1779140817944.000000000,2419,164835.944000000,0.018482653,-0.024253424,-0.995816767,0.000179595,-0.000239742,-0.009950255,1779140817944.000000000,2419,164835.944000000,0.042526156,0.003285445,0.037075941,1,0.000479540,-0.000386915,0.000170569,1,-0.138714567,0.241145343,9.802702904,1,0,0
1779140817954.000000000,2419,164835.954000000,0.018843599,-0.024581900,-0.995762289,0.000188722,-0.000247743,-0.009966800,1779140817954.000000000,2419,164835.954000000,0.046168007,0.000016448,0.037613418,1,-0.000445172,-0.001580582,0.000537900,1,-0.138574854,0.241068900,9.802706718,1,0,0
1779140817974.000000000,2419,164835.974000000,0.015851293,-0.023033291,-0.995454967,0.000163514,-0.000225635,-0.009962129,1779140817974.000000000,2419,164835.974000000,0.017176457,0.015151633,0.040633272,1,-0.000306018,-0.000584208,-0.000285652,1,-0.138253614,0.241021395,9.802712440,1,0,0
1779140817984.000000000,2419,164835.984000000,0.013340183,-0.023094274,-0.996743381,0.000142310,-0.000230152,-0.009969903,1779140817984.000000000,2419,164835.984000000,-0.007406054,0.014608962,0.027997533,1,0.000900557,-0.000999245,-0.000633650,1,-0.138197869,0.241114274,9.802711487,1,0,0
1779140818004.000000000,2419,164836.004000000,0.009645946,-0.023248490,-0.994839668,0.000100164,-0.000231425,-0.009949338,1779140818004.000000000,2419,164836.004000000,-0.043495037,0.013098322,0.046668027,1,-0.000605233,-0.001566594,-0.001276272,1,-0.138041556,0.241068691,9.802714348,1,0,0
1779140818014.000000000,2419,164836.014000000,0.010968149,-0.026948422,-0.993673086,0.000099412,-0.000252698,-0.009928248,1779140818014.000000000,2419,164836.014000000,-0.030837648,-0.023316434,0.058106780,1,0.000263681,0.000213416,-0.000814387,1,-0.138569966,0.240919843,9.802710533,1,0,0
1779140818024.000000000,2419,164836.024000000,0.012518140,-0.029592782,-0.998099387,0.000126955,-0.000290546,-0.009992888,1779140818024.000000000,2419,164836.024000000,-0.015751323,-0.049343191,0.014700636,1,-0.001578612,-0.001982570,-0.001055276,1,-0.138461992,0.240810201,9.802715302,1,0,0
1779140818044.000000000,2419,164836.044000000,0.016902102,-0.029008092,-0.997180462,0.000168281,-0.000291125,-0.009975074,1779140818044.000000000,2419,164836.044000000,0.027211474,-0.043659952,0.023713667,1,-0.000585882,-0.000830988,0.000427038,1,-0.138515338,0.240794167,9.802714348,1,0,0
1779140818054.000000000,2419,164836.054000000,0.016442643,-0.025379550,-0.994808435,0.000160403,-0.000255507,-0.009947598,1779140818054.000000000,2419,164836.054000000,0.022835806,-0.008074713,0.046976533,1,0.000021847,-0.000258602,0.001554693,1,-0.138402194,0.240815029,9.802716255,1,0,0
1779140818074.000000000,2419,164836.074000000,0.015025618,-0.018967964,-0.994050384,0.000157066,-0.000182243,-0.009940206,1779140818074.000000000,2419,164836.074000000,0.008951380,0.054826975,0.054409858,1,0.001570431,-0.001097163,0.000149421,1,-0.138365269,0.240888253,9.802714348,1,0,0
1779140818084.000000000,2419,164836.084000000,0.013742287,-0.020139236,-0.996437550,0.000137964,-0.000194681,-0.009968755,1779140818084.000000000,2419,164836.084000000,-0.003654812,0.043406691,0.030998671,1,0.001009298,0.000706933,-0.000615861,1,-0.138443142,0.240936354,9.802712440,1,0,0
1779140818104.000000000,2419,164836.104000000,0.010715958,-0.028717251,-0.997159123,0.000113361,-0.000286212,-0.009971741,1779140818104.000000000,2419,164836.104000000,-0.033349320,-0.040651742,0.023920415,1,-0.000590106,-0.000457416,-0.000963855,1,-0.138423443,0.240949482,9.802712440,1,0,0
1779140818114.000000000,2419,164836.114000000,0.009381511,-0.029590620,-0.993586063,0.000091625,-0.000290315,-0.009928413,1779140818114.000000000,2419,164836.114000000,-0.046487667,-0.049215071,0.058959555,1,0.001071132,0.001522443,-0.000315810,1,-0.138536617,0.241003081,9.802709579,1,0,0
1779140818134.000000000,2419,164836.134000000,0.007576623,-0.026226727,-0.996550143,0.000075306,-0.000264330,-0.009952150,1779140818134.000000000,2419,164836.134000000,-0.064169154,-0.016002383,0.029886847,1,0.001349094,0.000400602,0.001299246,1,-0.138481945,0.241236642,9.802703857,1,0,0
1779140818144.000000000,2419,164836.144000000,0.007606853,-0.022648398,-0.995319307,0.000078196,-0.000231924,-0.009959830,1779140818144.000000000,2419,164836.144000000,-0.063908793,0.019181184,0.041954238,1,0.000208759,0.000656602,0.000739163,1,-0.138526469,0.241292953,9.802701950,1,0,0
1779140818154.000000000,2419,164836.154000000,0.007862148,-0.021436792,-0.995357692,0.000078892,-0.000213423,-0.009950447,1779140818154.000000000,2419,164836.154000000,-0.061417501,0.031046361,0.041578189,1,-0.000682416,-0.000431906,0.000954545,1,-0.138504624,0.241248623,9.802703857,1,0,0
1779140818174.000000000,2419,164836.174000000,0.011783269,-0.022833541,-0.994989395,0.000114742,-0.000229509,-0.009953568,1779140818174.000000000,2419,164836.174000000,-0.023022123,0.017245855,0.045191880,1,-0.001136227,0.000860079,-0.001066272,1,-0.138604194,0.241130486,9.802704811,1,0,0
1779140818184.000000000,2419,164836.184000000,0.015199476,-0.024759844,-0.997018456,0.000150420,-0.000245293,-0.009958321,1779140818184.000000000,2419,164836.184000000,0.010415676,-0.001742699,0.025294656,1,-0.000890149,-0.000203429,-0.000932961,1,-0.138634652,0.241040260,9.802706718,1,0,0
1779140818204.000000000,2419,164836.204000000,0.018710777,-0.023783937,-0.995683074,0.000183766,-0.000237251,-0.009953007,1779140818204.000000000,2419,164836.204000000,0.044878107,0.007810962,0.038390771,1,0.000303930,0.000244726,-0.000544568,1,-0.138620004,0.241060972,9.802706718,1,0,0
1779140818214.000000000,2419,164836.214000000,0.019203449,-0.022575684,-0.998301089,0.000173786,-0.000239979,-0.009966572,1779140818214.000000000,2419,164836.214000000,0.050156914,0.019679811,0.012722814,1,0.000506825,-0.000748109,-0.000319540,1,-0.137921542,0.241121039,9.802715302,1,0,0
1779140818234.000000000,2419,164836.234000000,0.021525871,-0.024747269,-0.996858478,0.000208951,-0.000247886,-0.009964569,1779140818234.000000000,2419,164836.234000000,0.072875582,-0.001626404,0.026869213,1,-0.000221764,0.000357737,-0.001923458,1,-0.138232827,0.241053790,9.802712440,1,0,0
1779140818244.000000000,2419,164836.244000000,0.014652830,-0.026817784,-0.993864834,0.000150719,-0.000277868,-0.009962237,1779140818244.000000000,2419,164836.244000000,0.005515650,-0.021988241,0.056228951,1,-0.001477214,0.000925900,-0.001401498,1,-0.138209447,0.240957707,9.802715302,1,0,0
1779140818264.000000000,2419,164836.264000000,0.012128436,-0.025850087,-0.993542552,0.000138318,-0.000266421,-0.009954549,1779140818264.000000000,2419,164836.264000000,-0.019378483,-0.012596969,0.059390102,1,0.000327447,-0.001012803,-0.000906292,1,-0.138286904,0.240915641,9.802715302,1,0,0
1779140818274.000000000,2419,164836.274000000,0.012329600,-0.024843818,-0.997058868,0.000120340,-0.000257957,-0.009951675,1779140818274.000000000,2419,164836.274000000,-0.017520111,-0.002692201,0.024904408,1,0.001137676,0.001414452,-0.000132197,1,-0.138476416,0.240977883,9.802710533,1,0,0
1779140818294.000000000,2419,164836.294000000,0.011694297,-0.023938525,-0.995933592,0.000112220,-0.000228384,-0.009931011,1779140818294.000000000,2419,164836.294000000,-0.023705587,0.006099042,0.035941880,1,0.000152207,-0.000093313,0.000494437,1,-0.138384193,0.240860775,9.802715302,1,0,0
1779140818304.000000000,2419,164836.304000000,0.012752515,-0.023796372,-0.994463384,0.000127815,-0.000237233,-0.009964613,1779140818304.000000000,2419,164836.304000000,-0.013211119,0.007496716,0.050361734,1,0.000314408,-0.002003470,-0.000021806,1,-0.138208091,0.240869224,9.802717209,1,0,0
1779140818314.000000000,2419,164836.314000000,0.012275157,-0.024768721,-0.994644940,0.000121085,-0.000245202,-0.009945318,1779140818314.000000000,2419,164836.314000000,-0.017839445,-0.001988056,0.048580762,1,0.000730051,0.000511571,0.000676476,1,-0.138233081,0.240933225,9.802715302,1,0,0
1779140818334.000000000,2419,164836.334000000,0.012897890,-0.021878343,-0.993077397,0.000131423,-0.000221203,-0.009930480,1779140818334.000000000,2419,164836.334000000,-0.011698901,0.026328310,0.063953809,1,-0.000146526,0.001023696,-0.000254471,1,-0.138216138,0.240876883,9.802717209,1,0,0
1779140818344.000000000,2419,164836.344000000,0.015212821,-0.023113025,-0.997876644,0.000152315,-0.000231489,-0.009981556,1779140818344.000000000,2419,164836.344000000,0.010904967,0.014204178,0.016888294,1,-0.000333656,-0.001011195,-0.000461706,1,-0.138250649,0.240854919,9.802717209,1,0,0
1779140818364.000000000,2419,164836.364000000,0.015173807,-0.024350129,-0.996317327,0.000146318,-0.000249692,-0.009966606,1779140818364.000000000,2419,164836.364000000,0.010416045,0.002089805,0.032178584,1,-0.001046123,0.001664237,-0.001050026,1,-0.138440922,0.240849897,9.802714348,1,0,0
1779140818374.000000000,2419,164836.374000000,0.013601202,-0.024703829,-0.996345401,0.000141701,-0.000242278,-0.009949586,1779140818374.000000000,2419,164836.374000000,-0.005091394,-0.001465710,0.031903736,1,-0.000500942,-0.000459902,-0.001072069,1,-0.138460100,0.240779996,9.802716255,1,0,0
1779140818394.000000000,2419,164836.394000000,0.009823153,-0.023365742,-0.994598985,0.000099564,-0.000218868,-0.009947475,1779140818394.000000000,2419,164836.394000000,-0.042536538,0.011741592,0.049022872,1,0.000860931,0.003344765,-0.001526120,1,-0.138974294,0.240907431,9.802705765,1,0,0
1779140818404.000000000,2419,164836.404000000,0.006775073,-0.025696775,-0.995213509,0.000080808,-0.000249570,-0.009967484,1779140818404.000000000,2419,164836.404000000,-0.072482124,-0.011070531,0.042994887,1,0.000002291,-0.001277604,-0.000896291,1,-0.138883710,0.240928441,9.802705765,1,0,0
1779140818424.000000000,2419,164836.424000000,0.009275732,-0.024131007,-0.996075451,0.000088334,-0.000243386,-0.009955857,1779140818424.000000000,2419,164836.424000000,-0.048237830,0.004099603,0.034542523,1,0.000505715,-0.000924774,-0.001035604,1,-0.139173970,0.240758166,9.802706718,1,0,0
1779140818434.000000000,2419,164836.434000000,0.007505783,-0.021269266,-0.995061398,0.000078421,-0.000224115,-0.009950703,1779140818434.000000000,2419,164836.434000000,-0.065358974,0.032305889,0.044487040,1,0.001527040,-0.001441545,-0.000584726,1,-0.138921052,0.240933463,9.802705765,1,0,0
1779140818444.000000000,2419,164836.444000000,0.013775404,-0.019620862,-0.996501029,0.000124910,-0.000203314,-0.009956077,1779140818444.000000000,2419,164836.444000000,-0.003981780,0.048698831,0.030361250,1,0.002431639,0.001351925,0.000041973,1,-0.139114499,0.241189644,9.802696228,1,0,0
1779140818464.000000000,2419,164836.464000000,0.018316757,-0.020835221,-0.995924234,0.000171582,-0.000201223,-0.009938940,1779140818464.000000000,2419,164836.464000000,0.040762499,0.036989227,0.036016699,1,0.001545097,0.001028220,-0.001327487,1,-0.138896629,0.241360590,9.802695274,1,0,0
1779140818474.000000000,2419,164836.474000000,0.022198573,-0.027342325,-0.995873094,0.000224678,-0.000271694,-0.009979557,1779140818474.000000000,2419,164836.474000000,0.078822263,-0.026763964,0.036515363,1,0.000509766,-0.001060830,-0.002132283,1,-0.138839915,0.241387621,9.802695274,1,0,0
1779140818494.000000000,2419,164836.494000000,0.024983101,-0.033843894,-0.999722481,0.000214786,-0.000365999,-0.009990454,1779140818494.000000000,2419,164836.494000000,0.106342420,-0.090318643,-0.001235841,1,-0.000492201,-0.001362947,-0.001513964,1,-0.138616756,0.241560563,9.802694321,1,0,0
1779140818504.000000000,2419,164836.504000000,0.023009539,-0.030269116,-0.995559871,0.000230659,-0.000319530,-0.009917285,1779140818504.000000000,2419,164836.504000000,0.087027013,-0.055248998,0.039585404,1,-0.000487671,0.000769436,-0.000301641,1,-0.138643742,0.241574317,9.802693367,1,0,0
1779140818524.000000000,2419,164836.524000000,0.019431403,-0.023041131,-0.992192328,0.000196705,-0.000250530,-0.009952092,1779140818524.000000000,2419,164836.524000000,0.051968127,0.015661072,0.072610088,1,-0.001061921,0.001072152,0.000686100,1,-0.138621777,0.241584554,9.802693367,1,0,0
1779140818534.000000000,2419,164836.534000000,0.021136627,-0.021371651,-0.996102512,0.000225290,-0.000205408,-0.009971568,1779140818534.000000000,2419,164836.534000000,0.068572208,0.031996079,0.034263145,1,0.000363970,-0.000601313,0.000440172,1,-0.138688207,0.241591945,9.802692413,1,0,0
1779140818554.000000000,2419,164836.554000000,0.014042033,-0.023945253,-0.996603191,0.000141372,-0.000242158,-0.009965597,1779140818554.000000000,2419,164836.554000000,-0.000954378,0.006770802,0.029353533,1,0.000194229,0.000345478,0.000920371,1,-0.138669759,0.241599992,9.802692413,1,0,0
1779140818564.000000000,2419,164836.564000000,0.010901722,-0.025271928,-0.994314432,0.000108160,-0.000246523,-0.009945435,1779140818564.000000000,2419,164836.564000000,-0.031750791,-0.006238636,0.051798400,1,0.000972551,-0.000075970,0.000962351,1,-0.138657048,0.241625100,9.802692413,1,0,0
1779140818584.000000000,2419,164836.584000000,0.005993168,-0.028392324,-0.995169461,0.000066204,-0.000291044,-0.009962176,1779140818584.000000000,2419,164836.584000000,-0.079707190,-0.036735550,0.043413725,1,-0.000473390,-0.000572000,0.002436995,1,-0.138460368,0.241684362,9.802693367,1,0,0
1779140818594.000000000,2419,164836.594000000,0.007452419,-0.028697707,-0.996016383,0.000069759,-0.000292012,-0.009957522,1779140818594.000000000,2419,164836.594000000,-0.065487623,-0.039740294,0.035106845,1,-0.000580915,0.001296666,0.001571999,1,-0.138610139,0.241670668,9.802691460,1,0,0
1779140818604.000000000,2419,164836.604000000,0.005366405,-0.028457869,-0.998311996,0.000063380,-0.000297453,-0.009970423,1779140818604.000000000,2419,164836.604000000,-0.085849628,-0.037454281,0.012598322,1,-0.001175323,-0.001719580,0.002269128,1,-0.138420686,0.241586432,9.802696228,1,0,0
1779140818624.000000000,2419,164836.624000000,0.010496716,-0.021374188,-0.990866005,0.000100912,-0.000208820,-0.009922408,1779140818624.000000000,2419,164836.624000000,-0.036032856,0.032323547,0.085603692,1,-0.000929151,-0.000204107,0.001832812,1,-0.138968945,0.241914570,9.802680969,1,0,0
1779140818634.000000000,2419,164836.634000000,0.008591490,-0.022201385,-0.998508632,0.000087477,-0.000219060,-0.009993462,1779140818634.000000000,2419,164836.634000000,-0.054567102,0.024226971,0.010656657,1,-0.000247035,-0.000296778,0.001086108,1,-0.138811156,0.241941631,9.802681923,1,0,0
1779140818654.000000000,2419,164836.654000000,0.014645364,-0.016395703,-0.995033681,0.000141848,-0.000161052,-0.009936575,1779140818654.000000000,2419,164836.654000000,0.004382809,0.081008092,0.044731706,1,0.000768148,-0.000833838,0.000231972,1,-0.139212966,0.241819099,9.802680016,1,0,0
1779140818664.000000000,2419,164836.664000000,0.011575693,-0.018994456,-0.997035384,0.000116486,-0.000198048,-0.009958624,1779140818664.000000000,2419,164836.664000000,-0.025574028,0.055603933,0.025102578,1,0.000101397,-0.000483039,-0.000906672,1,-0.139078438,0.241878688,9.802680016,1,0,0
1779140818684.000000000,2419,164836.684000000,0.015716471,-0.021398468,-0.996321082,0.000166198,-0.000220100,-0.009964409,1779140818684.000000000,2419,164836.684000000,0.014713332,0.032065310,0.032101654,1,0.000155537,-0.001365386,-0.001287458,1,-0.139370993,0.241916880,9.802675247,1,0,0
1779140818694.000000000,2419,164836.694000000,0.014676030,-0.022254972,-0.995609581,0.000142171,-0.000226221,-0.009957153,1779140818694.000000000,2419,164836.694000000,0.004443494,0.023742184,0.039076310,1,-0.000591768,0.003117563,-0.001107726,1,-0.139577329,0.241969943,9.802670479,1,0,0
1779140818714.000000000,2419,164836.714000000,0.014849598,-0.023252435,-0.997774065,0.000147449,-0.000247531,-0.009951124,1779140818714.000000000,2419,164836.714000000,0.005847336,0.014070255,0.017842729,1,-0.002407897,0.001820619,-0.001603355,1,-0.139835522,0.242022917,9.802665710,1,0,0
1779140818724.000000000,2419,164836.724000000,0.018623739,-0.024558866,-0.990198672,0.000182868,-0.000227086,-0.009951802,1779140818724.000000000,2419,164836.724000000,0.042630725,0.001110221,0.092132509,1,-0.002300392,0.001421648,-0.002616006,1,-0.140052155,0.241877511,9.802666664,1,0,0
1779140818734.000000000,2419,164836.734000000,0.019443633,-0.030289898,-0.995879471,0.000191582,-0.000288179,-0.009967919,1779140818734.000000000,2419,164836.734000000,0.050529111,-0.055203892,0.036424119,1,-0.001296715,0.001073579,-0.002729287,1,-0.140183404,0.241796866,9.802666664,1,0,0
1779140818754.000000000,2419,164836.754000000,0.021135425,-0.026434358,-0.999068797,0.000222127,-0.000278141,-0.009976513,1779140818754.000000000,2419,164836.754000000,0.067080684,-0.017704116,0.005154164,1,-0.000447941,-0.001032206,-0.000778758,1,-0.140155435,0.241514057,9.802673340,1,0,0
1779140818764.000000000,2419,164836.764000000,0.020709559,-0.024011437,-0.992588460,0.000195115,-0.000237452,-0.009916071,1779140818764.000000000,2419,164836.764000000,0.062971778,0.006090922,0.068704419,1,0.000947031,0.000155200,0.000371793,1,-0.140124187,0.241592407,9.802672386,1,0,0
1779140818784.000000000,2419,164836.784000000,0.016311841,-0.022058718,-0.994010091,0.000160822,-0.000223120,-0.009927204,1779140818784.000000000,2419,164836.784000000,0.019980468,0.025242589,0.054764882,1,-0.000745857,0.000849578,0.000374936,1,-0.140010282,0.241541624,9.802675247,1,0,0
1779140818794.000000000,2419,164836.794000000,0.014697469,-0.023213647,-0.993965447,0.000157074,-0.000230560,-0.009961597,1779140818794.000000000,2419,164836.794000000,0.004211379,0.013875966,0.055204839,1,-0.000987492,-0.001664587,-0.000550060,1,-0.139870048,0.241493031,9.802678108,1,0,0
1779140818814.000000000,2419,164836.814000000,0.011851913,-0.028914073,-0.999057174,0.000115170,-0.000290224,-0.009985905,1779140818814.000000000,2419,164836.814000000,-0.023895813,-0.042197011,0.005272982,1,0.000894071,-0.000037282,-0.000989558,1,-0.140186265,0.241240859,9.802680016,1,0,0
1779140818824.000000000,2419,164836.824000000,0.009259133,-0.025314303,-0.993028581,0.000100951,-0.000262938,-0.009941021,1779140818824.000000000,2419,164836.824000000,-0.049339913,-0.007088263,0.064398199,1,-0.001232123,-0.000065975,0.000357354,1,-0.140142784,0.241112873,9.802683830,1,0,0
1779140818844.000000000,2419,164836.844000000,0.007250509,-0.022931049,-0.989969194,0.000073910,-0.000231448,-0.009918501,1779140818844.000000000,2419,164836.844000000,-0.069046080,0.016300552,0.094399914,1,0.000508844,0.001351754,0.000424026,1,-0.140191168,0.241193354,9.802680969,1,0,0
1779140818854.000000000,2419,164836.854000000,0.010684066,-0.023564387,-1.001341939,0.000104063,-0.000231763,-0.010003884,1779140818854.000000000,2419,164836.854000000,-0.035591185,0.010208624,-0.017134070,1,0.000763099,-0.000069525,-0.000121705,1,-0.140364006,0.241320089,9.802675247,1,0,0
1779140818874.000000000,2419,164836.874000000,0.009579447,-0.025696294,-0.998565555,0.000091261,-0.000244748,-0.009961450,1779140818874.000000000,2419,164836.874000000,-0.046484876,-0.010613214,0.010089591,1,0.000003660,0.002582755,0.000036890,1,-0.140507728,0.241381496,9.802672386,1,0,0
1779140818884.000000000,2419,164836.884000000,0.009869065,-0.024380036,-0.990183055,0.000110950,-0.000248045,-0.009925969,1779140818884.000000000,2419,164836.884000000,-0.043665119,0.002236712,0.092295170,1,-0.000942793,-0.001029598,0.000620345,1,-0.140414998,0.241294056,9.802675247,1,0,0
1779140818894.000000000,2419,164836.894000000,0.012015964,-0.029278038,-0.997696280,0.000114548,-0.000290616,-0.009966478,1779140818894.000000000,2419,164836.894000000,-0.022716098,-0.045814589,0.018614367,1,-0.000819524,0.002638155,0.000329257,1,-0.140634522,0.241279483,9.802672386,1,0,0
1779140818914.000000000,2419,164836.914000000,0.015842313,-0.026281666,-0.998365283,0.000153258,-0.000250996,-0.009961062,1779140818914.000000000,2419,164836.914000000,0.014464471,-0.016424201,0.012048454,1,0.001433766,-0.000135524,0.001078089,1,-0.140890509,0.241356149,9.802666664,1,0,0
1779140818924.000000000,2419,164836.924000000,0.014092274,-0.023298888,-0.994613588,0.000143347,-0.000237176,-0.009966149,1779140818924.000000000,2419,164836.924000000,-0.002714850,0.012784958,0.048840657,1,-0.000569453,0.001606434,0.000363242,1,-0.140962705,0.241251409,9.802668571,1,0,0
1779140818944.000000000,2419,164836.944000000,0.009979594,-0.026250806,-0.993883669,0.000111007,-0.000262203,-0.009949598,1779140818944.000000000,2419,164836.944000000,-0.043434825,-0.016100045,0.055991542,1,-0.001753744,0.000883359,0.000880374,1,-0.141328096,0.241278097,9.802662849,1,0,0
1779140818954.000000000,2419,164836.954000000,0.010565062,-0.034484707,-0.995237887,0.000109320,-0.000315039,-0.009923543,1779140818954.000000000,2419,164836.954000000,-0.038074695,-0.096973561,0.042708527,1,-0.003409179,0.005375030,0.001943457,1,-0.141848803,0.241100386,9.802659988,1,0,0
1779140818974.000000000,2419,164836.974000000,0.009758682,-0.030710066,-0.998797596,0.000072897,-0.000330971,-0.009974265,1779140818974.000000000,2419,164836.974000000,-0.046306491,-0.060654141,0.007812134,1,-0.004310890,0.006227793,0.004317524,1,-0.142197490,0.240376174,9.802672386,1,0,0
1779140818984.000000000,2419,164836.984000000,0.019609472,-0.025207203,-0.995235801,0.000191991,-0.000260056,-0.009914174,1779140818984.000000000,2419,164836.984000000,0.049813997,-0.006962390,0.042741556,1,-0.000474614,0.002460145,0.003964825,1,-0.142562971,0.240222842,9.802670479,1,0,0
1779140819004.000000000,2419,164837.004000000,0.025312360,-0.009169286,-0.996472955,0.000235123,-0.000097326,-0.009944120,1779140819004.000000000,2419,164837.004000000,0.105720907,0.150068909,0.030614801,1,-0.001050477,0.004088636,0.001246324,1,-0.142635182,0.239956677,9.802676201,1,0,0
1779140819014.000000000,2419,164837.014000000,0.027832048,-0.003203965,-0.990578115,0.000288804,-0.000040950,-0.009950880,1779140819014.000000000,2419,164837.014000000,0.130963683,0.208759844,0.088426530,1,-0.001189497,-0.005057214,0.000199848,1,-0.141565785,0.240321770,9.802682877,1,0,0
1779140819024.000000000,2419,164837.024000000,0.027721098,-0.009846710,-1.000238180,0.000270418,-0.000077465,-0.009965186,1779140819024.000000000,2419,164837.024000000,0.130335718,0.143904224,-0.006306175,1,0.003221499,0.000072807,0.000454358,1,-0.141500950,0.240579829,9.802677155,1,0,0
1779140819034.000000000,2419,164837.034000000,0.029472867,-0.018417314,-0.992977083,0.000295468,-0.000178377,-0.009980846,1779140819034.000000000,2419,164837.034000000,0.147479326,0.059870325,0.064899668,1,-0.000744843,0.000398283,-0.000761636,1,-0.141562715,0.240459651,9.802679062,1,0,0
1779140819044.000000000,2419,164837.044000000,0.026265504,-0.027759580,-1.000532150,0.000278571,-0.000272785,-0.009976803,1779140819044.000000000,2419,164837.044000000,0.116223097,-0.031543143,-0.009192548,1,0.002583197,-0.005636433,-0.001286632,1,-0.141178593,0.240765452,9.802677155,1,0,0
1779140819054.000000000,2419,164837.054000000,0.018558344,-0.026516717,-0.994333744,0.000186967,-0.000273344,-0.009962739,1779140819054.000000000,2419,164837.054000000,0.041077554,-0.019228794,0.051596507,1,0.000970099,-0.001567916,-0.001679731,1,-0.140870005,0.240840897,9.802680016,1,0,0
1779140819074.000000000,2419,164837.074000000,0.012868348,-0.032750309,-0.999282360,0.000147783,-0.000329434,-0.009994821,1779140819074.000000000,2419,164837.074000000,-0.014561075,-0.079893507,0.003057915,1,0.001854337,-0.005439018,-0.002660776,1,-0.140588790,0.241333976,9.802672386,1,0,0
1779140819084.000000000,2419,164837.084000000,0.008249789,-0.030179119,-0.993161500,0.000078015,-0.000311890,-0.009936337,1779140819084.000000000,2419,164837.084000000,-0.059729300,-0.054745130,0.063086413,1,-0.001828531,0.003085833,-0.001624360,1,-0.140729636,0.241153166,9.802674294,1,0,0
1779140819104.000000000,2419,164837.104000000,0.004012769,-0.026953558,-0.994428039,0.000038844,-0.000263185,-0.009934056,1779140819104.000000000,2419,164837.104000000,-0.101197779,-0.023283644,0.050670892,1,0.000484755,0.000480066,-0.000179525,1,-0.140564710,0.241055533,9.802679062,1,0,0
1779140819114.000000000,2419,164837.114000000,0.005379112,-0.028932346,-0.997139752,0.000048043,-0.000291620,-0.009980129,1779140819114.000000000,2419,164837.114000000,-0.088127196,-0.042643443,0.024073107,1,-0.000286294,0.003811001,0.001357372,1,-0.140996143,0.241077647,9.802672386,1,0,0
1779140819134.000000000,2419,164837.134000000,-0.002623845,-0.022635769,-0.993896961,-0.000025329,-0.000234440,-0.009949314,1779140819134.000000000,2419,164837.134000000,-0.166435465,0.019002333,0.055878431,1,-0.002471937,0.000458575,0.002649926,1,-0.140716612,0.240907475,9.802680969,1,0,0
1779140819144.000000000,2419,164837.144000000,0.002541591,-0.023188159,-0.993849158,0.000016886,-0.000227915,-0.009925691,1779140819144.000000000,2419,164837.144000000,-0.116017856,0.013461239,0.056347106,1,-0.000289742,0.001507011,0.001954879,1,-0.140987888,0.240851253,9.802678108,1,0,0
1779140819164.000000000,2419,164837.164000000,0.005603345,-0.026249418,-0.996862292,0.000042317,-0.000258054,-0.009957306,1779140819164.000000000,2419,164837.164000000,-0.086119086,-0.016625669,0.026798056,1,-0.000986686,0.004686465,0.000348796,1,-0.141215101,0.240762576,9.802677155,1,0,0
1779140819174.000000000,2419,164837.174000000,0.010164502,-0.023837954,-0.995093882,0.000104879,-0.000245386,-0.009970674,1779140819174.000000000,2419,164837.174000000,-0.041658461,0.006805590,0.044141479,1,-0.002417300,0.000126464,-0.000233073,1,-0.141342312,0.240500540,9.802681923,1,0,0
1779140819184.000000000,2419,164837.184000000,0.011395338,-0.022946076,-0.996084332,0.000108280,-0.000229309,-0.009940239,1779140819184.000000000,2419,164837.184000000,-0.029720739,0.015425028,0.034429185,1,-0.000448936,0.003579043,0.000063930,1,-0.141582474,0.240435198,9.802680016,1,0,0
1779140819204.000000000,2419,164837.204000000,0.018615495,-0.021990610,-0.997103333,0.000185724,-0.000218030,-0.009959219,1779140819204.000000000,2419,164837.204000000,0.040390681,0.024615383,0.024431452,1,-0.000940065,0.002159175,0.000906030,1,-0.142231658,0.240240708,9.802675247,1,0,0
1779140819214.000000000,2419,164837.214000000,0.018504901,-0.019053310,-0.994379342,0.000189417,-0.000189488,-0.009962358,1779140819214.000000000,2419,164837.214000000,0.039432570,0.053118061,0.051153518,1,-0.000224419,0.001747109,0.000806992,1,-0.141943425,0.239838317,9.802689552,1,0,0
1779140819234.000000000,2419,164837.234000000,0.021097017,-0.021791179,-0.997265995,0.000226839,-0.000208240,-0.009981722,1779140819234.000000000,2419,164837.234000000,0.064872332,0.026195630,0.022847392,1,-0.000160038,-0.003364598,-0.000355609,1,-0.141913399,0.239888445,9.802688599,1,0,0
1779140819244.000000000,2419,164837.244000000,0.027075246,-0.027554158,-0.994795084,0.000241713,-0.000265596,-0.009918451,1779140819244.000000000,2419,164837.244000000,0.123301983,-0.030394178,0.047078226,1,-0.000349508,0.005587994,-0.000533019,1,-0.142390221,0.239808634,9.802683830,1,0,0
1779140819264.000000000,2419,164837.264000000,0.023107493,-0.031864468,-0.994498014,0.000235082,-0.000313984,-0.009934513,1779140819264.000000000,2419,164837.264000000,0.084337801,-0.072900049,0.049995694,1,0.000553976,0.000391949,-0.000324535,1,-0.142281801,0.239600793,9.802689552,1,0,0
1779140819274.000000000,2419,164837.274000000,0.026620813,-0.028013986,-0.992389619,0.000249399,-0.000292303,-0.009941028,1779140819274.000000000,2419,164837.274000000,0.118600294,-0.035111770,0.070668980,1,0.001473208,0.001271700,0.000556786,1,-0.142499968,0.239657804,9.802685738,1,0,0
1779140819294.000000000,2419,164837.294000000,0.021674039,-0.018469386,-0.994991064,0.000211852,-0.000186293,-0.009962782,1779140819294.000000000,2419,164837.294000000,0.070514180,0.058707789,0.045158684,1,0.000101081,0.002103355,0.001929324,1,-0.142099708,0.239834622,9.802686691,1,0,0
1779140819304.000000000,2419,164837.304000000,0.024823109,-0.021095764,-0.999053001,0.000239603,-0.000216461,-0.009964694,1779140819304.000000000,2419,164837.304000000,0.101156987,0.032855839,0.005322821,1,-0.001359941,-0.001615377,0.000677992,1,-0.142223626,0.239692509,9.802688599,1,0,0
1779140819324.000000000,2419,164837.324000000,0.017211031,-0.022656819,-0.993181109,0.000145359,-0.000198935,-0.009899942,1779140819324.000000000,2419,164837.324000000,0.027076613,0.017561551,0.062914439,1,0.001775688,0.003493279,-0.001743132,1,-0.141816273,0.239803672,9.802691460,1,0,0
1779140819334.000000000,2419,164837.334000000,0.012498321,-0.030227093,-0.997658491,0.000152751,-0.000290322,-0.010012550,1779140819334.000000000,2419,164837.334000000,-0.018914334,-0.056561284,0.019007383,1,0.000327600,-0.006191145,-0.000683613,1,-0.141288340,0.239875168,9.802698135,1,0,0
1779140819344.000000000,2419,164837.344000000,0.006022334,-0.028013863,-0.996435642,0.000057716,-0.000281693,-0.009962106,1779140819344.000000000,2419,164837.344000000,-0.082078509,-0.034836218,0.031003898,1,0.000457436,0.000637608,0.000857201,1,-0.141156673,0.239900604,9.802699089,1,0,0
1779140819364.000000000,2419,164837.364000000,0.000817685,-0.025295475,-0.994908154,0.000015051,-0.000259331,-0.009921064,1779140819364.000000000,2419,164837.364000000,-0.133092672,-0.008242947,0.045984726,1,0.002015595,-0.001696323,0.000968278,1,-0.141057745,0.239884257,9.802700996,1,0,0
1779140819374.000000000,2419,164837.374000000,-0.000814121,-0.026164565,-0.999652028,-0.000010886,-0.000274656,-0.010005209,1779140819374.000000000,2419,164837.374000000,-0.149145946,-0.016655190,-0.000539572,1,-0.001550019,0.002334326,0.000460285,1,-0.141234636,0.239883378,9.802698135,1,0,0
1779140819384.000000000,2419,164837.384000000,0.001950242,-0.024181023,-0.994762301,0.000013400,-0.000240416,-0.009915298,1779140819384.000000000,2419,164837.384000000,-0.122245878,0.002762327,0.047409680,1,0.000240230,0.001564283,-0.000362062,1,-0.141420305,0.239904508,9.802695274,1,0,0
1779140819394.000000000,2419,164837.394000000,0.000261102,-0.020825343,-0.995396554,0.000011637,-0.000216707,-0.009985914,1779140819394.000000000,2419,164837.394000000,-0.138713628,0.035570826,0.041193314,1,-0.002705279,-0.001611171,-0.000401631,1,-0.141224205,0.239713117,9.802702904,1,0,0
1779140819404.000000000,2419,164837.404000000,0.004163031,-0.019800719,-0.994714677,0.000023901,-0.000188875,-0.009937135,1779140819404.000000000,2419,164837.404000000,-0.100647196,0.045500912,0.047879998,1,0.000483190,0.004796895,-0.000721758,1,-0.141622826,0.239694387,9.802697182,1,0,0
1779140819424.000000000,2419,164837.424000000,0.011203693,-0.021492299,-0.996574700,0.000107113,-0.000212619,-0.009947296,1779140819424.000000000,2419,164837.424000000,-0.032298956,0.028836194,0.029631376,1,-0.000061963,0.002230096,-0.001379086,1,-0.142247260,0.239598885,9.802690506,1,0,0
1779140819434.000000000,2419,164837.434000000,0.016723061,-0.024101701,-0.996509135,0.000161569,-0.000242983,-0.009973530,1779140819434.000000000,2419,164837.434000000,0.021545589,0.003187837,0.030271765,1,-0.001223316,0.001987971,-0.001396419,1,-0.142515153,0.239505857,9.802688599,1,0,0
1779140819454.000000000,2419,164837.454000000,0.016295709,-0.028369302,-0.997208655,0.000167749,-0.000280114,-0.009975287,1779140819454.000000000,2419,164837.454000000,0.017102063,-0.038684536,0.023409132,1,0.000443250,0.002880452,-0.000817504,1,-0.142794758,0.239536747,9.802683830,1,0,0
1779140819464.000000000,2419,164837.464000000,0.018920384,-0.027777102,-0.994419813,0.000186761,-0.000282484,-0.009937165,1779140819464.000000000,2419,164837.464000000,0.042561602,-0.032777131,0.050751753,1,0.001970830,0.001662549,-0.000181358,1,-0.143036008,0.239684612,9.802677155,1,0,0
1779140819474.000000000,2419,164837.474000000,0.015812706,-0.021928869,-0.997341156,0.000168767,-0.000233445,-0.009981868,1779140819474.000000000,2419,164837.474000000,0.012187745,0.024724644,0.022100920,1,0.000467667,-0.001678056,-0.000719018,1,-0.142830119,0.239787668,9.802677155,1,0,0
1779140819494.000000000,2419,164837.494000000,0.019292144,-0.019864770,-0.998427629,0.000195050,-0.000191624,-0.009983468,1779140819494.000000000,2419,164837.494000000,0.046043672,0.045082696,0.011439322,1,0.000656138,-0.001311392,-0.001512447,1,-0.143107891,0.239909336,9.802670479,1,0,0
1779140819504.000000000,2419,164837.504000000,0.015056909,-0.019412341,-0.995651066,0.000148752,-0.000193825,-0.009947409,1779140819504.000000000,2419,164837.504000000,0.004714957,0.049637415,0.038667955,1,0.002057025,-0.000091262,-0.002428291,1,-0.142941892,0.240070552,9.802668571,1,0,0
1779140819524.000000000,2419,164837.524000000,0.012962024,-0.016931267,-0.990091741,0.000126872,-0.000169778,-0.009896924,1779140819524.000000000,2419,164837.524000000,-0.015992761,0.074402675,0.093173392,1,0.002980782,0.001076530,-0.003809798,1,-0.143143311,0.240532979,9.802654266,1,0,0
1779140819534.000000000,2419,164837.534000000,0.013212224,-0.020940946,-0.997249007,0.000131606,-0.000205224,-0.009972218,1779140819534.000000000,2419,164837.534000000,-0.013610853,0.035447631,0.022974391,1,0.002846820,0.000147010,-0.004958100,1,-0.143186912,0.240894750,9.802644730,1,0,0
1779140819554.000000000,2419,164837.554000000,0.021700952,-0.026438102,-0.994059503,0.000207378,-0.000261857,-0.009934437,1779140819554.000000000,2419,164837.554000000,0.069536909,-0.018282793,0.054246977,1,0.000013749,0.000757243,-0.004310980,1,-0.143303692,0.240984887,9.802640915,1,0,0
1779140819564.000000000,2419,164837.564000000,0.025328914,-0.033670373,-0.995749831,0.000250830,-0.000324480,-0.009954532,1779140819564.000000000,2419,164837.564000000,0.105177797,-0.089100122,0.037668634,1,0.000845686,-0.000990315,-0.003690131,1,-0.143185914,0.241118178,9.802639961,1,0,0
1779140819584.000000000,2419,164837.584000000,0.030334346,-0.044196535,-0.997396410,0.000311312,-0.000448759,-0.009981483,1779140819584.000000000,2419,164837.584000000,0.154378250,-0.192348331,0.021523772,1,-0.000460918,-0.002715703,0.000467174,1,-0.143014982,0.241057470,9.802643776,1,0,0
1779140819594.000000000,2419,164837.594000000,0.027449738,-0.035552047,-1.001075625,0.000283377,-0.000382076,-0.009989437,1779140819594.000000000,2419,164837.594000000,0.126330882,-0.107529894,-0.014554214,1,0.000517515,-0.001636219,0.002343065,1,-0.142806262,0.241133839,9.802644730,1,0,0
1779140819614.000000000,2419,164837.614000000,0.017460652,-0.017227324,-0.994123220,0.000179815,-0.000165086,-0.009924643,1779140819614.000000000,2419,164837.614000000,0.027264850,0.072689481,0.053595886,1,-0.000381507,0.001787225,0.002799186,1,-0.144449010,0.241796121,9.802604675,1,0,0
1779140819624.000000000,2419,164837.624000000,0.012510610,-0.015081936,-1.000168443,0.000141028,-0.000155772,-0.009996537,1779140819624.000000000,2419,164837.624000000,-0.021570615,0.093826540,-0.005693810,1,-0.000836693,-0.002871758,0.001649497,1,-0.144194901,0.241715863,9.802610397,1,0,0
1779140819634.000000000,2419,164837.634000000,0.009596826,-0.009545411,-0.992463410,0.000086930,-0.000108823,-0.009959898,1779140819634.000000000,2419,164837.634000000,-0.050124209,0.147738352,0.069876820,1,-0.005243828,0.001772966,-0.000036841,1,-0.144294098,0.241183951,9.802621841,1,0,0
1779140819654.000000000,2419,164837.654000000,0.001787859,-0.027871089,-0.997232437,0.000027146,-0.000261134,-0.009983500,1779140819654.000000000,2419,164837.654000000,-0.126545653,-0.032219216,0.023116920,1,0.000193809,-0.000954465,-0.002337951,1,-0.144050583,0.241107792,9.802627563,1,0,0
1779140819664.000000000,2419,164837.664000000,0.002336181,-0.031383455,-0.999359608,0.000017937,-0.000319074,-0.010000935,1779140819664.000000000,2419,164837.664000000,-0.121471375,-0.066619933,0.002250615,1,-0.000069001,0.003338719,-0.001302804,1,-0.144486651,0.241143897,9.802619934,1,0,0
1779140819684.000000000,2419,164837.684000000,-0.002521338,-0.023249473,-0.996938229,-0.000033914,-0.000236111,-0.009956267,1779140819684.000000000,2419,164837.684000000,-0.168843538,0.013292762,0.025996724,1,0.001484497,0.000971080,-0.000770405,1,-0.144148543,0.241338208,9.802619934,1,0,0
1779140819694.000000000,2419,164837.694000000,0.002992591,-0.023663620,-0.993401170,0.000018631,-0.000232518,-0.009921629,1779140819694.000000000,2419,164837.694000000,-0.114950851,0.009434942,0.060676239,1,0.002575144,0.000478851,-0.000744383,1,-0.144313663,0.241575822,9.802612305,1,0,0
1779140819714.000000000,2419,164837.714000000,0.007199693,-0.026169337,-0.993705153,0.000058480,-0.000261893,-0.009930451,1779140819714.000000000,2419,164837.714000000,-0.073649667,-0.015113565,0.057694711,1,-0.001256348,0.003593215,-0.000715667,1,-0.144367218,0.241480440,9.802613258,1,0,0
1779140819724.000000000,2419,164837.724000000,0.014161244,-0.027563002,-0.993831515,0.000142573,-0.000276797,-0.009946921,1779140819724.000000000,2419,164837.724000000,-0.005568674,-0.028934449,0.056456368,1,-0.001353959,-0.000375511,0.000119530,1,-0.144431233,0.241324082,9.802616119,1,0,0
1779140819744.000000000,2419,164837.744000000,0.023096316,-0.033824448,-0.996453047,0.000221937,-0.000347049,-0.009981898,1779140819744.000000000,2419,164837.744000000,0.081803888,-0.090390980,0.030745257,1,-0.001813414,0.002027730,0.001849785,1,-0.144755468,0.241257817,9.802613258,1,0,0
1779140819754.000000000,2419,164837.754000000,0.023818059,-0.027231501,-0.994762421,0.000243942,-0.000278905,-0.009956105,1779140819754.000000000,2419,164837.754000000,0.088908598,-0.025935691,0.047330365,1,-0.002049071,-0.001660262,0.002817258,1,-0.144612834,0.241051495,9.802619934,1,0,0
1779140819764.000000000,2419,164837.764000000,0.025536761,-0.020046765,-0.994509399,0.000250290,-0.000201920,-0.009942710,1779140819764.000000000,2419,164837.764000000,0.105903015,0.044371296,0.049817670,1,-0.000808096,-0.000142225,0.002815360,1,-0.144520491,0.240938991,9.802624702,1,0,0
1779140819784.000000000,2419,164837.784000000,0.028346986,-0.022442779,-0.998885810,0.000282794,-0.000223529,-0.009973234,1779140819784.000000000,2419,164837.784000000,0.133531272,0.020729044,0.006904494,1,-0.001386573,-0.001449617,0.002203539,1,-0.144410789,0.240775272,9.802630424,1,0,0
1779140819794.000000000,2419,164837.794000000,0.028222574,-0.020080851,-0.994924545,0.000281654,-0.000209880,-0.009960862,1779140819794.000000000,2419,164837.794000000,0.132451758,0.043655969,0.045759205,1,-0.003379476,-0.000832544,0.001772178,1,-0.144289836,0.240477219,9.802639008,1,0,0
1779140819814.000000000,2419,164837.814000000,0.023895469,-0.024732599,-0.995898366,0.000246730,-0.000241070,-0.009967592,1779140819814.000000000,2419,164837.814000000,0.090410724,-0.002455279,0.036226790,1,-0.000386364,-0.001498823,0.000448454,1,-0.143753812,0.239935815,9.802659988,1,0,0
1779140819824.000000000,2419,164837.824000000,0.021781873,-0.023460640,-0.996504366,0.000217669,-0.000232616,-0.009970239,1779140819824.000000000,2419,164837.824000000,0.069739521,0.009853302,0.030288948,1,-0.000582964,0.001265256,0.000257834,1,-0.143898979,0.239896342,9.802659035,1,0,0
1779140819844.000000000,2419,164837.844000000,0.012631571,-0.021571701,-0.995828271,0.000133458,-0.000212295,-0.009959290,1779140819844.000000000,2419,164837.844000000,-0.019769784,0.028287886,0.036923770,1,-0.000506832,-0.001512134,-0.000064399,1,-0.143596023,0.239818141,9.802665710,1,0,0
1779140819854.000000000,2419,164837.854000000,0.010375009,-0.023025725,-0.995252013,0.000103494,-0.000227750,-0.009950750,1779140819854.000000000,2419,164837.854000000,-0.041916270,0.013970757,0.042576935,1,-0.000692435,0.000641096,-0.000540728,1,-0.143680766,0.239754140,9.802665710,1,0,0
1779140819874.000000000,2419,164837.874000000,0.002232252,-0.031777825,-0.996013165,0.000022385,-0.000314098,-0.009965715,1779140819874.000000000,2419,164837.874000000,-0.121546842,-0.071936347,0.035117622,1,-0.001730588,0.000299202,0.001062163,1,-0.143446282,0.239644170,9.802672386,1,0,0
1779140819884.000000000,2419,164837.884000000,0.000824053,-0.033050861,-0.993880033,0.000003636,-0.000324614,-0.009932009,1779140819884.000000000,2419,164837.884000000,-0.135412440,-0.084576145,0.056039501,1,-0.000388615,0.000409378,0.001309833,1,-0.143505409,0.239530578,9.802674294,1,0,0
1779140819904.000000000,2419,164837.904000000,0.005306767,-0.029061319,-0.996903121,0.000029216,-0.000300594,-0.009946763,1779140819904.000000000,2419,164837.904000000,-0.091333181,-0.045708314,0.026401147,1,-0.001783007,0.002915535,0.003577956,1,-0.143463030,0.239231870,9.802681923,1,0,0
1779140819914.000000000,2419,164837.914000000,0.010141933,-0.021368032,-0.994190574,0.000114596,-0.000223686,-0.009959096,1779140819914.000000000,2419,164837.914000000,-0.044043101,0.029603533,0.053003546,1,-0.001592052,-0.000490147,0.003833488,1,-0.143483281,0.239104450,9.802684784,1,0,0
1779140819924.000000000,2419,164837.924000000,0.015655661,-0.019610997,-0.994330645,0.000134409,-0.000195753,-0.009936715,1779140819924.000000000,2419,164837.924000000,0.010015530,0.046640243,0.051634725,1,-0.001966676,0.001829633,0.003293524,1,-0.143568650,0.238898590,9.802688599,1,0,0
1779140819944.000000000,2419,164837.944000000,0.017353836,-0.017470598,-0.993763506,0.000161741,-0.000169223,-0.009947948,1779140819944.000000000,2419,164837.944000000,0.026616229,0.067092448,0.057208743,1,-0.001706431,0.003448106,0.002080796,1,-0.143672794,0.238368213,9.802700043,1,0,0
1779140819954.000000000,2419,164837.954000000,0.020143311,-0.021667123,-0.996691465,0.000206209,-0.000212103,-0.009948973,1779140819954.000000000,2419,164837.954000000,0.053737771,0.025762366,0.028495830,1,-0.001840307,0.000293659,0.001119157,1,-0.143808961,0.238187358,9.802701950,1,0,0
1779140819974.000000000,2419,164837.974000000,0.020261453,-0.021478098,-0.998046935,0.000191498,-0.000229519,-0.009972292,1779140819974.000000000,2419,164837.974000000,0.054883927,0.027464405,0.015206777,1,-0.000597387,0.003683862,-0.000043787,1,-0.143928036,0.238073945,9.802702904,1,0,0
1779140819984.000000000,2419,164837.984000000,0.019565739,-0.017896634,-0.994367719,0.000207511,-0.000179845,-0.009947548,1779140819984.000000000,2419,164837.984000000,0.048063409,0.062656187,0.051286064,1,0.000978026,-0.002435053,-0.000620462,1,-0.143735439,0.238192439,9.802702904,1,0,0
1779140820004.000000000,2419,164838.004000000,0.021300053,-0.018825542,-0.996877789,0.000204377,-0.000184405,-0.009964874,1779140820004.000000000,2419,164838.004000000,0.065078489,0.053821519,0.026663855,1,0.001480501,0.000853496,-0.002138177,1,-0.143831939,0.238482252,9.802694321,1,0,0
1779140820014.000000000,2419,164838.014000000,0.017765133,-0.022537993,-0.995402992,0.000191448,-0.000224265,-0.009970933,1779140820014.000000000,2419,164838.014000000,0.030665357,0.017224429,0.041134704,1,-0.000703990,-0.003176892,-0.002451958,1,-0.143400535,0.238097906,9.802710533,1,0,0
1779140820034.000000000,2419,164838.034000000,0.016861456,-0.032348577,-0.994031787,0.000172985,-0.000317108,-0.009947469,1779140820034.000000000,2419,164838.034000000,0.021939443,-0.079128012,0.054587759,1,0.000725304,-0.001177868,-0.002062101,1,-0.143379554,0.238124356,9.802709579,1,0,0
1779140820044.000000000,2419,164838.044000000,0.014453062,-0.035638783,-0.997594416,0.000144806,-0.000351526,-0.009968796,1779140820044.000000000,2419,164838.044000000,-0.001648122,-0.111334912,0.019648958,1,0.000488266,0.000551445,-0.000992232,1,-0.143402204,0.238176957,9.802708626,1,0,0
1779140820054.000000000,2419,164838.054000000,0.013930219,-0.032312620,-0.995878220,0.000140244,-0.000333038,-0.009964120,1779140820054.000000000,2419,164838.054000000,-0.006863009,-0.078803137,0.036479551,1,-0.001489419,0.000363144,-0.000091795,1,-0.143483192,0.238028944,9.802710533,1,0,0
1779140820074.000000000,2419,164838.074000000,0.008925179,-0.024272265,-0.996549606,0.000091160,-0.000241970,-0.009962096,1779140820074.000000000,2419,164838.074000000,-0.055943716,0.000025080,0.029896459,1,0.000451273,0.000219656,0.001457816,1,-0.143475577,0.238069445,9.802709579,1,0,0
1779140820084.000000000,2419,164838.084000000,0.007917091,-0.022664135,-0.994525552,0.000079072,-0.000230514,-0.009948893,1779140820084.000000000,2419,164838.084000000,-0.065920375,0.015827050,0.049743515,1,-0.000365843,0.000756410,0.001909274,1,-0.143582687,0.238075778,9.802708626,1,0,0
1779140820104.000000000,2419,164838.104000000,0.005497874,-0.018211976,-0.994655490,0.000054595,-0.000185155,-0.009953361,1779140820104.000000000,2419,164838.104000000,-0.089497976,0.059400432,0.048473433,1,0.000278941,0.000390112,0.000343353,1,-0.143425614,0.238007769,9.802712440,1,0,0
1779140820114.000000000,2419,164838.114000000,0.007423126,-0.019481042,-0.996987402,0.000069950,-0.000188588,-0.009962080,1779140820114.000000000,2419,164838.114000000,-0.070783705,0.047022697,0.025600921,1,0.001529557,0.001289097,-0.000133134,1,-0.143620029,0.238114133,9.802706718,1,0,0
1779140820134.000000000,2419,164838.134000000,0.011482902,-0.024595359,-0.996173620,0.000110603,-0.000255388,-0.009960562,1779140820134.000000000,2419,164838.134000000,-0.031053178,-0.002980734,0.033577334,1,-0.000406323,0.000912457,-0.001388539,1,-0.143691510,0.238204047,9.802703857,1,0,0
1779140820144.000000000,2419,164838.144000000,0.013745344,-0.023128027,-0.995076656,0.000137736,-0.000236814,-0.009961175,1779140820144.000000000,2419,164838.144000000,-0.008848864,0.011381710,0.044335343,1,-0.000040182,-0.001373179,-0.000907911,1,-0.143602490,0.238188520,9.802704811,1,0,0
1779140820164.000000000,2419,164838.164000000,0.017502515,-0.023232507,-0.998569369,0.000175867,-0.000232793,-0.009984654,1779140820164.000000000,2419,164838.164000000,0.027898867,0.010606917,0.010076022,1,0.001268426,-0.000211005,-0.001379999,1,-0.143736660,0.238478944,9.802696228,1,0,0
1779140820174.000000000,2419,164838.174000000,0.017652588,-0.020928334,-0.995929122,0.000176211,-0.000212199,-0.009960717,1779140820174.000000000,2419,164838.174000000,0.029337596,0.033375986,0.035963144,1,0.001294786,0.001150051,-0.001383400,1,-0.143812090,0.238652617,9.802690506,1,0,0
1779140820194.000000000,2419,164838.194000000,0.018994372,-0.024980728,-0.995935738,0.000189921,-0.000239161,-0.009952406,1779140820194.000000000,2419,164838.194000000,0.042585731,-0.006228487,0.035896517,1,0.000735936,-0.001776321,-0.002202057,1,-0.143631682,0.238770738,9.802690506,1,0,0
1779140820204.000000000,2419,164838.204000000,0.019213721,-0.028248010,-0.995121062,0.000191171,-0.000282438,-0.009960401,1779140820204.000000000,2419,164838.204000000,0.044765651,-0.038207423,0.043884814,1,0.000562214,0.000282269,-0.002249202,1,-0.143667102,0.238827452,9.802688599,1,0,0
1779140820214.000000000,2419,164838.214000000,0.021204108,-0.030388508,-0.997306645,0.000211174,-0.000304601,-0.009959149,1779140820214.000000000,2419,164838.214000000,0.064461514,-0.059133582,0.022452310,1,0.000902983,-0.000395852,-0.001795276,1,-0.143355936,0.238908187,9.802691460,1,0,0
1779140820234.000000000,2419,164838.234000000,0.019722473,-0.026682116,-0.995292723,0.000194414,-0.000268523,-0.009948431,1779140820234.000000000,2419,164838.234000000,0.049990568,-0.022722166,0.042201124,1,0.000181720,0.000963364,-0.000029879,1,-0.143450424,0.238945693,9.802688599,1,0,0
1779140820244.000000000,2419,164838.244000000,0.016789025,-0.025578666,-0.995690823,0.000174610,-0.000257518,-0.009957962,1779140820244.000000000,2419,164838.244000000,0.021241430,-0.011827808,0.038296081,1,0.000302655,-0.000738705,0.000500472,1,-0.143379211,0.239022911,9.802688599,1,0,0
1779140820264.000000000,2419,164838.264000000,0.012381218,-0.024704032,-0.996594012,0.000132600,-0.000248377,-0.009966327,1779140820264.000000000,2419,164838.264000000,-0.022011809,-0.003455596,0.029443316,1,-0.002176774,-0.001073683,0.001011039,1,-0.143395826,0.238740757,9.802694321,1,0,0
1779140820274.000000000,2419,164838.274000000,0.009291281,-0.023425028,-0.994195759,0.000092396,-0.000238207,-0.009944398,1779140820274.000000000,2419,164838.274000000,-0.052200254,0.008978987,0.052966312,1,-0.000671265,-0.000059657,0.001004804,1,-0.143313989,0.238679558,9.802697182,1,0,0
1779140820294.000000000,2419,164838.294000000,0.007575862,-0.021485968,-0.994234443,0.000078887,-0.000214342,-0.009942105,1779140820294.000000000,2419,164838.294000000,-0.069104373,0.028036533,0.052584514,1,0.000935753,-0.001101984,0.000192783,1,-0.143363670,0.238771200,9.802694321,1,0,0
1779140820304.000000000,2419,164838.304000000,0.007757887,-0.022403073,-0.996975958,0.000076609,-0.000222665,-0.009973459,1779140820304.000000000,2419,164838.304000000,-0.067286082,0.019107539,0.025698578,1,-0.000444269,0.000173271,-0.000812099,1,-0.143371001,0.238792405,9.802694321,1,0,0
1779140820324.000000000,2419,164838.324000000,0.010312580,-0.024971364,-0.996214986,0.000106728,-0.000248632,-0.009966398,1779140820324.000000000,2419,164838.324000000,-0.042222776,-0.006136146,0.033163287,1,0.000009455,-0.001536687,-0.000273022,1,-0.143306896,0.238749459,9.802696228,1,0,0
1779140820334.000000000,2419,164838.334000000,0.013294737,-0.024774473,-0.995641291,0.000125575,-0.000247605,-0.009950983,1779140820334.000000000,2419,164838.334000000,-0.012989159,-0.004148141,0.038786784,1,0.001110612,0.001309542,0.000253805,1,-0.143406659,0.238841236,9.802692413,1,0,0
1779140820344.000000000,2419,164838.344000000,0.016436884,-0.025330959,-0.996396244,0.000160911,-0.000253321,-0.009966709,1779140820344.000000000,2419,164838.344000000,0.017735317,-0.009455082,0.031378623,1,0.001363644,-0.000364391,-0.000514923,1,-0.143444479,0.238999099,9.802687645,1,0,0
1779140820364.000000000,2419,164838.364000000,0.018587597,-0.023378247,-0.996167362,0.000182529,-0.000232582,-0.009955551,1779140820364.000000000,2419,164838.364000000,0.038781911,0.009704776,0.033622108,1,-0.000306792,0.001448370,-0.000177215,1,-0.143545493,0.238957420,9.802687645,1,0,0
1779140820374.000000000,2419,164838.374000000,0.018595904,-0.023338038,-0.995564461,0.000190425,-0.000233537,-0.009958943,1779140820374.000000000,2419,164838.374000000,0.038860839,0.010132300,0.039533887,1,0.000721202,-0.000693150,-0.000638374,1,-0.143481568,0.239022508,9.802686691,1,0,0
1779140820394.000000000,2419,164838.394000000,0.016699387,-0.025416857,-0.994807243,0.000169747,-0.000255611,-0.009953550,1779140820394.000000000,2419,164838.394000000,0.020199701,-0.010159145,0.046957247,1,-0.000382672,-0.000381135,-0.000384873,1,-0.143553749,0.239082992,9.802683830,1,0,0
1779140820404.000000000,2419,164838.404000000,0.015454589,-0.024951946,-0.995713830,0.000156362,-0.000251500,-0.009955095,1779140820404.000000000,2419,164838.404000000,0.008054781,-0.005607069,0.038067233,1,0.000201777,-0.000772116,0.000252913,1,-0.143478692,0.239094347,9.802684784,1,0,0
1779140820424.000000000,2419,164838.424000000,0.015911840,-0.023894124,-0.996548355,0.000158673,-0.000238373,-0.009960674,1779140820424.000000000,2419,164838.424000000,0.012476831,0.005099336,0.029874068,1,0.000426251,0.000406303,0.000458364,1,-0.143577889,0.239439487,9.802675247,1,0,0
1779140820434.000000000,2419,164838.434000000,0.014920088,-0.024605393,-0.995944023,0.000151052,-0.000241008,-0.009959741,1779140820434.000000000,2419,164838.434000000,0.002778917,-0.001804362,0.035799064,1,0.000215596,-0.000043435,0.000411981,1,-0.143535540,0.239499405,9.802674294,1,0,0
1779140820454.000000000,2419,164838.454000000,0.014938562,-0.023377396,-0.996175349,0.000153397,-0.000238327,-0.009963097,1779140820454.000000000,2419,164838.454000000,0.003085847,0.010168396,0.033534274,1,-0.000482692,-0.001213014,-0.000638669,1,-0.143374056,0.239406988,9.802679062,1,0,0
1779140820464.000000000,2419,164838.464000000,0.014060701,-0.022462225,-0.995131731,0.000140614,-0.000226462,-0.009950100,1779140820464.000000000,2419,164838.464000000,-0.005502814,0.019141266,0.043768886,1,0.000584303,0.000139357,-0.000892776,1,-0.143396229,0.239438280,9.802678108,1,0,0
1779140820484.000000000,2419,164838.484000000,0.012448467,-0.022943383,-0.996356726,0.000125825,-0.000225097,-0.009959997,1779140820484.000000000,2419,164838.484000000,-0.021273011,0.014491718,0.031755038,1,0.000446037,-0.001237096,-0.000694489,1,-0.143312708,0.239503071,9.802677155,1,0,0
1779140820494.000000000,2419,164838.494000000,0.012109159,-0.023344481,-0.994572163,0.000120384,-0.000227934,-0.009952850,1779140820494.000000000,2419,164838.494000000,-0.024562219,0.010544840,0.049256489,1,-0.000337303,-0.000058602,-0.001619800,1,-0.143311918,0.239464760,9.802678108,1,0,0
1779140820504.000000000,2419,164838.504000000,0.014172989,-0.027142121,-0.996242940,0.000139428,-0.000261367,-0.009954473,1779140820504.000000000,2419,164838.504000000,-0.004336917,-0.026730474,0.032872275,1,-0.000343407,-0.000414769,-0.000899115,1,-0.143314213,0.239431694,9.802679062,1,0,0
1779140820524.000000000,2419,164838.524000000,0.015683277,-0.030342290,-0.997085869,0.000156908,-0.000309228,-0.009968347,1779140820524.000000000,2419,164838.524000000,0.010492898,-0.058186885,0.024607830,1,-0.000231185,0.000279734,0.000731135,1,-0.143315688,0.239362478,9.802680969,1,0,0
1779140820534.000000000,2419,164838.534000000,0.016380109,-0.027278502,-0.995624483,0.000163565,-0.000277568,-0.009951676,1779140820534.000000000,2419,164838.534000000,0.017366169,-0.028198645,0.038941327,1,0.000145550,-0.000467508,0.002165450,1,-0.143251613,0.239317626,9.802682877,1,0,0
1779140820554.000000000,2419,164838.554000000,0.016162047,-0.021104902,-0.996954560,0.000158763,-0.000215150,-0.009957686,1779140820554.000000000,2419,164838.554000000,0.015258412,0.032270938,0.025899496,1,-0.000372519,-0.000160464,0.001418747,1,-0.143231064,0.239228368,9.802685738,1,0,0
