Time,GPS_ts,fGPS_ts,scaledAccelX,scaledAccelY,scaledAccelZ,deltaVelX,deltaVelY,deltaVelZ,estLinearAccelX,estLinearAccelY,estLinearAccelZ,estLinearAccel:valid,estAngularRateX,estAngularRateY,estAngularRateZ,estAngularRate:valid,estGravityX,estGravityY,estGravityZ,estGravity:valid,flag
1777933601136,  2733.862,  2733.857, 0.020157,-0.004613,-0.996301, 0.000202,-0.000046,-0.009960,-0.004944, 0.000181, 0.042233,1, 0.000486,-0.000253, 0.000607,1,-0.202471, 0.045189, 9.804456,1,0
1777933601147,  2734.107,  2734.107, 0.020345,-0.004684,-0.995944, 0.000200,-0.000044,-0.009959,-0.003311,-0.000642, 0.037573,1, 0.000515,-0.000339, 0.000463,1,-0.202822, 0.045308, 9.804448,1,0
1777933601158,  2748.057,  2748.057, 0.019245,-0.001753,-0.996041, 0.000194,-0.000021,-0.009959,-0.013125, 0.028811, 0.036638,1,-0.000269, 0.000862, 0.000949,1,-0.201886, 0.045991, 9.804463,1,0
1777933601168,  2748.057,  2748.057, 0.019245,-0.001753,-0.996041, 0.000194,-0.000021,-0.009959,-0.013125, 0.028811, 0.036638,1,-0.000269, 0.000862, 0.000949,1,-0.201886, 0.045991, 9.804463,1,0
1777933601180,  2748.082,  2748.077, 0.020687,-0.002205,-0.995159, 0.000211,-0.000021,-0.009954, 0.000141, 0.027206, 0.039132,1,-0.000018, 0.000537, 0.000312,1,-0.201821, 0.045970, 9.804465,1,0
1777933601190,  2748.082,  2748.077, 0.020687,-0.002205,-0.995159, 0.000211,-0.000021,-0.009954, 0.000141, 0.027206, 0.039132,1,-0.000018, 0.000537, 0.000312,1,-0.201821, 0.045970, 9.804465,1,0
1777933601207,  2748.107,  2748.107, 0.020399,-0.004464,-0.995431, 0.000207,-0.000043,-0.009951,-0.001946, 0.002199, 0.042616,1, 0.000195, 0.000261,-0.001100,1,-0.202004, 0.045980, 9.804461,1,0
1777933601217,  2748.107,  2748.107, 0.020399,-0.004464,-0.995431, 0.000207,-0.000043,-0.009951,-0.001946, 0.002199, 0.042616,1, 0.000195, 0.000261,-0.001100,1,-0.202004, 0.045980, 9.804461,1,0
1777933601229,  2748.132,  2748.127, 0.020525,-0.006406,-0.996326, 0.000205,-0.000062,-0.009962,-0.001931,-0.010217, 0.032247,1, 0.000364,-0.000862,-0.000740,1,-0.202019, 0.045843, 9.804461,1,0
1777933601239,  2748.132,  2748.127, 0.020525,-0.006406,-0.996326, 0.000205,-0.000062,-0.009962,-0.001931,-0.010217, 0.032247,1, 0.000364,-0.000862,-0.000740,1,-0.202019, 0.045843, 9.804461,1,0
1777933601257,  2748.157,  2748.157, 0.021339,-0.005704,-0.996295, 0.000210,-0.000056,-0.009961, 0.007135,-0.009966, 0.034142,1,-0.000582, 0.000398, 0.000029,1,-0.202138, 0.045954, 9.804459,1,0
1777933601267,  2748.157,  2748.157, 0.021339,-0.005704,-0.996295, 0.000210,-0.000056,-0.009961, 0.007135,-0.009966, 0.034142,1,-0.000582, 0.000398, 0.000029,1,-0.202138, 0.045954, 9.804459,1,0
1777933601279,  2748.182,  2748.177, 0.021480,-0.004184,-0.995815, 0.000214,-0.000044,-0.009957, 0.008458,-0.000637, 0.044030,1, 0.000696,-0.000519,-0.000674,1,-0.202103, 0.045972, 9.804460,1,0
1777933601289,  2748.182,  2748.177, 0.021480,-0.004184,-0.995815, 0.000214,-0.000044,-0.009957, 0.008458,-0.000637, 0.044030,1, 0.000696,-0.000519,-0.000674,1,-0.202103, 0.045972, 9.804460,1,0
1777933601302,  2748.207,  2748.202, 0.020629,-0.004125,-0.995437, 0.000206,-0.000042,-0.009956, 0.000295, 0.005464, 0.042562,1,-0.000292,-0.000365,-0.000600,1,-0.201991, 0.045911, 9.804462,1,0
1777933601312,  2748.207,  2748.202, 0.020629,-0.004125,-0.995437, 0.000206,-0.000042,-0.009956, 0.000295, 0.005464, 0.042562,1,-0.000292,-0.000365,-0.000600,1,-0.201991, 0.045911, 9.804462,1,0
1777933601329,  2748.232,  2748.227, 0.020051,-0.005433,-0.995880, 0.000201,-0.000053,-0.009960,-0.006442,-0.005226, 0.040963,1, 0.000092, 0.000491,-0.000004,1,-0.201984, 0.045955, 9.804462,1,0
1777933601339,  2748.232,  2748.227, 0.020051,-0.005433,-0.995880, 0.000201,-0.000053,-0.009960,-0.006442,-0.005226, 0.040963,1, 0.000092, 0.000491,-0.000004,1,-0.201984, 0.045955, 9.804462,1,0
1777933601352,  2748.252,  2748.252, 0.020082,-0.004963,-0.995435, 0.000203,-0.000052,-0.009956,-0.005065,-0.002733, 0.042575,1, 0.000124,-0.000376,-0.000308,1,-0.201993, 0.045942, 9.804461,1,0
1777933601362,  2748.252,  2748.252, 0.020082,-0.004963,-0.995435, 0.000203,-0.000052,-0.009956,-0.005065,-0.002733, 0.042575,1, 0.000124,-0.000376,-0.000308,1,-0.201993, 0.045942, 9.804461,1,0
1777933601378,  2748.277,  2748.277, 0.020517,-0.004522,-0.995257, 0.000207,-0.000042,-0.009955,-0.000745, 0.001610, 0.044325,1,-0.000637, 0.000359,-0.000283,1,-0.201960, 0.045939, 9.804462,1,0
1777933601388,  2748.277,  2748.277, 0.020517,-0.004522,-0.995257, 0.000207,-0.000042,-0.009955,-0.000745, 0.001610, 0.044325,1,-0.000637, 0.000359,-0.000283,1,-0.201960, 0.045939, 9.804462,1,0
1777933601400,  2748.302,  2748.297, 0.020811,-0.004107,-0.995297, 0.000205,-0.000040,-0.009953, 0.005128, 0.007819, 0.037167,1,-0.000041,-0.001135, 0.000142,1,-0.201772, 0.045880, 9.804466,1,0
1777933601410,  2748.302,  2748.297, 0.020811,-0.004107,-0.995297, 0.000205,-0.000040,-0.009953, 0.005128, 0.007819, 0.037167,1,-0.000041,-0.001135, 0.000142,1,-0.201772, 0.045880, 9.804466,1,0
1777933601428,  2748.327,  2748.327, 0.020955,-0.004486,-0.996267, 0.000209,-0.000046,-0.009961, 0.003801, 0.001868, 0.034421,1, 0.000146,-0.000240,-0.000227,1,-0.201717, 0.045916, 9.804467,1,0
1777933601438,  2748.327,  2748.327, 0.020955,-0.004486,-0.996267, 0.000209,-0.000046,-0.009961, 0.003801, 0.001868, 0.034421,1, 0.000146,-0.000240,-0.000227,1,-0.201717, 0.045916, 9.804467,1,0
1777933601450,  2748.352,  2748.347, 0.020783,-0.004749,-0.995491, 0.000208,-0.000048,-0.009954, 0.002846,-0.003051, 0.042002,1, 0.000297, 0.000293,-0.000162,1,-0.201710, 0.045996, 9.804467,1,0
1777933601460,  2748.352,  2748.347, 0.020783,-0.004749,-0.995491, 0.000208,-0.000048,-0.009954, 0.002846,-0.003051, 0.042002,1, 0.000297, 0.000293,-0.000162,1,-0.201710, 0.045996, 9.804467,1,0
1777933601477,  2748.377,  2748.377, 0.019983,-0.005332,-0.995850, 0.000202,-0.000057,-0.009961,-0.005699,-0.006350, 0.038516,1,-0.000772,-0.000369,-0.000074,1,-0.201649, 0.045914, 9.804469,1,0
1777933601487,  2748.377,  2748.377, 0.019983,-0.005332,-0.995850, 0.000202,-0.000057,-0.009961,-0.005699,-0.006350, 0.038516,1,-0.000772,-0.000369,-0.000074,1,-0.201649, 0.045914, 9.804469,1,0
1777933601499,  2748.397,  2748.397, 0.020337,-0.004012,-0.995371, 0.000203,-0.000041,-0.009955,-0.002202, 0.006559, 0.043217,1, 0.000190,-0.000080, 0.000299,1,-0.201641, 0.045911, 9.804469,1,0
1777933601509,  2748.397,  2748.397, 0.020337,-0.004012,-0.995371, 0.000203,-0.000041,-0.009955,-0.002202, 0.006559, 0.043217,1, 0.000190,-0.000080, 0.000299,1,-0.201641, 0.045911, 9.804469,1,0
1777933601527,  2748.427,  2748.427, 0.021032,-0.004163,-0.995513, 0.000210,-0.000042,-0.009956, 0.004664, 0.005065, 0.041819,1,-0.000190,-0.000153, 0.000075,1,-0.201587, 0.045884, 9.804470,1,0
1777933601537,  2748.427,  2748.427, 0.021032,-0.004163,-0.995513, 0.000210,-0.000042,-0.009956, 0.004664, 0.005065, 0.041819,1,-0.000190,-0.000153, 0.000075,1,-0.201587, 0.045884, 9.804470,1,0
1777933601549,  2748.452,  2748.447, 0.021935,-0.003502,-0.998302, 0.000208,-0.000013,-0.009987, 0.011184,-0.023315, 0.051111,1, 0.000920,-0.000499, 0.000586,1,-0.201472, 0.045916, 9.804473,1,0
1777933601559,  2748.452,  2748.447, 0.021935,-0.003502,-0.998302, 0.000208,-0.000013,-0.009987, 0.011184,-0.023315, 0.051111,1, 0.000920,-0.000499, 0.000586,1,-0.201472, 0.045916, 9.804473,1,0
1777933601572,  2748.477,  2748.472, 0.021540,-0.005861,-0.997167, 0.000201,-0.000057,-0.009962, 0.009672,-0.011605, 0.025604,1,-0.002132, 0.000111, 0.000391,1,-0.201571, 0.045809, 9.804471,1,0
1777933601582,  2748.477,  2748.472, 0.021540,-0.005861,-0.997167, 0.000201,-0.000057,-0.009962, 0.009672,-0.011605, 0.025604,1,-0.002132, 0.000111, 0.000391,1,-0.201571, 0.045809, 9.804471,1,0
1777933601599,  2748.502,  2748.497, 0.021394,-0.005272,-0.996399, 0.000212,-0.000046,-0.009967, 0.006475,-0.006158, 0.044462,1,-0.000249, 0.001516, 0.000284,1,-0.201615, 0.045780, 9.804470,1,0
1777933601609,  2748.502,  2748.497, 0.021394,-0.005272,-0.996399, 0.000212,-0.000046,-0.009967, 0.006475,-0.006158, 0.044462,1,-0.000249, 0.001516, 0.000284,1,-0.201615, 0.045780, 9.804470,1,0
1777933601622,  2748.522,  2748.522, 0.021996,-0.004775,-0.994113, 0.000214,-0.000046,-0.009945, 0.014183,-0.001090, 0.055552,1,-0.000489,-0.000202, 0.000655,1,-0.201560, 0.045752, 9.804472,1,0
1777933601632,  2748.522,  2748.522, 0.021996,-0.004775,-0.994113, 0.000214,-0.000046,-0.009945, 0.014183,-0.001090, 0.055552,1,-0.000489,-0.000202, 0.000655,1,-0.201560, 0.045752, 9.804472,1,0
1777933601648,  2748.547,  2748.547, 0.020707,-0.003440,-0.994302, 0.000207,-0.000033,-0.009943, 0.001563, 0.011957, 0.053697,1,-0.000506,-0.001167, 0.000440,1,-0.201463, 0.045672, 9.804474,1,0
1777933601658,  2748.547,  2748.547, 0.020707,-0.003440,-0.994302, 0.000207,-0.000033,-0.009943, 0.001563, 0.011957, 0.053697,1,-0.000506,-0.001167, 0.000440,1,-0.201463, 0.045672, 9.804474,1,0
1777933601670,  2748.572,  2748.567, 0.020207,-0.003403,-0.994488, 0.000202,-0.000042,-0.009949,-0.005700, 0.000629, 0.040311,1,-0.000126,-0.001012,-0.000353,1,-0.201415, 0.045694, 9.804475,1,0
1777933601680,  2748.572,  2748.567, 0.020207,-0.003403,-0.994488, 0.000202,-0.000042,-0.009949,-0.005700, 0.000629, 0.040311,1,-0.000126,-0.001012,-0.000353,1,-0.201415, 0.045694, 9.804475,1,0
1777933601698,  2748.597,  2748.597, 0.020305,-0.003922,-0.995963, 0.000200,-0.000039,-0.009961,-0.002042, 0.007247, 0.037419,1, 0.000957,-0.001403,-0.000116,1,-0.201124, 0.045740, 9.804481,1,0
1777933601708,  2748.597,  2748.597, 0.020305,-0.003922,-0.995963, 0.000200,-0.000039,-0.009961,-0.002042, 0.007247, 0.037419,1, 0.000957,-0.001403,-0.000116,1,-0.201124, 0.045740, 9.804481,1,0
1777933601720,  2748.622,  2748.617, 0.020021,-0.004443,-0.995135, 0.000200,-0.000050,-0.009957, 0.004881, 0.010412, 0.036237,1, 0.000023, 0.000167,-0.000056,1,-0.201027, 0.045772, 9.804482,1,0
1777933601730,  2748.622,  2748.617, 0.020021,-0.004443,-0.995135, 0.000200,-0.000050,-0.009957, 0.004881, 0.010412, 0.036237,1, 0.000023, 0.000167,-0.000056,1,-0.201027, 0.045772, 9.804482,1,0
1777933601747,  2748.647,  2748.647, 0.020459,-0.003311,-0.996022, 0.000208,-0.000035,-0.009964,-0.000298, 0.013206, 0.036846,1,-0.000649,-0.000067, 0.000188,1,-0.200929, 0.045659, 9.804485,1,0
1777933601757,  2748.647,  2748.647, 0.020459,-0.003311,-0.996022, 0.000208,-0.000035,-0.009964,-0.000298, 0.013206, 0.036846,1,-0.000649,-0.000067, 0.000188,1,-0.200929, 0.045659, 9.804485,1,0
1777933601769,  2748.672,  2748.667, 0.021768,-0.004888,-0.996709, 0.000213,-0.000034,-0.009972,-0.000069,-0.028704, 0.045373,1,-0.001283, 0.000384, 0.000033,1,-0.200989, 0.045591, 9.804484,1,0
1777933601780,  2748.672,  2748.667, 0.021768,-0.004888,-0.996709, 0.000213,-0.000034,-0.009972,-0.000069,-0.028704, 0.045373,1,-0.001283, 0.000384, 0.000033,1,-0.200989, 0.045591, 9.804484,1,0
1777933601797,  2748.697,  2748.697, 0.020750,-0.006058,-0.995965, 0.000201,-0.000059,-0.009956, 0.002447,-0.013731, 0.037406,1,-0.000385,-0.000335, 0.000087,1,-0.201029, 0.045665, 9.804483,1,0
1777933601807,  2748.697,  2748.697, 0.020750,-0.006058,-0.995965, 0.000201,-0.000059,-0.009956, 0.002447,-0.013731, 0.037406,1,-0.000385,-0.000335, 0.000087,1,-0.201029, 0.045665, 9.804483,1,0
1777933601819,  2748.722,  2748.717, 0.021188,-0.004471,-0.995075, 0.000210,-0.000048,-0.009956, 0.008345,-0.000531, 0.050483,1,-0.001376,-0.000341, 0.000038,1,-0.200911, 0.045709, 9.804485,1,0
1777933601829,  2748.722,  2748.717, 0.021188,-0.004471,-0.995075, 0.000210,-0.000048,-0.009956, 0.008345,-0.000531, 0.050483,1,-0.001376,-0.000341, 0.000038,1,-0.200911, 0.045709, 9.804485,1,0
1777933601842,  2748.747,  2748.742, 0.020008,-0.003349,-0.993743, 0.000204,-0.000034,-0.009942,-0.004827, 0.012686, 0.059194,1, 0.000110, 0.000213, 0.000367,1,-0.201041, 0.045528, 9.804483,1,0
1777933601853,  2748.747,  2748.742, 0.020008,-0.003349,-0.993743, 0.000204,-0.000034,-0.009942,-0.004827, 0.012686, 0.059194,1, 0.000110, 0.000213, 0.000367,1,-0.201041, 0.045528, 9.804483,1,0
1777933601869,  2748.772,  2748.767, 0.019843,-0.004737,-0.995951, 0.000197,-0.000048,-0.009959,-0.004623,-0.000654, 0.040286,1,-0.000546,-0.000192,-0.000092,1,-0.201066, 0.045467, 9.804483,1,0
1777933601879,  2748.772,  2748.767, 0.019843,-0.004737,-0.995951, 0.000197,-0.000048,-0.009959,-0.004623,-0.000654, 0.040286,1,-0.000546,-0.000192,-0.000092,1,-0.201066, 0.045467, 9.804483,1,0
1777933601892,  2748.792,  2748.792, 0.020165,-0.004525,-0.995564, 0.000201,-0.000045,-0.009954,-0.003244, 0.000992, 0.041334,1,-0.001079,-0.000716, 0.000168,1,-0.200975, 0.045328, 9.804485,1,0
1777933601902,  2748.792,  2748.792, 0.020165,-0.004525,-0.995564, 0.000201,-0.000045,-0.009954,-0.003244, 0.000992, 0.041334,1,-0.001079,-0.000716, 0.000168,1,-0.200975, 0.045328, 9.804485,1,0
1777933601918,  2748.817,  2748.817, 0.020950,-0.004182,-0.995736, 0.000210,-0.000041,-0.009958, 0.004520, 0.004280, 0.039656,1, 0.000133, 0.000550,-0.000230,1,-0.200946, 0.045298, 9.804486,1,0
1777933601928,  2748.817,  2748.817, 0.020950,-0.004182,-0.995736, 0.000210,-0.000041,-0.009958, 0.004520, 0.004280, 0.039656,1, 0.000133, 0.000550,-0.000230,1,-0.200946, 0.045298, 9.804486,1,0
1777933601940,  2748.842,  2748.837, 0.021151,-0.004860,-0.996181, 0.000208,-0.000046,-0.009966, 0.001192,-0.000059, 0.035929,1,-0.000039,-0.000242, 0.000116,1,-0.200857, 0.045302, 9.804488,1,0
1777933601950,  2748.842,  2748.837, 0.021151,-0.004860,-0.996181, 0.000208,-0.000046,-0.009966, 0.001192,-0.000059, 0.035929,1,-0.000039,-0.000242, 0.000116,1,-0.200857, 0.045302, 9.804488,1,0
1777933601968,  2748.867,  2748.867, 0.020632,-0.004882,-0.995933, 0.000208,-0.000048,-0.009957, 0.001471,-0.002563, 0.037717,1,-0.000520,-0.000261, 0.000189,1,-0.200850, 0.045299, 9.804488,1,0
1777933601978,  2748.867,  2748.867, 0.020632,-0.004882,-0.995933, 0.000208,-0.000048,-0.009957, 0.001471,-0.002563, 0.037717,1,-0.000520,-0.000261, 0.000189,1,-0.200850, 0.045299, 9.804488,1,0
1777933601990,  2748.892,  2748.887, 0.020643,-0.003794,-0.995193, 0.000206,-0.000039,-0.009949, 0.005223, 0.002601, 0.038868,1, 0.000136,-0.000205, 0.000269,1,-0.200773, 0.045221, 9.804490,1,0
1777933602000,  2748.892,  2748.887, 0.020643,-0.003794,-0.995193, 0.000206,-0.000039,-0.009949, 0.005223, 0.002601, 0.038868,1, 0.000136,-0.000205, 0.000269,1,-0.200773, 0.045221, 9.804490,1,0
1777933602017,  2748.917,  2748.917, 0.021082,-0.004082,-0.995762, 0.000210,-0.000040,-0.009956, 0.005993, 0.005161, 0.039401,1, 0.000147,-0.000096, 0.000045,1,-0.200749, 0.045200, 9.804491,1,0
1777933602028,  2748.917,  2748.917, 0.021082,-0.004082,-0.995762, 0.000210,-0.000040,-0.009956, 0.005993, 0.005161, 0.039401,1, 0.000147,-0.000096, 0.000045,1,-0.200749, 0.045200, 9.804491,1,0
1777933602039,  2748.942,  2748.937, 0.020103,-0.004565,-0.995992, 0.000201,-0.000044,-0.009958,-0.000887, 0.001204, 0.034212,1,-0.000347,-0.000464, 0.000119,1,-0.200734, 0.045016, 9.804492,1,0
1777933602050,  2748.942,  2748.937, 0.020103,-0.004565,-0.995992, 0.000201,-0.000044,-0.009958,-0.000887, 0.001204, 0.034212,1,-0.000347,-0.000464, 0.000119,1,-0.200734, 0.045016, 9.804492,1,0
1777933602067,  2748.967,  2748.967, 0.020634,-0.004937,-0.996305, 0.000204,-0.000051,-0.009961, 0.001706,-0.003468, 0.034080,1,-0.000102,-0.000801, 0.000050,1,-0.200618, 0.044944, 9.804495,1,0
1777933602077,  2748.967,  2748.967, 0.020634,-0.004937,-0.996305, 0.000204,-0.000051,-0.009961, 0.001706,-0.003468, 0.034080,1,-0.000102,-0.000801, 0.000050,1,-0.200618, 0.044944, 9.804495,1,0
1777933602089,  2748.992,  2748.987, 0.020644,-0.005805,-0.996053, 0.000205,-0.000057,-0.009962, 0.001193,-0.002678, 0.042490,1,-0.000691, 0.000047,-0.000341,1,-0.200528, 0.044776, 9.804498,1,0
1777933602099,  2748.992,  2748.987, 0.020644,-0.005805,-0.996053, 0.000205,-0.000057,-0.009962, 0.001193,-0.002678, 0.042490,1,-0.000691, 0.000047,-0.000341,1,-0.200528, 0.044776, 9.804498,1,0
1777933602112,  2749.017,  2749.012, 0.020881,-0.004243,-0.995561, 0.000211,-0.000040,-0.009956, 0.004231, 0.002998, 0.041382,1,-0.001186,-0.000207, 0.000421,1,-0.200532, 0.044572, 9.804498,1,0
1777933602123,  2749.017,  2749.012, 0.020881,-0.004243,-0.995561, 0.000211,-0.000040,-0.009956, 0.004231, 0.002998, 0.041382,1,-0.001186,-0.000207, 0.000421,1,-0.200532, 0.044572, 9.804498,1,0
1777933602139,  2749.042,  2749.037, 0.020799,-0.005089,-0.995752, 0.000208,-0.000049,-0.009958, 0.001324, 0.000179, 0.043651,1,-0.000153,-0.000266,-0.000276,1,-0.200460, 0.044567, 9.804500,1,0
1777933602149,  2749.042,  2749.037, 0.020799,-0.005089,-0.995752, 0.000208,-0.000049,-0.009958, 0.001324, 0.000179, 0.043651,1,-0.000153,-0.000266,-0.000276,1,-0.200460, 0.044567, 9.804500,1,0
1777933602162,  2749.062,  2749.062, 0.020226,-0.005720,-0.995943, 0.000201,-0.000056,-0.009960,-0.001982,-0.011728, 0.037633,1,-0.000074,-0.000738,-0.000056,1,-0.200312, 0.044364, 9.804503,1,0
1777933602172,  2749.062,  2749.062, 0.020226,-0.005720,-0.995943, 0.000201,-0.000056,-0.009960,-0.001982,-0.011728, 0.037633,1,-0.000074,-0.000738,-0.000056,1,-0.200312, 0.044364, 9.804503,1,0
1777933602188,  2749.087,  2749.087, 0.020557,-0.003256,-0.996304, 0.000204,-0.000045,-0.009963, 0.001210, 0.012407, 0.034096,1, 0.000247, 0.000136, 0.000549,1,-0.200387, 0.044342, 9.804502,1,0
1777933602198,  2749.087,  2749.087, 0.020557,-0.003256,-0.996304, 0.000204,-0.000045,-0.009963, 0.001210, 0.012407, 0.034096,1, 0.000247, 0.000136, 0.000549,1,-0.200387, 0.044342, 9.804502,1,0
1777933602210,  2749.112,  2749.107, 0.020308,-0.003021,-0.995699, 0.000205,-0.000037,-0.009953, 0.007571, 0.002097, 0.033726,1,-0.000748, 0.000296,-0.000307,1,-0.200411, 0.044353, 9.804502,1,0
1777933602220,  2749.112,  2749.107, 0.020308,-0.003021,-0.995699, 0.000205,-0.000037,-0.009953, 0.007571, 0.002097, 0.033726,1,-0.000748, 0.000296,-0.000307,1,-0.200411, 0.044353, 9.804502,1,0
1777933602238,  2749.137,  2749.137, 0.020249,-0.004768,-0.995001, 0.000205,-0.000044,-0.009944,-0.001862,-0.002406, 0.046869,1, 0.000154,-0.000280,-0.000111,1,-0.200429, 0.044358, 9.804502,1,0
1777933602248,  2749.137,  2749.137, 0.020249,-0.004768,-0.995001, 0.000205,-0.000044,-0.009944,-0.001862,-0.002406, 0.046869,1, 0.000154,-0.000280,-0.000111,1,-0.200429, 0.044358, 9.804502,1,0
1777933602260,  2749.162,  2749.157, 0.020849,-0.004521,-0.996864, 0.000208,-0.000046,-0.009965,-0.008576,-0.000520, 0.042187,1,-0.000692, 0.000064, 0.000135,1,-0.200370, 0.044264, 9.804502,1,0
1777933602270,  2749.162,  2749.157, 0.020849,-0.004521,-0.996864, 0.000208,-0.000046,-0.009965,-0.008576,-0.000520, 0.042187,1,-0.000692, 0.000064, 0.000135,1,-0.200370, 0.044264, 9.804502,1,0
1777933602287,  2749.187,  2749.187, 0.020338,-0.005170,-0.996382, 0.000207,-0.000052,-0.009963,-0.000964,-0.006376, 0.033326,1,-0.000221, 0.000436, 0.000223,1,-0.200426, 0.044320, 9.804502,1,0
1777933602298,  2749.187,  2749.187, 0.020338,-0.005170,-0.996382, 0.000207,-0.000052,-0.009963,-0.000964,-0.006376, 0.033326,1,-0.000221, 0.000436, 0.000223,1,-0.200426, 0.044320, 9.804502,1,0
1777933602309,  2749.212,  2749.207, 0.020375,-0.003907,-0.995856, 0.000204,-0.000041,-0.009956, 0.002736,-0.006397, 0.033471,1, 0.000087, 0.000025, 0.000290,1,-0.200458, 0.044256, 9.804502,1,0
1777933602320,  2749.212,  2749.207, 0.020375,-0.003907,-0.995856, 0.000204,-0.000041,-0.009956, 0.002736,-0.006397, 0.033471,1, 0.000087, 0.000025, 0.000290,1,-0.200458, 0.044256, 9.804502,1,0
1777933602337,  2749.237,  2749.237, 0.020730,-0.004778,-0.995998, 0.000207,-0.000049,-0.009959, 0.002791,-0.002714, 0.037098,1,-0.000073, 0.000198, 0.000720,1,-0.200508, 0.044137, 9.804501,1,0
1777933602347,  2749.237,  2749.237, 0.020730,-0.004778,-0.995998, 0.000207,-0.000049,-0.009959, 0.002791,-0.002714, 0.037098,1,-0.000073, 0.000198, 0.000720,1,-0.200508, 0.044137, 9.804501,1,0
1777933602359,  2749.262,  2749.257, 0.021292,-0.003707,-0.995712, 0.000217,-0.000036,-0.009958, 0.008522, 0.007878, 0.043176,1,-0.000365, 0.000497, 0.000335,1,-0.200561, 0.044141, 9.804500,1,0
1777933602369,  2749.262,  2749.257, 0.021292,-0.003707,-0.995712, 0.000217,-0.000036,-0.009958, 0.008522, 0.007878, 0.043176,1,-0.000365, 0.000497, 0.000335,1,-0.200561, 0.044141, 9.804500,1,0
1777933602382,  2749.287,  2749.282, 0.020488,-0.005379,-0.995702, 0.000207,-0.000052,-0.009958, 0.000313,-0.008645, 0.039998,1,-0.000722,-0.000262, 0.000560,1,-0.200597, 0.044084, 9.804499,1,0
1777933602393,  2749.287,  2749.282, 0.020488,-0.005379,-0.995702, 0.000207,-0.000052,-0.009958, 0.000313,-0.008645, 0.039998,1,-0.000722,-0.000262, 0.000560,1,-0.200597, 0.044084, 9.804499,1,0
1777933602409,  2749.312,  2749.307, 0.019665,-0.004935,-0.996319, 0.000195,-0.000050,-0.009960,-0.011654,-0.010857, 0.038662,1, 0.000490, 0.000033, 0.000229,1,-0.200466, 0.044151, 9.804502,1,0
1777933602419,  2749.312,  2749.307, 0.019665,-0.004935,-0.996319, 0.000195,-0.000050,-0.009960,-0.011654,-0.010857, 0.038662,1, 0.000490, 0.000033, 0.000229,1,-0.200466, 0.044151, 9.804502,1,0
1777933602432,  2749.332,  2749.332, 0.021105,-0.004096,-0.995505, 0.000209,-0.000044,-0.009958, 0.006582, 0.003938, 0.041930,1, 0.000339, 0.000615, 0.000643,1,-0.200410, 0.044123, 9.804502,1,0
1777933602442,  2749.332,  2749.332, 0.021105,-0.004096,-0.995505, 0.000209,-0.000044,-0.009958, 0.006582, 0.003938, 0.041930,1, 0.000339, 0.000615, 0.000643,1,-0.200410, 0.044123, 9.804502,1,0
1777933602458,  2749.357,  2749.357, 0.021697,-0.003384,-0.995279, 0.000213,-0.000032,-0.009953, 0.012404, 0.010962, 0.044147,1,-0.000608,-0.000245, 0.000698,1,-0.200360, 0.044130, 9.804503,1,0
1777933602468,  2749.357,  2749.357, 0.021697,-0.003384,-0.995279, 0.000213,-0.000032,-0.009953, 0.012404, 0.010962, 0.044147,1,-0.000608,-0.000245, 0.000698,1,-0.200360, 0.044130, 9.804503,1,0
1777933602480,  2749.382,  2749.377, 0.020615,-0.004831,-0.995128, 0.000205,-0.000044,-0.009950, 0.005274, 0.008414, 0.043341,1,-0.000064,-0.000453,-0.000336,1,-0.200317, 0.044118, 9.804504,1,0
1777933602490,  2749.382,  2749.377, 0.020615,-0.004831,-0.995128, 0.000205,-0.000044,-0.009950, 0.005274, 0.008414, 0.043341,1,-0.000064,-0.000453,-0.000336,1,-0.200317, 0.044118, 9.804504,1,0
1777933602508,  2749.407,  2749.407, 0.019311,-0.005955,-0.995881, 0.000194,-0.000060,-0.009959,-0.010902,-0.014306, 0.038252,1,-0.000840,-0.000335, 0.000301,1,-0.200266, 0.044068, 9.804506,1,0
1777933602518,  2749.407,  2749.407, 0.019311,-0.005955,-0.995881, 0.000194,-0.000060,-0.009959,-0.010902,-0.014306, 0.038252,1,-0.000840,-0.000335, 0.000301,1,-0.200266, 0.044068, 9.804506,1,0
1777933602530,  2749.432,  2749.427, 0.020742,-0.004660,-0.995659, 0.000207,-0.000046,-0.009957,-0.002759,-0.005778, 0.038157,1,-0.000263, 0.000698, 0.000228,1,-0.200358, 0.044051, 9.804504,1,0
1777933602540,  2749.432,  2749.427, 0.020742,-0.004660,-0.995659, 0.000207,-0.000046,-0.009957,-0.002759,-0.005778, 0.038157,1,-0.000263, 0.000698, 0.000228,1,-0.200358, 0.044051, 9.804504,1,0
1777933602558,  2749.457,  2749.457, 0.021114,-0.004759,-0.996240, 0.000213,-0.000046,-0.009961, 0.006696,-0.002589, 0.034726,1,-0.000126, 0.000425,-0.000233,1,-0.200373, 0.044081, 9.804503,1,0
1777933602568,  2749.457,  2749.457, 0.021114,-0.004759,-0.996240, 0.000213,-0.000046,-0.009961, 0.006696,-0.002589, 0.034726,1,-0.000126, 0.000425,-0.000233,1,-0.200373, 0.044081, 9.804503,1,0
1777933602579,  2749.482,  2749.477, 0.021213,-0.004310,-0.996307, 0.000213,-0.000042,-0.009962, 0.011379, 0.001793, 0.038901,1,-0.000208, 0.000680, 0.000023,1,-0.200403, 0.043992, 9.804503,1,0
1777933602590,  2749.482,  2749.477, 0.021213,-0.004310,-0.996307, 0.000213,-0.000042,-0.009962, 0.011379, 0.001793, 0.038901,1,-0.000208, 0.000680, 0.000023,1,-0.200403, 0.043992, 9.804503,1,0
1777933602607,  2749.507,  2749.507, 0.020194,-0.004399,-0.995703, 0.000202,-0.000043,-0.009959,-0.002435, 0.000798, 0.039995,1, 0.000450, 0.001033,-0.000685,1,-0.200506, 0.043950, 9.804502,1,0
1777933602617,  2749.507,  2749.507, 0.020194,-0.004399,-0.995703, 0.000202,-0.000043,-0.009959,-0.002435, 0.000798, 0.039995,1, 0.000450, 0.001033,-0.000685,1,-0.200506, 0.043950, 9.804502,1,0
1777933602629,  2749.532,  2749.527, 0.019831,-0.004931,-0.995937, 0.000200,-0.000046,-0.009957,-0.005114, 0.002436, 0.034956,1,-0.000070, 0.000655,-0.000291,1,-0.200686, 0.043977, 9.804498,1,0
1777933602639,  2749.532,  2749.527, 0.019831,-0.004931,-0.995937, 0.000200,-0.000046,-0.009957,-0.005114, 0.002436, 0.034956,1,-0.000070, 0.000655,-0.000291,1,-0.200686, 0.043977, 9.804498,1,0
1777933602652,  2749.557,  2749.552, 0.020267,-0.005373,-0.995711, 0.000204,-0.000053,-0.009958,-0.001833,-0.008779, 0.039909,1,-0.000428,-0.000664,-0.000179,1,-0.200565, 0.043901, 9.804501,1,0
1777933602663,  2749.557,  2749.552, 0.020267,-0.005373,-0.995711, 0.000204,-0.000053,-0.009958,-0.001833,-0.008779, 0.039909,1,-0.000428,-0.000664,-0.000179,1,-0.200565, 0.043901, 9.804501,1,0
1777933602679,  2749.582,  2749.577, 0.021581,-0.005065,-0.996300, 0.000214,-0.000050,-0.009961,-0.001792,-0.011861, 0.032474,1, 0.000591, 0.000149, 0.000065,1,-0.200650, 0.043943, 9.804499,1,0
1777933602689,  2749.582,  2749.577, 0.021581,-0.005065,-0.996300, 0.000214,-0.000050,-0.009961,-0.001792,-0.011861, 0.032474,1, 0.000591, 0.000149, 0.000065,1,-0.200650, 0.043943, 9.804499,1,0
1777933602702,  2749.602,  2749.602, 0.022542,-0.004519,-0.995670, 0.000226,-0.000043,-0.009956, 0.020428,-0.000393, 0.040308,1,-0.000241,-0.000254,-0.000367,1,-0.200624, 0.043916, 9.804500,1,0
1777933602712,  2749.602,  2749.602, 0.022542,-0.004519,-0.995670, 0.000226,-0.000043,-0.009956, 0.020428,-0.000393, 0.040308,1,-0.000241,-0.000254,-0.000367,1,-0.200624, 0.043916, 9.804500,1,0
1777933602728,  2749.632,  2749.627, 0.020402,-0.005177,-0.996181, 0.000206,-0.000052,-0.009961, 0.004170,-0.004575, 0.030830,1,-0.000754, 0.000532, 0.000191,1,-0.200602, 0.043899, 9.804500,1,0
1777933602738,  2749.632,  2749.627, 0.020402,-0.005177,-0.996181, 0.000206,-0.000052,-0.009961, 0.004170,-0.004575, 0.030830,1,-0.000754, 0.000532, 0.000191,1,-0.200602, 0.043899, 9.804500,1,0
1777933602750,  2749.652,  2749.647, 0.019714,-0.005059,-0.995356, 0.000198,-0.000052,-0.009956,-0.001114,-0.003029, 0.040976,1,-0.000131,-0.000675, 0.000036,1,-0.200487, 0.043908, 9.804502,1,0
1777933602760,  2749.652,  2749.647, 0.019714,-0.005059,-0.995356, 0.000198,-0.000052,-0.009956,-0.001114,-0.003029, 0.040976,1,-0.000131,-0.000675, 0.000036,1,-0.200487, 0.043908, 9.804502,1,0
1777933602778,  2749.677,  2749.677, 0.018637,-0.005253,-0.995670, 0.000186,-0.000054,-0.009956,-0.017642,-0.007652, 0.040317,1,-0.000076, 0.000015, 0.000447,1,-0.200411, 0.043860, 9.804503,1,0
1777933602788,  2749.677,  2749.677, 0.018637,-0.005253,-0.995670, 0.000186,-0.000054,-0.009956,-0.017642,-0.007652, 0.040317,1,-0.000076, 0.000015, 0.000447,1,-0.200411, 0.043860, 9.804503,1,0
1777933602800,  2749.702,  2749.697, 0.020586,-0.004289,-0.995697, 0.000205,-0.000043,-0.009956,-0.007100,-0.000331, 0.043527,1,-0.000360,-0.000455, 0.001443,1,-0.200364, 0.043830, 9.804505,1,0
1777933602810,  2749.702,  2749.697, 0.020586,-0.004289,-0.995697, 0.000205,-0.000043,-0.009956,-0.007100,-0.000331, 0.043527,1,-0.000360,-0.000455, 0.001443,1,-0.200364, 0.043830, 9.804505,1,0
1777933602827,  2749.727,  2749.727, 0.021355,-0.003939,-0.995402, 0.000214,-0.000040,-0.009957, 0.009036, 0.005231, 0.042946,1, 0.000216,-0.000656, 0.000343,1,-0.200369, 0.043955, 9.804504,1,0
1777933602838,  2749.727,  2749.727, 0.021355,-0.003939,-0.995402, 0.000214,-0.000040,-0.009957, 0.009036, 0.005231, 0.042946,1, 0.000216,-0.000656, 0.000343,1,-0.200369, 0.043955, 9.804504,1,0
1777933602849,  2749.752,  2749.747, 0.021597,-0.005632,-0.995523, 0.000213,-0.000056,-0.009956, 0.011015,-0.000054, 0.041111,1,-0.000782, 0.000136,-0.000022,1,-0.200370, 0.043886, 9.804504,1,0
1777933602860,  2749.752,  2749.747, 0.021597,-0.005632,-0.995523, 0.000213,-0.000056,-0.009956, 0.011015,-0.000054, 0.041111,1,-0.000782, 0.000136,-0.000022,1,-0.200370, 0.043886, 9.804504,1,0
1777933602877,  2749.777,  2749.777, 0.020634,-0.004621,-0.995804, 0.000205,-0.000046,-0.009956, 0.001927,-0.001513, 0.039003,1,-0.000171, 0.000261, 0.000250,1,-0.200428, 0.043797, 9.804503,1,0
1777933602887,  2749.777,  2749.777, 0.020634,-0.004621,-0.995804, 0.000205,-0.000046,-0.009956, 0.001927,-0.001513, 0.039003,1,-0.000171, 0.000261, 0.000250,1,-0.200428, 0.043797, 9.804503,1,0
1777933602899,  2749.802,  2749.797, 0.020481,-0.003989,-0.995476, 0.000205,-0.000040,-0.009955, 0.002464,-0.001257, 0.039253,1,-0.000149,-0.000475, 0.000745,1,-0.200356, 0.043734, 9.804505,1,0
1777933602909,  2749.802,  2749.797, 0.020481,-0.003989,-0.995476, 0.000205,-0.000040,-0.009955, 0.002464,-0.001257, 0.039253,1,-0.000149,-0.000475, 0.000745,1,-0.200356, 0.043734, 9.804505,1,0
1777933602923,  2749.827,  2749.822, 0.019610,-0.003799,-0.995764, 0.000198,-0.000039,-0.009959,-0.008003, 0.006302, 0.039393,1,-0.000031,-0.000705, 0.000182,1,-0.200293, 0.043557, 9.804507,1,0
1777933602933,  2749.827,  2749.822, 0.019610,-0.003799,-0.995764, 0.000198,-0.000039,-0.009959,-0.008003, 0.006302, 0.039393,1,-0.000031,-0.000705, 0.000182,1,-0.200293, 0.043557, 9.804507,1,0
1777933602949,  2749.852,  2749.847, 0.019878,-0.003883,-0.996097, 0.000199,-0.000040,-0.009957,-0.002264, 0.007848, 0.045633,1, 0.000760,-0.000075, 0.000329,1,-0.200304, 0.043604, 9.804507,1,0
1777933602959,  2749.852,  2749.847, 0.019878,-0.003883,-0.996097, 0.000199,-0.000040,-0.009957,-0.002264, 0.007848, 0.045633,1, 0.000760,-0.000075, 0.000329,1,-0.200304, 0.043604, 9.804507,1,0
1777933602972,  2749.872,  2749.872, 0.020079,-0.004004,-0.995843, 0.000200,-0.000038,-0.009957,-0.003409, 0.004360, 0.038627,1, 0.000540, 0.000261,-0.000319,1,-0.200327, 0.043643, 9.804506,1,0
1777933602982,  2749.872,  2749.872, 0.020079,-0.004004,-0.995843, 0.000200,-0.000038,-0.009957,-0.003409, 0.004360, 0.038627,1, 0.000540, 0.000261,-0.000319,1,-0.200327, 0.043643, 9.804506,1,0
1777933602998,  2749.902,  2749.897, 0.020704,-0.005048,-0.996073, 0.000205,-0.000053,-0.009960, 0.004533,-0.006824, 0.040552,1, 0.000508, 0.000574,-0.000412,1,-0.200382, 0.043647, 9.804505,1,0
1777933603008,  2749.902,  2749.897, 0.020704,-0.005048,-0.996073, 0.000205,-0.000053,-0.009960, 0.004533,-0.006824, 0.040552,1, 0.000508, 0.000574,-0.000412,1,-0.200382, 0.043647, 9.804505,1,0
1777933603020,  2749.922,  2749.917, 0.021220,-0.005054,-0.995750, 0.000211,-0.000052,-0.009959, 0.009925,-0.004859, 0.035882,1, 0.000471, 0.000563,-0.000524,1,-0.200432, 0.043760, 9.804503,1,0
1777933603030,  2749.922,  2749.917, 0.021220,-0.005054,-0.995750, 0.000211,-0.000052,-0.009959, 0.009925,-0.004859, 0.035882,1, 0.000471, 0.000563,-0.000524,1,-0.200432, 0.043760, 9.804503,1,0
1777933603048,  2749.947,  2749.947, 0.021105,-0.004317,-0.995855, 0.000211,-0.000044,-0.009962, 0.006435, 0.001453, 0.038502,1, 0.000585, 0.000714, 0.000332,1,-0.200556, 0.043802, 9.804502,1,0
1777933603058,  2749.947,  2749.947, 0.021105,-0.004317,-0.995855, 0.000211,-0.000044,-0.009962, 0.006435, 0.001453, 0.038502,1, 0.000585, 0.000714, 0.000332,1,-0.200556, 0.043802, 9.804502,1,0
1777933603070,  2749.972,  2749.967, 0.020608,-0.004348,-0.995967, 0.000207,-0.000044,-0.009958, 0.006994, 0.001005, 0.038247,1,-0.000055, 0.000554, 0.000035,1,-0.200638, 0.043816, 9.804500,1,1
1777933603080,  2749.972,  2749.967, 0.020608,-0.004348,-0.995967, 0.000207,-0.000044,-0.009958, 0.006994, 0.001005, 0.038247,1,-0.000055, 0.000554, 0.000035,1,-0.200638, 0.043816, 9.804500,1,1
1777933603098,  2749.997,  2749.997, 0.020304,-0.004481,-0.996113, 0.000201,-0.000045,-0.009962,-0.001571,-0.000163, 0.035968,1,-0.000564, 0.000456,-0.001058,1,-0.200697, 0.043763, 9.804499,1,1
1777933603108,  2749.997,  2749.997, 0.020304,-0.004481,-0.996113, 0.000201,-0.000045,-0.009962,-0.001571,-0.000163, 0.035968,1,-0.000564, 0.000456,-0.001058,1,-0.200697, 0.043763, 9.804499,1,1
1777933603119,  2750.022,  2750.017, 0.019606,-0.004461,-0.995663, 0.000196,-0.000044,-0.009956,-0.005133,-0.001198, 0.040967,1, 0.000162,-0.000053, 0.000230,1,-0.200736, 0.043892, 9.804497,1,1
1777933603130,  2750.022,  2750.017, 0.019606,-0.004461,-0.995663, 0.000196,-0.000044,-0.009956,-0.005133,-0.001198, 0.040967,1, 0.000162,-0.000053, 0.000230,1,-0.200736, 0.043892, 9.804497,1,1
1777933603147,  2750.047,  2750.047, 0.020626,-0.003554,-0.995741, 0.000207,-0.000036,-0.009956, 0.001473, 0.009047, 0.039612,1, 0.000924, 0.000114,-0.000376,1,-0.200805, 0.043927, 9.804496,1,1
1777933603157,  2750.047,  2750.047, 0.020626,-0.003554,-0.995741, 0.000207,-0.000036,-0.009956, 0.001473, 0.009047, 0.039612,1, 0.000924, 0.000114,-0.000376,1,-0.200805, 0.043927, 9.804496,1,1
1777933603169,  2750.072,  2750.067, 0.021843,-0.004371,-0.995953, 0.000221,-0.000043,-0.009958, 0.014163, 0.001307, 0.038451,1, 0.000091,-0.001268,-0.000719,1,-0.200682, 0.043967, 9.804498,1,1
1777933603179,  2750.072,  2750.067, 0.021843,-0.004371,-0.995953, 0.000221,-0.000043,-0.009958, 0.014163, 0.001307, 0.038451,1, 0.000091,-0.001268,-0.000719,1,-0.200682, 0.043967, 9.804498,1,1
1777933603193,  2750.097,  2750.092, 0.020955,-0.005279,-0.995489, 0.000213,-0.000055,-0.009958, 0.004850,-0.007711, 0.042087,1,-0.000289, 0.000044,-0.000773,1,-0.200651, 0.044052, 9.804498,1,1
1777933603203,  2750.097,  2750.092, 0.020955,-0.005279,-0.995489, 0.000213,-0.000055,-0.009958, 0.004850,-0.007711, 0.042087,1,-0.000289, 0.000044,-0.000773,1,-0.200651, 0.044052, 9.804498,1,1
1777933603219,  2750.122,  2750.117, 0.020211,-0.005063,-0.996046, 0.000203,-0.000051,-0.009959,-0.002284,-0.012584, 0.034415,1,-0.000007,-0.000117,-0.000083,1,-0.200605, 0.044062, 9.804499,1,1
1777933603229,  2750.122,  2750.117, 0.020211,-0.005063,-0.996046, 0.000203,-0.000051,-0.009959,-0.002284,-0.012584, 0.034415,1,-0.000007,-0.000117,-0.000083,1,-0.200605, 0.044062, 9.804499,1,1
1777933603242,  2750.142,  2750.142, 0.020112,-0.004016,-0.995229, 0.000200,-0.000039,-0.009955,-0.003494, 0.004864, 0.044630,1, 0.000322, 0.000392,-0.000087,1,-0.200739, 0.044257, 9.804496,1,1
1777933603252,  2750.142,  2750.142, 0.020112,-0.004016,-0.995229, 0.000200,-0.000039,-0.009955,-0.003494, 0.004864, 0.044630,1, 0.000322, 0.000392,-0.000087,1,-0.200739, 0.044257, 9.804496,1,1
1777933603268,  2750.172,  2750.167, 0.020434,-0.004337,-0.995167, 0.000204,-0.000043,-0.009952,-0.004707, 0.003350, 0.047973,1,-0.000243,-0.000055,-0.000407,1,-0.200744, 0.044262, 9.804495,1,1
1777933603278,  2750.172,  2750.167, 0.020434,-0.004337,-0.995167, 0.000204,-0.000043,-0.009952,-0.004707, 0.003350, 0.047973,1,-0.000243,-0.000055,-0.000407,1,-0.200744, 0.044262, 9.804495,1,1
1777933603292,  2750.192,  2750.192, 0.020516,-0.004925,-0.996039, 0.000207,-0.000048,-0.009958, 0.000465,-0.003852, 0.036684,1,-0.000212,-0.000293,-0.000231,1,-0.200723, 0.044436, 9.804495,1,1
1777933603302,  2750.192,  2750.192, 0.020516,-0.004925,-0.996039, 0.000207,-0.000048,-0.009958, 0.000465,-0.003852, 0.036684,1,-0.000212,-0.000293,-0.000231,1,-0.200723, 0.044436, 9.804495,1,1
1777933603318,  2750.217,  2750.217, 0.021009,-0.005577,-0.995566, 0.000210,-0.000056,-0.009957, 0.005254,-0.010291, 0.041327,1, 0.000085, 0.000082,-0.000155,1,-0.200777, 0.044402, 9.804494,1,1
1777933603328,  2750.217,  2750.217, 0.021009,-0.005577,-0.995566, 0.000210,-0.000056,-0.009957, 0.005254,-0.010291, 0.041327,1, 0.000085, 0.000082,-0.000155,1,-0.200777, 0.044402, 9.804494,1,1
1777933603340,  2750.242,  2750.237, 0.020111,-0.003921,-0.995577, 0.000201,-0.000040,-0.009956, 0.003887, 0.006290, 0.046683,1, 0.000488, 0.000920,-0.000224,1,-0.200918, 0.044428, 9.804491,1,1
1777933603350,  2750.242,  2750.237, 0.020111,-0.003921,-0.995577, 0.000201,-0.000040,-0.009956, 0.003887, 0.006290, 0.046683,1, 0.000488, 0.000920,-0.000224,1,-0.200918, 0.044428, 9.804491,1,1
1777933603368,  2750.267,  2750.267, 0.019406,-0.006270,-0.995574, 0.000192,-0.000064,-0.009956,-0.010722,-0.017156, 0.041240,1,-0.001034,-0.000018,-0.000293,1,-0.201029, 0.044301, 9.804489,1,1
1777933603378,  2750.267,  2750.267, 0.019406,-0.006270,-0.995574, 0.000192,-0.000064,-0.009956,-0.010722,-0.017156, 0.041240,1,-0.001034,-0.000018,-0.000293,1,-0.201029, 0.044301, 9.804489,1,1
1777933603390,  2750.292,  2750.287, 0.022964,-0.001479,-0.996508, 0.000225,-0.000017,-0.009968, 0.017569,-0.005347, 0.042418,1, 0.000750,-0.000058, 0.001187,1,-0.201054, 0.044283, 9.804489,1,1
1777933603400,  2750.292,  2750.287, 0.022964,-0.001479,-0.996508, 0.000225,-0.000017,-0.009968, 0.017569,-0.005347, 0.042418,1, 0.000750,-0.000058, 0.001187,1,-0.201054, 0.044283, 9.804489,1,1
1777933603417,  2750.317,  2750.317, 0.021909,-0.005085,-0.995829, 0.000212,-0.000039,-0.009955, 0.013782,-0.005521, 0.038746,1, 0.000277, 0.000393,-0.000473,1,-0.201082, 0.044353, 9.804488,1,1
1777933603427,  2750.317,  2750.317, 0.021909,-0.005085,-0.995829, 0.000212,-0.000039,-0.009955, 0.013782,-0.005521, 0.038746,1, 0.000277, 0.000393,-0.000473,1,-0.201082, 0.044353, 9.804488,1,1
1777933603439,  2750.342,  2750.337, 0.018710,-0.005263,-0.996693, 0.000185,-0.000054,-0.009967,-0.012047,-0.007566, 0.040447,1,-0.000322,-0.000255,-0.000664,1,-0.200982, 0.044253, 9.804490,1,1
1777933603449,  2750.342,  2750.337, 0.018710,-0.005263,-0.996693, 0.000185,-0.000054,-0.009967,-0.012047,-0.007566, 0.040447,1,-0.000322,-0.000255,-0.000664,1,-0.200982, 0.044253, 9.804490,1,1
1777933603463,  2750.367,  2750.362, 0.019754,-0.007108,-0.994718, 0.000198,-0.000071,-0.009953,-0.007241,-0.025429, 0.049636,1,-0.000246,-0.000670, 0.000259,1,-0.200937, 0.044265, 9.804491,1,1
1777933603473,  2750.367,  2750.362, 0.019754,-0.007108,-0.994718, 0.000198,-0.000071,-0.009953,-0.007241,-0.025429, 0.049636,1,-0.000246,-0.000670, 0.000259,1,-0.200937, 0.044265, 9.804491,1,1
1777933603489,  2750.392,  2750.387, 0.021076,-0.002406,-0.994973, 0.000210,-0.000018,-0.009953, 0.004707, 0.023871, 0.041303,1,-0.000024, 0.000085, 0.000346,1,-0.200983, 0.044205, 9.804491,1,1
1777933603499,  2750.392,  2750.387, 0.021076,-0.002406,-0.994973, 0.000210,-0.000018,-0.009953, 0.004707, 0.023871, 0.041303,1,-0.000024, 0.000085, 0.000346,1,-0.200983, 0.044205, 9.804491,1,1
1777933603512,  2750.417,  2750.412, 0.021294,-0.003387,-0.995572, 0.000215,-0.000033,-0.009953, 0.007688, 0.011012, 0.041261,1,-0.000029, 0.000376, 0.000216,1,-0.201147, 0.044227, 9.804487,1,1
1777933603522,  2750.417,  2750.412, 0.021294,-0.003387,-0.995572, 0.000215,-0.000033,-0.009953, 0.007688, 0.011012, 0.041261,1,-0.000029, 0.000376, 0.000216,1,-0.201147, 0.044227, 9.804487,1,1
1777933603538,  2750.442,  2750.437, 0.020289,-0.004827,-0.996081, 0.000206,-0.000045,-0.009963, 0.007921,-0.004972, 0.037463,1,-0.000545,-0.000306,-0.000389,1,-0.201264, 0.044163, 9.804485,1,1
1777933603548,  2750.442,  2750.437, 0.020289,-0.004827,-0.996081, 0.000206,-0.000045,-0.009963, 0.007921,-0.004972, 0.037463,1,-0.000545,-0.000306,-0.000389,1,-0.201264, 0.044163, 9.804485,1,1
1777933603562,  2750.462,  2750.462, 0.020320,-0.006740,-0.996100, 0.000202,-0.000068,-0.009967,-0.002054,-0.021901, 0.036076,1,-0.000534, 0.000266, 0.000602,1,-0.201329, 0.044179, 9.804483,1,1
1777933603572,  2750.462,  2750.462, 0.020320,-0.006740,-0.996100, 0.000202,-0.000068,-0.009967,-0.002054,-0.021901, 0.036076,1,-0.000534, 0.000266, 0.000602,1,-0.201329, 0.044179, 9.804483,1,1
1777933603588,  2750.487,  2750.487, 0.020425,-0.004579,-0.995806, 0.000203,-0.000047,-0.009959,-0.000959,-0.000832, 0.038967,1,-0.000013, 0.000876, 0.000326,1,-0.201286, 0.044073, 9.804485,1,1
1777933603598,  2750.487,  2750.487, 0.020425,-0.004579,-0.995806, 0.000203,-0.000047,-0.009959,-0.000959,-0.000832, 0.038967,1,-0.000013, 0.000876, 0.000326,1,-0.201286, 0.044073, 9.804485,1,1
1777933603610,  2750.512,  2750.507, 0.021069,-0.003727,-0.994936, 0.000211,-0.000037,-0.009947, 0.004596, 0.010339, 0.040874,1,-0.000010,-0.000608, 0.000451,1,-0.201275, 0.044086, 9.804485,1,1
1777933603620,  2750.512,  2750.507, 0.021069,-0.003727,-0.994936, 0.000211,-0.000037,-0.009947, 0.004596, 0.010339, 0.040874,1,-0.000010,-0.000608, 0.000451,1,-0.201275, 0.044086, 9.804485,1,1
1777933603638,  2750.537,  2750.537, 0.020325,-0.003247,-0.995386, 0.000204,-0.000031,-0.009954,-0.001803, 0.012328, 0.043088,1, 0.000139,-0.000963,-0.000337,1,-0.201094, 0.044179, 9.804488,1,1
1777933603648,  2750.537,  2750.537, 0.020325,-0.003247,-0.995386, 0.000204,-0.000031,-0.009954,-0.001803, 0.012328, 0.043088,1, 0.000139,-0.000963,-0.000337,1,-0.201094, 0.044179, 9.804488,1,1
1777933603660,  2750.562,  2750.557, 0.019323,-0.005024,-0.995741, 0.000193,-0.000049,-0.009957,-0.007033,-0.004461, 0.036306,1, 0.000051,-0.000128, 0.000139,1,-0.201059, 0.044241, 9.804489,1,1
1777933603670,  2750.562,  2750.557, 0.019323,-0.005024,-0.995741, 0.000193,-0.000049,-0.009957,-0.007033,-0.004461, 0.036306,1, 0.000051,-0.000128, 0.000139,1,-0.201059, 0.044241, 9.804489,1,1
1777933603687,  2750.587,  2750.587, 0.019773,-0.004837,-0.996317, 0.000199,-0.000047,-0.009960,-0.007280,-0.003135, 0.033951,1,-0.000422, 0.000579, 0.000033,1,-0.201200, 0.044283, 9.804485,1,1
1777933603697,  2750.587,  2750.587, 0.019773,-0.004837,-0.996317, 0.000199,-0.000047,-0.009960,-0.007280,-0.003135, 0.033951,1,-0.000422, 0.000579, 0.000033,1,-0.201200, 0.044283, 9.804485,1,1
1777933603709,  2750.612,  2750.607, 0.021287,-0.004155,-0.995640, 0.000214,-0.000040,-0.009958, 0.001807, 0.004171, 0.035069,1, 0.000102, 0.001299, 0.000315,1,-0.201249, 0.044300, 9.804484,1,1
1777933603719,  2750.612,  2750.607, 0.021287,-0.004155,-0.995640, 0.000214,-0.000040,-0.009958, 0.001807, 0.004171, 0.035069,1, 0.000102, 0.001299, 0.000315,1,-0.201249, 0.044300, 9.804484,1,1
1777933603737,  2750.637,  2750.637, 0.021048,-0.004979,-0.996054, 0.000209,-0.000048,-0.009960, 0.005217,-0.004438, 0.036534,1, 0.000131, 0.000430, 0.000245,1,-0.201205, 0.044391, 9.804485,1,1
1777933603747,  2750.637,  2750.637, 0.021048,-0.004979,-0.996054, 0.000209,-0.000048,-0.009960, 0.005217,-0.004438, 0.036534,1, 0.000131, 0.000430, 0.000245,1,-0.201205, 0.044391, 9.804485,1,1
1777933603759,  2750.662,  2750.657, 0.020351,-0.004154,-0.996162, 0.000205,-0.000042,-0.009959,-0.001262,-0.005746, 0.039599,1,-0.000596,-0.000866, 0.000359,1,-0.201077, 0.044332, 9.804488,1,1
1777933603769,  2750.662,  2750.657, 0.020351,-0.004154,-0.996162, 0.000205,-0.000042,-0.009959,-0.001262,-0.005746, 0.039599,1,-0.000596,-0.000866, 0.000359,1,-0.201077, 0.044332, 9.804488,1,1
1777933603782,  2750.687,  2750.682, 0.020246,-0.004976,-0.995683, 0.000201,-0.000050,-0.009955,-0.002635,-0.004415, 0.040167,1,-0.000543, 0.000848, 0.000441,1,-0.201210, 0.044364, 9.804485,1,1
1777933603792,  2750.687,  2750.682, 0.020246,-0.004976,-0.995683, 0.000201,-0.000050,-0.009955,-0.002635,-0.004415, 0.040167,1,-0.000543, 0.000848, 0.000441,1,-0.201210, 0.044364, 9.804485,1,1
1777933603808,  2750.712,  2750.707, 0.020435,-0.004473,-0.995762, 0.000203,-0.000042,-0.009959,-0.005944, 0.005208, 0.039445,1,-0.000034, 0.000368, 0.000614,1,-0.201247, 0.044320, 9.804484,1,1
1777933603818,  2750.712,  2750.707, 0.020435,-0.004473,-0.995762, 0.000203,-0.000042,-0.009959,-0.005944, 0.005208, 0.039445,1,-0.000034, 0.000368, 0.000614,1,-0.201247, 0.044320, 9.804484,1,1
1777933603832,  2750.732,  2750.732, 0.020580,-0.005454,-0.995967, 0.000206,-0.000057,-0.009958, 0.000621,-0.009125, 0.037382,1,-0.000868,-0.000599, 0.001255,1,-0.201184, 0.044333, 9.804486,1,1
1777933603842,  2750.732,  2750.732, 0.020580,-0.005454,-0.995967, 0.000206,-0.000057,-0.009958, 0.000621,-0.009125, 0.037382,1,-0.000868,-0.000599, 0.001255,1,-0.201184, 0.044333, 9.804486,1,1
1777933603858,  2750.757,  2750.757, 0.022017,-0.001522,-0.995318, 0.000218,-0.000014,-0.009954, 0.014703, 0.029372, 0.043750,1,-0.000372,-0.000590,-0.000123,1,-0.201195, 0.044288, 9.804486,1,1
1777933603868,  2750.757,  2750.757, 0.022017,-0.001522,-0.995318, 0.000218,-0.000014,-0.009954, 0.014703, 0.029372, 0.043750,1,-0.000372,-0.000590,-0.000123,1,-0.201195, 0.044288, 9.804486,1,1
1777933603880,  2750.782,  2750.777, 0.019851,-0.008267,-0.996403, 0.000197,-0.000080,-0.009967,-0.006942,-0.030121, 0.037587,1,-0.000626,-0.001013,-0.000580,1,-0.201159, 0.044250, 9.804487,1,1
1777933603890,  2750.782,  2750.777, 0.019851,-0.008267,-0.996403, 0.000197,-0.000080,-0.009967,-0.006942,-0.030121, 0.037587,1,-0.000626,-0.001013,-0.000580,1,-0.201159, 0.044250, 9.804487,1,1
1777933603908,  2750.807,  2750.807, 0.020844,-0.012290,-0.996038, 0.000204,-0.000123,-0.009955, 0.003593,-0.076501, 0.036702,1,-0.001526,-0.001487, 0.001445,1,-0.200766, 0.043977, 9.804496,1,1
1777933603918,  2750.807,  2750.807, 0.020844,-0.012290,-0.996038, 0.000204,-0.000123,-0.009955, 0.003593,-0.076501, 0.036702,1,-0.001526,-0.001487, 0.001445,1,-0.200766, 0.043977, 9.804496,1,1
1777933603930,  2750.832,  2750.827, 0.027832,-0.006870,-0.995016, 0.000277,-0.000074,-0.009949, 0.052122,-0.041495, 0.028887,1,-0.001116,-0.001581, 0.002448,1,-0.200469, 0.043771, 9.804503,1,1
1777933603940,  2750.832,  2750.827, 0.027832,-0.006870,-0.995016, 0.000277,-0.000074,-0.009949, 0.052122,-0.041495, 0.028887,1,-0.001116,-0.001581, 0.002448,1,-0.200469, 0.043771, 9.804503,1,1
1777933603957,  2750.857,  2750.857, 0.038812,-0.004750,-0.996407, 0.000375,-0.000108,-0.009947, 0.180501,-0.003654, 0.033103,1,-0.007422,-0.001710, 0.006978,1,-0.200059, 0.042696, 9.804516,1,1
1777933603967,  2750.857,  2750.857, 0.038812,-0.004750,-0.996407, 0.000375,-0.000108,-0.009947, 0.180501,-0.003654, 0.033103,1,-0.007422,-0.001710, 0.006978,1,-0.200059, 0.042696, 9.804516,1,1
1777933603979,  2750.882,  2750.877,-0.001138, 0.022238,-0.981775, 0.000038, 0.000354,-0.009670, 0.030903, 0.358297,-0.033521,1, 0.009480,-0.002055,-0.002159,1,-0.199631, 0.043440, 9.804522,1,1
1777933603989,  2750.882,  2750.877,-0.001138, 0.022238,-0.981775, 0.000038, 0.000354,-0.009670, 0.030903, 0.358297,-0.033521,1, 0.009480,-0.002055,-0.002159,1,-0.199631, 0.043440, 9.804522,1,1
1777933604007,  2750.907,  2750.907,-0.023480,-0.043789,-1.010983,-0.000294,-0.000541,-0.009938,-0.430001,-0.385179,-0.109842,1,-0.006171, 0.002675, 0.001029,1,-0.199821, 0.044054, 9.804515,1,1
1777933604017,  2750.907,  2750.907,-0.023480,-0.043789,-1.010983,-0.000294,-0.000541,-0.009938,-0.430001,-0.385179,-0.109842,1,-0.006171, 0.002675, 0.001029,1,-0.199821, 0.044054, 9.804515,1,1
1777933604029,  2750.932,  2750.927, 0.022572, 0.026905,-0.998183, 0.000170, 0.000225,-0.009856,-0.106613, 0.296461,-0.032780,1, 0.001743,-0.003709, 0.003208,1,-0.199943, 0.043801, 9.804514,1,1
1777933604039,  2750.932,  2750.927, 0.022572, 0.026905,-0.998183, 0.000170, 0.000225,-0.009856,-0.106613, 0.296461,-0.032780,1, 0.001743,-0.003709, 0.003208,1,-0.199943, 0.043801, 9.804514,1,1
1777933604052,  2750.957,  2750.952, 0.035552, 0.006665,-1.014256, 0.000367, 0.000067,-0.010149, 0.148014, 0.109398,-0.141954,1, 0.006547, 0.001165,-0.005247,1,-0.200672, 0.044242, 9.804497,1,1
1777933604062,  2750.957,  2750.952, 0.035552, 0.006665,-1.014256, 0.000367, 0.000067,-0.010149, 0.148014, 0.109398,-0.141954,1, 0.006547, 0.001165,-0.005247,1,-0.200672, 0.044242, 9.804497,1,1
1777933604078,  2750.982,  2750.977, 0.032788,-0.025111,-1.004660, 0.000318,-0.000216,-0.010090, 0.192188,-0.014868, 0.098835,1, 0.003406, 0.001041,-0.009902,1,-0.200505, 0.045240, 9.804496,1,1
1777933604088,  2750.982,  2750.977, 0.032788,-0.025111,-1.004660, 0.000318,-0.000216,-0.010090, 0.192188,-0.014868, 0.098835,1, 0.003406, 0.001041,-0.009902,1,-0.200505, 0.045240, 9.804496,1,1
1777933604102,  2751.002,  2751.002, 0.031149,-0.020017,-0.999357, 0.000280,-0.000220,-0.009931, 0.105341,-0.151140, 0.004158,1,-0.004931, 0.004852, 0.000404,1,-0.200280, 0.045004, 9.804502,1,1
1777933604112,  2751.002,  2751.002, 0.031149,-0.020017,-0.999357, 0.000280,-0.000220,-0.009931, 0.105341,-0.151140, 0.004158,1,-0.004931, 0.004852, 0.000404,1,-0.200280, 0.045004, 9.804502,1,1
1777933604128,  2751.027,  2751.027, 0.024736,-0.014192,-0.992511, 0.000271,-0.000136,-0.009960, 0.042821,-0.094240, 0.071308,1, 0.000966,-0.001090, 0.003070,1,-0.199720, 0.044967, 9.804513,1,1
1777933604138,  2751.027,  2751.027, 0.024736,-0.014192,-0.992511, 0.000271,-0.000136,-0.009960, 0.042821,-0.094240, 0.071308,1, 0.000966,-0.001090, 0.003070,1,-0.199720, 0.044967, 9.804513,1,1
1777933604150,  2751.052,  2751.047, 0.018617,-0.001378,-0.993950, 0.000218,-0.000010,-0.009953, 0.056242, 0.009682,-0.003217,1,-0.001540,-0.000428, 0.005839,1,-0.200175, 0.044638, 9.804505,1,1
1777933604160,  2751.052,  2751.047, 0.018617,-0.001378,-0.993950, 0.000218,-0.000010,-0.009953, 0.056242, 0.009682,-0.003217,1,-0.001540,-0.000428, 0.005839,1,-0.200175, 0.044638, 9.804505,1,1
1777933604178,  2751.077,  2751.077, 0.016734, 0.004298,-0.998982, 0.000196, 0.000046,-0.010020,-0.035870, 0.086657, 0.007846,1,-0.000252,-0.007411, 0.003008,1,-0.199747, 0.044506, 9.804515,1,1
1777933604188,  2751.077,  2751.077, 0.016734, 0.004298,-0.998982, 0.000196, 0.000046,-0.010020,-0.035870, 0.086657, 0.007846,1,-0.000252,-0.007411, 0.003008,1,-0.199747, 0.044506, 9.804515,1,1
1777933604200,  2751.102,  2751.097, 0.009926, 0.002900,-0.995970, 0.000078, 0.000034,-0.009963,-0.088247, 0.115029, 0.028791,1, 0.000539, 0.000768, 0.000872,1,-0.199757, 0.044444, 9.804515,1,1
1777933604210,  2751.102,  2751.097, 0.009926, 0.002900,-0.995970, 0.000078, 0.000034,-0.009963,-0.088247, 0.115029, 0.028791,1, 0.000539, 0.000768, 0.000872,1,-0.199757, 0.044444, 9.804515,1,1
1777933604227,  2751.127,  2751.127, 0.011685,-0.000408,-0.997606, 0.000096,-0.000002,-0.009970,-0.085407, 0.040315, 0.021333,1,-0.001370, 0.003613,-0.002786,1,-0.200463, 0.043998, 9.804502,1,1
1777933604237,  2751.127,  2751.127, 0.011685,-0.000408,-0.997606, 0.000096,-0.000002,-0.009970,-0.085407, 0.040315, 0.021333,1,-0.001370, 0.003613,-0.002786,1,-0.200463, 0.043998, 9.804502,1,1
1777933604249,  2751.152,  2751.147, 0.023907,-0.008268,-0.998261, 0.000241,-0.000089,-0.009960,-0.020477,-0.030348, 0.123940,1, 0.001825, 0.001546,-0.003838,1,-0.200566, 0.044537, 9.804498,1,1
1777933604259,  2751.152,  2751.147, 0.023907,-0.008268,-0.998261, 0.000241,-0.000089,-0.009960,-0.020477,-0.030348, 0.123940,1, 0.001825, 0.001546,-0.003838,1,-0.200566, 0.044537, 9.804498,1,1
1777933604277,  2751.177,  2751.177, 0.028629,-0.011894,-0.991133, 0.000292,-0.000125,-0.009938, 0.080050,-0.072063, 0.084800,1, 0.002585, 0.000478,-0.000985,1,-0.200715, 0.044655, 9.804494,1,1
1777933604287,  2751.177,  2751.177, 0.028629,-0.011894,-0.991133, 0.000292,-0.000125,-0.009938, 0.080050,-0.072063, 0.084800,1, 0.002585, 0.000478,-0.000985,1,-0.200715, 0.044655, 9.804494,1,1
1777933604299,  2751.202,  2751.197, 0.033553,-0.004009,-0.996161, 0.000331,-0.000041,-0.009967, 0.128500,-0.017374, 0.013710,1,-0.000680,-0.003163,-0.000282,1,-0.200755, 0.044441, 9.804494,1,1
1777933604309,  2751.202,  2751.197, 0.033553,-0.004009,-0.996161, 0.000331,-0.000041,-0.009967, 0.128500,-0.017374, 0.013710,1,-0.000680,-0.003163,-0.000282,1,-0.200755, 0.044441, 9.804494,1,1
1777933604322,  2751.227,  2751.222, 0.024347, 0.004605,-0.998025, 0.000260, 0.000018,-0.009956, 0.037822, 0.089705, 0.017207,1,-0.000977,-0.000550, 0.000713,1,-0.200919, 0.044516, 9.804490,1,1
1777933604332,  2751.227,  2751.222, 0.024347, 0.004605,-0.998025, 0.000260, 0.000018,-0.009956, 0.037822, 0.089705, 0.017207,1,-0.000977,-0.000550, 0.000713,1,-0.200919, 0.044516, 9.804490,1,1
1777933604348,  2751.252,  2751.247, 0.028744, 0.025724,-1.006326, 0.000233, 0.000211,-0.010000,-0.034861,-0.059939, 0.080670,1, 0.001806, 0.007385, 0.001419,1,-0.201508, 0.044693, 9.804478,1,1
1777933604359,  2751.252,  2751.247, 0.028744, 0.025724,-1.006326, 0.000233, 0.000211,-0.010000,-0.034861,-0.059939, 0.080670,1, 0.001806, 0.007385, 0.001419,1,-0.201508, 0.044693, 9.804478,1,1
1777933604372,  2751.272,  2751.272,-0.003020,-0.005009,-0.999420,-0.000033, 0.000001,-0.009948,-0.231498,-0.003901, 0.003507,1, 0.002211, 0.001486,-0.006324,1,-0.201926, 0.045289, 9.804466,1,1
1777933604382,  2751.272,  2751.272,-0.003020,-0.005009,-0.999420,-0.000033, 0.000001,-0.009948,-0.231498,-0.003901, 0.003507,1, 0.002211, 0.001486,-0.006324,1,-0.201926, 0.045289, 9.804466,1,1
1777933604398,  2751.297,  2751.297,-0.015510,-0.032744,-0.995846,-0.000205,-0.000582,-0.009813,-0.354876,-0.276382, 0.038539,1,-0.012419, 0.023804, 0.002135,1,-0.203513, 0.044340, 9.804438,1,1
1777933604408,  2751.297,  2751.297,-0.015510,-0.032744,-0.995846,-0.000205,-0.000582,-0.009813,-0.354876,-0.276382, 0.038539,1,-0.012419, 0.023804, 0.002135,1,-0.203513, 0.044340, 9.804438,1,1
1777933604420,  2751.322,  2751.317, 0.031860,-0.000630,-0.986671, 0.000364,-0.000043,-0.009799,-0.067747, 0.312023, 0.251053,1, 0.011470, 0.002259,-0.005644,1,-0.203222, 0.045169, 9.804440,1,1
1777933604430,  2751.322,  2751.317, 0.031860,-0.000630,-0.986671, 0.000364,-0.000043,-0.009799,-0.067747, 0.312023, 0.251053,1, 0.011470, 0.002259,-0.005644,1,-0.203222, 0.045169, 9.804440,1,1
1777933604448,  2751.347,  2751.347, 0.041957,-0.017639,-0.991802, 0.000361,-0.000069,-0.009908, 0.207937,-0.127516, 0.078178,1, 0.008254,-0.003671,-0.010991,1,-0.203403, 0.045711, 9.804434,1,1
1777933604458,  2751.347,  2751.347, 0.041957,-0.017639,-0.991802, 0.000361,-0.000069,-0.009908, 0.207937,-0.127516, 0.078178,1, 0.008254,-0.003671,-0.010991,1,-0.203403, 0.045711, 9.804434,1,1
1777933604470,  2751.372,  2751.367, 0.026881,-0.011053,-0.982555, 0.000268,-0.000044,-0.009838, 0.190022,-0.180265,-0.121133,1,-0.001917,-0.009713,-0.001096,1,-0.204300, 0.045520, 9.804416,1,1
1777933604480,  2751.372,  2751.367, 0.026881,-0.011053,-0.982555, 0.000268,-0.000044,-0.009838, 0.190022,-0.180265,-0.121133,1,-0.001917,-0.009713,-0.001096,1,-0.204300, 0.045520, 9.804416,1,1
1777933604497,  2751.397,  2751.397, 0.033644,-0.009520,-1.006145, 0.000267,-0.000086,-0.010047, 0.125465,-0.047696,-0.062504,1, 0.002345,-0.001829,-0.000351,1,-0.204416, 0.045733, 9.804413,1,1
1777933604507,  2751.397,  2751.397, 0.033644,-0.009520,-1.006145, 0.000267,-0.000086,-0.010047, 0.125465,-0.047696,-0.062504,1, 0.002345,-0.001829,-0.000351,1,-0.204416, 0.045733, 9.804413,1,1
1777933604519,  2751.422,  2751.417, 0.022825,-0.033937,-1.009491, 0.000221,-0.000274,-0.010099,-0.063882,-0.221450, 0.016829,1,-0.005327, 0.008570, 0.004370,1,-0.203769, 0.045552, 9.804427,1,1
1777933604529,  2751.422,  2751.417, 0.022825,-0.033937,-1.009491, 0.000221,-0.000274,-0.010099,-0.063882,-0.221450, 0.016829,1,-0.005327, 0.008570, 0.004370,1,-0.203769, 0.045552, 9.804427,1,1
1777933604547,  2751.447,  2751.447, 0.041367, 0.060355,-1.030517, 0.000436, 0.000338,-0.010325, 0.203092, 0.635818,-0.301459,1,-0.003871,-0.001681, 0.017998,1,-0.202527, 0.043831, 9.804461,1,1
1777933604557,  2751.447,  2751.447, 0.041367, 0.060355,-1.030517, 0.000436, 0.000338,-0.010325, 0.203092, 0.635818,-0.301459,1,-0.003871,-0.001681, 0.017998,1,-0.202527, 0.043831, 9.804461,1,1
1777933604569,  2751.472,  2751.467, 0.036917, 0.012321,-1.030036, 0.000266, 0.000071,-0.010126, 0.218191, 0.356218, 0.016629,1,-0.002601,-0.000008,-0.003032,1,-0.202837, 0.044841, 9.804449,1,1
1777933604579,  2751.472,  2751.467, 0.036917, 0.012321,-1.030036, 0.000266, 0.000071,-0.010126, 0.218191, 0.356218, 0.016629,1,-0.002601,-0.000008,-0.003032,1,-0.202837, 0.044841, 9.804449,1,1
1777933604592,  2751.497,  2751.492, 0.034414, 0.002607,-1.015186, 0.000227,-0.000044,-0.010179, 0.135040, 0.070959,-0.151123,1,-0.005743, 0.008343,-0.002204,1,-0.202708, 0.045216, 9.804450,1,1
1777933604602,  2751.497,  2751.492, 0.034414, 0.002607,-1.015186, 0.000227,-0.000044,-0.010179, 0.135040, 0.070959,-0.151123,1,-0.005743, 0.008343,-0.002204,1,-0.202708, 0.045216, 9.804450,1,1
1777933604618,  2751.522,  2751.517, 0.008925, 0.005027,-1.011953, 0.000164, 0.000057,-0.010187,-0.061925,-0.071687, 0.338549,1,-0.008397, 0.007831,-0.002206,1,-0.201880, 0.044885, 9.804469,1,1
1777933604629,  2751.522,  2751.517, 0.008925, 0.005027,-1.011953, 0.000164, 0.000057,-0.010187,-0.061925,-0.071687, 0.338549,1,-0.008397, 0.007831,-0.002206,1,-0.201880, 0.044885, 9.804469,1,1
1777933604642,  2751.542,  2751.542, 0.021301, 0.005765,-0.985131, 0.000148, 0.000043,-0.009728, 0.004685, 0.102332, 0.143582,1, 0.000998, 0.014948,-0.003948,1,-0.204677, 0.045829, 9.804407,1,1
1777933604652,  2751.542,  2751.542, 0.021301, 0.005765,-0.985131, 0.000148, 0.000043,-0.009728, 0.004685, 0.102332, 0.143582,1, 0.000998, 0.014948,-0.003948,1,-0.204677, 0.045829, 9.804407,1,1
1777933604668,  2751.567,  2751.567, 0.009585,-0.005172,-1.010737, 0.000032,-0.000045,-0.010093,-0.111383,-0.004724,-0.107556,1, 0.005638,-0.000458,-0.005911,1,-0.205364, 0.046169, 9.804391,1,1
1777933604678,  2751.567,  2751.567, 0.009585,-0.005172,-1.010737, 0.000032,-0.000045,-0.010093,-0.111383,-0.004724,-0.107556,1, 0.005638,-0.000458,-0.005911,1,-0.205364, 0.046169, 9.804391,1,1
1777933604690,  2751.592,  2751.587, 0.001789,-0.012378,-0.999274, 0.000009,-0.000124,-0.010021,-0.202751, 0.125266, 0.011844,1,-0.004643, 0.001890,-0.004554,1,-0.206173, 0.045585, 9.804377,1,1
1777933604700,  2751.592,  2751.587, 0.001789,-0.012378,-0.999274, 0.000009,-0.000124,-0.010021,-0.202751, 0.125266, 0.011844,1,-0.004643, 0.001890,-0.004554,1,-0.206173, 0.045585, 9.804377,1,1
1777933604718,  2751.617,  2751.617, 0.013506,-0.004020,-1.006443, 0.000114,-0.000028,-0.010060,-0.074804, 0.006227,-0.065483,1,-0.001231, 0.004530,-0.001794,1,-0.207390, 0.045613, 9.804351,1,1
1777933604728,  2751.617,  2751.617, 0.013506,-0.004020,-1.006443, 0.000114,-0.000028,-0.010060,-0.074804, 0.006227,-0.065483,1,-0.001231, 0.004530,-0.001794,1,-0.207390, 0.045613, 9.804351,1,1
1777933604740,  2751.642,  2751.637, 0.027250,-0.009720,-0.998259, 0.000293,-0.000089,-0.009985, 0.032001,-0.024884, 0.015227,1,-0.000114, 0.009827,-0.002363,1,-0.208026, 0.045841, 9.804337,1,1
1777933604750,  2751.642,  2751.637, 0.027250,-0.009720,-0.998259, 0.000293,-0.000089,-0.009985, 0.032001,-0.024884, 0.015227,1,-0.000114, 0.009827,-0.002363,1,-0.208026, 0.045841, 9.804337,1,1
1777933604767,  2751.667,  2751.667, 0.037365,-0.016837,-0.995418, 0.000376,-0.000149,-0.009956, 0.157686,-0.118957, 0.042606,1,-0.000774, 0.005506, 0.000784,1,-0.208913, 0.046132, 9.804316,1,1
1777933604777,  2751.667,  2751.667, 0.037365,-0.016837,-0.995418, 0.000376,-0.000149,-0.009956, 0.157686,-0.118957, 0.042606,1,-0.000774, 0.005506, 0.000784,1,-0.208913, 0.046132, 9.804316,1,1
1777933604789,  2751.692,  2751.687, 0.036171,-0.006734,-0.997621, 0.000373,-0.000082,-0.009958, 0.157095,-0.077081, 0.069607,1,-0.001457,-0.001194, 0.002595,1,-0.208921, 0.046124, 9.804316,1,1
1777933604799,  2751.692,  2751.687, 0.036171,-0.006734,-0.997621, 0.000373,-0.000082,-0.009958, 0.157095,-0.077081, 0.069607,1,-0.001457,-0.001194, 0.002595,1,-0.208921, 0.046124, 9.804316,1,1
1777933604817,  2751.717,  2751.717, 0.017697,-0.005934,-0.990474, 0.000192,-0.000105,-0.009930,-0.035328,-0.012350, 0.091086,1,-0.004590,-0.002977, 0.005576,1,-0.208779, 0.045700, 9.804321,1,1
1777933604827,  2751.717,  2751.717, 0.017697,-0.005934,-0.990474, 0.000192,-0.000105,-0.009930,-0.035328,-0.012350, 0.091086,1,-0.004590,-0.002977, 0.005576,1,-0.208779, 0.045700, 9.804321,1,1
1777933604839,  2751.742,  2751.737,-0.000629, 0.016665,-0.998820, 0.000063, 0.000104,-0.009922,-0.209857, 0.061468, 0.061224,1,-0.008167, 0.002859, 0.008103,1,-0.208553, 0.045654, 9.804326,1,1
1777933604849,  2751.742,  2751.737,-0.000629, 0.016665,-0.998820, 0.000063, 0.000104,-0.009922,-0.209857, 0.061468, 0.061224,1,-0.008167, 0.002859, 0.008103,1,-0.208553, 0.045654, 9.804326,1,1
1777933604862,  2751.767,  2751.762, 0.016696, 0.017144,-0.996825, 0.000114, 0.000187,-0.010026,-0.044629, 0.214099, 0.028813,1, 0.003946,-0.001153,-0.003383,1,-0.208322, 0.046095, 9.804329,1,1
1777933604872,  2751.767,  2751.762, 0.016696, 0.017144,-0.996825, 0.000114, 0.000187,-0.010026,-0.044629, 0.214099, 0.028813,1, 0.003946,-0.001153,-0.003383,1,-0.208322, 0.046095, 9.804329,1,1
1777933604889,  2751.792,  2751.787, 0.016936,-0.020906,-0.997811, 0.000181,-0.000205,-0.010000,-0.089186,-0.071587, 0.057477,1, 0.000546,-0.000740,-0.005816,1,-0.207982, 0.046401, 9.804335,1,1
1777933604899,  2751.792,  2751.787, 0.016936,-0.020906,-0.997811, 0.000181,-0.000205,-0.010000,-0.089186,-0.071587, 0.057477,1, 0.000546,-0.000740,-0.005816,1,-0.207982, 0.046401, 9.804335,1,1
1777933604912,  2751.812,  2751.812, 0.031635,-0.008252,-0.998875, 0.000330,-0.000089,-0.009988, 0.102327,-0.035013, 0.008716,1,-0.002235,-0.002439, 0.001163,1,-0.207834, 0.045841, 9.804340,1,1
1777933604922,  2751.812,  2751.812, 0.031635,-0.008252,-0.998875, 0.000330,-0.000089,-0.009988, 0.102327,-0.035013, 0.008716,1,-0.002235,-0.002439, 0.001163,1,-0.207834, 0.045841, 9.804340,1,1
1777933604938,  2751.837,  2751.837, 0.033669,-0.009301,-0.995045, 0.000375,-0.000084,-0.009970, 0.122606,-0.045516, 0.046285,1, 0.000820,-0.000806, 0.000099,1,-0.207546, 0.045717, 9.804347,1,1
1777933604948,  2751.837,  2751.837, 0.033669,-0.009301,-0.995045, 0.000375,-0.000084,-0.009970, 0.122606,-0.045516, 0.046285,1, 0.000820,-0.000806, 0.000099,1,-0.207546, 0.045717, 9.804347,1,1
1777933604960,  2751.862,  2751.857, 0.026955,-0.004647,-0.996688, 0.000267,-0.000065,-0.009971, 0.135360, 0.039705, 0.067570,1,-0.000130,-0.002785, 0.002234,1,-0.207698, 0.045861, 9.804343,1,1
1777933604970,  2751.862,  2751.857, 0.026955,-0.004647,-0.996688, 0.000267,-0.000065,-0.009971, 0.135360, 0.039705, 0.067570,1,-0.000130,-0.002785, 0.002234,1,-0.207698, 0.045861, 9.804343,1,1
1777933604988,  2751.887,  2751.887, 0.015801,-0.011055,-0.990919, 0.000177,-0.000116,-0.009925,-0.052737,-0.062602, 0.086744,1,-0.002204,-0.001971, 0.003861,1,-0.207630, 0.045740, 9.804345,1,1
1777933604998,  2751.887,  2751.887, 0.015801,-0.011055,-0.990919, 0.000177,-0.000116,-0.009925,-0.052737,-0.062602, 0.086744,1,-0.002204,-0.001971, 0.003861,1,-0.207630, 0.045740, 9.804345,1,1
1777933605010,  2751.912,  2751.907, 0.011081,-0.001167,-0.991033, 0.000130, 0.000002,-0.009935,-0.072718, 0.064564,-0.016441,1,-0.000642, 0.003792, 0.004876,1,-0.207787, 0.045299, 9.804344,1,1
1777933605020,  2751.912,  2751.907, 0.011081,-0.001167,-0.991033, 0.000130, 0.000002,-0.009935,-0.072718, 0.064564,-0.016441,1,-0.000642, 0.003792, 0.004876,1,-0.207787, 0.045299, 9.804344,1,1
1777933605037,  2751.937,  2751.937, 0.013796, 0.003807,-0.998549, 0.000129, 0.000035,-0.009988,-0.072245, 0.082414, 0.011934,1,-0.001039, 0.000592, 0.000742,1,-0.207540, 0.045049, 9.804350,1,1
1777933605047,  2751.937,  2751.937, 0.013796, 0.003807,-0.998549, 0.000129, 0.000035,-0.009988,-0.072245, 0.082414, 0.011934,1,-0.001039, 0.000592, 0.000742,1,-0.207540, 0.045049, 9.804350,1,1
1777933605059,  2751.962,  2751.957, 0.015127, 0.000960,-0.999756, 0.000141,-0.000009,-0.009978,-0.101560,-0.009397, 0.105671,1,-0.002938, 0.000778, 0.000877,1,-0.207673, 0.044871, 9.804348,1,1
1777933605069,  2751.962,  2751.957, 0.015127, 0.000960,-0.999756, 0.000141,-0.000009,-0.009978,-0.101560,-0.009397, 0.105671,1,-0.002938, 0.000778, 0.000877,1,-0.207673, 0.044871, 9.804348,1,1
1777933605087,  2751.987,  2751.987, 0.022711, 0.000739,-0.991263, 0.000212, 0.000010,-0.009920, 0.014702, 0.051972, 0.083370,1, 0.001568, 0.002869,-0.000849,1,-0.208111, 0.044770, 9.804339,1,1
1777933605097,  2751.987,  2751.987, 0.022711, 0.000739,-0.991263, 0.000212, 0.000010,-0.009920, 0.014702, 0.051972, 0.083370,1, 0.001568, 0.002869,-0.000849,1,-0.208111, 0.044770, 9.804339,1,1
1777933605109,  2752.012,  2752.007, 0.031764,-0.003557,-0.995083, 0.000306,-0.000036,-0.009947, 0.097897, 0.038922, 0.019905,1, 0.001092, 0.000509,-0.003000,1,-0.208327, 0.044732, 9.804335,1,1
1777933605119,  2752.012,  2752.007, 0.031764,-0.003557,-0.995083, 0.000306,-0.000036,-0.009947, 0.097897, 0.038922, 0.019905,1, 0.001092, 0.000509,-0.003000,1,-0.208327, 0.044732, 9.804335,1,1
1777933605132,  2752.037,  2752.032, 0.031741,-0.009400,-0.997449, 0.000323,-0.000091,-0.009979, 0.102850,-0.047326, 0.022698,1, 0.000441,-0.001661,-0.002722,1,-0.208369, 0.044871, 9.804334,1,1
1777933605142,  2752.037,  2752.032, 0.031741,-0.009400,-0.997449, 0.000323,-0.000091,-0.009979, 0.102850,-0.047326, 0.022698,1, 0.000441,-0.001661,-0.002722,1,-0.208369, 0.044871, 9.804334,1,1
1777933605159,  2752.062,  2752.057, 0.026692,-0.008172,-0.996278, 0.000267,-0.000085,-0.009961, 0.068284,-0.049106, 0.033577,1, 0.001099, 0.000015,-0.000632,1,-0.208354, 0.045073, 9.804333,1,1
1777933605169,  2752.062,  2752.057, 0.026692,-0.008172,-0.996278, 0.000267,-0.000085,-0.009961, 0.068284,-0.049106, 0.033577,1, 0.001099, 0.000015,-0.000632,1,-0.208354, 0.045073, 9.804333,1,1
1777933605182,  2752.082,  2752.082, 0.020220,-0.004281,-0.996933, 0.000203,-0.000043,-0.009974,-0.009957, 0.003218, 0.027762,1, 0.000952, 0.000059, 0.000919,1,-0.208250, 0.045226, 9.804335,1,1
1777933605192,  2752.082,  2752.082, 0.020220,-0.004281,-0.996933, 0.000203,-0.000043,-0.009974,-0.009957, 0.003218, 0.027762,1, 0.000952, 0.000059, 0.000919,1,-0.208250, 0.045226, 9.804335,1,1
1777933605208,  2752.112,  2752.107, 0.012415,-0.002313,-0.996726, 0.000125,-0.000023,-0.009966,-0.059789, 0.016347, 0.045167,1,-0.000947,-0.001671,-0.000318,1,-0.208008, 0.045209, 9.804339,1,1
1777933605218,  2752.112,  2752.107, 0.012415,-0.002313,-0.996726, 0.000125,-0.000023,-0.009966,-0.059789, 0.016347, 0.045167,1,-0.000947,-0.001671,-0.000318,1,-0.208008, 0.045209, 9.804339,1,1
1777933605230,  2752.132,  2752.127, 0.011835,-0.003924,-0.993357, 0.000117,-0.000037,-0.009931,-0.082487, 0.023094, 0.037450,1, 0.001363, 0.000210,-0.001290,1,-0.208219, 0.044882, 9.804337,1,1
1777933605240,  2752.132,  2752.127, 0.011835,-0.003924,-0.993357, 0.000117,-0.000037,-0.009931,-0.082487, 0.023094, 0.037450,1, 0.001363, 0.000210,-0.001290,1,-0.208219, 0.044882, 9.804337,1,1
1777933605258,  2752.157,  2752.157, 0.015413,-0.002594,-0.996476, 0.000151,-0.000027,-0.009968,-0.057282, 0.019256, 0.032239,1, 0.000026, 0.001014,-0.000537,1,-0.208463, 0.044699, 9.804332,1,1
1777933605268,  2752.157,  2752.157, 0.015413,-0.002594,-0.996476, 0.000151,-0.000027,-0.009968,-0.057282, 0.019256, 0.032239,1, 0.000026, 0.001014,-0.000537,1,-0.208463, 0.044699, 9.804332,1,1
1777933605280,  2752.182,  2752.177, 0.022751,-0.002336,-0.995908, 0.000229,-0.000019,-0.009965,-0.002814, 0.018190, 0.042916,1, 0.000162, 0.002155,-0.000349,1,-0.208797, 0.044825, 9.804324,1,1
1777933605290,  2752.182,  2752.177, 0.022751,-0.002336,-0.995908, 0.000229,-0.000019,-0.009965,-0.002814, 0.018190, 0.042916,1, 0.000162, 0.002155,-0.000349,1,-0.208797, 0.044825, 9.804324,1,1
1777933605307,  2752.207,  2752.207, 0.025566,-0.003922,-0.995334, 0.000257,-0.000038,-0.009945, 0.041705, 0.006446, 0.043429,1, 0.000382, 0.000823,-0.002229,1,-0.209041, 0.044916, 9.804318,1,1
1777933605317,  2752.207,  2752.207, 0.025566,-0.003922,-0.995334, 0.000257,-0.000038,-0.009945, 0.041705, 0.006446, 0.043429,1, 0.000382, 0.000823,-0.002229,1,-0.209041, 0.044916, 9.804318,1,1
1777933605329,  2752.232,  2752.227, 0.025553,-0.009122,-0.996403, 0.000251,-0.000092,-0.009963, 0.037139,-0.027401, 0.026359,1,-0.000006, 0.000346,-0.002283,1,-0.209057, 0.044931, 9.804318,1,1
1777933605339,  2752.232,  2752.227, 0.025553,-0.009122,-0.996403, 0.000251,-0.000092,-0.009963, 0.037139,-0.027401, 0.026359,1,-0.000006, 0.000346,-0.002283,1,-0.209057, 0.044931, 9.804318,1,1
1777933605357,  2752.257,  2752.257, 0.024909,-0.007522,-0.996879, 0.000245,-0.000078,-0.009963, 0.035152,-0.028668, 0.028275,1,-0.000640, 0.000685,-0.001047,1,-0.209148, 0.045074, 9.804316,1,1
1777933605367,  2752.257,  2752.257, 0.024909,-0.007522,-0.996879, 0.000245,-0.000078,-0.009963, 0.035152,-0.028668, 0.028275,1,-0.000640, 0.000685,-0.001047,1,-0.209148, 0.045074, 9.804316,1,1
1777933605379,  2752.282,  2752.277, 0.023606,-0.004632,-0.995520, 0.000241,-0.000040,-0.009948, 0.035883, 0.006558, 0.043426,1, 0.000859, 0.001451,-0.000678,1,-0.209361, 0.045130, 9.804311,1,1
1777933605389,  2752.282,  2752.277, 0.023606,-0.004632,-0.995520, 0.000241,-0.000040,-0.009948, 0.035883, 0.006558, 0.043426,1, 0.000859, 0.001451,-0.000678,1,-0.209361, 0.045130, 9.804311,1,1
1777933605402,  2752.307,  2752.302, 0.019649,-0.003805,-0.996084, 0.000195,-0.000033,-0.009965,-0.016794, 0.007909, 0.036060,1, 0.000990, 0.000408,-0.000273,1,-0.209496, 0.045256, 9.804308,1,1
1777933605413,  2752.307,  2752.302, 0.019649,-0.003805,-0.996084, 0.000195,-0.000033,-0.009965,-0.016794, 0.007909, 0.036060,1, 0.000990, 0.000408,-0.000273,1,-0.209496, 0.045256, 9.804308,1,1
1777933605429,  2752.332,  2752.327, 0.015619,-0.007341,-0.996911, 0.000153,-0.000074,-0.009968,-0.058453,-0.025401, 0.037192,1,-0.000585,-0.001389, 0.000118,1,-0.209258, 0.045042, 9.804314,1,1
1777933605439,  2752.332,  2752.327, 0.015619,-0.007341,-0.996911, 0.000153,-0.000074,-0.009968,-0.058453,-0.025401, 0.037192,1,-0.000585,-0.001389, 0.000118,1,-0.209258, 0.045042, 9.804314,1,1
1777933605452,  2752.352,  2752.352, 0.018715,-0.004539,-0.995755, 0.000184,-0.000046,-0.009955,-0.025652, 0.000681, 0.039291,1,-0.000499, 0.000102, 0.000763,1,-0.209187, 0.045179, 9.804315,1,1
1777933605462,  2752.352,  2752.352, 0.018715,-0.004539,-0.995755, 0.000184,-0.000046,-0.009955,-0.025652, 0.000681, 0.039291,1,-0.000499, 0.000102, 0.000763,1,-0.209187, 0.045179, 9.804315,1,1
1777933605478,  2752.382,  2752.377, 0.021520,-0.004499,-0.995099, 0.000215,-0.000044,-0.009953,-0.000038, 0.007497, 0.038832,1,-0.000024, 0.001657,-0.000236,1,-0.209306, 0.045164, 9.804312,1,1
1777933605488,  2752.382,  2752.377, 0.021520,-0.004499,-0.995099, 0.000215,-0.000044,-0.009953,-0.000038, 0.007497, 0.038832,1,-0.000024, 0.001657,-0.000236,1,-0.209306, 0.045164, 9.804312,1,1
1777933605500,  2752.402,  2752.397, 0.022888,-0.004826,-0.996220, 0.000227,-0.000048,-0.009962, 0.006569,-0.001190, 0.040484,1,-0.001304, 0.000424, 0.000168,1,-0.209298, 0.044992, 9.804313,1,1
1777933605510,  2752.402,  2752.397, 0.022888,-0.004826,-0.996220, 0.000227,-0.000048,-0.009962, 0.006569,-0.001190, 0.040484,1,-0.001304, 0.000424, 0.000168,1,-0.209298, 0.044992, 9.804313,1,1
1777933605528,  2752.427,  2752.427, 0.024479,-0.004819,-0.995121, 0.000243,-0.000046,-0.009944, 0.030449,-0.002238, 0.045502,1, 0.000090, 0.000823, 0.000163,1,-0.209629, 0.045025, 9.804306,1,1
1777933605538,  2752.427,  2752.427, 0.024479,-0.004819,-0.995121, 0.000243,-0.000046,-0.009944, 0.030449,-0.002238, 0.045502,1, 0.000090, 0.000823, 0.000163,1,-0.209629, 0.045025, 9.804306,1,1
1777933605550,  2752.452,  2752.447, 0.023404,-0.002027,-0.995268, 0.000239,-0.000025,-0.009947, 0.031581, 0.030469, 0.035526,1, 0.000457, 0.000123, 0.000358,1,-0.209660, 0.044940, 9.804305,1,1
1777933605560,  2752.452,  2752.447, 0.023404,-0.002027,-0.995268, 0.000239,-0.000025,-0.009947, 0.031581, 0.030469, 0.035526,1, 0.000457, 0.000123, 0.000358,1,-0.209660, 0.044940, 9.804305,1,1
1777933605577,  2752.477,  2752.477, 0.020651,-0.003160,-0.996490, 0.000212,-0.000030,-0.009971,-0.007104, 0.014016, 0.032077,1, 0.001086,-0.000170,-0.001389,1,-0.209614, 0.045041, 9.804306,1,1
1777933605587,  2752.477,  2752.477, 0.020651,-0.003160,-0.996490, 0.000212,-0.000030,-0.009971,-0.007104, 0.014016, 0.032077,1, 0.001086,-0.000170,-0.001389,1,-0.209614, 0.045041, 9.804306,1,1
1777933605599,  2752.502,  2752.497, 0.019980,-0.005021,-0.996048, 0.000197,-0.000056,-0.009957,-0.008505,-0.009528, 0.048882,1, 0.000735, 0.000152,-0.001082,1,-0.209643, 0.045189, 9.804305,1,1
1777933605609,  2752.502,  2752.497, 0.019980,-0.005021,-0.996048, 0.000197,-0.000056,-0.009957,-0.008505,-0.009528, 0.048882,1, 0.000735, 0.000152,-0.001082,1,-0.209643, 0.045189, 9.804305,1,1
1777933605627,  2752.527,  2752.527, 0.019882,-0.009648,-0.995593, 0.000199,-0.000094,-0.009974,-0.014528,-0.049414, 0.040872,1, 0.000557,-0.001230,-0.000230,1,-0.209396, 0.045211, 9.804310,1,1
1777933605637,  2752.527,  2752.527, 0.019882,-0.009648,-0.995593, 0.000199,-0.000094,-0.009974,-0.014528,-0.049414, 0.040872,1, 0.000557,-0.001230,-0.000230,1,-0.209396, 0.045211, 9.804310,1,1
1777933605649,  2752.552,  2752.547, 0.019357,-0.003182,-0.996248, 0.000199,-0.000038,-0.009969,-0.013443,-0.005345, 0.032220,1,-0.000723, 0.000280, 0.000751,1,-0.209373, 0.045089, 9.804311,1,1
1777933605659,  2752.552,  2752.547, 0.019357,-0.003182,-0.996248, 0.000199,-0.000038,-0.009969,-0.013443,-0.005345, 0.032220,1,-0.000723, 0.000280, 0.000751,1,-0.209373, 0.045089, 9.804311,1,1
1777933605672,  2752.577,  2752.572, 0.018744,-0.003518,-0.995052, 0.000190,-0.000030,-0.009952,-0.025588, 0.010640, 0.046181,1,-0.000092,-0.000147,-0.000292,1,-0.209400, 0.045136, 9.804310,1,1
1777933605683,  2752.577,  2752.572, 0.018744,-0.003518,-0.995052, 0.000190,-0.000030,-0.009952,-0.025588, 0.010640, 0.046181,1,-0.000092,-0.000147,-0.000292,1,-0.209400, 0.045136, 9.804310,1,1
1777933605699,  2752.602,  2752.597, 0.018798,-0.003773,-0.995745, 0.000175,-0.000035,-0.009955,-0.022031, 0.013981, 0.043794,1, 0.000234,-0.000803,-0.001353,1,-0.209406, 0.045162, 9.804310,1,1
1777933605709,  2752.602,  2752.597, 0.018798,-0.003773,-0.995745, 0.000175,-0.000035,-0.009955,-0.022031, 0.013981, 0.043794,1, 0.000234,-0.000803,-0.001353,1,-0.209406, 0.045162, 9.804310,1,1
1777933605722,  2752.622,  2752.622, 0.019290,-0.005412,-0.995609, 0.000192,-0.000056,-0.009962,-0.020440,-0.007793, 0.040713,1, 0.001103, 0.000452,-0.000775,1,-0.209626, 0.045310, 9.804304,1,1
1777933605732,  2752.622,  2752.622, 0.019290,-0.005412,-0.995609, 0.000192,-0.000056,-0.009962,-0.020440,-0.007793, 0.040713,1, 0.001103, 0.000452,-0.000775,1,-0.209626, 0.045310, 9.804304,1,1
1777933605748,  2752.652,  2752.647, 0.024815,-0.004113,-0.995830, 0.000244,-0.000039,-0.009956, 0.015811, 0.000888, 0.044543,1, 0.000151, 0.000134,-0.000905,1,-0.209772, 0.045342, 9.804301,1,1
1777933605758,  2752.652,  2752.647, 0.024815,-0.004113,-0.995830, 0.000244,-0.000039,-0.009956, 0.015811, 0.000888, 0.044543,1, 0.000151, 0.000134,-0.000905,1,-0.209772, 0.045342, 9.804301,1,1
1777933605772,  2752.672,  2752.672, 0.026610,-0.006667,-0.995487, 0.000265,-0.000064,-0.009954, 0.051098,-0.020103, 0.041904,1,-0.000310,-0.000010,-0.000953,1,-0.209861, 0.045270, 9.804299,1,1
1777933605782,  2752.672,  2752.672, 0.026610,-0.006667,-0.995487, 0.000265,-0.000064,-0.009954, 0.051098,-0.020103, 0.041904,1,-0.000310,-0.000010,-0.000953,1,-0.209861, 0.045270, 9.804299,1,1
1777933605798,  2752.697,  2752.697, 0.026075,-0.009937,-0.996568, 0.000258,-0.000090,-0.009961, 0.045899,-0.052272, 0.031304,1,-0.000285,-0.000426, 0.000171,1,-0.209797, 0.045168, 9.804301,1,1
1777933605808,  2752.697,  2752.697, 0.026075,-0.009937,-0.996568, 0.000258,-0.000090,-0.009961, 0.045899,-0.052272, 0.031304,1,-0.000285,-0.000426, 0.000171,1,-0.209797, 0.045168, 9.804301,1,1
1777933605820,  2752.722,  2752.717, 0.024870,-0.006111,-0.995936, 0.000252,-0.000062,-0.009954, 0.037443,-0.017492, 0.038788,1,-0.000242, 0.000532, 0.001258,1,-0.209824, 0.045181, 9.804301,1,1
1777933605830,  2752.722,  2752.717, 0.024870,-0.006111,-0.995936, 0.000252,-0.000062,-0.009954, 0.037443,-0.017492, 0.038788,1,-0.000242, 0.000532, 0.001258,1,-0.209824, 0.045181, 9.804301,1,1
1777933605847,  2752.747,  2752.747, 0.023599,-0.004736,-0.995167, 0.000239,-0.000048,-0.009952, 0.021660,-0.001048, 0.045047,1,-0.000040,-0.000894, 0.001269,1,-0.209743, 0.045395, 9.804301,1,1
1777933605857,  2752.747,  2752.747, 0.023599,-0.004736,-0.995167, 0.000239,-0.000048,-0.009952, 0.021660,-0.001048, 0.045047,1,-0.000040,-0.000894, 0.001269,1,-0.209743, 0.045395, 9.804301,1,1
1777933605869,  2752.772,  2752.767, 0.020881,-0.007144,-0.996053, 0.000211,-0.000069,-0.009954, 0.008864,-0.017069, 0.031605,1, 0.000240,-0.001655, 0.001311,1,-0.209466, 0.045383, 9.804308,1,1
1777933605879,  2752.772,  2752.767, 0.020881,-0.007144,-0.996053, 0.000211,-0.000069,-0.009954, 0.008864,-0.017069, 0.031605,1, 0.000240,-0.001655, 0.001311,1,-0.209466, 0.045383, 9.804308,1,1
1777933605897,  2752.797,  2752.797, 0.019128,-0.003929,-0.996469, 0.000190,-0.000046,-0.009964,-0.021714, 0.006709, 0.032285,1,-0.000512,-0.000193, 0.002139,1,-0.209285, 0.045225, 9.804313,1,1
1777933605907,  2752.797,  2752.797, 0.019128,-0.003929,-0.996469, 0.000190,-0.000046,-0.009964,-0.021714, 0.006709, 0.032285,1,-0.000512,-0.000193, 0.002139,1,-0.209285, 0.045225, 9.804313,1,1
1777933605919,  2752.822,  2752.817, 0.016594, 0.000135,-0.995059, 0.000169,-0.000003,-0.009953,-0.034075, 0.032047, 0.044678,1,-0.000788, 0.000672, 0.001063,1,-0.209369, 0.045105, 9.804311,1,1
1777933605929,  2752.822,  2752.817, 0.016594, 0.000135,-0.995059, 0.000169,-0.000003,-0.009953,-0.034075, 0.032047, 0.044678,1,-0.000788, 0.000672, 0.001063,1,-0.209369, 0.045105, 9.804311,1,1
1777933605942,  2752.847,  2752.842, 0.015100, 0.001070,-0.994892, 0.000154, 0.000011,-0.009954,-0.061290, 0.055546, 0.047749,1,-0.000932, 0.000029,-0.000331,1,-0.209373, 0.045020, 9.804312,1,1
1777933605953,  2752.847,  2752.842, 0.015100, 0.001070,-0.994892, 0.000154, 0.000011,-0.009954,-0.061290, 0.055546, 0.047749,1,-0.000932, 0.000029,-0.000331,1,-0.209373, 0.045020, 9.804312,1,1
1777933605969,  2752.872,  2752.867, 0.018227,-0.001247,-0.995471, 0.000180,-0.000008,-0.009955,-0.046506, 0.048823, 0.043683,1,-0.000231, 0.001450,-0.001416,1,-0.209586, 0.045053, 9.804307,1,1
1777933605979,  2752.872,  2752.867, 0.018227,-0.001247,-0.995471, 0.000180,-0.000008,-0.009955,-0.046506, 0.048823, 0.043683,1,-0.000231, 0.001450,-0.001416,1,-0.209586, 0.045053, 9.804307,1,1
1777933605992,  2752.897,  2752.892, 0.022292,-0.004723,-0.994982, 0.000218,-0.000045,-0.009947, 0.008777,-0.001110, 0.046857,1, 0.000687, 0.000978,-0.003142,1,-0.209868, 0.045228, 9.804299,1,1
1777933606002,  2752.897,  2752.892, 0.022292,-0.004723,-0.994982, 0.000218,-0.000045,-0.009947, 0.008777,-0.001110, 0.046857,1, 0.000687, 0.000978,-0.003142,1,-0.209868, 0.045228, 9.804299,1,1
1777933606018,  2752.922,  2752.917, 0.027123,-0.008782,-0.996420, 0.000270,-0.000087,-0.009963, 0.038479,-0.029468, 0.033805,1, 0.000446, 0.001342,-0.002006,1,-0.210127, 0.045340, 9.804294,1,1
1777933606028,  2752.922,  2752.917, 0.027123,-0.008782,-0.996420, 0.000270,-0.000087,-0.009963, 0.038479,-0.029468, 0.033805,1, 0.000446, 0.001342,-0.002006,1,-0.210127, 0.045340, 9.804294,1,1
1777933606042,  2752.942,  2752.942, 0.028014,-0.007331,-0.995539, 0.000276,-0.000077,-0.009958, 0.064754,-0.026882, 0.041393,1, 0.001114, 0.000380,-0.000823,1,-0.209980, 0.045039, 9.804298,1,1
1777933606052,  2752.942,  2752.942, 0.028014,-0.007331,-0.995539, 0.000276,-0.000077,-0.009958, 0.064754,-0.026882, 0.041393,1, 0.001114, 0.000380,-0.000823,1,-0.209980, 0.045039, 9.804298,1,1
1777933606068,  2752.967,  2752.967, 0.025048,-0.008558,-0.999066, 0.000233,-0.000059,-0.009966, 0.035521,-0.038882, 0.006802,1, 0.000397, 0.001216,-0.000022,1,-0.210154, 0.045059, 9.804295,1,1
1777933606078,  2752.967,  2752.967, 0.025048,-0.008558,-0.999066, 0.000233,-0.000059,-0.009966, 0.035521,-0.038882, 0.006802,1, 0.000397, 0.001216,-0.000022,1,-0.210154, 0.045059, 9.804295,1,1
1777933606090,  2752.992,  2752.987, 0.018180,-0.002134,-0.995770, 0.000184,-0.000026,-0.009945,-0.014080, 0.017127, 0.027914,1, 0.000241, 0.000346, 0.000655,1,-0.210189, 0.045095, 9.804294,1,1
1777933606100,  2752.992,  2752.987, 0.018180,-0.002134,-0.995770, 0.000184,-0.000026,-0.009945,-0.014080, 0.017127, 0.027914,1, 0.000241, 0.000346, 0.000655,1,-0.210189, 0.045095, 9.804294,1,1
1777933606117,  2753.017,  2753.017, 0.019455,-0.001540,-0.995874, 0.000191,-0.000012,-0.009958,-0.019435, 0.030114, 0.038102,1, 0.000719, 0.000540,-0.001046,1,-0.210246, 0.045241, 9.804292,1,1
1777933606127,  2753.017,  2753.017, 0.019455,-0.001540,-0.995874, 0.000191,-0.000012,-0.009958,-0.019435, 0.030114, 0.038102,1, 0.000719, 0.000540,-0.001046,1,-0.210246, 0.045241, 9.804292,1,1
1777933606139,  2753.042,  2753.037, 0.023235,-0.004589,-0.996638, 0.000227,-0.000045,-0.009959, 0.003393, 0.003336, 0.049559,1, 0.000330,-0.000361,-0.001639,1,-0.210253, 0.045274, 9.804292,1,1
1777933606149,  2753.042,  2753.037, 0.023235,-0.004589,-0.996638, 0.000227,-0.000045,-0.009959, 0.003393, 0.003336, 0.049559,1, 0.000330,-0.000361,-0.001639,1,-0.210253, 0.045274, 9.804292,1,1
1777933606167,  2753.067,  2753.067, 0.026215,-0.003134,-0.997706, 0.000248,-0.000051,-0.009969, 0.046724, 0.014711, 0.020136,1, 0.000652, 0.000952,-0.001594,1,-0.210385, 0.045467, 9.804288,1,1
1777933606177,  2753.067,  2753.067, 0.026215,-0.003134,-0.997706, 0.000248,-0.000051,-0.009969, 0.046724, 0.014711, 0.020136,1, 0.000652, 0.000952,-0.001594,1,-0.210385, 0.045467, 9.804288,1,1
1777933606189,  2753.092,  2753.087, 0.026499,-0.008001,-0.996880, 0.000223,-0.000079,-0.009963, 0.048843,-0.051390, 0.032620,1, 0.001660,-0.001798,-0.001308,1,-0.210357, 0.045575, 9.804288,1,1
1777933606199,  2753.092,  2753.087, 0.026499,-0.008001,-0.996880, 0.000223,-0.000079,-0.009963, 0.048843,-0.051390, 0.032620,1, 0.001660,-0.001798,-0.001308,1,-0.210357, 0.045575, 9.804288,1,1
1777933606217,  2753.117,  2753.117, 0.019936,-0.006727,-0.998982, 0.000197,-0.000060,-0.009969,-0.014801,-0.020448, 0.007625,1,-0.001625,-0.000971, 0.000247,1,-0.210275, 0.045474, 9.804290,1,1
1777933606227,  2753.117,  2753.117, 0.019936,-0.006727,-0.998982, 0.000197,-0.000060,-0.009969,-0.014801,-0.020448, 0.007625,1,-0.001625,-0.000971, 0.000247,1,-0.210275, 0.045474, 9.804290,1,1
1777933606239,  2753.142,  2753.137, 0.018510, 0.001989,-0.996328, 0.000184, 0.000014,-0.009947,-0.034852, 0.063775, 0.055065,1, 0.000606, 0.000029, 0.000123,1,-0.210876, 0.045969, 9.804275,1,1
1777933606249,  2753.142,  2753.137, 0.018510, 0.001989,-0.996328, 0.000184, 0.000014,-0.009947,-0.034852, 0.063775, 0.055065,1, 0.000606, 0.000029, 0.000123,1,-0.210876, 0.045969, 9.804275,1,1
1777933606262,  2753.167,  2753.162, 0.019337,-0.000269,-0.996057, 0.000189, 0.000001,-0.009962,-0.021459, 0.043395, 0.036288,1, 0.000516, 0.000183,-0.002779,1,-0.211101, 0.046051, 9.804270,1,1
1777933606272,  2753.167,  2753.162, 0.019337,-0.000269,-0.996057, 0.000189, 0.000001,-0.009962,-0.021459, 0.043395, 0.036288,1, 0.000516, 0.000183,-0.002779,1,-0.211101, 0.046051, 9.804270,1,1
1777933606288,  2753.192,  2753.187, 0.021831,-0.005883,-0.995520, 0.000226,-0.000066,-0.009967,-0.007271, 0.018404, 0.029099,1, 0.001216, 0.000952,-0.003294,1,-0.211221, 0.046145, 9.804266,1,1
1777933606298,  2753.192,  2753.187, 0.021831,-0.005883,-0.995520, 0.000226,-0.000066,-0.009967,-0.007271, 0.018404, 0.029099,1, 0.001216, 0.000952,-0.003294,1,-0.211221, 0.046145, 9.804266,1,1
1777933606312,  2753.212,  2753.212, 0.025724,-0.008200,-0.995974, 0.000251,-0.000090,-0.009966, 0.040968,-0.034009, 0.037097,1, 0.000241, 0.000032,-0.002094,1,-0.211299, 0.046416, 9.804263,1,1
1777933606322,  2753.212,  2753.212, 0.025724,-0.008200,-0.995974, 0.000251,-0.000090,-0.009966, 0.040968,-0.034009, 0.037097,1, 0.000241, 0.000032,-0.002094,1,-0.211299, 0.046416, 9.804263,1,1
1777933606338,  2753.237,  2753.237, 0.025437,-0.009408,-0.997156, 0.000254,-0.000095,-0.009967, 0.038203,-0.045832, 0.025505,1,-0.000196, 0.001077,-0.001511,1,-0.211286, 0.046425, 9.804264,1,1
1777933606348,  2753.237,  2753.237, 0.025437,-0.009408,-0.997156, 0.000254,-0.000095,-0.009967, 0.038203,-0.045832, 0.025505,1,-0.000196, 0.001077,-0.001511,1,-0.211286, 0.046425, 9.804264,1,1
1777933606360,  2753.262,  2753.257, 0.021315,-0.004161,-0.995947, 0.000212,-0.000035,-0.009959, 0.010831,-0.011398, 0.040297,1,-0.000024, 0.000072, 0.000086,1,-0.211283, 0.046375, 9.804264,1,1
1777933606370,  2753.262,  2753.257, 0.021315,-0.004161,-0.995947, 0.000212,-0.000035,-0.009959, 0.010831,-0.011398, 0.040297,1,-0.000024, 0.000072, 0.000086,1,-0.211283, 0.046375, 9.804264,1,1
1777933606387,  2753.287,  2753.287, 0.018698,-0.003602,-0.995537, 0.000186,-0.000034,-0.009952,-0.028057, 0.011133, 0.041374,1, 0.000049, 0.000065,-0.000576,1,-0.211427, 0.046457, 9.804260,1,1
1777933606398,  2753.287,  2753.287, 0.018698,-0.003602,-0.995537, 0.000186,-0.000034,-0.009952,-0.028057, 0.011133, 0.041374,1, 0.000049, 0.000065,-0.000576,1,-0.211427, 0.046457, 9.804260,1,1
1777933606409,  2753.312,  2753.307, 0.016870,-0.006299,-0.994752, 0.000158,-0.000067,-0.009948,-0.050561,-0.007440, 0.029013,1, 0.000848, 0.001302,-0.000712,1,-0.211592, 0.046540, 9.804256,1,1
1777933606420,  2753.312,  2753.307, 0.016870,-0.006299,-0.994752, 0.000158,-0.000067,-0.009948,-0.050561,-0.007440, 0.029013,1, 0.000848, 0.001302,-0.000712,1,-0.211592, 0.046540, 9.804256,1,1
1777933606437,  2753.337,  2753.337, 0.020953,-0.006322,-0.997489, 0.000202,-0.000063,-0.009962,-0.005896,-0.015608, 0.022239,1,-0.000265, 0.000916, 0.000551,1,-0.211396, 0.046379, 9.804261,1,1
1777933606447,  2753.337,  2753.337, 0.020953,-0.006322,-0.997489, 0.000202,-0.000063,-0.009962,-0.005896,-0.015608, 0.022239,1,-0.000265, 0.000916, 0.000551,1,-0.211396, 0.046379, 9.804261,1,1
1777933606459,  2753.362,  2753.357, 0.027241,-0.003779,-0.995451, 0.000278,-0.000037,-0.009949, 0.042999, 0.008149, 0.048216,1,-0.000622,-0.000602,-0.000142,1,-0.211431, 0.046321, 9.804261,1,1
1777933606469,  2753.362,  2753.357, 0.027241,-0.003779,-0.995451, 0.000278,-0.000037,-0.009949, 0.042999, 0.008149, 0.048216,1,-0.000622,-0.000602,-0.000142,1,-0.211431, 0.046321, 9.804261,1,1
1777933606487,  2753.387,  2753.387, 0.027187,-0.003763,-0.995361, 0.000277,-0.000036,-0.009956, 0.055115, 0.009461, 0.043106,1,-0.000239,-0.000057,-0.001149,1,-0.211500, 0.046352, 9.804259,1,1
1777933606497,  2753.387,  2753.387, 0.027187,-0.003763,-0.995361, 0.000277,-0.000036,-0.009956, 0.055115, 0.009461, 0.043106,1,-0.000239,-0.000057,-0.001149,1,-0.211500, 0.046352, 9.804259,1,1
1777933606509,  2753.412,  2753.407, 0.021134,-0.003472,-0.995626, 0.000215,-0.000035,-0.009957, 0.015713, 0.013714, 0.040057,1, 0.000508, 0.000323,-0.001343,1,-0.211548, 0.046404, 9.804258,1,1
1777933606519,  2753.412,  2753.407, 0.021134,-0.003472,-0.995626, 0.000215,-0.000035,-0.009957, 0.015713, 0.013714, 0.040057,1, 0.000508, 0.000323,-0.001343,1,-0.211548, 0.046404, 9.804258,1,1
1777933606532,  2753.437,  2753.432, 0.018694,-0.002580,-0.995948, 0.000185,-0.000024,-0.009960,-0.028379, 0.021271, 0.037335,1, 0.000491, 0.000783,-0.001519,1,-0.211732, 0.046591, 9.804254,1,1
1777933606542,  2753.437,  2753.432, 0.018694,-0.002580,-0.995948, 0.000185,-0.000024,-0.009960,-0.028379, 0.021271, 0.037335,1, 0.000491, 0.000783,-0.001519,1,-0.211732, 0.046591, 9.804254,1,1
1777933606558,  2753.462,  2753.457, 0.017674,-0.005872,-0.997554, 0.000177,-0.000048,-0.009965,-0.050315, 0.008291, 0.040519,1, 0.001081, 0.001481,-0.002016,1,-0.211949, 0.046775, 9.804248,1,1
1777933606568,  2753.462,  2753.457, 0.017674,-0.005872,-0.997554, 0.000177,-0.000048,-0.009965,-0.050315, 0.008291, 0.040519,1, 0.001081, 0.001481,-0.002016,1,-0.211949, 0.046775, 9.804248,1,1
1777933606582,  2753.482,  2753.482, 0.018519,-0.009633,-0.997710, 0.000196,-0.000088,-0.009999,-0.030412,-0.047548, 0.020052,1, 0.000471,-0.000400,-0.001972,1,-0.212010, 0.046932, 9.804246,1,1
1777933606592,  2753.482,  2753.482, 0.018519,-0.009633,-0.997710, 0.000196,-0.000088,-0.009999,-0.030412,-0.047548, 0.020052,1, 0.000471,-0.000400,-0.001972,1,-0.212010, 0.046932, 9.804246,1,1
1777933606608,  2753.507,  2753.507, 0.021000,-0.010926,-0.993605, 0.000205,-0.000121,-0.009947,-0.006232,-0.060175, 0.060303,1, 0.000634, 0.001212,-0.000433,1,-0.212213, 0.046992, 9.804241,1,1
1777933606618,  2753.507,  2753.507, 0.021000,-0.010926,-0.993605, 0.000205,-0.000121,-0.009947,-0.006232,-0.060175, 0.060303,1, 0.000634, 0.001212,-0.000433,1,-0.212213, 0.046992, 9.804241,1,1
1777933606630,  2753.532,  2753.527, 0.026783,-0.005992,-0.994712, 0.000270,-0.000066,-0.009953, 0.028139,-0.029325, 0.035201,1, 0.000023, 0.001674, 0.001252,1,-0.212236, 0.047137, 9.804240,1,1
1777933606640,  2753.532,  2753.527, 0.026783,-0.005992,-0.994712, 0.000270,-0.000066,-0.009953, 0.028139,-0.029325, 0.035201,1, 0.000023, 0.001674, 0.001252,1,-0.212236, 0.047137, 9.804240,1,1
1777933606657,  2753.557,  2753.557, 0.028154,-0.002180,-0.995512, 0.000286,-0.000024,-0.009953, 0.063793, 0.025537, 0.041603,1,-0.000431,-0.000295, 0.001534,1,-0.212293, 0.046900, 9.804239,1,1
1777933606668,  2753.557,  2753.557, 0.028154,-0.002180,-0.995512, 0.000286,-0.000024,-0.009953, 0.063793, 0.025537, 0.041603,1,-0.000431,-0.000295, 0.001534,1,-0.212293, 0.046900, 9.804239,1,1
1777933606680,  2753.582,  2753.577, 0.023025,-0.005103,-0.995625, 0.000235,-0.000054,-0.009952, 0.048455, 0.002936, 0.043032,1,-0.000263,-0.001164, 0.000884,1,-0.212244, 0.046937, 9.804240,1,1
1777933606690,  2753.582,  2753.577, 0.023025,-0.005103,-0.995625, 0.000235,-0.000054,-0.009952, 0.048455, 0.002936, 0.043032,1,-0.000263,-0.001164, 0.000884,1,-0.212244, 0.046937, 9.804240,1,1
1777933606707,  2753.607,  2753.607, 0.018973,-0.005954,-0.995698, 0.000192,-0.000056,-0.009957,-0.025944,-0.011588, 0.039785,1,-0.000257,-0.001267, 0.000743,1,-0.211963, 0.046789, 9.804248,1,1
1777933606717,  2753.607,  2753.607, 0.018973,-0.005954,-0.995698, 0.000192,-0.000056,-0.009957,-0.025944,-0.011588, 0.039785,1,-0.000257,-0.001267, 0.000743,1,-0.211963, 0.046789, 9.804248,1,1
1777933606729,  2753.632,  2753.627, 0.018470,-0.001385,-0.995768, 0.000184,-0.000017,-0.009962,-0.039088, 0.012857, 0.030557,1,-0.001582,-0.000541, 0.001737,1,-0.211862, 0.046613, 9.804251,1,1
1777933606739,  2753.632,  2753.627, 0.018470,-0.001385,-0.995768, 0.000184,-0.000017,-0.009962,-0.039088, 0.012857, 0.030557,1,-0.001582,-0.000541, 0.001737,1,-0.211862, 0.046613, 9.804251,1,1
1777933606757,  2753.657,  2753.657, 0.019740,-0.000922,-0.995200, 0.000197,-0.000008,-0.009951,-0.018469, 0.037651, 0.044665,1,-0.000283, 0.000252,-0.000556,1,-0.212062, 0.046684, 9.804246,1,1
1777933606767,  2753.657,  2753.657, 0.019740,-0.000922,-0.995200, 0.000197,-0.000008,-0.009951,-0.018469, 0.037651, 0.044665,1,-0.000283, 0.000252,-0.000556,1,-0.212062, 0.046684, 9.804246,1,1
1777933606779,  2753.682,  2753.677, 0.020097,-0.006254,-0.995759, 0.000200,-0.000060,-0.009954,-0.019498, 0.009327, 0.042963,1, 0.000852, 0.000439,-0.001422,1,-0.212131, 0.046820, 9.804244,1,1
1777933606789,  2753.682,  2753.677, 0.020097,-0.006254,-0.995759, 0.000200,-0.000060,-0.009954,-0.019498, 0.009327, 0.042963,1, 0.000852, 0.000439,-0.001422,1,-0.212131, 0.046820, 9.804244,1,1
1777933606802,  2753.707,  2753.702, 0.020311,-0.009140,-0.996807, 0.000201,-0.000092,-0.009967,-0.013058,-0.042905, 0.028902,1,-0.000069, 0.000609,-0.000460,1,-0.212256, 0.046722, 9.804241,1,1
1777933606812,  2753.707,  2753.702, 0.020311,-0.009140,-0.996807, 0.000201,-0.000092,-0.009967,-0.013058,-0.042905, 0.028902,1,-0.000069, 0.000609,-0.000460,1,-0.212256, 0.046722, 9.804241,1,1
1777933606828,  2753.732,  2753.727, 0.024574,-0.004770,-0.995718, 0.000242,-0.000052,-0.009956, 0.014961,-0.020081, 0.046879,1,-0.000814, 0.000365, 0.000779,1,-0.212421, 0.046676, 9.804238,1,1
1777933606838,  2753.732,  2753.727, 0.024574,-0.004770,-0.995718, 0.000242,-0.000052,-0.009956, 0.014961,-0.020081, 0.046879,1,-0.000814, 0.000365, 0.000779,1,-0.212421, 0.046676, 9.804238,1,1
1777933606852,  2753.752,  2753.752, 0.027169,-0.003524,-0.995042, 0.000271,-0.000033,-0.009948, 0.054017, 0.012007, 0.046213,1, 0.000196,-0.000913, 0.000933,1,-0.212396, 0.046573, 9.804239,1,1
1777933606862,  2753.752,  2753.752, 0.027169,-0.003524,-0.995042, 0.000271,-0.000033,-0.009948, 0.054017, 0.012007, 0.046213,1, 0.000196,-0.000913, 0.000933,1,-0.212396, 0.046573, 9.804239,1,1
1777933606878,  2753.777,  2753.777, 0.025835,-0.004483,-0.996130, 0.000259,-0.000046,-0.009963, 0.040988, 0.002511, 0.035544,1,-0.000399,-0.000075, 0.000763,1,-0.212360, 0.046461, 9.804240,1,1
1777933606888,  2753.777,  2753.777, 0.025835,-0.004483,-0.996130, 0.000259,-0.000046,-0.009963, 0.040988, 0.002511, 0.035544,1,-0.000399,-0.000075, 0.000763,1,-0.212360, 0.046461, 9.804240,1,1
1777933606900,  2753.802,  2753.797, 0.019316,-0.007098,-0.996151, 0.000194,-0.000075,-0.009963,-0.003671,-0.029582, 0.039996,1,-0.000853,-0.000763, 0.001561,1,-0.212217, 0.046380, 9.804244,1,1
1777933606910,  2753.802,  2753.797, 0.019316,-0.007098,-0.996151, 0.000194,-0.000075,-0.009963,-0.003671,-0.029582, 0.039996,1,-0.000853,-0.000763, 0.001561,1,-0.212217, 0.046380, 9.804244,1,1
1777933606927,  2753.827,  2753.827, 0.017681,-0.003380,-0.995311, 0.000177,-0.000038,-0.009953,-0.038766, 0.013195, 0.043577,1,-0.000208,-0.000461, 0.001146,1,-0.212142, 0.046337, 9.804246,1,1
1777933606938,  2753.827,  2753.827, 0.017681,-0.003380,-0.995311, 0.000177,-0.000038,-0.009953,-0.038766, 0.013195, 0.043577,1,-0.000208,-0.000461, 0.001146,1,-0.212142, 0.046337, 9.804246,1,1
1777933606950,  2753.847,  2753.847, 0.017490,-0.002651,-0.995672, 0.000175,-0.000025,-0.009955,-0.040533, 0.020282, 0.040040,1, 0.000014,-0.000270, 0.000190,1,-0.212044, 0.046282, 9.804248,1,1
1777933606960,  2753.847,  2753.847, 0.017490,-0.002651,-0.995672, 0.000175,-0.000025,-0.009955,-0.040533, 0.020282, 0.040040,1, 0.000014,-0.000270, 0.000190,1,-0.212044, 0.046282, 9.804248,1,1
1777933606977,  2753.877,  2753.877, 0.020555,-0.004874,-0.995890, 0.000204,-0.000047,-0.009958,-0.010451,-0.001621, 0.037901,1,-0.000270,-0.000644, 0.001143,1,-0.212003, 0.046170, 9.804250,1,1
1777933606987,  2753.877,  2753.877, 0.020555,-0.004874,-0.995890, 0.000204,-0.000047,-0.009958,-0.010451,-0.001621, 0.037901,1,-0.000270,-0.000644, 0.001143,1,-0.212003, 0.046170, 9.804250,1,1
1777933606999,  2753.902,  2753.897, 0.023113,-0.003551,-0.995403, 0.000230,-0.000035,-0.009951, 0.009691, 0.002689, 0.043543,1,-0.000247, 0.000371, 0.000811,1,-0.212128, 0.046181, 9.804247,1,1
1777933607009,  2753.902,  2753.897, 0.023113,-0.003551,-0.995403, 0.000230,-0.000035,-0.009951, 0.009691, 0.002689, 0.043543,1,-0.000247, 0.000371, 0.000811,1,-0.212128, 0.046181, 9.804247,1,1
1777933607027,  2753.927,  2753.927, 0.022453,-0.004228,-0.995687, 0.000225,-0.000041,-0.009958, 0.007986, 0.004702, 0.039892,1,-0.001119, 0.000114,-0.000200,1,-0.212270, 0.046129, 9.804244,1,1
1777933607037,  2753.927,  2753.927, 0.022453,-0.004228,-0.995687, 0.000225,-0.000041,-0.009958, 0.007986, 0.004702, 0.039892,1,-0.001119, 0.000114,-0.000200,1,-0.212270, 0.046129, 9.804244,1,1
1777933607049,  2753.952,  2753.947, 0.021302,-0.005173,-0.996161, 0.000213,-0.000053,-0.009964, 0.001072,-0.004321, 0.032916,1,-0.000430, 0.000049, 0.000219,1,-0.212299, 0.046015, 9.804244,1,1
1777933607059,  2753.952,  2753.947, 0.021302,-0.005173,-0.996161, 0.000213,-0.000053,-0.009964, 0.001072,-0.004321, 0.032916,1,-0.000430, 0.000049, 0.000219,1,-0.212299, 0.046015, 9.804244,1,1
1777933607072,  2753.977,  2753.972, 0.020861,-0.006279,-0.995585, 0.000211,-0.000062,-0.009956,-0.007917,-0.015596, 0.040886,1,-0.000488, 0.000750,-0.000044,1,-0.212514, 0.045963, 9.804239,1,1
1777933607083,  2753.977,  2753.972, 0.020861,-0.006279,-0.995585, 0.000211,-0.000062,-0.009956,-0.007917,-0.015596, 0.040886,1,-0.000488, 0.000750,-0.000044,1,-0.212514, 0.045963, 9.804239,1,1
1777933607098,  2754.002,  2753.997, 0.021195,-0.005372,-0.995991, 0.000210,-0.000054,-0.009960,-0.007508,-0.013506, 0.034584,1,-0.000095, 0.000085, 0.000647,1,-0.212423, 0.045914, 9.804241,1,1
1777933607109,  2754.002,  2753.997, 0.021195,-0.005372,-0.995991, 0.000210,-0.000054,-0.009960,-0.007508,-0.013506, 0.034584,1,-0.000095, 0.000085, 0.000647,1,-0.212423, 0.045914, 9.804241,1,1
1777933607122,  2754.022,  2754.022, 0.022437,-0.002310,-0.995439, 0.000224,-0.000025,-0.009957, 0.007550, 0.023199, 0.042322,1, 0.000170, 0.000937, 0.001038,1,-0.212513, 0.045862, 9.804240,1,1
1777933607132,  2754.022,  2754.022, 0.022437,-0.002310,-0.995439, 0.000224,-0.000025,-0.009957, 0.007550, 0.023199, 0.042322,1, 0.000170, 0.000937, 0.001038,1,-0.212513, 0.045862, 9.804240,1,1
1777933607148,  2754.047,  2754.047, 0.022559,-0.001786,-0.994952, 0.000229,-0.000018,-0.009951, 0.008636, 0.028416, 0.047088,1, 0.000957, 0.000282,-0.000582,1,-0.212598, 0.045960, 9.804237,1,1
1777933607158,  2754.047,  2754.047, 0.022559,-0.001786,-0.994952, 0.000229,-0.000018,-0.009951, 0.008636, 0.028416, 0.047088,1, 0.000957, 0.000282,-0.000582,1,-0.212598, 0.045960, 9.804237,1,1
1777933607170,  2754.072,  2754.067, 0.020985,-0.008200,-0.995787, 0.000210,-0.000077,-0.009959,-0.005240,-0.019756, 0.035873,1, 0.000151, 0.000800,-0.000234,1,-0.212673, 0.045876, 9.804236,1,1
1777933607180,  2754.072,  2754.067, 0.020985,-0.008200,-0.995787, 0.000210,-0.000077,-0.009959,-0.005240,-0.019756, 0.035873,1, 0.000151, 0.000800,-0.000234,1,-0.212673, 0.045876, 9.804236,1,1
1777933607198,  2754.097,  2754.097, 0.022042,-0.008120,-0.996716, 0.000220,-0.000081,-0.009966, 0.003525,-0.033694, 0.029788,1,-0.000390, 0.000251, 0.001439,1,-0.212638, 0.045929, 9.804236,1,1
1777933607208,  2754.097,  2754.097, 0.022042,-0.008120,-0.996716, 0.000220,-0.000081,-0.009966, 0.003525,-0.033694, 0.029788,1,-0.000390, 0.000251, 0.001439,1,-0.212638, 0.045929, 9.804236,1,1
1777933607220,  2754.122,  2754.117, 0.022203,-0.002694,-0.995936, 0.000223,-0.000028,-0.009958, 0.006096,-0.003061, 0.040930,1, 0.000733, 0.000346, 0.001156,1,-0.212685, 0.045925, 9.804235,1,1
1777933607231,  2754.122,  2754.117, 0.022203,-0.002694,-0.995936, 0.000223,-0.000028,-0.009958, 0.006096,-0.003061, 0.040930,1, 0.000733, 0.000346, 0.001156,1,-0.212685, 0.045925, 9.804235,1,1
1777933607248,  2754.147,  2754.147, 0.021479,-0.002683,-0.995360, 0.000215,-0.000030,-0.009954,-0.002206, 0.019717, 0.043080,1,-0.000140, 0.001032, 0.000120,1,-0.212877, 0.046023, 9.804232,1,1
1777933607258,  2754.147,  2754.147, 0.021479,-0.002683,-0.995360, 0.000215,-0.000030,-0.009954,-0.002206, 0.019717, 0.043080,1,-0.000140, 0.001032, 0.000120,1,-0.212877, 0.046023, 9.804232,1,1
1777933607269,  2754.172,  2754.167, 0.021042,-0.004350,-0.995955, 0.000213,-0.000045,-0.009969,-0.011960,-0.007691, 0.035696,1,-0.000471,-0.000324, 0.001335,1,-0.212763, 0.045942, 9.804235,1,1
1777933607279,  2754.172,  2754.167, 0.021042,-0.004350,-0.995955, 0.000213,-0.000045,-0.009969,-0.011960,-0.007691, 0.035696,1,-0.000471,-0.000324, 0.001335,1,-0.212763, 0.045942, 9.804235,1,1
1777933607297,  2754.197,  2754.197, 0.023035,-0.004029,-0.995502, 0.000229,-0.000040,-0.009953, 0.013067, 0.006442, 0.041693,1, 0.000438, 0.000254, 0.000509,1,-0.212838, 0.045969, 9.804233,1,1
1777933607307,  2754.197,  2754.197, 0.023035,-0.004029,-0.995502, 0.000229,-0.000040,-0.009953, 0.013067, 0.006442, 0.041693,1, 0.000438, 0.000254, 0.000509,1,-0.212838, 0.045969, 9.804233,1,1
1777933607319,  2754.222,  2754.217, 0.022302,-0.002993,-0.995011, 0.000223,-0.000027,-0.009946, 0.016757, 0.030909, 0.044626,1, 0.000303, 0.000615, 0.000273,1,-0.212863, 0.046018, 9.804232,1,1
1777933607329,  2754.222,  2754.217, 0.022302,-0.002993,-0.995011, 0.000223,-0.000027,-0.009946, 0.016757, 0.030909, 0.044626,1, 0.000303, 0.000615, 0.000273,1,-0.212863, 0.046018, 9.804232,1,1
1777933607342,  2754.247,  2754.242, 0.019931,-0.005690,-0.995859, 0.000199,-0.000056,-0.009958,-0.017192,-0.009662, 0.038193,1, 0.001066,-0.000122,-0.000511,1,-0.212642, 0.046173, 9.804235,1,1
1777933607352,  2754.247,  2754.242, 0.019931,-0.005690,-0.995859, 0.000199,-0.000056,-0.009958,-0.017192,-0.009662, 0.038193,1, 0.001066,-0.000122,-0.000511,1,-0.212642, 0.046173, 9.804235,1,1
1777933607368,  2754.272,  2754.267, 0.020572,-0.004557,-0.996128, 0.000204,-0.000046,-0.009959,-0.022448,-0.011299, 0.036141,1, 0.000150, 0.000359,-0.000311,1,-0.212684, 0.046305, 9.804235,1,1
1777933607379,  2754.272,  2754.267, 0.020572,-0.004557,-0.996128, 0.000204,-0.000046,-0.009959,-0.022448,-0.011299, 0.036141,1, 0.000150, 0.000359,-0.000311,1,-0.212684, 0.046305, 9.804235,1,1
1777933607392,  2754.292,  2754.292, 0.022526,-0.002703,-0.994825, 0.000227,-0.000028,-0.009948, 0.008099, 0.019881, 0.048333,1, 0.000057,-0.000508,-0.001513,1,-0.212791, 0.046387, 9.804232,1,1
1777933607402,  2754.292,  2754.292, 0.022526,-0.002703,-0.994825, 0.000227,-0.000028,-0.009948, 0.008099, 0.019881, 0.048333,1, 0.000057,-0.000508,-0.001513,1,-0.212791, 0.046387, 9.804232,1,1
1777933607418,  2754.317,  2754.317, 0.023161,-0.005318,-0.996317, 0.000232,-0.000049,-0.009965, 0.014266,-0.005744, 0.033697,1, 0.000258, 0.000058,-0.001188,1,-0.212871, 0.046411, 9.804230,1,1
1777933607428,  2754.317,  2754.317, 0.023161,-0.005318,-0.996317, 0.000232,-0.000049,-0.009965, 0.014266,-0.005744, 0.033697,1, 0.000258, 0.000058,-0.001188,1,-0.212871, 0.046411, 9.804230,1,1
1777933607440,  2754.342,  2754.337, 0.020697,-0.009480,-0.997072, 0.000204,-0.000097,-0.009969,-0.007762,-0.047043, 0.035630,1, 0.000143,-0.000365,-0.000235,1,-0.212826, 0.046159, 9.804232,1,1
1777933607450,  2754.342,  2754.337, 0.020697,-0.009480,-0.997072, 0.000204,-0.000097,-0.009969,-0.007762,-0.047043, 0.035630,1, 0.000143,-0.000365,-0.000235,1,-0.212826, 0.046159, 9.804232,1,1
1777933607468,  2754.367,  2754.367, 0.021930,-0.005421,-0.995752, 0.000217,-0.000060,-0.009956, 0.002339,-0.006999, 0.039238,1,-0.001150, 0.000649, 0.001423,1,-0.212742, 0.046128, 9.804234,1,1
1777933607478,  2754.367,  2754.367, 0.021930,-0.005421,-0.995752, 0.000217,-0.000060,-0.009956, 0.002339,-0.006999, 0.039238,1,-0.001150, 0.000649, 0.001423,1,-0.212742, 0.046128, 9.804234,1,1
1777933607490,  2754.392,  2754.387, 0.023257,-0.001643,-0.995469, 0.000230,-0.000015,-0.009952, 0.008664, 0.025210, 0.043797,1,-0.000361, 0.000055, 0.000401,1,-0.212711, 0.046108, 9.804235,1,1
1777933607500,  2754.392,  2754.387, 0.023257,-0.001643,-0.995469, 0.000230,-0.000015,-0.009952, 0.008664, 0.025210, 0.043797,1,-0.000361, 0.000055, 0.000401,1,-0.212711, 0.046108, 9.804235,1,1
1777933607517,  2754.417,  2754.417, 0.021965,-0.002440,-0.995925, 0.000219,-0.000023,-0.009957, 0.002708, 0.022122, 0.037548,1,-0.000518,-0.000216,-0.000335,1,-0.212687, 0.046034, 9.804235,1,1
1777933607527,  2754.417,  2754.417, 0.021965,-0.002440,-0.995925, 0.000219,-0.000023,-0.009957, 0.002708, 0.022122, 0.037548,1,-0.000518,-0.000216,-0.000335,1,-0.212687, 0.046034, 9.804235,1,1
1777933607539,  2754.442,  2754.437, 0.021133,-0.006498,-0.996308, 0.000211,-0.000067,-0.009961,-0.001764,-0.016851, 0.041617,1,-0.000030, 0.000212,-0.000183,1,-0.212776, 0.046033, 9.804234,1,1
1777933607549,  2754.442,  2754.437, 0.021133,-0.006498,-0.996308, 0.000211,-0.000067,-0.009961,-0.001764,-0.016851, 0.041617,1,-0.000030, 0.000212,-0.000183,1,-0.212776, 0.046033, 9.804234,1,1
1777933607567,  2754.467,  2754.467, 0.020791,-0.005753,-0.996570, 0.000207,-0.000058,-0.009964,-0.008900,-0.010431, 0.031221,1,-0.000357,-0.000287, 0.000577,1,-0.212781, 0.045972, 9.804234,1,1
1777933607577,  2754.467,  2754.467, 0.020791,-0.005753,-0.996570, 0.000207,-0.000058,-0.009964,-0.008900,-0.010431, 0.031221,1,-0.000357,-0.000287, 0.000577,1,-0.212781, 0.045972, 9.804234,1,1
1777933607589,  2754.492,  2754.487, 0.020470,-0.003858,-0.995440, 0.000207,-0.000037,-0.009957,-0.008054, 0.005600, 0.037668,1,-0.000822, 0.000258, 0.000538,1,-0.212837, 0.045986, 9.804233,1,1
1777933607599,  2754.492,  2754.487, 0.020470,-0.003858,-0.995440, 0.000207,-0.000037,-0.009957,-0.008054, 0.005600, 0.037668,1,-0.000822, 0.000258, 0.000538,1,-0.212837, 0.045986, 9.804233,1,1
1777933607612,  2754.517,  2754.512, 0.020172,-0.004857,-0.996258, 0.000202,-0.000050,-0.009961,-0.014971,-0.001814, 0.034278,1,-0.000644, 0.000072, 0.000058,1,-0.212798, 0.045796, 9.804234,1,1
1777933607622,  2754.517,  2754.512, 0.020172,-0.004857,-0.996258, 0.000202,-0.000050,-0.009961,-0.014971,-0.001814, 0.034278,1,-0.000644, 0.000072, 0.000058,1,-0.212798, 0.045796, 9.804234,1,1
1777933607638,  2754.542,  2754.537, 0.022788,-0.002992,-0.995514, 0.000227,-0.000033,-0.009955,-0.000723,-0.001137, 0.046485,1,-0.000192,-0.000536, 0.000154,1,-0.212720, 0.045921, 9.804235,1,1
1777933607649,  2754.542,  2754.537, 0.022788,-0.002992,-0.995514, 0.000227,-0.000033,-0.009955,-0.000723,-0.001137, 0.046485,1,-0.000192,-0.000536, 0.000154,1,-0.212720, 0.045921, 9.804235,1,1
1777933607662,  2754.562,  2754.562, 0.024322,-0.002969,-0.996081, 0.000241,-0.000030,-0.009958, 0.025747, 0.016879, 0.036017,1, 0.000106,-0.000086,-0.001195,1,-0.212771, 0.045997, 9.804234,1,1
1777933607672,  2754.562,  2754.562, 0.024322,-0.002969,-0.996081, 0.000241,-0.000030,-0.009958, 0.025747, 0.016879, 0.036017,1, 0.000106,-0.000086,-0.001195,1,-0.212771, 0.045997, 9.804234,1,1
1777933607688,  2754.592,  2754.587, 0.022685,-0.005012,-0.995426, 0.000227,-0.000050,-0.009951, 0.015809,-0.003124, 0.043429,1,-0.000086,-0.000309,-0.001318,1,-0.212793, 0.045963, 9.804234,1,1
1777933607700,  2754.612,  2754.607, 0.020969,-0.004175,-0.995421, 0.000208,-0.000042,-0.009951,-0.002953,-0.006963, 0.037303,1, 0.000148, 0.000309,-0.000407,1,-0.212756, 0.046025, 9.804234,1,1
1777933607711,  2754.612,  2754.607, 0.020969,-0.004175,-0.995421, 0.000208,-0.000042,-0.009951,-0.002953,-0.006963, 0.037303,1, 0.000148, 0.000309,-0.000407,1,-0.212756, 0.046025, 9.804234,1,1
1777933607721,  2754.612,  2754.607, 0.020969,-0.004175,-0.995421, 0.000208,-0.000042,-0.009951,-0.002953,-0.006963, 0.037303,1, 0.000148, 0.000309,-0.000407,1,-0.212756, 0.046025, 9.804234,1,1
1777933607738,  2754.637,  2754.637, 0.019624,-0.002231,-0.995750, 0.000198,-0.000023,-0.009955,-0.020372, 0.024283, 0.039261,1, 0.001025, 0.000804,-0.001133,1,-0.212840, 0.046198, 9.804232,1,1
1777933607748,  2754.637,  2754.637, 0.019624,-0.002231,-0.995750, 0.000198,-0.000023,-0.009955,-0.020372, 0.024283, 0.039261,1, 0.001025, 0.000804,-0.001133,1,-0.212840, 0.046198, 9.804232,1,1
1777933607760,  2754.662,  2754.657, 0.021384,-0.006964,-0.996869, 0.000212,-0.000068,-0.009968,-0.017062,-0.005197, 0.045407,1, 0.000564,-0.000567,-0.001472,1,-0.212755, 0.046322, 9.804233,1,1
1777933607770,  2754.662,  2754.657, 0.021384,-0.006964,-0.996869, 0.000212,-0.000068,-0.009968,-0.017062,-0.005197, 0.045407,1, 0.000564,-0.000567,-0.001472,1,-0.212755, 0.046322, 9.804233,1,1
1777933607787,  2754.687,  2754.687, 0.022219,-0.009503,-0.996248, 0.000222,-0.000093,-0.009963, 0.005237,-0.046852, 0.034374,1, 0.000343, 0.000822, 0.000494,1,-0.212682, 0.046350, 9.804234,1,1
1777933607797,  2754.687,  2754.687, 0.022219,-0.009503,-0.996248, 0.000222,-0.000093,-0.009963, 0.005237,-0.046852, 0.034374,1, 0.000343, 0.000822, 0.000494,1,-0.212682, 0.046350, 9.804234,1,1
1777933607809,  2754.712,  2754.707, 0.021694,-0.005840,-0.995887, 0.000217,-0.000062,-0.009957, 0.003210,-0.036392, 0.036540,1,-0.000490, 0.000465, 0.001102,1,-0.212710, 0.046273, 9.804234,1,1
1777933607819,  2754.712,  2754.707, 0.021694,-0.005840,-0.995887, 0.000217,-0.000062,-0.009957, 0.003210,-0.036392, 0.036540,1,-0.000490, 0.000465, 0.001102,1,-0.212710, 0.046273, 9.804234,1,1
1777933607837,  2754.737,  2754.737, 0.021172,-0.002953,-0.994719, 0.000214,-0.000030,-0.009948,-0.005104, 0.017357, 0.049373,1,-0.000265, 0.000472, 0.001741,1,-0.212746, 0.046316, 9.804233,1,1
1777933607847,  2754.737,  2754.737, 0.021172,-0.002953,-0.994719, 0.000214,-0.000030,-0.009948,-0.005104, 0.017357, 0.049373,1,-0.000265, 0.000472, 0.001741,1,-0.212746, 0.046316, 9.804233,1,1
1777933607859,  2754.762,  2754.757, 0.021551,-0.000173,-0.995378, 0.000215,-0.000001,-0.009954,-0.006335, 0.042274, 0.047502,1,-0.000276, 0.000394, 0.000550,1,-0.212868, 0.046231, 9.804231,1,1
1777933607869,  2754.762,  2754.757, 0.021551,-0.000173,-0.995378, 0.000215,-0.000001,-0.009954,-0.006335, 0.042274, 0.047502,1,-0.000276, 0.000394, 0.000550,1,-0.212868, 0.046231, 9.804231,1,1
1777933607882,  2754.787,  2754.782, 0.022916,-0.001484,-0.995329, 0.000228,-0.000014,-0.009953, 0.011846, 0.031649, 0.043386,1, 0.000363, 0.000038,-0.000878,1,-0.212880, 0.046214, 9.804231,1,1
1777933607892,  2754.787,  2754.782, 0.022916,-0.001484,-0.995329, 0.000228,-0.000014,-0.009953, 0.011846, 0.031649, 0.043386,1, 0.000363, 0.000038,-0.000878,1,-0.212880, 0.046214, 9.804231,1,1
1777933607909,  2754.812,  2754.807, 0.020692,-0.005633,-0.996439, 0.000208,-0.000053,-0.009964,-0.000165, 0.000522, 0.035543,1, 0.000234, 0.001006,-0.001755,1,-0.212950, 0.046334, 9.804228,1,1
1777933607919,  2754.812,  2754.807, 0.020692,-0.005633,-0.996439, 0.000208,-0.000053,-0.009964,-0.000165, 0.000522, 0.035543,1, 0.000234, 0.001006,-0.001755,1,-0.212950, 0.046334, 9.804228,1,1
1777933607932,  2754.832,  2754.832, 0.020490,-0.007302,-0.996122, 0.000203,-0.000071,-0.009963,-0.012059,-0.025191, 0.035607,1, 0.000007,-0.000079,-0.000381,1,-0.212999, 0.046419, 9.804227,1,1
1777933607942,  2754.832,  2754.832, 0.020490,-0.007302,-0.996122, 0.000203,-0.000071,-0.009963,-0.012059,-0.025191, 0.035607,1, 0.000007,-0.000079,-0.000381,1,-0.212999, 0.046419, 9.804227,1,1
1777933607958,  2754.862,  2754.857, 0.022646,-0.004076,-0.995924, 0.000225,-0.000041,-0.009958,-0.007457,-0.004180, 0.039345,1, 0.000472, 0.000267,-0.000390,1,-0.213080, 0.046528, 9.804224,1,1
1777933607968,  2754.862,  2754.857, 0.022646,-0.004076,-0.995924, 0.000225,-0.000041,-0.009958,-0.007457,-0.004180, 0.039345,1, 0.000472, 0.000267,-0.000390,1,-0.213080, 0.046528, 9.804224,1,1
1777933607980,  2754.882,  2754.877, 0.021519,-0.005827,-0.995431, 0.000216,-0.000056,-0.009958, 0.002270,-0.003917, 0.041319,1, 0.000417, 0.000641, 0.000069,1,-0.213161, 0.046545, 9.804222,1,1
1777933607990,  2754.882,  2754.877, 0.021519,-0.005827,-0.995431, 0.000216,-0.000056,-0.009958, 0.002270,-0.003917, 0.041319,1, 0.000417, 0.000641, 0.000069,1,-0.213161, 0.046545, 9.804222,1,1
1777933608008,  2754.907,  2754.907, 0.021211,-0.006876,-0.995328, 0.000213,-0.000066,-0.009952,-0.005092,-0.020915, 0.043388,1, 0.000146,-0.000544,-0.000235,1,-0.213080, 0.046525, 9.804224,1,1
1777933608018,  2754.907,  2754.907, 0.021211,-0.006876,-0.995328, 0.000213,-0.000066,-0.009952,-0.005092,-0.020915, 0.043388,1, 0.000146,-0.000544,-0.000235,1,-0.213080, 0.046525, 9.804224,1,1
1777933608030,  2754.932,  2754.927, 0.022383,-0.004149,-0.995452, 0.000223,-0.000041,-0.009955, 0.004388,-0.012851, 0.037054,1,-0.000667, 0.000149, 0.001052,1,-0.213060, 0.046327, 9.804226,1,1
1777933608040,  2754.932,  2754.927, 0.022383,-0.004149,-0.995452, 0.000223,-0.000041,-0.009955, 0.004388,-0.012851, 0.037054,1,-0.000667, 0.000149, 0.001052,1,-0.213060, 0.046327, 9.804226,1,1
1777933608057,  2754.957,  2754.957, 0.023557,-0.000966,-0.995664, 0.000235,-0.000011,-0.009954, 0.017963, 0.036816, 0.040096,1, 0.000067,-0.000183, 0.000308,1,-0.213042, 0.046295, 9.804226,1,1
1777933608067,  2754.957,  2754.957, 0.023557,-0.000966,-0.995664, 0.000235,-0.000011,-0.009954, 0.017963, 0.036816, 0.040096,1, 0.000067,-0.000183, 0.000308,1,-0.213042, 0.046295, 9.804226,1,1
1777933608079,  2754.982,  2754.977, 0.022071,-0.003333,-0.996079, 0.000223,-0.000029,-0.009959, 0.018127, 0.024728, 0.049856,1, 0.000506,-0.000335,-0.001193,1,-0.213023, 0.046373, 9.804226,1,1
1777933608089,  2754.982,  2754.977, 0.022071,-0.003333,-0.996079, 0.000223,-0.000029,-0.009959, 0.018127, 0.024728, 0.049856,1, 0.000506,-0.000335,-0.001193,1,-0.213023, 0.046373, 9.804226,1,1
1777933608107,  2755.007,  2755.007, 0.019521,-0.006279,-0.996536, 0.000194,-0.000061,-0.009964,-0.021661,-0.015156, 0.031540,1, 0.000961, 0.000593,-0.001029,1,-0.213119, 0.046453, 9.804224,1,1
1777933608117,  2755.007,  2755.007, 0.019521,-0.006279,-0.996536, 0.000194,-0.000061,-0.009964,-0.021661,-0.015156, 0.031540,1, 0.000961, 0.000593,-0.001029,1,-0.213119, 0.046453, 9.804224,1,1
1777933608129,  2755.032,  2755.027, 0.019284,-0.006538,-0.995382, 0.000192,-0.000069,-0.009956,-0.033888,-0.025972, 0.043433,1, 0.000618, 0.000254,-0.000392,1,-0.213247, 0.046606, 9.804220,1,1
1777933608139,  2755.032,  2755.027, 0.019284,-0.006538,-0.995382, 0.000192,-0.000069,-0.009956,-0.033888,-0.025972, 0.043433,1, 0.000618, 0.000254,-0.000392,1,-0.213247, 0.046606, 9.804220,1,1
1777933608152,  2755.057,  2755.052, 0.021292,-0.004609,-0.995120, 0.000212,-0.000045,-0.009953,-0.004521, 0.001448, 0.045427,1,-0.000072,-0.000355,-0.000211,1,-0.213315, 0.046647, 9.804218,1,1
1777933608162,  2755.057,  2755.052, 0.021292,-0.004609,-0.995120, 0.000212,-0.000045,-0.009953,-0.004521, 0.001448, 0.045427,1,-0.000072,-0.000355,-0.000211,1,-0.213315, 0.046647, 9.804218,1,1
1777933608179,  2755.082,  2755.077, 0.024981,-0.005604,-0.995325, 0.000249,-0.000054,-0.009953, 0.022133,-0.008084, 0.041262,1,-0.000413, 0.000468, 0.000105,1,-0.213390, 0.046620, 9.804217,1,1
1777933608189,  2755.082,  2755.077, 0.024981,-0.005604,-0.995325, 0.000249,-0.000054,-0.009953, 0.022133,-0.008084, 0.041262,1,-0.000413, 0.000468, 0.000105,1,-0.213390, 0.046620, 9.804217,1,1
1777933608202,  2755.102,  2755.102, 0.025275,-0.005802,-0.995936, 0.000256,-0.000058,-0.009959, 0.034476,-0.010327, 0.037422,1,-0.000703,-0.000016, 0.000193,1,-0.213383, 0.046546, 9.804217,1,1
1777933608212,  2755.102,  2755.102, 0.025275,-0.005802,-0.995936, 0.000256,-0.000058,-0.009959, 0.034476,-0.010327, 0.037422,1,-0.000703,-0.000016, 0.000193,1,-0.213383, 0.046546, 9.804217,1,1
1777933608228,  2755.132,  2755.127, 0.022389,-0.006202,-0.996591, 0.000224,-0.000066,-0.009963, 0.012888,-0.026288, 0.035419,1, 0.000582, 0.000019, 0.000805,1,-0.213480, 0.046590, 9.804215,1,1
1777933608238,  2755.132,  2755.127, 0.022389,-0.006202,-0.996591, 0.000224,-0.000066,-0.009963, 0.012888,-0.026288, 0.035419,1, 0.000582, 0.000019, 0.000805,1,-0.213480, 0.046590, 9.804215,1,1
1777933608252,  2755.152,  2755.152, 0.019902,-0.003200,-0.995804, 0.000196,-0.000033,-0.009955,-0.018352, 0.015111, 0.038714,1,-0.000023, 0.000036, 0.000652,1,-0.213526, 0.046493, 9.804214,1,1
1777933608262,  2755.152,  2755.152, 0.019902,-0.003200,-0.995804, 0.000196,-0.000033,-0.009955,-0.018352, 0.015111, 0.038714,1,-0.000023, 0.000036, 0.000652,1,-0.213526, 0.046493, 9.804214,1,1
1777933608278,  2755.177,  2755.177, 0.018051,-0.001841,-0.995728, 0.000180,-0.000018,-0.009955,-0.036485, 0.028540, 0.039463,1, 0.000988,-0.000500, 0.000230,1,-0.213491, 0.046623, 9.804215,1,1
1777933608288,  2755.177,  2755.177, 0.018051,-0.001841,-0.995728, 0.000180,-0.000018,-0.009955,-0.036485, 0.028540, 0.039463,1, 0.000988,-0.000500, 0.000230,1,-0.213491, 0.046623, 9.804215,1,1
1777933608300,  2755.202,  2755.197, 0.020397,-0.004210,-0.995881, 0.000202,-0.000044,-0.009959,-0.024341, 0.011113, 0.046606,1,-0.001735, 0.000120, 0.000208,1,-0.213500, 0.046389, 9.804216,1,1
1777933608310,  2755.202,  2755.197, 0.020397,-0.004210,-0.995881, 0.000202,-0.000044,-0.009959,-0.024341, 0.011113, 0.046606,1,-0.001735, 0.000120, 0.000208,1,-0.213500, 0.046389, 9.804216,1,1
1777933608327,  2755.227,  2755.227, 0.023183,-0.003268,-0.995575, 0.000233,-0.000034,-0.009955, 0.013782, 0.014424, 0.040960,1, 0.000458, 0.000247,-0.000442,1,-0.213578, 0.046483, 9.804214,1,1
1777933608337,  2755.227,  2755.227, 0.023183,-0.003268,-0.995575, 0.000233,-0.000034,-0.009955, 0.013782, 0.014424, 0.040960,1, 0.000458, 0.000247,-0.000442,1,-0.213578, 0.046483, 9.804214,1,1
1777933608349,  2755.252,  2755.247, 0.022044,-0.005840,-0.995587, 0.000222,-0.000055,-0.009959, 0.017381, 0.010294, 0.036288,1, 0.000599, 0.000170,-0.001356,1,-0.213703, 0.046577, 9.804211,1,1
1777933608359,  2755.252,  2755.247, 0.022044,-0.005840,-0.995587, 0.000222,-0.000055,-0.009959, 0.017381, 0.010294, 0.036288,1, 0.000599, 0.000170,-0.001356,1,-0.213703, 0.046577, 9.804211,1,1
1777933608377,  2755.277,  2755.277, 0.020588,-0.008896,-0.996331, 0.000205,-0.000091,-0.009964,-0.011698,-0.040798, 0.033545,1,-0.000245,-0.000411,-0.000594,1,-0.213588, 0.046438, 9.804214,1,1
1777933608387,  2755.277,  2755.277, 0.020588,-0.008896,-0.996331, 0.000205,-0.000091,-0.009964,-0.011698,-0.040798, 0.033545,1,-0.000245,-0.000411,-0.000594,1,-0.213588, 0.046438, 9.804214,1,1
1777933608399,  2755.302,  2755.297, 0.026032,-0.005658,-0.995503, 0.000259,-0.000063,-0.009957, 0.019401,-0.030833, 0.034555,1,-0.000478,-0.000170, 0.000548,1,-0.213578, 0.046433, 9.804214,1,1
1777933608409,  2755.302,  2755.297, 0.026032,-0.005658,-0.995503, 0.000259,-0.000063,-0.009957, 0.019401,-0.030833, 0.034555,1,-0.000478,-0.000170, 0.000548,1,-0.213578, 0.046433, 9.804214,1,1
1777933608422,  2755.327,  2755.322, 0.026421,-0.002659,-0.995357, 0.000269,-0.000021,-0.009955, 0.045541, 0.020280, 0.043095,1, 0.000862,-0.000033, 0.000453,1,-0.213558, 0.046430, 9.804214,1,1
1777933608433,  2755.327,  2755.322, 0.026421,-0.002659,-0.995357, 0.000269,-0.000021,-0.009955, 0.045541, 0.020280, 0.043095,1, 0.000862,-0.000033, 0.000453,1,-0.213558, 0.046430, 9.804214,1,1
1777933608449,  2755.352,  2755.347, 0.020267,-0.008945,-0.996938, 0.000204,-0.000089,-0.009972, 0.006209,-0.030182, 0.043031,1,-0.000917,-0.001402, 0.000418,1,-0.213309, 0.046334, 9.804220,1,1
1777933608459,  2755.352,  2755.347, 0.020267,-0.008945,-0.996938, 0.000204,-0.000089,-0.009972, 0.006209,-0.030182, 0.043031,1,-0.000917,-0.001402, 0.000418,1,-0.213309, 0.046334, 9.804220,1,1
1777933608472,  2755.377,  2755.372, 0.019558,-0.007899,-0.996699, 0.000192,-0.000084,-0.009964,-0.021317,-0.031254, 0.029951,1,-0.001015, 0.000345, 0.002054,1,-0.213129, 0.046177, 9.804225,1,1
1777933608482,  2755.377,  2755.372, 0.019558,-0.007899,-0.996699, 0.000192,-0.000084,-0.009964,-0.021317,-0.031254, 0.029951,1,-0.001015, 0.000345, 0.002054,1,-0.213129, 0.046177, 9.804225,1,1
1777933608498,  2755.402,  2755.397, 0.020745,-0.000514,-0.994592, 0.000206,-0.000010,-0.009946,-0.015964, 0.016826, 0.037537,1,-0.000339,-0.000456, 0.001809,1,-0.213076, 0.046093, 9.804227,1,1
1777933608508,  2755.402,  2755.397, 0.020745,-0.000514,-0.994592, 0.000206,-0.000010,-0.009946,-0.015964, 0.016826, 0.037537,1,-0.000339,-0.000456, 0.001809,1,-0.213076, 0.046093, 9.804227,1,1
1777933608522,  2755.422,  2755.422, 0.020658, 0.000774,-0.995422, 0.000210, 0.000006,-0.009954,-0.010446, 0.053435, 0.042468,1,-0.001053, 0.000217, 0.000697,1,-0.213035, 0.045809, 9.804229,1,1
1777933608532,  2755.422,  2755.422, 0.020658, 0.000774,-0.995422, 0.000210, 0.000006,-0.009954,-0.010446, 0.053435, 0.042468,1,-0.001053, 0.000217, 0.000697,1,-0.213035, 0.045809, 9.804229,1,1
1777933608548,  2755.447,  2755.447, 0.021232,-0.003691,-0.995899, 0.000211,-0.000030,-0.009955,-0.004797, 0.009643, 0.037796,1, 0.000033,-0.000336,-0.000059,1,-0.212999, 0.045845, 9.804230,1,1
1777933608558,  2755.447,  2755.447, 0.021232,-0.003691,-0.995899, 0.000211,-0.000030,-0.009955,-0.004797, 0.009643, 0.037796,1, 0.000033,-0.000336,-0.000059,1,-0.212999, 0.045845, 9.804230,1,1
1777933608570,  2755.472,  2755.467, 0.019536,-0.002369,-0.995149, 0.000191,-0.000022,-0.009951,-0.019265, 0.021762, 0.034048,1, 0.000054, 0.000048,-0.000555,1,-0.212885, 0.045842, 9.804232,1,1
1777933608580,  2755.472,  2755.467, 0.019536,-0.002369,-0.995149, 0.000191,-0.000022,-0.009951,-0.019265, 0.021762, 0.034048,1, 0.000054, 0.000048,-0.000555,1,-0.212885, 0.045842, 9.804232,1,1
1777933608597,  2755.497,  2755.497, 0.018446,-0.003116,-0.996081, 0.000184,-0.000030,-0.009957,-0.031987, 0.015247, 0.036011,1,-0.000328, 0.000232,-0.001359,1,-0.212888, 0.045797, 9.804232,1,1
1777933608608,  2755.497,  2755.497, 0.018446,-0.003116,-0.996081, 0.000184,-0.000030,-0.009957,-0.031987, 0.015247, 0.036011,1,-0.000328, 0.000232,-0.001359,1,-0.212888, 0.045797, 9.804232,1,1
1777933608619,  2755.522,  2755.517, 0.022353,-0.006844,-0.995827, 0.000220,-0.000067,-0.009959,-0.008280,-0.009597, 0.046690,1, 0.000232, 0.000477,-0.001311,1,-0.213026, 0.045894, 9.804229,1,1
1777933608630,  2755.522,  2755.517, 0.022353,-0.006844,-0.995827, 0.000220,-0.000067,-0.009959,-0.008280,-0.009597, 0.046690,1, 0.000232, 0.000477,-0.001311,1,-0.213026, 0.045894, 9.804229,1,1
1777933608647,  2755.547,  2755.547, 0.024826,-0.006764,-0.996639, 0.000249,-0.000069,-0.009964, 0.030620,-0.020714, 0.030547,1, 0.000422, 0.001115, 0.000474,1,-0.212879, 0.045633, 9.804233,1,1
1777933608657,  2755.547,  2755.547, 0.024826,-0.006764,-0.996639, 0.000249,-0.000069,-0.009964, 0.030620,-0.020714, 0.030547,1, 0.000422, 0.001115, 0.000474,1,-0.212879, 0.045633, 9.804233,1,1
1777933608669,  2755.572,  2755.567, 0.023906,-0.006523,-0.996154, 0.000241,-0.000062,-0.009962, 0.035258,-0.017568, 0.038305,1,-0.000568, 0.000908, 0.000492,1,-0.212969, 0.045501, 9.804232,1,1
1777933608679,  2755.572,  2755.567, 0.023906,-0.006523,-0.996154, 0.000241,-0.000062,-0.009962, 0.035258,-0.017568, 0.038305,1,-0.000568, 0.000908, 0.000492,1,-0.212969, 0.045501, 9.804232,1,1
1777933608697,  2755.597,  2755.597, 0.021728,-0.005192,-0.996025, 0.000217,-0.000054,-0.009959, 0.000114,-0.005419, 0.036562,1,-0.000416,-0.001016, 0.000953,1,-0.212933, 0.045482, 9.804233,1,1
