Time,GPS_ts,fGPS_ts,scaledAccelX,scaledAccelY,scaledAccelZ,deltaVelX,deltaVelY,deltaVelZ,estLinearAccelX,estLinearAccelY,estLinearAccelZ,estLinearAccel:valid,estAngularRateX,estAngularRateY,estAngularRateZ,estAngularRate:valid,estGravityX,estGravityY,estGravityZ,estGravity:valid,flag
1777933975279,  3112.871,  3112.866,-0.007717,-0.003906,-0.996715,-0.000077,-0.000037,-0.009962, 0.016687,-0.010510, 0.037916,1, 0.000193,-0.000186,-0.000252,1, 0.086435, 0.028938, 9.806227,1,0
1777933975290,  3113.116,  3113.116,-0.007805,-0.003693,-0.995622,-0.000079,-0.000039,-0.009954, 0.010119,-0.007647, 0.042508,1,-0.000562,-0.000685,-0.000208,1, 0.086681, 0.028547, 9.806226,1,0
1777933975301,  3122.216,  3122.216,-0.007805,-0.003693,-0.995622,-0.000079,-0.000039,-0.009954,-0.002916,-0.007023, 0.040191,1, 0.000718, 0.000537,-0.000295,1, 0.087309, 0.027458, 9.806223,1,0
1777933975311,  3122.216,  3122.216,-0.007805,-0.003693,-0.995622,-0.000079,-0.000039,-0.009954,-0.002916,-0.007023, 0.040191,1, 0.000718, 0.000537,-0.000295,1, 0.087309, 0.027458, 9.806223,1,0
1777933975323,  3122.241,  3122.236,-0.008023,-0.002731,-0.996174,-0.000080,-0.000029,-0.009960, 0.004295,-0.001459, 0.044417,1, 0.000659,-0.000023, 0.000375,1, 0.087294, 0.027540, 9.806223,1,0
1777933975333,  3122.241,  3122.236,-0.008023,-0.002731,-0.996174,-0.000080,-0.000029,-0.009960, 0.004295,-0.001459, 0.044417,1, 0.000659,-0.000023, 0.000375,1, 0.087294, 0.027540, 9.806223,1,0
1777933975350,  3122.266,  3122.266,-0.008472,-0.002578,-0.996774,-0.000084,-0.000024,-0.009971, 0.004177, 0.002294, 0.031212,1, 0.000141, 0.000658, 0.000455,1, 0.087235, 0.027583, 9.806223,1,0
1777933975360,  3122.266,  3122.266,-0.008472,-0.002578,-0.996774,-0.000084,-0.000024,-0.009971, 0.004177, 0.002294, 0.031212,1, 0.000141, 0.000658, 0.000455,1, 0.087235, 0.027583, 9.806223,1,0
1777933975372,  3122.291,  3122.286,-0.009411,-0.003193,-0.995330,-0.000091,-0.000034,-0.009955,-0.002808,-0.008063, 0.045861,1,-0.000177,-0.000627, 0.000229,1, 0.087280, 0.027558, 9.806223,1,0
1777933975382,  3122.291,  3122.286,-0.009411,-0.003193,-0.995330,-0.000091,-0.000034,-0.009955,-0.002808,-0.008063, 0.045861,1,-0.000177,-0.000627, 0.000229,1, 0.087280, 0.027558, 9.806223,1,0
1777933975400,  3122.316,  3122.316,-0.008500,-0.003414,-0.995660,-0.000086,-0.000036,-0.009956, 0.003990,-0.005919, 0.042134,1,-0.000345, 0.000552, 0.000261,1, 0.087332, 0.027546, 9.806223,1,0
1777933975410,  3122.316,  3122.316,-0.008500,-0.003414,-0.995660,-0.000086,-0.000036,-0.009956, 0.003990,-0.005919, 0.042134,1,-0.000345, 0.000552, 0.000261,1, 0.087332, 0.027546, 9.806223,1,0
1777933975422,  3122.341,  3122.336,-0.008971,-0.002145,-0.996226,-0.000087,-0.000024,-0.009960, 0.004758, 0.003172, 0.037046,1, 0.000171,-0.000096, 0.000188,1, 0.087291, 0.027619, 9.806223,1,0
1777933975432,  3122.341,  3122.336,-0.008971,-0.002145,-0.996226,-0.000087,-0.000024,-0.009960, 0.004758, 0.003172, 0.037046,1, 0.000171,-0.000096, 0.000188,1, 0.087291, 0.027619, 9.806223,1,0
1777933975449,  3122.366,  3122.366,-0.008366,-0.002152,-0.997061,-0.000085,-0.000022,-0.009970, 0.005221, 0.006615, 0.028397,1, 0.000234, 0.000099, 0.000150,1, 0.087264, 0.027725, 9.806223,1,0
1777933975459,  3122.366,  3122.366,-0.008366,-0.002152,-0.997061,-0.000085,-0.000022,-0.009970, 0.005221, 0.006615, 0.028397,1, 0.000234, 0.000099, 0.000150,1, 0.087264, 0.027725, 9.806223,1,0
1777933975471,  3122.391,  3122.386,-0.009013,-0.003961,-0.996017,-0.000093,-0.000041,-0.009954,-0.000842,-0.002172, 0.044294,1,-0.000120,-0.000821,-0.000222,1, 0.087333, 0.027650, 9.806222,1,0
1777933975481,  3122.391,  3122.386,-0.009013,-0.003961,-0.996017,-0.000093,-0.000041,-0.009954,-0.000842,-0.002172, 0.044294,1,-0.000120,-0.000821,-0.000222,1, 0.087333, 0.027650, 9.806222,1,0
1777933975495,  3122.416,  3122.411,-0.008771,-0.003163,-0.995466,-0.000088,-0.000035,-0.009957, 0.001349,-0.003301, 0.044029,1, 0.000629,-0.000097,-0.000032,1, 0.087367, 0.027737, 9.806222,1,0
1777933975505,  3122.416,  3122.411,-0.008771,-0.003163,-0.995466,-0.000088,-0.000035,-0.009957, 0.001349,-0.003301, 0.044029,1, 0.000629,-0.000097,-0.000032,1, 0.087367, 0.027737, 9.806222,1,0
1777933975521,  3122.441,  3122.436,-0.008218,-0.002035,-0.996268,-0.000083,-0.000022,-0.009962, 0.000639, 0.013937, 0.034110,1, 0.000322,-0.000140, 0.000226,1, 0.087419, 0.027857, 9.806221,1,0
1777933975531,  3122.441,  3122.436,-0.008218,-0.002035,-0.996268,-0.000083,-0.000022,-0.009962, 0.000639, 0.013937, 0.034110,1, 0.000322,-0.000140, 0.000226,1, 0.087419, 0.027857, 9.806221,1,0
1777933975544,  3122.461,  3122.461,-0.008715,-0.001965,-0.996170,-0.000091,-0.000021,-0.009956, 0.001966, 0.008671, 0.037133,1, 0.000596, 0.000328,-0.000051,1, 0.087417, 0.027962, 9.806220,1,0
1777933975554,  3122.461,  3122.461,-0.008715,-0.001965,-0.996170,-0.000091,-0.000021,-0.009956, 0.001966, 0.008671, 0.037133,1, 0.000596, 0.000328,-0.000051,1, 0.087417, 0.027962, 9.806220,1,0
1777933975571,  3122.486,  3122.486,-0.008697,-0.003291,-0.995750,-0.000088,-0.000035,-0.009955, 0.002195,-0.004304, 0.041242,1, 0.000457,-0.000136,-0.000321,1, 0.087492, 0.027984, 9.806220,1,0
1777933975581,  3122.486,  3122.486,-0.008697,-0.003291,-0.995750,-0.000088,-0.000035,-0.009955, 0.002195,-0.004304, 0.041242,1, 0.000457,-0.000136,-0.000321,1, 0.087492, 0.027984, 9.806220,1,0
1777933975593,  3122.511,  3122.506,-0.008791,-0.003227,-0.995825,-0.000089,-0.000032,-0.009957, 0.000953,-0.005115, 0.042839,1, 0.000597, 0.000417, 0.000228,1, 0.087471, 0.028090, 9.806220,1,0
1777933975603,  3122.511,  3122.506,-0.008791,-0.003227,-0.995825,-0.000089,-0.000032,-0.009957, 0.000953,-0.005115, 0.042839,1, 0.000597, 0.000417, 0.000228,1, 0.087471, 0.028090, 9.806220,1,0
1777933975620,  3122.536,  3122.536,-0.008462,-0.003053,-0.995482,-0.000086,-0.000027,-0.009957, 0.004416,-0.001861, 0.043879,1,-0.000093, 0.000003, 0.000342,1, 0.087399, 0.028071, 9.806220,1,0
1777933975630,  3122.536,  3122.536,-0.008462,-0.003053,-0.995482,-0.000086,-0.000027,-0.009957, 0.004416,-0.001861, 0.043879,1,-0.000093, 0.000003, 0.000342,1, 0.087399, 0.028071, 9.806220,1,0
1777933975642,  3122.561,  3122.556,-0.008544,-0.002932,-0.994959,-0.000087,-0.000028,-0.009952,-0.001553, 0.003750, 0.035716,1, 0.000709, 0.000422,-0.000082,1, 0.087461, 0.028070, 9.806220,1,0
1777933975652,  3122.561,  3122.556,-0.008544,-0.002932,-0.994959,-0.000087,-0.000028,-0.009952,-0.001553, 0.003750, 0.035716,1, 0.000709, 0.000422,-0.000082,1, 0.087461, 0.028070, 9.806220,1,0
1777933975670,  3122.586,  3122.586,-0.008538,-0.003035,-0.995498,-0.000084,-0.000029,-0.009954, 0.003879,-0.001749, 0.043715,1,-0.000531, 0.000112, 0.000066,1, 0.087606, 0.027996, 9.806219,1,0
1777933975680,  3122.586,  3122.586,-0.008538,-0.003035,-0.995498,-0.000084,-0.000029,-0.009954, 0.003879,-0.001749, 0.043715,1,-0.000531, 0.000112, 0.000066,1, 0.087606, 0.027996, 9.806219,1,0
1777933975692,  3122.611,  3122.606,-0.009115,-0.003564,-0.995550,-0.000093,-0.000035,-0.009953,-0.007158,-0.004231, 0.030936,1,-0.000247,-0.000746, 0.000175,1, 0.087726, 0.027984, 9.806218,1,0
1777933975702,  3122.611,  3122.606,-0.009115,-0.003564,-0.995550,-0.000093,-0.000035,-0.009953,-0.007158,-0.004231, 0.030936,1,-0.000247,-0.000746, 0.000175,1, 0.087726, 0.027984, 9.806218,1,0
1777933975719,  3122.636,  3122.636,-0.008026,-0.003164,-0.996506,-0.000083,-0.000028,-0.009961, 0.009102,-0.003129, 0.033830,1,-0.000199,-0.000561,-0.000475,1, 0.087829, 0.027890, 9.806217,1,0
1777933975730,  3122.636,  3122.636,-0.008026,-0.003164,-0.996506,-0.000083,-0.000028,-0.009961, 0.009102,-0.003129, 0.033830,1,-0.000199,-0.000561,-0.000475,1, 0.087829, 0.027890, 9.806217,1,0
1777933975741,  3122.661,  3122.656,-0.008436,-0.002593,-0.995616,-0.000085,-0.000024,-0.009959, 0.005643,-0.001763, 0.040162,1, 0.000048, 0.000322,-0.000389,1, 0.087820, 0.027852, 9.806217,1,0
1777933975751,  3122.661,  3122.656,-0.008436,-0.002593,-0.995616,-0.000085,-0.000024,-0.009959, 0.005643,-0.001763, 0.040162,1, 0.000048, 0.000322,-0.000389,1, 0.087820, 0.027852, 9.806217,1,0
1777933975765,  3122.686,  3122.681,-0.008781,-0.002405,-0.996242,-0.000087,-0.000026,-0.009963, 0.001802, 0.004208, 0.036421,1, 0.000413,-0.000393,-0.000270,1, 0.087931, 0.027804, 9.806216,1,0
1777933975775,  3122.686,  3122.681,-0.008781,-0.002405,-0.996242,-0.000087,-0.000026,-0.009963, 0.001802, 0.004208, 0.036421,1, 0.000413,-0.000393,-0.000270,1, 0.087931, 0.027804, 9.806216,1,0
1777933975791,  3122.711,  3122.706,-0.008805,-0.003249,-0.995497,-0.000091,-0.000031,-0.009958,-0.002606,-0.008210, 0.038565,1, 0.000348,-0.000447, 0.000229,1, 0.087949, 0.027853, 9.806216,1,0
1777933975801,  3122.711,  3122.706,-0.008805,-0.003249,-0.995497,-0.000091,-0.000031,-0.009958,-0.002606,-0.008210, 0.038565,1, 0.000348,-0.000447, 0.000229,1, 0.087949, 0.027853, 9.806216,1,0
1777933975814,  3122.731,  3122.731,-0.008749,-0.003392,-0.995338,-0.000088,-0.000033,-0.009956, 0.002124,-0.005487, 0.045285,1, 0.000026, 0.000408,-0.000375,1, 0.087903, 0.027782, 9.806216,1,0
1777933975825,  3122.731,  3122.731,-0.008749,-0.003392,-0.995338,-0.000088,-0.000033,-0.009956, 0.002124,-0.005487, 0.045285,1, 0.000026, 0.000408,-0.000375,1, 0.087903, 0.027782, 9.806216,1,0
1777933975841,  3122.756,  3122.756,-0.008603,-0.003117,-0.995227,-0.000088,-0.000033,-0.009951, 0.003495,-0.002825, 0.046377,1,-0.000088, 0.000831,-0.000196,1, 0.087839, 0.027739, 9.806217,1,0
1777933975851,  3122.756,  3122.756,-0.008603,-0.003117,-0.995227,-0.000088,-0.000033,-0.009951, 0.003495,-0.002825, 0.046377,1,-0.000088, 0.000831,-0.000196,1, 0.087839, 0.027739, 9.806217,1,0
1777933975863,  3122.781,  3122.776,-0.008601,-0.002388,-0.995343,-0.000084,-0.000023,-0.009954, 0.001794, 0.001915, 0.038856,1, 0.000989, 0.000069, 0.000092,1, 0.087846, 0.027871, 9.806217,1,0
1777933975873,  3122.781,  3122.776,-0.008601,-0.002388,-0.995343,-0.000084,-0.000023,-0.009954, 0.001794, 0.001915, 0.038856,1, 0.000989, 0.000069, 0.000092,1, 0.087846, 0.027871, 9.806217,1,0
1777933975890,  3122.806,  3122.806,-0.008778,-0.002463,-0.995672,-0.000086,-0.000023,-0.009955, 0.001792, 0.003642, 0.042008,1,-0.000880,-0.000152, 0.000189,1, 0.087882, 0.027767, 9.806217,1,0
1777933975900,  3122.806,  3122.806,-0.008778,-0.002463,-0.995672,-0.000086,-0.000023,-0.009955, 0.001792, 0.003642, 0.042008,1,-0.000880,-0.000152, 0.000189,1, 0.087882, 0.027767, 9.806217,1,0
1777933975912,  3122.831,  3122.826,-0.009242,-0.002744,-0.996471,-0.000093,-0.000028,-0.009965,-0.003299,-0.004432, 0.043098,1,-0.000499, 0.000162, 0.000286,1, 0.087887, 0.027721, 9.806217,1,0
1777933975922,  3122.831,  3122.826,-0.009242,-0.002744,-0.996471,-0.000093,-0.000028,-0.009965,-0.003299,-0.004432, 0.043098,1,-0.000499, 0.000162, 0.000286,1, 0.087887, 0.027721, 9.806217,1,0
1777933975940,  3122.856,  3122.856,-0.008788,-0.003404,-0.995815,-0.000088,-0.000032,-0.009960, 0.001639,-0.005625, 0.040604,1,-0.000216, 0.000648, 0.000613,1, 0.087804, 0.027750, 9.806217,1,0
1777933975950,  3122.856,  3122.856,-0.008788,-0.003404,-0.995815,-0.000088,-0.000032,-0.009960, 0.001639,-0.005625, 0.040604,1,-0.000216, 0.000648, 0.000613,1, 0.087804, 0.027750, 9.806217,1,0
1777933975962,  3122.881,  3122.876,-0.008670,-0.002269,-0.995938,-0.000086,-0.000022,-0.009961,-0.000246,-0.002563, 0.042492,1,-0.000291,-0.000241, 0.000039,1, 0.087879, 0.027794, 9.806217,1,0
1777933975972,  3122.881,  3122.876,-0.008670,-0.002269,-0.995938,-0.000086,-0.000022,-0.009961,-0.000246,-0.002563, 0.042492,1,-0.000291,-0.000241, 0.000039,1, 0.087879, 0.027794, 9.806217,1,0
1777933975989,  3122.906,  3122.906,-0.008747,-0.002772,-0.996273,-0.000086,-0.000027,-0.009963, 0.002095, 0.000648, 0.036111,1,-0.000418, 0.000195,-0.000496,1, 0.087867, 0.027824, 9.806217,1,0
1777933976000,  3122.906,  3122.906,-0.008747,-0.002772,-0.996273,-0.000086,-0.000027,-0.009963, 0.002095, 0.000648, 0.036111,1,-0.000418, 0.000195,-0.000496,1, 0.087867, 0.027824, 9.806217,1,0
1777933976011,  3122.931,  3122.926,-0.008600,-0.002274,-0.995876,-0.000088,-0.000027,-0.009959,-0.000272, 0.000236, 0.041169,1,-0.000608, 0.000464, 0.000425,1, 0.087842, 0.027751, 9.806217,1,0
1777933976022,  3122.931,  3122.926,-0.008600,-0.002274,-0.995876,-0.000088,-0.000027,-0.009959,-0.000272, 0.000236, 0.041169,1,-0.000608, 0.000464, 0.000425,1, 0.087842, 0.027751, 9.806217,1,0
1777933976035,  3122.956,  3122.951,-0.008894,-0.002729,-0.995485,-0.000087,-0.000028,-0.009954, 0.000650, 0.001002, 0.043846,1,-0.000008, 0.000023, 0.000271,1, 0.087868, 0.027768, 9.806217,1,0
1777933976045,  3122.956,  3122.951,-0.008894,-0.002729,-0.995485,-0.000087,-0.000028,-0.009954, 0.000650, 0.001002, 0.043846,1,-0.000008, 0.000023, 0.000271,1, 0.087868, 0.027768, 9.806217,1,0
1777933976061,  3122.981,  3122.976,-0.008845,-0.002973,-0.995756,-0.000089,-0.000031,-0.009959, 0.000170,-0.000918, 0.043023,1,-0.000232, 0.000673,-0.000264,1, 0.087907, 0.027760, 9.806216,1,0
1777933976071,  3122.981,  3122.976,-0.008845,-0.002973,-0.995756,-0.000089,-0.000031,-0.009959, 0.000170,-0.000918, 0.043023,1,-0.000232, 0.000673,-0.000264,1, 0.087907, 0.027760, 9.806216,1,0
1777933976084,  3123.001,  3123.001,-0.008475,-0.002765,-0.996172,-0.000084,-0.000030,-0.009960, 0.004828, 0.000629, 0.037101,1, 0.000206,-0.000162,-0.000061,1, 0.087947, 0.027748, 9.806216,1,0
1777933976095,  3123.001,  3123.001,-0.008475,-0.002765,-0.996172,-0.000084,-0.000030,-0.009960, 0.004828, 0.000629, 0.037101,1, 0.000206,-0.000162,-0.000061,1, 0.087947, 0.027748, 9.806216,1,0
1777933976111,  3123.026,  3123.026,-0.008483,-0.002316,-0.995620,-0.000085,-0.000022,-0.009959, 0.004790, 0.005101, 0.042515,1,-0.000362,-0.000302,-0.000610,1, 0.087991, 0.027803, 9.806216,1,0
1777933976121,  3123.026,  3123.026,-0.008483,-0.002316,-0.995620,-0.000085,-0.000022,-0.009959, 0.004790, 0.005101, 0.042515,1,-0.000362,-0.000302,-0.000610,1, 0.087991, 0.027803, 9.806216,1,0
1777933976133,  3123.051,  3123.046,-0.009413,-0.002579,-0.995957,-0.000094,-0.000024,-0.009963,-0.001378, 0.001265, 0.045211,1,-0.000267,-0.000024, 0.000111,1, 0.088002, 0.027793, 9.806215,1,0
1777933976143,  3123.051,  3123.046,-0.009413,-0.002579,-0.995957,-0.000094,-0.000024,-0.009963,-0.001378, 0.001265, 0.045211,1,-0.000267,-0.000024, 0.000111,1, 0.088002, 0.027793, 9.806215,1,0
1777933976160,  3123.076,  3123.076,-0.008854,-0.002834,-0.995495,-0.000086,-0.000031,-0.009955, 0.001197, 0.000016, 0.043743,1,-0.000396, 0.000272,-0.000246,1, 0.088013, 0.027791, 9.806215,1,0
1777933976170,  3123.076,  3123.076,-0.008854,-0.002834,-0.995495,-0.000086,-0.000031,-0.009955, 0.001197, 0.000016, 0.043743,1,-0.000396, 0.000272,-0.000246,1, 0.088013, 0.027791, 9.806215,1,0
1777933976182,  3123.101,  3123.096,-0.008520,-0.002705,-0.995627,-0.000085,-0.000026,-0.009957, 0.000723,-0.000777, 0.038432,1, 0.001059,-0.000119,-0.000694,1, 0.088010, 0.027935, 9.806215,1,0
1777933976192,  3123.101,  3123.096,-0.008520,-0.002705,-0.995627,-0.000085,-0.000026,-0.009957, 0.000723,-0.000777, 0.038432,1, 0.001059,-0.000119,-0.000694,1, 0.088010, 0.027935, 9.806215,1,0
1777933976210,  3123.126,  3123.126,-0.008561,-0.002334,-0.996226,-0.000088,-0.000023,-0.009960, 0.004014, 0.005028, 0.036578,1,-0.000134, 0.000718,-0.000454,1, 0.087885, 0.027910, 9.806216,1,0
1777933976220,  3123.126,  3123.126,-0.008561,-0.002334,-0.996226,-0.000088,-0.000023,-0.009960, 0.004014, 0.005028, 0.036578,1,-0.000134, 0.000718,-0.000454,1, 0.087885, 0.027910, 9.806216,1,0
1777933976232,  3123.151,  3123.146,-0.008894,-0.002749,-0.995686,-0.000088,-0.000025,-0.009957,-0.000465, 0.003635, 0.036171,1, 0.000349, 0.000262,-0.000444,1, 0.087876, 0.027935, 9.806216,1,0
1777933976242,  3123.151,  3123.146,-0.008894,-0.002749,-0.995686,-0.000088,-0.000025,-0.009957,-0.000465, 0.003635, 0.036171,1, 0.000349, 0.000262,-0.000444,1, 0.087876, 0.027935, 9.806216,1,0
1777933976259,  3123.176,  3123.176,-0.008811,-0.002754,-0.996236,-0.000090,-0.000030,-0.009962, 0.001452, 0.000929, 0.036476,1, 0.000114,-0.000113, 0.000453,1, 0.087860, 0.027940, 9.806216,1,0
1777933976270,  3123.176,  3123.176,-0.008811,-0.002754,-0.996236,-0.000090,-0.000030,-0.009962, 0.001452, 0.000929, 0.036476,1, 0.000114,-0.000113, 0.000453,1, 0.087860, 0.027940, 9.806216,1,0
1777933976281,  3123.201,  3123.196,-0.008690,-0.003681,-0.996016,-0.000089,-0.000037,-0.009958, 0.003027,-0.002748, 0.039072,1,-0.000242,-0.000456, 0.000112,1, 0.087993, 0.027979, 9.806215,1,0
1777933976292,  3123.201,  3123.196,-0.008690,-0.003681,-0.996016,-0.000089,-0.000037,-0.009958, 0.003027,-0.002748, 0.039072,1,-0.000242,-0.000456, 0.000112,1, 0.087993, 0.027979, 9.806215,1,0
1777933976305,  3123.226,  3123.221,-0.008848,-0.002845,-0.995694,-0.000087,-0.000032,-0.009956, 0.001197, 0.000129, 0.041791,1, 0.000640, 0.000421, 0.000349,1, 0.087952, 0.028046, 9.806215,1,0
1777933976315,  3123.226,  3123.221,-0.008848,-0.002845,-0.995694,-0.000087,-0.000032,-0.009956, 0.001197, 0.000129, 0.041791,1, 0.000640, 0.000421, 0.000349,1, 0.087952, 0.028046, 9.806215,1,0
1777933976331,  3123.251,  3123.246,-0.008776,-0.002915,-0.996315,-0.000085,-0.000025,-0.009963, 0.004721, 0.003559, 0.037707,1, 0.000410,-0.000511, 0.000055,1, 0.087971, 0.028111, 9.806215,1,0
1777933976341,  3123.251,  3123.246,-0.008776,-0.002915,-0.996315,-0.000085,-0.000025,-0.009963, 0.004721, 0.003559, 0.037707,1, 0.000410,-0.000511, 0.000055,1, 0.087971, 0.028111, 9.806215,1,0
1777933976355,  3123.271,  3123.271,-0.008952,-0.003143,-0.995710,-0.000088,-0.000028,-0.009956, 0.000172,-0.002741, 0.041639,1,-0.000508,-0.000358, 0.000525,1, 0.087967, 0.028062, 9.806215,1,0
1777933976365,  3123.271,  3123.271,-0.008952,-0.003143,-0.995710,-0.000088,-0.000028,-0.009956, 0.000172,-0.002741, 0.041639,1,-0.000508,-0.000358, 0.000525,1, 0.087967, 0.028062, 9.806215,1,0
1777933976381,  3123.296,  3123.296,-0.009639,-0.003563,-0.995799,-0.000094,-0.000036,-0.009957,-0.006569,-0.006851, 0.040758,1,-0.000305, 0.000213,-0.000360,1, 0.087949, 0.028082, 9.806215,1,0
1777933976391,  3123.296,  3123.296,-0.009639,-0.003563,-0.995799,-0.000094,-0.000036,-0.009957,-0.006569,-0.006851, 0.040758,1,-0.000305, 0.000213,-0.000360,1, 0.087949, 0.028082, 9.806215,1,0
1777933976403,  3123.321,  3123.316,-0.008381,-0.004038,-0.996236,-0.000085,-0.000041,-0.009959, 0.004068,-0.004592, 0.040891,1, 0.000228,-0.000026,-0.000213,1, 0.087945, 0.028069, 9.806215,1,0
1777933976413,  3123.321,  3123.316,-0.008381,-0.004038,-0.996236,-0.000085,-0.000041,-0.009959, 0.004068,-0.004592, 0.040891,1, 0.000228,-0.000026,-0.000213,1, 0.087945, 0.028069, 9.806215,1,0
1777933976430,  3123.346,  3123.346,-0.009081,-0.002855,-0.995635,-0.000086,-0.000029,-0.009958,-0.001207, 0.000096, 0.042368,1, 0.000998, 0.000543,-0.000604,1, 0.087830, 0.028122, 9.806216,1,0
1777933976440,  3123.346,  3123.346,-0.009081,-0.002855,-0.995635,-0.000086,-0.000029,-0.009958,-0.001207, 0.000096, 0.042368,1, 0.000998, 0.000543,-0.000604,1, 0.087830, 0.028122, 9.806216,1,0
1777933976452,  3123.371,  3123.366,-0.007937,-0.002357,-0.995908,-0.000081,-0.000024,-0.009962, 0.008559, 0.006045, 0.031123,1, 0.000315, 0.000658, 0.000260,1, 0.087795, 0.028179, 9.806216,1,0
1777933976462,  3123.371,  3123.366,-0.007937,-0.002357,-0.995908,-0.000081,-0.000024,-0.009962, 0.008559, 0.006045, 0.031123,1, 0.000315, 0.000658, 0.000260,1, 0.087795, 0.028179, 9.806216,1,0
1777933976480,  3123.396,  3123.396,-0.008838,-0.003070,-0.995310,-0.000087,-0.000031,-0.009955, 0.001032,-0.001901, 0.045555,1, 0.000513,-0.000001,-0.000110,1, 0.087701, 0.028225, 9.806217,1,0
1777933976490,  3123.396,  3123.396,-0.008838,-0.003070,-0.995310,-0.000087,-0.000031,-0.009955, 0.001032,-0.001901, 0.045555,1, 0.000513,-0.000001,-0.000110,1, 0.087701, 0.028225, 9.806217,1,0
1777933976502,  3123.421,  3123.416,-0.009269,-0.003616,-0.995598,-0.000091,-0.000033,-0.009957, 0.000772,-0.006826, 0.037838,1,-0.000332,-0.001128,-0.000135,1, 0.087821, 0.028198, 9.806216,1,0
1777933976512,  3123.421,  3123.416,-0.009269,-0.003616,-0.995598,-0.000091,-0.000033,-0.009957, 0.000772,-0.006826, 0.037838,1,-0.000332,-0.001128,-0.000135,1, 0.087821, 0.028198, 9.806216,1,0
1777933976529,  3123.446,  3123.446,-0.008882,-0.002795,-0.995896,-0.000087,-0.000027,-0.009960, 0.000763, 0.000858, 0.039815,1, 0.000295,-0.000270,-0.000036,1, 0.087870, 0.028278, 9.806215,1,0
1777933976540,  3123.446,  3123.446,-0.008882,-0.002795,-0.995896,-0.000087,-0.000027,-0.009960, 0.000763, 0.000858, 0.039815,1, 0.000295,-0.000270,-0.000036,1, 0.087870, 0.028278, 9.806215,1,0
1777933976551,  3123.471,  3123.466,-0.008258,-0.001685,-0.996310,-0.000085,-0.000017,-0.009961, 0.007422, 0.011346, 0.035817,1, 0.000176, 0.000180, 0.000351,1, 0.087887, 0.028306, 9.806215,1,0
1777933976562,  3123.471,  3123.466,-0.008258,-0.001685,-0.996310,-0.000085,-0.000017,-0.009961, 0.007422, 0.011346, 0.035817,1, 0.000176, 0.000180, 0.000351,1, 0.087887, 0.028306, 9.806215,1,0
1777933976575,  3123.496,  3123.491,-0.008539,-0.002662,-0.995797,-0.000086,-0.000026,-0.009959, 0.004075, 0.002241, 0.040780,1,-0.000167,-0.000297, 0.000168,1, 0.087827, 0.028342, 9.806215,1,0
1777933976585,  3123.496,  3123.491,-0.008539,-0.002662,-0.995797,-0.000086,-0.000026,-0.009959, 0.004075, 0.002241, 0.040780,1,-0.000167,-0.000297, 0.000168,1, 0.087827, 0.028342, 9.806215,1,0
1777933976601,  3123.521,  3123.516,-0.008979,-0.003662,-0.995479,-0.000091,-0.000034,-0.009957,-0.000628,-0.003981, 0.040317,1,-0.000861,-0.000025,-0.000014,1, 0.087792, 0.028310, 9.806216,1,0
1777933976611,  3123.521,  3123.516,-0.008979,-0.003662,-0.995479,-0.000091,-0.000034,-0.009957,-0.000628,-0.003981, 0.040317,1,-0.000861,-0.000025,-0.000014,1, 0.087792, 0.028310, 9.806216,1,0
1777933976625,  3123.541,  3123.541,-0.008612,-0.002924,-0.995521,-0.000087,-0.000029,-0.009956, 0.003177,-0.000332, 0.043488,1,-0.000147,-0.000278,-0.000521,1, 0.087641, 0.028335, 9.806217,1,0
1777933976635,  3123.541,  3123.541,-0.008612,-0.002924,-0.995521,-0.000087,-0.000029,-0.009956, 0.003177,-0.000332, 0.043488,1,-0.000147,-0.000278,-0.000521,1, 0.087641, 0.028335, 9.806217,1,0
1777933976651,  3123.571,  3123.566,-0.008341,-0.002218,-0.996522,-0.000083,-0.000021,-0.009965,-0.000178, 0.004184, 0.038369,1,-0.000682,-0.000496,-0.000256,1, 0.087630, 0.028240, 9.806218,1,0
1777933976661,  3123.571,  3123.566,-0.008341,-0.002218,-0.996522,-0.000083,-0.000021,-0.009965,-0.000178, 0.004184, 0.038369,1,-0.000682,-0.000496,-0.000256,1, 0.087630, 0.028240, 9.806218,1,0
1777933976673,  3123.591,  3123.586,-0.008825,-0.002656,-0.996233,-0.000088,-0.000025,-0.009962, 0.001053, 0.001894, 0.034865,1,-0.000310, 0.000228, 0.000290,1, 0.087590, 0.028232, 9.806218,1,0
1777933976683,  3123.591,  3123.586,-0.008825,-0.002656,-0.996233,-0.000088,-0.000025,-0.009962, 0.001053, 0.001894, 0.034865,1,-0.000310, 0.000228, 0.000290,1, 0.087590, 0.028232, 9.806218,1,0
1777933976700,  3123.616,  3123.616,-0.008921,-0.003459,-0.995105,-0.000086,-0.000034,-0.009951, 0.000043,-0.005670, 0.047567,1, 0.000078, 0.000428,-0.000110,1, 0.087511, 0.028250, 9.806219,1,0
1777933976711,  3123.616,  3123.616,-0.008921,-0.003459,-0.995105,-0.000086,-0.000034,-0.009951, 0.000043,-0.005670, 0.047567,1, 0.000078, 0.000428,-0.000110,1, 0.087511, 0.028250, 9.806219,1,0
1777933976722,  3123.641,  3123.636,-0.008875,-0.002675,-0.995941,-0.000091,-0.000029,-0.009957,-0.003178,-0.009062, 0.037789,1,-0.000252, 0.000377, 0.000368,1, 0.087433, 0.028187, 9.806220,1,0
1777933976732,  3123.641,  3123.636,-0.008875,-0.002675,-0.995941,-0.000091,-0.000029,-0.009957,-0.003178,-0.009062, 0.037789,1,-0.000252, 0.000377, 0.000368,1, 0.087433, 0.028187, 9.806220,1,0
1777933976750,  3123.666,  3123.666,-0.008743,-0.002336,-0.995649,-0.000085,-0.000024,-0.009963, 0.001724, 0.005285, 0.042237,1, 0.000106, 0.000762,-0.000354,1, 0.087438, 0.028200, 9.806220,1,0
1777933976760,  3123.666,  3123.666,-0.008743,-0.002336,-0.995649,-0.000085,-0.000024,-0.009963, 0.001724, 0.005285, 0.042237,1, 0.000106, 0.000762,-0.000354,1, 0.087438, 0.028200, 9.806220,1,0
1777933976772,  3123.691,  3123.686,-0.008897,-0.002185,-0.996229,-0.000088,-0.000023,-0.009966, 0.000947, 0.003932, 0.045895,1,-0.000015,-0.000240,-0.000199,1, 0.087536, 0.028224, 9.806219,1,0
1777933976782,  3123.691,  3123.686,-0.008897,-0.002185,-0.996229,-0.000088,-0.000023,-0.009966, 0.000947, 0.003932, 0.045895,1,-0.000015,-0.000240,-0.000199,1, 0.087536, 0.028224, 9.806219,1,0
1777933976800,  3123.716,  3123.716,-0.009171,-0.002489,-0.995279,-0.000089,-0.000025,-0.009958,-0.002494, 0.003859, 0.045866,1,-0.000014, 0.000168, 0.000554,1, 0.087433, 0.028269, 9.806219,1,0
1777933976810,  3123.716,  3123.716,-0.009171,-0.002489,-0.995279,-0.000089,-0.000025,-0.009958,-0.002494, 0.003859, 0.045866,1,-0.000014, 0.000168, 0.000554,1, 0.087433, 0.028269, 9.806219,1,0
1777933976822,  3123.741,  3123.736,-0.009314,-0.003555,-0.995447,-0.000092,-0.000036,-0.009956, 0.003122,-0.004148, 0.036303,1, 0.000157, 0.000253,-0.000506,1, 0.087442, 0.028281, 9.806219,1,0
1777933976832,  3123.741,  3123.736,-0.009314,-0.003555,-0.995447,-0.000092,-0.000036,-0.009956, 0.003122,-0.004148, 0.036303,1, 0.000157, 0.000253,-0.000506,1, 0.087442, 0.028281, 9.806219,1,0
1777933976845,  3123.766,  3123.761,-0.009054,-0.002779,-0.995236,-0.000092,-0.000028,-0.009954,-0.001428, 0.000995, 0.046290,1,-0.000479,-0.000326,-0.000265,1, 0.087374, 0.028233, 9.806220,1,0
1777933976855,  3123.766,  3123.761,-0.009054,-0.002779,-0.995236,-0.000092,-0.000028,-0.009954,-0.001428, 0.000995, 0.046290,1,-0.000479,-0.000326,-0.000265,1, 0.087374, 0.028233, 9.806220,1,0
1777933976871,  3123.791,  3123.786,-0.008583,-0.002820,-0.995635,-0.000087,-0.000026,-0.009954, 0.002684,-0.002416, 0.037867,1, 0.000218,-0.000553, 0.000070,1, 0.087447, 0.028226, 9.806219,1,0
1777933976881,  3123.791,  3123.786,-0.008583,-0.002820,-0.995635,-0.000087,-0.000026,-0.009954, 0.002684,-0.002416, 0.037867,1, 0.000218,-0.000553, 0.000070,1, 0.087447, 0.028226, 9.806219,1,0
1777933976895,  3123.811,  3123.811,-0.009030,-0.002844,-0.996673,-0.000091,-0.000030,-0.009965,-0.001076, 0.000332, 0.032196,1,-0.000036, 0.000333, 0.000566,1, 0.087467, 0.028218, 9.806219,1,0
1777933976905,  3123.811,  3123.811,-0.009030,-0.002844,-0.996673,-0.000091,-0.000030,-0.009965,-0.001076, 0.000332, 0.032196,1,-0.000036, 0.000333, 0.000566,1, 0.087467, 0.028218, 9.806219,1,0
1777933976921,  3123.841,  3123.836,-0.009361,-0.002987,-0.995998,-0.000093,-0.000032,-0.009957, 0.001875, 0.001346, 0.039805,1, 0.000120, 0.000360,-0.000134,1, 0.087491, 0.028189, 9.806219,1,0
1777933976931,  3123.841,  3123.836,-0.009361,-0.002987,-0.995998,-0.000093,-0.000032,-0.009957, 0.001875, 0.001346, 0.039805,1, 0.000120, 0.000360,-0.000134,1, 0.087491, 0.028189, 9.806219,1,0
1777933976943,  3123.861,  3123.856,-0.008617,-0.003205,-0.995675,-0.000084,-0.000034,-0.009957,-0.001857,-0.001952, 0.048894,1, 0.001060, 0.000640,-0.000541,1, 0.087467, 0.028272, 9.806219,1,0
1777933976953,  3123.861,  3123.856,-0.008617,-0.003205,-0.995675,-0.000084,-0.000034,-0.009957,-0.001857,-0.001952, 0.048894,1, 0.001060, 0.000640,-0.000541,1, 0.087467, 0.028272, 9.806219,1,0
1777933976970,  3123.886,  3123.886,-0.009144,-0.003139,-0.996468,-0.000091,-0.000031,-0.009964,-0.002125,-0.002522, 0.034205,1,-0.000395,-0.000889,-0.000213,1, 0.087577, 0.028247, 9.806218,1,0
1777933976980,  3123.886,  3123.886,-0.009144,-0.003139,-0.996468,-0.000091,-0.000031,-0.009964,-0.002125,-0.002522, 0.034205,1,-0.000395,-0.000889,-0.000213,1, 0.087577, 0.028247, 9.806218,1,0
1777933976992,  3123.911,  3123.906,-0.008133,-0.002691,-0.995613,-0.000083,-0.000027,-0.009956, 0.000682, 0.004794, 0.037965,1, 0.000343,-0.001272,-0.000342,1, 0.087627, 0.028233, 9.806218,1,0
1777933977002,  3123.911,  3123.906,-0.008133,-0.002691,-0.995613,-0.000083,-0.000027,-0.009956, 0.000682, 0.004794, 0.037965,1, 0.000343,-0.001272,-0.000342,1, 0.087627, 0.028233, 9.806218,1,0
1777933977020,  3123.936,  3123.936,-0.008487,-0.002359,-0.996689,-0.000086,-0.000025,-0.009963, 0.004333, 0.005050, 0.032039,1,-0.000066,-0.000223,-0.000550,1, 0.087569, 0.028183, 9.806218,1,0
1777933977030,  3123.936,  3123.936,-0.008487,-0.002359,-0.996689,-0.000086,-0.000025,-0.009963, 0.004333, 0.005050, 0.032039,1,-0.000066,-0.000223,-0.000550,1, 0.087569, 0.028183, 9.806218,1,0
1777933977042,  3123.961,  3123.956,-0.008894,-0.002888,-0.996084,-0.000089,-0.000031,-0.009961, 0.008167,-0.001534, 0.039914,1, 0.000712, 0.000678, 0.000010,1, 0.087450, 0.028167, 9.806220,1,0
1777933977052,  3123.961,  3123.956,-0.008894,-0.002888,-0.996084,-0.000089,-0.000031,-0.009961, 0.008167,-0.001534, 0.039914,1, 0.000712, 0.000678, 0.000010,1, 0.087450, 0.028167, 9.806220,1,0
1777933977070,  3123.986,  3123.986,-0.008413,-0.002709,-0.995273,-0.000086,-0.000030,-0.009951, 0.004827, 0.001633, 0.045927,1,-0.000104, 0.000159,-0.000309,1, 0.087324, 0.028191, 9.806221,1,0
1777933977080,  3123.986,  3123.986,-0.008413,-0.002709,-0.995273,-0.000086,-0.000030,-0.009951, 0.004827, 0.001633, 0.045927,1,-0.000104, 0.000159,-0.000309,1, 0.087324, 0.028191, 9.806221,1,0
1777933977092,  3124.011,  3124.006,-0.008948,-0.002454,-0.996313,-0.000089,-0.000026,-0.009962, 0.002768,-0.002439, 0.040779,1,-0.000051, 0.000218,-0.000318,1, 0.087288, 0.028237, 9.806221,1,0
1777933977102,  3124.011,  3124.006,-0.008948,-0.002454,-0.996313,-0.000089,-0.000026,-0.009962, 0.002768,-0.002439, 0.040779,1,-0.000051, 0.000218,-0.000318,1, 0.087288, 0.028237, 9.806221,1,0
1777933977115,  3124.036,  3124.031,-0.008954,-0.003086,-0.996280,-0.000087,-0.000028,-0.009963,-0.000470,-0.002026, 0.036050,1,-0.000848,-0.000291,-0.000343,1, 0.087347, 0.028215, 9.806220,1,0
1777933977125,  3124.036,  3124.031,-0.008954,-0.003086,-0.996280,-0.000087,-0.000028,-0.009963,-0.000470,-0.002026, 0.036050,1,-0.000848,-0.000291,-0.000343,1, 0.087347, 0.028215, 9.806220,1,0
1777933977141,  3124.061,  3124.056,-0.008987,-0.002794,-0.995627,-0.000091,-0.000030,-0.009960, 0.004753, 0.008669, 0.035001,1,-0.000112,-0.000388, 0.000617,1, 0.087385, 0.028186, 9.806220,1,0
1777933977151,  3124.061,  3124.056,-0.008987,-0.002794,-0.995627,-0.000091,-0.000030,-0.009960, 0.004753, 0.008669, 0.035001,1,-0.000112,-0.000388, 0.000617,1, 0.087385, 0.028186, 9.806220,1,0
1777933977165,  3124.081,  3124.081,-0.008548,-0.003319,-0.995790,-0.000089,-0.000035,-0.009958, 0.003474,-0.004276, 0.040859,1, 0.000708, 0.000452, 0.000388,1, 0.087291, 0.028293, 9.806221,1,0
1777933977175,  3124.081,  3124.081,-0.008548,-0.003319,-0.995790,-0.000089,-0.000035,-0.009958, 0.003474,-0.004276, 0.040859,1, 0.000708, 0.000452, 0.000388,1, 0.087291, 0.028293, 9.806221,1,0
1777933977191,  3124.111,  3124.106,-0.008899,-0.002950,-0.995918,-0.000086,-0.000029,-0.009960, 0.004782,-0.002808, 0.040568,1,-0.000096, 0.000092,-0.000123,1, 0.087328, 0.028341, 9.806220,1,0
1777933977201,  3124.111,  3124.106,-0.008899,-0.002950,-0.995918,-0.000086,-0.000029,-0.009960, 0.004782,-0.002808, 0.040568,1,-0.000096, 0.000092,-0.000123,1, 0.087328, 0.028341, 9.806220,1,0
1777933977213,  3124.131,  3124.131,-0.008536,-0.001750,-0.996686,-0.000087,-0.000016,-0.009964, 0.003468, 0.011189, 0.032071,1, 0.000057, 0.000323,-0.000028,1, 0.087163, 0.028356, 9.806222,1,0
1777933977223,  3124.131,  3124.131,-0.008536,-0.001750,-0.996686,-0.000087,-0.000016,-0.009964, 0.003468, 0.011189, 0.032071,1, 0.000057, 0.000323,-0.000028,1, 0.087163, 0.028356, 9.806222,1,0
1777933977240,  3124.156,  3124.156,-0.008301,-0.002210,-0.996105,-0.000082,-0.000022,-0.009962, 0.005757, 0.006734, 0.037767,1, 0.000615,-0.000312, 0.000617,1, 0.087167, 0.028423, 9.806221,1,0
1777933977251,  3124.156,  3124.156,-0.008301,-0.002210,-0.996105,-0.000082,-0.000022,-0.009962, 0.005757, 0.006734, 0.037767,1, 0.000615,-0.000312, 0.000617,1, 0.087167, 0.028423, 9.806221,1,0
1777933977262,  3124.181,  3124.176,-0.009049,-0.003644,-0.995700,-0.000090,-0.000036,-0.009957,-0.003435,-0.007768, 0.038736,1,-0.000316,-0.000038,-0.000081,1, 0.087227, 0.028421, 9.806221,1,0
1777933977272,  3124.181,  3124.176,-0.009049,-0.003644,-0.995700,-0.000090,-0.000036,-0.009957,-0.003435,-0.007768, 0.038736,1,-0.000316,-0.000038,-0.000081,1, 0.087227, 0.028421, 9.806221,1,0
1777933977290,  3124.206,  3124.206,-0.008949,-0.003600,-0.995769,-0.000088,-0.000035,-0.009956,-0.000557,-0.006922, 0.041064,1, 0.000716, 0.000300,-0.000293,1, 0.087195, 0.028408, 9.806221,1,0
1777933977300,  3124.206,  3124.206,-0.008949,-0.003600,-0.995769,-0.000088,-0.000035,-0.009956,-0.000557,-0.006922, 0.041064,1, 0.000716, 0.000300,-0.000293,1, 0.087195, 0.028408, 9.806221,1,0
1777933977312,  3124.231,  3124.226,-0.008158,-0.002438,-0.995948,-0.000081,-0.000022,-0.009959, 0.006646, 0.000864, 0.044204,1, 0.000371, 0.000185, 0.000125,1, 0.087196, 0.028436, 9.806221,1,0
1777933977322,  3124.231,  3124.226,-0.008158,-0.002438,-0.995948,-0.000081,-0.000022,-0.009959, 0.006646, 0.000864, 0.044204,1, 0.000371, 0.000185, 0.000125,1, 0.087196, 0.028436, 9.806221,1,0
1777933977340,  3124.256,  3124.256,-0.008086,-0.002397,-0.996072,-0.000081,-0.000023,-0.009963, 0.007988, 0.004945, 0.038091,1, 0.000525, 0.000052, 0.000191,1, 0.087284, 0.028472, 9.806220,1,0
1777933977350,  3124.256,  3124.256,-0.008086,-0.002397,-0.996072,-0.000081,-0.000023,-0.009963, 0.007988, 0.004945, 0.038091,1, 0.000525, 0.000052, 0.000191,1, 0.087284, 0.028472, 9.806220,1,0
1777933977362,  3124.281,  3124.276,-0.009175,-0.003713,-0.996044,-0.000089,-0.000038,-0.009961, 0.000813,-0.008029, 0.039334,1, 0.000139,-0.000203, 0.000414,1, 0.087358, 0.028440, 9.806220,1,0
1777933977372,  3124.281,  3124.276,-0.009175,-0.003713,-0.996044,-0.000089,-0.000038,-0.009961, 0.000813,-0.008029, 0.039334,1, 0.000139,-0.000203, 0.000414,1, 0.087358, 0.028440, 9.806220,1,0
1777933977385,  3124.306,  3124.301,-0.009055,-0.003165,-0.996013,-0.000089,-0.000030,-0.009957,-0.001474,-0.002650, 0.038666,1, 0.000543, 0.000066, 0.000117,1, 0.087325, 0.028402, 9.806220,1,0
1777933977395,  3124.306,  3124.301,-0.009055,-0.003165,-0.996013,-0.000089,-0.000030,-0.009957,-0.001474,-0.002650, 0.038666,1, 0.000543, 0.000066, 0.000117,1, 0.087325, 0.028402, 9.806220,1,0
1777933977411,  3124.331,  3124.326,-0.008217,-0.002568,-0.996465,-0.000083,-0.000027,-0.009965,-0.003482, 0.001115, 0.040251,1, 0.000118, 0.000116,-0.000084,1, 0.087255, 0.028448, 9.806221,1,0
1777933977421,  3124.331,  3124.326,-0.008217,-0.002568,-0.996465,-0.000083,-0.000027,-0.009965,-0.003482, 0.001115, 0.040251,1, 0.000118, 0.000116,-0.000084,1, 0.087255, 0.028448, 9.806221,1,0
1777933977435,  3124.356,  3124.351,-0.008996,-0.002475,-0.995707,-0.000088,-0.000024,-0.009957,-0.001058, 0.004143, 0.041672,1,-0.000047,-0.000075,-0.000207,1, 0.087166, 0.028408, 9.806221,1,0
1777933977445,  3124.356,  3124.351,-0.008996,-0.002475,-0.995707,-0.000088,-0.000024,-0.009957,-0.001058, 0.004143, 0.041672,1,-0.000047,-0.000075,-0.000207,1, 0.087166, 0.028408, 9.806221,1,0
1777933977461,  3124.381,  3124.376,-0.009119,-0.003342,-0.996152,-0.000091,-0.000032,-0.009959, 0.003467,-0.001442, 0.041071,1, 0.000687, 0.000248, 0.000170,1, 0.087170, 0.028514, 9.806221,1,0
1777933977471,  3124.381,  3124.376,-0.009119,-0.003342,-0.996152,-0.000091,-0.000032,-0.009959, 0.003467,-0.001442, 0.041071,1, 0.000687, 0.000248, 0.000170,1, 0.087170, 0.028514, 9.806221,1,0
1777933977484,  3124.401,  3124.401,-0.009021,-0.003197,-0.995977,-0.000089,-0.000033,-0.009962,-0.001219,-0.002836, 0.039024,1,-0.000473,-0.000098, 0.000240,1, 0.087247, 0.028503, 9.806220,1,0
1777933977494,  3124.401,  3124.401,-0.009021,-0.003197,-0.995977,-0.000089,-0.000033,-0.009962,-0.001219,-0.002836, 0.039024,1,-0.000473,-0.000098, 0.000240,1, 0.087247, 0.028503, 9.806220,1,0
1777933977510,  3124.426,  3124.426,-0.008504,-0.002854,-0.996050,-0.000086,-0.000030,-0.009963, 0.003813, 0.000469, 0.038308,1,-0.000749, 0.000545, 0.000379,1, 0.087195, 0.028436, 9.806221,1,0
1777933977521,  3124.426,  3124.426,-0.008504,-0.002854,-0.996050,-0.000086,-0.000030,-0.009963, 0.003813, 0.000469, 0.038308,1,-0.000749, 0.000545, 0.000379,1, 0.087195, 0.028436, 9.806221,1,0
1777933977532,  3124.451,  3124.446,-0.008457,-0.002743,-0.995714,-0.000083,-0.000028,-0.009958, 0.004260, 0.004779, 0.036862,1, 0.000198, 0.000109,-0.000161,1, 0.087212, 0.028412, 9.806221,1,0
1777933977543,  3124.451,  3124.446,-0.008457,-0.002743,-0.995714,-0.000083,-0.000028,-0.009958, 0.004260, 0.004779, 0.036862,1, 0.000198, 0.000109,-0.000161,1, 0.087212, 0.028412, 9.806221,1,0
1777933977560,  3124.476,  3124.476,-0.009052,-0.002836,-0.995898,-0.000088,-0.000027,-0.009959,-0.001439, 0.000620, 0.039799,1, 0.000026, 0.000220,-0.000005,1, 0.087325, 0.028431, 9.806220,1,0
1777933977570,  3124.476,  3124.476,-0.009052,-0.002836,-0.995898,-0.000088,-0.000027,-0.009959,-0.001439, 0.000620, 0.039799,1, 0.000026, 0.000220,-0.000005,1, 0.087325, 0.028431, 9.806220,1,0
1777933977582,  3124.501,  3124.496,-0.008838,-0.003335,-0.995632,-0.000087,-0.000035,-0.009953, 0.003184,-0.005711, 0.043843,1, 0.000105, 0.000129, 0.000403,1, 0.087381, 0.028469, 9.806219,1,0
1777933977592,  3124.501,  3124.496,-0.008838,-0.003335,-0.995632,-0.000087,-0.000035,-0.009953, 0.003184,-0.005711, 0.043843,1, 0.000105, 0.000129, 0.000403,1, 0.087381, 0.028469, 9.806219,1,0
1777933977610,  3124.526,  3124.526,-0.008361,-0.002687,-0.996040,-0.000082,-0.000029,-0.009964, 0.005463, 0.002063, 0.038402,1,-0.000540,-0.000939, 0.000049,1, 0.087448, 0.028411, 9.806219,1,0
1777933977620,  3124.526,  3124.526,-0.008361,-0.002687,-0.996040,-0.000082,-0.000029,-0.009964, 0.005463, 0.002063, 0.038402,1,-0.000540,-0.000939, 0.000049,1, 0.087448, 0.028411, 9.806219,1,0
1777933977632,  3124.551,  3124.546,-0.008279,-0.002970,-0.996193,-0.000082,-0.000029,-0.009960,-0.001173, 0.004560, 0.043847,1,-0.000386,-0.000182, 0.000069,1, 0.087564, 0.028362, 9.806218,1,0
1777933977642,  3124.551,  3124.546,-0.008279,-0.002970,-0.996193,-0.000082,-0.000029,-0.009960,-0.001173, 0.004560, 0.043847,1,-0.000386,-0.000182, 0.000069,1, 0.087564, 0.028362, 9.806218,1,0
1777933977655,  3124.576,  3124.576,-0.008789,-0.002677,-0.996253,-0.000088,-0.000029,-0.009959, 0.001288, 0.002050, 0.036316,1, 0.000190, 0.000123, 0.000345,1, 0.087477, 0.028309, 9.806219,1,0
1777933977665,  3124.576,  3124.576,-0.008789,-0.002677,-0.996253,-0.000088,-0.000029,-0.009959, 0.001288, 0.002050, 0.036316,1, 0.000190, 0.000123, 0.000345,1, 0.087477, 0.028309, 9.806219,1,0
1777933977681,  3124.601,  3124.596,-0.009309,-0.003301,-0.995817,-0.000092,-0.000032,-0.009958,-0.002403,-0.001919, 0.037654,1, 0.000482,-0.000208,-0.000199,1, 0.087469, 0.028384, 9.806219,1,0
1777933977691,  3124.601,  3124.596,-0.009309,-0.003301,-0.995817,-0.000092,-0.000032,-0.009958,-0.002403,-0.001919, 0.037654,1, 0.000482,-0.000208,-0.000199,1, 0.087469, 0.028384, 9.806219,1,0
1777933977705,  3124.626,  3124.621,-0.009274,-0.002625,-0.996600,-0.000093,-0.000028,-0.009962,-0.003503, 0.002588, 0.032907,1, 0.000490, 0.000302, 0.000136,1, 0.087432, 0.028349, 9.806219,1,0
1777933977715,  3124.626,  3124.621,-0.009274,-0.002625,-0.996600,-0.000093,-0.000028,-0.009962,-0.003503, 0.002588, 0.032907,1, 0.000490, 0.000302, 0.000136,1, 0.087432, 0.028349, 9.806219,1,0
1777933977731,  3124.651,  3124.646,-0.009231,-0.003627,-0.995442,-0.000090,-0.000032,-0.009952, 0.002740, 0.002407, 0.039251,1,-0.001018, 0.000221,-0.000441,1, 0.087430, 0.028292, 9.806219,1,0
1777933977741,  3124.651,  3124.646,-0.009231,-0.003627,-0.995442,-0.000090,-0.000032,-0.009952, 0.002740, 0.002407, 0.039251,1,-0.001018, 0.000221,-0.000441,1, 0.087430, 0.028292, 9.806219,1,0
1777933977754,  3124.671,  3124.671,-0.008176,-0.002645,-0.995952,-0.000082,-0.000028,-0.009955, 0.007338, 0.002356, 0.039264,1,-0.000187,-0.000203,-0.000509,1, 0.087522, 0.028291, 9.806219,1,0
1777933977764,  3124.671,  3124.671,-0.008176,-0.002645,-0.995952,-0.000082,-0.000028,-0.009955, 0.007338, 0.002356, 0.039264,1,-0.000187,-0.000203,-0.000509,1, 0.087522, 0.028291, 9.806219,1,0
1777933977781,  3124.696,  3124.696,-0.009261,-0.002544,-0.995917,-0.000088,-0.000028,-0.009962,-0.003267, 0.003330, 0.039612,1, 0.000051,-0.000029, 0.000070,1, 0.087551, 0.028282, 9.806218,1,0
1777933977791,  3124.696,  3124.696,-0.009261,-0.002544,-0.995917,-0.000088,-0.000028,-0.009962,-0.003267, 0.003330, 0.039612,1, 0.000051,-0.000029, 0.000070,1, 0.087551, 0.028282, 9.806218,1,0
1777933977802,  3124.721,  3124.716,-0.008393,-0.002339,-0.995683,-0.000084,-0.000024,-0.009955, 0.001602, 0.008184, 0.040872,1,-0.000101, 0.000011, 0.000288,1, 0.087565, 0.028250, 9.806218,1,0
1777933977813,  3124.721,  3124.716,-0.008393,-0.002339,-0.995683,-0.000084,-0.000024,-0.009955, 0.001602, 0.008184, 0.040872,1,-0.000101, 0.000011, 0.000288,1, 0.087565, 0.028250, 9.806218,1,0
1777933977830,  3124.746,  3124.746,-0.009103,-0.002931,-0.995846,-0.000090,-0.000031,-0.009959,-0.001557,-0.000557, 0.040303,1,-0.000392,-0.000633, 0.000179,1, 0.087737, 0.028173, 9.806217,1,0
1777933977840,  3124.746,  3124.746,-0.009103,-0.002931,-0.995846,-0.000090,-0.000031,-0.009959,-0.001557,-0.000557, 0.040303,1,-0.000392,-0.000633, 0.000179,1, 0.087737, 0.028173, 9.806217,1,0
1777933977852,  3124.771,  3124.766,-0.009309,-0.002888,-0.995641,-0.000093,-0.000029,-0.009960,-0.000685, 0.005529, 0.046352,1, 0.000895, 0.000267, 0.000855,1, 0.087764, 0.028209, 9.806216,1,0
1777933977862,  3124.771,  3124.766,-0.009309,-0.002888,-0.995641,-0.000093,-0.000029,-0.009960,-0.000685, 0.005529, 0.046352,1, 0.000895, 0.000267, 0.000855,1, 0.087764, 0.028209, 9.806216,1,0
1777933977880,  3124.796,  3124.796,-0.008715,-0.002946,-0.995641,-0.000088,-0.000031,-0.009952, 0.002190,-0.000616, 0.042315,1, 0.000245, 0.000952, 0.000196,1, 0.087625, 0.028280, 9.806218,1,0
1777933977890,  3124.796,  3124.796,-0.008715,-0.002946,-0.995641,-0.000088,-0.000031,-0.009952, 0.002190,-0.000616, 0.042315,1, 0.000245, 0.000952, 0.000196,1, 0.087625, 0.028280, 9.806218,1,0
1777933977902,  3124.821,  3124.816,-0.008670,-0.002427,-0.996153,-0.000087,-0.000026,-0.009959, 0.007567, 0.004087, 0.031625,1,-0.000037, 0.000385, 0.000526,1, 0.087618, 0.028225, 9.806218,1,0
1777933977912,  3124.821,  3124.816,-0.008670,-0.002427,-0.996153,-0.000087,-0.000026,-0.009959, 0.007567, 0.004087, 0.031625,1,-0.000037, 0.000385, 0.000526,1, 0.087618, 0.028225, 9.806218,1,0
1777933977929,  3124.846,  3124.846,-0.008829,-0.003069,-0.995778,-0.000085,-0.000032,-0.009958, 0.001039,-0.001819, 0.040973,1, 0.000093, 0.000307, 0.000400,1, 0.087608, 0.028276, 9.806218,1,0
1777933977939,  3124.846,  3124.846,-0.008829,-0.003069,-0.995778,-0.000085,-0.000032,-0.009958, 0.001039,-0.001819, 0.040973,1, 0.000093, 0.000307, 0.000400,1, 0.087608, 0.028276, 9.806218,1,0
1777933977951,  3124.871,  3124.866,-0.008347,-0.002675,-0.996037,-0.000083,-0.000026,-0.009961, 0.001050, 0.001576, 0.039856,1, 0.000194,-0.000193, 0.000516,1, 0.087641, 0.028310, 9.806217,1,0
1777933977961,  3124.871,  3124.866,-0.008347,-0.002675,-0.996037,-0.000083,-0.000026,-0.009961, 0.001050, 0.001576, 0.039856,1, 0.000194,-0.000193, 0.000516,1, 0.087641, 0.028310, 9.806217,1,0
1777933977975,  3124.896,  3124.891,-0.008790,-0.002785,-0.995923,-0.000091,-0.000027,-0.009957, 0.001380, 0.001162, 0.039552,1, 0.000736,-0.000937, 0.000124,1, 0.087614, 0.028497, 9.806217,1,0
1777933977985,  3124.896,  3124.891,-0.008790,-0.002785,-0.995923,-0.000091,-0.000027,-0.009957, 0.001380, 0.001162, 0.039552,1, 0.000736,-0.000937, 0.000124,1, 0.087614, 0.028497, 9.806217,1,0
1777933978001,  3124.921,  3124.916,-0.008746,-0.002620,-0.995677,-0.000085,-0.000025,-0.009959, 0.006581, 0.000277, 0.041456,1,-0.000163,-0.000050, 0.000316,1, 0.087583, 0.028563, 9.806217,1,0
1777933978011,  3124.921,  3124.916,-0.008746,-0.002620,-0.995677,-0.000085,-0.000025,-0.009959, 0.006581, 0.000277, 0.041456,1,-0.000163,-0.000050, 0.000316,1, 0.087583, 0.028563, 9.806217,1,0
1777933978024,  3124.941,  3124.941,-0.008839,-0.002435,-0.995239,-0.000087,-0.000019,-0.009956, 0.000769, 0.004662, 0.046257,1,-0.000418, 0.000112,-0.000069,1, 0.087451, 0.028525, 9.806218,1,0
1777933978034,  3124.941,  3124.941,-0.008839,-0.002435,-0.995239,-0.000087,-0.000019,-0.009956, 0.000769, 0.004662, 0.046257,1,-0.000418, 0.000112,-0.000069,1, 0.087451, 0.028525, 9.806218,1,0
1777933978051,  3124.966,  3124.966,-0.008523,-0.003382,-0.995968,-0.000087,-0.000034,-0.009958, 0.003887,-0.004622, 0.039108,1,-0.000060, 0.000325, 0.000272,1, 0.087461, 0.028538, 9.806218,1,0
1777933978061,  3124.966,  3124.966,-0.008523,-0.003382,-0.995968,-0.000087,-0.000034,-0.009958, 0.003887,-0.004622, 0.039108,1,-0.000060, 0.000325, 0.000272,1, 0.087461, 0.028538, 9.806218,1,0
1777933978072,  3124.991,  3124.986,-0.008468,-0.003209,-0.995713,-0.000088,-0.000027,-0.009957, 0.001232,-0.001470, 0.041584,1,-0.000120, 0.000362,-0.000232,1, 0.087470, 0.028509, 9.806218,1,0
1777933978083,  3124.991,  3124.986,-0.008468,-0.003209,-0.995713,-0.000088,-0.000027,-0.009957, 0.001232,-0.001470, 0.041584,1,-0.000120, 0.000362,-0.000232,1, 0.087470, 0.028509, 9.806218,1,0
1777933978100,  3125.016,  3125.016,-0.008849,-0.003300,-0.996157,-0.000089,-0.000033,-0.009966, 0.000567,-0.003817, 0.037252,1,-0.000162, 0.000317, 0.000334,1, 0.087337, 0.028544, 9.806219,1,0
1777933978110,  3125.016,  3125.016,-0.008849,-0.003300,-0.996157,-0.000089,-0.000033,-0.009966, 0.000567,-0.003817, 0.037252,1,-0.000162, 0.000317, 0.000334,1, 0.087337, 0.028544, 9.806219,1,0
1777933978122,  3125.041,  3125.036,-0.008807,-0.002446,-0.995875,-0.000087,-0.000027,-0.009957,-0.001755,-0.000622, 0.045417,1, 0.000012,-0.000006, 0.000139,1, 0.087393, 0.028544, 9.806219,1,0
1777933978132,  3125.041,  3125.036,-0.008807,-0.002446,-0.995875,-0.000087,-0.000027,-0.009957,-0.001755,-0.000622, 0.045417,1, 0.000012,-0.000006, 0.000139,1, 0.087393, 0.028544, 9.806219,1,0
1777933978150,  3125.066,  3125.066,-0.008716,-0.002750,-0.995051,-0.000087,-0.000026,-0.009954, 0.001953, 0.001578, 0.048103,1,-0.000335,-0.000456, 0.000067,1, 0.087444, 0.028531, 9.806219,1,0
1777933978160,  3125.066,  3125.066,-0.008716,-0.002750,-0.995051,-0.000087,-0.000026,-0.009954, 0.001953, 0.001578, 0.048103,1,-0.000335,-0.000456, 0.000067,1, 0.087444, 0.028531, 9.806219,1,0
1777933978172,  3125.091,  3125.086,-0.008813,-0.002540,-0.995495,-0.000090,-0.000027,-0.009959,-0.001522,-0.000653, 0.039271,1, 0.000134, 0.000041, 0.000009,1, 0.087428, 0.028555, 9.806219,1,0
1777933978182,  3125.091,  3125.086,-0.008813,-0.002540,-0.995495,-0.000090,-0.000027,-0.009959,-0.001522,-0.000653, 0.039271,1, 0.000134, 0.000041, 0.000009,1, 0.087428, 0.028555, 9.806219,1,0
1777933978199,  3125.116,  3125.116,-0.009270,-0.002791,-0.996065,-0.000092,-0.000027,-0.009960,-0.003456, 0.001270, 0.038160,1,-0.000006,-0.000549, 0.000282,1, 0.087471, 0.028639, 9.806218,1,0
1777933978209,  3125.116,  3125.116,-0.009270,-0.002791,-0.996065,-0.000092,-0.000027,-0.009960,-0.003456, 0.001270, 0.038160,1,-0.000006,-0.000549, 0.000282,1, 0.087471, 0.028639, 9.806218,1,0
1777933978221,  3125.141,  3125.136,-0.008727,-0.002980,-0.995487,-0.000088,-0.000030,-0.009952, 0.004028,-0.006575, 0.038395,1,-0.000080, 0.000163, 0.000243,1, 0.087355, 0.028566, 9.806219,1,0
1777933978231,  3125.141,  3125.136,-0.008727,-0.002980,-0.995487,-0.000088,-0.000030,-0.009952, 0.004028,-0.006575, 0.038395,1,-0.000080, 0.000163, 0.000243,1, 0.087355, 0.028566, 9.806219,1,0
1777933978245,  3125.166,  3125.161,-0.008540,-0.003063,-0.995641,-0.000086,-0.000030,-0.009959, 0.003626,-0.001510, 0.042316,1,-0.000306,-0.000256,-0.000039,1, 0.087387, 0.028523, 9.806219,1,0
1777933978255,  3125.166,  3125.161,-0.008540,-0.003063,-0.995641,-0.000086,-0.000030,-0.009959, 0.003626,-0.001510, 0.042316,1,-0.000306,-0.000256,-0.000039,1, 0.087387, 0.028523, 9.806219,1,0
1777933978271,  3125.191,  3125.186,-0.009170,-0.002586,-0.996294,-0.000087,-0.000029,-0.009962,-0.000085,-0.003219, 0.043055,1,-0.000218, 0.000215,-0.000378,1, 0.087355, 0.028477, 9.806219,1,0
1777933978281,  3125.191,  3125.186,-0.009170,-0.002586,-0.996294,-0.000087,-0.000029,-0.009962,-0.000085,-0.003219, 0.043055,1,-0.000218, 0.000215,-0.000378,1, 0.087355, 0.028477, 9.806219,1,0
1777933978294,  3125.211,  3125.211,-0.009116,-0.002859,-0.995466,-0.000087,-0.000027,-0.009958,-0.001988, 0.000362, 0.044031,1,-0.000204,-0.000482, 0.000142,1, 0.087424, 0.028396, 9.806219,1,0
1777933978304,  3125.211,  3125.211,-0.009116,-0.002859,-0.995466,-0.000087,-0.000027,-0.009958,-0.001988, 0.000362, 0.044031,1,-0.000204,-0.000482, 0.000142,1, 0.087424, 0.028396, 9.806219,1,0
1777933978321,  3125.236,  3125.236,-0.009241,-0.002252,-0.995368,-0.000093,-0.000022,-0.009958,-0.003306, 0.006312, 0.044992,1, 0.000140, 0.000485, 0.000072,1, 0.087302, 0.028397, 9.806220,1,0
1777933978331,  3125.236,  3125.236,-0.009241,-0.002252,-0.995368,-0.000093,-0.000022,-0.009958,-0.003306, 0.006312, 0.044992,1, 0.000140, 0.000485, 0.000072,1, 0.087302, 0.028397, 9.806220,1,0
1777933978343,  3125.261,  3125.256,-0.008510,-0.003007,-0.996043,-0.000085,-0.000031,-0.009958, 0.000013, 0.002048, 0.037587,1, 0.000848, 0.000522,-0.000118,1, 0.087231, 0.028476, 9.806221,1,0
1777933978353,  3125.261,  3125.256,-0.008510,-0.003007,-0.996043,-0.000085,-0.000031,-0.009958, 0.000013, 0.002048, 0.037587,1, 0.000848, 0.000522,-0.000118,1, 0.087231, 0.028476, 9.806221,1,0
1777933978370,  3125.286,  3125.286,-0.008392,-0.002210,-0.995855,-0.000083,-0.000022,-0.009962, 0.004853, 0.006871, 0.040221,1, 0.000246, 0.000114, 0.000094,1, 0.087151, 0.028552, 9.806221,1,0
1777933978380,  3125.286,  3125.286,-0.008392,-0.002210,-0.995855,-0.000083,-0.000022,-0.009962, 0.004853, 0.006871, 0.040221,1, 0.000246, 0.000114, 0.000094,1, 0.087151, 0.028552, 9.806221,1,0
1777933978392,  3125.311,  3125.306,-0.008410,-0.002754,-0.995582,-0.000082,-0.000030,-0.009959, 0.001930, 0.003606, 0.041398,1, 0.000651,-0.000685, 0.000189,1, 0.087183, 0.028604, 9.806221,1,0
1777933978402,  3125.311,  3125.306,-0.008410,-0.002754,-0.995582,-0.000082,-0.000030,-0.009959, 0.001930, 0.003606, 0.041398,1, 0.000651,-0.000685, 0.000189,1, 0.087183, 0.028604, 9.806221,1,0
1777933978420,  3125.336,  3125.336,-0.009006,-0.003230,-0.995701,-0.000090,-0.000033,-0.009955,-0.001148,-0.003193, 0.041732,1, 0.000048,-0.000225, 0.000080,1, 0.087177, 0.028486, 9.806221,1,0
1777933978430,  3125.336,  3125.336,-0.009006,-0.003230,-0.995701,-0.000090,-0.000033,-0.009955,-0.001148,-0.003193, 0.041732,1, 0.000048,-0.000225, 0.000080,1, 0.087177, 0.028486, 9.806221,1,0
1777933978442,  3125.361,  3125.356,-0.009022,-0.003042,-0.995560,-0.000089,-0.000031,-0.009954, 0.000640, 0.001253, 0.037479,1, 0.000013, 0.000155,-0.000495,1, 0.087231, 0.028530, 9.806220,1,0
1777933978452,  3125.361,  3125.356,-0.009022,-0.003042,-0.995560,-0.000089,-0.000031,-0.009954, 0.000640, 0.001253, 0.037479,1, 0.000013, 0.000155,-0.000495,1, 0.087231, 0.028530, 9.806220,1,0
1777933978469,  3125.386,  3125.386,-0.008770,-0.002757,-0.997005,-0.000088,-0.000029,-0.009967, 0.001184, 0.001556, 0.028942,1,-0.000236, 0.000606,-0.000078,1, 0.087173, 0.028587, 9.806221,1,0
1777933978479,  3125.386,  3125.386,-0.008770,-0.002757,-0.997005,-0.000088,-0.000029,-0.009967, 0.001184, 0.001556, 0.028942,1,-0.000236, 0.000606,-0.000078,1, 0.087173, 0.028587, 9.806221,1,0
1777933978491,  3125.411,  3125.406,-0.008325,-0.002807,-0.996036,-0.000085,-0.000027,-0.009960, 0.000762, 0.006440, 0.042651,1,-0.000649,-0.000410,-0.000167,1, 0.087221, 0.028523, 9.806221,1,0
1777933978501,  3125.411,  3125.406,-0.008325,-0.002807,-0.996036,-0.000085,-0.000027,-0.009960, 0.000762, 0.006440, 0.042651,1,-0.000649,-0.000410,-0.000167,1, 0.087221, 0.028523, 9.806221,1,0
1777933978515,  3125.436,  3125.431,-0.008345,-0.002806,-0.995889,-0.000082,-0.000028,-0.009959, 0.005302, 0.001012, 0.039887,1, 0.000131, 0.000855, 0.000419,1, 0.087111, 0.028535, 9.806222,1,0
1777933978525,  3125.436,  3125.431,-0.008345,-0.002806,-0.995889,-0.000082,-0.000028,-0.009959, 0.005302, 0.001012, 0.039887,1, 0.000131, 0.000855, 0.000419,1, 0.087111, 0.028535, 9.806222,1,0
1777933978541,  3125.461,  3125.456,-0.008708,-0.002793,-0.995486,-0.000085,-0.000029,-0.009954,-0.002784, 0.001664, 0.035033,1,-0.000522, 0.000314,-0.000482,1, 0.086994, 0.028512, 9.806223,1,0
1777933978551,  3125.461,  3125.456,-0.008708,-0.002793,-0.995486,-0.000085,-0.000029,-0.009954,-0.002784, 0.001664, 0.035033,1,-0.000522, 0.000314,-0.000482,1, 0.086994, 0.028512, 9.806223,1,0
1777933978564,  3125.481,  3125.481,-0.009069,-0.002703,-0.996065,-0.000090,-0.000026,-0.009960,-0.002002, 0.002025, 0.038158,1,-0.000632, 0.000068,-0.000084,1, 0.086937, 0.028513, 9.806223,1,0
1777933978575,  3125.481,  3125.481,-0.009069,-0.002703,-0.996065,-0.000090,-0.000026,-0.009960,-0.002002, 0.002025, 0.038158,1,-0.000632, 0.000068,-0.000084,1, 0.086937, 0.028513, 9.806223,1,0
1777933978591,  3125.506,  3125.506,-0.008524,-0.002680,-0.995501,-0.000084,-0.000028,-0.009957, 0.003363, 0.002193, 0.043691,1,-0.000517,-0.000488, 0.000005,1, 0.086966, 0.028464, 9.806223,1,0
1777933978601,  3125.506,  3125.506,-0.008524,-0.002680,-0.995501,-0.000084,-0.000028,-0.009957, 0.003363, 0.002193, 0.043691,1,-0.000517,-0.000488, 0.000005,1, 0.086966, 0.028464, 9.806223,1,0
1777933978613,  3125.531,  3125.526,-0.008602,-0.002798,-0.996380,-0.000087,-0.000025,-0.009963, 0.005973, 0.002756, 0.041355,1, 0.000610, 0.000108, 0.000084,1, 0.087008, 0.028430, 9.806223,1,0
1777933978623,  3125.531,  3125.526,-0.008602,-0.002798,-0.996380,-0.000087,-0.000025,-0.009963, 0.005973, 0.002756, 0.041355,1, 0.000610, 0.000108, 0.000084,1, 0.087008, 0.028430, 9.806223,1,0
1777933978640,  3125.556,  3125.556,-0.008634,-0.003282,-0.995013,-0.000084,-0.000038,-0.009954, 0.002296,-0.003663, 0.048479,1,-0.000408,-0.000356, 0.000459,1, 0.086977, 0.028505, 9.806223,1,0
1777933978650,  3125.556,  3125.556,-0.008634,-0.003282,-0.995013,-0.000084,-0.000038,-0.009954, 0.002296,-0.003663, 0.048479,1,-0.000408,-0.000356, 0.000459,1, 0.086977, 0.028505, 9.806223,1,0
1777933978662,  3125.581,  3125.576,-0.008939,-0.003385,-0.995087,-0.000090,-0.000035,-0.009954, 0.002970,-0.005780, 0.038659,1, 0.000002, 0.000596,-0.000191,1, 0.086885, 0.028549, 9.806224,1,0
1777933978672,  3125.581,  3125.576,-0.008939,-0.003385,-0.995087,-0.000090,-0.000035,-0.009954, 0.002970,-0.005780, 0.038659,1, 0.000002, 0.000596,-0.000191,1, 0.086885, 0.028549, 9.806224,1,0
1777933978690,  3125.606,  3125.606,-0.008843,-0.002187,-0.995516,-0.000090,-0.000022,-0.009954, 0.000219, 0.007082, 0.043547,1,-0.000703, 0.000185, 0.000107,1, 0.086934, 0.028504, 9.806223,1,0
1777933978700,  3125.606,  3125.606,-0.008843,-0.002187,-0.995516,-0.000090,-0.000022,-0.009954, 0.000219, 0.007082, 0.043547,1,-0.000703, 0.000185, 0.000107,1, 0.086934, 0.028504, 9.806223,1,0
1777933978712,  3125.631,  3125.626,-0.008793,-0.002129,-0.995981,-0.000092,-0.000018,-0.009963,-0.002151, 0.005838, 0.037820,1, 0.000239,-0.000593,-0.000188,1, 0.086871, 0.028599, 9.806224,1,0
1777933978722,  3125.631,  3125.626,-0.008793,-0.002129,-0.995981,-0.000092,-0.000018,-0.009963,-0.002151, 0.005838, 0.037820,1, 0.000239,-0.000593,-0.000188,1, 0.086871, 0.028599, 9.806224,1,0
1777933978739,  3125.656,  3125.656,-0.008625,-0.003147,-0.996238,-0.000087,-0.000028,-0.009960, 0.002276,-0.002239, 0.036461,1, 0.000282, 0.000081, 0.000502,1, 0.086853, 0.028631, 9.806224,1,0
1777933978749,  3125.656,  3125.656,-0.008625,-0.003147,-0.996238,-0.000087,-0.000028,-0.009960, 0.002276,-0.002239, 0.036461,1, 0.000282, 0.000081, 0.000502,1, 0.086853, 0.028631, 9.806224,1,0
1777933978761,  3125.681,  3125.676,-0.009070,-0.003138,-0.995371,-0.000088,-0.000030,-0.009954, 0.001959,-0.006191, 0.046207,1, 0.000103,-0.000081,-0.000033,1, 0.086841, 0.028692, 9.806224,1,0
1777933978772,  3125.681,  3125.676,-0.009070,-0.003138,-0.995371,-0.000088,-0.000030,-0.009954, 0.001959,-0.006191, 0.046207,1, 0.000103,-0.000081,-0.000033,1, 0.086841, 0.028692, 9.806224,1,0
1777933978785,  3125.706,  3125.701,-0.008088,-0.002877,-0.996064,-0.000083,-0.000028,-0.009959, 0.007500, 0.000419, 0.038176,1,-0.000146, 0.000391,-0.000359,1, 0.086801, 0.028629, 9.806224,1,0
1777933978795,  3125.706,  3125.701,-0.008088,-0.002877,-0.996064,-0.000083,-0.000028,-0.009959, 0.007500, 0.000419, 0.038176,1,-0.000146, 0.000391,-0.000359,1, 0.086801, 0.028629, 9.806224,1,0
1777933978811,  3125.731,  3125.726,-0.009005,-0.002280,-0.995669,-0.000089,-0.000023,-0.009960, 0.004773, 0.010982, 0.040095,1, 0.000020,-0.000148, 0.000138,1, 0.086776, 0.028608, 9.806224,1,0
1777933978821,  3125.731,  3125.726,-0.009005,-0.002280,-0.995669,-0.000089,-0.000023,-0.009960, 0.004773, 0.010982, 0.040095,1, 0.000020,-0.000148, 0.000138,1, 0.086776, 0.028608, 9.806224,1,0
1777933978834,  3125.751,  3125.751,-0.008841,-0.002660,-0.995645,-0.000089,-0.000026,-0.009954,-0.000060, 0.002459, 0.042285,1,-0.000490, 0.000556,-0.000040,1, 0.086619, 0.028528, 9.806226,1,0
1777933978845,  3125.751,  3125.751,-0.008841,-0.002660,-0.995645,-0.000089,-0.000026,-0.009954,-0.000060, 0.002459, 0.042285,1,-0.000490, 0.000556,-0.000040,1, 0.086619, 0.028528, 9.806226,1,0
1777933978861,  3125.776,  3125.776,-0.009484,-0.003316,-0.995705,-0.000094,-0.000035,-0.009956,-0.006382,-0.003965, 0.041690,1, 0.000979, 0.000249, 0.000127,1, 0.086618, 0.028587, 9.806226,1,0
1777933978871,  3125.776,  3125.776,-0.009484,-0.003316,-0.995705,-0.000094,-0.000035,-0.009956,-0.006382,-0.003965, 0.041690,1, 0.000979, 0.000249, 0.000127,1, 0.086618, 0.028587, 9.806226,1,0
1777933978883,  3125.801,  3125.796,-0.008865,-0.002578,-0.995631,-0.000088,-0.000028,-0.009957, 0.000407,-0.003394, 0.039010,1,-0.000561,-0.000333,-0.000577,1, 0.086571, 0.028510, 9.806227,1,0
1777933978893,  3125.801,  3125.796,-0.008865,-0.002578,-0.995631,-0.000088,-0.000028,-0.009957, 0.000407,-0.003394, 0.039010,1,-0.000561,-0.000333,-0.000577,1, 0.086571, 0.028510, 9.806227,1,0
1777933978910,  3125.826,  3125.826,-0.008522,-0.002876,-0.996078,-0.000082,-0.000027,-0.009964, 0.002938, 0.000304, 0.038038,1,-0.000376, 0.000532,-0.000235,1, 0.086490, 0.028495, 9.806227,1,0
1777933978920,  3125.826,  3125.826,-0.008522,-0.002876,-0.996078,-0.000082,-0.000027,-0.009964, 0.002938, 0.000304, 0.038038,1,-0.000376, 0.000532,-0.000235,1, 0.086490, 0.028495, 9.806227,1,0
1777933978932,  3125.851,  3125.846,-0.008593,-0.002611,-0.995971,-0.000087,-0.000029,-0.009959, 0.004259, 0.005032, 0.045789,1, 0.000082,-0.000079, 0.000189,1, 0.086502, 0.028506, 9.806227,1,0
1777933978942,  3125.851,  3125.846,-0.008593,-0.002611,-0.995971,-0.000087,-0.000029,-0.009959, 0.004259, 0.005032, 0.045789,1, 0.000082,-0.000079, 0.000189,1, 0.086502, 0.028506, 9.806227,1,0
1777933978960,  3125.876,  3125.876,-0.008806,-0.003281,-0.995385,-0.000087,-0.000032,-0.009956, 0.000172,-0.003675, 0.044830,1, 0.000284, 0.000639, 0.000345,1, 0.086512, 0.028513, 9.806227,1,0
1777933978970,  3125.876,  3125.876,-0.008806,-0.003281,-0.995385,-0.000087,-0.000032,-0.009956, 0.000172,-0.003675, 0.044830,1, 0.000284, 0.000639, 0.000345,1, 0.086512, 0.028513, 9.806227,1,0
1777933978982,  3125.901,  3125.896,-0.008671,-0.002713,-0.996035,-0.000087,-0.000027,-0.009960, 0.001899, 0.001695, 0.039363,1, 0.000672,-0.000460, 0.000176,1, 0.086530, 0.028587, 9.806227,1,0
1777933978992,  3125.901,  3125.896,-0.008671,-0.002713,-0.996035,-0.000087,-0.000027,-0.009960, 0.001899, 0.001695, 0.039363,1, 0.000672,-0.000460, 0.000176,1, 0.086530, 0.028587, 9.806227,1,0
1777933979009,  3125.926,  3125.926,-0.009144,-0.002785,-0.995680,-0.000089,-0.000026,-0.009956,-0.003089, 0.001323, 0.041938,1, 0.000341, 0.000185,-0.000379,1, 0.086578, 0.028624, 9.806226,1,0
1777933979020,  3125.926,  3125.926,-0.009144,-0.002785,-0.995680,-0.000089,-0.000026,-0.009956,-0.003089, 0.001323, 0.041938,1, 0.000341, 0.000185,-0.000379,1, 0.086578, 0.028624, 9.806226,1,0
1777933979031,  3125.951,  3125.946,-0.008916,-0.002804,-0.995825,-0.000089,-0.000028,-0.009958, 0.000625,-0.004944, 0.044774,1,-0.000243, 0.000033, 0.000380,1, 0.086594, 0.028631, 9.806226,1,0
1777933979042,  3125.951,  3125.946,-0.008916,-0.002804,-0.995825,-0.000089,-0.000028,-0.009958, 0.000625,-0.004944, 0.044774,1,-0.000243, 0.000033, 0.000380,1, 0.086594, 0.028631, 9.806226,1,0
1777933979055,  3125.976,  3125.971,-0.008708,-0.002461,-0.996538,-0.000085,-0.000026,-0.009965, 0.001114, 0.004494, 0.033530,1, 0.000110,-0.000250,-0.000021,1, 0.086520, 0.028630, 9.806227,1,0
1777933979065,  3125.976,  3125.971,-0.008708,-0.002461,-0.996538,-0.000085,-0.000026,-0.009965, 0.001114, 0.004494, 0.033530,1, 0.000110,-0.000250,-0.000021,1, 0.086520, 0.028630, 9.806227,1,0
1777933979081,  3126.001,  3125.996,-0.008214,-0.002816,-0.996386,-0.000085,-0.000030,-0.009961, 0.003397, 0.004081, 0.037342,1, 0.000909, 0.000530, 0.000111,1, 0.086450, 0.028645, 9.806227,1,0
1777933979091,  3126.001,  3125.996,-0.008214,-0.002816,-0.996386,-0.000085,-0.000030,-0.009961, 0.003397, 0.004081, 0.037342,1, 0.000909, 0.000530, 0.000111,1, 0.086450, 0.028645, 9.806227,1,0
1777933979104,  3126.021,  3126.021,-0.008417,-0.002380,-0.996021,-0.000086,-0.000025,-0.009960, 0.003919, 0.005220, 0.038602,1,-0.000449, 0.000138,-0.000044,1, 0.086461, 0.028549, 9.806228,1,0
1777933979115,  3126.021,  3126.021,-0.008417,-0.002380,-0.996021,-0.000086,-0.000025,-0.009960, 0.003919, 0.005220, 0.038602,1,-0.000449, 0.000138,-0.000044,1, 0.086461, 0.028549, 9.806228,1,0
1777933979131,  3126.051,  3126.046,-0.008561,-0.002691,-0.996003,-0.000087,-0.000029,-0.009958, 0.002710, 0.002086, 0.040641,1,-0.000110,-0.000098,-0.000263,1, 0.086459, 0.028504, 9.806228,1,0
1777933979141,  3126.051,  3126.046,-0.008561,-0.002691,-0.996003,-0.000087,-0.000029,-0.009958, 0.002710, 0.002086, 0.040641,1,-0.000110,-0.000098,-0.000263,1, 0.086459, 0.028504, 9.806228,1,0
1777933979153,  3126.071,  3126.066,-0.008360,-0.002448,-0.996026,-0.000086,-0.000025,-0.009957, 0.003312, 0.002527, 0.038759,1, 0.000122,-0.000409,-0.000052,1, 0.086503, 0.028450, 9.806227,1,0
1777933979163,  3126.071,  3126.066,-0.008360,-0.002448,-0.996026,-0.000086,-0.000025,-0.009957, 0.003312, 0.002527, 0.038759,1, 0.000122,-0.000409,-0.000052,1, 0.086503, 0.028450, 9.806227,1,0
1777933979180,  3126.096,  3126.096,-0.008582,-0.002532,-0.995995,-0.000087,-0.000027,-0.009962, 0.002408, 0.003611, 0.038847,1, 0.000901, 0.000534, 0.000140,1, 0.086550, 0.028467, 9.806227,1,0
1777933979190,  3126.096,  3126.096,-0.008582,-0.002532,-0.995995,-0.000087,-0.000027,-0.009962, 0.002408, 0.003611, 0.038847,1, 0.000901, 0.000534, 0.000140,1, 0.086550, 0.028467, 9.806227,1,0
1777933979202,  3126.121,  3126.116,-0.008688,-0.002912,-0.995610,-0.000085,-0.000031,-0.009955,-0.004116,-0.001956, 0.045356,1, 0.000593,-0.000058, 0.000532,1, 0.086594, 0.028505, 9.806226,1,0
1777933979212,  3126.121,  3126.116,-0.008688,-0.002912,-0.995610,-0.000085,-0.000031,-0.009955,-0.004116,-0.001956, 0.045356,1, 0.000593,-0.000058, 0.000532,1, 0.086594, 0.028505, 9.806226,1,0
1777933979230,  3126.146,  3126.146,-0.008255,-0.002730,-0.995970,-0.000085,-0.000027,-0.009960, 0.005625, 0.001691, 0.039100,1,-0.000125,-0.000462, 0.000154,1, 0.086594, 0.028463, 9.806227,1,0
1777933979240,  3126.146,  3126.146,-0.008255,-0.002730,-0.995970,-0.000085,-0.000027,-0.009960, 0.005625, 0.001691, 0.039100,1,-0.000125,-0.000462, 0.000154,1, 0.086594, 0.028463, 9.806227,1,0
1777933979252,  3126.171,  3126.166,-0.008768,-0.002593,-0.994842,-0.000088,-0.000028,-0.009950, 0.008188, 0.005652, 0.040143,1, 0.000654,-0.000377, 0.000161,1, 0.086636, 0.028537, 9.806226,1,0
1777933979262,  3126.171,  3126.166,-0.008768,-0.002593,-0.994842,-0.000088,-0.000028,-0.009950, 0.008188, 0.005652, 0.040143,1, 0.000654,-0.000377, 0.000161,1, 0.086636, 0.028537, 9.806226,1,0
1777933979280,  3126.196,  3126.196,-0.009168,-0.002476,-0.996280,-0.000089,-0.000025,-0.009963,-0.003236, 0.004353, 0.036060,1, 0.000019,-0.000610,-0.000135,1, 0.086687, 0.028634, 9.806225,1,0
1777933979290,  3126.196,  3126.196,-0.009168,-0.002476,-0.996280,-0.000089,-0.000025,-0.009963,-0.003236, 0.004353, 0.036060,1, 0.000019,-0.000610,-0.000135,1, 0.086687, 0.028634, 9.806225,1,0
1777933979301,  3126.221,  3126.216,-0.009064,-0.002617,-0.995650,-0.000089,-0.000026,-0.009958,-0.000271, 0.004223, 0.041299,1, 0.000239,-0.000063,-0.000230,1, 0.086676, 0.028646, 9.806225,1,0
1777933979312,  3126.221,  3126.216,-0.009064,-0.002617,-0.995650,-0.000089,-0.000026,-0.009958,-0.000271, 0.004223, 0.041299,1, 0.000239,-0.000063,-0.000230,1, 0.086676, 0.028646, 9.806225,1,0
1777933979325,  3126.246,  3126.241,-0.009022,-0.003106,-0.995777,-0.000088,-0.000031,-0.009958,-0.001772,-0.001679, 0.040986,1,-0.000226, 0.000225, 0.000198,1, 0.086693, 0.028771, 9.806225,1,0
1777933979335,  3126.246,  3126.241,-0.009022,-0.003106,-0.995777,-0.000088,-0.000031,-0.009958,-0.001772,-0.001679, 0.040986,1,-0.000226, 0.000225, 0.000198,1, 0.086693, 0.028771, 9.806225,1,0
1777933979351,  3126.271,  3126.266,-0.008460,-0.002942,-0.995833,-0.000083,-0.000029,-0.009960, 0.004556,-0.002524, 0.036254,1,-0.000023, 0.000264, 0.000026,1, 0.086664, 0.028754, 9.806225,1,0
1777933979361,  3126.271,  3126.266,-0.008460,-0.002942,-0.995833,-0.000083,-0.000029,-0.009960, 0.004556,-0.002524, 0.036254,1,-0.000023, 0.000264, 0.000026,1, 0.086664, 0.028754, 9.806225,1,0
1777933979375,  3126.291,  3126.291,-0.008671,-0.002783,-0.995477,-0.000087,-0.000026,-0.009956, 0.001688, 0.001413, 0.043930,1,-0.000384,-0.000529,-0.000278,1, 0.086735, 0.028697, 9.806225,1,0
1777933979385,  3126.291,  3126.291,-0.008671,-0.002783,-0.995477,-0.000087,-0.000026,-0.009956, 0.001688, 0.001413, 0.043930,1,-0.000384,-0.000529,-0.000278,1, 0.086735, 0.028697, 9.806225,1,0
1777933979401,  3126.321,  3126.316,-0.008419,-0.002750,-0.995129,-0.000088,-0.000026,-0.009954,-0.000869, 0.003741, 0.036939,1,-0.000332,-0.001006,-0.000372,1, 0.086764, 0.028682, 9.806224,1,0
1777933979411,  3126.321,  3126.316,-0.008419,-0.002750,-0.995129,-0.000088,-0.000026,-0.009954,-0.000869, 0.003741, 0.036939,1,-0.000332,-0.001006,-0.000372,1, 0.086764, 0.028682, 9.806224,1,0
1777933979423,  3126.341,  3126.336,-0.009089,-0.003105,-0.995184,-0.000091,-0.000029,-0.009953, 0.000315,-0.000056, 0.038311,1,-0.000771, 0.000047, 0.000271,1, 0.086736, 0.028516, 9.806225,1,0
1777933979433,  3126.341,  3126.336,-0.009089,-0.003105,-0.995184,-0.000091,-0.000029,-0.009953, 0.000315,-0.000056, 0.038311,1,-0.000771, 0.000047, 0.000271,1, 0.086736, 0.028516, 9.806225,1,0
1777933979450,  3126.366,  3126.366,-0.009243,-0.002659,-0.996397,-0.000093,-0.000031,-0.009960,-0.003916, 0.002514, 0.034911,1, 0.000232, 0.000268,-0.000266,1, 0.086720, 0.028597, 9.806225,1,0
1777933979460,  3126.366,  3126.366,-0.009243,-0.002659,-0.996397,-0.000093,-0.000031,-0.009960,-0.003916, 0.002514, 0.034911,1, 0.000232, 0.000268,-0.000266,1, 0.086720, 0.028597, 9.806225,1,0
1777933979472,  3126.391,  3126.386,-0.009458,-0.002753,-0.995213,-0.000094,-0.000023,-0.009955, 0.003300,-0.001218, 0.037109,1,-0.000954, 0.000510, 0.000053,1, 0.086622, 0.028488, 9.806226,1,0
1777933979482,  3126.391,  3126.386,-0.009458,-0.002753,-0.995213,-0.000094,-0.000023,-0.009955, 0.003300,-0.001218, 0.037109,1,-0.000954, 0.000510, 0.000053,1, 0.086622, 0.028488, 9.806226,1,1
1777933979500,  3126.416,  3126.416,-0.008694,-0.003042,-0.995666,-0.000087,-0.000029,-0.009954, 0.001411,-0.001314, 0.042076,1, 0.000037,-0.000390, 0.000462,1, 0.086684, 0.028522, 9.806226,1,1
1777933979510,  3126.416,  3126.416,-0.008694,-0.003042,-0.995666,-0.000087,-0.000029,-0.009954, 0.001411,-0.001314, 0.042076,1, 0.000037,-0.000390, 0.000462,1, 0.086684, 0.028522, 9.806226,1,1
1777933979522,  3126.441,  3126.436,-0.008394,-0.002473,-0.995751,-0.000083,-0.000024,-0.009957, 0.004840,-0.003009, 0.036650,1, 0.000145,-0.000376,-0.000560,1, 0.086698, 0.028499, 9.806226,1,1
1777933979532,  3126.441,  3126.436,-0.008394,-0.002473,-0.995751,-0.000083,-0.000024,-0.009957, 0.004840,-0.003009, 0.036650,1, 0.000145,-0.000376,-0.000560,1, 0.086698, 0.028499, 9.806226,1,1
1777933979550,  3126.466,  3126.466,-0.007746,-0.002292,-0.996612,-0.000079,-0.000023,-0.009964, 0.010799, 0.006117, 0.032797,1, 0.000144,-0.000565, 0.000091,1, 0.086776, 0.028599, 9.806225,1,1
1777933979560,  3126.466,  3126.466,-0.007746,-0.002292,-0.996612,-0.000079,-0.000023,-0.009964, 0.010799, 0.006117, 0.032797,1, 0.000144,-0.000565, 0.000091,1, 0.086776, 0.028599, 9.806225,1,1
1777933979572,  3126.491,  3126.486,-0.009437,-0.003447,-0.995427,-0.000092,-0.000032,-0.009952, 0.002667, 0.000932, 0.046253,1, 0.000033,-0.000858,-0.000074,1, 0.086827, 0.028611, 9.806224,1,1
1777933979582,  3126.491,  3126.486,-0.009437,-0.003447,-0.995427,-0.000092,-0.000032,-0.009952, 0.002667, 0.000932, 0.046253,1, 0.000033,-0.000858,-0.000074,1, 0.086827, 0.028611, 9.806224,1,1
1777933979595,  3126.516,  3126.511,-0.009052,-0.003190,-0.995715,-0.000091,-0.000033,-0.009958,-0.001938,-0.002775, 0.041596,1,-0.000666,-0.000265, 0.000011,1, 0.086837, 0.028489, 9.806224,1,1
1777933979605,  3126.516,  3126.511,-0.009052,-0.003190,-0.995715,-0.000091,-0.000033,-0.009958,-0.001938,-0.002775, 0.041596,1,-0.000666,-0.000265, 0.000011,1, 0.086837, 0.028489, 9.806224,1,1
1777933979621,  3126.541,  3126.536,-0.008593,-0.001359,-0.996254,-0.000088,-0.000018,-0.009964,-0.001791, 0.004656, 0.042011,1, 0.000581, 0.000312,-0.000298,1, 0.086777, 0.028413, 9.806225,1,1
1777933979631,  3126.541,  3126.536,-0.008593,-0.001359,-0.996254,-0.000088,-0.000018,-0.009964,-0.001791, 0.004656, 0.042011,1, 0.000581, 0.000312,-0.000298,1, 0.086777, 0.028413, 9.806225,1,1
1777933979645,  3126.561,  3126.561,-0.008623,-0.002405,-0.995776,-0.000085,-0.000022,-0.009961, 0.002185, 0.004968, 0.040995,1, 0.000782,-0.000450, 0.000505,1, 0.086758, 0.028578, 9.806225,1,1
1777933979655,  3126.561,  3126.561,-0.008623,-0.002405,-0.995776,-0.000085,-0.000022,-0.009961, 0.002185, 0.004968, 0.040995,1, 0.000782,-0.000450, 0.000505,1, 0.086758, 0.028578, 9.806225,1,1
1777933979671,  3126.591,  3126.586,-0.008314,-0.003949,-0.995845,-0.000082,-0.000037,-0.009958,-0.000134,-0.013142, 0.038144,1, 0.000395, 0.000031, 0.000684,1, 0.086857, 0.028679, 9.806224,1,1
1777933979681,  3126.591,  3126.586,-0.008314,-0.003949,-0.995845,-0.000082,-0.000037,-0.009958,-0.000134,-0.013142, 0.038144,1, 0.000395, 0.000031, 0.000684,1, 0.086857, 0.028679, 9.806224,1,1
1777933979693,  3126.611,  3126.611,-0.009207,-0.002932,-0.995279,-0.000092,-0.000030,-0.009955,-0.003529,-0.000087, 0.045870,1,-0.000445,-0.000057,-0.000217,1, 0.086763, 0.028652, 9.806224,1,1
1777933979703,  3126.611,  3126.611,-0.009207,-0.002932,-0.995279,-0.000092,-0.000030,-0.009955,-0.003529,-0.000087, 0.045870,1,-0.000445,-0.000057,-0.000217,1, 0.086763, 0.028652, 9.806224,1,1
1777933979720,  3126.636,  3126.636,-0.009081,-0.003072,-0.995913,-0.000091,-0.000028,-0.009960,-0.002211,-0.001504, 0.039656,1, 0.000434,-0.000059,-0.000613,1, 0.086842, 0.028635, 9.806224,1,1
1777933979730,  3126.636,  3126.636,-0.009081,-0.003072,-0.995913,-0.000091,-0.000028,-0.009960,-0.002211,-0.001504, 0.039656,1, 0.000434,-0.000059,-0.000613,1, 0.086842, 0.028635, 9.806224,1,1
1777933979742,  3126.661,  3126.656,-0.008650,-0.001978,-0.996287,-0.000087,-0.000019,-0.009962,-0.001648, 0.006734, 0.039331,1, 0.000206,-0.000156, 0.000375,1, 0.086916, 0.028654, 9.806223,1,1
1777933979752,  3126.661,  3126.656,-0.008650,-0.001978,-0.996287,-0.000087,-0.000019,-0.009962,-0.001648, 0.006734, 0.039331,1, 0.000206,-0.000156, 0.000375,1, 0.086916, 0.028654, 9.806223,1,1
1777933979770,  3126.686,  3126.686,-0.008398,-0.002783,-0.995854,-0.000083,-0.000026,-0.009962, 0.004624, 0.001398, 0.040228,1,-0.000031, 0.000406, 0.000462,1, 0.086971, 0.028686, 9.806222,1,1
1777933979780,  3126.686,  3126.686,-0.008398,-0.002783,-0.995854,-0.000083,-0.000026,-0.009962, 0.004624, 0.001398, 0.040228,1,-0.000031, 0.000406, 0.000462,1, 0.086971, 0.028686, 9.806222,1,1
1777933979792,  3126.711,  3126.706,-0.008569,-0.004007,-0.995528,-0.000086,-0.000039,-0.009956,-0.001200,-0.008225, 0.051476,1, 0.000388,-0.000517,-0.000116,1, 0.086974, 0.028714, 9.806222,1,1
1777933979802,  3126.711,  3126.706,-0.008569,-0.004007,-0.995528,-0.000086,-0.000039,-0.009956,-0.001200,-0.008225, 0.051476,1, 0.000388,-0.000517,-0.000116,1, 0.086974, 0.028714, 9.806222,1,1
1777933979820,  3126.736,  3126.736,-0.008513,-0.003302,-0.995347,-0.000085,-0.000036,-0.009958, 0.003423,-0.003789, 0.045206,1,-0.000123, 0.000111,-0.000408,1, 0.086900, 0.028591, 9.806223,1,1
1777933979830,  3126.736,  3126.736,-0.008513,-0.003302,-0.995347,-0.000085,-0.000036,-0.009958, 0.003423,-0.003789, 0.045206,1,-0.000123, 0.000111,-0.000408,1, 0.086900, 0.028591, 9.806223,1,1
1777933979842,  3126.761,  3126.756,-0.009894,-0.001647,-0.996768,-0.000097,-0.000023,-0.009968, 0.006782, 0.019603, 0.049910,1, 0.000606,-0.000002,-0.000186,1, 0.087021, 0.028640, 9.806222,1,1
1777933979852,  3126.761,  3126.756,-0.009894,-0.001647,-0.996768,-0.000097,-0.000023,-0.009968, 0.006782, 0.019603, 0.049910,1, 0.000606,-0.000002,-0.000186,1, 0.087021, 0.028640, 9.806222,1,1
1777933979865,  3126.786,  3126.781,-0.010064,-0.002008,-0.994471,-0.000099,-0.000019,-0.009947,-0.011631, 0.008966, 0.053793,1, 0.000041,-0.001058,-0.000212,1, 0.087096, 0.028658, 9.806221,1,1
1777933979875,  3126.786,  3126.781,-0.010064,-0.002008,-0.994471,-0.000099,-0.000019,-0.009947,-0.011631, 0.008966, 0.053793,1, 0.000041,-0.001058,-0.000212,1, 0.087096, 0.028658, 9.806221,1,1
1777933979891,  3126.811,  3126.806,-0.008213,-0.001990,-0.995169,-0.000077,-0.000025,-0.009957, 0.006214,-0.003212, 0.025456,1, 0.000633, 0.000932,-0.000117,1, 0.086978, 0.028777, 9.806222,1,1
1777933979901,  3126.811,  3126.806,-0.008213,-0.001990,-0.995169,-0.000077,-0.000025,-0.009957, 0.006214,-0.003212, 0.025456,1, 0.000633, 0.000932,-0.000117,1, 0.086978, 0.028777, 9.806222,1,1
1777933979915,  3126.836,  3126.831,-0.007674,-0.003863,-0.996385,-0.000076,-0.000044,-0.009956, 0.011792,-0.009038, 0.035018,1,-0.000327,-0.000121, 0.000698,1, 0.087052, 0.028830, 9.806221,1,1
1777933979925,  3126.836,  3126.831,-0.007674,-0.003863,-0.996385,-0.000076,-0.000044,-0.009956, 0.011792,-0.009038, 0.035018,1,-0.000327,-0.000121, 0.000698,1, 0.087052, 0.028830, 9.806221,1,1
1777933979941,  3126.861,  3126.856,-0.008761,-0.004228,-0.995496,-0.000089,-0.000042,-0.009946, 0.003299,-0.021332, 0.041108,1, 0.001014,-0.000553, 0.000148,1, 0.087058, 0.028974, 9.806221,1,1
1777933979951,  3126.861,  3126.856,-0.008761,-0.004228,-0.995496,-0.000089,-0.000042,-0.009946, 0.003299,-0.021332, 0.041108,1, 0.001014,-0.000553, 0.000148,1, 0.087058, 0.028974, 9.806221,1,1
1777933979964,  3126.881,  3126.881,-0.010283,-0.004448,-0.995890,-0.000101,-0.000049,-0.009963,-0.013691,-0.014755, 0.039873,1,-0.000690,-0.000611,-0.000871,1, 0.087167, 0.028844, 9.806220,1,1
1777933979974,  3126.881,  3126.881,-0.010283,-0.004448,-0.995890,-0.000101,-0.000049,-0.009963,-0.013691,-0.014755, 0.039873,1,-0.000690,-0.000611,-0.000871,1, 0.087167, 0.028844, 9.806220,1,1
1777933979990,  3126.906,  3126.906,-0.010273,-0.002868,-0.995740,-0.000103,-0.000026,-0.009960,-0.013640, 0.000723, 0.041346,1, 0.000042,-0.000027,-0.001278,1, 0.087108, 0.028848, 9.806221,1,1
1777933980000,  3126.906,  3126.906,-0.010273,-0.002868,-0.995740,-0.000103,-0.000026,-0.009960,-0.013640, 0.000723, 0.041346,1, 0.000042,-0.000027,-0.001278,1, 0.087108, 0.028848, 9.806221,1,1
1777933980012,  3126.931,  3126.926,-0.007646,-0.000743,-0.995437,-0.000080,-0.000008,-0.009953, 0.010160, 0.029308, 0.028326,1,-0.000698,-0.000539,-0.001139,1, 0.087174, 0.028702, 9.806220,1,1
1777933980022,  3126.931,  3126.926,-0.007646,-0.000743,-0.995437,-0.000080,-0.000008,-0.009953, 0.010160, 0.029308, 0.028326,1,-0.000698,-0.000539,-0.001139,1, 0.087174, 0.028702, 9.806220,1,1
1777933980040,  3126.956,  3126.956,-0.007818, 0.002989,-0.999914,-0.000086, 0.000016,-0.009988, 0.010514, 0.058169, 0.000413,1, 0.001021,-0.000467, 0.001026,1, 0.087199, 0.028885, 9.806220,1,1
1777933980050,  3126.956,  3126.956,-0.007818, 0.002989,-0.999914,-0.000086, 0.000016,-0.009988, 0.010514, 0.058169, 0.000413,1, 0.001021,-0.000467, 0.001026,1, 0.087199, 0.028885, 9.806220,1,1
1777933980062,  3126.981,  3126.976,-0.009689,-0.009100,-0.994411,-0.000091,-0.000088,-0.009948, 0.014554,-0.024651, 0.043683,1,-0.002224, 0.000639, 0.001858,1, 0.086966, 0.028930, 9.806222,1,1
1777933980072,  3126.981,  3126.976,-0.009689,-0.009100,-0.994411,-0.000091,-0.000088,-0.009948, 0.014554,-0.024651, 0.043683,1,-0.002224, 0.000639, 0.001858,1, 0.086966, 0.028930, 9.806222,1,1
1777933980090,  3127.006,  3127.006,-0.009448,-0.006055,-0.994383,-0.000102,-0.000074,-0.009944,-0.005444,-0.030557, 0.054652,1, 0.000934, 0.004068,-0.001066,1, 0.087079, 0.028848, 9.806221,1,1
1777933980100,  3127.006,  3127.006,-0.009448,-0.006055,-0.994383,-0.000102,-0.000074,-0.009944,-0.005444,-0.030557, 0.054652,1, 0.000934, 0.004068,-0.001066,1, 0.087079, 0.028848, 9.806221,1,1
1777933980112,  3127.031,  3127.026,-0.007906, 0.000246,-0.995827,-0.000085, 0.000003,-0.009965,-0.008741,-0.006683, 0.019867,1,-0.002052,-0.002255,-0.000411,1, 0.087187, 0.028793, 9.806220,1,1
1777933980122,  3127.031,  3127.026,-0.007906, 0.000246,-0.995827,-0.000085, 0.000003,-0.009965,-0.008741,-0.006683, 0.019867,1,-0.002052,-0.002255,-0.000411,1, 0.087187, 0.028793, 9.806220,1,1
1777933980135,  3127.056,  3127.056,-0.008193, 0.000484,-0.997197,-0.000079, 0.000016,-0.009967, 0.006705, 0.033567, 0.027059,1, 0.003118, 0.000250, 0.000276,1, 0.087042, 0.028923, 9.806221,1,1
1777933980145,  3127.056,  3127.056,-0.008193, 0.000484,-0.997197,-0.000079, 0.000016,-0.009967, 0.006705, 0.033567, 0.027059,1, 0.003118, 0.000250, 0.000276,1, 0.087042, 0.028923, 9.806221,1,1
1777933980161,  3127.081,  3127.076,-0.010014,-0.002706,-0.992751,-0.000095,-0.000026,-0.009938, 0.004155, 0.009578, 0.032772,1,-0.001700,-0.001734, 0.001111,1, 0.087013, 0.028678, 9.806222,1,1
1777933980171,  3127.081,  3127.076,-0.010014,-0.002706,-0.992751,-0.000095,-0.000026,-0.009938, 0.004155, 0.009578, 0.032772,1,-0.001700,-0.001734, 0.001111,1, 0.087013, 0.028678, 9.806222,1,1
1777933980185,  3127.106,  3127.101,-0.008592,-0.008038,-0.997035,-0.000088,-0.000072,-0.009969, 0.002567,-0.049840, 0.028653,1, 0.001630, 0.001925, 0.000244,1, 0.086761, 0.029041, 9.806223,1,1
1777933980195,  3127.106,  3127.101,-0.008592,-0.008038,-0.997035,-0.000088,-0.000072,-0.009969, 0.002567,-0.049840, 0.028653,1, 0.001630, 0.001925, 0.000244,1, 0.086761, 0.029041, 9.806223,1,1
1777933980211,  3127.131,  3127.126,-0.009465,-0.001723,-0.992923,-0.000094,-0.000018,-0.009925,-0.006745,-0.017028, 0.063934,1,-0.001701,-0.001089,-0.000482,1, 0.087037, 0.028623, 9.806222,1,1
1777933980221,  3127.131,  3127.126,-0.009465,-0.001723,-0.992923,-0.000094,-0.000018,-0.009925,-0.006745,-0.017028, 0.063934,1,-0.001701,-0.001089,-0.000482,1, 0.087037, 0.028623, 9.806222,1,1
1777933980234,  3127.151,  3127.151,-0.006911,-0.000883,-0.998427,-0.000066,-0.000011,-0.009986, 0.019100, 0.020221, 0.014998,1, 0.000421,-0.002538,-0.000048,1, 0.086950, 0.028895, 9.806222,1,1
1777933980244,  3127.151,  3127.151,-0.006911,-0.000883,-0.998427,-0.000066,-0.000011,-0.009986, 0.019100, 0.020221, 0.014998,1, 0.000421,-0.002538,-0.000048,1, 0.086950, 0.028895, 9.806222,1,1
1777933980260,  3127.176,  3127.176,-0.008125,-0.000783,-0.995124,-0.000081,-0.000003,-0.009951, 0.007381, 0.021009, 0.047387,1,-0.000511, 0.000231, 0.000513,1, 0.087050, 0.028668, 9.806222,1,1
1777933980270,  3127.176,  3127.176,-0.008125,-0.000783,-0.995124,-0.000081,-0.000003,-0.009951, 0.007381, 0.021009, 0.047387,1,-0.000511, 0.000231, 0.000513,1, 0.087050, 0.028668, 9.806222,1,1
1777933980282,  3127.201,  3127.196,-0.009224,-0.004630,-0.994437,-0.000093,-0.000046,-0.009952,-0.000083,-0.010733, 0.028513,1, 0.000251, 0.000185, 0.000394,1, 0.087124, 0.028849, 9.806221,1,1
1777933980292,  3127.201,  3127.196,-0.009224,-0.004630,-0.994437,-0.000093,-0.000046,-0.009952,-0.000083,-0.010733, 0.028513,1, 0.000251, 0.000185, 0.000394,1, 0.087124, 0.028849, 9.806221,1,1
1777933980310,  3127.226,  3127.226,-0.011241,-0.005345,-0.994031,-0.000110,-0.000052,-0.009940,-0.022919,-0.023659, 0.058107,1, 0.000217,-0.001126,-0.000481,1, 0.087352, 0.028764, 9.806219,1,1
1777933980320,  3127.226,  3127.226,-0.011241,-0.005345,-0.994031,-0.000110,-0.000052,-0.009940,-0.022919,-0.023659, 0.058107,1, 0.000217,-0.001126,-0.000481,1, 0.087352, 0.028764, 9.806219,1,1
1777933980332,  3127.251,  3127.246,-0.007747,-0.001698,-0.997188,-0.000080,-0.000018,-0.009969, 0.002239,-0.008532, 0.033583,1, 0.000235, 0.000224,-0.000244,1, 0.087128, 0.028795, 9.806221,1,1
1777933980342,  3127.251,  3127.246,-0.007747,-0.001698,-0.997188,-0.000080,-0.000018,-0.009969, 0.002239,-0.008532, 0.033583,1, 0.000235, 0.000224,-0.000244,1, 0.087128, 0.028795, 9.806221,1,1
1777933980360,  3127.276,  3127.276,-0.007657,-0.000660,-0.995509,-0.000078,-0.000006,-0.009957, 0.012160, 0.022214, 0.043614,1, 0.000405, 0.000545, 0.000476,1, 0.087230, 0.028696, 9.806220,1,1
1777933980370,  3127.276,  3127.276,-0.007657,-0.000660,-0.995509,-0.000078,-0.000006,-0.009957, 0.012160, 0.022214, 0.043614,1, 0.000405, 0.000545, 0.000476,1, 0.087230, 0.028696, 9.806220,1,1
1777933980382,  3127.301,  3127.296,-0.009239,-0.003337,-0.995221,-0.000087,-0.000032,-0.009964, 0.007531, 0.014726, 0.033746,1,-0.001263, 0.000245, 0.000125,1, 0.087237, 0.028738, 9.806220,1,1
1777933980392,  3127.301,  3127.296,-0.009239,-0.003337,-0.995221,-0.000087,-0.000032,-0.009964, 0.007531, 0.014726, 0.033746,1,-0.001263, 0.000245, 0.000125,1, 0.087237, 0.028738, 9.806220,1,1
1777933980409,  3127.326,  3127.326,-0.008523,-0.004050,-0.995823,-0.000090,-0.000039,-0.009951, 0.003627,-0.011090, 0.040533,1, 0.000974, 0.001078,-0.000162,1, 0.087101, 0.028520, 9.806222,1,1
1777933980419,  3127.326,  3127.326,-0.008523,-0.004050,-0.995823,-0.000090,-0.000039,-0.009951, 0.003627,-0.011090, 0.040533,1, 0.000974, 0.001078,-0.000162,1, 0.087101, 0.028520, 9.806222,1,1
1777933980431,  3127.351,  3127.346,-0.008809, 0.000448,-0.996119,-0.000091,-0.000004,-0.009961,-0.001811,-0.011521, 0.047746,1,-0.000479,-0.001415, 0.000485,1, 0.087164, 0.028456, 9.806221,1,1
1777933980441,  3127.351,  3127.346,-0.008809, 0.000448,-0.996119,-0.000091,-0.000004,-0.009961,-0.001811,-0.011521, 0.047746,1,-0.000479,-0.001415, 0.000485,1, 0.087164, 0.028456, 9.806221,1,1
1777933980455,  3127.376,  3127.371,-0.004641, 0.000728,-0.996724,-0.000058, 0.000016,-0.009976, 0.041562, 0.035904, 0.031699,1, 0.000336, 0.000815, 0.001037,1, 0.087046, 0.028774, 9.806221,1,1
1777933980465,  3127.376,  3127.371,-0.004641, 0.000728,-0.996724,-0.000058, 0.000016,-0.009976, 0.041562, 0.035904, 0.031699,1, 0.000336, 0.000815, 0.001037,1, 0.087046, 0.028774, 9.806221,1,1
1777933980481,  3127.401,  3127.396,-0.004898,-0.012678,-0.991916,-0.000032,-0.000126,-0.009972,-0.033762,-0.166491, 0.262130,1,-0.000777,-0.000030,-0.000069,1, 0.087406, 0.028562, 9.806219,1,1
1777933980491,  3127.401,  3127.396,-0.004898,-0.012678,-0.991916,-0.000032,-0.000126,-0.009972,-0.033762,-0.166491, 0.262130,1,-0.000777,-0.000030,-0.000069,1, 0.087406, 0.028562, 9.806219,1,1
1777933980504,  3127.421,  3127.421,-0.025118, 0.042003,-0.994080,-0.000204, 0.000370,-0.009999,-0.158026, 0.441352, 0.057610,1, 0.016234, 0.006097, 0.003412,1, 0.088104, 0.029950, 9.806209,1,1
1777933980515,  3127.421,  3127.421,-0.025118, 0.042003,-0.994080,-0.000204, 0.000370,-0.009999,-0.158026, 0.441352, 0.057610,1, 0.016234, 0.006097, 0.003412,1, 0.088104, 0.029950, 9.806209,1,1
1777933980530,  3127.446,  3127.446, 0.009483,-0.007233,-1.013125, 0.000111, 0.000200,-0.010090, 0.177929,-0.038896,-0.129138,1, 0.004192,-0.001538, 0.013784,1, 0.084980, 0.032166, 9.806229,1,1
1777933980541,  3127.446,  3127.446, 0.009483,-0.007233,-1.013125, 0.000111, 0.000200,-0.010090, 0.177929,-0.038896,-0.129138,1, 0.004192,-0.001538, 0.013784,1, 0.084980, 0.032166, 9.806229,1,1
1777933980552,  3127.471,  3127.466,-0.026700,-0.027353,-1.019109,-0.000200,-0.000252,-0.010161, 0.013415,-0.374211, 0.293706,1, 0.008061,-0.006071, 0.012407,1, 0.088409, 0.028636, 9.806210,1,1
1777933980563,  3127.471,  3127.466,-0.026700,-0.027353,-1.019109,-0.000200,-0.000252,-0.010161, 0.013415,-0.374211, 0.293706,1, 0.008061,-0.006071, 0.012407,1, 0.088409, 0.028636, 9.806210,1,1
1777933980580,  3127.496,  3127.496,-0.018746,-0.071658,-1.031511,-0.000094,-0.000603,-0.010553,-0.098502,-0.667756,-0.309456,1, 0.028770, 0.014030, 0.009696,1, 0.084893, 0.035863, 9.806217,1,1
1777933980590,  3127.496,  3127.496,-0.018746,-0.071658,-1.031511,-0.000094,-0.000603,-0.010553,-0.098502,-0.667756,-0.309456,1, 0.028770, 0.014030, 0.009696,1, 0.084893, 0.035863, 9.806217,1,1
1777933980602,  3127.521,  3127.516,-0.021906,-0.043320,-1.012131,-0.000305,-0.000438,-0.009923, 0.110134, 0.132279, 0.745802,1, 0.007412,-0.054079, 0.007352,1, 0.087878, 0.030847, 9.806208,1,1
1777933980612,  3127.521,  3127.516,-0.021906,-0.043320,-1.012131,-0.000305,-0.000438,-0.009923, 0.110134, 0.132279, 0.745802,1, 0.007412,-0.054079, 0.007352,1, 0.087878, 0.030847, 9.806208,1,1
1777933980630,  3127.546,  3127.546,-0.008063,-0.057064,-0.979147,-0.000027,-0.000449,-0.009917, 0.006649,-0.530734, 0.204080,1, 0.018672,-0.010673,-0.004098,1, 0.086048, 0.029456, 9.806229,1,1
1777933980640,  3127.546,  3127.546,-0.008063,-0.057064,-0.979147,-0.000027,-0.000449,-0.009917, 0.006649,-0.530734, 0.204080,1, 0.018672,-0.010673,-0.004098,1, 0.086048, 0.029456, 9.806229,1,1
1777933980652,  3127.571,  3127.566,-0.006461,-0.013200,-0.968705,-0.000041,-0.000089,-0.009883, 0.001157,-0.031565,-0.181302,1,-0.011802, 0.011198,-0.013297,1, 0.087153, 0.026990, 9.806226,1,1
1777933980662,  3127.571,  3127.566,-0.006461,-0.013200,-0.968705,-0.000041,-0.000089,-0.009883, 0.001157,-0.031565,-0.181302,1,-0.011802, 0.011198,-0.013297,1, 0.087153, 0.026990, 9.806226,1,1
1777933980679,  3127.596,  3127.596, 0.002697, 0.002915,-1.003196, 0.000002, 0.000014,-0.009771, 0.113520, 0.055056,-0.031765,1, 0.004212,-0.003783,-0.019717,1, 0.087186, 0.026607, 9.806227,1,1
1777933980689,  3127.596,  3127.596, 0.002697, 0.002915,-1.003196, 0.000002, 0.000014,-0.009771, 0.113520, 0.055056,-0.031765,1, 0.004212,-0.003783,-0.019717,1, 0.087186, 0.026607, 9.806227,1,1
1777933980701,  3127.621,  3127.616, 0.009317, 0.032547,-0.971389, 0.000063, 0.000336,-0.009644, 0.187097, 0.227667,-0.290341,1,-0.002820, 0.012408,-0.016677,1, 0.086536, 0.028245, 9.806228,1,1
1777933980711,  3127.621,  3127.616, 0.009317, 0.032547,-0.971389, 0.000063, 0.000336,-0.009644, 0.187097, 0.227667,-0.290341,1,-0.002820, 0.012408,-0.016677,1, 0.086536, 0.028245, 9.806228,1,1
1777933980725,  3127.646,  3127.641,-0.011052, 0.022424,-1.018062,-0.000064, 0.000236,-0.010168,-0.020185, 0.247827,-0.177570,1,-0.002222, 0.000825,-0.000910,1, 0.088169, 0.027856, 9.806214,1,1
1777933980735,  3127.646,  3127.641,-0.011052, 0.022424,-1.018062,-0.000064, 0.000236,-0.010168,-0.020185, 0.247827,-0.177570,1,-0.002222, 0.000825,-0.000910,1, 0.088169, 0.027856, 9.806214,1,1
1777933980751,  3127.671,  3127.666,-0.028803, 0.010047,-0.993004,-0.000328, 0.000149,-0.009883,-0.066962, 0.209926, 0.113774,1, 0.008502,-0.021932, 0.003648,1, 0.088607, 0.027029, 9.806212,1,1
1777933980761,  3127.671,  3127.666,-0.028803, 0.010047,-0.993004,-0.000328, 0.000149,-0.009883,-0.066962, 0.209926, 0.113774,1, 0.008502,-0.021932, 0.003648,1, 0.088607, 0.027029, 9.806212,1,1
1777933980774,  3127.691,  3127.691,-0.019835,-0.004590,-0.982928,-0.000165,-0.000026,-0.009879,-0.107423,-0.018048, 0.166999,1,-0.002347,-0.017923, 0.010090,1, 0.087657, 0.026889, 9.806221,1,1
1777933980784,  3127.691,  3127.691,-0.019835,-0.004590,-0.982928,-0.000165,-0.000026,-0.009879,-0.107423,-0.018048, 0.166999,1,-0.002347,-0.017923, 0.010090,1, 0.087657, 0.026889, 9.806221,1,1
1777933980800,  3127.716,  3127.716,-0.024452,-0.012749,-1.005395,-0.000282,-0.000126,-0.010057,-0.151729,-0.097640,-0.053344,1,-0.000046, 0.022459, 0.006672,1, 0.087365, 0.027385, 9.806223,1,1
1777933980811,  3127.716,  3127.716,-0.024452,-0.012749,-1.005395,-0.000282,-0.000126,-0.010057,-0.151729,-0.097640,-0.053344,1,-0.000046, 0.022459, 0.006672,1, 0.087365, 0.027385, 9.806223,1,1
1777933980822,  3127.741,  3127.736,-0.013637,-0.013391,-0.981582,-0.000149,-0.000109,-0.009786,-0.019763,-0.093641, 0.227475,1, 0.001270,-0.015524, 0.002872,1, 0.088729, 0.027509, 9.806210,1,1
1777933980833,  3127.741,  3127.736,-0.013637,-0.013391,-0.981582,-0.000149,-0.000109,-0.009786,-0.019763,-0.093641, 0.227475,1, 0.001270,-0.015524, 0.002872,1, 0.088729, 0.027509, 9.806210,1,1
1777933980850,  3127.766,  3127.766, 0.002610,-0.015001,-1.010458, 0.000032,-0.000157,-0.010114, 0.113425,-0.119949,-0.102995,1, 0.002684,-0.013966,-0.002305,1, 0.088267, 0.027249, 9.806215,1,1
1777933980860,  3127.766,  3127.766, 0.002610,-0.015001,-1.010458, 0.000032,-0.000157,-0.010114, 0.113425,-0.119949,-0.102995,1, 0.002684,-0.013966,-0.002305,1, 0.088267, 0.027249, 9.806215,1,1
1777933980872,  3127.791,  3127.786, 0.006807,-0.003199,-0.998395, 0.000085,-0.000016,-0.009970, 0.125926, 0.033931, 0.095002,1,-0.002471, 0.018465,-0.003719,1, 0.087194, 0.027341, 9.806224,1,1
1777933980882,  3127.791,  3127.786, 0.006807,-0.003199,-0.998395, 0.000085,-0.000016,-0.009970, 0.125926, 0.033931, 0.095002,1,-0.002471, 0.018465,-0.003719,1, 0.087194, 0.027341, 9.806224,1,1
1777933980900,  3127.816,  3127.816,-0.009687,-0.002513,-1.000214,-0.000124,-0.000017,-0.009978,-0.006250, 0.002776,-0.002534,1,-0.000215, 0.011992,-0.002003,1, 0.088376, 0.027410, 9.806213,1,1
1777933980910,  3127.816,  3127.816,-0.009687,-0.002513,-1.000214,-0.000124,-0.000017,-0.009978,-0.006250, 0.002776,-0.002534,1,-0.000215, 0.011992,-0.002003,1, 0.088376, 0.027410, 9.806213,1,1
1777933980922,  3127.841,  3127.836,-0.019422, 0.004066,-0.982501,-0.000184, 0.000042,-0.009824, 0.035794, 0.101392, 0.075445,1, 0.002014,-0.014147,-0.000555,1, 0.088193, 0.027468, 9.806215,1,1
1777933980932,  3127.841,  3127.836,-0.019422, 0.004066,-0.982501,-0.000184, 0.000042,-0.009824, 0.035794, 0.101392, 0.075445,1, 0.002014,-0.014147,-0.000555,1, 0.088193, 0.027468, 9.806215,1,1
1777933980949,  3127.866,  3127.866,-0.010919,-0.002527,-1.010141,-0.000096,-0.000019,-0.010109,-0.019382, 0.002575,-0.099875,1, 0.003374,-0.009009, 0.000435,1, 0.087975, 0.027466, 9.806217,1,1
1777933980959,  3127.866,  3127.866,-0.010919,-0.002527,-1.010141,-0.000096,-0.000019,-0.010109,-0.019382, 0.002575,-0.099875,1, 0.003374,-0.009009, 0.000435,1, 0.087975, 0.027466, 9.806217,1,1
1777933980971,  3127.891,  3127.886,-0.009022,-0.002021,-0.994446,-0.000093,-0.000005,-0.009925,-0.069536, 0.043542, 0.158665,1,-0.003410, 0.011823, 0.000022,1, 0.088006, 0.027031, 9.806218,1,1
1777933980981,  3127.891,  3127.886,-0.009022,-0.002021,-0.994446,-0.000093,-0.000005,-0.009925,-0.069536, 0.043542, 0.158665,1,-0.003410, 0.011823, 0.000022,1, 0.088006, 0.027031, 9.806218,1,1
1777933980995,  3127.916,  3127.911,-0.018253,-0.004201,-0.994308,-0.000196,-0.000039,-0.009962,-0.090357,-0.013736, 0.055382,1,-0.003676, 0.002934, 0.001237,1, 0.088551, 0.027347, 9.806212,1,1
1777933981005,  3127.916,  3127.911,-0.018253,-0.004201,-0.994308,-0.000196,-0.000039,-0.009962,-0.090357,-0.013736, 0.055382,1,-0.003676, 0.002934, 0.001237,1, 0.088551, 0.027347, 9.806212,1,1
1777933981021,  3127.941,  3127.936,-0.008193,-0.002601,-0.995694,-0.000074,-0.000018,-0.009966, 0.052981, 0.018758, 0.033313,1, 0.004372,-0.003507, 0.000973,1, 0.087548, 0.028072, 9.806219,1,1
1777933981031,  3127.941,  3127.936,-0.008193,-0.002601,-0.995694,-0.000074,-0.000018,-0.009966, 0.052981, 0.018758, 0.033313,1, 0.004372,-0.003507, 0.000973,1, 0.087548, 0.028072, 9.806219,1,1
1777933981045,  3127.961,  3127.961,-0.003196,-0.004647,-0.998115,-0.000030,-0.000053,-0.009967, 0.056008,-0.017709, 0.018058,1, 0.003266,-0.000049, 0.000627,1, 0.087348, 0.027962, 9.806221,1,1
1777933981055,  3127.961,  3127.961,-0.003196,-0.004647,-0.998115,-0.000030,-0.000053,-0.009967, 0.056008,-0.017709, 0.018058,1, 0.003266,-0.000049, 0.000627,1, 0.087348, 0.027962, 9.806221,1,1
1777933981071,  3127.986,  3127.986,-0.004427,-0.003345,-0.993245,-0.000052,-0.000034,-0.009940, 0.044194,-0.004760, 0.065817,1,-0.004613, 0.004218, 0.000184,1, 0.087475, 0.027897, 9.806220,1,1
1777933981081,  3127.986,  3127.986,-0.004427,-0.003345,-0.993245,-0.000052,-0.000034,-0.009940, 0.044194,-0.004760, 0.065817,1,-0.004613, 0.004218, 0.000184,1, 0.087475, 0.027897, 9.806220,1,1
1777933981093,  3128.011,  3128.006,-0.010629,-0.004991,-0.999820,-0.000110,-0.000050,-0.010013, 0.012827,-0.035903, 0.009489,1, 0.002985,-0.005676,-0.000407,1, 0.087898, 0.028205, 9.806215,1,1
1777933981103,  3128.011,  3128.006,-0.010629,-0.004991,-0.999820,-0.000110,-0.000050,-0.010013, 0.012827,-0.035903, 0.009489,1, 0.002985,-0.005676,-0.000407,1, 0.087898, 0.028205, 9.806215,1,1
1777933981121,  3128.036,  3128.036,-0.008953,-0.002643,-0.991802,-0.000081,-0.000026,-0.009914,-0.000342, 0.002128, 0.079965,1, 0.002800,-0.006015,-0.000402,1, 0.087643, 0.028134, 9.806218,1,1
1777933981132,  3128.036,  3128.036,-0.008953,-0.002643,-0.991802,-0.000081,-0.000026,-0.009914,-0.000342, 0.002128, 0.079965,1, 0.002800,-0.006015,-0.000402,1, 0.087643, 0.028134, 9.806218,1,1
1777933981142,  3128.061,  3128.056,-0.010243,-0.002842,-0.994489,-0.000098,-0.000029,-0.009950,-0.011498,-0.001999, 0.017120,1,-0.004789, 0.003358,-0.001203,1, 0.087567, 0.027739, 9.806220,1,1
1777933981152,  3128.061,  3128.056,-0.010243,-0.002842,-0.994489,-0.000098,-0.000029,-0.009950,-0.011498,-0.001999, 0.017120,1,-0.004789, 0.003358,-0.001203,1, 0.087567, 0.027739, 9.806220,1,1
1777933981170,  3128.086,  3128.086,-0.010106, 0.000386,-0.996227,-0.000112, 0.000007,-0.009964,-0.011526, 0.031840, 0.036572,1,-0.001594, 0.004420, 0.000180,1, 0.087441, 0.028002, 9.806220,1,1
1777933981180,  3128.086,  3128.086,-0.010106, 0.000386,-0.996227,-0.000112, 0.000007,-0.009964,-0.011526, 0.031840, 0.036572,1,-0.001594, 0.004420, 0.000180,1, 0.087441, 0.028002, 9.806220,1,1
1777933981192,  3128.111,  3128.106,-0.010231,-0.001851,-0.999092,-0.000106,-0.000015,-0.009986,-0.022565, 0.018740, 0.045180,1, 0.001152,-0.004225, 0.000532,1, 0.087974, 0.027785, 9.806216,1,1
1777933981202,  3128.111,  3128.106,-0.010231,-0.001851,-0.999092,-0.000106,-0.000015,-0.009986,-0.022565, 0.018740, 0.045180,1, 0.001152,-0.004225, 0.000532,1, 0.087974, 0.027785, 9.806216,1,1
1777933981219,  3128.136,  3128.136,-0.007462,-0.002116,-0.992393,-0.000070,-0.000022,-0.009928, 0.014110, 0.007109, 0.074173,1, 0.001050,-0.004850,-0.000053,1, 0.087417, 0.027894, 9.806221,1,1
1777933981230,  3128.136,  3128.136,-0.007462,-0.002116,-0.992393,-0.000070,-0.000022,-0.009928, 0.014110, 0.007109, 0.074173,1, 0.001050,-0.004850,-0.000053,1, 0.087417, 0.027894, 9.806221,1,1
1777933981241,  3128.161,  3128.156,-0.006371,-0.005382,-0.997677,-0.000059,-0.000054,-0.009987, 0.015070,-0.014551, 0.013776,1,-0.000577, 0.004522,-0.000017,1, 0.087005, 0.027923, 9.806224,1,1
1777933981252,  3128.161,  3128.156,-0.006371,-0.005382,-0.997677,-0.000059,-0.000054,-0.009987, 0.015070,-0.014551, 0.013776,1,-0.000577, 0.004522,-0.000017,1, 0.087005, 0.027923, 9.806224,1,1
1777933981265,  3128.186,  3128.181,-0.007260,-0.002574,-0.994302,-0.000079,-0.000028,-0.009939, 0.015932, 0.002821, 0.055450,1,-0.000315, 0.003668,-0.000683,1, 0.087014, 0.028058, 9.806224,1,1
1777933981275,  3128.186,  3128.181,-0.007260,-0.002574,-0.994302,-0.000079,-0.000028,-0.009939, 0.015932, 0.002821, 0.055450,1,-0.000315, 0.003668,-0.000683,1, 0.087014, 0.028058, 9.806224,1,1
1777933981291,  3128.211,  3128.206,-0.010428,-0.002308,-0.995579,-0.000108,-0.000026,-0.009951,-0.019079,-0.010710, 0.050666,1, 0.000046,-0.003510,-0.000550,1, 0.087405, 0.028120, 9.806220,1,1
1777933981301,  3128.211,  3128.206,-0.010428,-0.002308,-0.995579,-0.000108,-0.000026,-0.009951,-0.019079,-0.010710, 0.050666,1, 0.000046,-0.003510,-0.000550,1, 0.087405, 0.028120, 9.806220,1,1
1777933981315,  3128.231,  3128.231,-0.008351,-0.001355,-0.995488,-0.000077,-0.000015,-0.009967, 0.005078, 0.014833, 0.043816,1,-0.000478,-0.003778, 0.000451,1, 0.087089, 0.028109, 9.806223,1,1
1777933981325,  3128.231,  3128.231,-0.008351,-0.001355,-0.995488,-0.000077,-0.000015,-0.009967, 0.005078, 0.014833, 0.043816,1,-0.000478,-0.003778, 0.000451,1, 0.087089, 0.028109, 9.806223,1,1
1777933981341,  3128.256,  3128.256,-0.009806,-0.002458,-0.996426,-0.000104,-0.000024,-0.009954,-0.009042, 0.003893, 0.034617,1, 0.000280, 0.002577,-0.000295,1, 0.087040, 0.028007, 9.806224,1,1
1777933981351,  3128.256,  3128.256,-0.009806,-0.002458,-0.996426,-0.000104,-0.000024,-0.009954,-0.009042, 0.003893, 0.034617,1, 0.000280, 0.002577,-0.000295,1, 0.087040, 0.028007, 9.806224,1,1
1777933981363,  3128.281,  3128.276,-0.009172,-0.002274,-0.993491,-0.000097,-0.000021,-0.009930,-0.011702, 0.005874, 0.048893,1,-0.000580,-0.001492, 0.000322,1, 0.087133, 0.028108, 9.806223,1,1
1777933981373,  3128.281,  3128.276,-0.009172,-0.002274,-0.993491,-0.000097,-0.000021,-0.009930,-0.011702, 0.005874, 0.048893,1,-0.000580,-0.001492, 0.000322,1, 0.087133, 0.028108, 9.806223,1,1
1777933981390,  3128.306,  3128.306,-0.008426,-0.003362,-0.998063,-0.000081,-0.000034,-0.009986, 0.004326,-0.004901, 0.018566,1, 0.000940,-0.002213, 0.000209,1, 0.087023, 0.028097, 9.806224,1,1
1777933981401,  3128.306,  3128.306,-0.008426,-0.003362,-0.998063,-0.000081,-0.000034,-0.009986, 0.004326,-0.004901, 0.018566,1, 0.000940,-0.002213, 0.000209,1, 0.087023, 0.028097, 9.806224,1,1
1777933981412,  3128.331,  3128.326,-0.007526,-0.003676,-0.996917,-0.000073,-0.000037,-0.009963, 0.010762,-0.009289, 0.062975,1,-0.000089, 0.001656, 0.000147,1, 0.086731, 0.027969, 9.806227,1,1
1777933981422,  3128.331,  3128.326,-0.007526,-0.003676,-0.996917,-0.000073,-0.000037,-0.009963, 0.010762,-0.009289, 0.062975,1,-0.000089, 0.001656, 0.000147,1, 0.086731, 0.027969, 9.806227,1,1
1777933981440,  3128.356,  3128.356,-0.008084,-0.003216,-0.994638,-0.000083,-0.000037,-0.009951, 0.007549,-0.003620, 0.052157,1,-0.000722, 0.001155, 0.000301,1, 0.086785, 0.027892, 9.806227,1,1
1777933981450,  3128.356,  3128.356,-0.008084,-0.003216,-0.994638,-0.000083,-0.000037,-0.009951, 0.007549,-0.003620, 0.052157,1,-0.000722, 0.001155, 0.000301,1, 0.086785, 0.027892, 9.806227,1,1
1777933981462,  3128.381,  3128.376,-0.009027,-0.002196,-0.994801,-0.000088,-0.000022,-0.009950,-0.003483, 0.002523, 0.034807,1, 0.000507,-0.000281,-0.000014,1, 0.086857, 0.028053, 9.806225,1,1
1777933981472,  3128.381,  3128.376,-0.009027,-0.002196,-0.994801,-0.000088,-0.000022,-0.009950,-0.003483, 0.002523, 0.034807,1, 0.000507,-0.000281,-0.000014,1, 0.086857, 0.028053, 9.806225,1,1
1777933981489,  3128.406,  3128.406,-0.009479,-0.002436,-0.997149,-0.000094,-0.000027,-0.009968,-0.006012, 0.004166, 0.027536,1, 0.001450,-0.001330, 0.000115,1, 0.086990, 0.028097, 9.806224,1,1
1777933981500,  3128.406,  3128.406,-0.009479,-0.002436,-0.997149,-0.000094,-0.000027,-0.009968,-0.006012, 0.004166, 0.027536,1, 0.001450,-0.001330, 0.000115,1, 0.086990, 0.028097, 9.806224,1,1
1777933981511,  3128.431,  3128.426,-0.009717,-0.002861,-0.995266,-0.000095,-0.000026,-0.009947,-0.003753, 0.000027, 0.059822,1,-0.000142, 0.000259,-0.000286,1, 0.086809, 0.028010, 9.806226,1,1
1777933981522,  3128.431,  3128.426,-0.009717,-0.002861,-0.995266,-0.000095,-0.000026,-0.009947,-0.003753, 0.000027, 0.059822,1,-0.000142, 0.000259,-0.000286,1, 0.086809, 0.028010, 9.806226,1,1
1777933981535,  3128.456,  3128.451,-0.008528,-0.003018,-0.996312,-0.000087,-0.000032,-0.009968, 0.003147,-0.001654, 0.035738,1,-0.001279, 0.000522,-0.000304,1, 0.086759, 0.027902, 9.806227,1,1
1777933981545,  3128.456,  3128.451,-0.008528,-0.003018,-0.996312,-0.000087,-0.000032,-0.009968, 0.003147,-0.001654, 0.035738,1,-0.001279, 0.000522,-0.000304,1, 0.086759, 0.027902, 9.806227,1,1
1777933981561,  3128.481,  3128.476,-0.008395,-0.003312,-0.996837,-0.000088,-0.000031,-0.009966, 0.001615, 0.001878, 0.045586,1, 0.000909, 0.000442, 0.000293,1, 0.086832, 0.028039, 9.806226,1,1
1777933981571,  3128.481,  3128.476,-0.008395,-0.003312,-0.996837,-0.000088,-0.000031,-0.009966, 0.001615, 0.001878, 0.045586,1, 0.000909, 0.000442, 0.000293,1, 0.086832, 0.028039, 9.806226,1,1
1777933981585,  3128.501,  3128.501,-0.009011,-0.002692,-0.995395,-0.000090,-0.000027,-0.009951,-0.001497, 0.001600, 0.044736,1, 0.000483, 0.000165,-0.000212,1, 0.086864, 0.028017, 9.806225,1,1
1777933981595,  3128.501,  3128.501,-0.009011,-0.002692,-0.995395,-0.000090,-0.000027,-0.009951,-0.001497, 0.001600, 0.044736,1, 0.000483, 0.000165,-0.000212,1, 0.086864, 0.028017, 9.806225,1,1
1777933981611,  3128.531,  3128.526,-0.009178,-0.002562,-0.995161,-0.000089,-0.000028,-0.009951, 0.009182, 0.001129, 0.031065,1,-0.000407,-0.000638,-0.000471,1, 0.086729, 0.028078, 9.806227,1,1
1777933981621,  3128.531,  3128.526,-0.009178,-0.002562,-0.995161,-0.000089,-0.000028,-0.009951, 0.009182, 0.001129, 0.031065,1,-0.000407,-0.000638,-0.000471,1, 0.086729, 0.028078, 9.806227,1,1
1777933981633,  3128.551,  3128.546,-0.007968,-0.002447,-0.996831,-0.000083,-0.000025,-0.009972,-0.006845, 0.001443, 0.041382,1, 0.000777, 0.001441,-0.000116,1, 0.086722, 0.028003, 9.806227,1,1
1777933981643,  3128.551,  3128.546,-0.007968,-0.002447,-0.996831,-0.000083,-0.000025,-0.009972,-0.006845, 0.001443, 0.041382,1, 0.000777, 0.001441,-0.000116,1, 0.086722, 0.028003, 9.806227,1,1
1777933981660,  3128.576,  3128.576,-0.009732,-0.002624,-0.994497,-0.000099,-0.000028,-0.009942,-0.008606, 0.002194, 0.053545,1,-0.000551, 0.000322,-0.000434,1, 0.086820, 0.027914, 9.806226,1,1
1777933981670,  3128.576,  3128.576,-0.009732,-0.002624,-0.994497,-0.000099,-0.000028,-0.009942,-0.008606, 0.002194, 0.053545,1,-0.000551, 0.000322,-0.000434,1, 0.086820, 0.027914, 9.806226,1,1
1777933981682,  3128.601,  3128.596,-0.008946,-0.002364,-0.995327,-0.000088,-0.000027,-0.009952, 0.006141,-0.002222, 0.032386,1, 0.000402,-0.000537,-0.000126,1, 0.086747, 0.027930, 9.806227,1,1
1777933981692,  3128.601,  3128.596,-0.008946,-0.002364,-0.995327,-0.000088,-0.000027,-0.009952, 0.006141,-0.002222, 0.032386,1, 0.000402,-0.000537,-0.000126,1, 0.086747, 0.027930, 9.806227,1,1
1777933981710,  3128.626,  3128.626,-0.007940,-0.003098,-0.996119,-0.000078,-0.000030,-0.009959, 0.008958,-0.002438, 0.037639,1, 0.000039,-0.000125,-0.000720,1, 0.086824, 0.027944, 9.806226,1,1
1777933981720,  3128.626,  3128.626,-0.007940,-0.003098,-0.996119,-0.000078,-0.000030,-0.009959, 0.008958,-0.002438, 0.037639,1, 0.000039,-0.000125,-0.000720,1, 0.086824, 0.027944, 9.806226,1,1
1777933981732,  3128.651,  3128.646,-0.008418,-0.002847,-0.995486,-0.000086,-0.000027,-0.009952, 0.000850,-0.001392, 0.048920,1,-0.000485, 0.000733, 0.000123,1, 0.086786, 0.027960, 9.806226,1,1
1777933981742,  3128.651,  3128.646,-0.008418,-0.002847,-0.995486,-0.000086,-0.000027,-0.009952, 0.000850,-0.001392, 0.048920,1,-0.000485, 0.000733, 0.000123,1, 0.086786, 0.027960, 9.806226,1,1
1777933981760,  3128.676,  3128.676,-0.009632,-0.002402,-0.996355,-0.000095,-0.000023,-0.009963,-0.007622, 0.004368, 0.035319,1,-0.000364,-0.001074, 0.000176,1, 0.086867, 0.027915, 9.806226,1,1
1777933981770,  3128.676,  3128.676,-0.009632,-0.002402,-0.996355,-0.000095,-0.000023,-0.009963,-0.007622, 0.004368, 0.035319,1,-0.000364,-0.001074, 0.000176,1, 0.086867, 0.027915, 9.806226,1,1
1777933981782,  3128.701,  3128.696,-0.008807,-0.002436,-0.996543,-0.000086,-0.000025,-0.009966,-0.001166, 0.002817, 0.036094,1, 0.000690, 0.000087, 0.000270,1, 0.086758, 0.027914, 9.806227,1,1
1777933981792,  3128.701,  3128.696,-0.008807,-0.002436,-0.996543,-0.000086,-0.000025,-0.009966,-0.001166, 0.002817, 0.036094,1, 0.000690, 0.000087, 0.000270,1, 0.086758, 0.027914, 9.806227,1,1
1777933981805,  3128.726,  3128.721,-0.008750,-0.003017,-0.995627,-0.000087,-0.000028,-0.009955, 0.000947,-0.001743, 0.042463,1,-0.000169,-0.000418, 0.000225,1, 0.086778, 0.027804, 9.806227,1,1
1777933981815,  3128.726,  3128.721,-0.008750,-0.003017,-0.995627,-0.000087,-0.000028,-0.009955, 0.000947,-0.001743, 0.042463,1,-0.000169,-0.000418, 0.000225,1, 0.086778, 0.027804, 9.806227,1,1
1777933981831,  3128.751,  3128.746,-0.008555,-0.002865,-0.994999,-0.000087,-0.000032,-0.009952,-0.000172, 0.002540, 0.041649,1,-0.000854, 0.000568,-0.000055,1, 0.086741, 0.027778, 9.806227,1,1
1777933981841,  3128.751,  3128.746,-0.008555,-0.002865,-0.994999,-0.000087,-0.000032,-0.009952,-0.000172, 0.002540, 0.041649,1,-0.000854, 0.000568,-0.000055,1, 0.086741, 0.027778, 9.806227,1,1
1777933981855,  3128.771,  3128.771,-0.008759,-0.002764,-0.996050,-0.000088,-0.000027,-0.009961, 0.000912, 0.000681, 0.038317,1,-0.000494,-0.000255,-0.000316,1, 0.086813, 0.027768, 9.806227,1,1
1777933981865,  3128.771,  3128.771,-0.008759,-0.002764,-0.996050,-0.000088,-0.000027,-0.009961, 0.000912, 0.000681, 0.038317,1,-0.000494,-0.000255,-0.000316,1, 0.086813, 0.027768, 9.806227,1,1
1777933981881,  3128.801,  3128.796,-0.008854,-0.002655,-0.995769,-0.000090,-0.000028,-0.009958,-0.003135, 0.003046, 0.041328,1, 0.000848,-0.000336, 0.000073,1, 0.086788, 0.027796, 9.806227,1,1
1777933981891,  3128.801,  3128.796,-0.008854,-0.002655,-0.995769,-0.000090,-0.000028,-0.009958,-0.003135, 0.003046, 0.041328,1, 0.000848,-0.000336, 0.000073,1, 0.086788, 0.027796, 9.806227,1,1
1777933981903,  3128.821,  3128.816,-0.009203,-0.005452,-0.995173,-0.000092,-0.000048,-0.009952, 0.002794,-0.006564, 0.036957,1,-0.000015,-0.000508,-0.000361,1, 0.086873, 0.027841, 9.806226,1,1
1777933981913,  3128.821,  3128.816,-0.009203,-0.005452,-0.995173,-0.000092,-0.000048,-0.009952, 0.002794,-0.006564, 0.036957,1,-0.000015,-0.000508,-0.000361,1, 0.086873, 0.027841, 9.806226,1,1
1777933981930,  3128.846,  3128.846,-0.010328,-0.002083,-0.997199,-0.000104,-0.000023,-0.009966,-0.014476, 0.007521, 0.027047,1, 0.000988, 0.002028, 0.000265,1, 0.086740, 0.027974, 9.806227,1,1
1777933981941,  3128.846,  3128.846,-0.010328,-0.002083,-0.997199,-0.000104,-0.000023,-0.009966,-0.014476, 0.007521, 0.027047,1, 0.000988, 0.002028, 0.000265,1, 0.086740, 0.027974, 9.806227,1,1
1777933981952,  3128.871,  3128.866,-0.007381,-0.002606,-0.995674,-0.000079,-0.000019,-0.009946, 0.012683, 0.030123, 0.045130,1,-0.000701,-0.001863,-0.000260,1, 0.086872, 0.027880, 9.806226,1,1
1777933981962,  3128.871,  3128.866,-0.007381,-0.002606,-0.995674,-0.000079,-0.000019,-0.009946, 0.012683, 0.030123, 0.045130,1,-0.000701,-0.001863,-0.000260,1, 0.086872, 0.027880, 9.806226,1,1
1777933981980,  3128.896,  3128.896,-0.008335,-0.002821,-1.002105,-0.000061,-0.000005,-0.010028, 0.005051, 0.000430,-0.021064,1, 0.003153,-0.002488,-0.000586,1, 0.086863, 0.028193, 9.806225,1,1
1777933981990,  3128.896,  3128.896,-0.008335,-0.002821,-1.002105,-0.000061,-0.000005,-0.010028, 0.005051, 0.000430,-0.021064,1, 0.003153,-0.002488,-0.000586,1, 0.086863, 0.028193, 9.806225,1,1
1777933982002,  3128.921,  3128.916,-0.007303,-0.009307,-1.005273,-0.000068,-0.000072,-0.010028,-0.053967,-0.017711, 0.139456,1, 0.002002,-0.001463, 0.001365,1, 0.086981, 0.027934, 9.806225,1,1
1777933982012,  3128.921,  3128.916,-0.007303,-0.009307,-1.005273,-0.000068,-0.000072,-0.010028,-0.053967,-0.017711, 0.139456,1, 0.002002,-0.001463, 0.001365,1, 0.086981, 0.027934, 9.806225,1,1
1777933982030,  3128.946,  3128.946,-0.010835,-0.008552,-0.987356,-0.000086,-0.000057,-0.009953,-0.019480,-0.055860, 0.123571,1, 0.002245,-0.002786, 0.000916,1, 0.086860, 0.028075, 9.806225,1,1
1777933982040,  3128.946,  3128.946,-0.010835,-0.008552,-0.987356,-0.000086,-0.000057,-0.009953,-0.019480,-0.055860, 0.123571,1, 0.002245,-0.002786, 0.000916,1, 0.086860, 0.028075, 9.806225,1,1
1777933982052,  3128.971,  3128.966,-0.010624,-0.004311,-0.994286,-0.000102,-0.000062,-0.009978,-0.016539,-0.009656, 0.031480,1, 0.001832, 0.001196,-0.000308,1, 0.086684, 0.027972, 9.806227,1,1
1777933982062,  3128.971,  3128.966,-0.010624,-0.004311,-0.994286,-0.000102,-0.000062,-0.009978,-0.016539,-0.009656, 0.031480,1, 0.001832, 0.001196,-0.000308,1, 0.086684, 0.027972, 9.806227,1,1
1777933982075,  3128.996,  3128.991,-0.009177,-0.004497,-0.991752,-0.000093,-0.000041,-0.009906,-0.003244,-0.016140, 0.080464,1, 0.001202,-0.000223,-0.000148,1, 0.086755, 0.028001, 9.806227,1,1
1777933982085,  3128.996,  3128.991,-0.009177,-0.004497,-0.991752,-0.000093,-0.000041,-0.009906,-0.003244,-0.016140, 0.080464,1, 0.001202,-0.000223,-0.000148,1, 0.086755, 0.028001, 9.806227,1,1
1777933982101,  3129.021,  3129.016,-0.007524,-0.001395,-0.994247,-0.000087,-0.000024,-0.009942,-0.000300, 0.008549, 0.004973,1,-0.000336,-0.000013,-0.000146,1, 0.086771, 0.027911, 9.806227,1,1
1777933982111,  3129.021,  3129.016,-0.007524,-0.001395,-0.994247,-0.000087,-0.000024,-0.009942,-0.000300, 0.008549, 0.004973,1,-0.000336,-0.000013,-0.000146,1, 0.086771, 0.027911, 9.806227,1,1
1777933982125,  3129.041,  3129.041,-0.008302,-0.003833,-0.998394,-0.000086,-0.000038,-0.009968, 0.005280,-0.009693, 0.015326,1, 0.000116, 0.000451, 0.000486,1, 0.086684, 0.027895, 9.806227,1,1
1777933982135,  3129.041,  3129.041,-0.008302,-0.003833,-0.998394,-0.000086,-0.000038,-0.009968, 0.005280,-0.009693, 0.015326,1, 0.000116, 0.000451, 0.000486,1, 0.086684, 0.027895, 9.806227,1,1
1777933982151,  3129.071,  3129.066,-0.008173,-0.003597,-0.996225,-0.000086,-0.000041,-0.009953,-0.002359,-0.009023, 0.054748,1, 0.000384, 0.000139, 0.000118,1, 0.086832, 0.027772, 9.806226,1,1
1777933982161,  3129.071,  3129.066,-0.008173,-0.003597,-0.996225,-0.000086,-0.000041,-0.009953,-0.002359,-0.009023, 0.054748,1, 0.000384, 0.000139, 0.000118,1, 0.086832, 0.027772, 9.806226,1,1
1777933982173,  3129.091,  3129.091,-0.009541,-0.004301,-0.995526,-0.000090,-0.000045,-0.009965,-0.006833,-0.014411, 0.043451,1,-0.000069,-0.001592,-0.000115,1, 0.086786, 0.027766, 9.806227,1,1
1777933982183,  3129.091,  3129.091,-0.009541,-0.004301,-0.995526,-0.000090,-0.000045,-0.009965,-0.006833,-0.014411, 0.043451,1,-0.000069,-0.001592,-0.000115,1, 0.086786, 0.027766, 9.806227,1,1
1777933982201,  3129.116,  3129.116,-0.009126,-0.002741,-0.995100,-0.000091,-0.000025,-0.009952,-0.002780, 0.000747, 0.047626,1, 0.000496, 0.000229,-0.000229,1, 0.086707, 0.027641, 9.806228,1,1
1777933982211,  3129.116,  3129.116,-0.009126,-0.002741,-0.995100,-0.000091,-0.000025,-0.009952,-0.002780, 0.000747, 0.047626,1, 0.000496, 0.000229,-0.000229,1, 0.086707, 0.027641, 9.806228,1,1
1777933982222,  3129.141,  3129.136,-0.009128,-0.002290,-0.995298,-0.000093,-0.000022,-0.009954, 0.004602, 0.017158, 0.029378,1, 0.000125,-0.000363,-0.000370,1, 0.086806, 0.027753, 9.806227,1,1
1777933982233,  3129.141,  3129.136,-0.009128,-0.002290,-0.995298,-0.000093,-0.000022,-0.009954, 0.004602, 0.017158, 0.029378,1, 0.000125,-0.000363,-0.000370,1, 0.086806, 0.027753, 9.806227,1,1
1777933982250,  3129.166,  3129.166,-0.008610,-0.003025,-0.996570,-0.000087,-0.000030,-0.009961, 0.002429,-0.002019, 0.033209,1, 0.000513, 0.000018,-0.000273,1, 0.086866, 0.027666, 9.806226,1,1
1777933982260,  3129.166,  3129.166,-0.008610,-0.003025,-0.996570,-0.000087,-0.000030,-0.009961, 0.002429,-0.002019, 0.033209,1, 0.000513, 0.000018,-0.000273,1, 0.086866, 0.027666, 9.806226,1,1
1777933982272,  3129.191,  3129.186,-0.008859,-0.003125,-0.995535,-0.000092,-0.000033,-0.009951, 0.002068, 0.001934, 0.038833,1, 0.000281, 0.000118,-0.000269,1, 0.086818, 0.027587, 9.806227,1,1
1777933982282,  3129.191,  3129.186,-0.008859,-0.003125,-0.995535,-0.000092,-0.000033,-0.009951, 0.002068, 0.001934, 0.038833,1, 0.000281, 0.000118,-0.000269,1, 0.086818, 0.027587, 9.806227,1,1
1777933982300,  3129.216,  3129.216,-0.008922,-0.003981,-0.996388,-0.000090,-0.000039,-0.009965,-0.000578,-0.011405, 0.034996,1,-0.000178,-0.000307, 0.000059,1, 0.086929, 0.027629, 9.806226,1,1
1777933982310,  3129.216,  3129.216,-0.008922,-0.003981,-0.996388,-0.000090,-0.000039,-0.009965,-0.000578,-0.011405, 0.034996,1,-0.000178,-0.000307, 0.000059,1, 0.086929, 0.027629, 9.806226,1,1
1777933982322,  3129.241,  3129.236,-0.008380,-0.002503,-0.995637,-0.000087,-0.000026,-0.009955, 0.002484,-0.002775, 0.044818,1,-0.000611, 0.000750,-0.000601,1, 0.086926, 0.027467, 9.806227,1,1
1777933982332,  3129.241,  3129.236,-0.008380,-0.002503,-0.995637,-0.000087,-0.000026,-0.009955, 0.002484,-0.002775, 0.044818,1,-0.000611, 0.000750,-0.000601,1, 0.086926, 0.027467, 9.806227,1,1
1777933982345,  3129.266,  3129.261,-0.009037,-0.002529,-0.996798,-0.000087,-0.000026,-0.009966,-0.001716, 0.002756, 0.030981,1, 0.000268, 0.000113,-0.000086,1, 0.086903, 0.027563, 9.806226,1,1
1777933982355,  3129.266,  3129.261,-0.009037,-0.002529,-0.996798,-0.000087,-0.000026,-0.009966,-0.001716, 0.002756, 0.030981,1, 0.000268, 0.000113,-0.000086,1, 0.086903, 0.027563, 9.806226,1,1
1777933982371,  3129.291,  3129.286,-0.009013,-0.002512,-0.996429,-0.000091,-0.000024,-0.009959, 0.003335, 0.011305, 0.047627,1,-0.000106, 0.000053,-0.000098,1, 0.086850, 0.027496, 9.806227,1,1
1777933982381,  3129.291,  3129.286,-0.009013,-0.002512,-0.996429,-0.000091,-0.000024,-0.009959, 0.003335, 0.011305, 0.047627,1,-0.000106, 0.000053,-0.000098,1, 0.086850, 0.027496, 9.806227,1,1
1777933982395,  3129.316,  3129.311,-0.008659,-0.003274,-0.995423,-0.000089,-0.000031,-0.009956, 0.001894,-0.004601, 0.044458,1,-0.000434, 0.000101, 0.000172,1, 0.086805, 0.027488, 9.806228,1,1
1777933982405,  3129.316,  3129.311,-0.008659,-0.003274,-0.995423,-0.000089,-0.000031,-0.009956, 0.001894,-0.004601, 0.044458,1,-0.000434, 0.000101, 0.000172,1, 0.086805, 0.027488, 9.806228,1,1
1777933982421,  3129.341,  3129.336,-0.008989,-0.002878,-0.996511,-0.000090,-0.000031,-0.009964,-0.001324,-0.003903, 0.038537,1, 0.000337,-0.000825, 0.000122,1, 0.086844, 0.027442, 9.806227,1,1
1777933982431,  3129.341,  3129.336,-0.008989,-0.002878,-0.996511,-0.000090,-0.000031,-0.009964,-0.001324,-0.003903, 0.038537,1, 0.000337,-0.000825, 0.000122,1, 0.086844, 0.027442, 9.806227,1,1
1777933982444,  3129.361,  3129.361,-0.008781,-0.002459,-0.995371,-0.000088,-0.000027,-0.009953, 0.000671, 0.003292, 0.044970,1, 0.000429,-0.000861,-0.000450,1, 0.086814, 0.027419, 9.806228,1,1
1777933982454,  3129.361,  3129.361,-0.008781,-0.002459,-0.995371,-0.000088,-0.000027,-0.009953, 0.000671, 0.003292, 0.044970,1, 0.000429,-0.000861,-0.000450,1, 0.086814, 0.027419, 9.806228,1,1
1777933982470,  3129.386,  3129.386,-0.008888,-0.003046,-0.995869,-0.000089,-0.000030,-0.009960,-0.000428,-0.002512, 0.040085,1,-0.000606,-0.000063, 0.000251,1, 0.086737, 0.027337, 9.806229,1,1
1777933982480,  3129.386,  3129.386,-0.008888,-0.003046,-0.995869,-0.000089,-0.000030,-0.009960,-0.000428,-0.002512, 0.040085,1,-0.000606,-0.000063, 0.000251,1, 0.086737, 0.027337, 9.806229,1,1
1777933982492,  3129.411,  3129.406,-0.008638,-0.002296,-0.995783,-0.000087,-0.000023,-0.009958,-0.001928, 0.003106, 0.045698,1, 0.000318, 0.000850,-0.000499,1, 0.086669, 0.027363, 9.806229,1,1
1777933982502,  3129.411,  3129.406,-0.008638,-0.002296,-0.995783,-0.000087,-0.000023,-0.009958,-0.001928, 0.003106, 0.045698,1, 0.000318, 0.000850,-0.000499,1, 0.086669, 0.027363, 9.806229,1,1
1777933982520,  3129.436,  3129.436,-0.008840,-0.002805,-0.996520,-0.000089,-0.000029,-0.009962,-0.000020,-0.000027, 0.033700,1, 0.000497, 0.000098, 0.000032,1, 0.086663, 0.027501, 9.806229,1,1
1777933982530,  3129.436,  3129.436,-0.008840,-0.002805,-0.996520,-0.000089,-0.000029,-0.009962,-0.000020,-0.000027, 0.033700,1, 0.000497, 0.000098, 0.000032,1, 0.086663, 0.027501, 9.806229,1,1
1777933982542,  3129.461,  3129.456,-0.008811,-0.002959,-0.995855,-0.000092,-0.000029,-0.009957, 0.003218,-0.002060, 0.042594,1,-0.000389,-0.000645,-0.000108,1, 0.086678, 0.027476, 9.806229,1,1
1777933982552,  3129.461,  3129.456,-0.008811,-0.002959,-0.995855,-0.000092,-0.000029,-0.009957, 0.003218,-0.002060, 0.042594,1,-0.000389,-0.000645,-0.000108,1, 0.086678, 0.027476, 9.806229,1,1
1777933982570,  3129.486,  3129.486,-0.008988,-0.003018,-0.995944,-0.000089,-0.000030,-0.009965,-0.001376,-0.002282, 0.039353,1,-0.000579,-0.000333, 0.000096,1, 0.086777, 0.027298, 9.806228,1,1
1777933982580,  3129.486,  3129.486,-0.008988,-0.003018,-0.995944,-0.000089,-0.000030,-0.009965,-0.001376,-0.002282, 0.039353,1,-0.000579,-0.000333, 0.000096,1, 0.086777, 0.027298, 9.806228,1,1
1777933982592,  3129.511,  3129.506,-0.009431,-0.002866,-0.996077,-0.000094,-0.000029,-0.009963, 0.003619, 0.004005, 0.040824,1, 0.000294, 0.000008,-0.000147,1, 0.086778, 0.027299, 9.806228,1,1
1777933982602,  3129.511,  3129.506,-0.009431,-0.002866,-0.996077,-0.000094,-0.000029,-0.009963, 0.003619, 0.004005, 0.040824,1, 0.000294, 0.000008,-0.000147,1, 0.086778, 0.027299, 9.806228,1,1
1777933982615,  3129.536,  3129.536,-0.009288,-0.002986,-0.995321,-0.000093,-0.000027,-0.009956,-0.004220,-0.002088, 0.045465,1,-0.000760, 0.000056, 0.000054,1, 0.086861, 0.027175, 9.806228,1,1
1777933982625,  3129.536,  3129.536,-0.009288,-0.002986,-0.995321,-0.000093,-0.000027,-0.009956,-0.004220,-0.002088, 0.045465,1,-0.000760, 0.000056, 0.000054,1, 0.086861, 0.027175, 9.806228,1,1
1777933982641,  3129.561,  3129.556,-0.009224,-0.002685,-0.995646,-0.000089,-0.000027,-0.009959, 0.001846,-0.002519, 0.042252,1, 0.000573,-0.000793, 0.000105,1, 0.086894, 0.027190, 9.806228,1,1
1777933982651,  3129.561,  3129.556,-0.009224,-0.002685,-0.995646,-0.000089,-0.000027,-0.009959, 0.001846,-0.002519, 0.042252,1, 0.000573,-0.000793, 0.000105,1, 0.086894, 0.027190, 9.806228,1,1
1777933982665,  3129.586,  3129.581,-0.009023,-0.002945,-0.995817,-0.000090,-0.000029,-0.009957,-0.001597,-0.001707, 0.040599,1, 0.000136, 0.000489,-0.000228,1, 0.086876, 0.027173, 9.806228,1,1
1777933982675,  3129.586,  3129.581,-0.009023,-0.002945,-0.995817,-0.000090,-0.000029,-0.009957,-0.001597,-0.001707, 0.040599,1, 0.000136, 0.000489,-0.000228,1, 0.086876, 0.027173, 9.806228,1,1
1777933982691,  3129.611,  3129.606,-0.009001,-0.002945,-0.996215,-0.000092,-0.000029,-0.009961, 0.002958, 0.000972, 0.039347,1, 0.000553, 0.000645, 0.000506,1, 0.086763, 0.027247, 9.806229,1,1
1777933982701,  3129.611,  3129.606,-0.009001,-0.002945,-0.996215,-0.000092,-0.000029,-0.009961, 0.002958, 0.000972, 0.039347,1, 0.000553, 0.000645, 0.000506,1, 0.086763, 0.027247, 9.806229,1,1
1777933982714,  3129.631,  3129.631,-0.008671,-0.002453,-0.995664,-0.000088,-0.000027,-0.009959, 0.001788, 0.003225, 0.042096,1, 0.000282,-0.000164,-0.000185,1, 0.086829, 0.027292, 9.806228,1,1
1777933982725,  3129.631,  3129.631,-0.008671,-0.002453,-0.995664,-0.000088,-0.000027,-0.009959, 0.001788, 0.003225, 0.042096,1, 0.000282,-0.000164,-0.000185,1, 0.086829, 0.027292, 9.806228,1,1
1777933982740,  3129.656,  3129.656,-0.009047,-0.002568,-0.995874,-0.000088,-0.000026,-0.009962,-0.001830, 0.002128, 0.040039,1, 0.001185, 0.000181, 0.000309,1, 0.086886, 0.027345, 9.806227,1,1
1777933982751,  3129.656,  3129.656,-0.009047,-0.002568,-0.995874,-0.000088,-0.000026,-0.009962,-0.001830, 0.002128, 0.040039,1, 0.001185, 0.000181, 0.000309,1, 0.086886, 0.027345, 9.806227,1,1
1777933982762,  3129.681,  3129.676,-0.008749,-0.003023,-0.995404,-0.000091,-0.000030,-0.009955,-0.003843, 0.001567, 0.041717,1, 0.000446,-0.000418, 0.000023,1, 0.086903, 0.027332, 9.806227,1,1
1777933982773,  3129.681,  3129.676,-0.008749,-0.003023,-0.995404,-0.000091,-0.000030,-0.009955,-0.003843, 0.001567, 0.041717,1, 0.000446,-0.000418, 0.000023,1, 0.086903, 0.027332, 9.806227,1,1
1777933982790,  3129.706,  3129.706,-0.008915,-0.003125,-0.995530,-0.000087,-0.000031,-0.009958,-0.000496,-0.003307, 0.043408,1, 0.000253,-0.000480, 0.000004,1, 0.086943, 0.027350, 9.806227,1,1
1777933982800,  3129.706,  3129.706,-0.008915,-0.003125,-0.995530,-0.000087,-0.000031,-0.009958,-0.000496,-0.003307, 0.043408,1, 0.000253,-0.000480, 0.000004,1, 0.086943, 0.027350, 9.806227,1,1
1777933982812,  3129.731,  3129.726,-0.008890,-0.002588,-0.996115,-0.000089,-0.000026,-0.009962, 0.001494, 0.002773, 0.039006,1,-0.001052, 0.000353, 0.000011,1, 0.087010, 0.027280, 9.806226,1,1
1777933982822,  3129.731,  3129.726,-0.008890,-0.002588,-0.996115,-0.000089,-0.000026,-0.009962, 0.001494, 0.002773, 0.039006,1,-0.001052, 0.000353, 0.000011,1, 0.087010, 0.027280, 9.806226,1,1
1777933982840,  3129.756,  3129.756,-0.008846,-0.002793,-0.995939,-0.000089,-0.000030,-0.009959, 0.000169,-0.000155, 0.039403,1, 0.000015, 0.001110, 0.000035,1, 0.086881, 0.027235, 9.806228,1,1
