Time,GPS_ts,fGPS_ts,scaledAccelX,scaledAccelY,scaledAccelZ,deltaVelX,deltaVelY,deltaVelZ,estLinearAccelX,estLinearAccelY,estLinearAccelZ,estLinearAccel:valid,estAngularRateX,estAngularRateY,estAngularRateZ,estAngularRate:valid,estGravityX,estGravityY,estGravityZ,estGravity:valid,flag
1778107667594,   698.362,   698.362, 0.015301, 0.054940,-0.994124, 0.000154, 0.000551,-0.009942, 0.011772,-0.051423, 0.038865,1, 0.008200,-0.000654,-0.000936,1,-0.138262,-0.589942, 9.787912,1,0
1778107667594,   698.387,   698.382, 0.015461, 0.053934,-0.994842, 0.000155, 0.000539,-0.009950, 0.015049,-0.053162, 0.039543,1, 0.007275,-0.000932,-0.000875,1,-0.138076,-0.588503, 9.788002,1,0
1778107667594,   698.407,   698.407, 0.013411, 0.053991,-0.995994, 0.000134, 0.000540,-0.009958,-0.006308,-0.057086, 0.020754,1, 0.006269,-0.000565, 0.000083,1,-0.137809,-0.586357, 9.788135,1,0
1778107667594,   698.432,   698.432, 0.012564, 0.054566,-0.994067, 0.000129, 0.000543,-0.009945,-0.014528,-0.050194, 0.039730,1, 0.005545,-0.000307,-0.000326,1,-0.137725,-0.585129, 9.788209,1,0
1778107667594,   698.457,   698.452, 0.012837, 0.054165,-0.994414, 0.000125, 0.000541,-0.009941,-0.012818,-0.061213, 0.039085,1, 0.005994,-0.000142,-0.000586,1,-0.137763,-0.584005, 9.788276,1,0
1778107667594,   698.482,   698.482, 0.012786, 0.054365,-0.995241, 0.000123, 0.000542,-0.009953,-0.012294,-0.049271, 0.028395,1, 0.005732,-0.000006,-0.002168,1,-0.137682,-0.582236, 9.788383,1,0
1778107667594,   698.507,   698.502, 0.014081, 0.053417,-0.996169, 0.000136, 0.000529,-0.009962,-0.006324,-0.054131, 0.036064,1, 0.004162,-0.000918,-0.001168,1,-0.137566,-0.581388, 9.788434,1,0
1778107667594,   698.532,   698.527, 0.013706, 0.053086,-0.993495, 0.000141, 0.000533,-0.009937,-0.002875,-0.058235, 0.045731,1, 0.001745,-0.000510,-0.000412,1,-0.137249,-0.578433, 9.788614,1,0
1778107667594,   698.557,   698.552, 0.013835, 0.053071,-0.995199, 0.000140, 0.000530,-0.009954,-0.005371,-0.064025, 0.019551,1, 0.000496, 0.000221,-0.000347,1,-0.137262,-0.578146, 9.788630,1,0
1778107667594,   698.577,   698.572, 0.014335, 0.052982,-0.993476, 0.000143, 0.000528,-0.009937, 0.005246,-0.059520, 0.030187,1,-0.000034, 0.000615, 0.001090,1,-0.137249,-0.577975, 9.788641,1,0
1778107667594,   698.597,   698.592, 0.015265, 0.052817,-0.994753, 0.000153, 0.000530,-0.009946, 0.009636,-0.055577, 0.046035,1,-0.000193,-0.000247, 0.000852,1,-0.137297,-0.578075, 9.788634,1,0
1778107667605,   719.087,   719.082, 0.012648, 0.028370,-0.995826, 0.000124, 0.000285,-0.009961, 0.012374,-0.060141, 0.033437,1,-0.001155, 0.000230, 0.000264,1,-0.137334,-0.578132, 9.788630,1,0
1778107667628,   719.112,   719.112, 0.012112, 0.027840,-0.995228, 0.000120, 0.000279,-0.009955,-0.006237,-0.032966, 0.041228,1, 0.017510,-0.000249, 0.000760,1,-0.125003,-0.305434, 9.801095,1,0
1778107667653,   719.132,   719.132, 0.011893, 0.027065,-0.996033, 0.000117, 0.000272,-0.009957,-0.008546,-0.035916, 0.033473,1, 0.017358,-0.001730, 0.000605,1,-0.125167,-0.300575, 9.801244,1,0
1778107667675,   719.157,   719.152, 0.011468, 0.025148,-0.995650, 0.000116, 0.000253,-0.009955,-0.013032,-0.049085, 0.036777,1, 0.017047,-0.000419, 0.000270,1,-0.125000,-0.297347, 9.801344,1,0
1778107667702,   719.182,   719.182, 0.011458, 0.024412,-0.995407, 0.000114, 0.000244,-0.009956,-0.012551,-0.053926, 0.039860,1, 0.013696,-0.001147, 0.001490,1,-0.124880,-0.292900, 9.801479,1,0
1778107667723,   719.207,   719.202, 0.012454, 0.023994,-0.995668, 0.000123, 0.000239,-0.009955,-0.004817,-0.052832, 0.039887,1, 0.011379,-0.000572, 0.000681,1,-0.124792,-0.290551, 9.801551,1,0
1778107667745,   719.227,   719.222, 0.012323, 0.024796,-0.996225, 0.000122, 0.000245,-0.009963,-0.004559,-0.057401, 0.034625,1, 0.009678, 0.000063, 0.000715,1,-0.124723,-0.288515, 9.801612,1,0
1778107667772,   719.252,   719.252, 0.012830, 0.026581,-0.995636, 0.000127, 0.000263,-0.009955, 0.001252,-0.025773, 0.037821,1, 0.007921,-0.000404, 0.001680,1,-0.124555,-0.286194, 9.801682,1,0
1778107667794,   719.277,   719.272, 0.013202, 0.027591,-0.996148, 0.000134, 0.000277,-0.009962, 0.006530,-0.013190, 0.033567,1, 0.009030,-0.001039, 0.000571,1,-0.124374,-0.284445, 9.801735,1,0
1778107667815,   719.297,   719.292, 0.014190, 0.025955,-0.995896, 0.000140, 0.000261,-0.009957, 0.006872,-0.019675, 0.037017,1, 0.011283,-0.000226,-0.000060,1,-0.124311,-0.282262, 9.801799,1,0
1778107667842,   719.322,   719.322, 0.013511, 0.025451,-0.995726, 0.000136, 0.000256,-0.009956, 0.008251,-0.029671, 0.037148,1, 0.011119,-0.000281, 0.000417,1,-0.124240,-0.278917, 9.801895,1,0
1778107667864,   719.347,   719.342, 0.013077, 0.025583,-0.996452, 0.000131, 0.000254,-0.009966, 0.005294,-0.026142, 0.032273,1, 0.012026,-0.000336,-0.000239,1,-0.124136,-0.274818, 9.802012,1,0
1778107667885,   719.367,   719.362, 0.012676, 0.024214,-0.995384, 0.000126, 0.000242,-0.009954, 0.002224,-0.033857, 0.037707,1, 0.011528,-0.000381, 0.000921,1,-0.124035,-0.272552, 9.802077,1,0
1778107667912,   719.392,   719.392, 0.012153, 0.022550,-0.995550, 0.000123, 0.000230,-0.009958,-0.004786,-0.048268, 0.039151,1, 0.011583,-0.000017, 0.000641,1,-0.123969,-0.269050, 9.802175,1,0
1778107667934,   719.417,   719.412, 0.012671, 0.022071,-0.996255, 0.000128, 0.000221,-0.009963,-0.001573,-0.051663, 0.038784,1, 0.010250,-0.000910,-0.000436,1,-0.123879,-0.266996, 9.802232,1,0
1778107667955,   719.437,   719.432, 0.012257, 0.022080,-0.995632, 0.000122, 0.000221,-0.009956,-0.003030,-0.052574, 0.035585,1, 0.008755,-0.000791, 0.000213,1,-0.123750,-0.265302, 9.802279,1,0
1778107667982,   719.462,   719.462, 0.012190, 0.022601,-0.995212, 0.000120, 0.000225,-0.009954,-0.004277,-0.041835, 0.042634,1, 0.006060, 0.000179,-0.000295,1,-0.123822,-0.263282, 9.802333,1,0
1778107668004,   719.487,   719.482, 0.012209, 0.022899,-0.995539, 0.000120, 0.000227,-0.009956,-0.002864,-0.039802, 0.038196,1, 0.004899,-0.000022, 0.000254,1,-0.123838,-0.262309, 9.802359,1,0
1778107668025,   719.507,   719.502, 0.012820, 0.021678,-0.996052, 0.000124, 0.000215,-0.009961,-0.005153,-0.045939, 0.038199,1, 0.003384, 0.000103,-0.000569,1,-0.123838,-0.261570, 9.802379,1,0
1778107668052,   719.532,   719.532, 0.012180, 0.021422,-0.994742, 0.000122, 0.000215,-0.009949,-0.004363,-0.049542, 0.047347,1, 0.000487, 0.000297, 0.000503,1,-0.123821,-0.259329, 9.802439,1,0
1778107668074,   719.557,   719.552, 0.012041, 0.023304,-0.996353, 0.000121, 0.000234,-0.009963,-0.004007,-0.033256, 0.038597,1, 0.000792, 0.000024, 0.000145,1,-0.123818,-0.259257, 9.802441,1,0
1778107668095,   719.577,   719.572, 0.011213, 0.023795,-0.995825, 0.000113, 0.000240,-0.009960,-0.006760,-0.020150, 0.030338,1, 0.000589, 0.000048,-0.000595,1,-0.123818,-0.259145, 9.802444,1,0
1778107668122,   719.602,   719.602, 0.011489, 0.022389,-0.995370, 0.000113, 0.000226,-0.009952,-0.011073,-0.039409, 0.041206,1, 0.000270,-0.000166, 0.000372,1,-0.123736,-0.258965, 9.802449,1,0
1778107668144,   719.627,   719.622, 0.011919, 0.022258,-0.995834, 0.000117, 0.000223,-0.009959,-0.004309,-0.042950, 0.037273,1,-0.000532,-0.000041,-0.000096,1,-0.123746,-0.258939, 9.802450,1,0
1778107668166,   719.647,   719.647, 0.013166, 0.023109,-0.996395, 0.000130, 0.000228,-0.009963, 0.005310,-0.032735, 0.031140,1,-0.001982, 0.000400, 0.000346,1,-0.123816,-0.259418, 9.802436,1,0
1778107668193,   719.672,   719.672, 0.012789, 0.023165,-0.995920, 0.000131, 0.000230,-0.009960, 0.001537,-0.032687, 0.035787,1,-0.002834, 0.000129,-0.000451,1,-0.123886,-0.259949, 9.802422,1,0
1778107668214,   719.697,   719.692, 0.013270, 0.023600,-0.996434, 0.000130, 0.000238,-0.009966, 0.003012,-0.032536, 0.042206,1,-0.002273, 0.001025,-0.000145,1,-0.123940,-0.260472, 9.802406,1,0
1778107668237,   719.717,   719.717, 0.013198, 0.023426,-0.995980, 0.000130, 0.000235,-0.009958, 0.005367,-0.031340, 0.035166,1,-0.002735,-0.000359,-0.000770,1,-0.124049,-0.261154, 9.802387,1,0
1778107668263,   719.742,   719.742, 0.013880, 0.023726,-0.995666, 0.000138, 0.000237,-0.009956, 0.012118,-0.027612, 0.038262,1,-0.003693,-0.000482,-0.000499,1,-0.123985,-0.260385, 9.802408,1,0
1778107668284,   719.767,   719.762, 0.013698, 0.024051,-0.995173, 0.000138, 0.000243,-0.009951, 0.009214,-0.026035, 0.035153,1,-0.002627,-0.000197,-0.000388,1,-0.124001,-0.260988, 9.802392,1,0
1778107668307,   719.787,   719.787, 0.013489, 0.023714,-0.996091, 0.000135, 0.000236,-0.009961, 0.008190,-0.029251, 0.034058,1,-0.002682,-0.000041, 0.000129,1,-0.124091,-0.261891, 9.802367,1,0
1778107668333,   719.812,   719.812, 0.013778, 0.023782,-0.995920, 0.000136, 0.000236,-0.009959, 0.011004,-0.029095, 0.035718,1,-0.002220,-0.000084,-0.000179,1,-0.124111,-0.262390, 9.802354,1,0
1778107668354,   719.837,   719.832, 0.012915, 0.024252,-0.995229, 0.000129, 0.000244,-0.009952, 0.003540,-0.026810, 0.046913,1,-0.001632, 0.000203,-0.000111,1,-0.124074,-0.262815, 9.802342,1,0
1778107668377,   719.857,   719.857, 0.012405, 0.025638,-0.996335, 0.000125, 0.000257,-0.009961,-0.002451,-0.011674, 0.031628,1,-0.000012, 0.000079, 0.000139,1,-0.124105,-0.263102, 9.802335,1,0
1778107668403,   719.882,   719.882, 0.012267, 0.026033,-0.996069, 0.000125, 0.000262,-0.009962,-0.003692,-0.007764, 0.034238,1, 0.001191,-0.000360, 0.000563,1,-0.123982,-0.263024, 9.802338,1,0
1778107668424,   719.907,   719.902, 0.011849, 0.023609,-0.995897, 0.000118, 0.000238,-0.009957,-0.004722,-0.014946, 0.039538,1, 0.003049, 0.000275, 0.000951,1,-0.123963,-0.262538, 9.802351,1,0
1778107668447,   719.927,   719.927, 0.011219, 0.023033,-0.996137, 0.000112, 0.000231,-0.009961,-0.014076,-0.035143, 0.033621,1, 0.003468,-0.000495, 0.000811,1,-0.124103,-0.260769, 9.802397,1,0
1778107668473,   719.952,   719.952, 0.010823, 0.023230,-0.995752, 0.000109, 0.000232,-0.009959,-0.017838,-0.032368, 0.037418,1, 0.003288,-0.000298, 0.000956,1,-0.123966,-0.260077, 9.802417,1,0
1778107668494,   719.977,   719.972, 0.010481, 0.022816,-0.994211, 0.000106, 0.000232,-0.009944,-0.021418,-0.035003, 0.046395,1, 0.001250,-0.000102, 0.001078,1,-0.123952,-0.259688, 9.802427,1,0
1778107668517,   720.002,   719.997, 0.010734, 0.023308,-0.997284, 0.000108, 0.000229,-0.009973,-0.018697,-0.030999, 0.022411,1, 0.000592,-0.000848, 0.000669,1,-0.123936,-0.259551, 9.802431,1,0
1778107668543,   720.022,   720.022, 0.012317, 0.024570,-0.995873, 0.000125, 0.000246,-0.009960,-0.003009,-0.018557, 0.036259,1, 0.000140,-0.000670, 0.001282,1,-0.123775,-0.259500, 9.802435,1,0
1778107668565,   720.047,   720.042, 0.014174, 0.023195,-0.993260, 0.000140, 0.000230,-0.009932, 0.015451,-0.029060, 0.053470,1, 0.000849, 0.000774, 0.000951,1,-0.123829,-0.259354, 9.802438,1,0
1778107668587,   720.072,   720.067, 0.013589, 0.021722,-0.997210, 0.000134, 0.000217,-0.009969, 0.009313,-0.046380, 0.023144,1,-0.001254, 0.000827, 0.001096,1,-0.123972,-0.259441, 9.802434,1,0
1778107668613,   720.092,   720.092, 0.013728, 0.021756,-0.997448, 0.000137, 0.000216,-0.009980, 0.010668,-0.046466, 0.020798,1,-0.002856, 0.000026, 0.001522,1,-0.123961,-0.259912, 9.802422,1,0
1778107668635,   720.117,   720.112, 0.015543, 0.023046,-0.994829, 0.000156, 0.000232,-0.009950, 0.023324,-0.031098, 0.051063,1,-0.002963,-0.000500, 0.001182,1,-0.123861,-0.260549, 9.802405,1,0
1778107668657,   720.142,   720.137, 0.014622, 0.022822,-0.994926, 0.000146, 0.000230,-0.009947, 0.019473,-0.036469, 0.045518,1,-0.004257, 0.000937, 0.001531,1,-0.123948,-0.260391, 9.802409,1,0
1778107668683,   720.162,   720.162, 0.013877, 0.022008,-0.997564, 0.000137, 0.000219,-0.009973, 0.012080,-0.045517, 0.019617,1,-0.006724,-0.000199, 0.001009,1,-0.124004,-0.261551, 9.802377,1,0
1778107668705,   720.187,   720.182, 0.013078, 0.023545,-0.994949, 0.000129, 0.000235,-0.009949, 0.011105,-0.033196, 0.033210,1,-0.005064, 0.000435, 0.000477,1,-0.124078,-0.262639, 9.802347,1,0
1778107668728,   720.212,   720.207, 0.012747, 0.024196,-0.995666, 0.000127, 0.000243,-0.009954, 0.001035,-0.026555, 0.038165,1,-0.004000, 0.000612, 0.000339,1,-0.123993,-0.263957, 9.802313,1,0
1778107668753,   720.232,   720.232, 0.011366, 0.024377,-0.996134, 0.000117, 0.000243,-0.009963,-0.012586,-0.025432, 0.033555,1,-0.003634, 0.000942,-0.000474,1,-0.124073,-0.264607, 9.802295,1,0
1778107668775,   720.257,   720.252, 0.011118, 0.025480,-0.994877, 0.000112, 0.000254,-0.009951,-0.016463,-0.017877, 0.035797,1,-0.003798, 0.000499, 0.000408,1,-0.124051,-0.265331, 9.802275,1,0
1778107668798,   720.282,   720.277, 0.010390, 0.024864,-0.995507, 0.000105, 0.000249,-0.009952,-0.022130,-0.022077, 0.039672,1,-0.001520,-0.000271, 0.000017,1,-0.124013,-0.265956, 9.802258,1,0
1778107668823,   720.302,   720.302, 0.010672, 0.025041,-0.996365, 0.000105, 0.000249,-0.009963,-0.019377,-0.020535, 0.031246,1,-0.000653, 0.000445, 0.000376,1,-0.124047,-0.266128, 9.802254,1,0
1778107668845,   720.327,   720.322, 0.010897, 0.024686,-0.995856, 0.000110, 0.000248,-0.009959,-0.021935,-0.026863, 0.035820,1,-0.000027, 0.000179, 0.000400,1,-0.124055,-0.266160, 9.802253,1,0
1778107668868,   720.352,   720.352, 0.011420, 0.024424,-0.995733, 0.000114, 0.000248,-0.009956,-0.011975,-0.025310, 0.037483,1, 0.000352, 0.000115,-0.000040,1,-0.123973,-0.264812, 9.802290,1,0
1778107668893,   720.372,   720.372, 0.011755, 0.023787,-0.996070, 0.000116, 0.000237,-0.009959,-0.008725,-0.031470, 0.034183,1, 0.000570,-0.000067, 0.000159,1,-0.124000,-0.264719, 9.802292,1,0
1778107668915,   720.397,   720.392, 0.012762, 0.022882,-0.995241, 0.000129, 0.000229,-0.009953, 0.001004,-0.033356, 0.037352,1,-0.000248,-0.000170,-0.000206,1,-0.123925,-0.264653, 9.802295,1,0
1778107668942,   720.422,   720.422, 0.013423, 0.023888,-0.995635, 0.000134, 0.000238,-0.009960, 0.007567,-0.030607, 0.038440,1,-0.001564,-0.000114, 0.000424,1,-0.124061,-0.264919, 9.802286,1,0
1778107668964,   720.447,   720.442, 0.014450, 0.023947,-0.996142, 0.000145, 0.000242,-0.009961, 0.010440,-0.030570, 0.034756,1,-0.001656,-0.000704, 0.000113,1,-0.124027,-0.265252, 9.802278,1,0
1778107668985,   720.467,   720.462, 0.013760, 0.023182,-0.995959, 0.000136, 0.000230,-0.009957, 0.018464,-0.034343, 0.035092,1,-0.002634, 0.000521,-0.000088,1,-0.124156,-0.265683, 9.802264,1,0
1778107669012,   720.492,   720.492, 0.014379, 0.023000,-0.995873, 0.000143, 0.000228,-0.009957, 0.016742,-0.040902, 0.036064,1,-0.004141, 0.000527, 0.000884,1,-0.124287,-0.266584, 9.802238,1,0
1778107669034,   720.517,   720.512, 0.014017, 0.023856,-0.996119, 0.000138, 0.000239,-0.009960, 0.010644,-0.038453, 0.036123,1,-0.005437, 0.000258, 0.000291,1,-0.124315,-0.267518, 9.802212,1,0
1778107669055,   720.537,   720.532, 0.013680, 0.024535,-0.995518, 0.000138, 0.000243,-0.009961, 0.011240,-0.030479, 0.035697,1,-0.005299,-0.000311,-0.000373,1,-0.124376,-0.267191, 9.802220,1,0
1778107669082,   720.562,   720.562, 0.013429, 0.024294,-0.996031, 0.000134, 0.000242,-0.009960, 0.007384,-0.030442, 0.034453,1,-0.005484, 0.000602, 0.000766,1,-0.124332,-0.268858, 9.802176,1,0
1778107669104,   720.587,   720.582, 0.012779, 0.025028,-0.995648, 0.000129, 0.000251,-0.009955,-0.000761,-0.023411, 0.039588,1,-0.005885, 0.000618, 0.000349,1,-0.124435,-0.270039, 9.802141,1,0
1778107669125,   720.607,   720.602, 0.012384, 0.024658,-0.995694, 0.000124, 0.000247,-0.009957,-0.003455,-0.027236, 0.036375,1,-0.006730,-0.000016, 0.000034,1,-0.124504,-0.271315, 9.802106,1,0
1778107669152,   720.632,   720.632, 0.011928, 0.025826,-0.995562, 0.000118, 0.000257,-0.009957,-0.007526,-0.019732, 0.038934,1,-0.005880, 0.000585, 0.000457,1,-0.124517,-0.273182, 9.802053,1,0
1778107669174,   720.657,   720.652, 0.011769, 0.026505,-0.996379, 0.000117, 0.000262,-0.009966,-0.010559,-0.017099, 0.040592,1,-0.005918,-0.000212,-0.000723,1,-0.124563,-0.274338, 9.802021,1,0
1778107669195,   720.677,   720.672, 0.012001, 0.025053,-0.995387, 0.000120, 0.000251,-0.009954,-0.009037,-0.021770, 0.037958,1,-0.005910,-0.000263,-0.000031,1,-0.124488,-0.275490, 9.801990,1,0
1778107669222,   720.702,   720.702, 0.012125, 0.025221,-0.995861, 0.000121, 0.000253,-0.009953,-0.005516,-0.029473, 0.035896,1,-0.004866, 0.000846, 0.000508,1,-0.124453,-0.276956, 9.801949,1,0
1778107669244,   720.727,   720.722, 0.011004, 0.026041,-0.995685, 0.000111, 0.000258,-0.009959,-0.007724,-0.019763, 0.041903,1,-0.005064, 0.000965, 0.000459,1,-0.124522,-0.277977, 9.801919,1,0
1778107669265,   720.747,   720.742, 0.011836, 0.025337,-0.996563, 0.000118, 0.000256,-0.009967,-0.011342,-0.029451, 0.028236,1,-0.004055, 0.000465,-0.000155,1,-0.124575,-0.277847, 9.801922,1,0
1778107669292,   720.772,   720.772, 0.012910, 0.026440,-0.995040, 0.000126, 0.000261,-0.009951, 0.002051,-0.019619, 0.043885,1,-0.004008, 0.000381, 0.000478,1,-0.124561,-0.279031, 9.801888,1,0
1778107669314,   720.797,   720.792, 0.012535, 0.026594,-0.995404, 0.000126, 0.000265,-0.009955, 0.001492,-0.014022, 0.044757,1,-0.003505, 0.000531,-0.000832,1,-0.124633,-0.279725, 9.801867,1,0
1778107669336,   720.817,   720.812, 0.012963, 0.026079,-0.996714, 0.000128, 0.000260,-0.009965,-0.000746,-0.019273, 0.029257,1,-0.003144, 0.000267,-0.000721,1,-0.124694,-0.280217, 9.801852,1,0
1778107669362,   720.842,   720.842, 0.013668, 0.025865,-0.995606, 0.000137, 0.000259,-0.009956, 0.009376,-0.027291, 0.038268,1,-0.001920, 0.000477, 0.000503,1,-0.124674,-0.280997, 9.801830,1,0
1778107669384,   720.867,   720.862, 0.013668, 0.026235,-0.995078, 0.000138, 0.000262,-0.009948, 0.012466,-0.029692, 0.046482,1,-0.002225, 0.000069,-0.000106,1,-0.124722,-0.281377, 9.801819,1,0
1778107669406,   720.887,   720.887, 0.013810, 0.026458,-0.996413, 0.000139, 0.000264,-0.009963, 0.010743,-0.022465, 0.030329,1,-0.000594,-0.000235,-0.000095,1,-0.124675,-0.281947, 9.801804,1,0
1778107669433,   720.912,   720.912, 0.013571, 0.026427,-0.996281, 0.000137, 0.000268,-0.009963, 0.008417,-0.022995, 0.031621,1,-0.000997,-0.000053, 0.000055,1,-0.124664,-0.282191, 9.801796,1,0
1778107669454,   720.937,   720.932, 0.013331, 0.025403,-0.995624, 0.000135, 0.000255,-0.009957, 0.009698,-0.025317, 0.041594,1,-0.001039,-0.000292,-0.000300,1,-0.124707,-0.281544, 9.801814,1,0
1778107669477,   720.957,   720.957, 0.012926, 0.024948,-0.995338, 0.000130, 0.000250,-0.009955, 0.002087,-0.037139, 0.040873,1,-0.001055, 0.000478,-0.000048,1,-0.124693,-0.281829, 9.801806,1,0
1778107669503,   720.982,   720.982, 0.012577, 0.026070,-0.995822, 0.000123, 0.000261,-0.009958,-0.001295,-0.026445, 0.036121,1,-0.001554,-0.000467, 0.000011,1,-0.124618,-0.282150, 9.801798,1,0
1778107669524,   721.007,   721.002, 0.011804, 0.026342,-0.995528, 0.000119, 0.000264,-0.009958,-0.008842,-0.022289, 0.041112,1,-0.002099,-0.000263,-0.000431,1,-0.124607,-0.282535, 9.801787,1,0
1778107669547,   721.027,   721.027, 0.011732, 0.026913,-0.996103, 0.000117, 0.000268,-0.009959,-0.009558,-0.019043, 0.033337,1,-0.001045,-0.000390,-0.000821,1,-0.124596,-0.282998, 9.801774,1,0
1778107669573,   721.052,   721.052, 0.011873, 0.027989,-0.995757, 0.000118, 0.000280,-0.009958,-0.008099,-0.008591, 0.036729,1,-0.000165,-0.000090, 0.000142,1,-0.124535,-0.283074, 9.801772,1,0
1778107669594,   721.077,   721.072, 0.012839, 0.026763,-0.995446, 0.000126, 0.000267,-0.009957,-0.001819,-0.019209, 0.036713,1, 0.000605,-0.000253,-0.000285,1,-0.124547,-0.283058, 9.801773,1,0
1778107669617,   721.097,   721.097, 0.012784, 0.026452,-0.995730, 0.000128, 0.000265,-0.009954, 0.000854,-0.023320, 0.037007,1, 0.000795, 0.000092, 0.000413,1,-0.124522,-0.282700, 9.801784,1,0
1778107669643,   721.122,   721.122, 0.013052, 0.026525,-0.995973, 0.000130, 0.000264,-0.009958, 0.003484,-0.022392, 0.034628,1, 0.001087, 0.000327,-0.000295,1,-0.124523,-0.282484, 9.801789,1,0
1778107669664,   721.147,   721.142, 0.013343, 0.024604,-0.995606, 0.000136, 0.000248,-0.009955, 0.003978,-0.037060, 0.034719,1, 0.001200, 0.000150,-0.000359,1,-0.124611,-0.281308, 9.801823,1,0
1778107669687,   721.167,   721.167, 0.013938, 0.024777,-0.996066, 0.000144, 0.000246,-0.009959, 0.012077,-0.038513, 0.033746,1,-0.001517,-0.000118, 0.000375,1,-0.124603,-0.281538, 9.801816,1,0
1778107669713,   721.192,   721.192, 0.014502, 0.026460,-0.995273, 0.000145, 0.000264,-0.009952, 0.017629,-0.022245, 0.041512,1,-0.000909,-0.000278, 0.000186,1,-0.124575,-0.281754, 9.801810,1,0
1778107669735,   721.217,   721.212, 0.013677, 0.028129,-0.996266, 0.000137, 0.000283,-0.009960, 0.014787,-0.005346, 0.044354,1,-0.000253,-0.000088, 0.000416,1,-0.124618,-0.281881, 9.801805,1,0
1778107669757,   721.242,   721.237, 0.015335, 0.025338,-0.996554, 0.000153, 0.000256,-0.009969, 0.025864,-0.033726, 0.028943,1,-0.002958,-0.000400, 0.001277,1,-0.124514,-0.282301, 9.801795,1,0
1778107669783,   721.262,   721.262, 0.015068, 0.023255,-0.996913, 0.000151, 0.000233,-0.009963, 0.023148,-0.055072, 0.025388,1,-0.007289, 0.000415, 0.003353,1,-0.124640,-0.283352, 9.801764,1,0
1778107669805,   721.287,   721.282, 0.013302, 0.028699,-0.991911, 0.000139, 0.000279,-0.009914, 0.024825,-0.023917, 0.068573,1,-0.016570,-0.000156, 0.009065,1,-0.124694,-0.286123, 9.801682,1,0
1778107669827,   721.312,   721.307, 0.013441, 0.035420,-0.998618, 0.000134, 0.000344,-0.009978, 0.006807, 0.056921, 0.008449,1,-0.015238, 0.001076, 0.011636,1,-0.125047,-0.290906, 9.801537,1,0
1778107669853,   721.332,   721.332, 0.013238, 0.034086,-0.998087, 0.000134, 0.000350,-0.009980, 0.004314, 0.042038, 0.013599,1,-0.013522,-0.000356, 0.014069,1,-0.125572,-0.292529, 9.801481,1,0
1778107669875,   721.357,   721.352, 0.017617, 0.021042,-0.995337, 0.000178, 0.000214,-0.009956, 0.038548,-0.053571, 0.048222,1,-0.015855,-0.000464, 0.015778,1,-0.125674,-0.295345, 9.801396,1,0
1778107669897,   721.382,   721.377, 0.028770, 0.018674,-1.001654, 0.000275, 0.000184,-0.010024, 0.156433,-0.118628,-0.021667,1,-0.032137,-0.001895, 0.019534,1,-0.125665,-0.302753, 9.801170,1,0
1778107669923,   721.402,   721.402, 0.034980, 0.024275,-0.994163, 0.000342, 0.000233,-0.009951, 0.217563,-0.071004, 0.051566,1,-0.041529,-0.001379, 0.021857,1,-0.125452,-0.310350, 9.800935,1,0
1778107669945,   721.427,   721.422, 0.025550, 0.025363,-0.991237, 0.000261, 0.000259,-0.009897, 0.180256,-0.061872, 0.146640,1,-0.041887, 0.002429, 0.019812,1,-0.126112,-0.318781, 9.800656,1,0
1778107669968,   721.452,   721.447, 0.025125, 0.023049,-1.008197, 0.000246, 0.000234,-0.010088, 0.119895,-0.102043,-0.086687,1,-0.030240,-0.001600, 0.008226,1,-0.126454,-0.329014, 9.800313,1,0
1778107669993,   721.472,   721.472, 0.032840, 0.023295,-0.999485, 0.000324, 0.000227,-0.010035, 0.196024,-0.105301,-0.001439,1,-0.027321,-0.002634, 0.001842,1,-0.125948,-0.334599, 9.800131,1,0
1778107670015,   721.497,   721.492, 0.061346, 0.030136,-1.008723, 0.000595, 0.000295,-0.010054, 0.300713,-0.090672, 0.134778,1,-0.018686,-0.000867,-0.008928,1,-0.125610,-0.338704, 9.799994,1,0
1778107670038,   721.522,   721.517, 0.091479, 0.045011,-1.010008, 0.000917, 0.000450,-0.010120, 0.774865, 0.102707,-0.104763,1, 0.013046,-0.015126,-0.026308,1,-0.121739,-0.338307, 9.800056,1,0
1778107670063,   721.542,   721.542, 0.083009, 0.041246,-0.954323, 0.000838, 0.000420,-0.009547, 0.692109, 0.069992, 0.441475,1, 0.015171, 0.009785,-0.024690,1,-0.122218,-0.334015, 9.800198,1,0
1778107670085,   721.567,   721.562, 0.043508, 0.016883,-1.006801, 0.000444, 0.000163,-0.010035, 0.421655,-0.155804, 0.234431,1, 0.012428, 0.005188,-0.022022,1,-0.123913,-0.331234, 9.800271,1,0
1778107670108,   721.592,   721.592, 0.051315, 0.036168,-1.051104, 0.000496, 0.000342,-0.010524, 0.380375, 0.027971,-0.507374,1, 0.019901,-0.006054,-0.022800,1,-0.122644,-0.326107, 9.800459,1,0
1778107670133,   721.612,   721.612, 0.065106, 0.045969,-0.992053, 0.000648, 0.000470,-0.009984, 0.516934, 0.127941, 0.071867,1, 0.021212,-0.006491,-0.019503,1,-0.121318,-0.322206, 9.800605,1,0
1778107670155,   721.637,   721.632, 0.064178, 0.024594,-0.965772, 0.000645, 0.000264,-0.009635, 0.525419,-0.012303, 0.390984,1, 0.026983,-0.005112,-0.021047,1,-0.120067,-0.317423, 9.800776,1,0
1778107670182,   721.662,   721.662, 0.058002, 0.023366,-1.000316, 0.000577, 0.000231,-0.009990, 0.449112,-0.079624,-0.008692,1, 0.034169, 0.003877,-0.022519,1,-0.119790,-0.307708, 9.801089,1,0
1778107670204,   721.687,   721.682, 0.051884, 0.033179,-1.009825, 0.000526, 0.000336,-0.010102, 0.411368, 0.017412,-0.129863,1, 0.037892, 0.002145,-0.021056,1,-0.120236,-0.300626, 9.801304,1,0
1778107670225,   721.707,   721.702, 0.056105, 0.027545,-0.996363, 0.000555, 0.000280,-0.009962, 0.410498, 0.004456, 0.001726,1, 0.045880,-0.001667,-0.023971,1,-0.119859,-0.292077, 9.801567,1,0
1778107670252,   721.732,   721.732, 0.058466, 0.021185,-0.992716, 0.000586, 0.000218,-0.009927, 0.454858,-0.071706, 0.066735,1, 0.044126,-0.005929,-0.021776,1,-0.118317,-0.278026, 9.801994,1,0
1778107670274,   721.757,   721.752, 0.059905, 0.019336,-0.989155, 0.000596, 0.000194,-0.009907, 0.463187,-0.083424, 0.030561,1, 0.034862,-0.002135,-0.019063,1,-0.117471,-0.270615, 9.802212,1,0
1778107670295,   721.777,   721.772, 0.053804, 0.021436,-0.988058, 0.000546, 0.000215,-0.009874, 0.458634,-0.050817, 0.109412,1, 0.027695, 0.002199,-0.015537,1,-0.117689,-0.264864, 9.802366,1,0
1778107670322,   721.802,   721.802, 0.050435, 0.015586,-0.994318, 0.000504, 0.000163,-0.009940, 0.376564,-0.104926, 0.051619,1, 0.029578, 0.002381,-0.022515,1,-0.118091,-0.256861, 9.802574,1,0
1778107670344,   721.827,   721.822, 0.046319, 0.017292,-1.001683, 0.000475, 0.000162,-0.010021, 0.346039,-0.112320,-0.009933,1, 0.029269, 0.004125,-0.026112,1,-0.118536,-0.250966, 9.802722,1,0
1778107670365,   721.847,   721.842, 0.044011, 0.027003,-0.987571, 0.000459, 0.000262,-0.009884, 0.337556,-0.031049, 0.067289,1, 0.025575, 0.003632,-0.022480,1,-0.118990,-0.245981, 9.802842,1,0
1778107670392,   721.872,   721.872, 0.038566, 0.025666,-0.987966, 0.000401, 0.000270,-0.009882, 0.258882, 0.014462, 0.114417,1, 0.039460,-0.000103,-0.032075,1,-0.119295,-0.236012, 9.803083,1,0
1778107670414,   721.897,   721.892, 0.038242, 0.017306,-1.001689, 0.000374, 0.000175,-0.010032, 0.253714,-0.044502,-0.024782,1, 0.044348,-0.000348,-0.036347,1,-0.119131,-0.227691, 9.803283,1,0
1778107670435,   721.917,   721.912, 0.035547, 0.023735,-0.998565, 0.000351, 0.000232,-0.010003, 0.241545,-0.018184,-0.069272,1, 0.051295,-0.002495,-0.038350,1,-0.118759,-0.218286, 9.803501,1,0
1778107670462,   721.942,   721.942, 0.033409, 0.029444,-0.991167, 0.000329, 0.000298,-0.009898, 0.209986, 0.088104, 0.083866,1, 0.070251,-0.004908,-0.044111,1,-0.117468,-0.198448, 9.803938,1,0
1778107670484,   721.967,   721.962, 0.034311, 0.016961,-0.997465, 0.000341, 0.000177,-0.009954, 0.197392, 0.032808, 0.043756,1, 0.086145,-0.004128,-0.049069,1,-0.116435,-0.182578, 9.804259,1,0
1778107670505,   721.987,   721.982, 0.045374, 0.015534,-1.009294, 0.000448, 0.000153,-0.010080, 0.300093,-0.025886,-0.032506,1, 0.096023,-0.006275,-0.048049,1,-0.115071,-0.164335, 9.804598,1,0
1778107670532,   722.012,   722.012, 0.043163, 0.009700,-0.987805, 0.000431, 0.000117,-0.009895, 0.309613,-0.044730, 0.117931,1, 0.092548,-0.000398,-0.045478,1,-0.113642,-0.136983, 9.805035,1,0
1778107670554,   722.037,   722.032, 0.028981,-0.004325,-0.980828, 0.000304,-0.000041,-0.009796, 0.206585,-0.156498, 0.221050,1, 0.078977, 0.004483,-0.042677,1,-0.114056,-0.120693, 9.805243,1,0
1778107670576,   722.057,   722.052, 0.013734,-0.001709,-0.997894, 0.000145,-0.000018,-0.009984, 0.078100,-0.150001, 0.133043,1, 0.063946, 0.001916,-0.034124,1,-0.114463,-0.107336, 9.805394,1,0
1778107670603,   722.082,   722.082, 0.014420, 0.005052,-1.008402, 0.000152, 0.000047,-0.010081, 0.025078,-0.041611,-0.083513,1, 0.058607, 0.008473,-0.036411,1,-0.116585,-0.089337, 9.805550,1,0
1778107670624,   722.107,   722.102, 0.004514,-0.002359,-0.982831, 0.000042,-0.000013,-0.009831,-0.023565,-0.033048, 0.110179,1, 0.048817, 0.003731,-0.032783,1,-0.117562,-0.079138, 9.805626,1,0
1778107670646,   722.127,   722.127, 0.002258,-0.004883,-0.996495, 0.000026,-0.000052,-0.009959,-0.096478,-0.115265, 0.033423,1, 0.031098, 0.001113,-0.031921,1,-0.118729,-0.066177, 9.805708,1,0
1778107670673,   722.152,   722.152, 0.001165,-0.003266,-1.021635, 0.000004,-0.000022,-0.010198,-0.107342,-0.095342,-0.213091,1, 0.004068, 0.000598,-0.023700,1,-0.118784,-0.063196, 9.805727,1,0
1778107670694,   722.177,   722.172,-0.004595,-0.022020,-0.990847,-0.000058,-0.000217,-0.009923,-0.149517,-0.232984,-0.048961,1,-0.029082, 0.000010,-0.017356,1,-0.118777,-0.067355, 9.805699,1,0
1778107670717,   722.197,   722.197,-0.002021,-0.010933,-0.978038,-0.000022,-0.000128,-0.009762,-0.138880,-0.186568, 0.214330,1,-0.057787, 0.000885,-0.009868,1,-0.119085,-0.081162, 9.805591,1,0
1778107670743,   722.222,   722.222,-0.000226, 0.014959,-1.000339,-0.000008, 0.000133,-0.009989,-0.121155, 0.054256,-0.004482,1,-0.074250,-0.000546,-0.000660,1,-0.118918,-0.094758, 9.805471,1,0
1778107670764,   722.247,   722.242, 0.003785, 0.007495,-1.011193, 0.000029, 0.000087,-0.010138,-0.093216, 0.066133,-0.150424,1,-0.078475, 0.003974,-0.002706,1,-0.119377,-0.109935, 9.805307,1,0
1778107670787,   722.267,   722.267, 0.005326,-0.006198,-0.988911, 0.000055,-0.000063,-0.009898,-0.067066,-0.192799, 0.107131,1,-0.085642,-0.003330,-0.003449,1,-0.119194,-0.134693, 9.805000,1,0
1778107670813,   722.292,   722.292, 0.016400, 0.002524,-0.990398, 0.000156, 0.000009,-0.009895, 0.042056,-0.124824, 0.092300,1,-0.093560,-0.001069,-0.003833,1,-0.118741,-0.152496, 9.804746,1,0
1778107670834,   722.317,   722.312, 0.027452, 0.014823,-0.992313, 0.000272, 0.000138,-0.009946, 0.138890,-0.025833, 0.003368,1,-0.101541, 0.002128,-0.005022,1,-0.119135,-0.171985, 9.804418,1,0
1778107670857,   722.337,   722.337, 0.025744, 0.011271,-0.984427, 0.000267, 0.000105,-0.009841, 0.132728,-0.088477, 0.149969,1,-0.109555, 0.005212,-0.006055,1,-0.119886,-0.202417, 9.803827,1,0
1778107670883,   722.362,   722.362, 0.027367, 0.018661,-0.994338, 0.000276, 0.000173,-0.009956, 0.147663,-0.037733, 0.052295,1,-0.111479, 0.004272,-0.002658,1,-0.120844,-0.224215, 9.803342,1,0
1778107670905,   722.387,   722.382, 0.031156, 0.034779,-1.007527, 0.000307, 0.000343,-0.010066, 0.136852, 0.059364,-0.009460,1,-0.109040, 0.001000,-0.001482,1,-0.121162,-0.245822, 9.802820,1,0
1778107670927,   722.407,   722.407, 0.047603, 0.037585,-1.013708, 0.000473, 0.000377,-0.010158, 0.346677, 0.097532,-0.138912,1,-0.085740,-0.009558,-0.009592,1,-0.119839,-0.273725, 9.802096,1,0
1778107670953,   722.432,   722.432, 0.056629, 0.028007,-0.984683, 0.000558, 0.000282,-0.009871, 0.437393,-0.011831, 0.145313,1,-0.074705,-0.009050,-0.012171,1,-0.117650,-0.288822, 9.801690,1,0
1778107670975,   722.457,   722.452, 0.050688, 0.031307,-0.971296, 0.000510, 0.000291,-0.009693, 0.412308,-0.062459, 0.310458,1,-0.071228, 0.002472,-0.009421,1,-0.117445,-0.302822, 9.801270,1,0
1778107670997,   722.482,   722.477, 0.042110, 0.042886,-1.006378, 0.000427, 0.000422,-0.010049, 0.294767, 0.100470,-0.068482,1,-0.059821, 0.001007,-0.007637,1,-0.118210,-0.321968, 9.800651,1,0
1778107671023,   722.502,   722.502, 0.044110, 0.039133,-1.019789, 0.000438, 0.000403,-0.010208, 0.314120, 0.053124,-0.200359,1,-0.048845, 0.001637,-0.008949,1,-0.118497,-0.332172, 9.800306,1,0
1778107671045,   722.527,   722.522, 0.048833, 0.031792,-0.976024, 0.000476, 0.000316,-0.009768, 0.320464,-0.004732, 0.096383,1,-0.045374, 0.000805,-0.004866,1,-0.118739,-0.341359, 9.799988,1,0
1778107671067,   722.552,   722.547, 0.055120, 0.031689,-0.973512, 0.000536, 0.000316,-0.009715, 0.420797,-0.042506, 0.252666,1,-0.045486, 0.003090,-0.007684,1,-0.119831,-0.354693, 9.799500,1,0
1778107671093,   722.572,   722.572, 0.054308, 0.036155,-0.999827, 0.000543, 0.000359,-0.009961, 0.412315,-0.008131,-0.005748,1,-0.050173, 0.003863,-0.005387,1,-0.120384,-0.364260, 9.799143,1,0
1778107671115,   722.597,   722.592, 0.055933, 0.037388,-1.003826, 0.000534, 0.000367,-0.010042, 0.424560,-0.017255,-0.070386,1,-0.049072, 0.004220,-0.007018,1,-0.121268,-0.373949, 9.798767,1,0
1778107671138,   722.622,   722.617, 0.051351, 0.033194,-0.993406, 0.000512, 0.000336,-0.009927, 0.382521,-0.060502, 0.056311,1,-0.041354,-0.005761,-0.010784,1,-0.120865,-0.387314, 9.798253,1,0
1778107671163,   722.642,   722.642, 0.055711, 0.028389,-0.991830, 0.000559, 0.000288,-0.009907, 0.426619,-0.115886, 0.071463,1,-0.040002,-0.007692,-0.008667,1,-0.119473,-0.395537, 9.797941,1,0
1778107671185,   722.667,   722.662, 0.053697, 0.041886,-1.000517, 0.000528, 0.000419,-0.010029, 0.439246,-0.026429,-0.086971,1,-0.039066,-0.005800,-0.008197,1,-0.118040,-0.403390, 9.797639,1,0
1778107671208,   722.692,   722.687, 0.056536, 0.039163,-0.982242, 0.000559, 0.000404,-0.009815, 0.436286,-0.030125, 0.164680,1,-0.043994, 0.004481,-0.009690,1,-0.118273,-0.415558, 9.797128,1,0
1778107671233,   722.712,   722.712, 0.041384, 0.034393,-0.981843, 0.000415, 0.000340,-0.009807, 0.287847,-0.085300, 0.168241,1,-0.040454,-0.001811,-0.010918,1,-0.117918,-0.423847, 9.796777,1,0
1778107671255,   722.737,   722.732, 0.043993, 0.046261,-1.016025, 0.000478, 0.000449,-0.010131, 0.314527,-0.032517,-0.040152,1,-0.035167, 0.010904,-0.016908,1,-0.119099,-0.429580, 9.796513,1,0
1778107671278,   722.762,   722.757, 0.033451, 0.051642,-0.995463, 0.000359, 0.000504,-0.009934, 0.207547, 0.068194, 0.033951,1,-0.029442,-0.000234,-0.017745,1,-0.120462,-0.439170, 9.796071,1,0
1778107671303,   722.782,   722.782, 0.035856, 0.045091,-0.999614, 0.000378, 0.000450,-0.009983, 0.231668,-0.000857,-0.006960,1,-0.019648,-0.005381,-0.024794,1,-0.119758,-0.443675, 9.795877,1,0
1778107671325,   722.807,   722.802, 0.036395, 0.037114,-1.019343, 0.000386, 0.000365,-0.010206, 0.255394,-0.103442,-0.077502,1,-0.011327,-0.001241,-0.023262,1,-0.119175,-0.446265, 9.795766,1,0
1778107671348,   722.832,   722.832, 0.037818, 0.053076,-0.998745, 0.000362, 0.000525,-0.010020, 0.252753, 0.070883, 0.001283,1,-0.008553,-0.000109,-0.015629,1,-0.118087,-0.449890, 9.795613,1,0
1778107671374,   722.852,   722.852, 0.046200, 0.052964,-0.959135, 0.000456, 0.000536,-0.009598, 0.334523, 0.068933, 0.389682,1, 0.000143, 0.003824,-0.023609,1,-0.118629,-0.450475, 9.795580,1,0
1778107671395,   722.877,   722.872, 0.048166, 0.040344,-0.999501, 0.000487, 0.000398,-0.009987, 0.324604,-0.025180, 0.196338,1, 0.005598,-0.004128,-0.027615,1,-0.117910,-0.449639, 9.795627,1,0
1778107671422,   722.902,   722.902, 0.047577, 0.045822,-1.014767, 0.000499, 0.000456,-0.010188, 0.348860, 0.001536,-0.155756,1, 0.007154,-0.000432,-0.025420,1,-0.117666,-0.447606, 9.795723,1,0
1778107671444,   722.927,   722.922, 0.050960, 0.041779,-0.982148, 0.000520, 0.000437,-0.009784, 0.341223, 0.026961, 0.233250,1, 0.018443,-0.012618,-0.026316,1,-0.116034,-0.444900, 9.795866,1,0
1778107671465,   722.947,   722.942, 0.052769, 0.039870,-1.036040, 0.000541, 0.000398,-0.010358, 0.369430,-0.046687,-0.158733,1, 0.024783,-0.017548,-0.026211,1,-0.112153,-0.440007, 9.796132,1,0
1778107671492,   722.972,   722.972, 0.041683, 0.050433,-1.000332, 0.000455, 0.000504,-0.010027, 0.298955, 0.061192,-0.013456,1, 0.029084,-0.005061,-0.016813,1,-0.109630,-0.432481, 9.796495,1,0
1778107671514,   722.997,   722.992, 0.058680, 0.044515,-0.983255, 0.000557, 0.000451,-0.009813, 0.401555, 0.064448, 0.262190,1, 0.027634, 0.006425,-0.019110,1,-0.110192,-0.427041, 9.796728,1,0
1778107671535,   723.017,   723.012, 0.056661, 0.047461,-0.996198, 0.000539, 0.000471,-0.009948, 0.486088, 0.014549,-0.020158,1, 0.039525, 0.015686,-0.025247,1,-0.112801,-0.420120, 9.796997,1,0
1778107671562,   723.042,   723.042, 0.051855, 0.048352,-0.985583, 0.000495, 0.000482,-0.009842, 0.392386, 0.066311, 0.132212,1, 0.053971, 0.007865,-0.024257,1,-0.116348,-0.406185, 9.797544,1,0
1778107671584,   723.067,   723.062, 0.048773, 0.032718,-1.010230, 0.000457, 0.000323,-0.010090, 0.375245,-0.085925,-0.010910,1, 0.068061,-0.007896,-0.029506,1,-0.115259,-0.393437, 9.798077,1,0
1778107671605,   723.087,   723.082, 0.060330, 0.038200,-1.013844, 0.000600, 0.000392,-0.010138, 0.385938,-0.041985,-0.117584,1, 0.074173,-0.005859,-0.028322,1,-0.113313,-0.379151, 9.798662,1,0
1778107671632,   723.112,   723.112, 0.065471, 0.044142,-0.973182, 0.000673, 0.000444,-0.009722, 0.527158, 0.071515, 0.255660,1, 0.069368, 0.008388,-0.021518,1,-0.115134,-0.359215, 9.799393,1,0
1778107671654,   723.137,   723.132, 0.065590, 0.037119,-1.012293, 0.000633, 0.000393,-0.010061, 0.488090, 0.045750, 0.114019,1, 0.080257, 0.010271,-0.034648,1,-0.116943,-0.344088, 9.799914,1,0
1778107671675,   723.157,   723.152, 0.055912, 0.015143,-0.998689, 0.000565, 0.000177,-0.010011, 0.426936,-0.101537, 0.016029,1, 0.083552, 0.006007,-0.033675,1,-0.118143,-0.327597, 9.800465,1,0
1778107671702,   723.182,   723.182, 0.051678, 0.016015,-1.002392, 0.000550, 0.000165,-0.010037, 0.390242,-0.148177,-0.028905,1, 0.090130,-0.009839,-0.029058,1,-0.116216,-0.302428, 9.801296,1,0
1778107671724,   723.207,   723.202, 0.067101, 0.033525,-0.979972, 0.000656, 0.000352,-0.009840, 0.488888, 0.027103, 0.022988,1, 0.081491, 0.004074,-0.027464,1,-0.115534,-0.285678, 9.801807,1,0
1778107671746,   723.227,   723.222, 0.070211, 0.017723,-0.979437, 0.000739, 0.000156,-0.009806, 0.581120,-0.010372, 0.142822,1, 0.068320, 0.019173,-0.022764,1,-0.119167,-0.271769, 9.802159,1,0
1778107671773,   723.252,   723.252, 0.060707, 0.018152,-0.983934, 0.000610, 0.000174,-0.009847, 0.470405,-0.075945, 0.153465,1, 0.067393, 0.023690,-0.031774,1,-0.125638,-0.251864, 9.802610,1,0
1778107671794,   723.277,   723.272, 0.055627, 0.018901,-1.017995, 0.000567, 0.000187,-0.010151, 0.395910,-0.089240, 0.000694,1, 0.067752,-0.002547,-0.021721,1,-0.127427,-0.238751, 9.802916,1,0
1778107671816,   723.297,   723.292, 0.051538, 0.020883,-1.015820, 0.000518, 0.000217,-0.010190, 0.384281, 0.004253,-0.220772,1, 0.069643,-0.007536,-0.022642,1,-0.125724,-0.225711, 9.803246,1,0
1778107671843,   723.322,   723.322, 0.058224, 0.017563,-0.994725, 0.000583, 0.000170,-0.009922, 0.444561,-0.035205, 0.048716,1, 0.059073, 0.004367,-0.022224,1,-0.126546,-0.205605, 9.803678,1,0
1778107671864,   723.347,   723.342, 0.051262,-0.004051,-1.003728, 0.000492,-0.000027,-0.010053, 0.326182,-0.077443,-0.160878,1, 0.059120, 0.003114,-0.029169,1,-0.126671,-0.193490, 9.803923,1,0
1778107671886,   723.367,   723.367, 0.055327, 0.005887,-0.981145, 0.000530, 0.000023,-0.009811, 0.415757,-0.119165, 0.182486,1, 0.062977,-0.009798,-0.030797,1,-0.126491,-0.174941, 9.804274,1,0
1778107671913,   723.392,   723.392, 0.055483, 0.023240,-0.962585, 0.000564, 0.000226,-0.009618, 0.419637, 0.063774, 0.364751,1, 0.066312,-0.007491,-0.028413,1,-0.124217,-0.162075, 9.804523,1,0
1778107671934,   723.417,   723.412, 0.067885, 0.015099,-1.000869, 0.000692, 0.000157,-0.010002, 0.505819, 0.074970, 0.256587,1, 0.062798, 0.004688,-0.028329,1,-0.124518,-0.155820, 9.804622,1,0
1778107671957,   723.437,   723.437, 0.065593,-0.006785,-0.975670, 0.000614,-0.000037,-0.009844, 0.514025,-0.201111, 0.236819,1, 0.065503, 0.025758,-0.039542,1,-0.130013,-0.132546, 9.804893,1,0
1778107671983,   723.462,   723.462, 0.058267,-0.007523,-0.998749, 0.000579,-0.000112,-0.010019, 0.439929,-0.196481, 0.010618,1, 0.053154,-0.001531,-0.033077,1,-0.131417,-0.121061, 9.805022,1,0
1778107672004,   723.487,   723.482, 0.058326, 0.011136,-1.028821, 0.000577, 0.000123,-0.010141, 0.185329, 0.013782, 0.225279,1, 0.053351, 0.002591,-0.025694,1,-0.129843,-0.110215, 9.805171,1,0
1778107672027,   723.507,   723.507, 0.044113, 0.009671,-1.035376, 0.000478, 0.000099,-0.010316, 0.299763,-0.003802,-0.348316,1, 0.045506, 0.001133,-0.028509,1,-0.132860,-0.097230, 9.805268,1,0
1778107672053,   723.532,   723.532, 0.044176,-0.001726,-0.998358, 0.000412,-0.000006,-0.009941, 0.298576,-0.105416, 0.014774,1, 0.047926, 0.009713,-0.031292,1,-0.134978,-0.086871, 9.805336,1,0
1778107672074,   723.557,   723.552, 0.030130, 0.013622,-0.939460, 0.000284, 0.000117,-0.009368, 0.201136,-0.004322, 0.518468,1, 0.050828,-0.025138,-0.022400,1,-0.131575,-0.077457, 9.805461,1,0
1778107672097,   723.577,   723.577, 0.075278, 0.000001,-1.028179, 0.000736,-0.000001,-0.010243, 0.608227,-0.063352,-0.277409,1, 0.039732, 0.007356,-0.027225,1,-0.130223,-0.062132, 9.805589,1,0
1778107672123,   723.602,   723.602, 0.055617,-0.006833,-1.038817, 0.000604,-0.000072,-0.010395, 0.413549,-0.124022,-0.381716,1, 0.033679, 0.013785,-0.018729,1,-0.132291,-0.055965, 9.805598,1,0
1778107672145,   723.627,   723.622, 0.057486, 0.019485,-0.908351, 0.000574, 0.000174,-0.009078, 0.480378, 0.025751, 0.483247,1, 0.028110,-0.005236,-0.017599,1,-0.134476,-0.049995, 9.805600,1,0
1778107672167,   723.647,   723.647, 0.064369,-0.004661,-1.011813, 0.000648,-0.000018,-0.010025, 0.498798,-0.089806,-0.116843,1, 0.016345, 0.001682,-0.013714,1,-0.132499,-0.043596, 9.805658,1,0
1778107672193,   723.672,   723.672, 0.036327,-0.015760,-1.095173, 0.000420,-0.000163,-0.010973, 0.223256,-0.197107,-0.934328,1,-0.000111, 0.000017, 0.004652,1,-0.132990,-0.042557, 9.805655,1,0
1778107672215,   723.697,   723.692, 0.031914, 0.015356,-0.952896, 0.000403, 0.000169,-0.009692, 0.274180, 0.060575,-0.469201,1,-0.008840, 0.007278, 0.002766,1,-0.134912,-0.044066, 9.805623,1,0
1778107672237,   723.722,   723.717, 0.043481,-0.005930,-0.878705, 0.000404,-0.000049,-0.008687, 0.298205,-0.102642, 1.188555,1,-0.005435,-0.025269,-0.005514,1,-0.127407,-0.044664, 9.805720,1,0
1778107672263,   723.742,   723.742, 0.060750,-0.014565,-1.041173, 0.000642,-0.000185,-0.010265, 0.470836,-0.187969,-0.404666,1,-0.019972,-0.015426, 0.004073,1,-0.124438,-0.045743, 9.805754,1,0
1778107672285,   723.767,   723.762, 0.060678, 0.019434,-1.005519, 0.000580, 0.000160,-0.010123, 0.433712, 0.119664,-0.567888,1,-0.024296, 0.021141, 0.013213,1,-0.126584,-0.050846, 9.805701,1,0
1778107672308,   723.792,   723.787, 0.040110, 0.012137,-0.886265, 0.000415, 0.000162,-0.008779, 0.267901, 0.065869, 1.114409,1,-0.003272,-0.031428, 0.003478,1,-0.124465,-0.053258, 9.805716,1,0
1778107672333,   723.812,   723.812, 0.057299,-0.014425,-1.051246, 0.000576,-0.000129,-0.010411, 0.440777,-0.197494,-0.503463,1,-0.022286,-0.010944, 0.002255,1,-0.120788,-0.056731, 9.805742,1,0
1778107672355,   723.837,   723.832, 0.041944, 0.016257,-1.013716, 0.000433, 0.000168,-0.010295, 0.295634, 0.000969,-1.107908,1,-0.029880, 0.037352, 0.016290,1,-0.124726,-0.062309, 9.805659,1,0
1778107672378,   723.862,   723.857, 0.031181, 0.023924,-0.865079, 0.000277, 0.000238,-0.008559, 0.175660, 0.168216, 1.322039,1,-0.004800,-0.013487, 0.007467,1,-0.129697,-0.066543, 9.805567,1,0
1778107672403,   723.882,   723.882, 0.041734,-0.000864,-1.003559, 0.000409, 0.000019,-0.009935, 0.284589,-0.075727,-0.035922,1,-0.006300,-0.025317,-0.000339,1,-0.123891,-0.067452, 9.805635,1,0
1778107672425,   723.907,   723.902, 0.034731,-0.007830,-1.099290, 0.000358,-0.000094,-0.011166, 0.111944,-0.200946,-1.414568,1,-0.010188, 0.007119, 0.006317,1,-0.121683,-0.069430, 9.805649,1,0
1778107672448,   723.932,   723.927, 0.029004, 0.004115,-0.890224, 0.000341, 0.000003,-0.008937, 0.152700,-0.032789, 1.075379,1,-0.019308, 0.016573, 0.008584,1,-0.132312,-0.073545, 9.805482,1,0
1778107672473,   723.952,   723.952, 0.039622, 0.013612,-0.961600, 0.000438, 0.000140,-0.009504, 0.256152, 0.056606, 0.375375,1,-0.024396,-0.008599, 0.001863,1,-0.132140,-0.077638, 9.805452,1,0
1778107672495,   723.977,   723.972, 0.046780,-0.001402,-0.994164, 0.000465, 0.000039,-0.010078, 0.299570,-0.029504,-0.588410,1,-0.025010, 0.013735, 0.006625,1,-0.133412,-0.081806, 9.805401,1,0
1778107672518,   724.002,   723.997, 0.029508, 0.006407,-0.928366, 0.000285, 0.000072,-0.009211, 0.150426,-0.022637, 0.701136,1,-0.003339, 0.004857, 0.000513,1,-0.139098,-0.085571, 9.805290,1,0
1778107672543,   724.022,   724.022, 0.029951, 0.010264,-1.051144, 0.000197, 0.000104,-0.010383, 0.155454, 0.013477,-0.502916,1,-0.016817, 0.000900, 0.001379,1,-0.138295,-0.087704, 9.805283,1,0
1778107672565,   724.047,   724.042, 0.026370, 0.002068,-1.013330, 0.000224,-0.000034,-0.010287, 0.204520,-0.157726,-1.118280,1,-0.004791, 0.020345,-0.003925,1,-0.141588,-0.089962, 9.805215,1,0
1778107672588,   724.072,   724.072, 0.024268, 0.002784,-0.883692, 0.000212, 0.000036,-0.008852, 0.090244,-0.063831, 1.139054,1,-0.003451, 0.002471,-0.013997,1,-0.147817,-0.091249, 9.805111,1,0
1778107672614,   724.092,   724.092, 0.022977, 0.005132,-1.027890, 0.000234, 0.000072,-0.010234, 0.079859,-0.042394,-0.275024,1,-0.001626,-0.009346,-0.013211,1,-0.145170,-0.092778, 9.805137,1,0
1778107672635,   724.117,   724.112, 0.047429,-0.002371,-0.962778, 0.000492, 0.000004,-0.009859, 0.276243,-0.089697,-0.858827,1, 0.003352, 0.037485,-0.023655,1,-0.149605,-0.092375, 9.805074,1,0
1778107672662,   724.142,   724.142, 0.017763,-0.000542,-0.881421, 0.000190,-0.000009,-0.008751, 0.017974,-0.093206, 1.161220,1, 0.009405,-0.006888,-0.025870,1,-0.156007,-0.087599, 9.805017,1,0
1778107672684,   724.167,   724.162, 0.041957,-0.005412,-1.130789, 0.000424,-0.000014,-0.011338, 0.101516,-0.040830,-0.708452,1, 0.010341,-0.017011,-0.028506,1,-0.151166,-0.085687, 9.805110,1,0
1778107672705,   724.187,   724.182, 0.051892,-0.002503,-0.959007, 0.000518,-0.000053,-0.009631, 0.337127,-0.112870,-0.653667,1, 0.014665, 0.027134,-0.034486,1,-0.153167,-0.083394, 9.805099,1,0
1778107672732,   724.212,   724.212, 0.044778, 0.000443,-0.873713, 0.000440,-0.000009,-0.008584, 0.283004,-0.077754, 1.236869,1,-0.007096,-0.024296,-0.030171,1,-0.155356,-0.082332, 9.805074,1,0
1778107672754,   724.237,   724.232, 0.058859, 0.000860,-1.129245, 0.000569, 0.000007,-0.011474, 0.484027,-0.064463,-1.031297,1,-0.013024,-0.007271,-0.026506,1,-0.152649,-0.083949, 9.805102,1,0
1778107672775,   724.257,   724.252, 0.038228, 0.009477,-1.026799, 0.000389, 0.000071,-0.010443, 0.519016, 0.056222,-0.582016,1,-0.009471, 0.028998,-0.017838,1,-0.158702,-0.086751, 9.804982,1,0
1778107672802,   724.282,   724.282, 0.017318, 0.016835,-0.965840, 0.000197, 0.000162,-0.009607, 0.013112, 0.072286, 0.333304,1,-0.022137,-0.040364,-0.007075,1,-0.155457,-0.093503, 9.804972,1,0
1778107672824,   724.307,   724.302, 0.064950, 0.004426,-1.009339, 0.000566, 0.000075,-0.010244, 0.191143,-0.044851,-0.780706,1,-0.018041,-0.002040,-0.005982,1,-0.152120,-0.096975, 9.804991,1,0
1778107672845,   724.327,   724.322, 0.049250, 0.015399,-0.906685, 0.000474, 0.000148,-0.009106, 0.463304,-0.070494, 0.266413,1,-0.020249, 0.006866,-0.001967,1,-0.156121,-0.100563, 9.804892,1,0
1778107672872,   724.352,   724.352, 0.038505, 0.019829,-0.975023, 0.000354, 0.000204,-0.009611, 0.229472, 0.088049, 0.243248,1,-0.028984,-0.036542, 0.009933,1,-0.146992,-0.107303, 9.804961,1,0
1778107672894,   724.377,   724.372, 0.069126, 0.009897,-1.040295, 0.000723, 0.000095,-0.010519, 0.537599, 0.007353,-0.558156,1,-0.016738, 0.016225, 0.005861,1,-0.146650,-0.111568, 9.804918,1,0
1778107672916,   724.397,   724.392, 0.032299, 0.008454,-0.947996, 0.000337, 0.000115,-0.009626, 0.363867, 0.058542,-0.084507,1,-0.020539,-0.004487,-0.000184,1,-0.148807,-0.113890, 9.804859,1,0
1778107672943,   724.422,   724.422, 0.033468, 0.010585,-0.986182, 0.000337, 0.000121,-0.009885, 0.187625,-0.013357, 0.133803,1,-0.011065,-0.019426, 0.011691,1,-0.139985,-0.117499, 9.804947,1,0
1778107672964,   724.447,   724.442, 0.061184, 0.012979,-0.991563, 0.000611, 0.000147,-0.009835, 0.506971,-0.022019, 0.157815,1, 0.012108, 0.006267,-0.004980,1,-0.141384,-0.116751, 9.804935,1,0
1778107672986,   724.467,   724.462, 0.040054, 0.013101,-1.021771, 0.000354, 0.000129,-0.010087, 0.316411,-0.019594, 0.191716,1, 0.011965,-0.027084,-0.012195,1,-0.137756,-0.113550, 9.805025,1,0
1778107673013,   724.492,   724.492, 0.073081, 0.009354,-0.999437, 0.000631, 0.000114,-0.009991, 0.580774,-0.019283, 0.003955,1, 0.019337, 0.017847, 0.000967,1,-0.136467,-0.110407, 9.805079,1,0
1778107673034,   724.517,   724.512, 0.039298, 0.008905,-0.958909, 0.000349, 0.000105,-0.009599, 0.398106,-0.029825, 0.440623,1, 0.043098,-0.006185,-0.020850,1,-0.138276,-0.103092, 9.805133,1,0
1778107673056,   724.537,   724.532, 0.040294, 0.011994,-1.011723, 0.000367, 0.000139,-0.010166, 0.308221, 0.078526,-0.154682,1, 0.016129,-0.007679,-0.004849,1,-0.135714,-0.097670, 9.805224,1,0
1778107673083,   724.562,   724.562, 0.045503,-0.004262,-1.020111, 0.000428,-0.000072,-0.010383, 0.304260,-0.132121,-0.198662,1, 0.040124, 0.015758,-0.010991,1,-0.142461,-0.089079, 9.805210,1,0
1778107673104,   724.587,   724.582,-0.004121, 0.024906,-1.054325,-0.000051, 0.000266,-0.010370,-0.209329, 0.117782,-0.113944,1, 0.039904,-0.054922,-0.011498,1,-0.134242,-0.080774, 9.805398,1,0
1778107673126,   724.607,   724.607, 0.059544,-0.018762,-1.077724, 0.000594,-0.000162,-0.010889, 0.450046,-0.253514,-0.763372,1, 0.055769, 0.032600,-0.019622,1,-0.134889,-0.067792, 9.805488,1,0
1778107673153,   724.632,   724.632, 0.027238,-0.008704,-0.918571, 0.000337,-0.000080,-0.009273, 0.130755,-0.142902, 0.797433,1, 0.058937,-0.013716,-0.024820,1,-0.135930,-0.055718, 9.805550,1,0
1778107673174,   724.657,   724.652, 0.076328,-0.009555,-0.997125, 0.000776,-0.000033,-0.009789, 0.261197, 0.002023, 1.070832,1, 0.026904, 0.015464,-0.010415,1,-0.135073,-0.049496, 9.805594,1,0
1778107673197,   724.677,   724.677, 0.039346,-0.003171,-1.032860, 0.000444, 0.000021,-0.010295, 0.242967,-0.067398,-0.323352,1, 0.060137, 0.011464,-0.030354,1,-0.143236,-0.034438, 9.805543,1,0
1778107673223,   724.702,   724.702, 0.011856, 0.016951,-1.016959, 0.000116, 0.000191,-0.010141,-0.027262, 0.139261,-0.167395,1, 0.037289,-0.000695,-0.018687,1,-0.143503,-0.025815, 9.805566,1,0
1778107673244,   724.727,   724.722, 0.037637,-0.009824,-0.995644, 0.000331,-0.000116,-0.009983, 0.104908,-0.184189,-0.393541,1, 0.069209, 0.020493,-0.023876,1,-0.148401,-0.013948, 9.805517,1,0
1778107673267,   724.747,   724.747, 0.021047,-0.001121,-0.952372, 0.000205, 0.000038,-0.009595, 0.055755,-0.003726, 0.465909,1, 0.072350,-0.008742,-0.031296,1,-0.150377, 0.009510, 9.805492,1,0
1778107673293,   724.772,   724.772, 0.066831,-0.029603,-1.020256, 0.000662,-0.000145,-0.010063, 0.501121,-0.270473,-0.199878,1, 0.068194, 0.027683,-0.031017,1,-0.155134, 0.021944, 9.805398,1,0
1778107673314,   724.797,   724.792, 0.024184,-0.005798,-1.006674, 0.000135,-0.000022,-0.010147, 0.157504,-0.161503,-0.352945,1, 0.074006, 0.009107,-0.041773,1,-0.160074, 0.035334, 9.805280,1,0
1778107673337,   724.817,   724.817, 0.044772, 0.004362,-0.931418, 0.000385, 0.000063,-0.009272, 0.277242, 0.095344, 0.671087,1, 0.083305, 0.021526,-0.030266,1,-0.162499, 0.055148, 9.805148,1,0
1778107673363,   724.842,   724.842, 0.058332,-0.020279,-0.951665, 0.000474,-0.000175,-0.009528, 0.405209,-0.130558, 0.472350,1, 0.071680, 0.021039,-0.040684,1,-0.167502, 0.070527, 9.804966,1,0
1778107673385,   724.867,   724.862, 0.007167,-0.011112,-1.054682, 0.000045,-0.000041,-0.010334,-0.116695,-0.047995, 0.067996,1, 0.084530,-0.023098,-0.047763,1,-0.165445, 0.088030, 9.804859,1,0
1778107673407,   724.887,   724.887, 0.017671,-0.025895,-1.113134, 0.000176,-0.000272,-0.011173, 0.007830,-0.145624,-1.111457,1, 0.066526, 0.002794,-0.033712,1,-0.165563, 0.110381, 9.804631,1,0
1778107673433,   724.912,   724.912, 0.001585,-0.003107,-0.908739, 0.000049,-0.000012,-0.009277,-0.149720, 0.093061, 0.892793,1, 0.091515,-0.020928,-0.046492,1,-0.164624, 0.126361, 9.804454,1,0
1778107673455,   724.937,   724.932, 0.046910,-0.060204,-1.025522, 0.000562,-0.000630,-0.010067, 0.241869,-0.145956, 0.811617,1, 0.078411, 0.004639,-0.043532,1,-0.164796, 0.143371, 9.804217,1,0
1778107673478,   724.962,   724.957, 0.012608,-0.010017,-1.000430, 0.000101,-0.000069,-0.010070,-0.041463, 0.061975,-0.006911,1, 0.068652,-0.007989,-0.039403,1,-0.164876, 0.162326, 9.803920,1,0
1778107673503,   724.982,   724.982, 0.011604,-0.035598,-0.995919, 0.000122,-0.000326,-0.009865,-0.050143,-0.175652, 0.037117,1, 0.050881,-0.008638,-0.040298,1,-0.163697, 0.175013, 9.803721,1,0
1778107673525,   725.007,   725.002,-0.005017,-0.028386,-0.998721, 0.000017,-0.000244,-0.010203,-0.096831,-0.211912,-0.770128,1, 0.038999,-0.009809,-0.038508,1,-0.161778, 0.186735, 9.803537,1,0
1778107673548,   725.032,   725.027, 0.017020,-0.030830,-0.907920, 0.000154,-0.000294,-0.008919, 0.007122,-0.098864, 0.899579,1, 0.066498,-0.022003,-0.046484,1,-0.159131, 0.205523, 9.803205,1,0
1778107673573,   725.052,   725.052, 0.034732,-0.034342,-1.039891, 0.000395,-0.000467,-0.010236, 0.182715,-0.121248,-0.394838,1, 0.055434, 0.000611,-0.047128,1,-0.157940, 0.217235, 9.802972,1,0
1778107673595,   725.077,   725.072, 0.017729,-0.020407,-0.944000, 0.000169,-0.000206,-0.009479, 0.053962, 0.174363,-0.057635,1, 0.055971,-0.003492,-0.047051,1,-0.158450, 0.227270, 9.802735,1,0
1778107673618,   725.102,   725.097, 0.036268,-0.050559,-1.045558, 0.000295,-0.000534,-0.010349, 0.198709,-0.253251,-0.451028,1, 0.045839, 0.007700,-0.047578,1,-0.157239, 0.243965, 9.802354,1,0
1778107673643,   725.122,   725.122, 0.023536,-0.032304,-0.982327, 0.000271,-0.000305,-0.010041, 0.070680,-0.066433, 0.168807,1, 0.038623, 0.018534,-0.046134,1,-0.160742, 0.251547, 9.802105,1,0
1778107673665,   725.147,   725.142, 0.014087,-0.043643,-0.981196, 0.000076,-0.000441,-0.009581,-0.075294,-0.208187, 1.198343,1, 0.044670,-0.015562,-0.039663,1,-0.162121, 0.261242, 9.801829,1,0
1778107673688,   725.172,   725.167, 0.023219,-0.032489,-1.144887, 0.000187,-0.000308,-0.011616, 0.069141,-0.050278,-1.425810,1, 0.026088, 0.014675,-0.051320,1,-0.159062, 0.269115, 9.801666,1,0
1778107673713,   725.192,   725.192, 0.031540,-0.060371,-0.962770, 0.000359,-0.000579,-0.009674, 0.145044,-0.318602, 0.359915,1, 0.019207, 0.017454,-0.040826,1,-0.164838, 0.274012, 9.801435,1,0
1778107673735,   725.217,   725.212, 0.018700,-0.019323,-0.944035, 0.000054,-0.000182,-0.009479, 0.068687,-0.120928, 0.585649,1,-0.004057,-0.033491,-0.035016,1,-0.162133, 0.275635, 9.801435,1,0
1778107673758,   725.242,   725.237, 0.045603,-0.051765,-0.984161, 0.000381,-0.000379,-0.009749, 0.287675,-0.230091, 0.150102,1, 0.016338, 0.003479,-0.054835,1,-0.159693, 0.278035, 9.801407,1,0
1778107673784,   725.262,   725.262, 0.043469,-0.061070,-1.053681, 0.000291,-0.000682,-0.010428, 0.265862,-0.321461,-0.531669,1,-0.016892, 0.010670,-0.032087,1,-0.160789, 0.276893, 9.801421,1,0
1778107673805,   725.287,   725.282, 0.030735,-0.014131,-0.892400, 0.000295,-0.000120,-0.008957, 0.357904, 0.163657, 0.132582,1,-0.031616, 0.030525,-0.039092,1,-0.165678, 0.269910, 9.801535,1,0
1778107673828,   725.312,   725.312,-0.003600,-0.049359,-1.021632,-0.000046,-0.000516,-0.010023,-0.201191,-0.218228,-0.217145,1,-0.038313,-0.017256,-0.028988,1,-0.165374, 0.264608, 9.801684,1,0
1778107673854,   725.332,   725.332, 0.023950,-0.020399,-1.075415, 0.000160,-0.000228,-0.010975, 0.068141, 0.056211,-0.744338,1,-0.041000, 0.018227,-0.038175,1,-0.167553, 0.255033, 9.801901,1,0
1778107673875,   725.357,   725.352, 0.007431,-0.052338,-0.941225, 0.000075,-0.000528,-0.009187,-0.133273,-0.298651, 0.830399,1,-0.033852,-0.009000,-0.035450,1,-0.168547, 0.249435, 9.802029,1,0
1778107673902,   725.382,   725.382, 0.030063,-0.020640,-1.025277, 0.000225,-0.000222,-0.010312, 0.133780, 0.033152,-0.252037,1,-0.052821,-0.005195,-0.038042,1,-0.160899, 0.233891, 9.802540,1,0
1778107673924,   725.407,   725.402, 0.040821,-0.038845,-0.960676, 0.000395,-0.000431,-0.009541, 0.305504,-0.225479, 0.463079,1,-0.035442, 0.012509,-0.040029,1,-0.164783, 0.227262, 9.802631,1,0
1778107673945,   725.427,   725.422, 0.019671, 0.009672,-1.064421, 0.000280, 0.000044,-0.010712, 0.038187, 0.094611,-0.026443,1,-0.065140,-0.019550,-0.020039,1,-0.162038, 0.215841, 9.802936,1,0
1778107673972,   725.452,   725.452, 0.006767,-0.030014,-1.014128, 0.000190,-0.000254,-0.010196,-0.098142,-0.091044,-0.142035,1,-0.023993,-0.012051,-0.030786,1,-0.164145, 0.202531, 9.803185,1,0
1778107673994,   725.477,   725.472, 0.009962,-0.004257,-1.038982, 0.000038,-0.000084,-0.010369,-0.620837, 0.042364,-0.433972,1,-0.054995,-0.068982,-0.014845,1,-0.153791, 0.192818, 9.803548,1,0
1778107674015,   725.497,   725.492, 0.035708,-0.033965,-0.952890, 0.000508,-0.000330,-0.009658, 0.132483, 0.026910, 0.102614,1,-0.030456, 0.006005,-0.033119,1,-0.151385, 0.185052, 9.803735,1,0
1778107674042,   725.522,   725.522,-0.001535,-0.010368,-0.948966, 0.000080,-0.000132,-0.009466,-0.158676, 0.072685, 0.497868,1,-0.053353,-0.059920,-0.009042,1,-0.141754, 0.172691, 9.804105,1,0
1778107674064,   725.547,   725.542, 0.046932,-0.015086,-1.032249, 0.000607,-0.000123,-0.010365, 0.279580, 0.209158,-0.111099,1,-0.052996, 0.015009,-0.015067,1,-0.140469, 0.162039, 9.804305,1,0
1778107674085,   725.567,   725.562,-0.011429, 0.001241,-0.977736, 0.000106, 0.000008,-0.009846,-0.083788, 0.048186, 0.242895,1,-0.043687,-0.000560, 0.008916,1,-0.141691, 0.155046, 9.804400,1,0
1778107674112,   725.592,   725.592,-0.014395, 0.028160,-1.000916, 0.000017, 0.000188,-0.010118,-0.274811, 0.419675,-0.010940,1,-0.035924, 0.002655, 0.012452,1,-0.133719, 0.142407, 9.804704,1,0
1778107674134,   725.617,   725.612,-0.014278, 0.004375,-0.960725, 0.000014, 0.000080,-0.009581,-0.408112,-0.046677, 0.278850,1,-0.035364,-0.023599, 0.018403,1,-0.132191, 0.139299, 9.804770,1,0
1778107674156,   725.637,   725.632, 0.009283,-0.006341,-1.006317, 0.000148,-0.000020,-0.010145,-0.577980, 0.215428,-0.315860,1, 0.002676,-0.056150, 0.006593,1,-0.122370, 0.138775, 9.804904,1,0
1778107674183,   725.662,   725.662, 0.026264,-0.046742,-0.966037, 0.000400,-0.000445,-0.009693, 0.137785,-0.314391, 0.331270,1, 0.036596,-0.029849,-0.000545,1,-0.118849, 0.145132, 9.804855,1,0
1778107674204,   725.687,   725.682, 0.018605,-0.005132,-1.103426, 0.000107, 0.000034,-0.010907,-0.342138, 0.215969,-0.207208,1, 0.046562,-0.042481,-0.007884,1,-0.109831, 0.151476, 9.804865,1,0
1778107674226,   725.707,   725.702, 0.039297,-0.040881,-0.999893, 0.000575,-0.000464,-0.010130, 0.372693, 0.180796,-0.871192,1, 0.078830, 0.049111,-0.024831,1,-0.114375, 0.164335, 9.804605,1,0
1778107674253,   725.732,   725.732,-0.042199,-0.009633,-0.860045,-0.000373,-0.000051,-0.008449,-0.526391, 0.092636, 1.370053,1, 0.098917,-0.053525,-0.025245,1,-0.110959, 0.190050, 9.804180,1,0
1778107674274,   725.757,   725.752, 0.045578,-0.042291,-1.046232, 0.000472,-0.000484,-0.010479, 0.065888, 0.123984, 0.122782,1, 0.126122, 0.009888,-0.048927,1,-0.108483, 0.211804, 9.803762,1,0
1778107674296,   725.777,   725.772,-0.006747,-0.027378,-1.051594,-0.000128,-0.000313,-0.010668, 0.026499,-0.276904,-0.575499,1, 0.133150,-0.002685,-0.051725,1,-0.108700, 0.240561, 9.803097,1,0
1778107674323,   725.802,   725.802, 0.009313,-0.044766,-1.043076,-0.000027,-0.000363,-0.010382,-0.013107,-0.165435,-0.426806,1, 0.151373,-0.004553,-0.071658,1,-0.104352, 0.278272, 9.802146,1,0
1778107674344,   725.827,   725.822,-0.018558,-0.030826,-0.948720,-0.000108,-0.000487,-0.009594, 0.130235,-0.193710, 0.436010,1, 0.147557,-0.019125,-0.066004,1,-0.103929, 0.305202, 9.801349,1,0
1778107674366,   725.847,   725.847, 0.013398,-0.023557,-0.996205, 0.000065,-0.000220,-0.009709, 0.033750, 0.105909, 0.030943,1, 0.148636, 0.003255,-0.069490,1,-0.097816, 0.341539, 9.800213,1,0
1778107674393,   725.872,   725.872, 0.050522,-0.052163,-1.055485, 0.000531,-0.000553,-0.010699, 0.394295,-0.149175,-0.551342,1, 0.106372, 0.010078,-0.053392,1,-0.101537, 0.365673, 9.799304,1,0
1778107674414,   725.897,   725.892,-0.010124,-0.027367,-0.902163,-0.000142,-0.000226,-0.008897,-0.262419, 0.267940, 1.108112,1, 0.110111,-0.027587,-0.034658,1,-0.097734, 0.385400, 9.798587,1,0
1778107674437,   725.917,   725.917, 0.032860,-0.085056,-1.078037, 0.000289,-0.000788,-0.010629, 0.227758,-0.418969,-0.774532,1, 0.102371,-0.002476,-0.038951,1,-0.094466, 0.418322, 9.797268,1,0
1778107674463,   725.942,   725.942,-0.010500,-0.029877,-1.029950,-0.000085,-0.000264,-0.010493,-0.195164, 0.136597,-0.303561,1, 0.056257,-0.012037,-0.010648,1,-0.091824, 0.431352, 9.796728,1,0
1778107674484,   725.967,   725.962, 0.020549,-0.079276,-0.933210, 0.000194,-0.000771,-0.009367, 0.000883,-0.131173, 0.231912,1, 0.066604,-0.004641,-0.014959,1,-0.090089, 0.444837, 9.796142,1,0
1778107674507,   725.987,   725.987,-0.022944, 0.001705,-0.948348,-0.000230,-0.000089,-0.009726,-0.311928, 0.471270, 0.495612,1, 0.004143,-0.024072, 0.016980,1,-0.086146, 0.454682, 9.795725,1,0
1778107674533,   726.012,   726.012, 0.016673,-0.048983,-1.086926, 0.000105,-0.000424,-0.010630, 0.081227,-0.018756,-0.863675,1, 0.041189,-0.015090, 0.000973,1,-0.081812, 0.462888, 9.795378,1,0
1778107674555,   726.037,   726.032,-0.005784,-0.014748,-1.007393,-0.000029,-0.000202,-0.010355, 0.077667, 0.010222,-0.959568,1,-0.014426,-0.000928, 0.041919,1,-0.082088, 0.465725, 9.795241,1,0
1778107674577,   726.057,   726.057, 0.005410,-0.056972,-0.929502, 0.000021,-0.000466,-0.009143,-0.022626,-0.096899, 0.680176,1, 0.013326,-0.027304, 0.036985,1,-0.074772, 0.462227, 9.795465,1,0
1778107674603,   726.082,   726.082, 0.030681,-0.068370,-1.034607, 0.000385,-0.000810,-0.010269, 0.227470,-0.209794,-0.350486,1,-0.044176,-0.005410, 0.052738,1,-0.073160, 0.459321, 9.795614,1,0
1778107674625,   726.107,   726.102, 0.016198,-0.043471,-0.954771, 0.000133,-0.000367,-0.009552, 0.001093, 0.432286, 0.554595,1,-0.046962,-0.018421, 0.078821,1,-0.070466, 0.448329, 9.796144,1,0
1778107674647,   726.127,   726.127, 0.041737,-0.048240,-1.066606, 0.000334,-0.000595,-0.010543, 0.340459,-0.034594,-0.663235,1,-0.053562, 0.007395, 0.066252,1,-0.069018, 0.436663, 9.796680,1,0
1778107674673,   726.152,   726.152, 0.004713, 0.012293,-0.971927, 0.000072, 0.000137,-0.009762,-0.022691, 0.545713, 0.265837,1,-0.066368, 0.000383, 0.085335,1,-0.068808, 0.423107, 9.797276,1,0
1778107674695,   726.177,   726.172, 0.025783,-0.076938,-1.067249, 0.000150,-0.000796,-0.010554,-0.076655,-0.371855, 0.017655,1,-0.029032,-0.002670, 0.065134,1,-0.066677, 0.416358, 9.797581,1,0
1778107674718,   726.202,   726.197, 0.012132,-0.002713,-0.933109, 0.000148,-0.000007,-0.009462, 0.050161, 0.373564, 0.647568,1,-0.068632, 0.013210, 0.085639,1,-0.069117, 0.398050, 9.798325,1,0
1778107674743,   726.222,   726.222, 0.009093,-0.017464,-0.886635, 0.000047,-0.000109,-0.008814, 0.003941,-0.212051, 1.179881,1,-0.039031,-0.013903, 0.068326,1,-0.065965, 0.389230, 9.798700,1,0
1778107674765,   726.247,   726.242, 0.007537, 0.008365,-1.057281, 0.000091, 0.000037,-0.010655,-0.166598, 0.201434,-0.445295,1,-0.052894,-0.033870, 0.061613,1,-0.059852, 0.379889, 9.799107,1,0
1778107674788,   726.272,   726.267, 0.031923,-0.065693,-1.080508, 0.000328,-0.000651,-0.010929, 0.249928,-0.277252,-0.796588,1,-0.042847, 0.036022, 0.066839,1,-0.064175, 0.365657, 9.799621,1,0
1778107674813,   726.292,   726.292, 0.018193,-0.020070,-1.007264, 0.000263,-0.000250,-0.010231, 0.110046, 0.162898,-0.078072,1,-0.048141, 0.018281, 0.068764,1,-0.068857, 0.358230, 9.799863,1,0
1778107674835,   726.317,   726.312, 0.016439,-0.047083,-0.903245, 0.000142,-0.000369,-0.008931, 0.138167, 0.286984, 1.652153,1,-0.040623, 0.012990, 0.081311,1,-0.072556, 0.348965, 9.800171,1,0
1778107674858,   726.342,   726.337, 0.016981,-0.023733,-1.121963, 0.000145,-0.000242,-0.011128, 0.091496, 0.106163,-1.202195,1,-0.042041, 0.029681, 0.068125,1,-0.075893, 0.337601, 9.800544,1,0
1778107674883,   726.362,   726.362, 0.020366,-0.009229,-0.984459, 0.000168,-0.000053,-0.009925, 0.117290, 0.239320, 0.146511,1,-0.048947, 0.040143, 0.088044,1,-0.083590, 0.328325, 9.800796,1,0
1778107674905,   726.387,   726.382, 0.021704,-0.018128,-1.032892, 0.000196,-0.000211,-0.010291,-0.122720,-0.138500, 0.496817,1,-0.026298, 0.009602, 0.082516,1,-0.085812, 0.322810, 9.800960,1,0
1778107674928,   726.412,   726.407, 0.016343, 0.001825,-0.981176, 0.000165, 0.000047,-0.009812, 0.069761, 0.331699, 0.179157,1,-0.026643, 0.026987, 0.084304,1,-0.091263, 0.312991, 9.801229,1,0
1778107674954,   726.432,   726.432, 0.003722,-0.046686,-1.029233, 0.000035,-0.000511,-0.010221,-0.055498,-0.147752,-0.292014,1,-0.025134, 0.001404, 0.084486,1,-0.091958, 0.309320, 9.801339,1,0
1778107674975,   726.457,   726.452, 0.019951, 0.003563,-0.901335, 0.000220, 0.000045,-0.009090,-0.119498, 0.309690,-0.091185,1,-0.009143, 0.021984, 0.075321,1,-0.093376, 0.306700, 9.801408,1,0
1778107674998,   726.482,   726.477, 0.015211,-0.044318,-0.922341, 0.000240,-0.000480,-0.008946, 0.052305,-0.128740, 0.756326,1, 0.004330,-0.017555, 0.076178,1,-0.096243, 0.306031, 9.801401,1,0
1778107675024,   726.502,   726.502,-0.002977,-0.009654,-1.146406, 0.000030,-0.000167,-0.011492,-0.122627, 0.210906,-1.440957,1,-0.004762,-0.005346, 0.054944,1,-0.093209, 0.305452, 9.801449,1,0
1778107675045,   726.527,   726.522,-0.015461,-0.061084,-0.944526,-0.000168,-0.000615,-0.009524,-0.158182,-0.132361,-0.608987,1,-0.005959, 0.001174, 0.073519,1,-0.095762, 0.305797, 9.801414,1,0
1778107675068,   726.552,   726.552, 0.008990,-0.023726,-0.910090,-0.000030,-0.000252,-0.009141,-0.003436, 0.072094, 0.876550,1, 0.006299,-0.005150, 0.039691,1,-0.091401, 0.304972, 9.801480,1,0
1778107675094,   726.572,   726.572, 0.031088,-0.057573,-0.946806, 0.000295,-0.000505,-0.009405, 0.213899,-0.258530, 0.516458,1,-0.010532,-0.005652, 0.052107,1,-0.090739, 0.305757, 9.801462,1,0
1778107675115,   726.597,   726.592, 0.039772,-0.009908,-1.125248, 0.000199,-0.000095,-0.011245, 0.039437,-0.013592,-1.042131,1,-0.019719,-0.030752, 0.057690,1,-0.083888, 0.301442, 9.801657,1,0
1778107675142,   726.622,   726.622, 0.044879,-0.036684,-0.930386, 0.000498,-0.000269,-0.009450, 0.349024,-0.061341, 0.677717,1,-0.015607, 0.020708, 0.066302,1,-0.091670, 0.297940, 9.801694,1,0
1778107675164,   726.647,   726.642,-0.003961, 0.000805,-0.965398,-0.000104,-0.000002,-0.009542,-0.262931, 0.269615, 1.206480,1,-0.020980,-0.058538, 0.073412,1,-0.082744, 0.293044, 9.801922,1,0
1778107675185,   726.667,   726.662, 0.062088,-0.049610,-1.101075, 0.000696,-0.000463,-0.011100, 0.278162, 0.283725,-0.792171,1,-0.005791, 0.016723, 0.046233,1,-0.078479, 0.290895, 9.802020,1,0
1778107675212,   726.692,   726.692, 0.022934,-0.015218,-0.995487, 0.000286,-0.000151,-0.009945, 0.145110, 0.133297, 0.039857,1,-0.053710,-0.026045, 0.098233,1,-0.078898, 0.280886, 9.802309,1,0
1778107675234,   726.717,   726.712, 0.041055,-0.031252,-0.990009, 0.000511,-0.000181,-0.009841, 0.357754, 0.278556, 0.796841,1,-0.036910, 0.015262, 0.070830,1,-0.078777, 0.273876, 9.802508,1,0
1778107675255,   726.737,   726.732,-0.001805, 0.000854,-1.065872, 0.000045, 0.000009,-0.010669, 0.031409,-0.041624,-0.288919,1,-0.073559,-0.013146, 0.112686,1,-0.078273, 0.264227, 9.802777,1,0
1778107675282,   726.762,   726.762, 0.035402,-0.000626,-1.034733, 0.000350, 0.000046,-0.010312, 0.273321, 0.243792,-0.344077,1,-0.036196, 0.005431, 0.096470,1,-0.073947, 0.248820, 9.803214,1,0
1778107675304,   726.787,   726.782,-0.012948, 0.006925,-0.948249,-0.000150, 0.000075,-0.009492, 0.112763, 0.127426, 0.764662,1,-0.071824,-0.042464, 0.135917,1,-0.070793, 0.237895, 9.803509,1,0
1778107675326,   726.807,   726.802, 0.081197,-0.018884,-1.109037, 0.000687,-0.000140,-0.011066, 0.274203, 0.466612,-0.498034,1,-0.021258, 0.010755, 0.106467,1,-0.065202, 0.229874, 9.803739,1,0
1778107675353,   726.832,   726.832, 0.040066, 0.006033,-0.963311, 0.000372,-0.000059,-0.009602, 0.315627, 0.283689, 0.356918,1,-0.040994, 0.004824, 0.145027,1,-0.077332, 0.223282, 9.803802,1,0
1778107675374,   726.857,   726.852, 0.031492, 0.007735,-0.980830, 0.000336,-0.000064,-0.009693,-0.236925, 0.661959, 1.085758,1, 0.009936,-0.001495, 0.109978,1,-0.073396, 0.221494, 9.803874,1,0
1778107675396,   726.877,   726.872, 0.000564,-0.025939,-1.128030, 0.000173,-0.000457,-0.011289, 0.273337,-0.074219,-0.488226,1, 0.056397, 0.021214, 0.100637,1,-0.080049, 0.229894, 9.803628,1,0
1778107675423,   726.902,   726.902,-0.019777, 0.018851,-1.024535,-0.000072, 0.000232,-0.010164,-0.272656, 0.422411,-0.243798,1, 0.089620, 0.013157, 0.087223,1,-0.079057, 0.240368, 9.803385,1,0
1778107675444,   726.927,   726.922, 0.015740,-0.011811,-0.924861, 0.000311,-0.000307,-0.009317, 0.484507,-0.016055, 0.497699,1, 0.086358, 0.024124, 0.078860,1,-0.086659, 0.257677, 9.802881,1,0
1778107675466,   726.947,   726.942, 0.023746,-0.012974,-0.978226, 0.000175,-0.000084,-0.009495,-0.088938, 0.232113, 1.202172,1, 0.078854,-0.015075, 0.078390,1,-0.082299, 0.269702, 9.802595,1,0
1778107675493,   726.972,   726.972, 0.068296,-0.049853,-1.097209, 0.000642,-0.000559,-0.010927, 0.582404,-0.190570,-0.958227,1, 0.088457, 0.018154, 0.061505,1,-0.087858, 0.301096, 9.801633,1,0
1778107675514,   726.997,   726.992, 0.020867,-0.018762,-0.953485, 0.000122,-0.000072,-0.009313,-0.111313, 0.235636, 0.555965,1, 0.086231, 0.005202, 0.067985,1,-0.086469, 0.315778, 9.801183,1,0
1778107675536,   727.017,   727.012, 0.065802,-0.051726,-0.976287, 0.000671,-0.000502,-0.009675, 0.437820,-0.294901, 0.399938,1, 0.110223, 0.050116, 0.035323,1,-0.094117, 0.339255, 9.800328,1,0
1778107675563,   727.042,   727.042, 0.009058,-0.015077,-0.929599, 0.000049,-0.000084,-0.009232,-0.007780, 0.213781, 0.683248,1, 0.094816, 0.004889, 0.052463,1,-0.096702, 0.364608, 9.799393,1,0
1778107675584,   727.067,   727.062, 0.022940,-0.040138,-1.060151, 0.000397,-0.000496,-0.010711, 0.366799,-0.292427,-0.830404,1, 0.090627, 0.036419, 0.044892,1,-0.101419, 0.386625, 9.798501,1,0
1778107675606,   727.087,   727.087,-0.013338,-0.031738,-0.888885,-0.000141,-0.000247,-0.008748,-0.227699, 0.093501, 1.080831,1, 0.100538,-0.015195, 0.044604,1,-0.096367, 0.407890, 9.797689,1,0
1778107675633,   727.112,   727.112, 0.046363,-0.077541,-1.045242, 0.000487,-0.000819,-0.010440, 0.358832,-0.337227,-0.453280,1, 0.059793, 0.005251, 0.044767,1,-0.095936, 0.425072, 9.796964,1,0
1778107675654,   727.137,   727.132, 0.012500,-0.031386,-0.978218, 0.000116,-0.000283,-0.009681,-0.033149, 0.415874, 0.929754,1, 0.049236,-0.014266, 0.071052,1,-0.090771, 0.433352, 9.796650,1,0
1778107675677,   727.157,   727.157, 0.053593,-0.043510,-1.051919, 0.000596,-0.000504,-0.010393, 0.435563, 0.024345,-0.519940,1, 0.037285,-0.004630, 0.060108,1,-0.089779, 0.452215, 9.795807,1,0
1778107675703,   727.182,   727.182,-0.000619, 0.000921,-0.919191,-0.000034,-0.000000,-0.009087,-0.091246, 0.465570, 0.781464,1, 0.046173,-0.020265, 0.075343,1,-0.084432, 0.457997, 9.795586,1,0
1778107675725,   727.207,   727.202, 0.028459,-0.027544,-1.056278, 0.000373,-0.000321,-0.010642, 0.329584,-0.182073,-0.411353,1, 0.051578, 0.004249, 0.060706,1,-0.082445, 0.471340, 9.794970,1,0
1778107675747,   727.227,   727.227, 0.003714,-0.026477,-0.938695, 0.000075,-0.000150,-0.009226,-0.042303, 0.219438, 0.589174,1, 0.063419,-0.013227, 0.085845,1,-0.078179, 0.481090, 9.794530,1,0
1778107675773,   727.252,   727.252, 0.046530,-0.035744,-1.100316, 0.000460,-0.000428,-0.010957, 0.377546, 0.139617,-0.996336,1, 0.031672, 0.008570, 0.081028,1,-0.078897, 0.491149, 9.794025,1,0
1778107675795,   727.277,   727.272, 0.007668,-0.053213,-0.907842, 0.000052,-0.000451,-0.009024, 0.051441, 0.414515, 0.757653,1, 0.022660, 0.012537, 0.113159,1,-0.080574, 0.494449, 9.793845,1,0
1778107675817,   727.297,   727.297, 0.000484,-0.022078,-1.020062, 0.000179,-0.000277,-0.010103,-0.071587, 0.287527,-0.210004,1, 0.018116,-0.039216, 0.107146,1,-0.074942, 0.504626, 9.793371,1,0
1778107675843,   727.322,   727.322, 0.009822,-0.036185,-1.073776, 0.000116,-0.000287,-0.010662, 0.021374, 0.150063,-0.736787,1, 0.004958, 0.022242, 0.121266,1,-0.075449, 0.505104, 9.793343,1,0
1778107675865,   727.347,   727.342,-0.000136,-0.012638,-1.000502, 0.000205,-0.000152,-0.010369, 0.244190,-0.175669,-0.570457,1,-0.000765, 0.042348, 0.119286,1,-0.084295, 0.506627, 9.793192,1,0
1778107675887,   727.367,   727.367,-0.014456,-0.041831,-0.876773,-0.000017,-0.000345,-0.008739,-0.230935, 0.090919, 1.195229,1, 0.006406, 0.005310, 0.133252,1,-0.089121, 0.501377, 9.793419,1,0
1778107675913,   727.392,   727.392,-0.003200,-0.030431,-1.139557, 0.000101,-0.000405,-0.011212,-0.120597, 0.200695,-1.381703,1,-0.042015,-0.004489, 0.131173,1,-0.088866, 0.497846, 9.793602,1,0
1778107675935,   727.417,   727.412,-0.007834,-0.080501,-1.026906,-0.000117,-0.000784,-0.010401,-0.108484, 0.287281,-0.427626,1,-0.003833, 0.014993, 0.143454,1,-0.092259, 0.493290, 9.793801,1,0
1778107675958,   727.442,   727.437,-0.004449,-0.003782,-0.952023, 0.000097,-0.000108,-0.009761,-0.138483, 0.451772, 0.457844,1,-0.020748, 0.005465, 0.136897,1,-0.094808, 0.488259, 9.794028,1,0
1778107675983,   727.462,   727.462, 0.004599,-0.053258,-0.940773, 0.000117,-0.000478,-0.009306,-0.050732,-0.034596, 0.568218,1,-0.001192,-0.002142, 0.134600,1,-0.095555, 0.487691, 9.794050,1,0
1778107676005,   727.487,   727.482, 0.021579, 0.002409,-1.041596, 0.000148, 0.000022,-0.010649, 0.249645, 0.135557,-1.231577,1,-0.024503, 0.011217, 0.119928,1,-0.097040, 0.484474, 9.794195,1,0
1778107676028,   727.512,   727.507, 0.012836,-0.077161,-0.906749, 0.000085,-0.000720,-0.009164, 0.021006,-0.273948, 0.902034,1, 0.006034, 0.033681, 0.125776,1,-0.105732, 0.482971, 9.794179,1,0
1778107676053,   727.532,   727.532,-0.014341,-0.028326,-1.032453,-0.000118,-0.000365,-0.010648,-0.246408, 0.201834,-0.330568,1,-0.021884, 0.007594, 0.112515,1,-0.105905, 0.478866, 9.794379,1,0
1778107676075,   727.557,   727.552,-0.004906,-0.091126,-1.015020,-0.000055,-0.000882,-0.010256,-0.236137,-0.124986,-0.590533,1, 0.012100, 0.010623, 0.114324,1,-0.107396, 0.481308, 9.794243,1,0
1778107676098,   727.582,   727.577,-0.005479,-0.011514,-0.965190,-0.000004,-0.000231,-0.009798,-0.159541, 0.364816, 0.329153,1,-0.001538, 0.018768, 0.097613,1,-0.106245, 0.477718, 9.794431,1,0
1778107676123,   727.602,   727.602, 0.005683,-0.081876,-0.912344, 0.000117,-0.000857,-0.009146,-0.052078,-0.324937, 0.847367,1,-0.023924, 0.000636, 0.107187,1,-0.107665, 0.477281, 9.794437,1,0
1778107676145,   727.627,   727.622, 0.016097,-0.008558,-1.003839, 0.000217,-0.000117,-0.009986,-0.072530, 0.260770,-0.194298,1,-0.026224,-0.011040, 0.099333,1,-0.103347, 0.470673, 9.794804,1,0
1778107676168,   727.652,   727.647, 0.005534,-0.065287,-1.003653, 0.000091,-0.000773,-0.010126,-0.054781,-0.176576,-0.047401,1,-0.065133, 0.013811, 0.124282,1,-0.109303, 0.461684, 9.795166,1,0
1778107676194,   727.672,   727.672,-0.016372,-0.011012,-0.974067,-0.000285,-0.000137,-0.009800,-0.267571, 0.344294, 0.243296,1,-0.043227, 0.014765, 0.101236,1,-0.107327, 0.450976, 9.795687,1,0
1778107676215,   727.697,   727.692, 0.011039,-0.062443,-0.967033, 0.000168,-0.000710,-0.009603, 0.134680,-0.204321, 0.336940,1,-0.043062, 0.024916, 0.109977,1,-0.111995, 0.444890, 9.795913,1,0
1778107676238,   727.722,   727.717, 0.001519, 0.004892,-0.975641,-0.000013,-0.000026,-0.009685,-0.092973, 0.477782, 0.228860,1,-0.036338, 0.013050, 0.097080,1,-0.108138, 0.428711, 9.796678,1,0
1778107676264,   727.742,   727.742, 0.014587,-0.054860,-1.021156, 0.000119,-0.000587,-0.010234, 0.035278,-0.115108,-0.217184,1,-0.055218,-0.003440, 0.114863,1,-0.107493, 0.421184, 9.797011,1,0
1778107676285,   727.767,   727.762, 0.022639,-0.010106,-1.008015, 0.000207,-0.000037,-0.009948,-0.231093, 0.394638,-0.145212,1,-0.024099, 0.004696, 0.100366,1,-0.102659, 0.411961, 9.797456,1,0
1778107676308,   727.792,   727.792, 0.023728,-0.036767,-0.880852, 0.000265,-0.000499,-0.008723, 0.125518, 0.046403, 1.159410,1,-0.045805,-0.021307, 0.123897,1,-0.106345, 0.405582, 9.797683,1,0
1778107676334,   727.812,   727.812, 0.010836, 0.006300,-1.043476,-0.000087, 0.000067,-0.010156, 0.004772, 0.463569,-0.435118,1,-0.009129, 0.025409, 0.093857,1,-0.102161, 0.401533, 9.797894,1,0
1778107676355,   727.837,   727.832, 0.004548,-0.017500,-0.988378, 0.000093,-0.000345,-0.009799, 0.371578,-0.128662,-0.364363,1,-0.020710, 0.043335, 0.122812,1,-0.111256, 0.400035, 9.797855,1,0
1778107676382,   727.862,   727.862, 0.002424,-0.008501,-0.911682,-0.000024,-0.000000,-0.008769,-0.088614, 0.310785, 0.857532,1, 0.012029, 0.032826, 0.100751,1,-0.113281, 0.394564, 9.798055,1,0
1778107676404,   727.887,   727.882,-0.018391,-0.002113,-1.079447,-0.000221,-0.000172,-0.010783, 0.057968,-0.030432,-0.227395,1,-0.015004,-0.007709, 0.129137,1,-0.116646, 0.393905, 9.798041,1,0
1778107676425,   727.907,   727.902, 0.017744,-0.018786,-1.099954, 0.000120,-0.000128,-0.011054,-0.372210, 0.389638,-0.257740,1, 0.023387, 0.024683, 0.106343,1,-0.115942, 0.390622, 9.798182,1,0
1778107676452,   727.932,   727.932, 0.014895,-0.030398,-0.960326, 0.000235,-0.000294,-0.009613, 0.023817, 0.097576, 0.380323,1,-0.011964,-0.015797, 0.132172,1,-0.121333, 0.395263, 9.797930,1,0
1778107676474,   727.957,   727.952, 0.031608,-0.053292,-1.051683, 0.000291,-0.000432,-0.010467,-0.070530, 0.321932, 0.666512,1, 0.071712, 0.029819, 0.085182,1,-0.120344, 0.402747, 9.797637,1,0
1778107676495,   727.977,   727.972,-0.013387,-0.011281,-0.998393, 0.000007,-0.000169,-0.010044, 0.363512,-0.169789,-0.021300,1, 0.029252, 0.020797, 0.110527,1,-0.126660, 0.413433, 9.797112,1,0
1778107676522,   728.002,   728.002, 0.007776,-0.024396,-1.035070,-0.000061,-0.000120,-0.010015,-0.044865, 0.184472,-0.353830,1, 0.092353, 0.022067, 0.070308,1,-0.121711, 0.426627, 9.796610,1,0
1778107676544,   728.027,   728.022,-0.021961,-0.026470,-1.031979,-0.000136,-0.000271,-0.010690, 0.199274,-0.301196,-0.620162,1, 0.030825, 0.001622, 0.108367,1,-0.127547, 0.439122, 9.795983,1,0
1778107676566,   728.047,   728.042,-0.027591,-0.073010,-1.104242,-0.000156,-0.000599,-0.010887,-0.546283, 0.452094, 0.646523,1, 0.079062,-0.009389, 0.088739,1,-0.123452, 0.446615, 9.795697,1,0
1778107676593,   728.072,   728.072,-0.002725,-0.033802,-1.006427, 0.000064,-0.000380,-0.010120,-0.146055, 0.133745,-0.074798,1, 0.033344,-0.060728, 0.099553,1,-0.117296, 0.466302, 9.794855,1,0
1778107676614,   728.097,   728.092, 0.024105,-0.089431,-1.009875, 0.000316,-0.000894,-0.010256,-0.113459, 0.056960, 0.520061,1, 0.095077, 0.000553, 0.064186,1,-0.113278, 0.478477, 9.794315,1,0
1778107676636,   728.117,   728.112,-0.008768,-0.000569,-0.959029,-0.000026,-0.000106,-0.009727, 0.401522, 0.114994,-0.046529,1, 0.023318,-0.027623, 0.092836,1,-0.112318, 0.490204, 9.793746,1,0
1778107676663,   728.142,   728.142, 0.019497,-0.058112,-1.044212, 0.000134,-0.000466,-0.010291, 0.086415,-0.067957,-0.446982,1, 0.087205, 0.018463, 0.062679,1,-0.105247, 0.504655, 9.793091,1,0
1778107676684,   728.167,   728.162,-0.035554,-0.001863,-0.874644,-0.000368,-0.000141,-0.008852,-0.094785, 0.229346,-0.115051,1, 0.013196,-0.038911, 0.111113,1,-0.103349, 0.511722, 9.792745,1,0
1778107676706,   728.187,   728.182, 0.012520,-0.075757,-1.010522, 0.000042,-0.000785,-0.009969,-0.275986, 0.124174, 0.826050,1, 0.054457,-0.016711, 0.088856,1,-0.097117, 0.517708, 9.792494,1,0
1778107676733,   728.212,   728.212,-0.011013,-0.018318,-1.017998,-0.000025,-0.000224,-0.010366,-0.203589, 0.345331,-0.191033,1,-0.017251,-0.021504, 0.113933,1,-0.094731, 0.524463, 9.792157,1,0
1778107676754,   728.237,   728.232, 0.004001,-0.065890,-1.026373,-0.000028,-0.000814,-0.010243,-0.259383,-0.055937, 0.241411,1, 0.037118,-0.010494, 0.089333,1,-0.090909, 0.527857, 9.792011,1,0
1778107676776,   728.257,   728.252,-0.015545, 0.005055,-0.999790,-0.000153, 0.000043,-0.010240, 0.004714, 0.057741,-0.777174,1,-0.008891,-0.005343, 0.111595,1,-0.090529, 0.531230, 9.791833,1,0
1778107676803,   728.282,   728.282,-0.005397,-0.063323,-0.967642,-0.000022,-0.000543,-0.009715,-0.140720,-0.091789, 0.302637,1, 0.035865,-0.004361, 0.106540,1,-0.087474, 0.530347, 9.791908,1,0
1778107676824,   728.307,   728.302,-0.022194, 0.001918,-0.942829,-0.000209, 0.000091,-0.009407,-0.091431, 0.257479, 0.118211,1,-0.037457,-0.025770, 0.129714,1,-0.083751, 0.527857, 9.792075,1,0
1778107676846,   728.327,   728.327, 0.015107,-0.088889,-1.073169, 0.000156,-0.000869,-0.010751, 0.069681,-0.350085,-0.731743,1,-0.007407, 0.023279, 0.124313,1,-0.078891, 0.521318, 9.792466,1,0
1778107676873,   728.352,   728.352, 0.004798,-0.007539,-1.082010, 0.000120,-0.000161,-0.011125,-0.035944, 0.439889,-0.818065,1,-0.074969, 0.031539, 0.166070,1,-0.083711, 0.511528, 9.792942,1,0
1778107676894,   728.377,   728.372,-0.004233,-0.062147,-0.926419,-0.000064,-0.000665,-0.009122,-0.182142, 0.205371, 1.189080,1,-0.031766, 0.011868, 0.165824,1,-0.085893, 0.500965, 9.793469,1,0
1778107676917,   728.392,   728.397, 0.007410,-0.024310,-1.001283, 0.000086,-0.000266,-0.009996,-0.219680, 0.533462, 0.217974,1,-0.096917, 0.018583, 0.188944,1,-0.087176, 0.480894, 9.794464,1,0
1778107676943,   728.422,   728.422, 0.003475,-0.047201,-1.018289, 0.000020,-0.000414,-0.010071,-0.054989, 0.006566,-0.191005,1,-0.063467, 0.020459, 0.176562,1,-0.089445, 0.467525, 9.795091,1,0
1778107676965,   728.447,   728.442,-0.015662, 0.019670,-1.014515,-0.000127, 0.000101,-0.010409,-0.039081, 0.279571,-1.050480,1,-0.092414, 0.023742, 0.191007,1,-0.093870, 0.452401, 9.795759,1,0
1778107676987,   728.467,   728.467,-0.018325,-0.050625,-0.984467,-0.000137,-0.000460,-0.009830,-0.276877,-0.067261, 0.142451,1,-0.060751, 0.014299, 0.186310,1,-0.097364, 0.427366, 9.796849,1,0
1778107677013,   728.492,   728.492,-0.012672,-0.003092,-1.047571, 0.000007,-0.000016,-0.010641,-0.222887, 0.384340,-0.475776,1,-0.084101, 0.003119, 0.191802,1,-0.098458, 0.412095, 9.797493,1,0
1778107677035,   728.517,   728.512, 0.010056,-0.042080,-0.948953, 0.000105,-0.000428,-0.009637,-0.218022, 0.298839, 0.568986,1,-0.060979,-0.002963, 0.203831,1,-0.098170, 0.398136, 9.798073,1,0
1778107677057,   728.537,   728.537, 0.000834, 0.000754,-1.064006, 0.000085, 0.000054,-0.010983,-0.088182, 0.391391,-0.635682,1,-0.048940, 0.010312, 0.186511,1,-0.096443, 0.382518, 9.798713,1,0
1778107677083,   728.562,   728.562, 0.000363,-0.034941,-0.998019, 0.000016,-0.000326,-0.009954,-0.093094, 0.032693, 0.011760,1,-0.038869, 0.001345, 0.192387,1,-0.096466, 0.374198, 9.799033,1,0
1778107677105,   728.587,   728.582,-0.011959, 0.013161,-0.984655,-0.000101, 0.000104,-0.010038,-0.076391, 0.327516,-0.619877,1,-0.023105,-0.012163, 0.174133,1,-0.093472, 0.368375, 9.799283,1,0
1778107677128,   728.607,   728.607, 0.006113,-0.046748,-0.924116, 0.000113,-0.000446,-0.009184,-0.032654,-0.092593, 0.736898,1, 0.000166,-0.005814, 0.173895,1,-0.092221, 0.365909, 9.799387,1,0
1778107677153,   728.632,   728.632, 0.017101,-0.008899,-1.072081, 0.000190,-0.000170,-0.010728, 0.077284, 0.279795,-0.714160,1, 0.002939, 0.006781, 0.152762,1,-0.090449, 0.367200, 9.799356,1,0
1778107677175,   728.657,   728.652, 0.004267,-0.061300,-0.963353, 0.000029,-0.000554,-0.009593, 0.210142, 0.181120, 0.370421,1, 0.023334, 0.012185, 0.149438,1,-0.095171, 0.370197, 9.799198,1,0
1778107677198,   728.682,   728.677,-0.009769,-0.012477,-1.082140,-0.000170,-0.000116,-0.010946,-0.181843, 0.252478,-0.813068,1, 0.020431,-0.023029, 0.129872,1,-0.085170, 0.375512, 9.799088,1,0
1778107677223,   728.702,   728.702, 0.022986,-0.046419,-1.029623, 0.000225,-0.000306,-0.010331, 0.138810,-0.074353,-0.298282,1, 0.030960, 0.006331, 0.135825,1,-0.086634, 0.381866, 9.798829,1,0
1778107677245,   728.727,   728.722, 0.008241,-0.014296,-0.934213, 0.000016,-0.000164,-0.009516,-0.017050, 0.006441, 0.323940,1, 0.006623,-0.030367, 0.143896,1,-0.082128, 0.383768, 9.798794,1,0
1778107677268,   728.752,   728.747, 0.023969,-0.051216,-0.941574, 0.000215,-0.000390,-0.009338, 0.155589,-0.114458, 0.564974,1, 0.010320,-0.000424, 0.138603,1,-0.079284, 0.388151, 9.798645,1,0
1778107677293,   728.772,   728.772,-0.004018,-0.013276,-1.083382, 0.000004,-0.000128,-0.010733,-0.113687, 0.255379,-0.825562,1,-0.015325,-0.029472, 0.147428,1,-0.073180, 0.385130, 9.798811,1,0
1778107677315,   728.797,   728.792, 0.005989,-0.047559,-1.024629, 0.000022,-0.000424,-0.010231, 0.048076, 0.345743,-0.544040,1, 0.005814, 0.023387, 0.140816,1,-0.074356, 0.384944, 9.798810,1,0
1778107677338,   728.822,   728.817,-0.012052,-0.002074,-0.964827,-0.000153, 0.000015,-0.009753,-0.189425, 0.358665, 0.337346,1,-0.024560,-0.017705, 0.167100,1,-0.070479, 0.378275, 9.799098,1,0
1778107677364,   728.842,   728.842, 0.000179,-0.013651,-0.891765, 0.000020,-0.000045,-0.008902,-0.066862, 0.242563, 1.053952,1, 0.000024,-0.010794, 0.153167,1,-0.068092, 0.376471, 9.799185,1,0
1778107677385,   728.867,   728.862, 0.002783,-0.003466,-1.144006, 0.000083,-0.000022,-0.011700, 0.081269,-0.041253,-1.436875,1,-0.058341, 0.007194, 0.173444,1,-0.065638, 0.369663, 9.799460,1,0
1778107677408,   728.892,   728.887, 0.013214,-0.006711,-0.917885, 0.000123,-0.000047,-0.009389, 0.053296, 0.294725, 0.798350,1,-0.025147, 0.048799, 0.185591,1,-0.077603, 0.359794, 9.799741,1,0
1778107677434,   728.912,   728.912,-0.015298, 0.001810,-0.883900,-0.000174,-0.000106,-0.008776,-0.228134, 0.369456, 1.131928,1,-0.062081, 0.002755, 0.200355,1,-0.077970, 0.349821, 9.800098,1,0
1778107677455,   728.937,   728.932, 0.009076, 0.006463,-1.091032, 0.000110, 0.000049,-0.010872,-0.053430, 0.635127,-0.486748,1, 0.001834, 0.057946, 0.182601,1,-0.081899, 0.346478, 9.800185,1,0
1778107677478,   728.962,   728.957,-0.018750, 0.019701,-1.076752,-0.000150, 0.000127,-0.010832,-0.274552, 0.531416,-0.758935,1,-0.023345, 0.010662, 0.219135,1,-0.090777, 0.337548, 9.800419,1,0
1778107677504,   728.982,   728.982,-0.025955, 0.020560,-0.921158,-0.000183, 0.000375,-0.009375,-0.350001, 0.541668, 0.766809,1, 0.034858, 0.051273, 0.186103,1,-0.096872, 0.341187, 9.800234,1,0
1778107677525,   729.007,   729.002,-0.027702, 0.018415,-1.022199,-0.000138, 0.000129,-0.010302,-0.353839, 0.024201, 0.463180,1, 0.004397, 0.010683, 0.215755,1,-0.101086, 0.346097, 9.800019,1,0
1778107677548,   729.032,   729.032,-0.013812, 0.004133,-1.085601,-0.000072, 0.000188,-0.010958,-0.507520, 0.657410,-0.478975,1, 0.068845, 0.028531, 0.184097,1,-0.101751, 0.354542, 9.799711,1,0
1778107677574,   729.052,   729.052,-0.016876,-0.015691,-0.964048,-0.000067,-0.000303,-0.009713,-0.276735, 0.223021, 0.344692,1, 0.052537, 0.013015, 0.214782,1,-0.111390, 0.378617, 9.798705,1,0
1778107677595,   729.077,   729.072, 0.012657,-0.024163,-0.900927, 0.000201,-0.000122,-0.009039,-0.153568, 0.714561, 1.470173,1, 0.123217, 0.048002, 0.175918,1,-0.114217, 0.398876, 9.797869,1,0
1778107677622,   729.102,   729.102,-0.003790,-0.022743,-1.037171,-0.000037,-0.000400,-0.010113,-0.157018, 0.208270,-0.374752,1, 0.083604,-0.004712, 0.216164,1,-0.119409, 0.433997, 9.796314,1,0
1778107677644,   729.127,   729.122,-0.020225,-0.023666,-1.118224,-0.000123,-0.000177,-0.011306,-0.458200, 0.670547,-1.435813,1, 0.131606, 0.023511, 0.187249,1,-0.118080, 0.456719, 9.795298,1,0
1778107677665,   729.147,   729.142,-0.035839,-0.033233,-0.969108,-0.000218,-0.000516,-0.009601,-0.186213, 0.114739,-0.236608,1, 0.112164, 0.018953, 0.217253,1,-0.122650, 0.482193, 9.794020,1,0
1778107677692,   729.172,   729.172,-0.029593,-0.004076,-0.899783,-0.000288,-0.000042,-0.008718,-0.405725, 0.467080, 0.968993,1, 0.136291,-0.007012, 0.199776,1,-0.114971, 0.511372, 9.792633,1,0
1778107677714,   729.197,   729.192, 0.006020,-0.001608,-1.060487, 0.000029,-0.000096,-0.010565, 0.120619, 0.160103,-0.221454,1, 0.073201,-0.001643, 0.245347,1,-0.114125, 0.531897, 9.791550,1,0
1778107677736,   729.217,   729.212,-0.001938,-0.006681,-0.976547,-0.000044, 0.000034,-0.009720,-0.239348, 0.686024, 0.037792,1, 0.054539,-0.000015, 0.267001,1,-0.109386, 0.539583, 9.791183,1,0
1778107677762,   729.242,   729.242, 0.014795,-0.032384,-1.001509, 0.000066,-0.000318,-0.009954,-0.017277,-0.051198, 0.323081,1, 0.018906, 0.019902, 0.295708,1,-0.111578, 0.559853, 9.790020,1,0
1778107677784,   729.267,   729.262,-0.018372,-0.010456,-0.949459,-0.000131, 0.000028,-0.009479,-0.295348, 0.623928, 0.651912,1,-0.035096,-0.000879, 0.325531,1,-0.106503, 0.552850, 9.790475,1,0
1778107677806,   729.287,   729.282,-0.009248,-0.062731,-1.032237,-0.000026,-0.000552,-0.010428,-0.078091, 0.300572,-0.455682,1, 0.002008, 0.029412, 0.296990,1,-0.105514, 0.555432, 9.790339,1,0
1778107677833,   729.312,   729.312,-0.019214, 0.032209,-0.975109,-0.000210, 0.000163,-0.009890,-0.294327, 0.848505, 0.229050,1,-0.120085, 0.005476, 0.387925,1,-0.105418, 0.529032, 9.791802,1,0
1778107677854,   729.337,   729.332,-0.008771,-0.031758,-1.054897,-0.000105,-0.000314,-0.010665,-0.137819, 0.606350,-0.715197,1,-0.028665, 0.030040, 0.342081,1,-0.104857, 0.521152, 9.792232,1,0
1778107677876,   729.357,   729.352,-0.036026, 0.047382,-0.940103,-0.000334, 0.000283,-0.009549,-0.133744, 0.620940,-0.717689,1,-0.158651,-0.006414, 0.427017,1,-0.105017, 0.499183, 9.793374,1,0
1778107677903,   729.382,   729.382,-0.004606, 0.013184,-1.067523,-0.000152, 0.000078,-0.010444,-0.143975, 0.601467,-0.674048,1,-0.065087, 0.021459, 0.386764,1,-0.098892, 0.470268, 9.794868,1,0
1778107677924,   729.407,   729.402,-0.009297, 0.055294,-0.916664,-0.000103, 0.000335,-0.009304, 0.037230, 0.651232,-0.273152,1,-0.162419,-0.002197, 0.468403,1,-0.098557, 0.445538, 9.796028,1,0
1778107677946,   729.427,   729.422, 0.021161, 0.030336,-1.054329, 0.000041, 0.000242,-0.010203,-0.276665, 0.747232, 1.098965,1,-0.089996, 0.002035, 0.445230,1,-0.094051, 0.418782, 9.797253,1,0
1778107677973,   729.452,   729.452, 0.026163, 0.047815,-1.043207, 0.000279, 0.000394,-0.010657, 0.156022, 0.860611,-0.432062,1,-0.165777, 0.035544, 0.504624,1,-0.101024, 0.386700, 9.798502,1,0
1778107677994,   729.477,   729.472, 0.010946, 0.035937,-0.985903, 0.000032, 0.000398,-0.009562,-0.191129, 0.886074, 1.368785,1,-0.077663, 0.024614, 0.472888,1,-0.101863, 0.362916, 9.799403,1,0
1778107678016,   729.497,   729.492,-0.000814, 0.018333,-1.045042, 0.000055, 0.000193,-0.010487,-0.202449, 0.361650, 0.139635,1,-0.098363, 0.033385, 0.491881,1,-0.104046, 0.349843, 9.799855,1,0
1778107678043,   729.522,   729.522,-0.016871, 0.054687,-0.972782,-0.000008, 0.000618,-0.009788,-0.267781, 0.857848, 0.261106,1,-0.053527, 0.023225, 0.485247,1,-0.102557, 0.320043, 9.800890,1,0
1778107678064,   729.547,   729.542, 0.001414, 0.013074,-0.964989, 0.000053, 0.000202,-0.009776,-0.108931, 0.460081, 0.132634,1,-0.068045, 0.048302, 0.499636,1,-0.108354, 0.312900, 9.801058,1,0
1778107678086,   729.567,   729.567,-0.015217, 0.062441,-0.954167,-0.000058, 0.000613,-0.009437,-0.254378, 0.906992, 0.444474,1,-0.032862, 0.011321, 0.492735,1,-0.105042, 0.293798, 9.801685,1,0
1778107678113,   729.592,   729.592, 0.002655, 0.014080,-1.065560,-0.000025, 0.000039,-0.010637,-0.083581, 0.432145,-0.647950,1,-0.033073, 0.049881, 0.506802,1,-0.110698, 0.293213, 9.801641,1,0
1778107678135,   729.617,   729.612,-0.025147, 0.051072,-0.956770,-0.000166, 0.000472,-0.009543,-0.094515, 0.748339,-0.125546,1,-0.059063, 0.009794, 0.526759,1,-0.110651, 0.282324, 9.801961,1,0
1778107678157,   729.637,   729.637, 0.017209, 0.020206,-0.989510, 0.000066, 0.000153,-0.009899, 0.053742, 0.481295, 0.098106,1,-0.027508, 0.044202, 0.501978,1,-0.115951, 0.282470, 9.801895,1,0
1778107678183,   729.662,   729.662, 0.000686, 0.019525,-1.047384,-0.000033, 0.000269,-0.010378,-0.107505, 0.466886,-0.469214,1,-0.046208,-0.014901, 0.516762,1,-0.113310, 0.274153, 9.802162,1,0
1778107678205,   729.687,   729.682, 0.004945, 0.022072,-1.078305,-0.000116, 0.000194,-0.010884,-0.111083, 0.518533,-0.492061,1,-0.002595, 0.025886, 0.476522,1,-0.113051, 0.271810, 9.802231,1,0
1778107678228,   729.707,   729.707,-0.012574, 0.020031,-1.000522,-0.000149, 0.000230,-0.010037,-0.236256, 0.456726,-0.009228,1,-0.061390,-0.010413, 0.507749,1,-0.112201, 0.258560, 9.802599,1,0
1778107678253,   729.732,   729.732, 0.004892, 0.025024,-0.964049, 0.000032, 0.000404,-0.009665,-0.062338, 0.501077, 0.348609,1,-0.005901, 0.017530, 0.462910,1,-0.110460, 0.255607, 9.802696,1,0
1778107678275,   729.757,   729.752, 0.002955, 0.017623,-1.007504, 0.000021, 0.000210,-0.010030,-0.025176, 0.007215,-0.038215,1,-0.073435,-0.003816, 0.496754,1,-0.110327, 0.247301, 9.802911,1,0
1778107678298,   729.777,   729.777, 0.017586, 0.031279,-0.967571, 0.000150, 0.000432,-0.009763, 0.065110, 0.543717, 0.314565,1,-0.017746, 0.024446, 0.455262,1,-0.107771, 0.236574, 9.803204,1,0
1778107678323,   729.802,   729.802,-0.005594,-0.018013,-0.898088, 0.000050,-0.000174,-0.009014,-0.162468, 0.053589, 0.996119,1,-0.059010,-0.012899, 0.477990,1,-0.106858, 0.228563, 9.803404,1,0
1778107678345,   729.827,   729.822, 0.004893, 0.036777,-1.100177, 0.000007, 0.000458,-0.011094,-0.300151, 0.464867,-0.908150,1,-0.040761, 0.008107, 0.446559,1,-0.103688, 0.219714, 9.803640,1,0
1778107678368,   729.847,   729.847,-0.015724,-0.001863,-0.964513,-0.000103, 0.000008,-0.009830,-0.262208, 0.194711, 0.345103,1,-0.048638, 0.011785, 0.472326,1,-0.108054, 0.211620, 9.803771,1,0
1778107678393,   729.872,   729.872,-0.032006, 0.036237,-0.952120,-0.000240, 0.000296,-0.009504,-0.418166, 0.562825, 0.466793,1,-0.004925,-0.014048, 0.435208,1,-0.103566, 0.207453, 9.803908,1,0
1778107678415,   729.897,   729.892, 0.007987, 0.011006,-0.988920, 0.000165, 0.000161,-0.009969,-0.060416, 0.669493, 0.343235,1,-0.004295, 0.025798, 0.439580,1,-0.105012, 0.209508, 9.803849,1,0
1778107678438,   729.922,   729.917,-0.018977, 0.036470,-1.053497,-0.000078, 0.000377,-0.010474,-0.289472, 0.566118,-0.527391,1, 0.014241,-0.008361, 0.435201,1,-0.102819, 0.209056, 9.803883,1,0
1778107678463,   729.942,   729.942,-0.005158, 0.049453,-0.993951,-0.000139, 0.000520,-0.010008,-0.155800, 0.699727, 0.056406,1, 0.021169, 0.042308, 0.441423,1,-0.106233, 0.215563, 9.803705,1,0
1778107678485,   729.967,   729.962,-0.010913, 0.033438,-0.960543,-0.000029, 0.000317,-0.009528,-0.045516, 0.330509, 0.825870,1, 0.010594, 0.006102, 0.462687,1,-0.106524, 0.218563, 9.803636,1,0
1778107678508,   729.992,   729.987,-0.022272, 0.053799,-1.011954,-0.000165, 0.000584,-0.010165,-0.322086, 0.757386,-0.120468,1, 0.026287, 0.030622, 0.450892,1,-0.104297, 0.230763, 9.803380,1,0
1778107678534,   730.012,   730.012,-0.010495,-0.008328,-0.954088,-0.000049,-0.000120,-0.009593,-0.208839, 0.151645, 0.446897,1,-0.003488, 0.008092, 0.483391,1,-0.105813, 0.233368, 9.803302,1,0
1778107678555,   730.037,   730.032,-0.014270, 0.068177,-0.991773,-0.000113, 0.000722,-0.010105,-0.218317, 0.941831,-0.643455,1, 0.033013, 0.022795, 0.454978,1,-0.106666, 0.239340, 9.803148,1,0
1778107678578,   730.062,   730.057,-0.026156,-0.006487,-0.930898,-0.000186,-0.000141,-0.009283,-0.365036, 0.183640, 0.673945,1, 0.007917,-0.013605, 0.490085,1,-0.107722, 0.247677, 9.802930,1,0
1778107678604,   730.082,   730.082,-0.039651, 0.043129,-1.106205,-0.000399, 0.000325,-0.010933,-0.490371, 0.674955,-1.045279,1, 0.031760,-0.019507, 0.457521,1,-0.100548, 0.253139, 9.802867,1,0
1778107678625,   730.107,   730.102,-0.007225,-0.019159,-0.942638, 0.000063,-0.000094,-0.009606,-0.014916, 0.780762,-0.554392,1, 0.022881, 0.019240, 0.476525,1,-0.101423, 0.261174, 9.802647,1,0
1778107678648,   730.132,   730.127,-0.021443, 0.023384,-0.944211,-0.000223, 0.000169,-0.009277,-0.307057, 0.501079, 0.542861,1, 0.046788,-0.012373, 0.457697,1,-0.095993, 0.273308, 9.802371,1,0
1778107678674,   730.152,   730.152, 0.013957, 0.054884,-0.971345, 0.000073, 0.000578,-0.009682, 0.040785, 0.820174, 0.276487,1, 0.042469, 0.022929, 0.469129,1,-0.096378, 0.283413, 9.802080,1,0
1778107678695,   730.177,   730.172,-0.009283, 0.021079,-1.049226,-0.000067, 0.000099,-0.010309, 0.032562, 0.124966,-0.095081,1, 0.043708, 0.018956, 0.470704,1,-0.097646, 0.292221, 9.801809,1,0
1778107678718,   730.202,   730.197,-0.007697, 0.060331,-0.991469,-0.000196, 0.000689,-0.010012,-0.177104, 0.895829, 0.078412,1, 0.023304, 0.034364, 0.476837,1,-0.102237, 0.305065, 9.801371,1,0
1778107678744,   730.222,   730.222,-0.004058,-0.037083,-0.936514,-0.000125,-0.000333,-0.009388,-0.142632,-0.049971, 0.617022,1, 0.050456, 0.021601, 0.463769,1,-0.103052, 0.315411, 9.801035,1,0
1778107678765,   730.247,   730.242,-0.002614, 0.067186,-0.997776,-0.000093, 0.000622,-0.010020,-0.278183, 0.571331,-0.280305,1, 0.040784, 0.010525, 0.464280,1,-0.102119, 0.325763, 9.800706,1,0
1778107678788,   730.272,   730.272, 0.011792, 0.010177,-0.956056, 0.000127, 0.000141,-0.009448, 0.015514, 0.433912, 0.424733,1, 0.032114, 0.003305, 0.479251,1,-0.099719, 0.335268, 9.800410,1,0
1778107678814,   730.292,   730.292,-0.004254, 0.027118,-1.055608,-0.000039, 0.000200,-0.010409,-0.138362, 0.608739,-0.551794,1, 0.034661,-0.013202, 0.470491,1,-0.095718, 0.344024, 9.800146,1,0
1778107678835,   730.317,   730.312,-0.003378,-0.003385,-0.970796, 0.000039, 0.000088,-0.009816,-0.070192, 0.965906,-0.254225,1,-0.015858, 0.004337, 0.516266,1,-0.092828, 0.344735, 9.800149,1,0
1778107678862,   730.342,   730.342,-0.000897, 0.013062,-1.053298,-0.000185,-0.000005,-0.010353,-0.101968, 0.475897,-0.529290,1, 0.002108, 0.032536, 0.504138,1,-0.093628, 0.348015, 9.800026,1,0
1778107678884,   730.367,   730.362,-0.004666, 0.037803,-0.940052,-0.000056, 0.000414,-0.009255,-0.040666, 1.062871, 0.200946,1,-0.045561, 0.025615, 0.549202,1,-0.096663, 0.342339, 9.800196,1,0
1778107678906,   730.387,   730.382,-0.034047, 0.005787,-1.021224,-0.000374,-0.000097,-0.010045,-0.202552, 0.320313, 0.418049,1,-0.000442, 0.009022, 0.525621,1,-0.095589, 0.339256, 9.800314,1,0
1778107678932,   730.412,   730.412,-0.009988, 0.063545,-1.077281,-0.000154, 0.000609,-0.010857,-0.191277, 0.955630,-0.763955,1,-0.064135, 0.000353, 0.563273,1,-0.092746, 0.330634, 9.800636,1,0
1778107678954,   730.437,   730.432, 0.006122, 0.011336,-0.849837, 0.000086, 0.000102,-0.008496, 0.079160, 0.584220, 0.821992,1, 0.002029, 0.033137, 0.533358,1,-0.094175, 0.327271, 9.800735,1,0
1778107678976,   730.457,   730.452,-0.033390, 0.065373,-0.760911,-0.000352, 0.000673,-0.007734,-0.250348, 0.665289, 1.403069,1, 0.001250,-0.048445, 0.540707,1,-0.087185, 0.331365, 9.800662,1,0
1778107679003,   730.482,   730.482,-0.010404, 0.008524,-0.820949,-0.000144, 0.000307,-0.008070,-0.153119, 0.416416, 1.750106,1, 0.038088,-0.184880, 0.529533,1,-0.044765, 0.334101, 9.800855,1,0
1778107679024,   730.507,   730.502, 0.051657, 0.039013,-1.377581, 0.000633, 0.000416,-0.013832, 0.267958, 0.045390,-2.826389,1,-0.024595,-0.131907, 0.540255,1,-0.007142, 0.335387, 9.800911,1,0
1778107679046,   730.527,   730.522,-0.025281, 0.073530,-0.745513,-0.000203, 0.000792,-0.007857, 0.049727, 1.264058,-1.173897,1,-0.093457,-0.098209, 0.640113,1, 0.018053, 0.321718, 9.801354,1,0
1778107679073,   730.552,   730.552, 0.023793, 0.016053,-0.709173, 0.000144, 0.000167,-0.006563, 0.303083, 0.465009, 2.846961,1,-0.027183,-0.228859, 0.603247,1, 0.077487, 0.306605, 9.801550,1,0
1778107679094,   730.577,   730.572, 0.047544,-0.054151,-1.229415, 0.000516,-0.000332,-0.012372, 0.473248, 0.346787,-1.927223,1,-0.089814,-0.135280, 0.585635,1, 0.119697, 0.291647, 9.801581,1,0
1778107679116,   730.597,   730.592,-0.005765,-0.062171,-1.134676,-0.000104,-0.000534,-0.011274, 0.638923,-0.315837,-2.646326,1,-0.020577,-0.104036, 0.529471,1, 0.141312, 0.282514, 9.801561,1,0
1778107679143,   730.622,   730.622,-0.010039, 0.016841,-0.867143,-0.000189, 0.000204,-0.009053, 0.089104, 0.441617, 1.297191,1,-0.029006,-0.201952, 0.505126,1, 0.194294, 0.275263, 9.800860,1,0
1778107679164,   730.647,   730.642, 0.055894, 0.067226,-1.143438, 0.000543, 0.000560,-0.011021, 0.204475, 0.609575, 1.616612,1,-0.012134,-0.188930, 0.502134,1, 0.240497, 0.265599, 9.800102,1,0
1778107679186,   730.667,   730.662,-0.001157, 0.110163,-0.975519, 0.000220, 0.001241,-0.010071, 0.673084, 0.891014,-0.524898,1,-0.064390,-0.075771, 0.539788,1, 0.263140, 0.253153, 9.799850,1,0
1778107679213,   730.692,   730.692,-0.044394, 0.056460,-0.847531,-0.000429, 0.000729,-0.008347,-0.119373, 0.790859, 1.487245,1,-0.018113,-0.203229, 0.567403,1, 0.322754, 0.236040, 9.798494,1,0
1778107679234,   730.717,   730.712,-0.019264, 0.034536,-1.082592,-0.000047, 0.000049,-0.010989, 0.893317, 0.237668,-0.877772,1,-0.020885,-0.110233, 0.546746,1, 0.349831, 0.229697, 9.797716,1,0
1778107679256,   730.737,   730.732,-0.052197, 0.062768,-0.875559,-0.000548, 0.000652,-0.008693,-0.128111, 0.708513, 1.169879,1,-0.106686,-0.199716, 0.626774,1, 0.385472, 0.205569, 9.796915,1,0
1778107679283,   730.762,   730.762,-0.001934, 0.038597,-1.117955, 0.000090, 0.000496,-0.011155, 0.416648, 0.555885,-1.168036,1,-0.051329,-0.131484, 0.574617,1, 0.440040, 0.174980, 9.795210,1,0
1778107679305,   730.787,   730.782,-0.030494, 0.135830,-0.861983,-0.000399, 0.001107,-0.009033, 0.768708, 0.895961,-1.575729,1,-0.085485,-0.121020, 0.604228,1, 0.451462, 0.165221, 9.794859,1,0
1778107679326,   730.807,   730.807,-0.021575, 0.013428,-0.977991,-0.000200, 0.000269,-0.009978, 0.300317, 0.253370, 0.201709,1,-0.038815,-0.162597, 0.593062,1, 0.517190, 0.119516, 9.792274,1,0
1778107679353,   730.832,   730.832,-0.061424, 0.077184,-1.041539,-0.000492, 0.000551,-0.010816,-0.053102, 0.854873,-0.423246,1,-0.091811,-0.181619, 0.596160,1, 0.555112, 0.094050, 9.790474,1,0
1778107679375,   730.857,   730.852,-0.009370, 0.036958,-0.918110,-0.000039, 0.000435,-0.009483, 0.332493, 0.584644,-1.460004,1,-0.055974,-0.095802, 0.573462,1, 0.581976, 0.076407, 9.789068,1,0
1778107679397,   730.877,   730.877,-0.098631, 0.072542,-0.818454,-0.001038, 0.000619,-0.008201,-0.336941, 0.768104, 1.759912,1,-0.022801,-0.236449, 0.569778,1, 0.637769, 0.054862, 9.785736,1,0
1778107679423,   730.902,   730.902, 0.035575, 0.055124,-1.142113, 0.000275, 0.000566,-0.011210, 1.011929, 0.591878,-1.416234,1, 0.027135,-0.092812, 0.511175,1, 0.666029, 0.051059, 9.783874,1,0
1778107679445,   730.927,   730.922,-0.070577, 0.105787,-0.969944,-0.000929, 0.001077,-0.009818, 0.394507, 0.447316,-0.456745,1, 0.015372,-0.227720, 0.549796,1, 0.699321, 0.049903, 9.781556,1,0
1778107679468,   730.947,   730.947, 0.026451, 0.017173,-1.056551, 0.000016, 0.000283,-0.010602, 0.995057, 0.226708,-0.582386,1, 0.074821,-0.080362, 0.471841,1, 0.738249, 0.059520, 9.778642,1,0
1778107679493,   730.972,   730.972,-0.080966, 0.036302,-0.939615,-0.000950, 0.000388,-0.009367,-0.022500, 0.427668, 0.561517,1, 0.101269,-0.223366, 0.493141,1, 0.778566, 0.073609, 9.775418,1,0
1778107679515,   730.997,   730.992,-0.025175, 0.020707,-0.991897,-0.000144, 0.000141,-0.009804, 0.575289, 0.374832, 0.553168,1, 0.123878,-0.119568, 0.435513,1, 0.808947, 0.087331, 9.772838,1,0
1778107679538,   731.017,   731.017,-0.066766, 0.041231,-1.152287,-0.000730, 0.000382,-0.011591, 0.200740, 0.518474,-1.531487,1, 0.108659,-0.155403, 0.444791,1, 0.860484, 0.116302, 9.768133,1,0
1778107679563,   731.042,   731.042,-0.017663, 0.036096,-0.903504,-0.000043, 0.000449,-0.009183, 0.702891, 0.486119, 0.906193,1, 0.175226,-0.102877, 0.412155,1, 0.879474, 0.136439, 9.766181,1,0
1778107679585,   731.067,   731.062,-0.129062, 0.028702,-0.972561,-0.001206, 0.000309,-0.009315,-0.222804, 0.493116, 2.152816,1, 0.110870,-0.227743, 0.431286,1, 0.921221, 0.154988, 9.762054,1,0
1778107679608,   731.087,   731.087,-0.037091,-0.021547,-1.208580,-0.000216,-0.000058,-0.012184, 0.598989,-0.033368,-2.094464,1, 0.101371,-0.122058, 0.387288,1, 0.966742, 0.179901, 9.757224,1,0
1778107679633,   731.112,   731.112,-0.115759,-0.006406,-0.866547,-0.000862, 0.000050,-0.008855,-0.140933, 0.121456, 1.256452,1, 0.025647,-0.197439, 0.447220,1, 1.000672, 0.183663, 9.753733,1,0
1778107679655,   731.137,   731.132, 0.010773,-0.000158,-0.876602, 0.000069,-0.000037,-0.009134, 0.352674, 0.656916, 2.424585,1, 0.096124,-0.169112, 0.393756,1, 1.034641, 0.186822, 9.750128,1,0
1778107679678,   731.162,   731.157, 0.020613, 0.003851,-0.901508, 0.000259, 0.000070,-0.009144, 1.264913, 0.229281, 0.906238,1,-0.004939,-0.059775, 0.412052,1, 1.064879, 0.189966, 9.746811,1,0
1778107679703,   731.182,   731.182, 0.031210, 0.058048,-0.839235, 0.000212, 0.000608,-0.008144, 1.376149, 0.753433, 1.516263,1, 0.021243,-0.018282, 0.442870,1, 1.070911, 0.183323, 9.746278,1,0
1778107679725,   731.207,   731.202,-0.155452, 0.036281,-1.372770,-0.001034, 0.000740,-0.012611, 0.724731, 0.620939,-0.298299,1, 0.002543,-0.043776, 0.428100,1, 1.084794, 0.175107, 9.744893,1,0
1778107679748,   731.232,   731.227, 0.093888, 0.037925,-1.436182, 0.001023, 0.000372,-0.015224, 1.965345, 0.535134,-4.334658,1,-0.037236, 0.330459, 0.435522,1, 1.034590, 0.160609, 9.750601,1,0
1778107679774,   731.252,   731.252,-0.042530, 0.088218,-0.741941, 0.000065, 0.000691,-0.008043, 0.571145, 1.010313, 2.479689,1,-0.082136, 0.264267, 0.524646,1, 0.980263, 0.140983, 9.756516,1,0
1778107679795,   731.277,   731.272,-0.044290, 0.109021,-0.899636,-0.000636, 0.000706,-0.009075,-0.003358, 1.851381, 5.077627,1, 0.000098, 0.216053, 0.517049,1, 0.937370, 0.126951, 9.760922,1,0
1778107679818,   731.302,   731.297,-0.161844, 0.044920,-1.393273,-0.001059, 0.000586,-0.014013,-0.705868, 0.553887,-3.897036,1,-0.037246, 0.182432, 0.513914,1, 0.875797, 0.110774, 9.766836,1,0
1778107679844,   731.322,   731.322,-0.038904, 0.082119,-1.278672,-0.000838, 0.000505,-0.012596, 0.450716, 0.897442,-2.768662,1,-0.097460, 0.353378, 0.520924,1, 0.821402, 0.087713, 9.771795,1,0
1778107679865,   731.347,   731.342,-0.100207, 0.050611,-0.616127,-0.000890, 0.000480,-0.005937, 0.606249, 0.658223, 2.480992,1,-0.086025, 0.198246, 0.526641,1, 0.776393, 0.067585, 9.775635,1,0
1778107679888,   731.372,   731.367, 0.026876, 0.073169,-1.013268, 0.000346, 0.000802,-0.009835, 0.985168, 0.763213,-0.156815,1,-0.030515, 0.212583, 0.473401,1, 0.715053, 0.043636, 9.780449,1,0
1778107679914,   731.392,   731.392,-0.065243, 0.077897,-1.158866,-0.000308, 0.000695,-0.011625, 0.044166, 0.796215,-1.581880,1,-0.040038, 0.179580, 0.488431,1, 0.678442, 0.029999, 9.783108,1,0
1778107679935,   731.417,   731.412,-0.085512, 0.008028,-1.005212,-0.000409, 0.000211,-0.010648, 0.882390, 0.522875,-2.267265,1,-0.058325, 0.253841, 0.475290,1, 0.627764, 0.015058, 9.786525,1,0
1778107679958,   731.442,   731.437,-0.024435, 0.063555,-0.899208,-0.000226, 0.000602,-0.008945, 0.334993, 0.621865, 0.971581,1, 0.020391, 0.180368, 0.421082,1, 0.568997,-0.001537, 9.790129,1,0
1778107679984,   731.462,   731.462,-0.012080, 0.024884,-0.950874, 0.000008, 0.000262,-0.008926, 0.420707, 0.243747, 0.466924,1, 0.034759, 0.139725, 0.383223,1, 0.534812, 0.000143, 9.792056,1,0
1778107680005,   731.487,   731.482, 0.039796, 0.043516,-1.185042, 0.000433, 0.000428,-0.011796, 0.264969, 0.244816,-2.094570,1, 0.026692, 0.178892, 0.374491,1, 0.498757, 0.001160, 9.793959,1,0
1778107680028,   731.512,   731.512, 0.020480, 0.047526,-0.971514, 0.000253, 0.000454,-0.009642, 0.649923, 0.471052, 0.269055,1, 0.044647, 0.216186, 0.350307,1, 0.442343, 0.005871, 9.796667,1,0
1778107680054,   731.532,   731.532,-0.016924, 0.056041,-0.655936,-0.000013, 0.000508,-0.006731, 0.252232, 0.563165, 3.365183,1, 0.082384, 0.132534, 0.322363,1, 0.414060, 0.015674, 9.797893,1,0
1778107680075,   731.557,   731.552, 0.101908, 0.010469,-0.981452, 0.001092, 0.000277,-0.009845, 0.819096, 0.079278, 0.856759,1, 0.075416, 0.216500, 0.287066,1, 0.379766, 0.030741, 9.799246,1,0
1778107680102,   731.582,   731.582, 0.059709, 0.043439,-0.967004, 0.000512, 0.000400,-0.010123, 0.904718, 0.471390, 0.318275,1, 0.064289, 0.277935, 0.306783,1, 0.310547, 0.047096, 9.801619,1,0
1778107680124,   731.607,   731.602,-0.010304, 0.028433,-0.947186,-0.000365, 0.000248,-0.009168, 0.490357, 0.421456, 1.560313,1, 0.059480, 0.200644, 0.295316,1, 0.263794, 0.055565, 9.802944,1,0
1778107680146,   731.627,   731.622, 0.056283,-0.000471,-1.058834, 0.000361, 0.000211,-0.010857, 0.507708,-0.015943,-2.388797,1, 0.064218, 0.240658, 0.274479,1, 0.220537, 0.068102, 9.803933,1,0
1778107680173,   731.652,   731.652, 0.053131, 0.036735,-1.057031, 0.000332, 0.000447,-0.010466, 0.666886, 0.431163,-0.560633,1, 0.014265, 0.287750, 0.306401,1, 0.136932, 0.071220, 9.805435,1,0
1778107680194,   731.677,   731.672, 0.029887, 0.057139,-0.906552, 0.000009, 0.000556,-0.008968, 0.015730, 0.134890,-0.057856,1,-0.031562, 0.223851, 0.304701,1, 0.091055, 0.067242, 9.805997,1,0
1778107680216,   731.697,   731.692, 0.099857, 0.025316,-0.697554, 0.000939, 0.000524,-0.006844, 0.404318, 0.519151, 2.139650,1,-0.052875, 0.283944, 0.312877,1, 0.042493, 0.058690, 9.806382,1,0
1778107680243,   731.722,   731.722, 0.093922, 0.025013,-0.926137, 0.000967, 0.000369,-0.009551, 0.895108, 0.293670, 0.724194,1,-0.057018, 0.276496, 0.318209,1,-0.034534, 0.046624, 9.806479,1,0
1778107680264,   731.747,   731.742, 0.164513, 0.077660,-1.145089, 0.001677, 0.000823,-0.011416, 1.101070, 0.586103, 0.169573,1,-0.129040, 0.359206, 0.343635,1,-0.099182, 0.024069, 9.806119,1,0
1778107680286,   731.767,   731.762,-0.027600, 0.017205,-1.642032,-0.000164, 0.000576,-0.015883, 1.129684, 0.496422,-1.594157,1,-0.124959, 0.314039, 0.354763,1,-0.163481, 0.004735, 9.805286,1,0
1778107680313,   731.792,   731.792,-0.271027, 0.004738,-1.557376,-0.002557, 0.000296,-0.017008,-2.834966, 0.020334,-5.467627,1,-0.137349,-0.003017, 0.352239,1,-0.177033,-0.030213, 9.805005,1,0
1778107680334,   731.817,   731.812, 0.027557,-0.085066,-0.780358, 0.000122,-0.000371,-0.008623,-0.883244,-0.378936,-1.724039,1,-0.054108,-0.059280, 0.275591,1,-0.174039,-0.040685, 9.805021,1,0
1778107680356,   731.837,   731.832, 0.064755, 0.006009,-0.551101, 0.000511,-0.000467,-0.005716, 0.992903,-0.102011, 2.952606,1,-0.001102,-0.187255, 0.213927,1,-0.149453,-0.045960, 9.805404,1,0
1778107680383,   731.862,   731.862, 0.002571, 0.054549,-0.757841, 0.000732, 0.000849,-0.007638,-0.112450, 0.473523, 2.373614,1,-0.007318, 0.130810, 0.191392,1,-0.141782,-0.061568, 9.805431,1,0
1778107680404,   731.887,   731.882,-0.163664, 0.013727,-1.012297,-0.001363, 0.000503,-0.009589,-0.493445,-0.044591, 0.380318,1,-0.092662, 0.039580, 0.222645,1,-0.158297,-0.072538, 9.805104,1,0
1778107680426,   731.907,   731.902,-0.009569, 0.066645,-1.549465,-0.000460, 0.000699,-0.015267,-1.147966,-0.067163,-3.476724,1,-0.009716,-0.009946, 0.196934,1,-0.159292,-0.080840, 9.805023,1,0
1778107680453,   731.932,   731.932,-0.036608,-0.024938,-1.060966,-0.000299,-0.000006,-0.010457,-0.498346,-0.329704,-0.599235,1, 0.046766,-0.116232, 0.106389,1,-0.135617,-0.083699, 9.805355,1,0
1778107680474,   731.957,   731.952, 0.056384, 0.056409,-0.701637, 0.000706,-0.000099,-0.006857, 0.503419,-0.327482, 3.281287,1, 0.015599,-0.055812, 0.082549,1,-0.124738,-0.080143, 9.805530,1,0
1778107680496,   731.977,   731.972,-0.064750, 0.041373,-0.967266, 0.000116, 0.000365,-0.009203,-0.692576, 0.102448, 4.358344,1, 0.045125,-0.019316, 0.085655,1,-0.116345,-0.078385, 9.805647,1,0
1778107680523,   732.002,   732.002, 0.028784, 0.021255,-1.297892, 0.000531, 0.000215,-0.013161, 0.151197, 0.152188,-1.846429,1,-0.040866, 0.099912, 0.069276,1,-0.123949,-0.077810, 9.805558,1,0
1778107680545,   732.027,   732.022,-0.121727, 0.068397,-0.896056,-0.001155, 0.000647,-0.008820,-1.901252, 0.677051,-0.162333,1,-0.059517, 0.018122, 0.134780,1,-0.140351,-0.086130, 9.805267,1,0
1778107680566,   732.047,   732.047, 0.052956, 0.022393,-0.941905, 0.000741, 0.000182,-0.009574, 0.371892, 0.133480, 0.568228,1,-0.000990,-0.075735, 0.070340,1,-0.145086,-0.086114, 9.805199,1,0
1778107680593,   732.072,   732.072, 0.006962, 0.033201,-1.002963,-0.000088, 0.000450,-0.009744,-0.066725, 0.241993,-0.030348,1, 0.010738, 0.019684, 0.102132,1,-0.135636,-0.083221, 9.805359,1,0
1778107680615,   732.097,   732.092,-0.019082, 0.069965,-0.984455,-0.000208, 0.000643,-0.009815, 0.205843, 0.280299, 0.942096,1,-0.018179, 0.049768, 0.116521,1,-0.153338,-0.086421, 9.805070,1,0
1778107680637,   732.117,   732.117,-0.025104, 0.053582,-1.010776,-0.000425, 0.000712,-0.010178,-0.409472, 0.437041,-0.107433,1, 0.001381, 0.037686, 0.116379,1,-0.164493,-0.088315, 9.804873,1,0
1778107680663,   732.142,   732.142, 0.032353, 0.035350,-1.201165, 0.000256, 0.000351,-0.011886, 0.151559, 0.262870,-1.974514,1, 0.056302,-0.004105, 0.110476,1,-0.165608,-0.081987, 9.804909,1,0
1778107680685,   732.167,   732.162,-0.014425, 0.037202,-1.011335,-0.000252, 0.000446,-0.009981,-0.087785, 0.366918, 0.203196,1, 0.037438,-0.014566, 0.116403,1,-0.160780,-0.074876, 9.805046,1,0
1778107680708,   732.187,   732.187, 0.028644, 0.036303,-0.754752, 0.000388, 0.000349,-0.007903, 0.116748, 0.294030, 2.403496,1, 0.060541,-0.015420, 0.105658,1,-0.163694,-0.060037, 9.805099,1,0
1778107680733,   732.212,   732.212,-0.016567, 0.052324,-0.948841,-0.000233, 0.000436,-0.009244,-0.320437, 0.466630, 0.500320,1, 0.097427,-0.018635, 0.098271,1,-0.157400,-0.043407, 9.805290,1,0
1778107680755,   732.237,   732.232,-0.057595, 0.025997,-1.092386,-0.000434, 0.000259,-0.010846,-0.037723, 0.253787,-1.066548,1, 0.077155,-0.021277, 0.085122,1,-0.154432,-0.027213, 9.805396,1,0
1778107680778,   732.257,   732.257,-0.000994, 0.021282,-0.939405,-0.000054, 0.000109,-0.010046,-0.164002, 0.205351, 0.593022,1, 0.083992, 0.031321, 0.088085,1,-0.155237,-0.000693, 9.805421,1,0
1778107680803,   732.282,   732.282,-0.008506, 0.015068,-0.903421,-0.000357, 0.000205,-0.008929,-0.230622, 0.167852, 0.945990,1, 0.126280,-0.059298, 0.074645,1,-0.145355, 0.024058, 9.805543,1,0
1778107680825,   732.307,   732.302, 0.009528,-0.002402,-1.014174, 0.000214, 0.000027,-0.009857, 0.161864,-0.054875, 0.697104,1, 0.136935,-0.007953, 0.048263,1,-0.138777, 0.050085, 9.805540,1,0
1778107680848,   732.327,   732.327, 0.013781, 0.007153,-1.046863, 0.000018, 0.000037,-0.010834, 0.002069, 0.156375,-0.460854,1, 0.126771, 0.021292, 0.062615,1,-0.133548, 0.090140, 9.805326,1,0
1778107680873,   732.352,   732.352,-0.027269,-0.007426,-1.007313,-0.000430,-0.000079,-0.009737,-0.402634, 0.042345,-0.073332,1, 0.162105, 0.017166, 0.056914,1,-0.135727, 0.120250, 9.804974,1,0
1778107680895,   732.377,   732.372,-0.022560,-0.010901,-0.847932, 0.000046,-0.000099,-0.008571, 0.088208, 0.362035, 0.771346,1, 0.177703, 0.059361, 0.030548,1,-0.144226, 0.152045, 9.804411,1,0
1778107680918,   732.402,   732.397,-0.053664,-0.006916,-1.016703,-0.000547,-0.000037,-0.010206,-0.663790, 0.136782,-0.166901,1, 0.180576,-0.016592, 0.018257,1,-0.136996, 0.210252, 9.803439,1,0
1778107680944,   732.422,   732.422, 0.018312,-0.042409,-1.109502, 0.000201,-0.000426,-0.010980, 0.039495,-0.169332,-1.077950,1, 0.228885,-0.011354, 0.007270,1,-0.139724, 0.253703, 9.802372,1,0
1778107680965,   732.447,   732.442, 0.016929,-0.061196,-0.887871,-0.000040,-0.000440,-0.008506,-0.206340, 0.123270, 1.254139,1, 0.192460, 0.035684, 0.020258,1,-0.140293, 0.288045, 9.801414,1,0
1778107680988,   732.472,   732.467, 0.016163, 0.006084,-0.939982, 0.000240, 0.000120,-0.009341, 0.013923, 0.397397, 0.581686,1, 0.165301,-0.007298, 0.022936,1,-0.144334, 0.342904, 9.799590,1,0
1778107681014,   732.492,   732.492, 0.001389,-0.040839,-1.043012,-0.000042,-0.000379,-0.010220,-0.132518,-0.023604,-0.430139,1, 0.206210, 0.012752, 0.023552,1,-0.146506, 0.383328, 9.798060,1,0
1778107681035,   732.517,   732.512, 0.024986,-0.031586,-0.913491, 0.000234,-0.000280,-0.009047,-0.198310, 0.143927,-0.115563,1, 0.149453, 0.023124, 0.032029,1,-0.145985, 0.412693, 9.796875,1,0
1778107681058,   732.542,   732.537,-0.012074,-0.025260,-0.946647,-0.000140,-0.000383,-0.009544,-0.269409, 0.202134, 0.511728,1, 0.083643,-0.012889, 0.047846,1,-0.150524, 0.452472, 9.795050,1,0
1778107681084,   732.562,   732.562,-0.027684,-0.082325,-1.089460,-0.000277,-0.000782,-0.010727,-0.418803,-0.330760,-0.889998,1, 0.140833,-0.004919, 0.038091,1,-0.147105, 0.480985, 9.793743,1,0
1778107681105,   732.587,   732.582,-0.021687,-0.049176,-0.997371,-0.000205,-0.000407,-0.009763,-0.518675, 0.150414,-0.071259,1, 0.088533,-0.016914, 0.039629,1,-0.140789, 0.497490, 9.793011,1,0
1778107681128,   732.612,   732.607,-0.022848,-0.052199,-0.932581,-0.000019,-0.000566,-0.009699,-0.360262, 0.015013, 0.646041,1, 0.038463,-0.066057, 0.031929,1,-0.134091, 0.528119, 9.791501,1,0
1778107681154,   732.632,   732.632,-0.012346,-0.084596,-0.958363,-0.000130,-0.000815,-0.009093,-0.249307,-0.283371, 0.392256,1, 0.138728,-0.010621, 0.014672,1,-0.127874, 0.550558, 9.790348,1,0
1778107681175,   732.657,   732.652,-0.011642,-0.018113,-0.948740,-0.000191,-0.000144,-0.009343,-0.153283, 0.167490, 0.044236,1, 0.031746,-0.046029, 0.031093,1,-0.122262, 0.561595, 9.789793,1,0
1778107681198,   732.682,   732.677, 0.036853,-0.040348,-1.104472, 0.000381,-0.000394,-0.011370, 0.238945, 0.193446,-1.042998,1, 0.040718, 0.000257, 0.030056,1,-0.122416, 0.590408, 9.788095,1,0
1778107681224,   732.702,   732.702,-0.011731,-0.051367,-0.825995,-0.000162,-0.000268,-0.007965,-0.232239, 0.098850, 1.687169,1, 0.153413,-0.021035, 0.029833,1,-0.116490, 0.607383, 9.787129,1,0
1778107681245,   732.727,   732.722,-0.033211,-0.040494,-0.886647,-0.000250,-0.000441,-0.008986, 0.315331,-0.039929, 0.262685,1, 0.021742,-0.035182, 0.020812,1,-0.113870, 0.622196, 9.786229,1,0
1778107681268,   732.752,   732.752,-0.005926,-0.079602,-1.243059,-0.000222,-0.000837,-0.012411,-0.162957,-0.136159,-2.405360,1, 0.063218, 0.039216, 0.027829,1,-0.106008, 0.646445, 9.784746,1,0
1778107681294,   732.772,   732.772,-0.014762,-0.033237,-0.935608,-0.000366,-0.000443,-0.009540,-0.254572, 0.322982, 0.609361,1, 0.067113, 0.045211, 0.039432,1,-0.111130, 0.651026, 9.784386,1,0
1778107681316,   732.797,   732.792,-0.026737,-0.040347,-0.805928,-0.000168,-0.000353,-0.008282,-0.130774, 0.220809, 0.335868,1, 0.039321, 0.014321, 0.030391,1,-0.115287, 0.670580, 9.783017,1,0
1778107681343,   732.822,   732.822,-0.001468,-0.083237,-1.120896,-0.000157,-0.000993,-0.010891,-0.121073,-0.126481,-1.210464,1, 0.110527, 0.006381, 0.022722,1,-0.106822, 0.693240, 9.781533,1,0
1778107681364,   732.847,   732.842,-0.038440,-0.058802,-0.904647,-0.000336,-0.000424,-0.008801,-0.195492, 0.578235, 0.052940,1, 0.048751, 0.013276, 0.046834,1,-0.109889, 0.701425, 9.780915,1,0
1778107681386,   732.867,   732.862, 0.061113,-0.022330,-1.004930, 0.000421,-0.000311,-0.010109,-0.096505, 0.009576,-1.015577,1, 0.141539, 0.056946, 0.026348,1,-0.115574, 0.731715, 9.778631,1,0
1778107681413,   732.892,   732.892,-0.053733,-0.073978,-0.882049,-0.000571,-0.000531,-0.008356,-0.646546, 0.028289, 1.126964,1, 0.198607,-0.001205, 0.043037,1,-0.119465, 0.759963, 9.776429,1,0
1778107681434,   732.917,   732.912, 0.004219,-0.031464,-0.939753, 0.000001,-0.000315,-0.009478, 0.110679, 0.200609,-1.658608,1, 0.037622, 0.011345, 0.041877,1,-0.123193, 0.777458, 9.775007,1,0
1778107681456,   732.937,   732.932, 0.006013,-0.054581,-1.154397,-0.000243,-0.000587,-0.011328,-1.010556,-0.337366, 0.050253,1, 0.168237,-0.045278, 0.070411,1,-0.115499, 0.798238, 9.773426,1,0
1778107681483,   732.962,   732.962, 0.028886,-0.057319,-0.827756, 0.000134,-0.000442,-0.008190, 0.169450, 0.250502, 1.654752,1, 0.094612,-0.021175, 0.076120,1,-0.112965, 0.815580, 9.772024,1,0
1778107681504,   732.987,   732.982, 0.017952,-0.009164,-0.938225, 0.000192,-0.000133,-0.009552, 0.263798, 0.128011,-0.257371,1, 0.020556, 0.013938, 0.068746,1,-0.109907, 0.831919, 9.770681,1,0
1778107681526,   733.007,   733.002,-0.018013,-0.100830,-1.136996,-0.000266,-0.000992,-0.011062, 0.017005, 0.024543, 1.267953,1, 0.106232,-0.025307, 0.084112,1,-0.106705, 0.841713, 9.769878,1,0
1778107681553,   733.032,   733.032, 0.001652,-0.014368,-0.918552,-0.000052,-0.000100,-0.009652,-0.090772, 0.710266, 0.761139,1, 0.012754, 0.028686, 0.103800,1,-0.107582, 0.851595, 9.769012,1,0
1778107681574,   733.057,   733.052, 0.030878,-0.062877,-1.056090, 0.000165,-0.000615,-0.010586,-0.453183,-0.173180,-0.610037,1, 0.037661, 0.006587, 0.113721,1,-0.103768, 0.866523, 9.767740,1,0
1778107681596,   733.077,   733.072,-0.022963,-0.099337,-0.892497,-0.000190,-0.000793,-0.008662,-0.062216, 0.622683, 1.230370,1,-0.011364, 0.023983, 0.117701,1,-0.105912, 0.860854, 9.768219,1,0
1778107681623,   733.102,   733.102, 0.033506,-0.065602,-1.130357, 0.000105,-0.000645,-0.011170, 0.227499, 0.219923,-1.316959,1,-0.071948, 0.023937, 0.118414,1,-0.101501, 0.861064, 9.768247,1,0
1778107681644,   733.127,   733.122,-0.017286,-0.078086,-0.986135,-0.000376,-0.000868,-0.009943,-0.134310,-0.090257,-0.540636,1, 0.040080, 0.007834, 0.138834,1,-0.104782, 0.862535, 9.768083,1,0
1778107681666,   733.147,   733.142, 0.024124,-0.030412,-0.792073,-0.000011,-0.000145,-0.007974,-0.053197, 0.468114, 0.425250,1,-0.053238, 0.010419, 0.114514,1,-0.105775, 0.854435, 9.768784,1,0
1778107681693,   733.172,   733.172,-0.011297,-0.105233,-0.897496,-0.000219,-0.001054,-0.009108,-0.205617,-0.175774, 0.967315,1,-0.037369,-0.047506, 0.135984,1,-0.092982, 0.855089, 9.768857,1,0
1778107681714,   733.197,   733.192, 0.047301,-0.086090,-1.301323, 0.000435,-0.000891,-0.012840, 0.049617, 0.454963,-1.406053,1, 0.020783, 0.004554, 0.105837,1,-0.083121, 0.849248, 9.769455,1,0
1778107681736,   733.217,   733.212,-0.017226,-0.026890,-0.934644,-0.000107,-0.000177,-0.009656, 0.202169,-0.087005,-1.196436,1,-0.047881, 0.052155, 0.129896,1,-0.089880, 0.848354, 9.769473,1,0
1778107681763,   733.242,   733.242, 0.024458,-0.098681,-0.856399, 0.000119,-0.000875,-0.008421, 0.150098,-0.107487, 1.370033,1, 0.063912, 0.000875, 0.091404,1,-0.089527, 0.862255, 9.768259,1,0
