Time,GPS_ts,fGPS_ts,scaledAccelX,scaledAccelY,scaledAccelZ,deltaVelX,deltaVelY,deltaVelZ,estLinearAccelX,estLinearAccelY,estLinearAccelZ,estLinearAccel:valid,estAngularRateX,estAngularRateY,estAngularRateZ,estAngularRate:valid,estGravityX,estGravityY,estGravityZ,estGravity:valid,flag
1778107564022,   601.017,   601.017, 0.011737,-0.017324,-0.995703, 0.000118,-0.000173,-0.009957,-0.001361,-0.051802, 0.040736,1, 0.008621,-0.000055, 0.000067,1,-0.116463, 0.118354, 9.805244,1,0
1778107564022,   601.042,   601.037, 0.012388,-0.017579,-0.995140, 0.000124,-0.000173,-0.009951, 0.005764,-0.049777, 0.044242,1, 0.008234,-0.000170, 0.000176,1,-0.116414, 0.119941, 9.805225,1,0
1778107564022,   601.062,   601.062, 0.011207,-0.017451,-0.996850, 0.000115,-0.000177,-0.009970,-0.006549,-0.048963, 0.029436,1, 0.008655, 0.000480,-0.000313,1,-0.116470, 0.122445, 9.805194,1,0
1778107564022,   601.087,   601.087, 0.011904,-0.018010,-0.995792, 0.000117,-0.000177,-0.009958, 0.000236,-0.052881, 0.039796,1, 0.007864, 0.000369,-0.000133,1,-0.116514, 0.123980, 9.805174,1,0
1778107564022,   601.112,   601.107, 0.011704,-0.018443,-0.995658, 0.000116,-0.000184,-0.009956,-0.009442,-0.049955, 0.036995,1, 0.007780, 0.000069,-0.000313,1,-0.116507, 0.125440, 9.805156,1,0
1778107564022,   601.137,   601.137, 0.011710,-0.019032,-0.995504, 0.000117,-0.000188,-0.009957,-0.001500,-0.059304, 0.042568,1, 0.007080,-0.000809, 0.000047,1,-0.116315, 0.127561, 9.805130,1,0
1778107564022,   601.162,   601.157, 0.011026,-0.019404,-0.995929, 0.000114,-0.000192,-0.009958,-0.002757,-0.050003, 0.036699,1, 0.006832,-0.001234,-0.000223,1,-0.116207, 0.128220, 9.805123,1,0
1778107564022,   601.187,   601.182, 0.011303,-0.019334,-0.995795, 0.000114,-0.000193,-0.009958,-0.005217,-0.058422, 0.039671,1, 0.004281, 0.000277,-0.000170,1,-0.115993, 0.132658, 9.805067,1,0
1778107564022,   601.212,   601.207, 0.011864,-0.018576,-0.996088, 0.000118,-0.000185,-0.009959,-0.008867,-0.057760, 0.041174,1, 0.003659, 0.000588, 0.000519,1,-0.115895, 0.133467, 9.805057,1,0
1778107564022,   601.232,   601.227, 0.011646,-0.019114,-0.995500, 0.000118,-0.000192,-0.009957,-0.003278,-0.052694, 0.039008,1, 0.003146, 0.000365, 0.000283,1,-0.115919, 0.134252, 9.805046,1,0
1778107564022,   601.252,   601.247, 0.012155,-0.019768,-0.995394, 0.000121,-0.000196,-0.009955, 0.004151,-0.057920, 0.039723,1, 0.002575, 0.000112,-0.000366,1,-0.115970, 0.134806, 9.805037,1,0
1778107564033,   615.517,   615.517, 0.011950,-0.000077,-0.996186, 0.000119,-0.000001,-0.009960,-0.004846,-0.062622, 0.036448,1, 0.004959,-0.000053,-0.000530,1,-0.122033,-0.061713, 9.805696,1,0
1778107564055,   615.542,   615.537, 0.011844, 0.000360,-0.996355, 0.000119, 0.000005,-0.009962,-0.004816,-0.057627, 0.039560,1, 0.004962,-0.000071, 0.000152,1,-0.121899,-0.060751, 9.805704,1,0
1778107564076,   615.562,   615.557, 0.011570, 0.000077,-0.996336, 0.000118, 0.000001,-0.009961,-0.013804,-0.060173, 0.043743,1, 0.005320, 0.000111,-0.000203,1,-0.121937,-0.059810, 9.805710,1,0
1778107564103,   615.587,   615.587, 0.011935,-0.000526,-0.996348, 0.000119,-0.000004,-0.009961,-0.004921,-0.062408, 0.034892,1, 0.005444, 0.000376,-0.000926,1,-0.121906,-0.055427, 9.805736,1,0
1778107564125,   615.612,   615.607, 0.011744,-0.000290,-0.995831, 0.000118,-0.000002,-0.009959,-0.005246,-0.053056, 0.042913,1, 0.005587,-0.000431,-0.000136,1,-0.121777,-0.054345, 9.805743,1,0
1778107564148,   615.632,   615.632, 0.010999,-0.001386,-0.995812, 0.000111,-0.000011,-0.009958,-0.013937,-0.066509, 0.040173,1, 0.005171,-0.000150,-0.000432,1,-0.121798,-0.052753, 9.805752,1,0
1778107564173,   615.657,   615.657, 0.011164,-0.001719,-0.996383, 0.000112,-0.000019,-0.009965,-0.012348,-0.068858, 0.034577,1, 0.004114, 0.000008, 0.000203,1,-0.121829,-0.051876, 9.805756,1,0
1778107564195,   615.682,   615.677, 0.012100,-0.001101,-0.995834, 0.000121,-0.000010,-0.009955,-0.007827,-0.065053, 0.037497,1, 0.003873,-0.000141,-0.000684,1,-0.121806,-0.051152, 9.805760,1,0
1778107564218,   615.702,   615.702, 0.011945,-0.000872,-0.995910, 0.000122,-0.000008,-0.009957,-0.004711,-0.058924, 0.039227,1, 0.002728,-0.000477,-0.000160,1,-0.121838,-0.050287, 9.805764,1,0
1778107564243,   615.727,   615.727, 0.012740,-0.000812,-0.996129, 0.000126,-0.000006,-0.009962, 0.003050,-0.057640, 0.037075,1, 0.004377, 0.000260,-0.000050,1,-0.121894,-0.049541, 9.805767,1,0
1778107564265,   615.752,   615.747, 0.012039,-0.001316,-0.996167, 0.000120,-0.000014,-0.009960,-0.000473,-0.060854, 0.038753,1, 0.002971, 0.000226,-0.000223,1,-0.121983,-0.048906, 9.805769,1,0
1778107564288,   615.772,   615.772, 0.012553,-0.002137,-0.996006, 0.000124,-0.000020,-0.009959, 0.001068,-0.069076, 0.038292,1, 0.002652,-0.000094,-0.000453,1,-0.122033,-0.048033, 9.805773,1,0
1778107564314,   615.797,   615.797, 0.012117,-0.002474,-0.995971, 0.000120,-0.000025,-0.009961,-0.003181,-0.069219, 0.038651,1, 0.001960, 0.000712,-0.000660,1,-0.122020,-0.044788, 9.805789,1,0
1778107564335,   615.822,   615.817, 0.011848,-0.001948,-0.995979, 0.000120,-0.000017,-0.009961,-0.000619,-0.063887, 0.039275,1, 0.000140, 0.000022,-0.000056,1,-0.122018,-0.044607, 9.805789,1,0
1778107564358,   615.842,   615.842, 0.012608,-0.001663,-0.996196, 0.000123,-0.000016,-0.009963, 0.001582,-0.061025, 0.036441,1,-0.001474,-0.000141, 0.000081,1,-0.122057,-0.044761, 9.805788,1,0
1778107564384,   615.867,   615.867, 0.013092,-0.001784,-0.995934, 0.000127,-0.000016,-0.009959, 0.006353,-0.062375, 0.039006,1,-0.000399,-0.000369,-0.000295,1,-0.122022,-0.044891, 9.805788,1,0
1778107564405,   615.892,   615.887, 0.013100,-0.002234,-0.995184, 0.000129,-0.000026,-0.009952, 0.008854,-0.073368, 0.045985,1,-0.001160,-0.000318,-0.000342,1,-0.121935,-0.045083, 9.805788,1,0
1778107564428,   615.912,   615.912, 0.013595,-0.001753,-0.996361, 0.000134,-0.000018,-0.009964, 0.011336,-0.063027, 0.034818,1,-0.002994, 0.000906,-0.000479,1,-0.122013,-0.045928, 9.805783,1,0
1778107564454,   615.937,   615.937, 0.013996,-0.000945,-0.995312, 0.000138,-0.000009,-0.009959, 0.015228,-0.055725, 0.045105,1,-0.002896, 0.000044,-0.000313,1,-0.122029,-0.046547, 9.805780,1,0
1778107564475,   615.962,   615.957, 0.012797,-0.001014,-0.995928, 0.000127,-0.000011,-0.009961, 0.011979,-0.060959, 0.043125,1,-0.003061, 0.000177,-0.000961,1,-0.121990,-0.047218, 9.805778,1,0
1778107564498,   615.987,   615.982, 0.012055,-0.002115,-0.996223, 0.000119,-0.000022,-0.009961,-0.003889,-0.067696, 0.036164,1,-0.003195, 0.000273, 0.000017,1,-0.122208,-0.045511, 9.805783,1,0
1778107564524,   616.007,   616.007, 0.011691,-0.000304,-0.996374, 0.000119,-0.000006,-0.009964,-0.007569,-0.049134, 0.034690,1,-0.003605, 0.000338, 0.000058,1,-0.122226,-0.046260, 9.805779,1,0
1778107564545,   616.032,   616.027, 0.011132,-0.001899,-0.995392, 0.000112,-0.000018,-0.009955,-0.012482,-0.058445, 0.036892,1,-0.004327,-0.000400,-0.000265,1,-0.122233,-0.047029, 9.805776,1,0
1778107564568,   616.057,   616.052, 0.010655,-0.003837,-0.995663, 0.000103,-0.000039,-0.009956,-0.017707,-0.085967, 0.041652,1,-0.005810, 0.000007,-0.000930,1,-0.122198,-0.048523, 9.805769,1,0
1778107564594,   616.077,   616.077, 0.011732,-0.001638,-0.996365, 0.000119,-0.000021,-0.009965,-0.007187,-0.065736, 0.034756,1,-0.007945,-0.000254,-0.000584,1,-0.122233,-0.049919, 9.805761,1,0
1778107564615,   616.102,   616.097, 0.012696,-0.001194,-0.995446, 0.000125,-0.000012,-0.009954,-0.000197,-0.063586, 0.044067,1,-0.008346, 0.000689,-0.000931,1,-0.122326,-0.051589, 9.805752,1,0
1778107564638,   616.127,   616.122, 0.012168,-0.002044,-0.995084, 0.000123,-0.000020,-0.009952,-0.002984,-0.074149, 0.047296,1,-0.010765, 0.000282,-0.001219,1,-0.122317,-0.054441, 9.805736,1,0
1778107564664,   616.147,   616.147, 0.012452, 0.000790,-0.997314, 0.000124, 0.000004,-0.009972,-0.000259,-0.048451, 0.025418,1,-0.010554, 0.000044,-0.000024,1,-0.122371,-0.056523, 9.805723,1,0
1778107564686,   616.172,   616.167, 0.012417, 0.002345,-0.995854, 0.000123, 0.000023,-0.009960,-0.000075,-0.036521, 0.035732,1,-0.010608, 0.000195,-0.000340,1,-0.122436,-0.058578, 9.805711,1,0
1778107564708,   616.197,   616.192, 0.012793, 0.000377,-0.995197, 0.000129, 0.000003,-0.009950, 0.003269,-0.054818, 0.046164,1,-0.009500,-0.000739,-0.000352,1,-0.122159,-0.058710, 9.805714,1,0
1778107564734,   616.217,   616.217, 0.011593, 0.001337,-0.996253, 0.000119, 0.000012,-0.009962,-0.008448,-0.047124, 0.035800,1,-0.008646, 0.000509, 0.000252,1,-0.122150,-0.060501, 9.805702,1,0
1778107564756,   616.242,   616.237, 0.011212, 0.002064,-0.995783, 0.000112, 0.000021,-0.009959,-0.008796,-0.043150, 0.035251,1,-0.007272,-0.000263,-0.000459,1,-0.122158,-0.062057, 9.805693,1,0
1778107564778,   616.267,   616.262, 0.011081,-0.000001,-0.995061, 0.000110, 0.000002,-0.009950,-0.013549,-0.064085, 0.047462,1,-0.007838, 0.000222,-0.000307,1,-0.122222,-0.064325, 9.805677,1,0
1778107564804,   616.287,   616.287, 0.011245, 0.000699,-0.996182, 0.000111, 0.000004,-0.009964,-0.012003,-0.058821, 0.036455,1,-0.008105,-0.000111,-0.000352,1,-0.122275,-0.065927, 9.805666,1,0
1778107564826,   616.312,   616.307, 0.012110, 0.003004,-0.996475, 0.000119, 0.000028,-0.009963,-0.001227,-0.040223, 0.033524,1,-0.008519, 0.000325, 0.000165,1,-0.122268,-0.067593, 9.805655,1,0
1778107564853,   616.337,   616.337, 0.012980, 0.002194,-0.996796, 0.000130, 0.000023,-0.009966, 0.004809,-0.048030, 0.030409,1,-0.006881, 0.001180, 0.000016,1,-0.122519,-0.069761, 9.805636,1,0
1778107564874,   616.357,   616.357, 0.013510, 0.002034,-0.995727, 0.000135, 0.000021,-0.009958, 0.009871,-0.050878, 0.040882,1,-0.005639, 0.000964,-0.000061,1,-0.122645,-0.071002, 9.805626,1,0
1778107564896,   616.382,   616.377, 0.012916, 0.003465,-0.995523, 0.000127, 0.000034,-0.009957, 0.006417,-0.042720, 0.047331,1,-0.003595,-0.000370,-0.000385,1,-0.122736,-0.071811, 9.805619,1,0
1778107564923,   616.407,   616.407, 0.013578, 0.002122,-0.997134, 0.000133, 0.000022,-0.009971, 0.010475,-0.048410, 0.027092,1,-0.001607, 0.000979,-0.000287,1,-0.122714,-0.069263, 9.805637,1,0
1778107564944,   616.432,   616.427, 0.012808, 0.002696,-0.995641, 0.000132, 0.000026,-0.009958, 0.007242,-0.042764, 0.035860,1,-0.001019,-0.000334,-0.000132,1,-0.122791,-0.069358, 9.805635,1,0
1778107564966,   616.452,   616.447, 0.011639, 0.002287,-0.995518, 0.000119, 0.000022,-0.009950,-0.005422,-0.042494, 0.049282,1, 0.001023, 0.000179,-0.001118,1,-0.122787,-0.069285, 9.805636,1,0
1778107564993,   616.477,   616.477, 0.011785, 0.002651,-0.996718, 0.000118, 0.000029,-0.009969,-0.007218,-0.042492, 0.031180,1, 0.004410,-0.000495,-0.002219,1,-0.122773,-0.068350, 9.805643,1,0
1778107565014,   616.502,   616.497, 0.012671, 0.004026,-0.995743, 0.000126, 0.000040,-0.009958,-0.007362,-0.030196, 0.038961,1, 0.007582,-0.000594,-0.003323,1,-0.122652,-0.066974, 9.805655,1,0
1778107565036,   616.522,   616.517, 0.013832, 0.002539,-0.996138, 0.000138, 0.000029,-0.009963, 0.008523,-0.030901, 0.042669,1, 0.010637,-0.000329,-0.003752,1,-0.122572,-0.064962, 9.805669,1,0
1778107565065,   616.547,   616.547, 0.014146, 0.001500,-0.996041, 0.000142, 0.000013,-0.009963, 0.016410,-0.046636, 0.037865,1, 0.014600,-0.000832,-0.005209,1,-0.122286,-0.060896, 9.805698,1,0
1778107565085,   616.572,   616.567, 0.013998, 0.001858,-0.995449, 0.000141, 0.000019,-0.009951, 0.013248,-0.044106, 0.046114,1, 0.016112,-0.001245,-0.005071,1,-0.122074,-0.057820, 9.805719,1,0
1778107565106,   616.592,   616.587, 0.013674,-0.001351,-0.996512, 0.000137,-0.000010,-0.009964, 0.012277,-0.050715, 0.040272,1, 0.016597,-0.000626,-0.006152,1,-0.122012,-0.052033, 9.805753,1,0
1778107565133,   616.617,   616.617, 0.012856,-0.002789,-0.996429, 0.000128,-0.000029,-0.009967, 0.004267,-0.075096, 0.034150,1, 0.015530,-0.000616,-0.005150,1,-0.121784,-0.047258, 9.805779,1,0
1778107565155,   616.642,   616.637, 0.012689, 0.000704,-0.996849, 0.000128, 0.000005,-0.009968,-0.002379,-0.051194, 0.037638,1, 0.013611,-0.000462,-0.004323,1,-0.121705,-0.044521, 9.805794,1,0
1778107565176,   616.662,   616.657, 0.013368, 0.001448,-0.996331, 0.000133, 0.000018,-0.009962, 0.004777,-0.022839, 0.032058,1, 0.012644,-0.000780,-0.003373,1,-0.121655,-0.041958, 9.805805,1,0
1778107565203,   616.687,   616.687, 0.012432, 0.000715,-0.995282, 0.000125, 0.000007,-0.009953, 0.000276,-0.031910, 0.045433,1, 0.011017,-0.000092,-0.001116,1,-0.121635,-0.038577, 9.805820,1,0
1778107565225,   616.712,   616.707, 0.011376,-0.001537,-0.996444, 0.000113,-0.000013,-0.009964,-0.006907,-0.042288, 0.034201,1, 0.011684,-0.000208, 0.000479,1,-0.121684,-0.036313, 9.805828,1,0
1778107565246,   616.732,   616.727, 0.011432,-0.006692,-0.995099, 0.000113,-0.000060,-0.009945,-0.015033,-0.060483, 0.037875,1, 0.008951, 0.000624, 0.000891,1,-0.121657,-0.034354, 9.805835,1,0
1778107565273,   616.757,   616.757, 0.011695,-0.012307,-0.994208, 0.000118,-0.000123,-0.009955,-0.006833,-0.154763, 0.055989,1,-0.003979, 0.000624, 0.002371,1,-0.121547,-0.034196, 9.805837,1,0
1778107565295,   616.777,   616.777, 0.011415,-0.008585,-0.993858, 0.000116,-0.000090,-0.009956,-0.009713,-0.120262, 0.059409,1,-0.015826, 0.000944, 0.004818,1,-0.121686,-0.036567, 9.805827,1,0
1778107565316,   616.802,   616.797, 0.012278,-0.003180,-0.998377, 0.000122,-0.000039,-0.009974,-0.008837,-0.080201, 0.037434,1,-0.021713, 0.000010, 0.005231,1,-0.121956,-0.038175, 9.805818,1,0
1778107565343,   616.827,   616.827, 0.011751,-0.001080,-0.998683, 0.000117,-0.000015,-0.009980,-0.006790,-0.055109, 0.012054,1,-0.022725, 0.001226, 0.004614,1,-0.122069,-0.045224, 9.805786,1,0
1778107565365,   616.852,   616.847, 0.010559, 0.004165,-0.994388, 0.000107, 0.000039,-0.009941,-0.018942,-0.014610, 0.081831,1,-0.016803, 0.000872, 0.000663,1,-0.122385,-0.048893, 9.805764,1,0
1778107565388,   616.872,   616.872, 0.011658, 0.003247,-0.999348, 0.000117, 0.000033,-0.009994,-0.007828,-0.020717, 0.005490,1,-0.012061,-0.000778, 0.000419,1,-0.122129,-0.052934, 9.805747,1,0
1778107565413,   616.897,   616.897, 0.012565, 0.005025,-0.998338, 0.000129, 0.000049,-0.009990, 0.000931,-0.005078, 0.015383,1,-0.006487, 0.000675, 0.000287,1,-0.122312,-0.054559, 9.805736,1,0
1778107565435,   616.922,   616.917, 0.011753,-0.004903,-0.994722, 0.000107,-0.000041,-0.009868, 0.005079,-0.055615, 0.111328,1,-0.001142, 0.001037,-0.001902,1,-0.122536,-0.055200, 9.805729,1,0
1778107565458,   616.942,   616.942, 0.013976,-0.006743,-1.010273, 0.000133,-0.000041,-0.010080, 0.014536,-0.123638,-0.101684,1,-0.006282,-0.001070,-0.002273,1,-0.122489,-0.057707, 9.805716,1,0
1778107565483,   616.967,   616.967, 0.016978, 0.013133,-0.996033, 0.000165, 0.000111,-0.009943, 0.044099, 0.070101, 0.037963,1,-0.006939,-0.001979, 0.002587,1,-0.122337,-0.058909, 9.805710,1,0
1778107565505,   616.992,   616.987, 0.015074, 0.010238,-0.987468, 0.000157, 0.000130,-0.009892, 0.094769, 0.143968, 0.125614,1, 0.003748, 0.003333, 0.003294,1,-0.122377,-0.056203, 9.805725,1,0
1778107565528,   617.012,   617.012, 0.010014,-0.006469,-0.998195, 0.000110,-0.000051,-0.010001,-0.024268,-0.116032, 0.016797,1, 0.019761,-0.000418,-0.001390,1,-0.122457,-0.051975, 9.805748,1,0
1778107565554,   617.037,   617.037, 0.013554, 0.001103,-1.007096, 0.000122, 0.000009,-0.010053, 0.014441,-0.085381,-0.023889,1, 0.022088,-0.003010, 0.000927,1,-0.122232,-0.049995, 9.805760,1,0
1778107565575,   617.062,   617.057, 0.025471, 0.003689,-0.992997, 0.000240, 0.000037,-0.009903, 0.117825, 0.028427,-0.031496,1, 0.032926,-0.003344,-0.004864,1,-0.121267,-0.042079, 9.805810,1,0
1778107565598,   617.082,   617.082, 0.023523,-0.001669,-0.987478, 0.000236,-0.000019,-0.009879, 0.109528,-0.048965, 0.121994,1, 0.037975, 0.000153,-0.004111,1,-0.121158,-0.031412, 9.805851,1,0
1778107565624,   617.107,   617.107, 0.014277,-0.000234,-0.995959, 0.000150, 0.000006,-0.009968, 0.019044,-0.026163, 0.038854,1, 0.051505,-0.001310,-0.011166,1,-0.120923,-0.022270, 9.805880,1,0
1778107565645,   617.132,   617.127, 0.008784,-0.006821,-0.998405, 0.000090,-0.000052,-0.010010,-0.020075,-0.029968,-0.018510,1, 0.056566, 0.001435,-0.015283,1,-0.121035,-0.011264, 9.805897,1,0
1778107565668,   617.152,   617.152, 0.008796,-0.008458,-0.991984, 0.000080,-0.000083,-0.009905,-0.034417,-0.080094, 0.077870,1, 0.054128,-0.002258,-0.011694,1,-0.120603, 0.004538, 9.805907,1,0
1778107565694,   617.177,   617.177, 0.008949,-0.001112,-1.001801, 0.000094,-0.000003,-0.010024,-0.032431, 0.001882,-0.018413,1, 0.047884,-0.001643,-0.008567,1,-0.120138, 0.014281, 9.805903,1,0
1778107565715,   617.202,   617.197, 0.007172,-0.023230,-0.989848, 0.000067,-0.000215,-0.009908,-0.063501,-0.105339, 0.054174,1, 0.039248,-0.000589,-0.008302,1,-0.120990, 0.023728, 9.805875,1,0
1778107565738,   617.227,   617.222, 0.009473,-0.024411,-0.999245, 0.000090,-0.000260,-0.009998,-0.027591,-0.208326, 0.006615,1, 0.013363,-0.000626,-0.001447,1,-0.120465, 0.031480, 9.805860,1,0
1778107565764,   617.247,   617.247, 0.010384,-0.013724,-0.996356, 0.000095,-0.000148,-0.009969,-0.018725,-0.103218, 0.034948,1,-0.007271, 0.001770, 0.005201,1,-0.120613, 0.031140, 9.805859,1,0
1778107565785,   617.272,   617.267,-0.000719,-0.017736,-0.997490,-0.000003,-0.000181,-0.009947,-0.086159,-0.100574, 0.212533,1,-0.024621, 0.002885, 0.006762,1,-0.121057, 0.027635, 9.805863,1,0
1778107565808,   617.297,   617.292,-0.000969,-0.021927,-1.007507,-0.000001,-0.000216,-0.010079,-0.131080,-0.200246,-0.074382,1,-0.063805,-0.000192, 0.020659,1,-0.121570, 0.012800, 9.805888,1,0
1778107565834,   617.317,   617.317, 0.007483,-0.008496,-1.001434, 0.000059,-0.000100,-0.009994,-0.048494,-0.082920,-0.014824,1,-0.081349, 0.003062, 0.026763,1,-0.121972,-0.002131, 9.805891,1,0
1778107565856,   617.342,   617.337, 0.021897,-0.002265,-0.987420, 0.000213,-0.000039,-0.009872, 0.064744,-0.022754, 0.075452,1,-0.088846,-0.002321, 0.028507,1,-0.122098,-0.019301, 9.805871,1,0
1778107565878,   617.367,   617.362, 0.036333,-0.002585,-1.004054, 0.000362,-0.000030,-0.010026, 0.234409,-0.066307,-0.040602,1,-0.077706,-0.001668, 0.019070,1,-0.121843,-0.043376, 9.805798,1,0
1778107565904,   617.387,   617.387, 0.040258, 0.011122,-0.996373, 0.000399, 0.000102,-0.009991, 0.273209, 0.054692, 0.034665,1,-0.062785, 0.001370, 0.017349,1,-0.121446,-0.055603, 9.805740,1,0
1778107565926,   617.412,   617.407, 0.039204,-0.002036,-0.982146, 0.000398, 0.000001,-0.009812, 0.268077, 0.033644, 0.160907,1,-0.044915, 0.001665, 0.007859,1,-0.121880,-0.065333, 9.805675,1,0
1778107565948,   617.437,   617.432, 0.038110,-0.013516,-0.990427, 0.000381,-0.000119,-0.009891, 0.261446,-0.259162,-0.047571,1,-0.037651,-0.002332,-0.004907,1,-0.121499,-0.076426, 9.805599,1,0
1778107565974,   617.457,   617.457, 0.042140,-0.004598,-1.006674, 0.000423,-0.000064,-0.010074, 0.291822,-0.128564,-0.066559,1,-0.045160,-0.000179,-0.001643,1,-0.121425,-0.084887, 9.805531,1,0
1778107565996,   617.482,   617.477, 0.043507, 0.011673,-0.985625, 0.000437, 0.000121,-0.009860, 0.296033, 0.019890, 0.119583,1,-0.044744, 0.000332,-0.006019,1,-0.121430,-0.093924, 9.805449,1,0
1778107566018,   617.507,   617.502, 0.040096, 0.006201,-0.991743, 0.000403, 0.000071,-0.009914, 0.271957,-0.043002, 0.079671,1,-0.031130,-0.001401,-0.011490,1,-0.121200,-0.104787, 9.805341,1,0
1778107566044,   617.527,   617.527, 0.037707, 0.010225,-1.006731, 0.000376, 0.000087,-0.010070, 0.248462,-0.009070,-0.067370,1,-0.024721, 0.001208,-0.010471,1,-0.121348,-0.110120, 9.805281,1,0
1778107566066,   617.552,   617.547, 0.048043, 0.013143,-0.994223, 0.000470, 0.000134,-0.009944, 0.300003, 0.043730,-0.044406,1,-0.021844,-0.002834,-0.008461,1,-0.121092,-0.114450, 9.805234,1,0
1778107566093,   617.577,   617.577, 0.059360, 0.007803,-0.990007, 0.000572, 0.000072,-0.009876, 0.462152,-0.043572, 0.096531,1,-0.021750,-0.003148,-0.004651,1,-0.119874,-0.120778, 9.805174,1,0
1778107566114,   617.597,   617.597, 0.066372, 0.001688,-0.994761, 0.000653, 0.000021,-0.009950, 0.531338,-0.105806, 0.049881,1,-0.023412,-0.001991,-0.005301,1,-0.119493,-0.123018, 9.805150,1,0
1778107566136,   617.622,   617.617, 0.064794, 0.011376,-0.998294, 0.000644, 0.000109,-0.009972, 0.517902,-0.080688, 0.104751,1,-0.022241,-0.002623,-0.003235,1,-0.118945,-0.127593, 9.805099,1,0
1778107566163,   617.647,   617.647, 0.063138, 0.011239,-1.000008, 0.000635, 0.000123,-0.009982, 0.500110,-0.022161,-0.001696,1,-0.017532,-0.002587,-0.004962,1,-0.118975,-0.132931, 9.805027,1,0
1778107566184,   617.672,   617.667, 0.068439,-0.004330,-0.996269, 0.000680,-0.000037,-0.009999, 0.515750,-0.077638, 0.017992,1,-0.016717,-0.002596,-0.006195,1,-0.118666,-0.134580, 9.805009,1,0
1778107566206,   617.692,   617.687, 0.068854,-0.008686,-0.985375, 0.000687,-0.000082,-0.009886, 0.559756,-0.198853, 0.079483,1,-0.028065,-0.002482,-0.007020,1,-0.117614,-0.140915, 9.804933,1,0
1778107566233,   617.717,   617.717, 0.067814, 0.001862,-0.988582, 0.000670, 0.000005,-0.009888, 0.547498,-0.133719, 0.110090,1,-0.050139, 0.000275,-0.003189,1,-0.117534,-0.153546, 9.804744,1,0
1778107566254,   617.742,   617.737, 0.070242, 0.019379,-0.999949, 0.000696, 0.000190,-0.009991, 0.562045,-0.007471,-0.020109,1,-0.052740,-0.000104,-0.001763,1,-0.117510,-0.163863, 9.804577,1,0
1778107566276,   617.762,   617.757, 0.067729, 0.011316,-1.000767, 0.000684, 0.000118,-0.009980, 0.543900,-0.001735, 0.021594,1,-0.050513, 0.000205,-0.000747,1,-0.117523,-0.173928, 9.804403,1,0
1778107566303,   617.787,   617.787, 0.065336, 0.002400,-0.994052, 0.000647, 0.000024,-0.009923, 0.522765,-0.163300, 0.055837,1,-0.049622, 0.002439,-0.008052,1,-0.118129,-0.187405, 9.804148,1,0
1778107566325,   617.812,   617.807, 0.064602, 0.023658,-0.996105, 0.000647, 0.000224,-0.009969, 0.514616,-0.064568, 0.089404,1,-0.050734, 0.002968,-0.003254,1,-0.118494,-0.197355, 9.803947,1,0
1778107566346,   617.832,   617.827, 0.070332, 0.028840,-1.000028, 0.000702, 0.000293,-0.010012, 0.539358, 0.084909, 0.018427,1,-0.045315, 0.002800,-0.003504,1,-0.119011,-0.206540, 9.803753,1,0
1778107566374,   617.857,   617.857, 0.072601, 0.019044,-1.006652, 0.000733, 0.000193,-0.010066, 0.592949,-0.028059,-0.068315,1,-0.021239,-0.000266,-0.015401,1,-0.119001,-0.215489, 9.803560,1,0
1778107566395,   617.882,   617.877, 0.074798, 0.018736,-0.974610, 0.000753, 0.000180,-0.009740, 0.620125,-0.054064, 0.175392,1,-0.009103, 0.002154,-0.017678,1,-0.119369,-0.218001, 9.803500,1,0
1778107566416,   617.902,   617.897, 0.073024, 0.022040,-0.979748, 0.000730, 0.000222,-0.009791, 0.615305,-0.018184, 0.216189,1,-0.000405, 0.001975,-0.021648,1,-0.119816,-0.218571, 9.803482,1,0
1778107566443,   617.927,   617.927, 0.068380, 0.021129,-0.996640, 0.000690, 0.000210,-0.009975, 0.550043,-0.007814, 0.029852,1, 0.020234, 0.004214,-0.029602,1,-0.120643,-0.214400, 9.803564,1,0
1778107566465,   617.952,   617.947, 0.059916, 0.012660,-1.009097, 0.000606, 0.000127,-0.010076, 0.498276,-0.065832,-0.041641,1, 0.024233, 0.003515,-0.029244,1,-0.121382,-0.209835, 9.803654,1,0
1778107566486,   617.972,   617.967, 0.056862, 0.016720,-1.002107, 0.000580, 0.000150,-0.010003, 0.454310,-0.076438,-0.040771,1, 0.017681,-0.000209,-0.025372,1,-0.121315,-0.206105, 9.803734,1,0
1778107566513,   617.997,   617.997, 0.060070, 0.017930,-1.010056, 0.000607, 0.000182,-0.010099, 0.468879,-0.024734,-0.101408,1, 0.014199,-0.006311,-0.022939,1,-0.120005,-0.200063, 9.803875,1,0
1778107566535,   618.022,   618.017, 0.062684, 0.009358,-0.992291, 0.000611, 0.000092,-0.009947, 0.464747,-0.113082,-0.068633,1, 0.020363,-0.006298,-0.025978,1,-0.118649,-0.196279, 9.803967,1,0
1778107566556,   618.042,   618.037, 0.064645, 0.014085,-0.987004, 0.000634, 0.000145,-0.009860, 0.530667,-0.070624, 0.140866,1, 0.019204,-0.003305,-0.023240,1,-0.117947,-0.192314, 9.804054,1,0
1778107566583,   618.067,   618.067, 0.066064, 0.004133,-0.994485, 0.000650, 0.000069,-0.009956, 0.530789,-0.148111, 0.051567,1, 0.015862, 0.002046,-0.028296,1,-0.117128,-0.188162, 9.804145,1,0
1778107566605,   618.092,   618.087, 0.065828, 0.001314,-0.967791, 0.000644, 0.000024,-0.009684, 0.493184,-0.198562, 0.210834,1, 0.010903, 0.004643,-0.029008,1,-0.117864,-0.185774, 9.804182,1,0
1778107566628,   618.112,   618.112, 0.062310, 0.005789,-0.977006, 0.000648, 0.000068,-0.009778, 0.492239,-0.129214, 0.223008,1,-0.005999, 0.002111,-0.024816,1,-0.118860,-0.186177, 9.804162,1,0
1778107566653,   618.137,   618.137, 0.037817, 0.015270,-0.988635, 0.000368, 0.000153,-0.009885, 0.251495,-0.038823, 0.108908,1,-0.021055, 0.005934,-0.015033,1,-0.119540,-0.189234, 9.804095,1,0
1778107566675,   618.157,   618.157, 0.033688, 0.011597,-1.026808, 0.000313, 0.000085,-0.010258, 0.209973,-0.081078,-0.265568,1,-0.034594, 0.004467,-0.013572,1,-0.120521,-0.195889, 9.803952,1,0
1778107566698,   618.182,   618.182, 0.026410, 0.016787,-1.010500, 0.000253, 0.000146,-0.010076, 0.139091,-0.037867,-0.105796,1,-0.026903, 0.002380,-0.014750,1,-0.120101,-0.202485, 9.803823,1,0
1778107566724,   618.207,   618.207, 0.030896, 0.029691,-0.993987, 0.000327, 0.000257,-0.009970, 0.183129, 0.084764, 0.056059,1,-0.021382,-0.003245,-0.011542,1,-0.119748,-0.207071, 9.803732,1,0
1778107566745,   618.232,   618.227, 0.034198, 0.028877,-0.969486, 0.000354, 0.000265,-0.009650, 0.184826, 0.098844, 0.369098,1, 0.005957, 0.001765,-0.022088,1,-0.119723,-0.207731, 9.803719,1,0
1778107566768,   618.252,   618.252, 0.025129, 0.019133,-0.973890, 0.000284, 0.000194,-0.009733, 0.125950,-0.016783, 0.253180,1, 0.020484,-0.000079,-0.024503,1,-0.120461,-0.203781, 9.803792,1,0
1778107566794,   618.277,   618.277, 0.022873, 0.010467,-1.007703, 0.000232, 0.000111,-0.010068, 0.104021,-0.096538,-0.078298,1, 0.031609,-0.001353,-0.034142,1,-0.120225,-0.198210, 9.803909,1,0
1778107566815,   618.302,   618.297, 0.017132, 0.012697,-1.021122, 0.000184, 0.000123,-0.010216, 0.054315,-0.072346,-0.232220,1, 0.030211,-0.005185,-0.035300,1,-0.119306,-0.191866, 9.804047,1,0
1778107566838,   618.322,   618.322, 0.023316, 0.009383,-1.018516, 0.000243, 0.000084,-0.010189, 0.111763,-0.094588,-0.184052,1, 0.010896,-0.007937,-0.025039,1,-0.116622,-0.186271, 9.804187,1,0
1778107566864,   618.347,   618.347, 0.019861, 0.010292,-0.987291, 0.000226, 0.000096,-0.009894, 0.079161,-0.084932, 0.122188,1, 0.002367,-0.004770,-0.019335,1,-0.115446,-0.185792, 9.804211,1,0
1778107566885,   618.372,   618.367, 0.032536, 0.020890,-0.969628, 0.000331, 0.000200,-0.009683, 0.117352,-0.031119, 0.199496,1,-0.003223, 0.002089,-0.015788,1,-0.115304,-0.185925, 9.804210,1,0
1778107566908,   618.392,   618.392, 0.038045, 0.028354,-0.969271, 0.000376, 0.000285,-0.009679, 0.255565, 0.090856, 0.298858,1,-0.019803, 0.006961, 0.003546,1,-0.117776,-0.187746, 9.804145,1,0
1778107566934,   618.417,   618.417, 0.031923, 0.021349,-0.980131, 0.000336, 0.000215,-0.009811, 0.194672, 0.017139, 0.192253,1,-0.031440, 0.002116, 0.016711,1,-0.118461,-0.193199, 9.804031,1,0
1778107566955,   618.442,   618.437, 0.028228, 0.014250,-1.019706, 0.000289, 0.000158,-0.010213, 0.153254,-0.043344,-0.177931,1,-0.043546, 0.010856, 0.024376,1,-0.119534,-0.200998, 9.803862,1,0
1778107566978,   618.467,   618.462, 0.023164, 0.019661,-1.012138, 0.000241, 0.000190,-0.010137, 0.106764,-0.021834,-0.122124,1,-0.057904,-0.004142, 0.038902,1,-0.120296,-0.216435, 9.803523,1,0
1778107567004,   618.487,   618.487, 0.017362, 0.018852,-1.012663, 0.000202, 0.000204,-0.010156, 0.050686,-0.042531,-0.127550,1,-0.069800,-0.004372, 0.043751,1,-0.119469,-0.229568, 9.803235,1,0
1778107567025,   618.512,   618.507, 0.034651, 0.026844,-0.972597, 0.000316, 0.000237,-0.009744, 0.122704,-0.043762, 0.089170,1,-0.055134,-0.002030, 0.035235,1,-0.119141,-0.241841, 9.802943,1,0
1778107567048,   618.537,   618.532, 0.039227, 0.040549,-0.954783, 0.000398, 0.000402,-0.009512, 0.265167, 0.143040, 0.439390,1,-0.041561,-0.001039, 0.039499,1,-0.119514,-0.255892, 9.802583,1,0
1778107567074,   618.557,   618.557, 0.035525, 0.049045,-0.984471, 0.000403, 0.000488,-0.009829, 0.229873, 0.220312, 0.148109,1,-0.020413,-0.011051, 0.033878,1,-0.118195,-0.261280, 9.802456,1,0
1778107567096,   618.582,   618.577, 0.032499, 0.022127,-1.042627, 0.000310, 0.000241,-0.010437, 0.125224, 0.069402,-0.375492,1, 0.008504,-0.010119, 0.019462,1,-0.116001,-0.260835, 9.802494,1,0
1778107567118,   618.607,   618.602, 0.026024, 0.006350,-1.028316, 0.000262, 0.000074,-0.010265, 0.140254,-0.195368,-0.281747,1, 0.022594,-0.010349, 0.017513,1,-0.114647,-0.256931, 9.802613,1,0
1778107567144,   618.627,   618.627, 0.027189, 0.011563,-0.992412, 0.000279, 0.000119,-0.009942, 0.152476,-0.140409, 0.070465,1, 0.025583, 0.002994, 0.012392,1,-0.114255,-0.252997, 9.802720,1,0
1778107567166,   618.652,   618.647, 0.032628, 0.030497,-0.933563, 0.000350, 0.000287,-0.009319, 0.276595, 0.013130, 0.416016,1, 0.036033, 0.011668, 0.000740,1,-0.116251,-0.246249, 9.802869,1,0
1778107567188,   618.677,   618.672, 0.032890, 0.016009,-0.991611, 0.000314, 0.000157,-0.009855, 0.203546,-0.081207, 0.078654,1, 0.022380, 0.008925, 0.003426,1,-0.119274,-0.237504, 9.803048,1,0
1778107567214,   618.697,   618.697, 0.021419, 0.006151,-1.034155, 0.000227, 0.000068,-0.010297, 0.090155,-0.173436,-0.338470,1, 0.023253, 0.003417,-0.000801,1,-0.119999,-0.233031, 9.803146,1,0
1778107567236,   618.722,   618.717, 0.027384, 0.010006,-1.037006, 0.000284, 0.000101,-0.010379, 0.067944,-0.140618,-0.304837,1, 0.013211, 0.001064, 0.003452,1,-0.120388,-0.229664, 9.803221,1,0
1778107567259,   618.747,   618.742, 0.025285, 0.009989,-0.969995, 0.000275, 0.000112,-0.009737, 0.127680,-0.134814, 0.290749,1,-0.025558, 0.000999, 0.020780,1,-0.120327,-0.233565, 9.803130,1,0
1778107567284,   618.767,   618.767, 0.026763,-0.008874,-0.936889, 0.000265,-0.000064,-0.009408, 0.140360,-0.326255, 0.615233,1,-0.038419, 0.013821, 0.010728,1,-0.122540,-0.240427, 9.802937,1,0
1778107567306,   618.792,   618.787, 0.022047, 0.026065,-1.020465, 0.000222, 0.000244,-0.010136, 0.075361,-0.154464, 0.136909,1,-0.031953, 0.012348, 0.007662,1,-0.126155,-0.246910, 9.802730,1,0
1778107567333,   618.817,   618.817, 0.015790, 0.035314,-1.026150, 0.000127, 0.000361,-0.010259, 0.027511, 0.088591,-0.260654,1,-0.031500, 0.003466, 0.011702,1,-0.127450,-0.258698, 9.802408,1,0
1778107567354,   618.837,   618.837, 0.025822, 0.026043,-0.991050, 0.000235, 0.000272,-0.009997, 0.125418,-0.006163, 0.083451,1,-0.015930, 0.007177,-0.007403,1,-0.128024,-0.262056, 9.802312,1,0
1778107567376,   618.862,   618.857, 0.024346, 0.018048,-0.996519, 0.000272, 0.000193,-0.009997, 0.173429,-0.091632, 0.093002,1,-0.014022, 0.006794, 0.000148,1,-0.128859,-0.264290, 9.802241,1,0
1778107567403,   618.887,   618.887, 0.023588, 0.013140,-0.987961, 0.000253, 0.000135,-0.009845, 0.101019,-0.140786, 0.113491,1,-0.022170, 0.014001,-0.000968,1,-0.130735,-0.270340, 9.802052,1,0
1778107567424,   618.912,   618.907, 0.012497, 0.018085,-0.967460, 0.000169, 0.000185,-0.009745, 0.085304,-0.092981, 0.211621,1,-0.031859, 0.016049, 0.001153,1,-0.134284,-0.275401, 9.801863,1,0
1778107567446,   618.932,   618.927, 0.010789, 0.026760,-1.011706, 0.000128, 0.000234,-0.010069, 0.018320,-0.039844, 0.225642,1,-0.047103, 0.007983, 0.014696,1,-0.136200,-0.283183, 9.801614,1,0
1778107567473,   618.957,   618.957, 0.016235, 0.054087,-1.043010, 0.000127, 0.000543,-0.010423, 0.022014, 0.235409,-0.427187,1,-0.018888, 0.011856, 0.005688,1,-0.137570,-0.295591, 9.801229,1,0
1778107567495,   618.982,   618.977,-0.012278, 0.035398,-0.993164,-0.000091, 0.000406,-0.009881,-0.176388, 0.065292,-0.075366,1,-0.011011, 0.009038, 0.004637,1,-0.140257,-0.298948, 9.801089,1,0
1778107567516,   619.002,   618.997,-0.007060,-0.016716,-0.992527,-0.000083,-0.000076,-0.010067,-0.286303,-0.198464,-0.191440,1, 0.022698, 0.006203,-0.007645,1,-0.143336,-0.295296, 9.801155,1,0
1778107567543,   619.027,   619.027,-0.003439,-0.049137,-0.951771,-0.000047,-0.000489,-0.009599,-0.179260,-0.779473, 0.467368,1,-0.050129, 0.002603,-0.015041,1,-0.145603,-0.299172, 9.801004,1,0
1778107567565,   619.052,   619.047,-0.001787, 0.016283,-0.993703,-0.000031, 0.000124,-0.009923,-0.207672,-0.535776, 0.219434,1,-0.101827, 0.000901,-0.016172,1,-0.145011,-0.316927, 9.800455,1,0
1778107567586,   619.072,   619.067, 0.002467, 0.072629,-1.042677, 0.000010, 0.000719,-0.010403,-0.170715, 0.221303,-0.296815,1,-0.071849,-0.000527,-0.027536,1,-0.144749,-0.333215, 9.799918,1,0
1778107567613,   619.097,   619.097, 0.014958, 0.034623,-1.037654, 0.000135, 0.000370,-0.010347, 0.003047,-0.015070,-0.376728,1,-0.090136,-0.003489,-0.015474,1,-0.143511,-0.357426, 9.799084,1,0
1778107567635,   619.122,   619.117, 0.018009,-0.017350,-0.935843, 0.000183,-0.000208,-0.009283,-0.054420,-0.494041, 0.655558,1,-0.110663, 0.005941,-0.006559,1,-0.143759,-0.378157, 9.798302,1,0
1778107567656,   619.142,   619.137, 0.029813, 0.031280,-0.976660, 0.000306, 0.000244,-0.009718, 0.123941,-0.384881, 0.409276,1,-0.140524, 0.011155,-0.002401,1,-0.145781,-0.403577, 9.797257,1,0
1778107567683,   619.167,   619.167, 0.023486, 0.063313,-1.025607, 0.000289, 0.000604,-0.010064, 0.079723, 0.169896,-0.262652,1,-0.206073, 0.015567, 0.027184,1,-0.151123,-0.457400, 9.794811,1,0
1778107567705,   619.192,   619.187, 0.004317, 0.031533,-1.023890, 0.000041, 0.000327,-0.010193,-0.074945, 0.011170,-0.108063,1,-0.212695,-0.001340, 0.019894,1,-0.151561,-0.498926, 9.792777,1,0
1778107567726,   619.212,   619.207, 0.022049, 0.001929,-1.020376, 0.000260,-0.000009,-0.010225,-0.013380,-0.430533,-0.147549,1,-0.224072, 0.001483, 0.015603,1,-0.152012,-0.541659, 9.790500,1,0
1778107567753,   619.237,   619.237, 0.010640, 0.047316,-0.952711, 0.000111, 0.000391,-0.009584,-0.048776,-0.144947, 0.443622,1,-0.280581, 0.014537, 0.048935,1,-0.153669,-0.617672, 9.785973,1,0
1778107567775,   619.262,   619.257, 0.015597, 0.097851,-0.994690, 0.000148, 0.000961,-0.009875, 0.062561, 0.193382, 0.233256,1,-0.255056, 0.026022, 0.027409,1,-0.159233,-0.668769, 9.782524,1,0
1778107567796,   619.282,   619.277, 0.007145, 0.087249,-1.011204, 0.000049, 0.000872,-0.010048,-0.152121, 0.252087, 0.092206,1,-0.248666, 0.006856, 0.022310,1,-0.161853,-0.718148, 9.778980,1,0
1778107567823,   619.307,   619.307, 0.027838, 0.066091,-1.019771, 0.000264, 0.000664,-0.010215, 0.110123,-0.128620,-0.226055,1,-0.207979, 0.002092,-0.002030,1,-0.162931,-0.783226, 9.773965,1,0
1778107567845,   619.332,   619.327, 0.015144, 0.111538,-0.979914, 0.000147, 0.001051,-0.009808, 0.005611, 0.097858, 0.044768,1,-0.180036,-0.006497, 0.015074,1,-0.161874,-0.820070, 9.770961,1,0
1778107567868,   619.352,   619.352, 0.016948, 0.116642,-0.967537, 0.000181, 0.001159,-0.009644, 0.000712, 0.282767, 0.279070,1,-0.128936, 0.011497, 0.005144,1,-0.165860,-0.865104, 9.767009,1,0
1778107567894,   619.377,   619.377, 0.001383, 0.108835,-1.003965,-0.000008, 0.001117,-0.009979,-0.152124, 0.184768,-0.080079,1,-0.094025,-0.000137,-0.015267,1,-0.165641,-0.885467, 9.765188,1,0
1778107567915,   619.402,   619.397, 0.010449, 0.100848,-1.001352, 0.000105, 0.001012,-0.010143,-0.007161, 0.079735,-0.484943,1,-0.062692, 0.009269,-0.028996,1,-0.166222,-0.899873, 9.763861,1,0
1778107567938,   619.422,   619.422, 0.012221, 0.099368,-0.944158, 0.000091, 0.001023,-0.009418,-0.046381, 0.063060, 0.503765,1,-0.022756, 0.002994,-0.027175,1,-0.166240,-0.912133, 9.762723,1,0
1778107567964,   619.447,   619.447, 0.016000, 0.098840,-1.000651, 0.000169, 0.000964,-0.010033,-0.007706, 0.055862,-0.050407,1,-0.002550,-0.012362,-0.029289,1,-0.164144,-0.913520, 9.762629,1,0
1778107567985,   619.472,   619.467, 0.038154, 0.108026,-0.991404, 0.000371, 0.001081,-0.009884, 0.064430, 0.182530, 0.116835,1, 0.026492, 0.012825,-0.024327,1,-0.164055,-0.910346, 9.762927,1,0
1778107568008,   619.492,   619.492, 0.019580, 0.113806,-0.967893, 0.000217, 0.001136,-0.009670, 0.026238, 0.213849, 0.271869,1, 0.032593,-0.002897,-0.020257,1,-0.165626,-0.901209, 9.763748,1,0
1778107568034,   619.517,   619.517, 0.028529, 0.089508,-1.022519, 0.000271, 0.000909,-0.010216, 0.113914,-0.017455,-0.263195,1, 0.037328, 0.009917,-0.028314,1,-0.166085,-0.894086, 9.764395,1,0
1778107568055,   619.542,   619.537, 0.027397, 0.078523,-0.972031, 0.000266, 0.000752,-0.009721, 0.106541,-0.177298, 0.080796,1, 0.039294, 0.002068,-0.018538,1,-0.166724,-0.886615, 9.765065,1,0
1778107568078,   619.562,   619.562, 0.029326, 0.082904,-1.005379, 0.000309, 0.000821,-0.010010, 0.120609,-0.063788,-0.093458,1, 0.036924,-0.007318,-0.012913,1,-0.166721,-0.875657, 9.766054,1,0
1778107568104,   619.587,   619.587, 0.007660, 0.089823,-1.011406, 0.000051, 0.000908,-0.010118,-0.089162, 0.009619,-0.152013,1, 0.030482,-0.010132,-0.008394,1,-0.164766,-0.871523, 9.766458,1,0
1778107568125,   619.612,   619.607, 0.025448, 0.078923,-0.947726, 0.000278, 0.000797,-0.009536, 0.163616,-0.092394, 0.123185,1, 0.012924,-0.002922,-0.012738,1,-0.163799,-0.867434, 9.766837,1,0
1778107568148,   619.632,   619.632, 0.021328, 0.064830,-1.003054, 0.000205, 0.000654,-0.009962, 0.047117,-0.230668,-0.069640,1,-0.008426,-0.000517,-0.008729,1,-0.162001,-0.866696, 9.766932,1,0
1778107568174,   619.657,   619.657, 0.013400, 0.062552,-1.002267, 0.000186, 0.000627,-0.009975,-0.032003,-0.255689,-0.062186,1,-0.013849, 0.010017,-0.009975,1,-0.163695,-0.869548, 9.766651,1,0
1778107568195,   619.682,   619.677, 0.008930, 0.062824,-1.025221, 0.000091, 0.000597,-0.010282,-0.094020,-0.384794,-0.230002,1,-0.047146,-0.005118, 0.002190,1,-0.164262,-0.875800, 9.766083,1,0
1778107568218,   619.707,   619.702, 0.014436, 0.095922,-1.006545, 0.000140, 0.000939,-0.010049,-0.019036, 0.047634,-0.106255,1,-0.069986,-0.003480, 0.006312,1,-0.160512,-0.895207, 9.764385,1,0
1778107568244,   619.727,   619.727, 0.018297, 0.102022,-0.970201, 0.000207, 0.001027,-0.009739, 0.017897, 0.092290, 0.248748,1,-0.082387, 0.003590,-0.002388,1,-0.161642,-0.910768, 9.762928,1,0
1778107568266,   619.752,   619.747, 0.002282, 0.056153,-0.987811, 0.000018, 0.000561,-0.009856,-0.188710,-0.198604, 0.300557,1,-0.095657, 0.009597,-0.001615,1,-0.162844,-0.928334, 9.761253,1,0
1778107568288,   619.777,   619.772, 0.002531, 0.059764,-1.012576, 0.000053, 0.000564,-0.010155,-0.141754,-0.370043,-0.171475,1,-0.116433, 0.006016, 0.003310,1,-0.166773,-0.959741, 9.758149,1,0
1778107568314,   619.797,   619.797, 0.000294, 0.083964,-1.022874, 0.000015, 0.000812,-0.010184,-0.163278,-0.153873,-0.274550,1,-0.110476,-0.000629, 0.004472,1,-0.166108,-0.980679, 9.756078,1,0
1778107568336,   619.822,   619.817, 0.010579, 0.119831,-0.976172, 0.000105, 0.001196,-0.009764,-0.094677, 0.007398,-0.190582,1,-0.120516,-0.006247, 0.002677,1,-0.165651,-0.992298, 9.754911,1,0
1778107568358,   619.847,   619.842, 0.026424, 0.095855,-0.963646, 0.000241, 0.000967,-0.009673, 0.096283,-0.095646, 0.300309,1,-0.128738,-0.001476,-0.014597,1,-0.162759,-1.039664, 9.750025,1,0
1778107568384,   619.867,   619.867, 0.019419, 0.087679,-0.952600, 0.000168, 0.000859,-0.009512, 0.028055,-0.202479, 0.405775,1,-0.143758, 0.001631,-0.005407,1,-0.162417,-1.066775, 9.747102,1,0
1778107568406,   619.892,   619.887, 0.018064, 0.096299,-1.051857, 0.000218, 0.000948,-0.010499,-0.006073,-0.167446,-0.160973,1,-0.147062, 0.003509, 0.000963,1,-0.162492,-1.095735, 9.743888,1,0
1778107568429,   619.917,   619.912, 0.005970, 0.100232,-1.019252, 0.000086, 0.000970,-0.010216,-0.107304,-0.147213,-0.255551,1,-0.128550, 0.008885,-0.006233,1,-0.166100,-1.134144, 9.739430,1,0
1778107568454,   619.937,   619.937, 0.000559, 0.124371,-0.984758,-0.000043, 0.001226,-0.009884,-0.160418, 0.062632, 0.079561,1,-0.142946, 0.000776, 0.005071,1,-0.165939,-1.161462, 9.736214,1,0
1778107568476,   619.962,   619.957, 0.020169, 0.141495,-0.967850, 0.000226, 0.001412,-0.009714, 0.103744, 0.152542, 0.076789,1,-0.133597, 0.001430,-0.002980,1,-0.166398,-1.187940, 9.733010,1,0
1778107568499,   619.987,   619.982, 0.018387, 0.125803,-0.957456, 0.000154, 0.001268,-0.009559, 0.012633, 0.012164, 0.339395,1,-0.128453, 0.019539,-0.005579,1,-0.167490,-1.224100, 9.728510,1,0
1778107568524,   620.007,   620.007, 0.025556, 0.109107,-0.983991, 0.000185, 0.001061,-0.009806, 0.080502,-0.174827, 0.076180,1,-0.124458, 0.015281,-0.002018,1,-0.170581,-1.248645, 9.725336,1,0
1778107568546,   620.032,   620.027, 0.026485, 0.120586,-1.032386, 0.000232, 0.001204,-0.010342, 0.155502,-0.111969,-0.407300,1,-0.088059, 0.008958,-0.009352,1,-0.172350,-1.267427, 9.722876,1,0
1778107568573,   620.057,   620.057, 0.032269, 0.162631,-0.980639, 0.000270, 0.001601,-0.009778, 0.145284, 0.308463, 0.103622,1,-0.062205,-0.002629,-0.007378,1,-0.171051,-1.288331, 9.720151,1,0
1778107568594,   620.077,   620.077, 0.048630, 0.158476,-0.968351, 0.000462, 0.001626,-0.009729, 0.305677, 0.259427, 0.223026,1,-0.026303, 0.002085,-0.025289,1,-0.171180,-1.295514, 9.719193,1,0
1778107568616,   620.102,   620.097, 0.029291, 0.125216,-0.971442, 0.000268, 0.001274,-0.009680, 0.186794, 0.005316, 0.244040,1,-0.027197, 0.012778,-0.027624,1,-0.171856,-1.300698, 9.718490,1,0
1778107568643,   620.127,   620.127, 0.023743, 0.111330,-1.002176, 0.000179, 0.001140,-0.009987, 0.054936,-0.216806,-0.110663,1,-0.029629, 0.024004,-0.015107,1,-0.178584,-1.309505, 9.717185,1,0
1778107568664,   620.152,   620.147, 0.004496, 0.096980,-1.023565, 0.000105, 0.000987,-0.010300,-0.011880,-0.306342,-0.265370,1,-0.021811, 0.025735,-0.019344,1,-0.182538,-1.314542, 9.716432,1,0
1778107568686,   620.172,   620.167, 0.035241, 0.145266,-0.996794, 0.000332, 0.001433,-0.009864, 0.145485,-0.062163,-0.358890,1,-0.017142,-0.008832,-0.013824,1,-0.182745,-1.319287, 9.715785,1,0
1778107568713,   620.197,   620.197, 0.076775, 0.170700,-0.973384, 0.000696, 0.001723,-0.009758, 0.575621, 0.355310, 0.170331,1, 0.010129,-0.011449,-0.030579,1,-0.176851,-1.318334, 9.716023,1,0
1778107568735,   620.222,   620.217, 0.079856, 0.128639,-0.957627, 0.000795, 0.001277,-0.009493, 0.616433,-0.002378, 0.603148,1, 0.017884, 0.006957,-0.037661,1,-0.175621,-1.315971, 9.716366,1,0
1778107568756,   620.242,   620.237, 0.081636, 0.109402,-0.976584, 0.000827, 0.001138,-0.009731, 0.543318,-0.261207, 0.531521,1, 0.013416, 0.017796,-0.029999,1,-0.176833,-1.313867, 9.716628,1,0
1778107568783,   620.267,   620.267, 0.078830, 0.096224,-1.062297, 0.000793, 0.000955,-0.010578, 0.594351,-0.361820,-0.699848,1, 0.042610, 0.009279,-0.035423,1,-0.178846,-1.304160, 9.717899,1,0
1778107568805,   620.292,   620.287, 0.073518, 0.150966,-0.951824, 0.000716, 0.001524,-0.009609, 0.568049, 0.071677,-0.254886,1, 0.046967, 0.020909,-0.038835,1,-0.181503,-1.294978, 9.719078,1,0
1778107568826,   620.312,   620.307, 0.066229, 0.150521,-0.933313, 0.000649, 0.001501,-0.009282, 0.479289, 0.326153, 0.486904,1, 0.044239,-0.009089,-0.034690,1,-0.180866,-1.285847, 9.720302,1,0
1778107568853,   620.337,   620.337, 0.069024, 0.097881,-0.996254, 0.000694, 0.000991,-0.009977, 0.498488,-0.313910,-0.047982,1, 0.049334, 0.006118,-0.060987,1,-0.178348,-1.272306, 9.722130,1,0
1778107568875,   620.362,   620.357, 0.063161, 0.083063,-1.036881, 0.000594, 0.000809,-0.010341, 0.482086,-0.561895,-0.283713,1, 0.038806, 0.001290,-0.036111,1,-0.178196,-1.264580, 9.723141,1,0
1778107568896,   620.382,   620.377, 0.074637, 0.139839,-0.967997, 0.000723, 0.001363,-0.009779, 0.392977,-0.160653,-0.453038,1, 0.041980, 0.008215,-0.036956,1,-0.177739,-1.257381, 9.724083,1,0
1778107568923,   620.407,   620.407, 0.071544, 0.162909,-0.907244, 0.000700, 0.001641,-0.009059, 0.521310, 0.356217, 0.829066,1, 0.047822, 0.006708,-0.051451,1,-0.180298,-1.239920, 9.726277,1,0
1778107568945,   620.432,   620.427, 0.072132, 0.096395,-1.024753, 0.000725, 0.000965,-0.010251, 0.534369,-0.051331, 0.013609,1, 0.055342, 0.005918,-0.054257,1,-0.179999,-1.230545, 9.727473,1,0
1778107568966,   620.452,   620.447, 0.044878, 0.078863,-1.073367, 0.000491, 0.000763,-0.010670, 0.328059,-0.436421,-0.465425,1, 0.075526, 0.007998,-0.054163,1,-0.180761,-1.217613, 9.729087,1,0
1778107568993,   620.477,   620.477, 0.041635, 0.132331,-1.032381, 0.000417, 0.001278,-0.010549, 0.227286, 0.101099,-0.392518,1, 0.085745, 0.011039,-0.055946,1,-0.181138,-1.194003, 9.732005,1,0
1778107569015,   620.502,   620.497, 0.046037, 0.152588,-0.920569, 0.000499, 0.001555,-0.009136, 0.288239, 0.512066, 0.751079,1, 0.112672,-0.005261,-0.076750,1,-0.179256,-1.173969, 9.734477,1,0
1778107569036,   620.522,   620.517, 0.061780, 0.082165,-0.979518, 0.000625, 0.000855,-0.009739, 0.402218,-0.058543, 0.496635,1, 0.120259,-0.003985,-0.083174,1,-0.175902,-1.151824, 9.737184,1,0
1778107569063,   620.547,   620.547, 0.048545, 0.069428,-1.051555, 0.000518, 0.000673,-0.010501, 0.302598,-0.436102,-0.570945,1, 0.142372,-0.003091,-0.063892,1,-0.173140,-1.112581, 9.741795,1,0
1778107569085,   620.572,   620.567, 0.061530, 0.162259,-0.975299, 0.000690, 0.001596,-0.009790, 0.476212, 0.259463,-0.110287,1, 0.163240, 0.018132,-0.081662,1,-0.173616,-1.082952, 9.745125,1,0
1778107569108,   620.592,   620.592, 0.040407, 0.122858,-0.947642, 0.000422, 0.001319,-0.009397, 0.226452, 0.166682, 0.456869,1, 0.170843,-0.015553,-0.089801,1,-0.169041,-1.032840, 9.750644,1,0
1778107569134,   620.617,   620.617, 0.054065, 0.033358,-1.043141, 0.000550, 0.000375,-0.010385, 0.363459,-0.676890,-0.476032,1, 0.176414,-0.006929,-0.082579,1,-0.166261,-0.998588, 9.754259,1,0
1778107569155,   620.642,   620.637, 0.052608, 0.109467,-1.004290, 0.000482, 0.001079,-0.010077, 0.309691,-0.360754,-0.216177,1, 0.157751, 0.002294,-0.064966,1,-0.164317,-0.967702, 9.757404,1,0
1778107569178,   620.662,   620.662, 0.056970, 0.135886,-0.926646, 0.000563, 0.001435,-0.009330, 0.395234, 0.408272, 0.674334,1, 0.171250,-0.017080,-0.087099,1,-0.162660,-0.919035, 9.762136,1,0
1778107569204,   620.687,   620.687, 0.050865, 0.056587,-0.973533, 0.000432, 0.000648,-0.009635, 0.340992,-0.337192, 0.217610,1, 0.162732,-0.007680,-0.079630,1,-0.157354,-0.887105, 9.765177,1,0
1778107569225,   620.712,   620.707, 0.049086, 0.048443,-1.009733, 0.000526, 0.000429,-0.010132, 0.344886,-0.591767,-0.405747,1, 0.145496,-0.009799,-0.056736,1,-0.154864,-0.857788, 9.767835,1,0
1778107569248,   620.732,   620.732, 0.072088, 0.120411,-0.949370, 0.000721, 0.001166,-0.009448, 0.550867, 0.363017, 0.461106,1, 0.157261, 0.010791,-0.084059,1,-0.156193,-0.812960, 9.771646,1,0
1778107569274,   620.757,   620.757, 0.031206, 0.093461,-0.953688, 0.000307, 0.001005,-0.009393, 0.153758, 0.129705, 0.421357,1, 0.157646,-0.021619,-0.074329,1,-0.151410,-0.781965, 9.774251,1,0
1778107569295,   620.782,   620.777, 0.036906, 0.013890,-1.070849, 0.000357, 0.000143,-0.010743, 0.338641,-0.586245,-0.717495,1, 0.147473,-0.001174,-0.071472,1,-0.149572,-0.752259, 9.776610,1,0
1778107569318,   620.802,   620.802, 0.042956, 0.067867,-0.993889, 0.000392, 0.000661,-0.010004, 0.271755,-0.048137, 0.032780,1, 0.147735, 0.017647,-0.081458,1,-0.149860,-0.709123, 9.779830,1,0
1778107569344,   620.827,   620.827, 0.030159, 0.088141,-0.942550, 0.000342, 0.000881,-0.009423, 0.147188, 0.176978, 0.538143,1, 0.125366,-0.019019,-0.075793,1,-0.147817,-0.683526, 9.781683,1,0
1778107569365,   620.852,   620.847, 0.033642, 0.015177,-1.027722, 0.000340, 0.000150,-0.010295, 0.187906,-0.396160,-0.335098,1, 0.113863,-0.002920,-0.068952,1,-0.144883,-0.660187, 9.783330,1,0
1778107569388,   620.872,   620.872, 0.058135, 0.050588,-0.971442, 0.000505, 0.000468,-0.009800, 0.423922,-0.135913, 0.258577,1, 0.110722, 0.026600,-0.072885,1,-0.146865,-0.628593, 9.785381,1,0
1778107569414,   620.897,   620.897, 0.061671, 0.078632,-0.903308, 0.000611, 0.000814,-0.009075, 0.456487, 0.160583, 0.928072,1, 0.112680,-0.000139,-0.085736,1,-0.148123,-0.607063, 9.786721,1,0
1778107569435,   620.922,   620.917, 0.044281, 0.022135,-1.081217, 0.000388, 0.000220,-0.010856, 0.264047,-0.255060,-0.344653,1, 0.098947,-0.000216,-0.068722,1,-0.145371,-0.586140, 9.788038,1,0
1778107569458,   620.947,   620.942, 0.029975, 0.034056,-1.048406, 0.000259, 0.000311,-0.010544, 0.144537,-0.230454,-0.492100,1, 0.095152, 0.029738,-0.065961,1,-0.150229,-0.561493, 9.789410,1,0
1778107569484,   620.967,   620.967, 0.036639, 0.062360,-0.926553, 0.000328, 0.000637,-0.009318, 0.206512, 0.066275, 0.703905,1, 0.095304, 0.011008,-0.085551,1,-0.152988,-0.542341, 9.790446,1,0
1778107569506,   620.992,   620.987, 0.027725, 0.024912,-1.019284, 0.000281, 0.000264,-0.010193, 0.106932,-0.173882, 0.570923,1, 0.068304,-0.009728,-0.057127,1,-0.150055,-0.526710, 9.791346,1,0
1778107569528,   621.017,   621.012, 0.041652, 0.033531,-1.044461, 0.000469, 0.000289,-0.010375, 0.257706,-0.183969,-0.450592,1, 0.060303, 0.016363,-0.063827,1,-0.151171,-0.510948, 9.792163,1,0
1778107569554,   621.037,   621.037, 0.041298, 0.057576,-1.018145, 0.000490, 0.000555,-0.010189, 0.251026, 0.063810,-0.191950,1, 0.056766, 0.006594,-0.077975,1,-0.154047,-0.499084, 9.792730,1,0
1778107569576,   621.062,   621.057, 0.047039, 0.025940,-0.996946, 0.000427, 0.000253,-0.010011, 0.184203,-0.184505,-0.007942,1, 0.049256,-0.006507,-0.053944,1,-0.152874,-0.488379, 9.793288,1,0
1778107569598,   621.087,   621.082, 0.055732, 0.039230,-0.966214, 0.000653, 0.000344,-0.009609, 0.389071,-0.095380, 0.318305,1, 0.042018, 0.022814,-0.052609,1,-0.158105,-0.478806, 9.793678,1,0
1778107569624,   621.107,   621.107, 0.052508, 0.059095,-0.969191, 0.000588, 0.000559,-0.009719, 0.353563, 0.108293, 0.289473,1, 0.044080, 0.007972,-0.070064,1,-0.161508,-0.469895, 9.794054,1,0
1778107569646,   621.132,   621.127, 0.052994, 0.026709,-1.057148, 0.000533, 0.000265,-0.010610, 0.271687,-0.142311,-0.464008,1, 0.040607, 0.002943,-0.049196,1,-0.161796,-0.461145, 9.794465,1,0
1778107569669,   621.157,   621.152, 0.058227, 0.040716,-1.023978, 0.000618, 0.000393,-0.010214, 0.403412,-0.054636,-0.247093,1, 0.037645, 0.023500,-0.045031,1,-0.168273,-0.452774, 9.794746,1,0
1778107569694,   621.177,   621.177, 0.033990, 0.046626,-0.961850, 0.000446, 0.000478,-0.009714, 0.163832, 0.011785, 0.362536,1, 0.051785,-0.010151,-0.069070,1,-0.169085,-0.443881, 9.795140,1,0
1778107569716,   621.202,   621.197, 0.050956, 0.020244,-0.999595, 0.000506, 0.000201,-0.010086, 0.141082,-0.219934,-0.213266,1, 0.030915,-0.016082,-0.041323,1,-0.165027,-0.433604, 9.795670,1,0
1778107569739,   621.227,   621.222, 0.079978, 0.035470,-0.962287, 0.000782, 0.000367,-0.009755, 0.613979,-0.079854, 0.359025,1, 0.045285, 0.034716,-0.044075,1,-0.171356,-0.426309, 9.795881,1,0
1778107569764,   621.247,   621.247, 0.068192, 0.052032,-0.934761, 0.000654, 0.000547,-0.009230, 0.495170, 0.093018, 0.629359,1, 0.070168,-0.000906,-0.066923,1,-0.173450,-0.415093, 9.796326,1,0
1778107569786,   621.272,   621.267, 0.032101, 0.032122,-1.120541, 0.000356, 0.000290,-0.011150, 0.165175,-0.159540,-1.079260,1, 0.039718, 0.000081,-0.034530,1,-0.171470,-0.405246, 9.796773,1,0
1778107569813,   621.297,   621.297, 0.055980, 0.053726,-1.014091, 0.000523, 0.000529,-0.010378, 0.373050, 0.131769,-0.147728,1, 0.055078, 0.010458,-0.046420,1,-0.176192,-0.393412, 9.797172,1,0
1778107569834,   621.317,   621.317, 0.036834, 0.023932,-0.823557, 0.000355, 0.000321,-0.008226, 0.188666,-0.146462, 1.721383,1, 0.076509,-0.026982,-0.055196,1,-0.171645,-0.378803, 9.797828,1,0
1778107569856,   621.342,   621.337, 0.059478, 0.037358,-1.043026, 0.000614, 0.000367,-0.010252, 0.446363,-0.167379, 0.768860,1, 0.023206, 0.000933,-0.015919,1,-0.168627,-0.370901, 9.798182,1,0
1778107569883,   621.367,   621.367, 0.055735, 0.048736,-1.124059, 0.000537, 0.000503,-0.011360, 0.376495, 0.119796,-1.224620,1, 0.074663, 0.013322,-0.052692,1,-0.170439,-0.355839, 9.798710,1,0
1778107569905,   621.392,   621.387, 0.009576, 0.029376,-0.891929, 0.000094, 0.000289,-0.009098, 0.057252,-0.040223, 0.168673,1, 0.071592,-0.009398,-0.031884,1,-0.170313,-0.338127, 9.799339,1,0
1778107569926,   621.412,   621.407, 0.034421, 0.028099,-0.952006, 0.000436, 0.000239,-0.009454, 0.090535,-0.014878, 0.891999,1, 0.037524, 0.000172,-0.000207,1,-0.169741,-0.329013, 9.799660,1,0
1778107569953,   621.437,   621.437, 0.028364, 0.016755,-1.049864, 0.000353, 0.000127,-0.010403, 0.112766,-0.148501,-0.495388,1, 0.073679,-0.025590,-0.042740,1,-0.164546,-0.310539, 9.800351,1,0
1778107569975,   621.462,   621.457, 0.038845, 0.025508,-0.995610, 0.000403, 0.000245,-0.009860, 0.096922,-0.098560,-0.093947,1, 0.034081, 0.009778,-0.010494,1,-0.164349,-0.300975, 9.800653,1,0
1778107569996,   621.482,   621.477, 0.038793, 0.033563,-0.951852, 0.000343, 0.000364,-0.009614, 0.339447, 0.009639, 0.205735,1, 0.020815, 0.011261,-0.002416,1,-0.167955,-0.296756, 9.800720,1,0
1778107570023,   621.507,   621.507, 0.027364, 0.019897,-0.972133, 0.000201, 0.000269,-0.009734, 0.103170,-0.088410, 0.267786,1, 0.049522,-0.014490,-0.023350,1,-0.164707,-0.282000, 9.801210,1,0
1778107570045,   621.532,   621.527, 0.054373, 0.028384,-1.046540, 0.000497, 0.000276,-0.010523, 0.257259,-0.040185,-0.371983,1, 0.013953, 0.018411, 0.013427,1,-0.166969,-0.278176, 9.801282,1,0
1778107570066,   621.552,   621.547, 0.023201, 0.033535,-1.007289, 0.000247, 0.000355,-0.010042, 0.246994, 0.083085,-0.457406,1, 0.037820, 0.004159,-0.000007,1,-0.169700,-0.273238, 9.801373,1,0
1778107570093,   621.577,   621.577, 0.010134, 0.032079,-0.952852, 0.000037, 0.000338,-0.009456,-0.066754, 0.053954, 0.457488,1, 0.024246, 0.004297, 0.010112,1,-0.166277,-0.259873, 9.801796,1,0
1778107570115,   621.602,   621.597, 0.032721, 0.020747,-1.030081, 0.000318, 0.000174,-0.010364, 0.240526,-0.127159,-0.463979,1, 0.006669, 0.003259, 0.023410,1,-0.169296,-0.256980, 9.801821,1,0
1778107570136,   621.622,   621.617, 0.024136, 0.031317,-0.931522, 0.000211, 0.000379,-0.009443, 0.075323, 0.010600,-0.288713,1, 0.043734,-0.005249, 0.003160,1,-0.168478,-0.249350, 9.802032,1,0
1778107570164,   621.647,   621.647, 0.032064, 0.032053,-0.944235, 0.000304, 0.000334,-0.009402, 0.142555, 0.072617, 0.542382,1, 0.021976, 0.022482, 0.029454,1,-0.172607,-0.241010, 9.802169,1,0
1778107570185,   621.672,   621.667, 0.029292, 0.035147,-1.030955, 0.000309, 0.000256,-0.010225, 0.175623, 0.031566,-0.058919,1, 0.046658,-0.007778, 0.014696,1,-0.172341,-0.234749, 9.802325,1,0
1778107570206,   621.692,   621.687, 0.021362, 0.021005,-0.986968, 0.000237, 0.000249,-0.009721,-0.107166,-0.029091, 0.229726,1, 0.045568, 0.000218, 0.008452,1,-0.170100,-0.225082, 9.802591,1,0
1778107570233,   621.717,   621.717, 0.031666, 0.004364,-1.065894, 0.000378, 0.000050,-0.010610, 0.139030,-0.174748,-0.650108,1, 0.022483,-0.000937, 0.022429,1,-0.171496,-0.216833, 9.802752,1,0
1778107570255,   621.742,   621.737, 0.010959, 0.019667,-0.891316, 0.000076, 0.000230,-0.009003,-0.044807,-0.047127, 0.312373,1, 0.050729,-0.005479, 0.006526,1,-0.170893,-0.207316, 9.802969,1,0
1778107570277,   621.762,   621.757, 0.036146, 0.013104,-0.988224, 0.000347, 0.000126,-0.009862, 0.028697,-0.036640, 0.859438,1, 0.032922, 0.012447, 0.015583,1,-0.172468,-0.198703, 9.803120,1,0
1778107570304,   621.787,   621.787, 0.033735, 0.009532,-1.089782, 0.000403, 0.000108,-0.010900, 0.153911,-0.095721,-0.883879,1, 0.062869, 0.009038,-0.001187,1,-0.178049,-0.186404, 9.803262,1,0
1778107570325,   621.812,   621.807, 0.006031, 0.024851,-0.955367, 0.000019, 0.000270,-0.009370,-0.114025, 0.042630, 0.341342,1, 0.069557, 0.004281,-0.005043,1,-0.179856,-0.172716, 9.803479,1,0
1778107570348,   621.832,   621.832, 0.026817, 0.010706,-1.030941, 0.000316, 0.000091,-0.010312, 0.081974,-0.052679,-0.306365,1, 0.049166,-0.008024, 0.001973,1,-0.180761,-0.156136, 9.803741,1,0
1778107570374,   621.857,   621.857, 0.000545, 0.007868,-0.954601, 0.000053, 0.000051,-0.009624,-0.172355,-0.065942, 0.442554,1, 0.088073,-0.022310,-0.014122,1,-0.177001,-0.140363, 9.804048,1,0
1778107570395,   621.882,   621.877, 0.023172, 0.006274,-1.005325, 0.000232, 0.000078,-0.009995,-0.004963,-0.091749, 0.442995,1, 0.062224,-0.007042,-0.010800,1,-0.175494,-0.125319, 9.804278,1,0
1778107570418,   621.902,   621.902, 0.012242, 0.015565,-1.082905, 0.000125, 0.000112,-0.011052,-0.052316, 0.044126,-0.815136,1, 0.079809,-0.010981,-0.013447,1,-0.172024,-0.106029, 9.804567,1,0
1778107570444,   621.927,   621.927,-0.002126, 0.003567,-0.953055,-0.000012, 0.000072,-0.009498,-0.191290,-0.054499, 0.458479,1, 0.095097,-0.012219,-0.018790,1,-0.170054,-0.086519, 9.804793,1,0
1778107570465,   621.952,   621.947,-0.003276, 0.000908,-1.080214,-0.000004,-0.000028,-0.010739,-0.138533,-0.126985,-0.128208,1, 0.071635,-0.021240,-0.007534,1,-0.166433,-0.072477, 9.804970,1,0
1778107570488,   621.972,   621.972,-0.009563, 0.002709,-0.916698,-0.000045, 0.000043,-0.009328,-0.256374,-0.024250, 0.815436,1, 0.097908,-0.014339,-0.019559,1,-0.162143,-0.047769, 9.805193,1,0
1778107570514,   621.997,   621.997,-0.016713,-0.005292,-0.949167,-0.000182,-0.000050,-0.009354,-0.319690,-0.083217, 0.497208,1, 0.072437,-0.037376,-0.010807,1,-0.154552,-0.028979, 9.805389,1,0
1778107570535,   622.022,   622.017,-0.004013,-0.009019,-1.062067,-0.000004,-0.000052,-0.010875,-0.225764,-0.073464,-1.157643,1, 0.065894,-0.032076,-0.008787,1,-0.147009,-0.016005, 9.805535,1,0
1778107570558,   622.042,   622.042,-0.002836,-0.008021,-0.885848,-0.000000,-0.000062,-0.008920,-0.170974,-0.073484, 1.118402,1, 0.080668,-0.027169,-0.011856,1,-0.142312, 0.007692, 9.805614,1,0
1778107570584,   622.067,   622.067, 0.007269,-0.006496,-1.034035, 0.000026,-0.000111,-0.010163,-0.063649,-0.044661,-0.334719,1, 0.061395,-0.046632,-0.014641,1,-0.133475, 0.020950, 9.805719,1,0
1778107570605,   622.092,   622.087, 0.017723, 0.003866,-0.997302, 0.000114, 0.000012,-0.010039, 0.063604,-0.026220,-1.073308,1, 0.080721,-0.015102,-0.015367,1,-0.128765, 0.034569, 9.805743,1,0
1778107570628,   622.112,   622.112,-0.000400,-0.004731,-0.928620,-0.000010,-0.000036,-0.009156,-0.126783, 0.011372, 0.699054,1, 0.086844,-0.046027,-0.012049,1,-0.121430, 0.060470, 9.805712,1,0
1778107570654,   622.137,   622.137, 0.016168,-0.019043,-1.039222, 0.000163,-0.000140,-0.010444, 0.042129,-0.113009,-0.385606,1, 0.077392,-0.009968,-0.017700,1,-0.116117, 0.076145, 9.805667,1,0
1778107570675,   622.162,   622.157, 0.003272,-0.020244,-0.875087, 0.000052,-0.000189,-0.008809, 0.114863,-0.097864, 0.959647,1, 0.086603, 0.000616,-0.010654,1,-0.117476, 0.092246, 9.805512,1,0
1778107570698,   622.187,   622.182,-0.039697,-0.019267,-1.067429,-0.000330,-0.000181,-0.010535,-0.494459,-0.074514,-0.662488,1, 0.063483,-0.047188,-0.014990,1,-0.103166, 0.117658, 9.805402,1,0
1778107570724,   622.207,   622.207, 0.009711,-0.037863,-1.185767,-0.000008,-0.000365,-0.012054,-0.008365,-0.244652,-1.823119,1, 0.049045, 0.031741,-0.014948,1,-0.104592, 0.128192, 9.805254,1,0
1778107570746,   622.232,   622.227,-0.005748,-0.026138,-0.841585,-0.000114,-0.000214,-0.008312,-0.142935,-0.240439, 0.948783,1, 0.067494, 0.001204,-0.007044,1,-0.108884, 0.140519, 9.805038,1,0
1778107570768,   622.257,   622.252, 0.002863,-0.006539,-0.991857, 0.000029,-0.000029,-0.009783,-0.070457, 0.090076, 0.078143,1, 0.038162,-0.024050,-0.010080,1,-0.097785, 0.155386, 9.804932,1,0
1778107570794,   622.277,   622.277, 0.016821,-0.041528,-1.029529, 0.000228,-0.000406,-0.010441, 0.066285,-0.245962,-0.291401,1, 0.043374, 0.013136,-0.014863,1,-0.099094, 0.162641, 9.804800,1,0
1778107570816,   622.302,   622.297,-0.003546,-0.022830,-1.024703, 0.000043,-0.000217,-0.010157,-0.128397,-0.261644, 0.245518,1, 0.051068,-0.014975,-0.011846,1,-0.098056, 0.173251, 9.804629,1,0
1778107570839,   622.327,   622.322, 0.007812,-0.010180,-0.995588, 0.000062,-0.000052,-0.009988,-0.019268, 0.081005, 0.041129,1, 0.030643, 0.017299,-0.010445,1,-0.096422, 0.181794, 9.804491,1,0
1778107570864,   622.347,   622.347, 0.002782,-0.054541,-0.922750,-0.000005,-0.000541,-0.009201,-0.071078,-0.346901, 0.755273,1, 0.037165, 0.000438,-0.014951,1,-0.098380, 0.189116, 9.804333,1,0
1778107570886,   622.372,   622.367,-0.005166,-0.004668,-1.085780,-0.000145,-0.000087,-0.010818,-0.243877,-0.034995,-0.352513,1, 0.008190,-0.024871,-0.005012,1,-0.092880, 0.193359, 9.804303,1,0
1778107570909,   622.397,   622.392, 0.018965,-0.019508,-1.016838, 0.000178,-0.000171,-0.010264, 0.090897, 0.005626,-0.167563,1, 0.023893, 0.020629,-0.014446,1,-0.095711, 0.197724, 9.804190,1,0
1778107570934,   622.417,   622.417,-0.007447,-0.041921,-0.895550,-0.000016,-0.000436,-0.008962,-0.166700,-0.209412, 1.021783,1, 0.017714,-0.044790,-0.007067,1,-0.092281, 0.202239, 9.804131,1,0
1778107570956,   622.442,   622.437, 0.028035,-0.018411,-1.055213, 0.000212,-0.000130,-0.010561,-0.061926, 0.090749,-0.111659,1,-0.011842,-0.020248,-0.006095,1,-0.086020, 0.200508, 9.804223,1,0
1778107570979,   622.467,   622.462, 0.038767,-0.044045,-0.988156, 0.000408,-0.000422,-0.010058, 0.289455,-0.228135, 0.113616,1, 0.018304, 0.017953,-0.010563,1,-0.091289, 0.204369, 9.804095,1,0
1778107571004,   622.487,   622.487,-0.002244,-0.003502,-0.947210, 0.000022,-0.000092,-0.009472,-0.110944, 0.172503, 0.515106,1, 0.001879,-0.026863, 0.004934,1,-0.088093, 0.206904, 9.804071,1,0
1778107571026,   622.512,   622.507, 0.019091,-0.035597,-1.056957, 0.000215,-0.000322,-0.010546, 0.015399, 0.182551,-0.104229,1, 0.014547, 0.005122,-0.009196,1,-0.086160, 0.208559, 9.804053,1,0
1778107571053,   622.537,   622.537, 0.002248,-0.056371,-0.986024, 0.000039,-0.000628,-0.009861,-0.066201,-0.341593, 0.134383,1, 0.000625,-0.016410, 0.008397,1,-0.087728, 0.211242, 9.803982,1,0
1778107571075,   622.557,   622.557,-0.027741, 0.006131,-0.962293,-0.000304, 0.000000,-0.009709,-0.352730, 0.268449, 0.367230,1,-0.023077,-0.035280, 0.014556,1,-0.079574, 0.207609, 9.804130,1,0
1778107571096,   622.582,   622.577, 0.038300,-0.051011,-0.952607, 0.000320,-0.000523,-0.009612, 0.239307,-0.083400,-0.223238,1,-0.020126, 0.007100,-0.005230,1,-0.078679, 0.204723, 9.804197,1,0
1778107571123,   622.607,   622.607, 0.021908,-0.034543,-0.978599, 0.000222,-0.000336,-0.009736, 0.137335,-0.138957, 0.207525,1,-0.035685,-0.018162, 0.018765,1,-0.076926, 0.198685, 9.804336,1,0
1778107571145,   622.632,   622.627, 0.014597,-0.004847,-1.057039, 0.000178,-0.000008,-0.010549, 0.050740, 0.339424,-0.195902,1,-0.035429, 0.006968, 0.017878,1,-0.076406, 0.190226, 9.804507,1,0
1778107571166,   622.652,   622.647, 0.005522,-0.040282,-0.990710, 0.000086,-0.000441,-0.009993, 0.079146,-0.147115,-0.394047,1,-0.025076, 0.015730, 0.010788,1,-0.079495, 0.185482, 9.804573,1,0
1778107571193,   622.677,   622.677,-0.008835,-0.006811,-0.942316,-0.000069,-0.000100,-0.009509,-0.165071, 0.107044, 0.563828,1,-0.054393,-0.023013, 0.036200,1,-0.077692, 0.172153, 9.804832,1,0
1778107571215,   622.702,   622.697, 0.030789,-0.037313,-1.033855, 0.000302,-0.000334,-0.010418, 0.057743,-0.002235,-0.100665,1,-0.048367, 0.007596, 0.019105,1,-0.076784, 0.163622, 9.804984,1,0
1778107571236,   622.722,   622.717, 0.015668,-0.011290,-1.002052, 0.000196,-0.000172,-0.010038, 0.185843,-0.135436,-0.125579,1,-0.062529,-0.005517, 0.037401,1,-0.078593, 0.151185, 9.805170,1,0
1778107571263,   622.747,   622.747, 0.014615, 0.010532,-0.931540, 0.000110, 0.000091,-0.009327, 0.072755, 0.239557, 0.670166,1,-0.052342,-0.016634, 0.030153,1,-0.070033, 0.134645, 9.805475,1,0
1778107571285,   622.772,   622.767, 0.061014,-0.037660,-1.051783, 0.000605,-0.000358,-0.010447, 0.379730,-0.212693,-0.282144,1,-0.056286, 0.015339, 0.029075,1,-0.070931, 0.124651, 9.805601,1,0
1778107571306,   622.792,   622.787, 0.010861, 0.018211,-0.958633, 0.000168, 0.000139,-0.009707, 0.205575, 0.032431,-0.186257,1,-0.051015, 0.002049, 0.045840,1,-0.073947, 0.115887, 9.805686,1,0
1778107571333,   622.817,   622.817, 0.009294, 0.001529,-0.957054, 0.000084, 0.000042,-0.009445, 0.016127, 0.122469, 0.420284,1,-0.021167, 0.014797, 0.025231,1,-0.075464, 0.106817, 9.805778,1,0
1778107571355,   622.842,   622.837, 0.000924,-0.024070,-1.017626, 0.000059,-0.000185,-0.010087, 0.087716,-0.215703,-0.115093,1,-0.027416,-0.007638, 0.032282,1,-0.076136, 0.101876, 9.805825,1,0
1778107571376,   622.862,   622.857,-0.011861, 0.003918,-1.007643,-0.000204, 0.000000,-0.010080,-0.282871, 0.092952,-0.309426,1,-0.008531,-0.034082, 0.030473,1,-0.068896, 0.098412, 9.805914,1,0
1778107571403,   622.887,   622.887, 0.042386,-0.018395,-1.047117, 0.000338,-0.000171,-0.010551, 0.343970,-0.083056,-0.462808,1,-0.001015, 0.038379, 0.012404,1,-0.072889, 0.097308, 9.805897,1,0
1778107571425,   622.912,   622.907, 0.001922, 0.018043,-0.895896,-0.000033, 0.000078,-0.008983, 0.060337, 0.069077, 0.174472,1, 0.036555,-0.011586, 0.009481,1,-0.075335, 0.102027, 9.805830,1,0
1778107571447,   622.932,   622.927, 0.011989,-0.019552,-1.010805, 0.000076,-0.000134,-0.009841,-0.260260, 0.141960, 1.125508,1, 0.050245,-0.018298, 0.000695,1,-0.071508, 0.109456, 9.805779,1,0
1778107571473,   622.957,   622.957, 0.029848,-0.038408,-1.083349, 0.000297,-0.000356,-0.010834, 0.219134,-0.256455,-0.818385,1, 0.040416, 0.016920,-0.000346,1,-0.074100, 0.121462, 9.805617,1,0
1778107571495,   622.982,   622.977,-0.007099,-0.003912,-0.863992,-0.000041, 0.000020,-0.008739, 0.058000, 0.113825, 0.449419,1, 0.052426, 0.006745, 0.003130,1,-0.075698, 0.130784, 9.805486,1,0
1778107571517,   623.002,   622.997, 0.039369,-0.021385,-1.012255, 0.000326,-0.000231,-0.009945,-0.033857,-0.006657, 0.756049,1, 0.072750, 0.007182, 0.003381,1,-0.078548, 0.143871, 9.805280,1,0
1778107571544,   623.027,   623.027, 0.037401,-0.022678,-1.080618, 0.000409,-0.000244,-0.010901, 0.282869,-0.064603,-0.792222,1, 0.054658, 0.014789,-0.003691,1,-0.084375, 0.159498, 9.804990,1,0
1778107571565,   623.052,   623.047, 0.016646,-0.021542,-0.931852, 0.000176,-0.000178,-0.009182, 0.028829, 0.042295, 0.976052,1, 0.074511, 0.010449,-0.014071,1,-0.085885, 0.173081, 9.804747,1,0
1778107571588,   623.072,   623.072, 0.027130,-0.034461,-1.070190, 0.000296,-0.000373,-0.010630, 0.181559,-0.149025,-0.690514,1, 0.039214,-0.009207,-0.005467,1,-0.084209, 0.190140, 9.804445,1,0
1778107571614,   623.097,   623.097, 0.030885,-0.011401,-1.006955, 0.000304,-0.000128,-0.010210, 0.291129, 0.023404,-1.039471,1, 0.035801, 0.003996,-0.002707,1,-0.084438, 0.193494, 9.804378,1,0
1778107571635,   623.122,   623.117, 0.031970,-0.043594,-0.975778, 0.000333,-0.000455,-0.009539, 0.242969,-0.074996, 1.212113,1, 0.066373, 0.006998,-0.002063,1,-0.087384, 0.210536, 9.804000,1,0
1778107571658,   623.142,   623.142, 0.018344,-0.010729,-1.092619, 0.000210,-0.000154,-0.010958, 0.093224, 0.116986,-0.911182,1, 0.026780,-0.006264, 0.011376,1,-0.086461, 0.223043, 9.803732,1,0
1778107571684,   623.167,   623.167, 0.000837,-0.025904,-1.019302, 0.000038,-0.000190,-0.010134,-0.078127,-0.022891,-0.192390,1, 0.061719,-0.008809, 0.001275,1,-0.086060, 0.233070, 9.803502,1,0
1778107571705,   623.192,   623.187, 0.010391,-0.026810,-1.033359, 0.000123,-0.000305,-0.010444,-0.005089,-0.267753,-0.300953,1, 0.030879,-0.013925, 0.008513,1,-0.085074, 0.243209, 9.803265,1,0
1778107571728,   623.212,   623.212,-0.003328,-0.003507,-0.894742,-0.000044,-0.000016,-0.009027,-0.114212, 0.214256, 1.028735,1, 0.037518,-0.008332, 0.002360,1,-0.081312, 0.249822, 9.803130,1,0
1778107571754,   623.237,   623.237, 0.005279,-0.052829,-0.987480, 0.000032,-0.000569,-0.009741,-0.026528,-0.260317, 0.119075,1, 0.042183,-0.019510, 0.001542,1,-0.077689, 0.259078, 9.802919,1,0
1778107571775,   623.262,   623.257, 0.029778, 0.004979,-1.020591, 0.000326, 0.000042,-0.010382, 0.082564, 0.181707,-0.957720,1, 0.028326, 0.003563, 0.011122,1,-0.076321, 0.264874, 9.802775,1,0
1778107571798,   623.282,   623.282, 0.001775,-0.031532,-0.894010, 0.000103,-0.000245,-0.008881,-0.059561,-0.028613, 1.035088,1, 0.078146,-0.024790, 0.008410,1,-0.076187, 0.283052, 9.802268,1,0
1778107571824,   623.307,   623.307, 0.005978,-0.028039,-1.049938, 0.000098,-0.000283,-0.010435,-0.013126, 0.018995,-0.494396,1, 0.060471,-0.029569, 0.008863,1,-0.070816, 0.295854, 9.801930,1,0
1778107571845,   623.332,   623.327, 0.008848,-0.025665,-0.985425, 0.000125,-0.000193,-0.009913, 0.057733, 0.243474,-0.416234,1, 0.074505, 0.013334, 0.005747,1,-0.071107, 0.308401, 9.801541,1,0
1778107571868,   623.352,   623.352,-0.002023,-0.062154,-0.975138,-0.000024,-0.000631,-0.009580,-0.087518,-0.276703, 0.237928,1, 0.089191,-0.042305, 0.008187,1,-0.066351, 0.335604, 9.800681,1,0
1778107571894,   623.377,   623.377, 0.020620,-0.008626,-1.034402, 0.000227,-0.000131,-0.010326, 0.140563, 0.264726,-0.343782,1, 0.089679,-0.015092,-0.002299,1,-0.061182, 0.352115, 9.800136,1,0
1778107571916,   623.402,   623.397, 0.030268,-0.058351,-0.931057, 0.000281,-0.000600,-0.009299, 0.287899, 0.029261, 0.641689,1, 0.112456,-0.003955, 0.003501,1,-0.063008, 0.372705, 9.799362,1,0
1778107571938,   623.427,   623.422, 0.012954,-0.017943,-1.059258, 0.000184,-0.000198,-0.010569, 0.068412, 0.228623,-0.589648,1, 0.127176,-0.007658,-0.005559,1,-0.058392, 0.408552, 9.797962,1,0
1778107571964,   623.447,   623.447, 0.033218,-0.008816,-0.995471, 0.000297,-0.000076,-0.010154, 0.265138, 0.344917, 0.034732,1, 0.138552, 0.009354,-0.000852,1,-0.060910, 0.435696, 9.796777,1,0
1778107571986,   623.472,   623.467,-0.006076,-0.085498,-0.999873,-0.000070,-0.000864,-0.009804,-0.038822,-0.466031, 0.766892,1, 0.135905,-0.029567, 0.013797,1,-0.057130, 0.463575, 9.795521,1,0
1778107572008,   623.497,   623.492, 0.018565,-0.041427,-1.102556, 0.000210,-0.000450,-0.011034, 0.129099, 0.085692,-1.018220,1, 0.104706, 0.029328, 0.005898,1,-0.053869, 0.495219, 9.793990,1,0
1778107572034,   623.517,   623.517, 0.013627,-0.098401,-0.960653, 0.000203,-0.000910,-0.009810, 0.072432,-0.454844, 0.372395,1, 0.079703, 0.033655, 0.028742,1,-0.062205, 0.512629, 9.793045,1,0
1778107572056,   623.542,   623.537, 0.033370,-0.012981,-0.934255, 0.000189,-0.000117,-0.009299,-0.064299, 0.098153, 0.764456,1, 0.072562,-0.017677, 0.020707,1,-0.060427, 0.527143, 9.792285,1,0
1778107572079,   623.567,   623.562, 0.043372,-0.074967,-0.970612, 0.000472,-0.000678,-0.009686, 0.363511,-0.189172, 0.272785,1, 0.060128, 0.008151, 0.031137,1,-0.062020, 0.547885, 9.791137,1,0
1778107572104,   623.587,   623.587, 0.013754,-0.083145,-1.023190, 0.000122,-0.000907,-0.010160, 0.072641,-0.260895,-0.243301,1, 0.025322, 0.003031, 0.053012,1,-0.062739, 0.555859, 9.790683,1,0
1778107572126,   623.612,   623.607, 0.013758,-0.046528,-1.021731, 0.000123,-0.000393,-0.010321, 0.242911, 0.356859,-0.632251,1, 0.036869, 0.032062, 0.032944,1,-0.066342, 0.561994, 9.790309,1,0
1778107572149,   623.637,   623.632,-0.005635,-0.086715,-0.936434,-0.000113,-0.000954,-0.009337,-0.126135,-0.285699, 0.606841,1,-0.017655, 0.003492, 0.080759,1,-0.070842, 0.564156, 9.790153,1,0
1778107572174,   623.657,   623.657,-0.004443,-0.036611,-0.999943,-0.000095,-0.000397,-0.010061,-0.112866, 0.200765,-0.015681,1,-0.021871, 0.014156, 0.057681,1,-0.069631, 0.559130, 9.790450,1,0
1778107572196,   623.682,   623.677, 0.012025,-0.087014,-0.957287, 0.000172,-0.000803,-0.009635, 0.169796,-0.086915,-0.070755,1,-0.041505, 0.036540, 0.073637,1,-0.075319, 0.554132, 9.790692,1,0
1778107572219,   623.707,   623.702,-0.000799,-0.030403,-1.010194,-0.000004,-0.000327,-0.010219,-0.080642, 0.237489,-0.114879,1,-0.069334,-0.016693, 0.090737,1,-0.072134, 0.533499, 9.791862,1,0
1778107572244,   623.727,   623.727, 0.035762,-0.038988,-1.047401, 0.000285,-0.000364,-0.010415, 0.277596, 0.143228,-0.479211,1,-0.052203, 0.025366, 0.072850,1,-0.073782, 0.523955, 9.792365,1,0
1778107572266,   623.752,   623.747, 0.026627,-0.040434,-0.975463, 0.000261,-0.000413,-0.009677, 0.337282,-0.268833, 0.662699,1,-0.106587, 0.018389, 0.126504,1,-0.078590, 0.506458, 9.793248,1,0
1778107572293,   623.777,   623.777, 0.022981,-0.011769,-1.016594, 0.000167,-0.000088,-0.009887, 0.145953, 0.368373,-0.175000,1,-0.049147, 0.020506, 0.089939,1,-0.079910, 0.482279, 9.794457,1,0
1778107572315,   623.797,   623.797, 0.020678,-0.045151,-1.057004, 0.000207,-0.000482,-0.010624, 0.118136, 0.024393,-0.570519,1,-0.120307, 0.015014, 0.145560,1,-0.084959, 0.463427, 9.795325,1,0
1778107572336,   623.822,   623.817,-0.010821,-0.027092,-0.966308,-0.000050,-0.000230,-0.009685,-0.249520, 0.297016, 0.102267,1,-0.100221,-0.008326, 0.137282,1,-0.081661, 0.440446, 9.796413,1,0
1778107572363,   623.847,   623.847, 0.021767,-0.061073,-0.960406, 0.000195,-0.000666,-0.009778, 0.127980,-0.179160, 0.378919,1,-0.114854, 0.026307, 0.144361,1,-0.086107, 0.416217, 9.797435,1,0
1778107572385,   623.872,   623.867, 0.006016, 0.018375,-0.943416, 0.000042, 0.000162,-0.009378,-0.112490, 0.427562, 0.440685,1,-0.126226,-0.033779, 0.164090,1,-0.080231, 0.390372, 9.798549,1,0
1778107572406,   623.892,   623.887, 0.034339,-0.037383,-1.095376, 0.000379,-0.000350,-0.010956, 0.112777, 0.303957,-0.181969,1,-0.048725,-0.003213, 0.117855,1,-0.076778, 0.375963, 9.799140,1,0
1778107572433,   623.917,   623.917, 0.024150,-0.006669,-1.037870, 0.000260,-0.000066,-0.010450, 0.159389, 0.286404,-0.377997,1,-0.111415,-0.009814, 0.180964,1,-0.076936, 0.348373, 9.800159,1,0
1778107572455,   623.942,   623.937, 0.039215,-0.022774,-0.993772, 0.000311,-0.000132,-0.009797, 0.009304, 0.418707, 0.935994,1,-0.026691,-0.002871, 0.127731,1,-0.075077, 0.336394, 9.800591,1,0
1778107572476,   623.962,   623.957, 0.018627,-0.011427,-1.022625, 0.000223,-0.000126,-0.010195, 0.186361,-0.041244,-0.145896,1,-0.057434, 0.002885, 0.151949,1,-0.075034, 0.331370, 9.800762,1,0
1778107572503,   623.987,   623.987, 0.025186, 0.006139,-1.005356, 0.000195, 0.000155,-0.010012, 0.178212, 0.376182,-0.057854,1,-0.011795, 0.004781, 0.139554,1,-0.069627, 0.315313, 9.801332,1,0
1778107572525,   624.012,   624.007, 0.025293,-0.002334,-1.000137, 0.000269,-0.000173,-0.010075, 0.204909,-0.023338,-0.406852,1,-0.000347, 0.014161, 0.146927,1,-0.072215, 0.317046, 9.801258,1,0
1778107572546,   624.032,   624.027, 0.029642, 0.019967,-0.913207, 0.000275, 0.000208,-0.009135,-0.066853, 0.450386, 0.340947,1,-0.058379,-0.016028, 0.187447,1,-0.069788, 0.307533, 9.801579,1,0
1778107572573,   624.057,   624.057, 0.056408,-0.025046,-0.993036, 0.000566,-0.000233,-0.009974, 0.480406, 0.064055, 0.063134,1, 0.022649, 0.011976, 0.151264,1,-0.072992, 0.310410, 9.801464,1,0
1778107572595,   624.082,   624.077,-0.004287, 0.030184,-1.033387,-0.000125, 0.000308,-0.010208,-0.108062, 0.461645, 0.075509,1,-0.043879,-0.047998, 0.205163,1,-0.067387, 0.304849, 9.801679,1,0
1778107572616,   624.102,   624.097, 0.035227,-0.051972,-1.177434, 0.000371,-0.000457,-0.011771, 0.213962, 0.337018,-1.062659,1, 0.022157, 0.042448, 0.169138,1,-0.068452, 0.302952, 9.801730,1,0
1778107572643,   624.127,   624.127, 0.013190,-0.029164,-1.054071, 0.000233,-0.000321,-0.010793,-0.163863, 0.410671, 0.346477,1,-0.038464, 0.010912, 0.224368,1,-0.079207, 0.302799, 9.801654,1,0
1778107572665,   624.152,   624.147, 0.024109,-0.028175,-0.945566, 0.000237,-0.000265,-0.009122, 0.000083, 0.541580, 2.069355,1, 0.014852, 0.011947, 0.181764,1,-0.079009, 0.299549, 9.801756,1,0
1778107572687,   624.172,   624.167, 0.027039,-0.000139,-1.067298, 0.000186,-0.000075,-0.010771, 0.171102,-0.289251,-1.054283,1, 0.012579, 0.018345, 0.174948,1,-0.080108, 0.308276, 9.801476,1,0
1778107572713,   624.197,   624.197, 0.003155, 0.001577,-1.016020,-0.000076,-0.000016,-0.010457,-0.058513, 0.314557,-0.162071,1,-0.010619, 0.046661, 0.193634,1,-0.090758, 0.298801, 9.801677,1,0
1778107572735,   624.222,   624.217,-0.008439,-0.029035,-1.000986,-0.000011,-0.000481,-0.010081,-0.087857,-0.078010, 0.310797,1, 0.054619, 0.031103, 0.162870,1,-0.095612, 0.307521, 9.801361,1,0
1778107572757,   624.242,   624.237,-0.001737,-0.003773,-0.932019,-0.000044,-0.000007,-0.009205,-0.288429, 0.111288, 0.394982,1,-0.046578, 0.004322, 0.200041,1,-0.095662, 0.300848, 9.801567,1,0
1778107572784,   624.267,   624.267, 0.011807,-0.048013,-1.055462, 0.000012,-0.000501,-0.010581, 0.015470,-0.169683,-0.549032,1, 0.019917, 0.040049, 0.159650,1,-0.101409, 0.301832, 9.801479,1,0
1778107572805,   624.292,   624.287,-0.004481, 0.014076,-0.922073,-0.000040, 0.000205,-0.009440,-0.131584, 0.375761,-0.315835,1,-0.029594, 0.022205, 0.191109,1,-0.105808, 0.297107, 9.801578,1,0
1778107572828,   624.312,   624.312, 0.025119,-0.057110,-0.906385, 0.000288,-0.000509,-0.009037, 0.135706,-0.260771, 0.912855,1, 0.042951, 0.032550, 0.142057,1,-0.111506, 0.300677, 9.801405,1,0
1778107572854,   624.337,   624.337, 0.011996,-0.002956,-1.020530, 0.000136,-0.000130,-0.010372, 0.003576, 0.272721,-0.206633,1,-0.027463, 0.000399, 0.167673,1,-0.113920, 0.300916, 9.801370,1,0
1778107572875,   624.362,   624.357, 0.015636,-0.042273,-1.070248, 0.000125,-0.000352,-0.010671,-0.144168, 0.178664,-0.581705,1, 0.029409, 0.002367, 0.155244,1,-0.113492, 0.304096, 9.801277,1,0
1778107572898,   624.382,   624.382,-0.004327,-0.009855,-1.054721,-0.000023,-0.000127,-0.010633,-0.154976, 0.217200,-0.542295,1, 0.013597,-0.001610, 0.158695,1,-0.111142, 0.313765, 9.800999,1,0
1778107572924,   624.407,   624.407, 0.008850,-0.011984,-0.856972, 0.000022,-0.000175,-0.008573,-0.024020, 0.197310, 1.396948,1, 0.020293, 0.013738, 0.152773,1,-0.111076, 0.315516, 9.800943,1,0
1778107572945,   624.432,   624.427, 0.007584,-0.002875,-1.061973, 0.000205,-0.000093,-0.010600, 0.123957,-0.087151, 0.053959,1, 0.045585, 0.015867, 0.134908,1,-0.112184, 0.325535, 9.800603,1,0
1778107572968,   624.452,   624.452,-0.008935, 0.012602,-0.985887,-0.000051, 0.000053,-0.009976,-0.199403, 0.456917, 0.132094,1, 0.036011, 0.002114, 0.153641,1,-0.111684, 0.334510, 9.800307,1,0
1778107572994,   624.477,   624.477,-0.005916,-0.051984,-0.993242, 0.000016,-0.000539,-0.009822,-0.168176,-0.163243, 0.059529,1, 0.070574,-0.007218, 0.128329,1,-0.109797, 0.348797, 9.799830,1,0
1778107573015,   624.502,   624.497, 0.010932,-0.019046,-0.946795, 0.000113,-0.000015,-0.009424,-0.109026, 0.195219, 0.066765,1, 0.038193,-0.010847, 0.139511,1,-0.106624, 0.359297, 9.799486,1,0
1778107573038,   624.522,   624.522, 0.021015,-0.061750,-0.976054, 0.000222,-0.000601,-0.009669, 0.101772,-0.231213, 0.227126,1, 0.071170,-0.007389, 0.133579,1,-0.103921, 0.376611, 9.798864,1,0
1778107573064,   624.547,   624.547, 0.011275,-0.005182,-1.062528, 0.000200,-0.000073,-0.010749, 0.008810, 0.335362,-0.621328,1, 0.045064,-0.008406, 0.134209,1,-0.101330, 0.387630, 9.798462,1,0
1778107573086,   624.572,   624.567, 0.008898,-0.069564,-0.959401, 0.000140,-0.000675,-0.009619, 0.057953, 0.048654, 0.508937,1, 0.054692,-0.005079, 0.147861,1,-0.100648, 0.398026, 9.798053,1,0
1778107573108,   624.592,   624.592, 0.007360,-0.016874,-1.105935, 0.000205,-0.000202,-0.011073,-0.025658, 0.248454,-1.048097,1, 0.044076, 0.003344, 0.129212,1,-0.097755, 0.415311, 9.797364,1,0
1778107573134,   624.617,   624.617, 0.012451,-0.025676,-0.901246, 0.000182,-0.000211,-0.009082, 0.020903, 0.169960, 0.958852,1, 0.043938, 0.007152, 0.149100,1,-0.101223, 0.423171, 9.796992,1,0
1778107573156,   624.642,   624.637,-0.014216,-0.048381,-1.052898,-0.000149,-0.000454,-0.010275,-0.118027,-0.280322, 1.094008,1, 0.044597,-0.019860, 0.138082,1,-0.098102, 0.433967, 9.796552,1,0
1778107573178,   624.667,   624.662, 0.010559,-0.024416,-1.136458, 0.000101,-0.000187,-0.011328, 0.005879, 0.198732,-1.348476,1, 0.010196, 0.048786, 0.143305,1,-0.098990, 0.438531, 9.796340,1,0
1778107573204,   624.687,   624.687,-0.011049,-0.078113,-0.961120,-0.000079,-0.000864,-0.009650,-0.214532,-0.324306, 0.370752,1, 0.018966, 0.032099, 0.145064,1,-0.106976, 0.442366, 9.796083,1,0
1778107573226,   624.712,   624.707,-0.015413,-0.009765,-0.889828,-0.000125,-0.000003,-0.008806,-0.431963, 0.391856, 0.855150,1,-0.008884, 0.002371, 0.133031,1,-0.106059, 0.442598, 9.796083,1,0
1778107573249,   624.737,   624.732,-0.005171,-0.094340,-1.021639,-0.000030,-0.000995,-0.010181,-0.154783,-0.481349,-0.222808,1,-0.005809, 0.009313, 0.131578,1,-0.104181, 0.443677, 9.796054,1,0
1778107573274,   624.757,   624.757, 0.008895,-0.005840,-1.090313, 0.000109,-0.000102,-0.011000,-0.019563, 0.384619,-0.896213,1,-0.004171, 0.023984, 0.123035,1,-0.107367, 0.441798, 9.796105,1,0
1778107573296,   624.777,   624.777,-0.003126,-0.026554,-0.926241, 0.000041,-0.000139,-0.009346,-0.143120, 0.183251, 0.712646,1, 0.016448, 0.017700, 0.125797,1,-0.112839, 0.444212, 9.795934,1,0
1778107573319,   624.807,   624.802, 0.011213,-0.027066,-1.036027, 0.000024,-0.000301,-0.010404,-0.002071, 0.180908,-0.364110,1, 0.005597, 0.011987, 0.102101,1,-0.112255, 0.446542, 9.795835,1,0
1778107573344,   624.827,   624.827, 0.011605,-0.037832,-1.000019, 0.000094,-0.000242,-0.009962,-0.002987, 0.079599,-0.011242,1, 0.035841, 0.028879, 0.109432,1,-0.117532, 0.451760, 9.795534,1,0
1778107573366,   624.852,   624.847,-0.036416,-0.028061,-1.072638,-0.000343,-0.000281,-0.010756,-0.386464,-0.172884,-0.174962,1, 0.013288,-0.010805, 0.126162,1,-0.115853, 0.456538, 9.795332,1,0
1778107573389,   624.877,   624.872, 0.004009,-0.026054,-0.964401,-0.000068,-0.000191,-0.009777,-0.075678, 0.207474, 0.337495,1, 0.032272, 0.033844, 0.094382,1,-0.115910, 0.464017, 9.794980,1,0
1778107573414,   624.897,   624.897, 0.014719,-0.084183,-0.852389, 0.000081,-0.000841,-0.008423, 0.025480,-0.357973, 1.435694,1, 0.018146, 0.013274, 0.118097,1,-0.119101, 0.468194, 9.794744,1,0
1778107573436,   624.922,   624.917, 0.004439, 0.007663,-1.109677, 0.000052, 0.000094,-0.011093, 0.123563, 0.408230,-0.694502,1, 0.013205, 0.010886, 0.098101,1,-0.118532, 0.471062, 9.794613,1,0
1778107573459,   624.947,   624.942,-0.031315,-0.062201,-1.045641,-0.000286,-0.000626,-0.010686,-0.428418,-0.130046,-0.460084,1, 0.018940, 0.009891, 0.132909,1,-0.121433, 0.480583, 9.794114,1,0
1778107573484,   624.967,   624.967,-0.027110,-0.036257,-0.974498,-0.000245,-0.000385,-0.009828,-0.383199, 0.126272, 0.237543,1, 0.016951,-0.029289, 0.110232,1,-0.116261, 0.482404, 9.794087,1,0
1778107573506,   624.992,   624.987, 0.000456,-0.076997,-0.964062, 0.000010,-0.000711,-0.009649,-0.205878,-0.086948, 0.507575,1, 0.004934, 0.005771, 0.111997,1,-0.114552, 0.484389, 9.794010,1,0
1778107573533,   625.017,   625.017,-0.014987,-0.019715,-1.053349,-0.000086,-0.000234,-0.010647,-0.257740, 0.283303,-0.535391,1,-0.031581,-0.021496, 0.143731,1,-0.109881, 0.475708, 9.794489,1,0
1778107573555,   625.037,   625.037, 0.010120,-0.008086,-1.024036, 0.000023,-0.000047,-0.010247,-0.011266, 0.395617,-0.247840,1, 0.006232, 0.026856, 0.111475,1,-0.111174, 0.475152, 9.794501,1,0
1778107573576,   625.062,   625.057,-0.013362,-0.041591,-0.916223,-0.000179,-0.000511,-0.009072,-0.062691,-0.218429, 0.488445,1,-0.036713, 0.009105, 0.157059,1,-0.114587, 0.471234, 9.794651,1,0
1778107573603,   625.087,   625.087,-0.011885,-0.005752,-0.992849,-0.000156,-0.000062,-0.009835,-0.226186, 0.406539, 0.058577,1,-0.014931, 0.005756, 0.119999,1,-0.109636, 0.462525, 9.795123,1,0
1778107573625,   625.112,   625.107,-0.020003,-0.068382,-0.991110,-0.000165,-0.000782,-0.009994,-0.167753,-0.246745,-0.184775,1,-0.035984, 0.016606, 0.147580,1,-0.111983, 0.458267, 9.795297,1,0
1778107573646,   625.132,   625.127,-0.019361,-0.016633,-0.983385,-0.000233,-0.000174,-0.009920,-0.357761, 0.082585,-0.219240,1,-0.065234,-0.031934, 0.160321,1,-0.107087, 0.445881, 9.795923,1,0
1778107573673,   625.157,   625.157, 0.003471,-0.050964,-1.023639, 0.000105,-0.000415,-0.010192,-0.068476,-0.063120,-0.242085,1,-0.041507, 0.006757, 0.130172,1,-0.102541, 0.435412, 9.796442,1,0
1778107573695,   625.182,   625.177,-0.000162,-0.014343,-1.043984, 0.000070,-0.000098,-0.010576,-0.075288, 0.123001,-0.034081,1,-0.078382,-0.020071, 0.171476,1,-0.101206, 0.422280, 9.797031,1,0
1778107573716,   625.202,   625.197, 0.036665,-0.004118,-1.014906, 0.000239,-0.000025,-0.010062, 0.037549, 0.525702,-0.030794,1,-0.020324, 0.000531, 0.132072,1,-0.096936, 0.412380, 9.797496,1,0
1778107573743,   625.227,   625.227, 0.023298,-0.046231,-0.921973, 0.000221,-0.000437,-0.009172, 0.129749,-0.042976, 0.756090,1,-0.035100,-0.010965, 0.166443,1,-0.098171, 0.409354, 9.797610,1,0
1778107573765,   625.252,   625.247, 0.000136,-0.015120,-0.997278, 0.000002,-0.000209,-0.009858,-0.161247, 0.341027, 0.784213,1,-0.014318,-0.030519, 0.148145,1,-0.090128, 0.403689, 9.797923,1,0
1778107573786,   625.272,   625.267,-0.002871,-0.060939,-1.112748, 0.000045,-0.000627,-0.011235, 0.073272,-0.110504,-0.954232,1,-0.000559, 0.017295, 0.124004,1,-0.089517, 0.404516, 9.797894,1,0
1778107573813,   625.297,   625.297,-0.021829,-0.019284,-1.030031,-0.000174,-0.000168,-0.010489,-0.306693, 0.206081,-0.302905,1,-0.038671,-0.011633, 0.163836,1,-0.092055, 0.394031, 9.798298,1,0
1778107573835,   625.322,   625.317,-0.000863,-0.061944,-0.975056, 0.000078,-0.000537,-0.009712,-0.207257, 0.287467, 0.906037,1, 0.030594, 0.005516, 0.117507,1,-0.090636, 0.396168, 9.798225,1,0
1778107573856,   625.342,   625.337,-0.005532,-0.038684,-0.996683,-0.000011,-0.000420,-0.009887, 0.050174,-0.228475, 0.354562,1,-0.029827, 0.009315, 0.143453,1,-0.091672, 0.395672, 9.798236,1,0
1778107573883,   625.367,   625.367,-0.004768,-0.010044,-1.022600,-0.000030,-0.000041,-0.010210,-0.136601, 0.293441,-0.229879,1, 0.018955, 0.020501, 0.115441,1,-0.090336, 0.392559, 9.798373,1,0
1778107573905,   625.392,   625.387, 0.007336,-0.060792,-0.922571, 0.000104,-0.000588,-0.009240,-0.083665,-0.178949,-0.136249,1, 0.025800, 0.049458, 0.118039,1,-0.096821, 0.399301, 9.798039,1,0
1778107573927,   625.412,   625.407,-0.020550,-0.002534,-0.899193,-0.000186,-0.000138,-0.009066,-0.182395, 0.224298, 0.840604,1,-0.003363,-0.007337, 0.144500,1,-0.098074, 0.398848, 9.798045,1,0
1778107573954,   625.437,   625.437, 0.008201,-0.067476,-1.101555, 0.000081,-0.000570,-0.010792,-0.015972,-0.254421,-1.004849,1, 0.047374, 0.019650, 0.081311,1,-0.096903, 0.408795, 9.797647,1,0
1778107573975,   625.462,   625.457,-0.016643,-0.024962,-1.036429,-0.000188,-0.000232,-0.010520,-0.137115,-0.238239,-0.888914,1,-0.014648, 0.019520, 0.134233,1,-0.102461, 0.409368, 9.797566,1,0
1778107573997,   625.482,   625.477,-0.017770,-0.014516,-0.922650,-0.000245,-0.000150,-0.009155,-0.318486, 0.433432, 0.725323,1, 0.014393,-0.013967, 0.107891,1,-0.099627, 0.408278, 9.797641,1,0
1778107574024,   625.507,   625.507, 0.014420,-0.087754,-0.979065, 0.000082,-0.000974,-0.009856, 0.043545,-0.444278, 0.195972,1,-0.010266, 0.008451, 0.095178,1,-0.098003, 0.416006, 9.797332,1,0
1778107574045,   625.532,   625.527, 0.007396, 0.005661,-0.994052, 0.000066, 0.000030,-0.009969,-0.109371, 0.285653,-0.302434,1,-0.007851,-0.011422, 0.116063,1,-0.095381, 0.413466, 9.797465,1,0
1778107574068,   625.552,   625.552, 0.021507,-0.044218,-1.077252, 0.000175,-0.000425,-0.010837, 0.115483,-0.012161,-0.767106,1, 0.048242, 0.004612, 0.079036,1,-0.095471, 0.423002, 9.797058,1,0
1778107574094,   625.577,   625.577,-0.000358,-0.011425,-1.018741, 0.000031,-0.000171,-0.010280,-0.097771, 0.313819,-0.193493,1, 0.009820,-0.019293, 0.107458,1,-0.093509, 0.426194, 9.796938,1,0
1778107574115,   625.602,   625.597, 0.011358,-0.071807,-0.990581, 0.000139,-0.000603,-0.009817,-0.096787, 0.218355, 0.627139,1, 0.054423,-0.011290, 0.083024,1,-0.087947, 0.432861, 9.796698,1,0
1778107574138,   625.622,   625.622, 0.016225,-0.057009,-1.015171, 0.000081,-0.000574,-0.010184, 0.070572,-0.109901,-0.159466,1, 0.029627, 0.002439, 0.101371,1,-0.088471, 0.450120, 9.795915,1,0
1778107574164,   625.647,   625.647,-0.001104, 0.010509,-0.933351,-0.000123, 0.000158,-0.009291,-0.096308, 0.558809, 0.642635,1, 0.050751,-0.009366, 0.099271,1,-0.085043, 0.457359, 9.795610,1,0
1778107574185,   625.672,   625.667, 0.006183,-0.092660,-1.028658,-0.000038,-0.000927,-0.010231, 0.008457,-0.232705,-0.167923,1, 0.088944, 0.002209, 0.063113,1,-0.084446, 0.474295, 9.794809,1,0
1778107574208,   625.692,   625.692,-0.013477,-0.024092,-1.042289,-0.000145,-0.000214,-0.010549,-0.218425, 0.253915,-0.427351,1, 0.041967, 0.004597, 0.102160,1,-0.086243, 0.491513, 9.793945,1,0
1778107574234,   625.717,   625.717,-0.027216,-0.016866,-0.936415,-0.000255,-0.000113,-0.009325,-0.351746, 0.337337, 0.610295,1, 0.098900,-0.008707, 0.077257,1,-0.084454, 0.505836, 9.793231,1,0
1778107574256,   625.742,   625.737,-0.013582,-0.069635,-1.039122,-0.000125,-0.000790,-0.010422,-0.154097,-0.440318,-0.179242,1, 0.085461, 0.008113, 0.063582,1,-0.083964, 0.525555, 9.792197,1,0
1778107574278,   625.762,   625.762,-0.019972,-0.004178,-0.935107,-0.000248,-0.000046,-0.009321,-0.277741, 0.499165, 0.621154,1, 0.072289,-0.005590, 0.097422,1,-0.081544, 0.542417, 9.791298,1,0
1778107574304,   625.787,   625.787,-0.001128,-0.072737,-0.978123,-0.000032,-0.000687,-0.009782,-0.089941,-0.155017, 0.198314,1, 0.104225,-0.010700, 0.059128,1,-0.078296, 0.560453, 9.790309,1,0
1778107574326,   625.812,   625.807,-0.004431,-0.016279,-1.054204,-0.000054,-0.000198,-0.010656,-0.140833, 0.048271,-0.799350,1, 0.069979,-0.018725, 0.084607,1,-0.073821, 0.577297, 9.789365,1,0
1778107574348,   625.832,   625.832, 0.007297,-0.048083,-0.954746, 0.000115,-0.000408,-0.009551,-0.000931, 0.125179, 0.425348,1, 0.103933,-0.002140, 0.082971,1,-0.072267, 0.599970, 9.788013,1,0
1778107574374,   625.857,   625.857,-0.004354,-0.087982,-0.979180, 0.000023,-0.000897,-0.009757,-0.114167,-0.245015, 0.184436,1, 0.098296,-0.007672, 0.082373,1,-0.071072, 0.620870, 9.786718,1,0
1778107574396,   625.882,   625.877, 0.005864,-0.010762,-0.963804, 0.000093,-0.000045,-0.009839, 0.003796, 0.529899,-0.257824,1, 0.058487, 0.012908, 0.112539,1,-0.071439, 0.633878, 9.785882,1,0
1778107574418,   625.907,   625.902,-0.021390,-0.103039,-0.970456,-0.000218,-0.000984,-0.009701,-0.281291,-0.352387, 0.267359,1, 0.109387, 0.003448, 0.091976,1,-0.071441, 0.661509, 9.784053,1,0
1778107574444,   625.927,   625.927, 0.004151,-0.060318,-1.077989, 0.000045,-0.000671,-0.010669,-0.030010, 0.083359,-0.788322,1, 0.054667, 0.004130, 0.114349,1,-0.070601, 0.676605, 9.783027,1,0
1778107574466,   625.952,   625.947,-0.005799,-0.057983,-0.893354,-0.000102,-0.000482,-0.008843,-0.196256, 0.471539, 0.555136,1, 0.048522, 0.011986, 0.132106,1,-0.071183, 0.685051, 9.782434,1,0
1778107574489,   625.977,   625.972, 0.007675,-0.114871,-1.005855, 0.000052,-0.001154,-0.009910, 0.005259,-0.423768,-0.082877,1, 0.053622, 0.005408, 0.114514,1,-0.069923, 0.704430, 9.781067,1,0
1778107574514,   625.997,   625.997,-0.012108,-0.029867,-1.115861, 0.000024,-0.000351,-0.011324,-0.189480, 0.412822,-1.161891,1, 0.012040, 0.025439, 0.145061,1,-0.071181, 0.706056, 9.780941,1,0
1778107574536,   626.022,   626.017,-0.002705,-0.093509,-0.913880,-0.000009,-0.000880,-0.009254,-0.191403, 0.231746, 0.005442,1, 0.040673, 0.043631, 0.143669,1,-0.077680, 0.712226, 9.780444,1,0
1778107574559,   626.047,   626.042,-0.001898,-0.055538,-0.955134,-0.000117,-0.000620,-0.009422,-0.098741, 0.181696, 0.412718,1, 0.029063, 0.012940, 0.140623,1,-0.080205, 0.727278, 9.779316,1,0
1778107574584,   626.067,   626.067, 0.012710,-0.020013,-0.972055, 0.000177,-0.000158,-0.009715, 0.042299, 0.532567, 0.246582,1, 0.017722, 0.031468, 0.157077,1,-0.082960, 0.729416, 9.779134,1,0
1778107574606,   626.092,   626.087, 0.002678,-0.104040,-1.019794,-0.000013,-0.001093,-0.010105,-0.149358,-0.266580, 0.183907,1, 0.050721, 0.027054, 0.143825,1,-0.087000, 0.737086, 9.778523,1,0
1778107574629,   626.117,   626.112,-0.008817,-0.029571,-1.076248, 0.000035,-0.000305,-0.010904,-0.175899, 0.453392,-0.776364,1, 0.005412, 0.014619, 0.157679,1,-0.089518, 0.743598, 9.778008,1,0
1778107574654,   626.137,   626.137,-0.007999,-0.066056,-0.969205, 0.000011,-0.000558,-0.009823,-0.170579, 0.097423, 0.273208,1, 0.010666, 0.019980, 0.164904,1,-0.092371, 0.745591, 9.777829,1,0
1778107574676,   626.162,   626.157, 0.011039,-0.077256,-0.972069, 0.000091,-0.000794,-0.009612,-0.120832,-0.329835, 0.750660,1, 0.020118,-0.000078, 0.163006,1,-0.091509, 0.750197, 9.777485,1,0
1778107574699,   626.187,   626.182, 0.030274,-0.004108,-0.990335, 0.000278,-0.000031,-0.009903, 0.204185, 0.708018, 0.065752,1,-0.012218, 0.052883, 0.182035,1,-0.093530, 0.747133, 9.777700,1,0
1778107574725,   626.207,   626.207, 0.025440,-0.076390,-0.949231, 0.000214,-0.000788,-0.009498, 0.151105,-0.001966, 0.468873,1, 0.001996, 0.043956, 0.191672,1,-0.099289, 0.747287, 9.777632,1,0
1778107574746,   626.232,   626.227, 0.012200,-0.020161,-1.107085,-0.000003,-0.000322,-0.011094,-0.011444, 0.016994,-0.434766,1, 0.007408, 0.025199, 0.184988,1,-0.101089, 0.751827, 9.777266,1,0
1778107574773,   626.257,   626.257, 0.012859,-0.022828,-1.044340, 0.000133,-0.000150,-0.010396, 0.020071, 0.524160,-0.463977,1,-0.005530, 0.033282, 0.214856,1,-0.106553, 0.747922, 9.777507,1,0
1778107574795,   626.277,   626.277,-0.009319,-0.096582,-0.907329, 0.000038,-0.000991,-0.009103,-0.197294,-0.200059, 0.879716,1, 0.000459,-0.014220, 0.218058,1,-0.104942, 0.747173, 9.777581,1,0
1778107574816,   626.302,   626.297, 0.008345,-0.003987,-1.098160, 0.000056,-0.000030,-0.011032,-0.307322, 0.393780,-0.721791,1,-0.038522,-0.019703, 0.210042,1,-0.098523, 0.742118, 9.778033,1,0
1778107574843,   626.327,   626.327, 0.014603,-0.093997,-0.974071, 0.000229,-0.000844,-0.010149, 0.041693,-0.186413, 0.226136,1,-0.030388, 0.026881, 0.246996,1,-0.101774, 0.734518, 9.778574,1,0
1778107574865,   626.352,   626.347,-0.000413,-0.012900,-0.954691, 0.000040,-0.000146,-0.009511,-0.089531, 0.232859, 1.177354,1,-0.016422,-0.010298, 0.237404,1,-0.097547, 0.731246, 9.778862,1,0
1778107574886,   626.372,   626.367, 0.035698,-0.044535,-1.050228, 0.000296,-0.000376,-0.010375, 0.100782, 0.680076,-0.121418,1,-0.015044, 0.018690, 0.218252,1,-0.095243, 0.728503, 9.779090,1,0
1778107574913,   626.397,   626.397, 0.020160,-0.094505,-0.964949, 0.000181,-0.000984,-0.009536, 0.099217,-0.203005, 0.316492,1,-0.012870, 0.026969, 0.258452,1,-0.098687, 0.723428, 9.779432,1,0
1778107574935,   626.422,   626.417, 0.008368,-0.001127,-0.995220,-0.000076,-0.000003,-0.009886,-0.055550, 0.533413, 0.007764,1,-0.006196, 0.002452, 0.225204,1,-0.097539, 0.724082, 9.779395,1,0
1778107574956,   626.442,   626.437, 0.025608,-0.105440,-1.051339, 0.000241,-0.000959,-0.010603,-0.091394, 0.211819,-0.403279,1, 0.014220, 0.019253, 0.224290,1,-0.096059, 0.726808, 9.779208,1,0
1778107574983,   626.467,   626.467, 0.026578,-0.077166,-0.984835, 0.000275,-0.000877,-0.009834, 0.166635,-0.029474, 0.121263,1, 0.011066,-0.001065, 0.238143,1,-0.093422, 0.727683, 9.779168,1,0
1778107575005,   626.492,   626.487, 0.032594,-0.022861,-0.952643, 0.000262,-0.000133,-0.009512, 0.284436, 0.823710, 0.310130,1, 0.021039, 0.017184, 0.204244,1,-0.091207, 0.730851, 9.778953,1,0
1778107575027,   626.512,   626.507, 0.033506,-0.107378,-0.920486, 0.000315,-0.001083,-0.009203, 0.409666, 0.041503, 0.212431,1, 0.005390, 0.016868, 0.235592,1,-0.092115, 0.734387, 9.778680,1,0
1778107575053,   626.537,   626.537, 0.021168,-0.030539,-1.055008, 0.000186,-0.000458,-0.010566, 0.116464, 0.437142,-0.567579,1, 0.008148, 0.026874, 0.227312,1,-0.091424, 0.736943, 9.778494,1,0
1778107575075,   626.562,   626.557, 0.006451,-0.068054,-1.028490, 0.000086,-0.000640,-0.010424,-0.131040, 0.539764,-0.574009,1, 0.011317, 0.042234, 0.238298,1,-0.094318, 0.739337, 9.778286,1,0
1778107575097,   626.582,   626.577,-0.003030,-0.075860,-0.908474, 0.000082,-0.000887,-0.009060,-0.139570,-0.322583, 0.884587,1,-0.007904, 0.023652, 0.263702,1,-0.096819, 0.739037, 9.778284,1,0
1778107575124,   626.607,   626.607, 0.011222,-0.001035,-0.996763, 0.000003,-0.000046,-0.009845, 0.017353, 0.729172, 0.003397,1, 0.000577, 0.008126, 0.229054,1,-0.092418, 0.739405, 9.778298,1,0
1778107575145,   626.632,   626.627, 0.009009,-0.085226,-1.000616, 0.000068,-0.000917,-0.010136, 0.157919, 0.106914,-1.147541,1,-0.020291, 0.049197, 0.268217,1,-0.096139, 0.738130, 9.778359,1,0
1778107575167,   626.652,   626.647,-0.001410,-0.009351,-0.960955,-0.000003,-0.000171,-0.009641, 0.006277, 0.303017, 0.180129,1, 0.002296, 0.036269, 0.274163,1,-0.100424, 0.736148, 9.778465,1,0
1778107575194,   626.677,   626.677,-0.009791,-0.024183,-0.941223,-0.000078,-0.000152,-0.009343,-0.198401, 0.502663, 0.547920,1, 0.012973, 0.027869, 0.256183,1,-0.102646, 0.740305, 9.778129,1,0
1778107575215,   626.702,   626.697,-0.003437,-0.075040,-0.977860, 0.000061,-0.000874,-0.009756,-0.040653,-0.307223, 0.325640,1,-0.022126, 0.026756, 0.290179,1,-0.103998, 0.737877, 9.778297,1,0
1778107575237,   626.722,   626.717,-0.015345, 0.011732,-1.041387,-0.000242, 0.000048,-0.010510,-0.012025, 0.500261,-0.891776,1,-0.015456, 0.018617, 0.278065,1,-0.104944, 0.736422, 9.778398,1,0
1778107575264,   626.747,   626.747, 0.011130,-0.062764,-1.032852, 0.000075,-0.000630,-0.010419,-0.000815, 0.120378,-0.350433,1,-0.020037, 0.049822, 0.302591,1,-0.110807, 0.735366, 9.778412,1,0
1778107575285,   626.772,   626.767,-0.005418,-0.020690,-0.958807,-0.000026,-0.000235,-0.009449,-0.023853, 0.265915, 1.055373,1,-0.012000, 0.009354, 0.307011,1,-0.111259, 0.731538, 9.778694,1,0
1778107575308,   626.792,   626.792, 0.019734,-0.016219,-1.012792, 0.000176,-0.000079,-0.010054, 0.081980, 0.572261,-0.153389,1,-0.000645, 0.041499, 0.296361,1,-0.112123, 0.731370, 9.778697,1,0
1778107575334,   626.817,   626.817, 0.014121,-0.078374,-0.960114, 0.000128,-0.000788,-0.009680, 0.023395,-0.037190, 0.363156,1, 0.000936, 0.039735, 0.332722,1,-0.115542, 0.731544, 9.778644,1,0
1778107575355,   626.842,   626.837,-0.001418, 0.012956,-1.045431,-0.000122, 0.000099,-0.010459, 0.008656, 0.702691,-0.439947,1, 0.017404, 0.022874, 0.302710,1,-0.115802, 0.734820, 9.778396,1,0
1778107575378,   626.862,   626.862, 0.010988,-0.081901,-1.018788, 0.000078,-0.000766,-0.010309,-0.010585,-0.060602,-0.213118,1, 0.008764, 0.044727, 0.328777,1,-0.118956, 0.742966, 9.777741,1,0
1778107575404,   626.887,   626.887, 0.006599,-0.061830,-0.936901, 0.000162,-0.000743,-0.009269,-0.054998, 0.138822, 0.589705,1, 0.022208, 0.013241, 0.334514,1,-0.119327, 0.745986, 9.777508,1,0
1778107575425,   626.912,   626.907,-0.006933,-0.035542,-1.065312,-0.000154,-0.000234,-0.010494,-0.100980, 0.808666,-0.239562,1, 0.024716, 0.020571, 0.303068,1,-0.117237, 0.750701, 9.777172,1,0
1778107575448,   626.932,   626.932, 0.005155,-0.073895,-0.964446,-0.000029,-0.000807,-0.009703,-0.065935, 0.030778, 0.318835,1, 0.001381, 0.016240, 0.353452,1,-0.116140, 0.755612, 9.776807,1,0
1778107575474,   626.957,   626.957,-0.013291,-0.017169,-0.974348,-0.000136,-0.000222,-0.009796,-0.241463, 0.592441, 0.221374,1, 0.036572, 0.004908, 0.312259,1,-0.110518, 0.762057, 9.776371,1,0
1778107575495,   626.982,   626.977, 0.012937,-0.089612,-1.004009, 0.000167,-0.000812,-0.010147,-0.058328, 0.115717,-0.077559,1, 0.024723, 0.033692, 0.332191,1,-0.109465, 0.769725, 9.775783,1,0
1778107575518,   627.002,   627.002,-0.000254,-0.026643,-0.980935, 0.000042,-0.000245,-0.009745,-0.108316, 0.510811, 0.155949,1, 0.030734, 0.001939, 0.354893,1,-0.105010, 0.773163, 9.775560,1,0
1778107575544,   627.027,   627.027,-0.009928, 0.006598,-1.039314,-0.000228, 0.000068,-0.010343,-0.199037, 0.845273,-0.417186,1, 0.052348, 0.015702, 0.316237,1,-0.101378, 0.782304, 9.774871,1,0
1778107575566,   627.052,   627.047, 0.001710,-0.097865,-0.905229,-0.000019,-0.001091,-0.009046, 0.016333,-0.087118,-0.135100,1, 0.014084, 0.022388, 0.367981,1,-0.100288, 0.788038, 9.774422,1,0
1778107575588,   627.072,   627.072,-0.025078, 0.009431,-0.997602,-0.000173,-0.000034,-0.009977,-0.340430, 0.887480,-0.009221,1, 0.032327, 0.010407, 0.344122,1,-0.093948, 0.796099, 9.773831,1,0
1778107575614,   627.097,   627.097, 0.001673,-0.036884,-1.034844,-0.000042,-0.000291,-0.010386,-0.078354, 0.441852,-0.375145,1, 0.029437, 0.037152, 0.358686,1,-0.094996, 0.804587, 9.773127,1,0
1778107575636,   627.122,   627.117,-0.010637,-0.052366,-0.963046,-0.000139,-0.000539,-0.009399,-0.076040,-0.081923, 0.208728,1, 0.008597, 0.017409, 0.384751,1,-0.094077, 0.806069, 9.773013,1,0
1778107575658,   627.147,   627.142,-0.007219, 0.001158,-1.070086,-0.000164, 0.000010,-0.010623,-0.155633, 0.822011,-0.721240,1, 0.010641, 0.018157, 0.356482,1,-0.084486, 0.811082, 9.772686,1,0
1778107575684,   627.167,   627.167, 0.001743,-0.102867,-1.006504, 0.000025,-0.000946,-0.010221,-0.067636,-0.197942,-0.097725,1,-0.019953, 0.030207, 0.408449,1,-0.084610, 0.810332, 9.772747,1,0
1778107575706,   627.192,   627.187,-0.034037,-0.003424,-1.021958,-0.000214,-0.000119,-0.010209,-0.179458, 0.307802, 0.761622,1,-0.016397, 0.012876, 0.405097,1,-0.081049, 0.805333, 9.773190,1,0
1778107575729,   627.217,   627.212,-0.003889,-0.031835,-1.037932,-0.000134,-0.000285,-0.010344,-0.119007, 0.487980,-0.405023,1,-0.037679, 0.047052, 0.402276,1,-0.081312, 0.799108, 9.773700,1,0
1778107575754,   627.237,   627.237, 0.011837,-0.089175,-0.930538, 0.000013,-0.000950,-0.009139, 0.033760,-0.082114, 0.648773,1,-0.045533, 0.035809, 0.426726,1,-0.082357, 0.791087, 9.774343,1,0
1778107575776,   627.262,   627.257,-0.016958, 0.022431,-1.045133,-0.000206, 0.000243,-0.010342,-0.248279, 0.739385,-0.127251,1,-0.045203, 0.009547, 0.402574,1,-0.079325, 0.783741, 9.774960,1,0
1778107575799,   627.287,   627.282, 0.002323,-0.097254,-1.040185, 0.000024,-0.000853,-0.010682,-0.058263,-0.181871,-0.424837,1,-0.067304, 0.049335, 0.431505,1,-0.081514, 0.769880, 9.776043,1,0
1778107575824,   627.307,   627.307,-0.005021,-0.067837,-0.933655,-0.000051,-0.000726,-0.009261,-0.131737, 0.094689, 0.620787,1,-0.054917, 0.035427, 0.431400,1,-0.082557, 0.758346, 9.776937,1,0
1778107575846,   627.332,   627.327, 0.006962,-0.001116,-0.987070, 0.000024, 0.000032,-0.009756,-0.358498, 1.003500, 0.248280,1,-0.079972, 0.040486, 0.423890,1,-0.082324, 0.744170, 9.778028,1,0
1778107575869,   627.357,   627.352, 0.007280,-0.084781,-0.971924, 0.000169,-0.000881,-0.009664,-0.013514,-0.108385, 0.248276,1,-0.087530, 0.036065, 0.445023,1,-0.085003, 0.720430, 9.779782,1,0
1778107575894,   627.377,   627.377,-0.017705,-0.008203,-1.071255,-0.000116,-0.000189,-0.010607,-0.260401, 0.626686,-0.724687,1,-0.099974, 0.033638, 0.441780,1,-0.086830, 0.704135, 9.780952,1,0
1778107575916,   627.402,   627.397,-0.022975,-0.051329,-0.947626,-0.000165,-0.000459,-0.009738,-0.147840, 0.919303,-0.310256,1,-0.112177, 0.051299, 0.459354,1,-0.091113, 0.682637, 9.782438,1,0
1778107575939,   627.427,   627.422,-0.013187,-0.080597,-0.939207,-0.000133,-0.000898,-0.009278,-0.222339,-0.129107, 0.573416,1,-0.090426, 0.029908, 0.445534,1,-0.093011, 0.658597, 9.784068,1,0
1778107575965,   627.447,   627.447,-0.019041, 0.022697,-1.041291,-0.000263, 0.000253,-0.010513,-0.279984, 0.862717,-0.426292,1,-0.128517, 0.049414, 0.470529,1,-0.093836, 0.636267, 9.785538,1,0
1778107575986,   627.467,   627.467,-0.002768,-0.017061,-0.947174,-0.000125,-0.000111,-0.009540,-0.123513, 0.449184, 0.498172,1,-0.107405, 0.052107, 0.475712,1,-0.097062, 0.613291, 9.786973,1,0
1778107576013,   627.497,   627.497,-0.035378,-0.021924,-1.024951,-0.000296,-0.000352,-0.010107,-0.443741, 0.374461,-0.262893,1,-0.116236, 0.018466, 0.466526,1,-0.096496, 0.585985, 9.788651,1,0
1778107576035,   627.517,   627.517, 0.006637, 0.051336,-1.046875,-0.000026, 0.000447,-0.010436,-0.033560, 1.067876,-0.476443,1,-0.139250, 0.052209, 0.491086,1,-0.099394, 0.560258, 9.790129,1,0
1778107576056,   627.542,   627.537,-0.000396,-0.055759,-0.934761, 0.000002,-0.000614,-0.009210, 0.075797, 0.195325, 0.840370,1,-0.074481, 0.035302, 0.470537,1,-0.102933, 0.542086, 9.791115,1,0
1778107576083,   627.567,   627.567,-0.023414, 0.027159,-1.133648,-0.000151, 0.000338,-0.011317,-0.332509, 0.787808,-1.325058,1,-0.107434, 0.044017, 0.490998,1,-0.103450, 0.518282, 9.792398,1,0
1778107576105,   627.592,   627.587,-0.003603,-0.013446,-0.947511, 0.000037,-0.000065,-0.009561,-0.261355, 0.699167, 0.144507,1,-0.080335, 0.056439, 0.492594,1,-0.111092, 0.498404, 9.793346,1,0
1778107576126,   627.612,   627.607,-0.015583,-0.038653,-0.953937,-0.000072,-0.000369,-0.009721,-0.312908, 0.005054, 0.464811,1,-0.033932, 0.043221, 0.463729,1,-0.116924, 0.493217, 9.793541,1,0
1778107576153,   627.637,   627.637,-0.008719, 0.028177,-1.001282,-0.000105, 0.000292,-0.010036,-0.199867, 0.755636,-0.024961,1,-0.058064, 0.011977, 0.483854,1,-0.113993, 0.477684, 9.794346,1,0
1778107576175,   627.662,   627.657, 0.030940,-0.049492,-0.983164, 0.000353,-0.000452,-0.009753, 0.218482, 0.369209, 0.249877,1, 0.004791, 0.036147, 0.440715,1,-0.114971, 0.475332, 9.794449,1,0
1778107576196,   627.682,   627.677, 0.013687, 0.005101,-1.056966, 0.000025,-0.000064,-0.010321, 0.053221, 0.146935,-0.158969,1,-0.000793, 0.032739, 0.457433,1,-0.116632, 0.478077, 9.794295,1,0
1778107576223,   627.707,   627.707, 0.018258, 0.047831,-0.976436, 0.000095, 0.000435,-0.009606, 0.059195, 0.939212, 0.219071,1,-0.000342, 0.026922, 0.474686,1,-0.119985, 0.470323, 9.794630,1,0
1778107576245,   627.732,   627.727,-0.010556,-0.050545,-1.023406,-0.000141,-0.000563,-0.010269,-0.304822, 0.160080,-0.031835,1, 0.045094, 0.009422, 0.427590,1,-0.119058, 0.480262, 9.794159,1,0
1778107576266,   627.752,   627.747,-0.004602,-0.015385,-1.042518, 0.000014,-0.000114,-0.010710,-0.193608, 0.070020,-0.310411,1,-0.023129, 0.009385, 0.475627,1,-0.116970, 0.482947, 9.794052,1,0
1778107576293,   627.777,   627.777, 0.011047,-0.003677,-0.915404, 0.000130, 0.000091,-0.009220,-0.004970, 0.443750, 0.817199,1, 0.038479, 0.014120, 0.436168,1,-0.113081, 0.481166, 9.794186,1,0
1778107576315,   627.802,   627.797, 0.007813,-0.029382,-1.021551,-0.000044,-0.000375,-0.010221, 0.022135, 0.067178,-0.192760,1, 0.012120, 0.017878, 0.430014,1,-0.112755, 0.486654, 9.793919,1,0
1778107576337,   627.822,   627.817, 0.027435, 0.023138,-0.972397, 0.000149, 0.000218,-0.009624, 0.082834, 0.498585,-0.632393,1,-0.047668, 0.015559, 0.481541,1,-0.112594, 0.480470, 9.794226,1,0
1778107576364,   627.847,   627.847,-0.001545,-0.033651,-0.969243, 0.000044,-0.000310,-0.009571,-0.127097, 0.152470, 0.289109,1, 0.029758, 0.016109, 0.412330,1,-0.111815, 0.483552, 9.794083,1,0
1778107576385,   627.872,   627.867, 0.011001,-0.021523,-1.060645, 0.000109,-0.000209,-0.010565,-0.112564,-0.134270,-0.155158,1,-0.056685, 0.024446, 0.465901,1,-0.111388, 0.480145, 9.794255,1,0
1778107576407,   627.892,   627.887,-0.007498, 0.025964,-0.893218, 0.000032, 0.000348,-0.008951, 0.044299, 0.762151, 0.518682,1,-0.081099, 0.002067, 0.487324,1,-0.107153, 0.464560, 9.795054,1,0
1778107576434,   627.917,   627.917, 0.034575,-0.039500,-0.919868, 0.000270,-0.000432,-0.009106, 0.244610, 0.070960, 0.774652,1,-0.045440,-0.043016, 0.427842,1,-0.092490, 0.457036, 9.795558,1,0
1778107576455,   627.942,   627.937, 0.001288, 0.030185,-0.904847, 0.000034, 0.000246,-0.009144, 0.076110, 0.229121, 0.679070,1,-0.103973,-0.099622, 0.496722,1,-0.073356, 0.441792, 9.796419,1,0
1778107576477,   627.962,   627.957, 0.034863, 0.026154,-1.056047, 0.000355, 0.000304,-0.010290, 0.120874, 1.053853, 0.964376,1,-0.094447,-0.172314, 0.483999,1,-0.037921, 0.419959, 9.797581,1,0
1778107576504,   627.987,   627.987, 0.062288,-0.034471,-1.220775, 0.000612,-0.000303,-0.012141, 0.535111,-0.107137,-1.307038,1,-0.095367,-0.109775, 0.475613,1, 0.005681, 0.396282, 9.798638,1,0
1778107576525,   628.012,   628.007, 0.007196, 0.059199,-0.832453, 0.000073, 0.000641,-0.008548, 0.132066, 0.575915, 0.143023,1,-0.137451,-0.128183, 0.531940,1, 0.034210, 0.373097, 9.799490,1,0
1778107576548,   628.032,   628.032, 0.002926,-0.017512,-1.010907, 0.000019,-0.000042,-0.009757, 0.106577, 0.178256,-0.113520,1,-0.037897,-0.145775, 0.460831,1, 0.082941, 0.348691, 9.800098,1,0
1778107576574,   628.057,   628.057,-0.001242,-0.008983,-1.060930, 0.000167,-0.000160,-0.010587, 0.091938, 0.243697,-0.603694,1,-0.107006,-0.131075, 0.509180,1, 0.108746, 0.328286, 9.800550,1,0
1778107576595,   628.082,   628.077,-0.041025, 0.029241,-0.884139,-0.000329, 0.000417,-0.009082,-0.107717, 1.035169, 0.341563,1,-0.070186,-0.152657, 0.505243,1, 0.137911, 0.310189, 9.800773,1,0
1778107576618,   628.102,   628.102,-0.060371,-0.050258,-1.064688,-0.000476,-0.000391,-0.010275,-0.408442,-0.188973,-0.640803,1,-0.002840,-0.169829, 0.439848,1, 0.189321, 0.303541, 9.800122,1,0
1778107576644,   628.127,   628.127, 0.010632, 0.034234,-1.167748, 0.000159, 0.000205,-0.011716, 0.317284, 0.628735,-1.651742,1,-0.067601,-0.133433, 0.488506,1, 0.217643, 0.290571, 9.799928,1,0
1778107576666,   628.152,   628.147,-0.037365, 0.001556,-0.881006,-0.000396, 0.000123,-0.008643,-0.138598, 0.867466, 0.879657,1, 0.050799,-0.124088, 0.440861,1, 0.243532, 0.289800, 9.799341,1,0
1778107576688,   628.172,   628.172,-0.041576,-0.024673,-0.979470,-0.000432,-0.000295,-0.009555,-0.124442, 0.059542, 0.192595,1, 0.027224,-0.159405, 0.432620,1, 0.288665, 0.301964, 9.797749,1,0
1778107576714,   628.197,   628.197,-0.023731, 0.037050,-1.045538,-0.000281, 0.000352,-0.010637, 0.082094, 0.666615,-0.456323,1, 0.051584,-0.121066, 0.420937,1, 0.318992, 0.304448, 9.796731,1,0
1778107576736,   628.222,   628.217,-0.014363,-0.007635,-0.962234,-0.000203,-0.000125,-0.009543, 0.112958, 0.361163,-0.107422,1, 0.094975,-0.100357, 0.390320,1, 0.344344, 0.319100, 9.795406,1,0
1778107576758,   628.242,   628.242,-0.031339, 0.001465,-0.915084,-0.000282, 0.000099,-0.009032, 0.074603, 0.348017, 0.819622,1, 0.065700,-0.175851, 0.402256,1, 0.387839, 0.335209, 9.793242,1,0
1778107576784,   628.267,   628.267,-0.016915, 0.009419,-1.067586,-0.000287, 0.000213,-0.010544, 0.247843, 0.439971,-0.677697,1, 0.105979,-0.111391, 0.365122,1, 0.417595, 0.350430, 9.791486,1,0
1778107576806,   628.287,   628.287,-0.029128,-0.019321,-0.996523,-0.000252,-0.000306,-0.010231, 0.148019, 0.173100, 0.017788,1, 0.070118,-0.083016, 0.406335,1, 0.436726, 0.364194, 9.790149,1,0
1778107576828,   628.312,   628.312,-0.063135, 0.003119,-0.928557,-0.000632, 0.000038,-0.009062,-0.138859, 0.410714, 0.681467,1, 0.082871,-0.159501, 0.368389,1, 0.485694, 0.382150, 9.787157,1,0
1778107576854,   628.337,   628.337,-0.028848,-0.029824,-1.153693,-0.000331,-0.000260,-0.011266, 0.226170, 0.104946,-1.528510,1, 0.099381,-0.116444, 0.362177,1, 0.513158, 0.399931, 9.785045,1,0
1778107576876,   628.362,   628.357,-0.078512, 0.029483,-1.006663,-0.000757, 0.000169,-0.010272, 0.161954, 0.284802,-0.179929,1, 0.029943,-0.116906, 0.424581,1, 0.536292, 0.404183, 9.783629,1,0
1778107576899,   628.387,   628.382,-0.042878, 0.016677,-0.924965,-0.000433, 0.000222,-0.009101, 0.151445, 0.580140, 0.710280,1, 0.087117,-0.115283, 0.361667,1, 0.575834, 0.418247, 9.780791,1,0
1778107576924,   628.407,   628.407,-0.067528,-0.052162,-0.970098,-0.000523,-0.000510,-0.009493,-0.062673,-0.083621, 0.265528,1, 0.060379,-0.163055, 0.396795,1, 0.605168, 0.429035, 9.778552,1,0
1778107576946,   628.432,   628.427,-0.051109, 0.030128,-1.116079,-0.000415, 0.000314,-0.011426, 0.082301, 0.597144,-1.674765,1, 0.016337,-0.096086, 0.410164,1, 0.630368, 0.428399, 9.776988,1,0
1778107576969,   628.457,   628.452,-0.082588,-0.029484,-0.855053,-0.000808,-0.000208,-0.008698,-0.155637, 0.150039, 1.389731,1, 0.060717,-0.107414, 0.406441,1, 0.658190, 0.440225, 9.774629,1,0
1778107576994,   628.477,   628.477,-0.076959,-0.032481,-0.959163,-0.000890,-0.000379,-0.009228,-0.069284, 0.122172, 0.366556,1, 0.017747,-0.147983, 0.407101,1, 0.690602, 0.440371, 9.772386,1,0
1778107577016,   628.502,   628.497,-0.039018, 0.002336,-1.067182,-0.000293, 0.000045,-0.010609, 0.490478, 0.517212,-1.464736,1, 0.039079,-0.048581, 0.385882,1, 0.711759, 0.440104, 9.770880,1,0
1778107577039,   628.527,   628.522,-0.053285,-0.002418,-0.791425,-0.000616,-0.000122,-0.007752, 0.212317, 0.411053, 2.008177,1, 0.012678,-0.116950, 0.437891,1, 0.739104, 0.434140, 9.769116,1,0
1778107577064,   628.547,   628.547,-0.082478, 0.017973,-0.900093,-0.000817, 0.000123,-0.008798,-0.041717, 0.604648, 0.940311,1, 0.001502,-0.160298, 0.393659,1, 0.772633, 0.427482, 9.766815,1,0
1778107577086,   628.572,   628.567,-0.073240,-0.053305,-1.173296,-0.000736,-0.000623,-0.011837, 0.036390, 0.261954,-1.771838,1, 0.007195,-0.124138, 0.392725,1, 0.805411, 0.424761, 9.764286,1,0
1778107577109,   628.597,   628.592,-0.058234, 0.007295,-1.051976,-0.000597, 0.000049,-0.010649, 0.264092, 0.476803,-0.553750,1,-0.035519,-0.110421, 0.431326,1, 0.839146, 0.402991, 9.762367,1,0
1778107577135,   628.617,   628.617,-0.069474, 0.024859,-0.742371,-0.000748, 0.000397,-0.007395, 0.178548, 0.638879, 2.480718,1, 0.021423,-0.111288, 0.396959,1, 0.863816, 0.394678, 9.760555,1,0
1778107577156,   628.642,   628.637,-0.086774,-0.019574,-1.128951,-0.000881,-0.000324,-0.011020, 0.320782,-0.045532, 1.083720,1,-0.027985,-0.184508, 0.408592,1, 0.898665, 0.385021, 9.757794,1,0
1778107577179,   628.667,   628.662,-0.068597, 0.029954,-1.270030,-0.000752, 0.000233,-0.012830, 0.264291, 0.658294,-2.699762,1,-0.026733,-0.068030, 0.397772,1, 0.939569, 0.362530, 9.754803,1,0
1778107577205,   628.687,   628.687,-0.068717,-0.023248,-0.877692,-0.000608,-0.000040,-0.008728, 0.280338, 0.125374, 1.146496,1,-0.025496,-0.117424, 0.423570,1, 0.958345, 0.351281, 9.753387,1,0
1778107577226,   628.712,   628.707,-0.057591, 0.001124,-0.939650,-0.000765,-0.000040,-0.009111, 0.238199, 0.395455, 2.842579,1,-0.021137,-0.175817, 0.396802,1, 0.991517, 0.338115, 9.750536,1,0
1778107577253,   628.737,   628.737, 0.063211, 0.030089,-0.996127, 0.000488, 0.000242,-0.009969, 1.634488, 0.613424,-0.019842,1,-0.047866,-0.008966, 0.394118,1, 1.015278, 0.315597, 9.748846,1,0
1778107577275,   628.757,   628.757, 0.003332, 0.078522,-0.663275, 0.000200, 0.000602,-0.006781, 1.055346, 1.070379, 3.244051,1,-0.026555,-0.054422, 0.432756,1, 1.024771, 0.298112, 9.748403,1,0
1778107577296,   628.782,   628.777, 0.007727, 0.088308,-1.170668, 0.000154, 0.000698,-0.011228, 0.916880, 0.547098, 0.569982,1, 0.030407,-0.074935, 0.380616,1, 1.043786, 0.294241, 9.746503,1,0
1778107577323,   628.807,   628.807,-0.045822,-0.031052,-1.275270,-0.000068,-0.000260,-0.012453, 0.594354,-0.029997,-2.759041,1,-0.009390, 0.019823, 0.441843,1, 1.043485, 0.272756, 9.747160,1,0
1778107577345,   628.832,   628.827,-0.037077, 0.049472,-1.070713,-0.000499, 0.000493,-0.011469, 0.774074, 0.897833,-3.230493,1,-0.049242, 0.220158, 0.441906,1, 1.009650, 0.253864, 9.751233,1,0
1778107577366,   628.852,   628.847,-0.048493, 0.044930,-0.656662,-0.000779, 0.000497,-0.006881, 0.514996, 0.676819, 1.785850,1,-0.013633, 0.183004, 0.449303,1, 0.968282, 0.240881, 9.755756,1,0
1778107577393,   628.877,   628.877,-0.068624, 0.029346,-0.699118,-0.000715, 0.000234,-0.007150, 0.252644, 0.513386, 2.904259,1,-0.016060, 0.170188, 0.438771,1, 0.920642, 0.223803, 9.760775,1,0
1778107577415,   628.902,   628.897,-0.073427, 0.048535,-1.346434,-0.000729, 0.000478,-0.013969, 0.554575, 0.610794,-2.012751,1,-0.010969, 0.241309, 0.435829,1, 0.883774, 0.216271, 9.764351,1,0
1778107577436,   628.922,   628.917,-0.091628, 0.067082,-1.042434,-0.001035, 0.000551,-0.010861, 0.413795, 1.038410,-2.781583,1,-0.006142, 0.232076, 0.477133,1, 0.838365, 0.204557, 9.768607,1,0
1778107577463,   628.947,   628.947,-0.043529, 0.031224,-0.797797,-0.000477, 0.000349,-0.007913, 0.362321, 0.503425, 1.949130,1, 0.046942, 0.217903, 0.405856,1, 0.782674, 0.197663, 9.773369,1,0
1778107577485,   628.972,   628.967,-0.072908, 0.035476,-0.882869,-0.000748, 0.000223,-0.008561, 0.270474, 0.269490, 0.387386,1,-0.014854, 0.129231, 0.438101,1, 0.753689, 0.194121, 9.775718,1,0
1778107577507,   628.992,   628.987,-0.015167, 0.055039,-1.220205,-0.000140, 0.000490,-0.012733, 0.340567, 0.570328,-0.792333,1, 0.071055, 0.203298, 0.429408,1, 0.719390, 0.193342, 9.778316,1,0
1778107577534,   629.017,   629.017,-0.044759, 0.064413,-0.948521,-0.000418, 0.000577,-0.009392, 0.225680, 0.824057, 0.480397,1, 0.042157, 0.190686, 0.450840,1, 0.658952, 0.192742, 9.782587,1,0
1778107577555,   629.042,   629.037,-0.022938,-0.027710,-1.055928,-0.000196,-0.000339,-0.010642, 0.270815, 0.142097,-0.148148,1, 0.071174, 0.202661, 0.393857,1, 0.621179, 0.202064, 9.784870,1,0
1778107577577,   629.062,   629.057,-0.049254, 0.041065,-0.935858,-0.000839, 0.000323,-0.009361, 0.233735, 0.223432,-1.240877,1, 0.020883, 0.122933, 0.416044,1, 0.592621, 0.203546, 9.786611,1,0
1778107577604,   629.087,   629.087,-0.002913, 0.022123,-1.102334, 0.000053, 0.000208,-0.011067, 0.514235, 0.426012,-1.020824,1, 0.038857, 0.206112, 0.377172,1, 0.536629, 0.209617, 9.789713,1,0
1778107577625,   629.112,   629.107,-0.029544, 0.017867,-0.935375,-0.000284, 0.000217,-0.009182, 0.394297, 0.354195, 1.163349,1, 0.028769, 0.164879, 0.396149,1, 0.501648, 0.211599, 9.791525,1,0
1778107577647,   629.132,   629.127,-0.014596, 0.003275,-1.244787,-0.000098, 0.000117,-0.012338, 0.455952, 0.185313,-0.326009,1, 0.046103, 0.195719, 0.355012,1, 0.462885, 0.218016, 9.793293,1,0
1778107577674,   629.157,   629.157,-0.083910,-0.000672,-1.022201,-0.000834, 0.000138,-0.010226,-0.392248, 0.213398,-0.229651,1, 0.032961, 0.125836, 0.358366,1, 0.426951, 0.220520, 9.794869,1,0
1778107577695,   629.182,   629.177,-0.030461,-0.033944,-0.916036, 0.000040,-0.000262,-0.009831, 0.438900, 0.140215,-0.259734,1,-0.008695, 0.169595, 0.354273,1, 0.394488, 0.221321, 9.796212,1,0
1778107577717,   629.202,   629.197,-0.005173, 0.034353,-0.854157,-0.000027, 0.000249,-0.008149, 0.292298, 0.637865, 2.807394,1,-0.009278, 0.153044, 0.364812,1, 0.369714, 0.213284, 9.797357,1,0
1778107577744,   629.227,   629.227, 0.062147, 0.063920,-1.117777, 0.000708, 0.000545,-0.011264, 0.927794, 0.844786,-1.162597,1,-0.001527, 0.171147, 0.350304,1, 0.313248, 0.217546, 9.799232,1,0
1778107577765,   629.252,   629.247, 0.029968, 0.008264,-0.992259,-0.000026,-0.000014,-0.009862,-0.048945, 0.643456,-0.102725,1, 0.075744, 0.184412, 0.324116,1, 0.280755, 0.224351, 9.800062,1,0
1778107577788,   629.272,   629.272,-0.021835,-0.004135,-0.917149,-0.000255,-0.000050,-0.009224, 0.021108, 0.193331, 0.806881,1, 0.034267, 0.123408, 0.332225,1, 0.231636, 0.234705, 9.801105,1,0
1778107577814,   629.297,   629.297, 0.026273,-0.018840,-1.165890, 0.000003,-0.000214,-0.011629,-0.294936, 0.072892, 0.445466,1, 0.067819, 0.145789, 0.315881,1, 0.219188, 0.239646, 9.801270,1,0
1778107577835,   629.322,   629.317,-0.007979, 0.014709,-0.821134, 0.000011, 0.000232,-0.008142, 0.616196, 0.513296, 0.585445,1, 0.014992, 0.235398, 0.330864,1, 0.152831, 0.243766, 9.802428,1,0
1778107577858,   629.342,   629.342, 0.098777, 0.004353,-1.035481, 0.000717, 0.000004,-0.010196, 1.064040, 0.301286,-0.351828,1, 0.024128, 0.244979, 0.269722,1, 0.087946, 0.259263, 9.802828,1,0
1778107577884,   629.367,   629.367,-0.039742, 0.002331,-0.885453,-0.000361, 0.000062,-0.008758,-0.326625, 0.286151, 1.119581,1, 0.055365, 0.181168, 0.288606,1, 0.057696, 0.264960, 9.802900,1,0
1778107577906,   629.392,   629.387, 0.086397, 0.029499,-0.902722, 0.000981, 0.000134,-0.009200, 0.976556, 0.073875,-0.211717,1, 0.010521, 0.281487, 0.259593,1, 0.010361, 0.273244, 9.802837,1,0
1778107577928,   629.412,   629.412, 0.030157,-0.005759,-0.950051, 0.000217, 0.000170,-0.009283, 0.245004, 0.225448, 0.485648,1, 0.098170, 0.239792, 0.248552,1,-0.057993, 0.285024, 9.802336,1,0
1778107577954,   629.437,   629.437, 0.073967, 0.014084,-1.007723, 0.000889, 0.000150,-0.010497, 0.742754, 0.539065,-0.812668,1, 0.035869, 0.267981, 0.234671,1,-0.083905, 0.288848, 9.802036,1,0
1778107577976,   629.462,   629.457, 0.096907,-0.056546,-1.135939, 0.000895,-0.000507,-0.011328, 0.046674, 0.052529,-2.118255,1, 0.092062, 0.219018, 0.231074,1,-0.152598, 0.308883, 9.800596,1,0
1778107577998,   629.482,   629.482,-0.092064,-0.035978,-1.375478,-0.001300,-0.000459,-0.013407,-1.094189,-0.032225,-3.689292,1, 0.031340, 0.081722, 0.250156,1,-0.193648, 0.321724, 9.799459,1,0
1778107578024,   629.507,   629.507,-0.145648,-0.010835,-1.315692,-0.001553,-0.000293,-0.014065,-1.617920, 0.219120,-3.103115,1,-0.023069, 0.029958, 0.208276,1,-0.190316, 0.324778, 9.799422,1,0
1778107578046,   629.532,   629.527,-0.038054,-0.077419,-0.780262,-0.000233,-0.000685,-0.007919,-1.056007,-0.621026, 1.529516,1,-0.046036,-0.044702, 0.209069,1,-0.183243, 0.324871, 9.799554,1,0
1778107578069,   629.552,   629.552, 0.041074,-0.031383,-0.826030, 0.000476,-0.000294,-0.007996, 0.235976, 0.000166, 1.699808,1,-0.045278,-0.038899, 0.186804,1,-0.165426, 0.306610, 9.800460,1,0
1778107578094,   629.577,   629.577, 0.011489, 0.023640,-1.040357, 0.000100, 0.000182,-0.010382,-0.050965, 0.523974,-0.401489,1,-0.074060, 0.029734, 0.210248,1,-0.164364, 0.289948, 9.800984,1,0
1778107578116,   629.602,   629.597, 0.029791,-0.001258,-1.002803, 0.000229, 0.000191,-0.010220, 0.255044, 0.438127,-1.088122,1, 0.003819, 0.057076, 0.184624,1,-0.168829, 0.288796, 9.800942,1,0
1778107578139,   629.627,   629.622,-0.042960, 0.020316,-0.893883,-0.000609,-0.000008,-0.009046,-0.581845, 0.486248, 1.035136,1,-0.008089, 0.000559, 0.181822,1,-0.160404, 0.286852, 9.801142,1,0
1778107578164,   629.647,   629.647,-0.011893,-0.023634,-1.001488,-0.000131,-0.000363,-0.009993,-0.277945, 0.055677,-0.020135,1,-0.030510, 0.011948, 0.198905,1,-0.161504, 0.286599, 9.801130,1,0
1778107578186,   629.672,   629.667,-0.035887, 0.004666,-1.024478,-0.000377,-0.000062,-0.010104,-0.812373, 0.327149, 0.047312,1,-0.025316,-0.009873, 0.193139,1,-0.155223, 0.277200, 9.801502,1,0
