Time,GPS_ts,fGPS_ts,scaledAccelX,scaledAccelY,scaledAccelZ,deltaVelX,deltaVelY,deltaVelZ,estLinearAccelX,estLinearAccelY,estLinearAccelZ,estLinearAccel:valid,estAngularRateX,estAngularRateY,estAngularRateZ,estAngularRate:valid,estGravityX,estGravityY,estGravityZ,estGravity:valid,flag
1778107450402,   491.832,   491.832, 0.012074,-0.016385,-0.994946, 0.000121,-0.000162,-0.009950,-0.000475,-0.020826, 0.047840,1,-0.003838,-0.000179, 0.000439,1,-0.118871, 0.139736, 9.804934,1,0
1778107450402,   491.857,   491.852, 0.011688,-0.016589,-0.996405, 0.000116,-0.000166,-0.009961,-0.005729,-0.018913, 0.035917,1,-0.003783,-0.000147, 0.000162,1,-0.118918, 0.139016, 9.804943,1,0
1778107450403,   491.882,   491.882, 0.012601,-0.015761,-0.996169, 0.000124,-0.000157,-0.009960, 0.004865,-0.015021, 0.035856,1,-0.004123, 0.001241, 0.000034,1,-0.118716, 0.139679, 9.804936,1,0
1778107450403,   491.907,   491.902, 0.012529,-0.016314,-0.995888, 0.000126,-0.000162,-0.009959, 0.001082,-0.017002, 0.039956,1,-0.003189, 0.000226,-0.000002,1,-0.118712, 0.139092, 9.804945,1,0
1778107450403,   491.932,   491.927, 0.011443,-0.016107,-0.995196, 0.000118,-0.000160,-0.009949,-0.006624,-0.019656, 0.045415,1,-0.003105, 0.000544,-0.000144,1,-0.118858, 0.138199, 9.804955,1,0
1778107450403,   491.957,   491.952, 0.011831,-0.015863,-0.996054, 0.000117,-0.000159,-0.009959,-0.006557,-0.016222, 0.036610,1,-0.002771, 0.001066, 0.000094,1,-0.118864, 0.137678, 9.804963,1,0
1778107450403,   491.977,   491.977, 0.011784,-0.016487,-0.995826, 0.000117,-0.000167,-0.009959,-0.003333,-0.024811, 0.039256,1,-0.003162,-0.000571,-0.000570,1,-0.118874, 0.136773, 9.804976,1,0
1778107450403,   492.002,   492.002, 0.012645,-0.016890,-0.996003, 0.000124,-0.000170,-0.009961, 0.005177,-0.029484, 0.037528,1,-0.004009, 0.000040,-0.000393,1,-0.118834, 0.136028, 9.804986,1,0
1778107450403,   492.027,   492.022, 0.012195,-0.016463,-0.996097, 0.000125,-0.000163,-0.009962, 0.003256,-0.024603, 0.045167,1,-0.004703,-0.000386, 0.000084,1,-0.118771, 0.135117, 9.804999,1,0
1778107450403,   492.052,   492.052, 0.010943,-0.015736,-0.995001, 0.000113,-0.000158,-0.009950,-0.011371,-0.020522, 0.047391,1,-0.004532,-0.000374,-0.000029,1,-0.118677, 0.133649, 9.805021,1,0
1778107450403,   492.067,   492.062, 0.010212,-0.015578,-0.996284, 0.000103,-0.000157,-0.009963,-0.014198,-0.013233, 0.043002,1,-0.005618, 0.000367,-0.000522,1,-0.118730, 0.133124, 9.805028,1,0
1778107450416,   501.902,   501.902, 0.011509,-0.016450,-0.995207, 0.000117,-0.000165,-0.009950,-0.007920,-0.097762, 0.046057,1, 0.000831, 0.000501, 0.000494,1,-0.120796, 0.063589, 9.805699,1,0
1778107450437,   501.927,   501.922, 0.011385,-0.015809,-0.995932, 0.000112,-0.000159,-0.009962,-0.013735,-0.089463, 0.040006,1, 0.001696,-0.000410, 0.000358,1,-0.120693, 0.063900, 9.805699,1,0
1778107450459,   501.947,   501.942, 0.012127,-0.015201,-0.995802, 0.000120,-0.000154,-0.009957,-0.007609,-0.087611, 0.041188,1, 0.001258, 0.000045, 0.000581,1,-0.120688, 0.064185, 9.805697,1,0
1778107450486,   501.972,   501.972, 0.012274,-0.015396,-0.996143, 0.000120,-0.000153,-0.009961,-0.000331,-0.086513, 0.036871,1, 0.000657, 0.000378, 0.000805,1,-0.120714, 0.064494, 9.805695,1,0
1778107450508,   501.997,   501.992, 0.012046,-0.015838,-0.995577, 0.000120,-0.000161,-0.009958,-0.004479,-0.095153, 0.042777,1, 0.000902, 0.000104, 0.000654,1,-0.120750, 0.064670, 9.805694,1,0
1778107450530,   502.017,   502.017, 0.011126,-0.015846,-0.995379, 0.000110,-0.000158,-0.009956,-0.011762,-0.090478, 0.044353,1, 0.001297, 0.000048, 0.000561,1,-0.120868, 0.064954, 9.805690,1,0
1778107450556,   502.042,   502.042, 0.010794,-0.016841,-0.995911, 0.000108,-0.000167,-0.009955,-0.015002,-0.100140, 0.039134,1,-0.000165, 0.000423, 0.000256,1,-0.120869, 0.065009, 9.805690,1,0
1778107450578,   502.067,   502.062, 0.012395,-0.015939,-0.996190, 0.000121,-0.000161,-0.009962,-0.005636,-0.094700, 0.038995,1,-0.000569, 0.000171,-0.000147,1,-0.120855, 0.064872, 9.805691,1,0
1778107450600,   502.087,   502.087, 0.013242,-0.015931,-0.995984, 0.000134,-0.000160,-0.009962, 0.009385,-0.089555, 0.038414,1,-0.000744,-0.000847, 0.000719,1,-0.120443, 0.066673, 9.805684,1,0
1778107450626,   502.112,   502.112, 0.013471,-0.015476,-0.995634, 0.000135,-0.000157,-0.009952, 0.011685,-0.085176, 0.041854,1,-0.000280, 0.000025,-0.000061,1,-0.120417, 0.066583, 9.805685,1,0
1778107450648,   502.137,   502.132, 0.010951,-0.016489,-0.995801, 0.000109,-0.000163,-0.009959,-0.002207,-0.095468, 0.038579,1,-0.000249, 0.000071,-0.000629,1,-0.120419, 0.066531, 9.805685,1,0
1778107450670,   502.157,   502.157, 0.010794,-0.016438,-0.995884, 0.000108,-0.000164,-0.009959,-0.014561,-0.095047, 0.039402,1,-0.001868, 0.000059,-0.000656,1,-0.120420, 0.066097, 9.805688,1,0
1778107450696,   502.182,   502.182, 0.011468,-0.016139,-0.995616, 0.000115,-0.000161,-0.009958,-0.007950,-0.092424, 0.042035,1,-0.001577, 0.000901, 0.000022,1,-0.120440, 0.065795, 9.805690,1,0
1778107450718,   502.207,   502.202, 0.013329,-0.015917,-0.995565, 0.000133,-0.000161,-0.009957, 0.004624,-0.091658, 0.033810,1,-0.001724,-0.000601,-0.000007,1,-0.120436, 0.065447, 9.805692,1,0
1778107450741,   502.227,   502.227, 0.013202,-0.015648,-0.996148, 0.000132,-0.000157,-0.009960, 0.009044,-0.088504, 0.036825,1,-0.001570,-0.000516,-0.000008,1,-0.120411, 0.064899, 9.805696,1,0
1778107450766,   502.252,   502.252, 0.012267,-0.016143,-0.995005, 0.000125,-0.000159,-0.009952,-0.000059,-0.093717, 0.048035,1,-0.001362,-0.000495, 0.000563,1,-0.120338, 0.064553, 9.805699,1,0
1778107450788,   502.277,   502.272, 0.011000,-0.016606,-0.995328, 0.000111,-0.000167,-0.009953,-0.006451,-0.090010, 0.041103,1,-0.002253,-0.000243, 0.000353,1,-0.120304, 0.064190, 9.805702,1,0
1778107450811,   502.297,   502.297, 0.010980,-0.016955,-0.996384, 0.000111,-0.000168,-0.009963,-0.012631,-0.100813, 0.034504,1,-0.003632,-0.000148,-0.000380,1,-0.120301, 0.065348, 9.805695,1,0
1778107450836,   502.322,   502.322, 0.012601,-0.015583,-0.996319, 0.000123,-0.000155,-0.009961, 0.003242,-0.087992, 0.035147,1,-0.003234, 0.000527,-0.000305,1,-0.120349, 0.064724, 9.805697,1,0
1778107450858,   502.347,   502.342, 0.012539,-0.015703,-0.995868, 0.000124,-0.000157,-0.009958, 0.001057,-0.080490, 0.037798,1,-0.003488, 0.000177,-0.000438,1,-0.120426, 0.063963, 9.805702,1,0
1778107450881,   502.372,   502.367, 0.011467,-0.015960,-0.995920, 0.000114,-0.000161,-0.009960,-0.008012,-0.093457, 0.039071,1,-0.003366, 0.000116,-0.000312,1,-0.120471, 0.062952, 9.805708,1,0
1778107450906,   502.392,   502.392, 0.011472,-0.015319,-0.996354, 0.000116,-0.000154,-0.009962,-0.007936,-0.087901, 0.034821,1,-0.003767,-0.000119, 0.000398,1,-0.120433, 0.062206, 9.805713,1,0
1778107450928,   502.417,   502.412, 0.012154,-0.015486,-0.996060, 0.000120,-0.000157,-0.009959,-0.002742,-0.090497, 0.042876,1,-0.003704, 0.000487, 0.000066,1,-0.120518, 0.061422, 9.805717,1,0
1778107450951,   502.442,   502.437, 0.011896,-0.015799,-0.995864, 0.000118,-0.000159,-0.009954,-0.003901,-0.094591, 0.039631,1,-0.003714,-0.000013, 0.000395,1,-0.120561, 0.060224, 9.805724,1,0
1778107450977,   502.462,   502.462, 0.012215,-0.015102,-0.995957, 0.000123,-0.000152,-0.009957,-0.000797,-0.088494, 0.038725,1,-0.003195, 0.000418,-0.000244,1,-0.120601, 0.059509, 9.805728,1,0
1778107450998,   502.487,   502.482, 0.011478,-0.015436,-0.995664, 0.000115,-0.000154,-0.009958, 0.000207,-0.084888, 0.030928,1,-0.003709, 0.000290, 0.000380,1,-0.120520, 0.060888, 9.805720,1,0
1778107451021,   502.512,   502.507, 0.010871,-0.015356,-0.996288, 0.000108,-0.000153,-0.009963,-0.013933,-0.090667, 0.035475,1,-0.003268,-0.000376, 0.000187,1,-0.120532, 0.059818, 9.805727,1,0
1778107451047,   502.532,   502.532, 0.010974,-0.014770,-0.996265, 0.000110,-0.000149,-0.009959,-0.012915,-0.085544, 0.035709,1,-0.004225, 0.000379,-0.000269,1,-0.120545, 0.059164, 9.805731,1,0
1778107451068,   502.557,   502.552, 0.012388,-0.015382,-0.995901, 0.000124,-0.000153,-0.009955,-0.004909,-0.087602, 0.041650,1,-0.003303, 0.000050, 0.000328,1,-0.120528, 0.058537, 9.805735,1,0
1778107451091,   502.582,   502.577, 0.012758,-0.015531,-0.995728, 0.000129,-0.000156,-0.009959, 0.004650,-0.094655, 0.040985,1,-0.003280, 0.000107,-0.000119,1,-0.120471, 0.057547, 9.805741,1,0
1778107451117,   502.602,   502.602, 0.012817,-0.014988,-0.995188, 0.000128,-0.000151,-0.009951, 0.005148,-0.089971, 0.046283,1,-0.002656, 0.000334,-0.000820,1,-0.120556, 0.056928, 9.805744,1,0
1778107451138,   502.627,   502.622, 0.011557,-0.014515,-0.996245, 0.000115,-0.000146,-0.009961, 0.000807,-0.088691, 0.042643,1,-0.002785,-0.000016, 0.000036,1,-0.120561, 0.056387, 9.805747,1,0
1778107451161,   502.652,   502.647, 0.010721,-0.014831,-0.996467, 0.000108,-0.000148,-0.009959,-0.015388,-0.089877, 0.033743,1,-0.003248, 0.000495,-0.000282,1,-0.120542, 0.055460, 9.805753,1,0
1778107451187,   502.672,   502.672, 0.011522,-0.015222,-0.995625, 0.000116,-0.000151,-0.009956,-0.007573,-0.094213, 0.042003,1,-0.002340, 0.000210,-0.000042,1,-0.120568, 0.054995, 9.805755,1,0
1778107451208,   502.697,   502.692, 0.011903,-0.014827,-0.995562, 0.000120,-0.000147,-0.009956,-0.005918,-0.093947, 0.042571,1,-0.002725,-0.000536, 0.000449,1,-0.120306, 0.056620, 9.805749,1,0
1778107451235,   502.722,   502.722, 0.012964,-0.014132,-0.995022, 0.000128,-0.000143,-0.009953, 0.006879,-0.082549, 0.047918,1,-0.001469,-0.000609,-0.000429,1,-0.120240, 0.055987, 9.805753,1,0
1778107451257,   502.742,   502.742, 0.012886,-0.014931,-0.997672, 0.000129,-0.000147,-0.009980, 0.006151,-0.090686, 0.021935,1,-0.001825, 0.000048,-0.000214,1,-0.120223, 0.055679, 9.805755,1,0
1778107451278,   502.767,   502.762, 0.012671,-0.015329,-0.994179, 0.000125,-0.000153,-0.009942, 0.001573,-0.093953, 0.040922,1,-0.000509, 0.000178,-0.000418,1,-0.120305, 0.055585, 9.805755,1,0
1778107451305,   502.792,   502.792, 0.013098,-0.014493,-0.993871, 0.000126,-0.000146,-0.009953, 0.008159,-0.086867, 0.059214,1,-0.001145,-0.000425,-0.000565,1,-0.120271, 0.055222, 9.805757,1,0
1778107451327,   502.812,   502.812, 0.011824,-0.013863,-0.998189, 0.000118,-0.000140,-0.009978,-0.004245,-0.080995, 0.016869,1,-0.002443,-0.000099, 0.000425,1,-0.120201, 0.054880, 9.805759,1,0
1778107451349,   502.837,   502.832, 0.009698,-0.015283,-0.995534, 0.000097,-0.000148,-0.009949,-0.021513,-0.092673, 0.039104,1,-0.000923, 0.000649, 0.000547,1,-0.120280, 0.054599, 9.805760,1,0
1778107451376,   502.862,   502.862, 0.011207,-0.016015,-0.995098, 0.000110,-0.000160,-0.009952,-0.010425,-0.102831, 0.047188,1,-0.001116,-0.000489, 0.000085,1,-0.120312, 0.054190, 9.805762,1,0
1778107451397,   502.887,   502.882, 0.013124,-0.012909,-0.996739, 0.000129,-0.000131,-0.009966, 0.008008,-0.070502, 0.034861,1,-0.001858,-0.000245,-0.000204,1,-0.120171, 0.055963, 9.805754,1,0
1778107451419,   502.907,   502.902, 0.012364,-0.014718,-0.995218, 0.000124,-0.000144,-0.009951, 0.005687,-0.079007, 0.027793,1,-0.000895, 0.000205, 0.000054,1,-0.120196, 0.055696, 9.805756,1,0
1778107451446,   502.932,   502.932, 0.011769,-0.015806,-0.995474, 0.000116,-0.000158,-0.009953,-0.004740,-0.099395, 0.043492,1,-0.001169,-0.000220, 0.000391,1,-0.120148, 0.055576, 9.805757,1,0
1778107451467,   502.957,   502.952, 0.012636,-0.014397,-0.997205, 0.000123,-0.000145,-0.009967,-0.003745,-0.089515, 0.032138,1,-0.001004,-0.000002, 0.000569,1,-0.120149, 0.055445, 9.805758,1,0
1778107451489,   502.977,   502.972, 0.012926,-0.014069,-0.995290, 0.000128,-0.000141,-0.009952, 0.000842,-0.083673, 0.033172,1,-0.000389, 0.000157, 0.000203,1,-0.120155, 0.055405, 9.805758,1,0
1778107451516,   503.002,   503.002, 0.012063,-0.014255,-0.995283, 0.000124,-0.000142,-0.009954,-0.001878,-0.084393, 0.045365,1, 0.000357,-0.000172, 0.000419,1,-0.120170, 0.055413, 9.805758,1,0
1778107451537,   503.027,   503.022, 0.010561,-0.014758,-0.997008, 0.000108,-0.000148,-0.009971,-0.008497,-0.083375, 0.033552,1, 0.000734,-0.001424,-0.000159,1,-0.119996, 0.055611, 9.805758,1,0
1778107451559,   503.047,   503.042, 0.011010,-0.014736,-0.996196, 0.000107,-0.000148,-0.009961,-0.012396,-0.089928, 0.036863,1, 0.002046, 0.000043,-0.000018,1,-0.120058, 0.055865, 9.805756,1,0
1778107451586,   503.072,   503.072, 0.012345,-0.014821,-0.995426, 0.000119,-0.000149,-0.009955, 0.000976,-0.089106, 0.043959,1, 0.001270,-0.000678, 0.000086,1,-0.120062, 0.056277, 9.805754,1,0
1778107451607,   503.097,   503.092, 0.013302,-0.014993,-0.995645, 0.000133,-0.000152,-0.009958, 0.002350,-0.092016, 0.035675,1, 0.001380,-0.000007, 0.000132,1,-0.119905, 0.058826, 9.805740,1,0
1778107451629,   503.117,   503.112, 0.013084,-0.015087,-0.996458, 0.000131,-0.000147,-0.009963, 0.009407,-0.085699, 0.039529,1, 0.002095,-0.000096, 0.000395,1,-0.119960, 0.059216, 9.805737,1,0
1778107451656,   503.142,   503.142, 0.012509,-0.015273,-0.995814, 0.000126,-0.000150,-0.009956, 0.002756,-0.089931, 0.040135,1, 0.002563,-0.000363,-0.000204,1,-0.119909, 0.059923, 9.805734,1,0
1778107451677,   503.167,   503.162, 0.010922,-0.015687,-0.995833, 0.000110,-0.000156,-0.009958,-0.001810,-0.089986, 0.040251,1, 0.001838, 0.000000, 0.000281,1,-0.120004, 0.060354, 9.805730,1,0
1778107451699,   503.187,   503.182, 0.011314,-0.015879,-0.996125, 0.000112,-0.000158,-0.009961,-0.008334,-0.087931, 0.045586,1, 0.002643,-0.000564,-0.000164,1,-0.120054, 0.060804, 9.805727,1,0
1778107451726,   503.212,   503.212, 0.010991,-0.015618,-0.995649, 0.000110,-0.000158,-0.009956,-0.012130,-0.091881, 0.041739,1, 0.001894,-0.000521, 0.000825,1,-0.119904, 0.061344, 9.805725,1,0
1778107451748,   503.237,   503.232, 0.012339,-0.015015,-0.996064, 0.000122,-0.000151,-0.009961,-0.006352,-0.087614, 0.035405,1, 0.002048, 0.000523, 0.000430,1,-0.119943, 0.061747, 9.805722,1,0
1778107451770,   503.257,   503.257, 0.012302,-0.015147,-0.995567, 0.000124,-0.000153,-0.009958, 0.000721,-0.086328, 0.042543,1, 0.002608, 0.000016, 0.000232,1,-0.119920, 0.062294, 9.805718,1,0
1778107451796,   503.282,   503.282, 0.012448,-0.016137,-0.995486, 0.000124,-0.000161,-0.009953, 0.002155,-0.093692, 0.043316,1, 0.002132, 0.000071, 0.000259,1,-0.119915, 0.064955, 9.805701,1,0
1778107451818,   503.307,   503.302, 0.012147,-0.016296,-0.996511, 0.000119,-0.000162,-0.009964,-0.003027,-0.092964, 0.034555,1, 0.001707,-0.000311, 0.000844,1,-0.119902, 0.065368, 9.805699,1,0
1778107451840,   503.327,   503.327, 0.011883,-0.016754,-0.996062, 0.000118,-0.000169,-0.009962,-0.003237,-0.098738, 0.037664,1, 0.000290,-0.001097, 0.000063,1,-0.119731, 0.065569, 9.805700,1,0
1778107451866,   503.352,   503.352, 0.011650,-0.016075,-0.995083, 0.000118,-0.000159,-0.009949,-0.005487,-0.091996, 0.047265,1, 0.000589, 0.000353, 0.000333,1,-0.119746, 0.065660, 9.805699,1,0
1778107451888,   503.377,   503.372, 0.011543,-0.016054,-0.996526, 0.000118,-0.000160,-0.009964,-0.002119,-0.092608, 0.036237,1, 0.000445, 0.000198,-0.000553,1,-0.119689, 0.065763, 9.805699,1,0
1778107451910,   503.397,   503.397, 0.011566,-0.016297,-0.995676, 0.000114,-0.000164,-0.009960,-0.006285,-0.094005, 0.041453,1,-0.000565, 0.000404, 0.000164,1,-0.119722, 0.065798, 9.805698,1,0
1778107451936,   503.422,   503.422, 0.011251,-0.016837,-0.995457, 0.000111,-0.000169,-0.009955,-0.009412,-0.099416, 0.043601,1,-0.001269, 0.000248, 0.000395,1,-0.119754, 0.065664, 9.805699,1,0
1778107451958,   503.447,   503.442, 0.012166,-0.016346,-0.996611, 0.000123,-0.000165,-0.009965,-0.003818,-0.097941, 0.040880,1,-0.001569, 0.000657, 0.000251,1,-0.119774, 0.065361, 9.805700,1,0
1778107451981,   503.467,   503.467, 0.012698,-0.015698,-0.995438, 0.000127,-0.000160,-0.009953, 0.004805,-0.089241, 0.043791,1,-0.002883, 0.000785, 0.000252,1,-0.119739, 0.064614, 9.805706,1,0
1778107452006,   503.492,   503.492, 0.012386,-0.016253,-0.995783, 0.000124,-0.000163,-0.009957, 0.001805,-0.093208, 0.040403,1,-0.003319, 0.000097,-0.000090,1,-0.119665, 0.066097, 9.805697,1,0
1778107452028,   503.517,   503.512, 0.012079,-0.015688,-0.995640, 0.000120,-0.000155,-0.009958, 0.002996,-0.084378, 0.039094,1,-0.003073, 0.000507,-0.000249,1,-0.119718, 0.065476, 9.805700,1,0
1778107452051,   503.537,   503.537, 0.010900,-0.016043,-0.995732, 0.000113,-0.000160,-0.009955,-0.012842,-0.092770, 0.040907,1,-0.003251,-0.000726,-0.000106,1,-0.119708, 0.064456, 9.805708,1,0
1778107452076,   503.562,   503.562, 0.011292,-0.015629,-0.996146, 0.000110,-0.000158,-0.009961,-0.008924,-0.089485, 0.036861,1,-0.003630,-0.000077,-0.000327,1,-0.119663, 0.063668, 9.805714,1,0
1778107452098,   503.587,   503.582, 0.010959,-0.015840,-0.995740, 0.000109,-0.000157,-0.009955,-0.004628,-0.091057, 0.048070,1,-0.003787, 0.000882, 0.000099,1,-0.119692, 0.062871, 9.805718,1,0
1778107452121,   503.612,   503.607, 0.012302,-0.015779,-0.995568, 0.000123,-0.000155,-0.009956, 0.000926,-0.092789, 0.042534,1,-0.003111,-0.000063,-0.000517,1,-0.119710, 0.061854, 9.805724,1,0
1778107452146,   503.632,   503.632, 0.011744,-0.014677,-0.995673, 0.000117,-0.000148,-0.009957,-0.004524,-0.082568, 0.041507,1,-0.003310, 0.000056,-0.000409,1,-0.119699, 0.061259, 9.805728,1,0
1778107452168,   503.657,   503.652, 0.012733,-0.015407,-0.995705, 0.000127,-0.000155,-0.009960, 0.001389,-0.085550, 0.038574,1,-0.003020, 0.000093,-0.000651,1,-0.119717, 0.060943, 9.805730,1,0
1778107452191,   503.682,   503.677, 0.012763,-0.015924,-0.996068, 0.000128,-0.000158,-0.009959, 0.005360,-0.094169, 0.037635,1,-0.002073, 0.000149,-0.000798,1,-0.119794, 0.062261, 9.805720,1,0
1778107452217,   503.702,   503.702, 0.012711,-0.015045,-0.995305, 0.000126,-0.000151,-0.009953, 0.004870,-0.085576, 0.045111,1,-0.001350, 0.000033,-0.000642,1,-0.119782, 0.061926, 9.805723,1,0
1778107452238,   503.722,   503.722, 0.012446,-0.016011,-0.996855, 0.000124,-0.000159,-0.009967, 0.002313,-0.095450, 0.029912,1,-0.002406,-0.000217,-0.000476,1,-0.119732, 0.061486, 9.805726,1,0
1778107452261,   503.752,   503.747, 0.011540,-0.015322,-0.995909, 0.000115,-0.000154,-0.009958,-0.006661,-0.089420, 0.039201,1,-0.003103,-0.000471, 0.000199,1,-0.119816, 0.060736, 9.805730,1,0
1778107452287,   503.772,   503.772, 0.010448,-0.014535,-0.995483, 0.000104,-0.000147,-0.009957,-0.017326,-0.082311, 0.043382,1,-0.002126,-0.000165, 0.000280,1,-0.119776, 0.060165, 9.805734,1,0
1778107452308,   503.797,   503.792, 0.011979,-0.015111,-0.996064, 0.000119,-0.000153,-0.009960,-0.010179,-0.094563, 0.036784,1,-0.002602,-0.000511,-0.000164,1,-0.119734, 0.059677, 9.805737,1,0
1778107452331,   503.822,   503.817, 0.012616,-0.014924,-0.995888, 0.000126,-0.000150,-0.009960, 0.003898,-0.087379, 0.039412,1,-0.002401, 0.000337, 0.000131,1,-0.119837, 0.058898, 9.805741,1,0
1778107452357,   503.842,   503.842, 0.012336,-0.014726,-0.995797, 0.000123,-0.000148,-0.009957, 0.001114,-0.085875, 0.040307,1,-0.002701,-0.000607,-0.000139,1,-0.119842, 0.058454, 9.805743,1,0
1778107452378,   503.867,   503.862, 0.012365,-0.014794,-0.996098, 0.000125,-0.000149,-0.009961, 0.001740,-0.087422, 0.038480,1,-0.002367,-0.000280,-0.000180,1,-0.119815, 0.058041, 9.805746,1,0
1778107452401,   503.887,   503.887, 0.012470,-0.014994,-0.996123, 0.000126,-0.000152,-0.009962, 0.002652,-0.087337, 0.037112,1,-0.001514,-0.000329, 0.000587,1,-0.119625, 0.059675, 9.805738,1,0
1778107452427,   503.912,   503.912, 0.011837,-0.014716,-0.996033, 0.000121,-0.000147,-0.009959,-0.003536,-0.084852, 0.037992,1,-0.002027,-0.000074, 0.000327,1,-0.119617, 0.059397, 9.805740,1,0
1778107452448,   503.937,   503.932, 0.010878,-0.014582,-0.995394, 0.000108,-0.000146,-0.009956,-0.005016,-0.083366, 0.040356,1,-0.001777,-0.000447,-0.000242,1,-0.119609, 0.059069, 9.805742,1,0
1778107452475,   503.962,   503.962, 0.011487,-0.015086,-0.996113, 0.000115,-0.000150,-0.009958,-0.006924,-0.089157, 0.037212,1,-0.000311, 0.000077, 0.000070,1,-0.119576, 0.058780, 9.805745,1,0
1778107452497,   503.982,   503.982, 0.011022,-0.014881,-0.995825, 0.000108,-0.000149,-0.009961,-0.011424,-0.087212, 0.040041,1,-0.000679, 0.000059, 0.000532,1,-0.119512, 0.058695, 9.805746,1,0
1778107452518,   504.007,   504.002, 0.011864,-0.014965,-0.995551, 0.000119,-0.000148,-0.009955,-0.005417,-0.087018, 0.039049,1,-0.000272, 0.000070,-0.000575,1,-0.119496, 0.058627, 9.805747,1,0
1778107452545,   504.032,   504.032, 0.012694,-0.015060,-0.996004, 0.000126,-0.000153,-0.009959, 0.004957,-0.089096, 0.038280,1, 0.000134, 0.000151, 0.000454,1,-0.119534, 0.058601, 9.805746,1,0
1778107452567,   504.057,   504.052, 0.012524,-0.015387,-0.995741, 0.000126,-0.000152,-0.009960, 0.008640,-0.086164, 0.038673,1, 0.000497, 0.000347,-0.000295,1,-0.119626, 0.058658, 9.805745,1,0
1778107452589,   504.077,   504.072, 0.012065,-0.015458,-0.996128, 0.000121,-0.000153,-0.009960, 0.002679,-0.085852, 0.035886,1, 0.000986,-0.000141,-0.000289,1,-0.119591, 0.058889, 9.805744,1,0
1778107452616,   504.102,   504.102, 0.012569,-0.014689,-0.995894, 0.000125,-0.000148,-0.009957, 0.003732,-0.082584, 0.039347,1, 0.000824, 0.000237, 0.000049,1,-0.119539, 0.061495, 9.805729,1,0
1778107452637,   504.127,   504.122, 0.011163,-0.015033,-0.995864, 0.000114,-0.000149,-0.009959,-0.003324,-0.088996, 0.044514,1, 0.001549, 0.000061, 0.000600,1,-0.119577, 0.061857, 9.805726,1,0
1778107452659,   504.147,   504.142, 0.011742,-0.014605,-0.996350, 0.000118,-0.000146,-0.009961,-0.003989,-0.087189, 0.039799,1, 0.001463,-0.000405, 0.000651,1,-0.119591, 0.062085, 9.805724,1,0
1778107452686,   504.172,   504.172, 0.011531,-0.015462,-0.995825, 0.000115,-0.000154,-0.009955,-0.006468,-0.089213, 0.040011,1, 0.000945, 0.000519, 0.000404,1,-0.119565, 0.062449, 9.805722,1,0
1778107452707,   504.197,   504.192, 0.011992,-0.015079,-0.995752, 0.000119,-0.000152,-0.009959,-0.001183,-0.090244, 0.040751,1, 0.001442, 0.000036,-0.000173,1,-0.119598, 0.062747, 9.805720,1,0
1778107452729,   504.217,   504.212, 0.012709,-0.015477,-0.996558, 0.000127,-0.000155,-0.009965, 0.003792,-0.084401, 0.043864,1, 0.001796, 0.000118,-0.000131,1,-0.119633, 0.063025, 9.805717,1,0
1778107452756,   504.242,   504.242, 0.012789,-0.015259,-0.996281, 0.000128,-0.000155,-0.009961, 0.005824,-0.086214, 0.035533,1, 0.001091,-0.000683,-0.000064,1,-0.119569, 0.063459, 9.805716,1,0
1778107452777,   504.267,   504.262, 0.011963,-0.015944,-0.995235, 0.000118,-0.000158,-0.009951, 0.000768,-0.093244, 0.043545,1, 0.001732,-0.000381, 0.000392,1,-0.119529, 0.063820, 9.805714,1,0
1778107452799,   504.287,   504.282, 0.010956,-0.015734,-0.995982, 0.000110,-0.000157,-0.009957,-0.005013,-0.085808, 0.045454,1, 0.001679, 0.000111, 0.000404,1,-0.119449, 0.066673, 9.805696,1,0
1778107452826,   504.312,   504.312, 0.011044,-0.016270,-0.996359, 0.000108,-0.000162,-0.009961,-0.011167,-0.092339, 0.034751,1, 0.001583, 0.000161, 0.000557,1,-0.119476, 0.067265, 9.805692,1,0
1778107452847,   504.337,   504.332, 0.011986,-0.016582,-0.995776, 0.000115,-0.000165,-0.009960,-0.007409,-0.096876, 0.040974,1, 0.001834,-0.000868, 0.000521,1,-0.119389, 0.067602, 9.805690,1,0
1778107452869,   504.357,   504.352, 0.013327,-0.016266,-0.995827, 0.000133,-0.000162,-0.009959, 0.004593,-0.095783, 0.039934,1, 0.000543, 0.000290,-0.000006,1,-0.119378, 0.067804, 9.805689,1,0
1778107452896,   504.382,   504.382, 0.012347,-0.015561,-0.995264, 0.000122,-0.000156,-0.009956, 0.001806,-0.084746, 0.045481,1,-0.000103, 0.000503, 0.000114,1,-0.119295, 0.067852, 9.805690,1,0
1778107452917,   504.407,   504.402, 0.011865,-0.016030,-0.995744, 0.000119,-0.000159,-0.009954,-0.000533,-0.091038, 0.036750,1, 0.000482, 0.000155, 0.000040,1,-0.119284, 0.067887, 9.805690,1,0
1778107452939,   504.427,   504.422, 0.011703,-0.016109,-0.995922, 0.000117,-0.000161,-0.009961,-0.007921,-0.092270, 0.040960,1,-0.000294, 0.000510,-0.000166,1,-0.119316, 0.067815, 9.805690,1,0
1778107452966,   504.452,   504.452, 0.011659,-0.016144,-0.995539, 0.000117,-0.000158,-0.009956,-0.004965,-0.090441, 0.042787,1,-0.000141,-0.000052, 0.000278,1,-0.119297, 0.067872, 9.805690,1,0
1778107452988,   504.477,   504.472, 0.012243,-0.015798,-0.995757, 0.000124,-0.000156,-0.009960, 0.002429,-0.089198, 0.035513,1,-0.000211,-0.000207,-0.000231,1,-0.119272, 0.067852, 9.805690,1,0
1778107453010,   504.497,   504.497, 0.012313,-0.016526,-0.994832, 0.000125,-0.000164,-0.009951, 0.001503,-0.091969, 0.049700,1,-0.000141,-0.000096, 0.000019,1,-0.119244, 0.070093, 9.805675,1,0
1778107453036,   504.522,   504.522, 0.011714,-0.016001,-0.996472, 0.000120,-0.000158,-0.009964,-0.004339,-0.086857, 0.033625,1, 0.000011, 0.000333, 0.000264,1,-0.119226, 0.070055, 9.805675,1,0
1778107453058,   504.547,   504.542, 0.011408,-0.016316,-0.995260, 0.000113,-0.000163,-0.009949,-0.006919,-0.086329, 0.050423,1,-0.001288, 0.000545, 0.000315,1,-0.119312, 0.069973, 9.805675,1,0
1778107453080,   504.567,   504.567, 0.011822,-0.016415,-0.995775, 0.000118,-0.000163,-0.009959,-0.003395,-0.091218, 0.040460,1,-0.001570,-0.001018,-0.000019,1,-0.119298, 0.069707, 9.805676,1,0
1778107453106,   504.587,   504.592, 0.012011,-0.015282,-0.994830, 0.000120,-0.000154,-0.009943,-0.001545,-0.080276, 0.049727,1,-0.001702, 0.000227, 0.000563,1,-0.119338, 0.069533, 9.805677,1,0
1778107453128,   504.617,   504.612, 0.014131,-0.015602,-0.993328, 0.000142,-0.000155,-0.009936, 0.012260,-0.083691, 0.032466,1, 0.000025, 0.000706, 0.000667,1,-0.119437, 0.069371, 9.805677,1,0
1778107453150,   504.637,   504.637, 0.012453,-0.015004,-0.995084, 0.000126,-0.000149,-0.009954, 0.002658,-0.077388, 0.047234,1, 0.001561,-0.000439, 0.000693,1,-0.119447, 0.069805, 9.805674,1,0
1778107453176,   504.662,   504.662, 0.010706,-0.014269,-0.998368, 0.000105,-0.000142,-0.009981,-0.014274,-0.069815, 0.015028,1, 0.001615,-0.000013, 0.000934,1,-0.119261, 0.070172, 9.805674,1,0
1778107453198,   504.687,   504.682, 0.010859,-0.018073,-0.996026, 0.000108,-0.000178,-0.009958,-0.017607,-0.089636, 0.040876,1, 0.003688, 0.000109, 0.000016,1,-0.119243, 0.073394, 9.805651,1,0
1778107453221,   504.707,   504.707, 0.012610,-0.016419,-0.994201, 0.000127,-0.000168,-0.009938, 0.004359,-0.086701, 0.055860,1, 0.002782, 0.000296, 0.001196,1,-0.119316, 0.074406, 9.805642,1,0
1778107453246,   504.732,   504.732, 0.012420,-0.015032,-0.996751, 0.000125,-0.000148,-0.009968, 0.002589,-0.072545, 0.030855,1, 0.003626,-0.000198, 0.000671,1,-0.119201, 0.074981, 9.805639,1,0
1778107453268,   504.757,   504.752, 0.010620,-0.018578,-0.995448, 0.000107,-0.000184,-0.009955,-0.012308,-0.099772, 0.036757,1, 0.003783, 0.000309,-0.000227,1,-0.119211, 0.075709, 9.805634,1,0
1778107453291,   504.777,   504.777, 0.009468,-0.016624,-0.995930, 0.000096,-0.000169,-0.009958,-0.026433,-0.086636, 0.038886,1, 0.002494,-0.000636, 0.000236,1,-0.119266, 0.076468, 9.805627,1,0
1778107453316,   504.802,   504.802, 0.011136,-0.016136,-0.997144, 0.000109,-0.000160,-0.009971,-0.010099,-0.081276, 0.026983,1, 0.003203, 0.000139,-0.000016,1,-0.119312, 0.077061, 9.805621,1,0
1778107453338,   504.827,   504.822, 0.014024,-0.017628,-0.994404, 0.000139,-0.000177,-0.009941, 0.006955,-0.087876, 0.044261,1, 0.002941, 0.000715,-0.000248,1,-0.119367, 0.077662, 9.805616,1,0
1778107453361,   504.852,   504.847, 0.014300,-0.016957,-0.995384, 0.000144,-0.000169,-0.009953, 0.020789,-0.087847, 0.044224,1, 0.002827,-0.000234, 0.000616,1,-0.119441, 0.078529, 9.805608,1,0
1778107453387,   504.872,   504.872, 0.014057,-0.017077,-0.997901, 0.000137,-0.000169,-0.009979, 0.018421,-0.088540, 0.019538,1, 0.002507, 0.000168, 0.000327,1,-0.119436, 0.079008, 9.805604,1,0
1778107453408,   504.897,   504.892, 0.012666,-0.018004,-0.995382, 0.000125,-0.000179,-0.009953, 0.005649,-0.091636, 0.050093,1, 0.003162,-0.000013,-0.000006,1,-0.119410, 0.081960, 9.805580,1,0
1778107453431,   504.922,   504.917, 0.011759,-0.017747,-0.995705, 0.000119,-0.000177,-0.009953,-0.003888,-0.091345, 0.041046,1, 0.001795,-0.000638, 0.000357,1,-0.119188, 0.082750, 9.805576,1,0
1778107453457,   504.942,   504.942, 0.010834,-0.018349,-0.996983, 0.000106,-0.000183,-0.009971,-0.012995,-0.097005, 0.028513,1, 0.000737, 0.000499, 0.000619,1,-0.119259, 0.082958, 9.805573,1,0
1778107453478,   504.967,   504.962, 0.010587,-0.017278,-0.994782, 0.000105,-0.000174,-0.009948,-0.018509,-0.092712, 0.042645,1, 0.000213,-0.000330,-0.000032,1,-0.119290, 0.083072, 9.805573,1,0
1778107453501,   504.992,   504.987, 0.010701,-0.016609,-0.996054, 0.000105,-0.000167,-0.009964,-0.014349,-0.079497, 0.037618,1, 0.001052,-0.000508,-0.000092,1,-0.119273, 0.083411, 9.805570,1,0
1778107453527,   505.012,   505.012, 0.011554,-0.017888,-0.996563, 0.000114,-0.000178,-0.009963,-0.005992,-0.091789, 0.032619,1, 0.000752, 0.000132, 0.000229,1,-0.119307, 0.083660, 9.805568,1,0
1778107453548,   505.037,   505.032, 0.012606,-0.018246,-0.995570, 0.000128,-0.000181,-0.009958, 0.001507,-0.093866, 0.038900,1, 0.000396, 0.000673,-0.000375,1,-0.119375, 0.083839, 9.805565,1,0
1778107453571,   505.062,   505.057, 0.013494,-0.017541,-0.995094, 0.000134,-0.000174,-0.009952, 0.012903,-0.088251, 0.047025,1,-0.000099,-0.000532, 0.000143,1,-0.119407, 0.083767, 9.805565,1,0
1778107453597,   505.082,   505.082, 0.013619,-0.017702,-0.996627, 0.000137,-0.000175,-0.009967, 0.014217,-0.087876, 0.031977,1,-0.000549, 0.000229, 0.000204,1,-0.119324, 0.086053, 9.805547,1,0
1778107453618,   505.107,   505.102, 0.012874,-0.017294,-0.995066, 0.000129,-0.000174,-0.009950, 0.010125,-0.083699, 0.042527,1,-0.000103,-0.000192,-0.000094,1,-0.119304, 0.085900, 9.805548,1,0
1778107453641,   505.132,   505.127, 0.011641,-0.017558,-0.995746, 0.000117,-0.000174,-0.009953,-0.005042,-0.086524, 0.040616,1,-0.000904,-0.000399, 0.000036,1,-0.119186, 0.085632, 9.805552,1,0
1778107453667,   505.152,   505.152, 0.009605,-0.017936,-0.996762, 0.000097,-0.000181,-0.009967,-0.024991,-0.090332, 0.030657,1,-0.000176, 0.000201,-0.000441,1,-0.119188, 0.085558, 9.805552,1,0
1778107453688,   505.177,   505.172, 0.011151,-0.017336,-0.993680, 0.000111,-0.000176,-0.009938,-0.012215,-0.089764, 0.039581,1,-0.001926, 0.000852, 0.001020,1,-0.119381, 0.085361, 9.805552,1,0
1778107453715,   505.202,   505.202, 0.010763,-0.017842,-0.994795, 0.000118,-0.000175,-0.009960,-0.013912,-0.090223, 0.049950,1,-0.001012,-0.000642,-0.000153,1,-0.119437, 0.084718, 9.805556,1,0
1778107453737,   505.222,   505.222, 0.009856,-0.016359,-0.999211, 0.000103,-0.000166,-0.009993,-0.022873,-0.075687, 0.006645,1,-0.001142, 0.000146,-0.000130,1,-0.119532, 0.084705, 9.805555,1,0
1778107453758,   505.247,   505.242, 0.012208,-0.017619,-0.995064, 0.000119,-0.000177,-0.009954,-0.003552,-0.069547, 0.034491,1,-0.000804, 0.000237, 0.000568,1,-0.119618, 0.084392, 9.805557,1,0
1778107453785,   505.272,   505.272, 0.014749,-0.018559,-0.994548, 0.000145,-0.000191,-0.009938, 0.024918,-0.097619, 0.052373,1,-0.001409,-0.000269,-0.000768,1,-0.119713, 0.084337, 9.805556,1,0
1778107453807,   505.297,   505.292, 0.016684,-0.016903,-0.996458, 0.000168,-0.000171,-0.009961, 0.039925,-0.075920, 0.038281,1,-0.002804,-0.000653, 0.000172,1,-0.119527, 0.086393, 9.805541,1,0
1778107453829,   505.317,   505.312, 0.016638,-0.018088,-0.995470, 0.000169,-0.000179,-0.009961, 0.048072,-0.088403, 0.031354,1,-0.000405,-0.000212,-0.000331,1,-0.119476, 0.086211, 9.805543,1,0
1778107453855,   505.337,   505.342, 0.014016,-0.016612,-0.995844, 0.000143,-0.000169,-0.009954, 0.018135,-0.076699, 0.039650,1,-0.000016,-0.001208, 0.000834,1,-0.119277, 0.086212, 9.805546,1,0
1778107453877,   505.367,   505.362, 0.006406,-0.017486,-0.997396, 0.000068,-0.000170,-0.009973,-0.035123,-0.064125, 0.038174,1, 0.000248,-0.000404, 0.000649,1,-0.119152, 0.086125, 9.805548,1,0
1778107453899,   505.387,   505.382, 0.006508,-0.018636,-0.994009, 0.000062,-0.000188,-0.009938,-0.055155,-0.091926, 0.033481,1,-0.000184,-0.000627, 0.000082,1,-0.119090, 0.086184, 9.805548,1,0
1778107453926,   505.412,   505.412, 0.007466,-0.015098,-0.994968, 0.000072,-0.000154,-0.009948,-0.045795,-0.061673, 0.048244,1, 0.001828,-0.000070, 0.000641,1,-0.119007, 0.086449, 9.805547,1,0
1778107453947,   505.437,   505.432, 0.010542,-0.015498,-0.996346, 0.000101,-0.000154,-0.009968,-0.035901,-0.058242, 0.031470,1, 0.004783, 0.000085, 0.000350,1,-0.119005, 0.087235, 9.805540,1,0
1778107453969,   505.457,   505.452, 0.012390,-0.017063,-0.996332, 0.000125,-0.000168,-0.009963,-0.000285,-0.068635, 0.054896,1, 0.006625,-0.000138, 0.000219,1,-0.119011, 0.088306, 9.805531,1,0
1778107453996,   505.482,   505.482, 0.014609,-0.016440,-0.996257, 0.000144,-0.000164,-0.009961, 0.024454,-0.068360, 0.035548,1, 0.009045,-0.000055,-0.000194,1,-0.118779, 0.093558, 9.805485,1,0
1778107454017,   505.507,   505.502, 0.015364,-0.019783,-0.995665, 0.000154,-0.000197,-0.009952, 0.029364,-0.087371, 0.043158,1, 0.008601,-0.000116,-0.000158,1,-0.118766, 0.095269, 9.805468,1,0
1778107454039,   505.527,   505.522, 0.015364,-0.018490,-0.995529, 0.000153,-0.000186,-0.009952, 0.026604,-0.089292, 0.039052,1, 0.008537,-0.000560, 0.000423,1,-0.118661, 0.096925, 9.805453,1,0
1778107454066,   505.552,   505.552, 0.014325,-0.018533,-0.996443, 0.000146,-0.000184,-0.009965, 0.021956,-0.082710, 0.033666,1, 0.008277, 0.000463,-0.000006,1,-0.118539, 0.099297, 9.805430,1,0
1778107454087,   505.577,   505.572, 0.010749,-0.019206,-0.995815, 0.000109,-0.000191,-0.009956, 0.002913,-0.084230, 0.040523,1, 0.007578,-0.001428, 0.000512,1,-0.118426, 0.100898, 9.805416,1,0
1778107454109,   505.597,   505.592, 0.008722,-0.019884,-0.996515, 0.000087,-0.000197,-0.009965,-0.023775,-0.088608, 0.041976,1, 0.008185,-0.000433, 0.000711,1,-0.118311, 0.102593, 9.805400,1,0
1778107454136,   505.622,   505.622, 0.007866,-0.020324,-0.996269, 0.000080,-0.000203,-0.009963,-0.041035,-0.094739, 0.035314,1, 0.006821,-0.000220, 0.001255,1,-0.118169, 0.104787, 9.805378,1,0
1778107454157,   505.647,   505.642, 0.009987,-0.020484,-0.995831, 0.000098,-0.000206,-0.009958,-0.030749,-0.093151, 0.046560,1, 0.006022,-0.000529, 0.000963,1,-0.118103, 0.105968, 9.805367,1,0
1778107454179,   505.667,   505.662, 0.012794,-0.020079,-0.996466, 0.000125,-0.000201,-0.009967,-0.004939,-0.094289, 0.028090,1, 0.003987,-0.000647, 0.000582,1,-0.118040, 0.106881, 9.805357,1,0
1778107454206,   505.692,   505.692, 0.014254,-0.020676,-0.996077, 0.000141,-0.000207,-0.009960, 0.021599,-0.092424, 0.037137,1, 0.002755, 0.000717,-0.000276,1,-0.118209, 0.110452, 9.805315,1,0
1778107454228,   505.717,   505.712, 0.015012,-0.021410,-0.995777, 0.000153,-0.000213,-0.009959, 0.025825,-0.090741, 0.040485,1, 0.002129,-0.000302, 0.000064,1,-0.118233, 0.110875, 9.805310,1,0
1778107454250,   505.737,   505.737, 0.013161,-0.021163,-0.996064, 0.000133,-0.000210,-0.009961, 0.010937,-0.096401, 0.037257,1, 0.001546,-0.000585,-0.000252,1,-0.118109, 0.111185, 9.805308,1,0
1778107454276,   505.762,   505.762, 0.011462,-0.020278,-0.995744, 0.000116,-0.000202,-0.009959,-0.005589,-0.087666, 0.040401,1,-0.001342,-0.000275, 0.000103,1,-0.117988, 0.111149, 9.805310,1,0
1778107454298,   505.787,   505.782, 0.009466,-0.019567,-0.996771, 0.000096,-0.000197,-0.009967,-0.020326,-0.080609, 0.026373,1,-0.001133,-0.000690, 0.000039,1,-0.117884, 0.110910, 9.805314,1,0
1778107454320,   505.807,   505.807, 0.010025,-0.020347,-0.995731, 0.000099,-0.000204,-0.009960,-0.019579,-0.088902, 0.040533,1,-0.000393, 0.000200,-0.000089,1,-0.117895, 0.110624, 9.805317,1,0
1778107454346,   505.832,   505.832, 0.010854,-0.020608,-0.995782, 0.000110,-0.000204,-0.009955,-0.011374,-0.091804, 0.040034,1,-0.002707,-0.001027,-0.000176,1,-0.117784, 0.110211, 9.805324,1,0
1778107454368,   505.857,   505.852, 0.011412,-0.020430,-0.995439, 0.000114,-0.000205,-0.009956,-0.009184,-0.090898, 0.036233,1,-0.001694,-0.000043,-0.000156,1,-0.117787, 0.109759, 9.805328,1,0
1778107454391,   505.877,   505.877, 0.012380,-0.020685,-0.996425, 0.000122,-0.000208,-0.009963, 0.003547,-0.092067, 0.033723,1,-0.004785,-0.000186,-0.000078,1,-0.117855, 0.110995, 9.805313,1,0
1778107454416,   505.902,   505.902, 0.012506,-0.020393,-0.995524, 0.000124,-0.000203,-0.009955, 0.004655,-0.089865, 0.042565,1,-0.006108, 0.000797,-0.000445,1,-0.118009, 0.109928, 9.805324,1,0
1778107454438,   505.927,   505.922, 0.012750,-0.019639,-0.996107, 0.000131,-0.000198,-0.009961, 0.010497,-0.087295, 0.039360,1,-0.005614, 0.000701,-0.001118,1,-0.118116, 0.108878, 9.805334,1,0
1778107454461,   505.947,   505.947, 0.012617,-0.019310,-0.995667, 0.000127,-0.000191,-0.009957, 0.005552,-0.081875, 0.041188,1,-0.004310, 0.000314,-0.000697,1,-0.118187, 0.107358, 9.805350,1,0
1778107454486,   505.972,   505.972, 0.012512,-0.020029,-0.996059, 0.000124,-0.000201,-0.009963, 0.004491,-0.089953, 0.037358,1,-0.005533, 0.000092,-0.000731,1,-0.118217, 0.106288, 9.805362,1,0
1778107454508,   505.997,   505.992, 0.011020,-0.019502,-0.995859, 0.000112,-0.000195,-0.009957,-0.009655,-0.092897, 0.041233,1,-0.006292, 0.000209,-0.000289,1,-0.118298, 0.105175, 9.805372,1,0
1778107454531,   506.017,   506.017, 0.010650,-0.018981,-0.995466, 0.000106,-0.000192,-0.009953,-0.013874,-0.082784, 0.043208,1,-0.007285, 0.000349,-0.000302,1,-0.118323, 0.103128, 9.805394,1,0
1778107454556,   506.042,   506.042, 0.011328,-0.018948,-0.996975, 0.000114,-0.000190,-0.009969,-0.007226,-0.083967, 0.028420,1,-0.008036,-0.000742,-0.000393,1,-0.118294, 0.101594, 9.805410,1,0
1778107454578,   506.067,   506.062, 0.012862,-0.018680,-0.995696, 0.000127,-0.000187,-0.009956,-0.000056,-0.081811, 0.040869,1,-0.006692, 0.000046,-0.000330,1,-0.118304, 0.100118, 9.805426,1,0
1778107454601,   506.092,   506.087, 0.013027,-0.018549,-0.996097, 0.000132,-0.000186,-0.009959, 0.009432,-0.081087, 0.037039,1,-0.007085, 0.000119,-0.000946,1,-0.118325, 0.100621, 9.805420,1,0
1778107454626,   506.112,   506.112, 0.012841,-0.017624,-0.995402, 0.000129,-0.000176,-0.009955, 0.007570,-0.073265, 0.043873,1,-0.006595, 0.000674,-0.001439,1,-0.118377, 0.099358, 9.805432,1,0
1778107454648,   506.137,   506.132, 0.012335,-0.018581,-0.996281, 0.000123,-0.000183,-0.009964,-0.001300,-0.082645, 0.034974,1,-0.005138, 0.000676,-0.000932,1,-0.118444, 0.098287, 9.805442,1,0
1778107454671,   506.162,   506.157, 0.011451,-0.017388,-0.996083, 0.000114,-0.000177,-0.009963,-0.006133,-0.073483, 0.037216,1,-0.004381, 0.000553,-0.000433,1,-0.118444, 0.096903, 9.805456,1,0
1778107454697,   506.182,   506.182, 0.012634,-0.018408,-0.995856, 0.000125,-0.000184,-0.009959, 0.005381,-0.084297, 0.039453,1,-0.003288, 0.000048,-0.001261,1,-0.118519, 0.096126, 9.805463,1,0
1778107454718,   506.207,   506.202, 0.012693,-0.017614,-0.995462, 0.000124,-0.000177,-0.009953, 0.005489,-0.079554, 0.043605,1,-0.004271,-0.000966,-0.000911,1,-0.118512, 0.095379, 9.805470,1,0
1778107454741,   506.232,   506.227, 0.011783,-0.017249,-0.996645, 0.000121,-0.000173,-0.009965,-0.002970,-0.074676, 0.031730,1,-0.002963, 0.000528,-0.000556,1,-0.118534, 0.094390, 9.805479,1,0
1778107454767,   506.252,   506.252, 0.010961,-0.017578,-0.995367, 0.000112,-0.000176,-0.009955,-0.011129,-0.078499, 0.044271,1,-0.002753, 0.000534,-0.001303,1,-0.118633, 0.093798, 9.805484,1,0
1778107454788,   506.277,   506.272, 0.011163,-0.016691,-0.996065, 0.000113,-0.000166,-0.009961,-0.014608,-0.073558, 0.042308,1,-0.000993, 0.000065,-0.001493,1,-0.118641, 0.093510, 9.805487,1,0
1778107454811,   506.302,   506.297, 0.011891,-0.017433,-0.995898, 0.000117,-0.000174,-0.009959,-0.002105,-0.074847, 0.039036,1,-0.000766,-0.000167,-0.001116,1,-0.118714, 0.096092, 9.805461,1,0
1778107454837,   506.322,   506.322, 0.012086,-0.017417,-0.995333, 0.000122,-0.000173,-0.009954,-0.000216,-0.074671, 0.044578,1, 0.001387,-0.000141,-0.001410,1,-0.118734, 0.096175, 9.805460,1,0
1778107454858,   506.347,   506.342, 0.012877,-0.017460,-0.996323, 0.000128,-0.000175,-0.009961, 0.001067,-0.072553, 0.042908,1, 0.001627,-0.000681,-0.001565,1,-0.118659, 0.096502, 9.805457,1,0
1778107454881,   506.372,   506.367, 0.012267,-0.017907,-0.996242, 0.000124,-0.000180,-0.009963, 0.001696,-0.078376, 0.035652,1, 0.002355, 0.000142,-0.001465,1,-0.118603, 0.097303, 9.805450,1,0
1778107454907,   506.392,   506.392, 0.011871,-0.017318,-0.995901, 0.000118,-0.000173,-0.009959,-0.002182,-0.072043, 0.038988,1, 0.002374, 0.000152,-0.000828,1,-0.118599, 0.097862, 9.805445,1,0
1778107454928,   506.417,   506.412, 0.011711,-0.018636,-0.996510, 0.000116,-0.000185,-0.009962,-0.005869,-0.079462, 0.039688,1, 0.002919,-0.000800,-0.000985,1,-0.118478, 0.098343, 9.805441,1,0
1778107454955,   506.442,   506.442, 0.011517,-0.018193,-0.995241, 0.000113,-0.000183,-0.009954,-0.005520,-0.079481, 0.045455,1, 0.002036, 0.000210, 0.000083,1,-0.118474, 0.098999, 9.805434,1,0
1778107454977,   506.462,   506.462, 0.011626,-0.018746,-0.995750, 0.000115,-0.000188,-0.009956,-0.004492,-0.084684, 0.040460,1, 0.000078,-0.000352, 0.000337,1,-0.118494, 0.099151, 9.805433,1,0
1778107454998,   506.487,   506.482, 0.011615,-0.018222,-0.995924, 0.000116,-0.000181,-0.009960,-0.003403,-0.087768, 0.035621,1,-0.000145, 0.000076, 0.000321,1,-0.118518, 0.099144, 9.805432,1,0
1778107455025,   506.512,   506.512, 0.012716,-0.017741,-0.995632, 0.000125,-0.000179,-0.009957, 0.006008,-0.071927, 0.041584,1,-0.000331,-0.000010, 0.000431,1,-0.118691, 0.102041, 9.805401,1,0
1778107455047,   506.537,   506.532, 0.011957,-0.019749,-0.996737, 0.000119,-0.000195,-0.009966,-0.000312,-0.083173, 0.035184,1, 0.000285, 0.000104, 0.000839,1,-0.118734, 0.102116, 9.805400,1,0
1778107455069,   506.557,   506.552, 0.012616,-0.019145,-0.995870, 0.000125,-0.000191,-0.009958, 0.002729,-0.089785, 0.034671,1, 0.000127, 0.000093,-0.000210,1,-0.118802, 0.102185, 9.805398,1,0
1778107455095,   506.582,   506.582, 0.012406,-0.019490,-0.995521, 0.000124,-0.000195,-0.009957, 0.002949,-0.089130, 0.042678,1,-0.001046,-0.000515, 0.000401,1,-0.118698, 0.101971, 9.805402,1,0
1778107455117,   506.607,   506.602, 0.012372,-0.020439,-0.995902, 0.000124,-0.000202,-0.009960, 0.001731,-0.094496, 0.035665,1,-0.002184,-0.000063, 0.000786,1,-0.118663, 0.101634, 9.805406,1,0
1778107455139,   506.627,   506.622, 0.011482,-0.019458,-0.994803, 0.000116,-0.000195,-0.009949,-0.003683,-0.096376, 0.041416,1,-0.004348, 0.001151, 0.000515,1,-0.118766, 0.100917, 9.805411,1,0
1778107455166,   506.652,   506.652, 0.010131,-0.018316,-0.995998, 0.000104,-0.000185,-0.009959,-0.019368,-0.080077, 0.038018,1,-0.005920, 0.000031, 0.000366,1,-0.118716, 0.099361, 9.805428,1,0
1778107455187,   506.677,   506.672, 0.010155,-0.018382,-0.996124, 0.000099,-0.000185,-0.009961,-0.026103,-0.080091, 0.040424,1,-0.005100, 0.000313, 0.000419,1,-0.118808, 0.098290, 9.805438,1,0
1778107455209,   506.697,   506.692, 0.009905,-0.017719,-0.995556, 0.000101,-0.000181,-0.009956,-0.023438,-0.078322, 0.043441,1,-0.005631, 0.000576, 0.000369,1,-0.118812, 0.099740, 9.805423,1,0
1778107455236,   506.722,   506.722, 0.012511,-0.018173,-0.996026, 0.000123,-0.000180,-0.009962, 0.003844,-0.079939, 0.037756,1,-0.004809, 0.000112,-0.000316,1,-0.118853, 0.098124, 9.805439,1,0
1778107455257,   506.747,   506.742, 0.013912,-0.017579,-0.995375, 0.000137,-0.000177,-0.009956, 0.020189,-0.078828, 0.039444,1,-0.004495, 0.000675,-0.000329,1,-0.118973, 0.097136, 9.805448,1,0
1778107455279,   506.767,   506.762, 0.014110,-0.017339,-0.995947, 0.000141,-0.000174,-0.009961, 0.021851,-0.066921, 0.045463,1,-0.004229, 0.000190,-0.000369,1,-0.119040, 0.096305, 9.805454,1,0
1778107455306,   506.792,   506.792, 0.012783,-0.017529,-0.996123, 0.000130,-0.000175,-0.009963, 0.006152,-0.076830, 0.036834,1,-0.004992, 0.000584,-0.000138,1,-0.119224, 0.094914, 9.805466,1,0
1778107455327,   506.817,   506.812, 0.012003,-0.017077,-0.995792, 0.000119,-0.000171,-0.009957, 0.000413,-0.078291, 0.041495,1,-0.003908, 0.000634, 0.000199,1,-0.119332, 0.094120, 9.805472,1,0
1778107455349,   506.837,   506.832, 0.011324,-0.017009,-0.995697, 0.000116,-0.000169,-0.009957,-0.000463,-0.066353, 0.038516,1,-0.003594, 0.000007,-0.000283,1,-0.119396, 0.093385, 9.805478,1,0
1778107455376,   506.862,   506.862, 0.011765,-0.017090,-0.995771, 0.000117,-0.000172,-0.009960,-0.004090,-0.074810, 0.040305,1,-0.001253, 0.000243,-0.000483,1,-0.119471, 0.092750, 9.805484,1,0
1778107455397,   506.887,   506.882, 0.011349,-0.016945,-0.996085, 0.000115,-0.000171,-0.009961,-0.004586,-0.075664, 0.039882,1,-0.001238, 0.000369,-0.000448,1,-0.119481, 0.095206, 9.805460,1,0
1778107455419,   506.907,   506.902, 0.011225,-0.016325,-0.995301, 0.000113,-0.000163,-0.009955,-0.008621,-0.065110, 0.039303,1,-0.000514,-0.000210,-0.000060,1,-0.119527, 0.095009, 9.805461,1,0
1778107455446,   506.932,   506.932, 0.012196,-0.017113,-0.996590, 0.000118,-0.000170,-0.009968, 0.000108,-0.073051, 0.032256,1,-0.000008, 0.000056, 0.000068,1,-0.119496, 0.094767, 9.805464,1,0
1778107455467,   506.957,   506.952, 0.012567,-0.017602,-0.995487, 0.000125,-0.000174,-0.009956, 0.001336,-0.070412, 0.038128,1, 0.000600,-0.000615, 0.000445,1,-0.119428, 0.094729, 9.805465,1,0
1778107455490,   506.977,   506.977, 0.012347,-0.017656,-0.996364, 0.000125,-0.000177,-0.009962, 0.001648,-0.078458, 0.034474,1,-0.000004, 0.000039, 0.000007,1,-0.119433, 0.094691, 9.805466,1,0
1778107455516,   507.002,   507.002, 0.012816,-0.017431,-0.995660, 0.000126,-0.000172,-0.009957, 0.006189,-0.076352, 0.041374,1,-0.001028,-0.000135, 0.000035,1,-0.119486, 0.094555, 9.805466,1,0
1778107455538,   507.027,   507.022, 0.012039,-0.017101,-0.995689, 0.000121,-0.000170,-0.009956, 0.004997,-0.070918, 0.038579,1, 0.000604, 0.001305, 0.000113,1,-0.119500, 0.094614, 9.805466,1,0
1778107455560,   507.047,   507.047, 0.011083,-0.016840,-0.995566, 0.000111,-0.000167,-0.009956,-0.010731,-0.070266, 0.042294,1, 0.001217, 0.000280, 0.000163,1,-0.119425, 0.094914, 9.805464,1,0
1778107455586,   507.072,   507.072, 0.010979,-0.016830,-0.995499, 0.000112,-0.000168,-0.009958,-0.011868,-0.069873, 0.042953,1, 0.002039, 0.000651,-0.000099,1,-0.119559, 0.095241, 9.805459,1,0
1778107455608,   507.097,   507.092, 0.012288,-0.017095,-0.996996, 0.000121,-0.000173,-0.009969,-0.003321,-0.068128, 0.034822,1, 0.002940,-0.000632, 0.000632,1,-0.119439, 0.098688, 9.805426,1,0
1778107455630,   507.117,   507.117, 0.012634,-0.017100,-0.995285, 0.000124,-0.000171,-0.009953, 0.004552,-0.068158, 0.045005,1, 0.003128,-0.000272, 0.000450,1,-0.119337, 0.099638, 9.805418,1,0
1778107455656,   507.142,   507.142, 0.013236,-0.017778,-0.995389, 0.000132,-0.000177,-0.009952, 0.010440,-0.074119, 0.043981,1, 0.004703,-0.000068, 0.000265,1,-0.119358, 0.100371, 9.805410,1,0
1778107455678,   507.167,   507.162, 0.012133,-0.017940,-0.996564, 0.000121,-0.000179,-0.009966, 0.001358,-0.073165, 0.038572,1, 0.004938,-0.000829, 0.000537,1,-0.119273, 0.101302, 9.805402,1,0
1778107455701,   507.187,   507.187, 0.010849,-0.017976,-0.995897, 0.000109,-0.000180,-0.009959,-0.012859,-0.073810, 0.038971,1, 0.004598,-0.000274, 0.000099,1,-0.119242, 0.102618, 9.805388,1,0
1778107455726,   507.212,   507.212, 0.010914,-0.020024,-0.995533, 0.000109,-0.000199,-0.009957,-0.012161,-0.093089, 0.042540,1, 0.003459, 0.000046, 0.000527,1,-0.119191, 0.103389, 9.805381,1,0
1778107455748,   507.237,   507.232, 0.012563,-0.018556,-0.996429, 0.000122,-0.000185,-0.009965,-0.006764,-0.077230, 0.039745,1, 0.002862,-0.000461, 0.000127,1,-0.119121, 0.103979, 9.805375,1,0
1778107455771,   507.257,   507.257, 0.012416,-0.018594,-0.996011, 0.000124,-0.000185,-0.009963, 0.002608,-0.077673, 0.037838,1, 0.002597, 0.000220, 0.000179,1,-0.119162, 0.104755, 9.805367,1,0
1778107455796,   507.282,   507.282, 0.012582,-0.019429,-0.995401, 0.000128,-0.000192,-0.009953, 0.004284,-0.083184, 0.043787,1, 0.002309,-0.000332, 0.000650,1,-0.119089, 0.107830, 9.805334,1,0
1778107455818,   507.307,   507.302, 0.012021,-0.018123,-0.996358, 0.000121,-0.000182,-0.009961, 0.000559,-0.074138, 0.038285,1, 0.002110,-0.000591, 0.000986,1,-0.119025, 0.108211, 9.805330,1,0
1778107455841,   507.332,   507.327, 0.011868,-0.018708,-0.995691, 0.000120,-0.000185,-0.009957,-0.002551,-0.074725, 0.040931,1, 0.001793, 0.000810, 0.000305,1,-0.118961, 0.108797, 9.805325,1,0
1778107455866,   507.352,   507.352, 0.011646,-0.019120,-0.995410, 0.000119,-0.000192,-0.009956,-0.004736,-0.078435, 0.043685,1, 0.000396,-0.000122, 0.000266,1,-0.118944, 0.109085, 9.805322,1,0
1778107455888,   507.377,   507.372, 0.011290,-0.019140,-0.996434, 0.000114,-0.000192,-0.009965,-0.004526,-0.081459, 0.043149,1, 0.001152,-0.000232, 0.000317,1,-0.118936, 0.109342, 9.805319,1,0
1778107455911,   507.402,   507.397, 0.011074,-0.019883,-0.996393, 0.000112,-0.000200,-0.009961,-0.010367,-0.085567, 0.034037,1,-0.000222,-0.000081,-0.000025,1,-0.118961, 0.109410, 9.805318,1,0
1778107455937,   507.422,   507.422, 0.011528,-0.019461,-0.995772, 0.000115,-0.000195,-0.009954,-0.005865,-0.081583, 0.040134,1,-0.000805,-0.000228,-0.000744,1,-0.118911, 0.109240, 9.805321,1,0
1778107455958,   507.447,   507.442, 0.011284,-0.019028,-0.996191, 0.000115,-0.000187,-0.009960,-0.006985,-0.078799, 0.042378,1,-0.001484,-0.000375,-0.000351,1,-0.118846, 0.108956, 9.805325,1,0
1778107455981,   507.472,   507.467, 0.012009,-0.019150,-0.995446, 0.000121,-0.000194,-0.009954,-0.001128,-0.079383, 0.043335,1,-0.002882,-0.000067,-0.000126,1,-0.118890, 0.108329, 9.805331,1,0
1778107456007,   507.492,   507.492, 0.013005,-0.019124,-0.995686, 0.000128,-0.000193,-0.009958, 0.008665,-0.077041, 0.040966,1,-0.002172, 0.000404,-0.000579,1,-0.118882, 0.110458, 9.805307,1,0
1778107456028,   507.517,   507.512, 0.012209,-0.018643,-0.995812, 0.000122,-0.000190,-0.009958, 0.004310,-0.073698, 0.043173,1,-0.002787, 0.000367, 0.000137,1,-0.118851, 0.109914, 9.805314,1,0
1778107456051,   507.542,   507.537, 0.011820,-0.018878,-0.996085, 0.000119,-0.000190,-0.009960,-0.002961,-0.076035, 0.037069,1,-0.002861, 0.000017,-0.000885,1,-0.118880, 0.109004, 9.805324,1,0
1778107456077,   507.562,   507.562, 0.011509,-0.018311,-0.996428, 0.000116,-0.000185,-0.009963,-0.005939,-0.071091, 0.033704,1,-0.003415,-0.000207, 0.000554,1,-0.118797, 0.108371, 9.805331,1,0
1778107456098,   507.587,   507.582, 0.010761,-0.018397,-0.995563, 0.000108,-0.000185,-0.009953,-0.009896,-0.070917, 0.034595,1,-0.003369,-0.000231,-0.000254,1,-0.118754, 0.107719, 9.805339,1,0
1778107456121,   507.612,   507.607, 0.010982,-0.018608,-0.995500, 0.000110,-0.000188,-0.009956,-0.011213,-0.075703, 0.042824,1,-0.004631, 0.000557,-0.000669,1,-0.118926, 0.106631, 9.805349,1,0
1778107456147,   507.632,   507.632, 0.011852,-0.018582,-0.996162, 0.000119,-0.000187,-0.009960,-0.002687,-0.076275, 0.036342,1,-0.004585, 0.000147, 0.000111,1,-0.118916, 0.105807, 9.805358,1,0
1778107456168,   507.657,   507.652, 0.012245,-0.017674,-0.995306, 0.000122,-0.000177,-0.009954, 0.000105,-0.067727, 0.039727,1,-0.004431,-0.000251,-0.000192,1,-0.118905, 0.104930, 9.805367,1,0
1778107456195,   507.682,   507.682, 0.012369,-0.017112,-0.996069, 0.000124,-0.000174,-0.009960, 0.002463,-0.061564, 0.037257,1,-0.004366, 0.000450, 0.000437,1,-0.118838, 0.106520, 9.805351,1,0
1778107456217,   507.702,   507.702, 0.012174,-0.017621,-0.995288, 0.000123,-0.000177,-0.009952, 0.000586,-0.066752, 0.044913,1,-0.002883, 0.000470,-0.000352,1,-0.118819, 0.105958, 9.805358,1,0
1778107456238,   507.727,   507.722, 0.011999,-0.018846,-0.994680, 0.000120,-0.000186,-0.009949, 0.002707,-0.066968, 0.032902,1,-0.002190, 0.000149,-0.000290,1,-0.118833, 0.105752, 9.805360,1,0
1778107456265,   507.752,   507.752, 0.011899,-0.017066,-0.996790, 0.000116,-0.000173,-0.009965,-0.002240,-0.062414, 0.030192,1,-0.002394,-0.000309,-0.000294,1,-0.118917, 0.104873, 9.805368,1,0
1778107456287,   507.777,   507.772, 0.012661,-0.017314,-0.996634, 0.000125,-0.000172,-0.009966,-0.001898,-0.063374, 0.033522,1,-0.001545,-0.000385,-0.000476,1,-0.118905, 0.104486, 9.805372,1,0
1778107456309,   507.797,   507.792, 0.012428,-0.018173,-0.995512, 0.000122,-0.000181,-0.009953, 0.005166,-0.073469, 0.048520,1,-0.000803, 0.000170, 0.000443,1,-0.118922, 0.104228, 9.805375,1,0
1778107456335,   507.822,   507.822, 0.012624,-0.017757,-0.995448, 0.000125,-0.000177,-0.009953, 0.004896,-0.070312, 0.043369,1,-0.001730,-0.000355, 0.000213,1,-0.118897, 0.103770, 9.805380,1,0
1778107456357,   507.847,   507.842, 0.011078,-0.017949,-0.996256, 0.000110,-0.000177,-0.009961,-0.003761,-0.065769, 0.040494,1,-0.000131,-0.000723,-0.000232,1,-0.118783, 0.103614, 9.805383,1,0
1778107456379,   507.862,   507.862, 0.011453,-0.017590,-0.996547, 0.000113,-0.000177,-0.009963,-0.006467,-0.069009, 0.032595,1,-0.000539, 0.000121, 0.000528,1,-0.118785, 0.103478, 9.805385,1,0
1778107456406,   507.892,   507.892, 0.012112,-0.017318,-0.995846, 0.000120,-0.000173,-0.009959,-0.000017,-0.063432, 0.039443,1, 0.000422,-0.000112, 0.000480,1,-0.118796, 0.106439, 9.805353,1,0
1778107456427,   507.917,   507.912, 0.011740,-0.018086,-0.995816, 0.000119,-0.000182,-0.009955,-0.001680,-0.069416, 0.046266,1, 0.000020, 0.000808,-0.000096,1,-0.118921, 0.106469, 9.805351,1,0
1778107456449,   507.937,   507.932, 0.011259,-0.017028,-0.995842, 0.000115,-0.000171,-0.009959,-0.001374,-0.064779, 0.040493,1, 0.000392,-0.000027,-0.000387,1,-0.118918, 0.106584, 9.805349,1,0
1778107456476,   507.962,   507.962, 0.011672,-0.017898,-0.996328, 0.000115,-0.000178,-0.009965,-0.004439,-0.068616, 0.034705,1, 0.001562, 0.000334,-0.000097,1,-0.118909, 0.106949, 9.805346,1,0
1778107456497,   507.987,   507.982, 0.012457,-0.018176,-0.995701, 0.000123,-0.000182,-0.009959, 0.001787,-0.067670, 0.045495,1, 0.001252,-0.000566,-0.000110,1,-0.118862, 0.107214, 9.805344,1,0
1778107456519,   508.007,   508.002, 0.012368,-0.018018,-0.995347, 0.000122,-0.000181,-0.009954,-0.001450,-0.069592, 0.040018,1, 0.000789,-0.000259, 0.000076,1,-0.118826, 0.107448, 9.805342,1,0
1778107456546,   508.032,   508.032, 0.011906,-0.018576,-0.995638, 0.000119,-0.000186,-0.009957,-0.002039,-0.074463, 0.041466,1, 0.000771, 0.000397, 0.000308,1,-0.118812, 0.107728, 9.805339,1,0
1778107456567,   508.057,   508.052, 0.011742,-0.017988,-0.995864, 0.000119,-0.000180,-0.009959,-0.001613,-0.067171, 0.035488,1,-0.000021, 0.000228, 0.000962,1,-0.118806, 0.107773, 9.805338,1,0
1778107456589,   508.077,   508.072, 0.011952,-0.017930,-0.995051, 0.000121,-0.000182,-0.009951,-0.001887,-0.070875, 0.041215,1,-0.000204,-0.000497, 0.000121,1,-0.118751, 0.107837, 9.805338,1,0
1778107456616,   508.102,   508.102, 0.011826,-0.018442,-0.995642, 0.000119,-0.000185,-0.009956,-0.002829,-0.070109, 0.041394,1, 0.000126,-0.000058, 0.000392,1,-0.118805, 0.110754, 9.805305,1,0
1778107456637,   508.127,   508.122, 0.012373,-0.018608,-0.996054, 0.000123,-0.000185,-0.009962,-0.004197,-0.072311, 0.031611,1,-0.000379, 0.000755, 0.000624,1,-0.118830, 0.110656, 9.805305,1,0
1778107456659,   508.147,   508.142, 0.012148,-0.017682,-0.994854, 0.000121,-0.000178,-0.009951, 0.002522,-0.073905, 0.038040,1,-0.001378, 0.000130, 0.000358,1,-0.118883, 0.110416, 9.805307,1,0
1778107456686,   508.172,   508.172, 0.012516,-0.017982,-0.996202, 0.000124,-0.000181,-0.009961, 0.003845,-0.066404, 0.035907,1,-0.001004,-0.000092,-0.000557,1,-0.118892, 0.109905, 9.805313,1,0
1778107456708,   508.197,   508.192, 0.011632,-0.018547,-0.996113, 0.000116,-0.000186,-0.009961,-0.001940,-0.071090, 0.038117,1,-0.002010, 0.000463,-0.000440,1,-0.118988, 0.109548, 9.805316,1,0
1778107456730,   508.217,   508.217, 0.011524,-0.017916,-0.995691, 0.000112,-0.000182,-0.009956,-0.006034,-0.066710, 0.040923,1,-0.001914,-0.000177, 0.000181,1,-0.119035, 0.108928, 9.805323,1,0
1778107456756,   508.242,   508.242, 0.011541,-0.017372,-0.995937, 0.000116,-0.000174,-0.009961,-0.005801,-0.061773, 0.038517,1,-0.001730,-0.000622,-0.000136,1,-0.118962, 0.108530, 9.805327,1,0
1778107456778,   508.267,   508.262, 0.012248,-0.017720,-0.995700, 0.000122,-0.000179,-0.009958, 0.000575,-0.072120, 0.043010,1,-0.002569, 0.001126,-0.000393,1,-0.119027, 0.108096, 9.805332,1,0
1778107456800,   508.287,   508.287, 0.012068,-0.018610,-0.995525, 0.000122,-0.000186,-0.009959,-0.000618,-0.072200, 0.042541,1,-0.002808, 0.000137, 0.000096,1,-0.118973, 0.110237, 9.805308,1,0
1778107456826,   508.312,   508.312, 0.011632,-0.018878,-0.996427, 0.000117,-0.000188,-0.009970,-0.004926,-0.075328, 0.033701,1,-0.003073, 0.000143, 0.000176,1,-0.119003, 0.109708, 9.805314,1,0
1778107456848,   508.337,   508.332, 0.012654,-0.017174,-0.996080, 0.000125,-0.000171,-0.009960, 0.000483,-0.060811, 0.034474,1,-0.002184, 0.000230, 0.000440,1,-0.119069, 0.109275, 9.805318,1,0
1778107456870,   508.357,   508.357, 0.012168,-0.017759,-0.996409, 0.000121,-0.000178,-0.009958, 0.000335,-0.065504, 0.033895,1,-0.001448, 0.000235,-0.000478,1,-0.119003, 0.108610, 9.805326,1,0
1778107456896,   508.382,   508.382, 0.012117,-0.017729,-0.996460, 0.000123,-0.000178,-0.009965,-0.000153,-0.065640, 0.033400,1,-0.002128,-0.000484,-0.000408,1,-0.118970, 0.108155, 9.805332,1,0
1778107456918,   508.402,   508.402, 0.011703,-0.017689,-0.995202, 0.000118,-0.000178,-0.009954,-0.004180,-0.065709, 0.045734,1,-0.002267,-0.000529, 0.000039,1,-0.118927, 0.107692, 9.805338,1,0
1778107456941,   508.427,   508.427, 0.011043,-0.017639,-0.995861, 0.000108,-0.000174,-0.009959,-0.010579,-0.065798, 0.039282,1,-0.001367,-0.000641, 0.000327,1,-0.118858, 0.107135, 9.805345,1,0
1778107456966,   508.452,   508.452, 0.011397,-0.017245,-0.996490, 0.000112,-0.000173,-0.009962,-0.007118,-0.062335, 0.033116,1,-0.002873, 0.000375,-0.000259,1,-0.118897, 0.106688, 9.805348,1,0
1778107456988,   508.477,   508.472, 0.011977,-0.017666,-0.995710, 0.000121,-0.000177,-0.009956,-0.001911,-0.065792, 0.041818,1,-0.001693,-0.000076, 0.000628,1,-0.118797, 0.106326, 9.805354,1,0
1778107457011,   508.497,   508.497, 0.012472,-0.017538,-0.995745, 0.000125,-0.000177,-0.009957, 0.003519,-0.063208, 0.040408,1,-0.001720, 0.000762, 0.000533,1,-0.118815, 0.108729, 9.805327,1,0
1778107457036,   508.522,   508.522, 0.011994,-0.017787,-0.996212, 0.000118,-0.000177,-0.009964,-0.001234,-0.065928, 0.035824,1,-0.001608,-0.000014,-0.000544,1,-0.118850, 0.108451, 9.805330,1,0
1778107457058,   508.547,   508.542, 0.011474,-0.017143,-0.995779, 0.000116,-0.000171,-0.009959,-0.005474,-0.067241, 0.045822,1,-0.001044,-0.000222,-0.000367,1,-0.118838, 0.108228, 9.805332,1,0
1778107457081,   508.572,   508.567, 0.011592,-0.016673,-0.996408, 0.000116,-0.000166,-0.009962,-0.005151,-0.055533, 0.033909,1,-0.000553, 0.000037, 0.000281,1,-0.118830, 0.107954, 9.805336,1,0
1778107457107,   508.592,   508.592, 0.012092,-0.017193,-0.996577, 0.000121,-0.000173,-0.009968, 0.001666,-0.060829, 0.037332,1,-0.000014, 0.000053, 0.000009,1,-0.118839, 0.107952, 9.805336,1,0
1778107457128,   508.617,   508.612, 0.013167,-0.018202,-0.995446, 0.000132,-0.000183,-0.009956, 0.008942,-0.068099, 0.043777,1,-0.000728, 0.000181,-0.000001,1,-0.118776, 0.107830, 9.805338,1,0
1778107457151,   508.642,   508.637, 0.012173,-0.017821,-0.996256, 0.000121,-0.000182,-0.009961, 0.000584,-0.067221, 0.035405,1,-0.000995,-0.000005,-0.000412,1,-0.118789, 0.107508, 9.805341,1,0
1778107457177,   508.662,   508.662, 0.011289,-0.017966,-0.995795, 0.000112,-0.000181,-0.009960,-0.008031,-0.068970, 0.039930,1,-0.001619,-0.000349,-0.000315,1,-0.118730, 0.107168, 9.805346,1,0
1778107457198,   508.687,   508.682, 0.011563,-0.016570,-0.995551, 0.000116,-0.000166,-0.009954,-0.008803,-0.055397, 0.042447,1,-0.001745, 0.000478,-0.000274,1,-0.118736, 0.109826, 9.805316,1,0
1778107457221,   508.712,   508.707, 0.012330,-0.017217,-0.995997, 0.000124,-0.000175,-0.009961, 0.002072,-0.059345, 0.037926,1,-0.000462, 0.000806,-0.000060,1,-0.118872, 0.109482, 9.805318,1,0
1778107457247,   508.732,   508.732, 0.012807,-0.017117,-0.996199, 0.000129,-0.000172,-0.009960, 0.006764,-0.058394, 0.035941,1, 0.000566,-0.000186,-0.000283,1,-0.118827, 0.109484, 9.805319,1,0
1778107457268,   508.757,   508.752, 0.012483,-0.017745,-0.996358, 0.000125,-0.000180,-0.009966,-0.000336,-0.061010, 0.040802,1,-0.000343, 0.000665, 0.000478,1,-0.118901, 0.109410, 9.805319,1,0
1778107457291,   508.782,   508.777, 0.012355,-0.017644,-0.995984, 0.000122,-0.000177,-0.009959, 0.002281,-0.063772, 0.038049,1,-0.000514,-0.000307, 0.000179,1,-0.118871, 0.109236, 9.805321,1,0
1778107457317,   508.802,   508.802, 0.012198,-0.016937,-0.995830, 0.000123,-0.000172,-0.009961, 0.000711,-0.057025, 0.039561,1,-0.000319,-0.000622, 0.000307,1,-0.118889, 0.109057, 9.805323,1,0
1778107457338,   508.827,   508.822, 0.012572,-0.016897,-0.994800, 0.000126,-0.000168,-0.009951, 0.000532,-0.055648, 0.035809,1, 0.000189, 0.000667, 0.000048,1,-0.118934, 0.108956, 9.805324,1,0
1778107457361,   508.852,   508.847, 0.012452,-0.017025,-0.995823, 0.000124,-0.000169,-0.009959, 0.003205,-0.057841, 0.039633,1, 0.000473, 0.000118,-0.000233,1,-0.118907, 0.109128, 9.805322,1,0
1778107457387,   508.872,   508.872, 0.011476,-0.017554,-0.995647, 0.000116,-0.000174,-0.009956,-0.006386,-0.062832, 0.041357,1, 0.000883,-0.000566, 0.000415,1,-0.118909, 0.109344, 9.805320,1,0
1778107457408,   508.897,   508.892, 0.011822,-0.016985,-0.995804, 0.000118,-0.000170,-0.009958,-0.007362,-0.059174, 0.041954,1, 0.000334,-0.000352, 0.000265,1,-0.118930, 0.112500, 9.805284,1,0
1778107457435,   508.922,   508.922, 0.012073,-0.017273,-0.996424, 0.000118,-0.000172,-0.009962,-0.000532,-0.056541, 0.033693,1, 0.001436, 0.000277, 0.000122,1,-0.118937, 0.112889, 9.805279,1,0
1778107457457,   508.942,   508.942, 0.012399,-0.016719,-0.995987, 0.000124,-0.000170,-0.009960, 0.002660,-0.050720, 0.037978,1, 0.001826,-0.000110,-0.000085,1,-0.118932, 0.113293, 9.805274,1,0
1778107457478,   508.967,   508.962, 0.012057,-0.017188,-0.995262, 0.000123,-0.000172,-0.009954, 0.002589,-0.058215, 0.041957,1, 0.002472, 0.000176, 0.000378,1,-0.118919, 0.113781, 9.805269,1,0
1778107457505,   508.992,   508.992, 0.011824,-0.018090,-0.996062, 0.000119,-0.000180,-0.009960,-0.002898,-0.062971, 0.037226,1, 0.002096, 0.000478, 0.000485,1,-0.118866, 0.114493, 9.805262,1,0
1778107457527,   509.017,   509.012, 0.011540,-0.018020,-0.995881, 0.000115,-0.000181,-0.009956,-0.006058,-0.062040, 0.040471,1, 0.001380, 0.000405, 0.000477,1,-0.118920, 0.114963, 9.805255,1,0
1778107457549,   509.037,   509.032, 0.011775,-0.017925,-0.996166, 0.000118,-0.000179,-0.009960,-0.006755,-0.053465, 0.045494,1, 0.002317,-0.000160, 0.000580,1,-0.118885, 0.115402, 9.805250,1,0
1778107457575,   509.062,   509.062, 0.012081,-0.017586,-0.996107, 0.000123,-0.000175,-0.009959,-0.000218,-0.056315, 0.036771,1, 0.003109,-0.001135, 0.000034,1,-0.118658, 0.116246, 9.805243,1,0
1778107457597,   509.087,   509.082, 0.012090,-0.018285,-0.995733, 0.000120,-0.000186,-0.009953,-0.001509,-0.064362, 0.040545,1, 0.001852,-0.000140, 0.000220,1,-0.118595, 0.119719, 9.805202,1,0
1778107457619,   509.107,   509.102, 0.012096,-0.018291,-0.995655, 0.000123,-0.000185,-0.009957, 0.000951,-0.062287, 0.039333,1, 0.002333, 0.000434, 0.000312,1,-0.118539, 0.120094, 9.805198,1,0
1778107457646,   509.132,   509.132, 0.012102,-0.018268,-0.995925, 0.000122,-0.000182,-0.009960, 0.000159,-0.058458, 0.038506,1, 0.002086,-0.000312,-0.000140,1,-0.118516, 0.120759, 9.805190,1,0
1778107457667,   509.157,   509.152, 0.011831,-0.018604,-0.996010, 0.000119,-0.000183,-0.009960,-0.003596,-0.058678, 0.040805,1, 0.001589, 0.000537, 0.000349,1,-0.118546, 0.121187, 9.805184,1,0
1778107457689,   509.177,   509.172, 0.011902,-0.018505,-0.995754, 0.000120,-0.000183,-0.009955,-0.000573,-0.061515, 0.040070,1, 0.002038,-0.000139,-0.000020,1,-0.118542, 0.121657, 9.805179,1,0
1778107457716,   509.202,   509.202, 0.011522,-0.018789,-0.995866, 0.000114,-0.000190,-0.009961,-0.005514,-0.062214, 0.039060,1, 0.001097,-0.000310,-0.000092,1,-0.118496, 0.122079, 9.805174,1,0
1778107457737,   509.227,   509.222, 0.011792,-0.018741,-0.995516, 0.000117,-0.000187,-0.009954,-0.002776,-0.060901, 0.042197,1, 0.000767,-0.000078, 0.000728,1,-0.118579, 0.122268, 9.805171,1,0
1778107457759,   509.247,   509.242, 0.011471,-0.018813,-0.995789, 0.000116,-0.000188,-0.009959,-0.005323,-0.061713, 0.033972,1, 0.000867,-0.000321,-0.000070,1,-0.118578, 0.122409, 9.805169,1,0
1778107457786,   509.272,   509.272, 0.011981,-0.018210,-0.995460, 0.000116,-0.000184,-0.009955,-0.001081,-0.056042, 0.043041,1,-0.000011, 0.001352, 0.000555,1,-0.118618, 0.122534, 9.805167,1,0
1778107457807,   509.297,   509.292, 0.012404,-0.018409,-0.996331, 0.000124,-0.000186,-0.009962,-0.001588,-0.056294, 0.042039,1,-0.000077, 0.001027, 0.000351,1,-0.118660, 0.125335, 9.805131,1,0
1778107457829,   509.317,   509.312, 0.012980,-0.019016,-0.995561, 0.000128,-0.000186,-0.009957, 0.006447,-0.056411, 0.034944,1,-0.000337, 0.000326,-0.000185,1,-0.118685, 0.125377, 9.805130,1,0
1778107457856,   509.342,   509.342, 0.012694,-0.018815,-0.995257, 0.000127,-0.000189,-0.009954, 0.005777,-0.059235, 0.044995,1,-0.000222,-0.000041,-0.000082,1,-0.118710, 0.125267, 9.805131,1,0
1778107457877,   509.367,   509.362, 0.012217,-0.018206,-0.995665, 0.000122,-0.000184,-0.009960, 0.002713,-0.053647, 0.047026,1,-0.001136, 0.000221,-0.000140,1,-0.118811, 0.125086, 9.805133,1,0
1778107457899,   509.387,   509.382, 0.011724,-0.018896,-0.995930, 0.000116,-0.000187,-0.009959,-0.002468,-0.054155, 0.035645,1,-0.000418, 0.000081,-0.000104,1,-0.118831, 0.125015, 9.805133,1,0
1778107457926,   509.412,   509.412, 0.012091,-0.019715,-0.995536, 0.000120,-0.000196,-0.009958,-0.003865,-0.064157, 0.037597,1, 0.000025, 0.000401,-0.000076,1,-0.118909, 0.125059, 9.805132,1,0
1778107457947,   509.437,   509.432, 0.012123,-0.018969,-0.995785, 0.000122,-0.000189,-0.009955,-0.000974,-0.063154, 0.040751,1,-0.001636,-0.000013,-0.000154,1,-0.119028, 0.124623, 9.805136,1,0
1778107457970,   509.457,   509.457, 0.012366,-0.018182,-0.995916, 0.000123,-0.000184,-0.009961, 0.002183,-0.054270, 0.038537,1,-0.002561, 0.000449,-0.000014,1,-0.119103, 0.123959, 9.805143,1,0
1778107457996,   509.482,   509.482, 0.012152,-0.018568,-0.995995, 0.000121,-0.000184,-0.009961, 0.000002,-0.056014, 0.037741,1,-0.002159,-0.000219,-0.000384,1,-0.119175, 0.126440, 9.805111,1,0
1778107458018,   509.507,   509.502, 0.011996,-0.017757,-0.996087, 0.000120,-0.000176,-0.009962, 0.001582,-0.048243, 0.040039,1,-0.001356,-0.000384, 0.000250,1,-0.119072, 0.126167, 9.805116,1,0
1778107458040,   509.527,   509.527, 0.011652,-0.018019,-0.995409, 0.000118,-0.000182,-0.009957,-0.004897,-0.050629, 0.043486,1, 0.000582, 0.000598, 0.000226,1,-0.119183, 0.126093, 9.805115,1,0
1778107458066,   509.552,   509.552, 0.011664,-0.018269,-0.995786, 0.000117,-0.000181,-0.009959,-0.004752,-0.052924, 0.039789,1, 0.000911, 0.000188,-0.000476,1,-0.119141, 0.126267, 9.805113,1,0
1778107458088,   509.577,   509.572, 0.011470,-0.017806,-0.995850, 0.000115,-0.000177,-0.009960,-0.003892,-0.046677, 0.036205,1, 0.001667,-0.000474,-0.000721,1,-0.119110, 0.126558, 9.805110,1,0
1778107458110,   509.597,   509.597, 0.012051,-0.018639,-0.995524, 0.000121,-0.000186,-0.009957,-0.000918,-0.055620, 0.042349,1, 0.001818,-0.000083,-0.001336,1,-0.119094, 0.127219, 9.805101,1,0
1778107458136,   509.622,   509.622, 0.011896,-0.018432,-0.995596, 0.000121,-0.000186,-0.009955,-0.002442,-0.053158, 0.041636,1, 0.002388,-0.000235,-0.000366,1,-0.119097, 0.127674, 9.805096,1,0
1778107458158,   509.647,   509.642, 0.012029,-0.019444,-0.996097, 0.000120,-0.000194,-0.009960,-0.008537,-0.058155, 0.037254,1, 0.000495, 0.000184,-0.000460,1,-0.119084, 0.127942, 9.805092,1,0
1778107458181,   509.667,   509.667, 0.012208,-0.019438,-0.996232, 0.000121,-0.000194,-0.009960, 0.000586,-0.062418, 0.035387,1, 0.000347, 0.000223,-0.000036,1,-0.119139, 0.128217, 9.805088,1,0
1778107458206,   509.692,   509.692, 0.012753,-0.018672,-0.995356, 0.000127,-0.000187,-0.009950, 0.005981,-0.051840, 0.043941,1,-0.000380, 0.000131, 0.000214,1,-0.119091, 0.131284, 9.805048,1,0
1778107458228,   509.717,   509.712, 0.012841,-0.018600,-0.996498, 0.000128,-0.000188,-0.009966, 0.004768,-0.053118, 0.030747,1,-0.000441,-0.000177,-0.000043,1,-0.119036, 0.131168, 9.805050,1,0
1778107458251,   509.737,   509.737, 0.012160,-0.018700,-0.994834, 0.000122,-0.000185,-0.009950, 0.000196,-0.052046, 0.049057,1, 0.000805, 0.000447, 0.000774,1,-0.119063, 0.131368, 9.805047,1,0
1778107458276,   509.762,   509.762, 0.011654,-0.018322,-0.995867, 0.000116,-0.000183,-0.009957,-0.004767,-0.048338, 0.038932,1,-0.000166, 0.000287, 0.000504,1,-0.119065, 0.131331, 9.805048,1,0
1778107458298,   509.787,   509.782, 0.009984,-0.019105,-0.996530, 0.000101,-0.000193,-0.009965,-0.018816,-0.054563, 0.036442,1,-0.000717, 0.000112, 0.000322,1,-0.119072, 0.131229, 9.805049,1,0
1778107458321,   509.812,   509.807, 0.011127,-0.018902,-0.995673, 0.000112,-0.000191,-0.009957,-0.009907,-0.054518, 0.040834,1,-0.001723,-0.000178, 0.000192,1,-0.119016, 0.130794, 9.805056,1,0
1778107458346,   509.832,   509.832, 0.012237,-0.018628,-0.995352, 0.000123,-0.000187,-0.009954, 0.001051,-0.052152, 0.043988,1,-0.001651,-0.000107, 0.000256,1,-0.118949, 0.130475, 9.805060,1,0
1778107458368,   509.857,   509.852, 0.012767,-0.019469,-0.995598, 0.000128,-0.000195,-0.009959, 0.001599,-0.051368, 0.039622,1,-0.002140, 0.000854,-0.000111,1,-0.118972, 0.130075, 9.805065,1,0
1778107458391,   509.882,   509.877, 0.012011,-0.018798,-0.995323, 0.000120,-0.000187,-0.009956,-0.001042,-0.052021, 0.044256,1,-0.001401,-0.000196,-0.000244,1,-0.118818, 0.132722, 9.805032,1,0
1778107458417,   509.902,   509.902, 0.011554,-0.019020,-0.996116, 0.000114,-0.000188,-0.009960,-0.005534,-0.054038, 0.036477,1,-0.001055, 0.000284,-0.000364,1,-0.118846, 0.132457, 9.805036,1,0
1778107458438,   509.927,   509.922, 0.011951,-0.018652,-0.995669, 0.000121,-0.000186,-0.009957, 0.005483,-0.050417, 0.032385,1,-0.000831, 0.000415,-0.000495,1,-0.118792, 0.132212, 9.805039,1,0
1778107458461,   509.952,   509.947, 0.013021,-0.018357,-0.996069, 0.000128,-0.000183,-0.009961, 0.008801,-0.048168, 0.036942,1,-0.001248,-0.000050, 0.000459,1,-0.118886, 0.131818, 9.805043,1,0
1778107458487,   509.972,   509.972, 0.011910,-0.019382,-0.995358, 0.000122,-0.000194,-0.009954,-0.002119,-0.058611, 0.043916,1,-0.002994,-0.000250, 0.000103,1,-0.118909, 0.131367, 9.805049,1,0
1778107458508,   509.997,   509.992, 0.011008,-0.018933,-0.995485, 0.000110,-0.000189,-0.009957,-0.005858,-0.055348, 0.040032,1,-0.002542,-0.000030, 0.000308,1,-0.118909, 0.130931, 9.805055,1,0
1778107458531,   510.022,   510.017, 0.011133,-0.018258,-0.996195, 0.000110,-0.000183,-0.009962,-0.009763,-0.048732, 0.035723,1,-0.001834, 0.000217, 0.000111,1,-0.118951, 0.130255, 9.805063,1,0
1778107458557,   510.042,   510.042, 0.011425,-0.018599,-0.995577, 0.000114,-0.000187,-0.009956,-0.006931,-0.052494, 0.041797,1,-0.002077,-0.000024, 0.000009,1,-0.118969, 0.129832, 9.805069,1,0
1778107458578,   510.067,   510.062, 0.012434,-0.018326,-0.995285, 0.000123,-0.000184,-0.009951, 0.001683,-0.053600, 0.046386,1,-0.002708,-0.000269,-0.000014,1,-0.119019, 0.129350, 9.805075,1,0
1778107458601,   510.092,   510.087, 0.012131,-0.018647,-0.995866, 0.000123,-0.000186,-0.009960,-0.000028,-0.051382, 0.038937,1,-0.002864, 0.000562,-0.000246,1,-0.119013, 0.131426, 9.805047,1,1
1778107458627,   510.112,   510.112, 0.011834,-0.018361,-0.995559, 0.000117,-0.000182,-0.009957,-0.002978,-0.049107, 0.041956,1,-0.002421,-0.000117, 0.000287,1,-0.119022, 0.130879, 9.805055,1,1
1778107458648,   510.137,   510.132, 0.011920,-0.017884,-0.996009, 0.000119,-0.000179,-0.009961,-0.003799,-0.045078, 0.033066,1,-0.002895, 0.000517, 0.000278,1,-0.119047, 0.130298, 9.805061,1,1
1778107458675,   510.162,   510.162, 0.012519,-0.018106,-0.995688, 0.000124,-0.000179,-0.009958, 0.003671,-0.047791, 0.040705,1,-0.001832,-0.000671, 0.000055,1,-0.119074, 0.129707, 9.805069,1,1
1778107458697,   510.182,   510.182, 0.012330,-0.017792,-0.995567, 0.000124,-0.000178,-0.009959, 0.001802,-0.045053, 0.041895,1,-0.001922, 0.000294, 0.000158,1,-0.119119, 0.129369, 9.805073,1,1
1778107458718,   510.207,   510.202, 0.011377,-0.018049,-0.995478, 0.000116,-0.000180,-0.009958,-0.006913,-0.045940, 0.034124,1,-0.002193,-0.000330, 0.000150,1,-0.119167, 0.129099, 9.805076,1,1
1778107458745,   510.232,   510.232, 0.011579,-0.018550,-0.995320, 0.000115,-0.000185,-0.009953,-0.005756,-0.053434, 0.044323,1,-0.002084,-0.000100,-0.000180,1,-0.119306, 0.128410, 9.805083,1,1
1778107458767,   510.257,   510.252, 0.012751,-0.016997,-0.995426, 0.000126,-0.000172,-0.009955,-0.002077,-0.048121, 0.038904,1,-0.002695, 0.000084, 0.000099,1,-0.119361, 0.127928, 9.805089,1,1
1778107458789,   510.277,   510.272, 0.013175,-0.017513,-0.995087, 0.000133,-0.000177,-0.009949, 0.005305,-0.049438, 0.044204,1,-0.001871, 0.000281,-0.000053,1,-0.119393, 0.127509, 9.805094,1,1
1778107458815,   510.302,   510.302, 0.011847,-0.017604,-0.995510, 0.000120,-0.000175,-0.009956,-0.003190,-0.042683, 0.042447,1,-0.001769,-0.000364,-0.000250,1,-0.119362, 0.129898, 9.805063,1,1
1778107458837,   510.327,   510.322, 0.011550,-0.017938,-0.995391, 0.000114,-0.000178,-0.009954,-0.002807,-0.046721, 0.032443,1,-0.000857, 0.000175, 0.000238,1,-0.119320, 0.129690, 9.805066,1,1
1778107458859,   510.347,   510.342, 0.011537,-0.017761,-0.995370, 0.000115,-0.000178,-0.009954,-0.005953,-0.042762, 0.039227,1, 0.000759, 0.000066, 0.000019,1,-0.119250, 0.129680, 9.805067,1,1
1778107458886,   510.372,   510.372, 0.011802,-0.017281,-0.995903, 0.000119,-0.000172,-0.009956,-0.004311,-0.043704, 0.040099,1,-0.000155,-0.000293, 0.000332,1,-0.119262, 0.129644, 9.805068,1,1
1778107458907,   510.397,   510.392, 0.012660,-0.018199,-0.995564, 0.000125,-0.000179,-0.009953, 0.001072,-0.041503, 0.042764,1, 0.001406,-0.000366, 0.000072,1,-0.119293, 0.129887, 9.805064,1,1
1778107458929,   510.417,   510.412, 0.013046,-0.018375,-0.995861, 0.000131,-0.000182,-0.009958, 0.003832,-0.051083, 0.038845,1, 0.000959, 0.000181, 0.000232,1,-0.119237, 0.130049, 9.805062,1,1
1778107458956,   510.442,   510.442, 0.012086,-0.017424,-0.996844, 0.000121,-0.000175,-0.009966,-0.000601,-0.040405, 0.029361,1, 0.001771,-0.000180,-0.000002,1,-0.119118, 0.130523, 9.805058,1,1
1778107458977,   510.467,   510.462, 0.011192,-0.017148,-0.995719, 0.000112,-0.000171,-0.009948,-0.003077,-0.038589, 0.055826,1, 0.001864,-0.000426, 0.000250,1,-0.119168, 0.130928, 9.805052,1,1
1778107458999,   510.487,   510.482, 0.011454,-0.018253,-0.994757, 0.000116,-0.000183,-0.009958,-0.001976,-0.038171, 0.027600,1, 0.002388,-0.000471, 0.000399,1,-0.119178, 0.133882, 9.805012,1,1
1778107459026,   510.512,   510.512, 0.012771,-0.018213,-0.993838, 0.000129,-0.000185,-0.009947, 0.006074,-0.043930, 0.058777,1, 0.002701,-0.000296,-0.000170,1,-0.119153, 0.134760, 9.805000,1,1
1778107459047,   510.532,   510.532, 0.012340,-0.016325,-0.995812, 0.000125,-0.000162,-0.009957, 0.001864,-0.024727, 0.039416,1, 0.003538, 0.000578, 0.000285,1,-0.119171, 0.135481, 9.804990,1,1
1778107459069,   510.557,   510.552, 0.009705,-0.020920,-0.998971, 0.000096,-0.000207,-0.009993,-0.027464,-0.047559, 0.024300,1, 0.003460,-0.000562, 0.000863,1,-0.119086, 0.136096, 9.804982,1,1
1778107459096,   510.582,   510.582, 0.011541,-0.020234,-0.994266, 0.000114,-0.000202,-0.009943,-0.005993,-0.061647, 0.054548,1, 0.002801, 0.000217, 0.000336,1,-0.119181, 0.136866, 9.804971,1,1
1778107459117,   510.607,   510.602, 0.013796,-0.015534,-0.997196, 0.000139,-0.000153,-0.009969, 0.010019,-0.023067, 0.048281,1, 0.002529,-0.000369, 0.001077,1,-0.119111, 0.137318, 9.804965,1,1
1778107459139,   510.627,   510.622, 0.012740,-0.018970,-0.996278, 0.000128,-0.000186,-0.009963, 0.009160,-0.023978, 0.030344,1, 0.003547,-0.000045, 0.000146,1,-0.119081, 0.137897, 9.804957,1,1
1778107459166,   510.652,   510.652, 0.011190,-0.020230,-0.995842, 0.000112,-0.000205,-0.009958,-0.009366,-0.059428, 0.039069,1, 0.003116, 0.000487,-0.000188,1,-0.119114, 0.139053, 9.804940,1,1
1778107459187,   510.677,   510.672, 0.012121,-0.019194,-0.996112, 0.000119,-0.000192,-0.009961,-0.005444,-0.050919, 0.047804,1, 0.002783,-0.000126, 0.000119,1,-0.119113, 0.139640, 9.804933,1,1
1778107459210,   510.697,   510.697, 0.012843,-0.018915,-0.996154, 0.000128,-0.000191,-0.009963, 0.006967,-0.042805, 0.035958,1, 0.001608,-0.000382, 0.000968,1,-0.118963, 0.142740, 9.804890,1,1
1778107459236,   510.722,   510.722, 0.012875,-0.018808,-0.995467, 0.000129,-0.000188,-0.009954, 0.007279,-0.041398, 0.042684,1, 0.001331, 0.000300, 0.001303,1,-0.118992, 0.143085, 9.804884,1,1
1778107459258,   510.747,   510.742, 0.011661,-0.019379,-0.995538, 0.000117,-0.000194,-0.009954,-0.000336,-0.041264, 0.049177,1, 0.002634, 0.000729, 0.000349,1,-0.119030, 0.143575, 9.804876,1,1
1778107459280,   510.767,   510.767, 0.010829,-0.018242,-0.996418, 0.000108,-0.000183,-0.009964,-0.012801,-0.034783, 0.033344,1, 0.001270, 0.000020, 0.000830,1,-0.118993, 0.144146, 9.804869,1,1
1778107459306,   510.792,   510.792, 0.010583,-0.018798,-0.995235, 0.000106,-0.000187,-0.009955,-0.015240,-0.039822, 0.044943,1, 0.002576, 0.000255, 0.001039,1,-0.119036, 0.144605, 9.804861,1,1
1778107459328,   510.817,   510.812, 0.011726,-0.019091,-0.995970, 0.000119,-0.000194,-0.009957,-0.003105,-0.043652, 0.046493,1, 0.004006, 0.000431, 0.000406,1,-0.119074, 0.145250, 9.804852,1,1
1778107459350,   510.837,   510.837, 0.011851,-0.018807,-0.996123, 0.000119,-0.000187,-0.009960,-0.002905,-0.038390, 0.036211,1, 0.003158,-0.000062,-0.000216,1,-0.119118, 0.146144, 9.804837,1,1
1778107459376,   510.862,   510.862, 0.012879,-0.019049,-0.995583, 0.000127,-0.000191,-0.009959, 0.007156,-0.040053, 0.041491,1, 0.003661, 0.000207,-0.000488,1,-0.119147, 0.146864, 9.804827,1,1
1778107459398,   510.887,   510.882, 0.012104,-0.019036,-0.995516, 0.000122,-0.000191,-0.009956,-0.001609,-0.039872, 0.043050,1, 0.003922, 0.000199,-0.000568,1,-0.119151, 0.150064, 9.804778,1,1
1778107459421,   510.907,   510.907, 0.011614,-0.019129,-0.995720, 0.000115,-0.000190,-0.009958,-0.005386,-0.036629, 0.040087,1, 0.003849, 0.000396, 0.000126,1,-0.119291, 0.151085, 9.804760,1,1
1778107459446,   510.932,   510.932, 0.012209,-0.019229,-0.996363, 0.000123,-0.000195,-0.009959, 0.000460,-0.036945, 0.033772,1, 0.003349,-0.000291, 0.000343,1,-0.119264, 0.151733, 9.804750,1,1
1778107459468,   510.957,   510.952, 0.012511,-0.019748,-0.995447, 0.000123,-0.000197,-0.009954, 0.004314,-0.039971, 0.037950,1, 0.003515, 0.000711, 0.000646,1,-0.119251, 0.152402, 9.804741,1,1
1778107459491,   510.977,   510.977, 0.011794,-0.020336,-0.996000, 0.000120,-0.000205,-0.009962,-0.003531,-0.046130, 0.037301,1, 0.003214,-0.001208, 0.000343,1,-0.119152, 0.153394, 9.804727,1,1
1778107459516,   511.002,   511.002, 0.011976,-0.020060,-0.996027, 0.000119,-0.000199,-0.009959,-0.001672,-0.042771, 0.037032,1, 0.004314,-0.000116, 0.000605,1,-0.119110, 0.154085, 9.804716,1,1
1778107459538,   511.027,   511.022, 0.011524,-0.020678,-0.995264, 0.000119,-0.000206,-0.009956,-0.002629,-0.043202, 0.041317,1, 0.002704, 0.000177, 0.001241,1,-0.119129, 0.154647, 9.804707,1,1
1778107459561,   511.052,   511.047, 0.011956,-0.020140,-0.994951, 0.000119,-0.000203,-0.009953,-0.001850,-0.042187, 0.047562,1, 0.001757,-0.000042, 0.000299,1,-0.119096, 0.155374, 9.804696,1,1
1778107459586,   511.072,   511.072, 0.011353,-0.020807,-0.995144, 0.000114,-0.000208,-0.009947,-0.007742,-0.048458, 0.045660,1, 0.001992,-0.000625,-0.000277,1,-0.119056, 0.155650, 9.804692,1,1
1778107459608,   511.097,   511.092, 0.011526,-0.020896,-0.995616, 0.000116,-0.000208,-0.009953,-0.002107,-0.048205, 0.036664,1, 0.000464,-0.000063, 0.000476,1,-0.119053, 0.158135, 9.804652,1,1
1778107459631,   511.122,   511.117, 0.011571,-0.020227,-0.995224, 0.000114,-0.000203,-0.009956,-0.005521,-0.040258, 0.044835,1,-0.000299, 0.000325, 0.000295,1,-0.119005, 0.158089, 9.804653,1,1
1778107459657,   511.142,   511.142, 0.011504,-0.019651,-0.996800, 0.000114,-0.000198,-0.009965,-0.006181,-0.034663, 0.029386,1,-0.000593,-0.000100,-0.000024,1,-0.118991, 0.158024, 9.804655,1,1
1778107459678,   511.167,   511.162, 0.010882,-0.019586,-0.996268, 0.000108,-0.000196,-0.009963,-0.006854,-0.032831, 0.038103,1, 0.000264, 0.000452, 0.000239,1,-0.119025, 0.158007, 9.804654,1,1
1778107459701,   511.192,   511.187, 0.010499,-0.020642,-0.995583, 0.000106,-0.000206,-0.009956,-0.016149,-0.044221, 0.041319,1, 0.001328, 0.000627, 0.000153,1,-0.119126, 0.158254, 9.804649,1,1
1778107459727,   511.212,   511.212, 0.011362,-0.020340,-0.996229, 0.000112,-0.000205,-0.009959,-0.007749,-0.041215, 0.034980,1, 0.000273, 0.000085, 0.000403,1,-0.119178, 0.158260, 9.804648,1,1
1778107459748,   511.237,   511.232, 0.012554,-0.020090,-0.995483, 0.000124,-0.000202,-0.009955, 0.000111,-0.041086, 0.038304,1, 0.000825, 0.000746, 0.000005,1,-0.119246, 0.158276, 9.804647,1,1
1778107459771,   511.262,   511.257, 0.013620,-0.020385,-0.996298, 0.000133,-0.000203,-0.009964, 0.014333,-0.041623, 0.034303,1, 0.000298,-0.000703, 0.000226,1,-0.119214, 0.158300, 9.804647,1,1
1778107459797,   511.282,   511.282, 0.013325,-0.020810,-0.996058, 0.000134,-0.000206,-0.009958, 0.011571,-0.043845, 0.036622,1,-0.000004, 0.000108, 0.000206,1,-0.119088, 0.160558, 9.804612,1,1
1778107459818,   511.302,   511.302, 0.012963,-0.019843,-0.995811, 0.000128,-0.000198,-0.009957, 0.008127,-0.034073, 0.039046,1, 0.000097, 0.000020,-0.000130,1,-0.119002, 0.160526, 9.804614,1,1
1778107459841,   511.332,   511.327, 0.011572,-0.020234,-0.995283, 0.000116,-0.000203,-0.009954,-0.005598,-0.037997, 0.044219,1,-0.000027, 0.000402,-0.000347,1,-0.119090, 0.160428, 9.804614,1,1
1778107459867,   511.352,   511.352, 0.011483,-0.019559,-0.995774, 0.000113,-0.000194,-0.009959,-0.006538,-0.031457, 0.039411,1,-0.000909,-0.000129,-0.000153,1,-0.119145, 0.160322, 9.804616,1,1
1778107459888,   511.377,   511.372, 0.011470,-0.020077,-0.995784, 0.000115,-0.000203,-0.009957,-0.009022,-0.036230, 0.041965,1,-0.000211, 0.000430, 0.000310,1,-0.119202, 0.160288, 9.804615,1,1
1778107459915,   511.402,   511.402, 0.011406,-0.019912,-0.996133, 0.000114,-0.000200,-0.009962,-0.007220,-0.035010, 0.035886,1, 0.000209,-0.000251,-0.000488,1,-0.119067, 0.160263, 9.804618,1,1
1778107459937,   511.422,   511.422, 0.012214,-0.019726,-0.995686, 0.000123,-0.000200,-0.009956, 0.000767,-0.033158, 0.040271,1,-0.000461,-0.000138,-0.000144,1,-0.119006, 0.160276, 9.804618,1,1
1778107459958,   511.447,   511.442, 0.011809,-0.020597,-0.995644, 0.000118,-0.000208,-0.009955, 0.001582,-0.042992, 0.037375,1,-0.000157,-0.000202, 0.000106,1,-0.119029, 0.160283, 9.804618,1,1
1778107459985,   511.472,   511.472, 0.011748,-0.020357,-0.995661, 0.000119,-0.000203,-0.009960,-0.003842,-0.039333, 0.040514,1, 0.000110,-0.000088, 0.000208,1,-0.119051, 0.160300, 9.804617,1,1
1778107460007,   511.497,   511.492, 0.012332,-0.020261,-0.996088, 0.000121,-0.000201,-0.009959,-0.005949,-0.036801, 0.039084,1, 0.000182, 0.000705,-0.000321,1,-0.119073, 0.162234, 9.804585,1,1
1778107460029,   511.517,   511.512, 0.012165,-0.020116,-0.995611, 0.000119,-0.000200,-0.009956,-0.004650,-0.037106, 0.036949,1,-0.000346, 0.000543, 0.000177,1,-0.119192, 0.162251, 9.804584,1,1
1778107460056,   511.542,   511.542, 0.012637,-0.019529,-0.995054, 0.000124,-0.000197,-0.009950, 0.004691,-0.029229, 0.046432,1, 0.000653, 0.000529, 0.000809,1,-0.119248, 0.162303, 9.804582,1,1
1778107460077,   511.567,   511.562, 0.011991,-0.020091,-0.995750, 0.000121,-0.000198,-0.009956,-0.002416,-0.033932, 0.035766,1, 0.001483,-0.000283, 0.000544,1,-0.119248, 0.162569, 9.804577,1,1
1778107460099,   511.587,   511.582, 0.011574,-0.019691,-0.995681, 0.000114,-0.000198,-0.009957,-0.012760,-0.029232, 0.041558,1, 0.001975,-0.000170, 0.000347,1,-0.119202, 0.162915, 9.804572,1,1
1778107460126,   511.612,   511.612, 0.011661,-0.020587,-0.995590, 0.000116,-0.000206,-0.009958,-0.004827,-0.038210, 0.041160,1, 0.003433,-0.001129, 0.000818,1,-0.119149, 0.163790, 9.804558,1,1
1778107460147,   511.637,   511.632, 0.012937,-0.020875,-0.996018, 0.000127,-0.000207,-0.009959, 0.007373,-0.037821, 0.041865,1, 0.003763, 0.000337, 0.000250,1,-0.119197, 0.164489, 9.804545,1,1
1778107460169,   511.657,   511.652, 0.013552,-0.020339,-0.996296, 0.000133,-0.000206,-0.009964, 0.011135,-0.039587, 0.035440,1, 0.002699, 0.000076, 0.000649,1,-0.119183, 0.165142, 9.804535,1,1
1778107460196,   511.682,   511.682, 0.013854,-0.020583,-0.995654, 0.000140,-0.000204,-0.009956, 0.016778,-0.034368, 0.040464,1, 0.003393, 0.000156, 0.000043,1,-0.119092, 0.167860, 9.804490,1,1
1778107460217,   511.707,   511.702, 0.011211,-0.011351,-0.988337, 0.000106,-0.000152,-0.009909, 0.008850,-0.032415, 0.038092,1, 0.003892,-0.000735, 0.000715,1,-0.119064, 0.168619, 9.804478,1,1
1778107460239,   511.727,   511.722, 0.010810,-0.021880,-1.001245, 0.000107,-0.000246,-0.010017,-0.008257,-0.040942, 0.021323,1, 0.009991, 0.000113,-0.002779,1,-0.119223, 0.169646, 9.804458,1,1
1778107460266,   511.752,   511.752, 0.009142,-0.024251,-1.001951, 0.000098,-0.000247,-0.010044,-0.029457,-0.067309,-0.021342,1, 0.000436,-0.000246, 0.002220,1,-0.119101, 0.170524, 9.804444,1,1
1778107460287,   511.777,   511.772, 0.011234,-0.019351,-0.993045, 0.000104,-0.000184,-0.009951,-0.026258, 0.007573, 0.016292,1, 0.006200,-0.000743,-0.000377,1,-0.119055, 0.171537, 9.804427,1,1
1778107460309,   511.797,   511.792, 0.012639,-0.021895,-0.996238, 0.000121,-0.000222,-0.009961,-0.000462,-0.044963, 0.028525,1, 0.005793,-0.000601,-0.000221,1,-0.119049, 0.172629, 9.804408,1,1
1778107460336,   511.822,   511.822, 0.013696,-0.020598,-0.991064, 0.000132,-0.000207,-0.009922, 0.015395,-0.028012, 0.085367,1, 0.006701, 0.000556, 0.000364,1,-0.118938, 0.174193, 9.804381,1,1
1778107460357,   511.847,   511.842, 0.013258,-0.019858,-0.993921, 0.000135,-0.000196,-0.009933, 0.007745,-0.033852, 0.053542,1, 0.005800, 0.000908,-0.000563,1,-0.118949, 0.175606, 9.804356,1,1
1778107460379,   511.867,   511.862, 0.011754,-0.023579,-0.998134, 0.000120,-0.000231,-0.009987, 0.003701,-0.046672, 0.037514,1, 0.007717,-0.000346, 0.000074,1,-0.118851, 0.177050, 9.804331,1,1
1778107460406,   511.892,   511.892, 0.011319,-0.023033,-0.996279, 0.000115,-0.000232,-0.009963,-0.007704,-0.045300, 0.034107,1, 0.008115,-0.000225, 0.000060,1,-0.118703, 0.180847, 9.804264,1,1
1778107460427,   511.917,   511.912, 0.012074,-0.021488,-0.994255, 0.000119,-0.000216,-0.009940,-0.012215,-0.029871, 0.042147,1, 0.006782,-0.000306, 0.000740,1,-0.118666, 0.182215, 9.804239,1,1
1778107460450,   511.937,   511.937, 0.012225,-0.023419,-0.995327, 0.000122,-0.000232,-0.009955, 0.001243,-0.045838, 0.043380,1, 0.005332,-0.000901,-0.000121,1,-0.118616, 0.183994, 9.804206,1,1
1778107460476,   511.962,   511.962, 0.010687,-0.022877,-0.995422, 0.000110,-0.000230,-0.009955,-0.013752,-0.039411, 0.042438,1, 0.005031,-0.000358, 0.000121,1,-0.118548, 0.185091, 9.804187,1,1
1778107460498,   511.987,   511.982, 0.010814,-0.024927,-0.995814, 0.000108,-0.000247,-0.009958,-0.010021,-0.043112, 0.049414,1, 0.003531,-0.000414, 0.000115,1,-0.118500, 0.185892, 9.804172,1,1
1778107460520,   512.007,   512.007, 0.011720,-0.024850,-0.995768, 0.000117,-0.000251,-0.009959,-0.003461,-0.057185, 0.039009,1, 0.001561,-0.000438,-0.000242,1,-0.118381, 0.186564, 9.804160,1,1
1778107460546,   512.032,   512.032, 0.013619,-0.023466,-0.995560, 0.000136,-0.000236,-0.009959, 0.015158,-0.043407, 0.041052,1, 0.000358, 0.000153, 0.000035,1,-0.118399, 0.186725, 9.804157,1,1
1778107460568,   512.057,   512.047, 0.013458,-0.023482,-0.994919, 0.000135,-0.000235,-0.009953, 0.016673,-0.041387, 0.033648,1,-0.001294,-0.000542,-0.000368,1,-0.118343, 0.186617, 9.804160,1,1
1778107460590,   512.077,   512.077, 0.011323,-0.024285,-0.996240, 0.000117,-0.000244,-0.009959,-0.007224,-0.050294, 0.034364,1,-0.002771, 0.000007, 0.000498,1,-0.118259, 0.188092, 9.804132,1,1
1778107460616,   512.102,   512.102, 0.009603,-0.023281,-0.995910, 0.000099,-0.000236,-0.009956,-0.024045,-0.040780, 0.037601,1,-0.003659,-0.000441, 0.000254,1,-0.118209, 0.187412, 9.804147,1,1
1778107460638,   512.127,   512.122, 0.010175,-0.022560,-0.995242, 0.000100,-0.000226,-0.009950,-0.022610,-0.034022, 0.036970,1,-0.004415,-0.000431, 0.000044,1,-0.118149, 0.186562, 9.804163,1,1
1778107460661,   512.147,   512.147, 0.011274,-0.023721,-0.995115, 0.000112,-0.000236,-0.009955,-0.007665,-0.047216, 0.045435,1,-0.005298, 0.000474,-0.000401,1,-0.118239, 0.185241, 9.804188,1,1
1778107460686,   512.172,   512.172, 0.012403,-0.023000,-0.995673, 0.000125,-0.000230,-0.009955, 0.003275,-0.041271, 0.039982,1,-0.005870, 0.000494,-0.000599,1,-0.118369, 0.184099, 9.804207,1,1
1778107460708,   512.197,   512.192, 0.014101,-0.022829,-0.995776, 0.000140,-0.000227,-0.009958, 0.009944,-0.036970, 0.038241,1,-0.006531, 0.000459,-0.001165,1,-0.118520, 0.182791, 9.804230,1,1
1778107460731,   512.217,   512.217, 0.013450,-0.021887,-0.996905, 0.000135,-0.000222,-0.009970, 0.013259,-0.033477, 0.027961,1,-0.005793, 0.000671,-0.001486,1,-0.118663, 0.180979, 9.804262,1,1
1778107460756,   512.242,   512.242, 0.012066,-0.021977,-0.995143, 0.000123,-0.000220,-0.009947,-0.000394,-0.035800, 0.045268,1,-0.008485,-0.000153,-0.000342,1,-0.118719, 0.179458, 9.804289,1,1
1778107460778,   512.267,   512.262, 0.011361,-0.021615,-0.995839, 0.000114,-0.000217,-0.009958,-0.012321,-0.035744, 0.039695,1,-0.007949, 0.000267,-0.000743,1,-0.118753, 0.177841, 9.804318,1,1
1778107460801,   512.292,   512.287, 0.011140,-0.021189,-0.995291, 0.000111,-0.000213,-0.009956,-0.009488,-0.030152, 0.043849,1,-0.007842, 0.000480,-0.000576,1,-0.118752, 0.177412, 9.804326,1,1
1778107460826,   512.312,   512.312, 0.011512,-0.019931,-0.995546, 0.000113,-0.000201,-0.009956,-0.005874,-0.019355, 0.041376,1,-0.007708,-0.000181,-0.000191,1,-0.118764, 0.175857, 9.804354,1,1
1778107460848,   512.337,   512.332, 0.011255,-0.021928,-0.996455, 0.000111,-0.000220,-0.009965,-0.010638,-0.031905, 0.036274,1,-0.006739,-0.000059,-0.000513,1,-0.118701, 0.174498, 9.804379,1,1
1778107460871,   512.362,   512.357, 0.011779,-0.020133,-0.996015, 0.000117,-0.000203,-0.009959,-0.003427,-0.024609, 0.036834,1,-0.005857, 0.000135,-0.000324,1,-0.118942, 0.172642, 9.804409,1,1
1778107460897,   512.382,   512.382, 0.012525,-0.020359,-0.994585, 0.000122,-0.000205,-0.009946, 0.003937,-0.027990, 0.050877,1,-0.005943,-0.000530,-0.000816,1,-0.118876, 0.171477, 9.804430,1,1
1778107460918,   512.407,   512.402, 0.012597,-0.020087,-0.995770, 0.000125,-0.000203,-0.009956, 0.001354,-0.030388, 0.036418,1,-0.006041,-0.000729,-0.000670,1,-0.118851, 0.170368, 9.804450,1,1
1778107460941,   512.432,   512.427, 0.012284,-0.019986,-0.995542, 0.000123,-0.000198,-0.009955, 0.001507,-0.026947, 0.041540,1,-0.005005, 0.000009,-0.000680,1,-0.118963, 0.168890, 9.804474,1,1
1778107460967,   512.452,   512.452, 0.011673,-0.019330,-0.995183, 0.000116,-0.000192,-0.009955,-0.004470,-0.021391, 0.045077,1,-0.003139,-0.000516,-0.001466,1,-0.118932, 0.168072, 9.804488,1,1
1778107460988,   512.477,   512.472, 0.011964,-0.019405,-0.995961, 0.000121,-0.000195,-0.009960,-0.003569,-0.023400, 0.034328,1,-0.003236, 0.000798,-0.000706,1,-0.119019, 0.167395, 9.804499,1,1
1778107461011,   512.502,   512.497, 0.012050,-0.019113,-0.995290, 0.000118,-0.000192,-0.009952,-0.000765,-0.019118, 0.044021,1,-0.000514,-0.001012,-0.001030,1,-0.118900, 0.168303, 9.804484,1,1
1778107461037,   512.522,   512.522, 0.012141,-0.019606,-0.995497, 0.000123,-0.000198,-0.009953, 0.000239,-0.023990, 0.041999,1, 0.000157,-0.000294,-0.000663,1,-0.118813, 0.168286, 9.804486,1,1
1778107461058,   512.547,   512.542, 0.011979,-0.020101,-0.994727, 0.000118,-0.000200,-0.009949,-0.001529,-0.028095, 0.038307,1, 0.000077,-0.000386,-0.000180,1,-0.118826, 0.168325, 9.804485,1,1
1778107461081,   512.572,   512.567, 0.011173,-0.019564,-0.995804, 0.000113,-0.000197,-0.009959,-0.009337,-0.023361, 0.038978,1, 0.001531, 0.000173,-0.000295,1,-0.118916, 0.168541, 9.804481,1,1
1778107461107,   512.592,   512.592, 0.011423,-0.019769,-0.996108, 0.000116,-0.000197,-0.009959,-0.006907,-0.025142, 0.035996,1, 0.001373, 0.000725,-0.000292,1,-0.118954, 0.168771, 9.804476,1,1
1778107461128,   512.617,   512.612, 0.011689,-0.020599,-0.995420, 0.000118,-0.000204,-0.009955,-0.002351,-0.030307, 0.037610,1, 0.001692,-0.000005,-0.001151,1,-0.118937, 0.169091, 9.804471,1,1
1778107461155,   512.642,   512.642, 0.012074,-0.020027,-0.995386, 0.000121,-0.000200,-0.009954,-0.000609,-0.026683, 0.043059,1, 0.002434, 0.000703,-0.000505,1,-0.119036, 0.169786, 9.804458,1,1
1778107461177,   512.662,   512.662, 0.012290,-0.020635,-0.995744, 0.000124,-0.000206,-0.009957, 0.001472,-0.032268, 0.039533,1, 0.001248,-0.000108, 0.000343,1,-0.119045, 0.170132, 9.804451,1,1
1778107461198,   512.687,   512.682, 0.012137,-0.020139,-0.995814, 0.000123,-0.000201,-0.009959,-0.004316,-0.028131, 0.039265,1, 0.001989, 0.000797, 0.000368,1,-0.118990, 0.171870, 9.804421,1,1
1778107461225,   512.712,   512.712, 0.011999,-0.019280,-0.995625, 0.000119,-0.000194,-0.009958,-0.001364,-0.016536, 0.040663,1, 0.003246,-0.000265, 0.000053,1,-0.119023, 0.172636, 9.804408,1,1
1778107461247,   512.737,   512.732, 0.011515,-0.020177,-0.995620, 0.000117,-0.000203,-0.009956, 0.002608,-0.025097, 0.044058,1, 0.004397, 0.000134, 0.000913,1,-0.119016, 0.173326, 9.804396,1,1
1778107461269,   512.757,   512.752, 0.011689,-0.020230,-0.995371, 0.000117,-0.000205,-0.009954, 0.002608,-0.025097, 0.044058,1, 0.004397, 0.000134, 0.000913,1,-0.119016, 0.173326, 9.804396,1,1
1778107461295,   512.782,   512.782, 0.011451,-0.020185,-0.996072, 0.000112,-0.000201,-0.009957,-0.006593,-0.022464, 0.036229,1, 0.004502,-0.000535, 0.001213,1,-0.118872, 0.175620, 9.804357,1,1
1778107461317,   512.807,   512.802, 0.010898,-0.021107,-0.996118, 0.000109,-0.000209,-0.009960,-0.007200,-0.019491, 0.042408,1, 0.006294, 0.000240, 0.000910,1,-0.118906, 0.176743, 9.804337,1,1
1778107461339,   512.827,   512.822, 0.012411,-0.020684,-0.996168, 0.000123,-0.000206,-0.009959,-0.007401,-0.025438, 0.040163,1, 0.006876,-0.000617, 0.000567,1,-0.118771, 0.178013, 9.804315,1,1
1778107461366,   512.852,   512.852, 0.012290,-0.021481,-0.995339, 0.000124,-0.000215,-0.009953, 0.001798,-0.030794, 0.043339,1, 0.008115,-0.000193, 0.000470,1,-0.118719, 0.180113, 9.804277,1,1
1778107461387,   512.877,   512.872, 0.012245,-0.022009,-0.995785, 0.000123,-0.000219,-0.009957, 0.001039,-0.038272, 0.038856,1, 0.008286, 0.000254,-0.000068,1,-0.118734, 0.181650, 9.804249,1,1
1778107461409,   512.897,   512.892, 0.012113,-0.022153,-0.996186, 0.000123,-0.000222,-0.009961, 0.004457,-0.036739, 0.038576,1, 0.007026,-0.000411, 0.000764,1,-0.118642, 0.184325, 9.804200,1,1
1778107461436,   512.922,   512.922, 0.011744,-0.022045,-0.995704, 0.000116,-0.000220,-0.009960,-0.003455,-0.030052, 0.039647,1, 0.006197, 0.000258, 0.000593,1,-0.118630, 0.186329, 9.804162,1,1
1778107461457,   512.947,   512.942, 0.011084,-0.022797,-0.995683, 0.000112,-0.000228,-0.009957,-0.005908,-0.031558, 0.041017,1, 0.006965,-0.000300, 0.000136,1,-0.118638, 0.187706, 9.804135,1,1
1778107461479,   512.967,   512.962, 0.010998,-0.022182,-0.995254, 0.000111,-0.000222,-0.009950,-0.011597,-0.032578, 0.040789,1, 0.006656, 0.000129, 0.000973,1,-0.118655, 0.189056, 9.804110,1,1
1778107461506,   512.992,   512.992, 0.011363,-0.023386,-0.996078, 0.000117,-0.000234,-0.009962,-0.007276,-0.038901, 0.035891,1, 0.004989,-0.000195, 0.000533,1,-0.118699, 0.190596, 9.804079,1,1
1778107461527,   513.017,   513.012, 0.012453,-0.023405,-0.995843, 0.000124,-0.000235,-0.009959, 0.000392,-0.037766, 0.042009,1, 0.004079, 0.000510, 0.000558,1,-0.118739, 0.191467, 9.804062,1,1
1778107461549,   513.037,   513.032, 0.013023,-0.023348,-0.995814, 0.000128,-0.000233,-0.009958, 0.007177,-0.031449, 0.045300,1, 0.003169,-0.000374, 0.000423,1,-0.118733, 0.192227, 9.804047,1,1
1778107461576,   513.062,   513.062, 0.012466,-0.023484,-0.995389, 0.000124,-0.000232,-0.009952, 0.003535,-0.037238, 0.042596,1, 0.002497, 0.000486, 0.000125,1,-0.118730, 0.193137, 9.804029,1,1
1778107461597,   513.087,   513.082, 0.012141,-0.023348,-0.995600, 0.000123,-0.000234,-0.009956, 0.004180,-0.036104, 0.039032,1, 0.002587,-0.000270, 0.000590,1,-0.118627, 0.195196, 9.803989,1,1
1778107461619,   513.107,   513.102, 0.011361,-0.023065,-0.995610, 0.000113,-0.000230,-0.009956, 0.004180,-0.036104, 0.039032,1, 0.002587,-0.000270, 0.000590,1,-0.118627, 0.195196, 9.803989,1,1
1778107461646,   513.132,   513.132, 0.011751,-0.022428,-0.995538, 0.000115,-0.000225,-0.009958,-0.003300,-0.024115, 0.041087,1, 0.000298,-0.000404, 0.000214,1,-0.118524, 0.195833, 9.803978,1,1
1778107461667,   513.157,   513.152, 0.011417,-0.022699,-0.995673, 0.000113,-0.000226,-0.009955,-0.005003,-0.020676, 0.042902,1, 0.001830, 0.000086, 0.000609,1,-0.118486, 0.196117, 9.803973,1,1
1778107461690,   513.177,   513.177, 0.010948,-0.023726,-0.995233, 0.000109,-0.000238,-0.009950,-0.011136,-0.036070, 0.044062,1, 0.002423,-0.000058, 0.000469,1,-0.118495, 0.196677, 9.803962,1,1
1778107461716,   513.202,   513.202, 0.011244,-0.022658,-0.995273, 0.000111,-0.000226,-0.009955,-0.008359,-0.025298, 0.043662,1, 0.001720, 0.001366,-0.000030,1,-0.118665, 0.196956, 9.803954,1,1
1778107461738,   513.227,   513.222, 0.012342,-0.023770,-0.995653, 0.000122,-0.000239,-0.009958,-0.003095,-0.028903, 0.035327,1, 0.001817, 0.000109,-0.000350,1,-0.118714, 0.197347, 9.803946,1,1
1778107461760,   513.247,   513.247, 0.012812,-0.023147,-0.995858, 0.000127,-0.000231,-0.009959, 0.006951,-0.029338, 0.037908,1, 0.001426,-0.000254, 0.000378,1,-0.118685, 0.197704, 9.803939,1,1
1778107461786,   513.272,   513.272, 0.012919,-0.023896,-0.995019, 0.000128,-0.000240,-0.009948, 0.008006,-0.036305, 0.046125,1, 0.001855, 0.000455,-0.000043,1,-0.118701, 0.198090, 9.803930,1,1
1778107461808,   513.297,   513.292, 0.011669,-0.023264,-0.995749, 0.000116,-0.000232,-0.009959,-0.003979,-0.026414, 0.038842,1, 0.000481, 0.000921, 0.000611,1,-0.118703, 0.199611, 9.803900,1,1
1778107461830,   513.317,   513.317, 0.011403,-0.023753,-0.995370, 0.000112,-0.000236,-0.009953,-0.006840,-0.033052, 0.042653,1, 0.000668,-0.000327,-0.000476,1,-0.118653, 0.199910, 9.803894,1,1
1778107461856,   513.342,   513.342, 0.011058,-0.023837,-0.996149, 0.000114,-0.000237,-0.009961,-0.010159,-0.033734, 0.035005,1, 0.000647,-0.000119,-0.000183,1,-0.118593, 0.200051, 9.803892,1,1
1778107461878,   513.367,   513.362, 0.012262,-0.023532,-0.995769, 0.000121,-0.000237,-0.009957, 0.004366,-0.030921, 0.039706,1, 0.000989, 0.000119,-0.000139,1,-0.118654, 0.200245, 9.803887,1,1
1778107461901,   513.387,   513.387, 0.011972,-0.023922,-0.996008, 0.000120,-0.000239,-0.009963,-0.001330,-0.034326, 0.036387,1,-0.000285,-0.000493, 0.000221,1,-0.118720, 0.200260, 9.803886,1,1
1778107461926,   513.412,   513.412, 0.011841,-0.023675,-0.995600, 0.000120,-0.000236,-0.009955,-0.002576,-0.031881, 0.040387,1, 0.000193,-0.000288,-0.000173,1,-0.118687, 0.200301, 9.803885,1,1
1778107461948,   513.437,   513.432, 0.012086,-0.023458,-0.995640, 0.000120,-0.000233,-0.009959,-0.010471,-0.033964, 0.038332,1,-0.000684, 0.000035,-0.000081,1,-0.118722, 0.200200, 9.803887,1,1
1778107461971,   513.457,   513.457, 0.011663,-0.024032,-0.995842, 0.000116,-0.000238,-0.009956,-0.004309,-0.035602, 0.038015,1,-0.000660, 0.000173,-0.000102,1,-0.118691, 0.200055, 9.803891,1,1
1778107461996,   513.482,   513.482, 0.012241,-0.022985,-0.996188, 0.000124,-0.000230,-0.009962, 0.001409,-0.024293, 0.034602,1,-0.001143, 0.000513, 0.000129,1,-0.118639, 0.201282, 9.803866,1,1
1778107462018,   513.507,   513.502, 0.011944,-0.023213,-0.995341, 0.000120,-0.000232,-0.009954,-0.000263,-0.029887, 0.046440,1,-0.000970,-0.000068,-0.000166,1,-0.118557, 0.201082, 9.803871,1,1
1778107462041,   513.532,   513.527, 0.011788,-0.023330,-0.995927, 0.000117,-0.000234,-0.009957,-0.003085,-0.028012, 0.037168,1,-0.001564, 0.000023,-0.000140,1,-0.118691, 0.200726, 9.803877,1,1
1778107462066,   513.552,   513.552, 0.011780,-0.022966,-0.995140, 0.000119,-0.000228,-0.009950,-0.003216,-0.024625, 0.044891,1,-0.000214,-0.000089,-0.000406,1,-0.118732, 0.200589, 9.803880,1,1
1778107462088,   513.577,   513.572, 0.011851,-0.023701,-0.995614, 0.000116,-0.000233,-0.009957,-0.005122,-0.025098, 0.034191,1,-0.000435,-0.000552, 0.000151,1,-0.118711, 0.200422, 9.803883,1,1
1778107462111,   513.602,   513.597, 0.011807,-0.023919,-0.996064, 0.000118,-0.000240,-0.009963,-0.002943,-0.034241, 0.035838,1,-0.001074,-0.000564,-0.000122,1,-0.118712, 0.200294, 9.803885,1,1
1778107462137,   513.622,   513.622, 0.012165,-0.024130,-0.995220, 0.000121,-0.000241,-0.009955, 0.000587,-0.036516, 0.044115,1,-0.001801, 0.000330,-0.000408,1,-0.118720, 0.200063, 9.803890,1,1
1778107462158,   513.647,   513.642, 0.011786,-0.023389,-0.995649, 0.000118,-0.000237,-0.009954,-0.005116,-0.037759, 0.041472,1,-0.001655,-0.000081,-0.000574,1,-0.118666, 0.199786, 9.803897,1,1
1778107462181,   513.672,   513.667, 0.011893,-0.022708,-0.996320, 0.000119,-0.000228,-0.009963,-0.002064,-0.023453, 0.033350,1,-0.003034,-0.000710, 0.000074,1,-0.118668, 0.199138, 9.803909,1,1
1778107462207,   513.692,   513.692, 0.012598,-0.023132,-0.996049, 0.000123,-0.000231,-0.009960, 0.004888,-0.026817, 0.035989,1,-0.001859, 0.000232, 0.000649,1,-0.118666, 0.199981, 9.803892,1,1
1778107462228,   513.717,   513.712, 0.012466,-0.022606,-0.995157, 0.000125,-0.000224,-0.009953, 0.006169,-0.025358, 0.040963,1,-0.001710,-0.000113, 0.000159,1,-0.118705, 0.199711, 9.803898,1,1
1778107462251,   513.742,   513.737, 0.011189,-0.022980,-0.996024, 0.000113,-0.000232,-0.009956,-0.008912,-0.026054, 0.036243,1,-0.000547,-0.000037,-0.000058,1,-0.118642, 0.199290, 9.803907,1,1
1778107462277,   513.762,   513.762, 0.010314,-0.022233,-0.995415, 0.000102,-0.000222,-0.009954,-0.017454,-0.018864, 0.042224,1,-0.000643, 0.000139, 0.000217,1,-0.118609, 0.199147, 9.803910,1,1
1778107462298,   513.787,   513.782, 0.011359,-0.022702,-0.995441, 0.000112,-0.000227,-0.009955,-0.008213,-0.022900, 0.033474,1,-0.000842,-0.000149, 0.000423,1,-0.118692, 0.198924, 9.803914,1,1
1778107462321,   513.812,   513.807, 0.011903,-0.022809,-0.996599, 0.000119,-0.000228,-0.009964,-0.001969,-0.024659, 0.030614,1, 0.001785,-0.000341,-0.000244,1,-0.118687, 0.199076, 9.803911,1,1
1778107462347,   513.832,   513.832, 0.012905,-0.022545,-0.995154, 0.000128,-0.000227,-0.009952, 0.007900,-0.021851, 0.044776,1, 0.001654,-0.000228, 0.000390,1,-0.118650, 0.199292, 9.803906,1,1
1778107462368,   513.857,   513.852, 0.011590,-0.023656,-0.995628, 0.000116,-0.000237,-0.009955, 0.007052,-0.022387, 0.044396,1, 0.001491,-0.000300,-0.000354,1,-0.118646, 0.199610, 9.803901,1,1
1778107462395,   513.882,   513.882, 0.012057,-0.023235,-0.996545, 0.000120,-0.000231,-0.009965,-0.000270,-0.026947, 0.031107,1, 0.001382,-0.000430,-0.000796,1,-0.118488, 0.201112, 9.803871,1,1
1778107462417,   513.902,   513.902, 0.011391,-0.021996,-0.995357, 0.000115,-0.000222,-0.009952,-0.006862,-0.014323, 0.042746,1, 0.001930, 0.000298, 0.000062,1,-0.118574, 0.201446, 9.803864,1,1
1778107462438,   513.927,   513.922, 0.012399,-0.023137,-0.995586, 0.000123,-0.000230,-0.009957, 0.000223,-0.019654, 0.032033,1, 0.002596,-0.000351, 0.000338,1,-0.118547, 0.201891, 9.803855,1,1
1778107462465,   513.952,   513.952, 0.012314,-0.024029,-0.995467, 0.000124,-0.000236,-0.009957, 0.002185,-0.033129, 0.041647,1, 0.003206, 0.000610, 0.000550,1,-0.118592, 0.202612, 9.803840,1,1
1778107462487,   513.977,   513.972, 0.011283,-0.022883,-0.995962, 0.000112,-0.000230,-0.009959,-0.003733,-0.023179, 0.043032,1, 0.002809,-0.000190, 0.000191,1,-0.118504, 0.203032, 9.803832,1,1
1778107462509,   513.997,   513.992, 0.011196,-0.023035,-0.996627, 0.000111,-0.000229,-0.009963,-0.009771,-0.024700, 0.038416,1, 0.002670,-0.000710,-0.000161,1,-0.118338, 0.203554, 9.803823,1,1
1778107462535,   514.022,   514.022, 0.011415,-0.023039,-0.995853, 0.000112,-0.000231,-0.009959,-0.006376,-0.021651, 0.037828,1, 0.003003, 0.000392,-0.000124,1,-0.118333, 0.204376, 9.803806,1,1
1778107462557,   514.047,   514.042, 0.011761,-0.024381,-0.996045, 0.000118,-0.000241,-0.009959,-0.004465,-0.021969, 0.044800,1, 0.003849, 0.000034,-0.000390,1,-0.118317, 0.205046, 9.803792,1,1
1778107462579,   514.067,   514.062, 0.011584,-0.024700,-0.996590, 0.000115,-0.000247,-0.009969,-0.003633,-0.031697, 0.034186,1, 0.002302, 0.000403, 0.000592,1,-0.118306, 0.205670, 9.803780,1,1
1778107462606,   514.092,   514.092, 0.011732,-0.023950,-0.995556, 0.000118,-0.000242,-0.009955, 0.001741,-0.016552, 0.034704,1, 0.003408,-0.000786, 0.000322,1,-0.118044, 0.207586, 9.803742,1,1
1778107462627,   514.117,   514.112, 0.011756,-0.024050,-0.995729, 0.000120,-0.000239,-0.009956,-0.000620,-0.020692, 0.041462,1, 0.003707, 0.000220, 0.000174,1,-0.117996, 0.208360, 9.803726,1,1
1778107462649,   514.137,   514.132, 0.012068,-0.023831,-0.995421, 0.000121,-0.000240,-0.009953, 0.006215,-0.026012, 0.039601,1, 0.003587, 0.000555, 0.000031,1,-0.118002, 0.209135, 9.803710,1,1
1778107462676,   514.162,   514.162, 0.012612,-0.023980,-0.995524, 0.000125,-0.000240,-0.009956, 0.005735,-0.025001, 0.040937,1, 0.004272, 0.000102, 0.000130,1,-0.117954, 0.210293, 9.803685,1,1
1778107462697,   514.187,   514.182, 0.011434,-0.024956,-0.995394, 0.000119,-0.000246,-0.009954,-0.002186,-0.027271, 0.034021,1, 0.003120, 0.000430, 0.000300,1,-0.118010, 0.210909, 9.803672,1,1
1778107462719,   514.207,   514.202, 0.012064,-0.025240,-0.996087, 0.000118,-0.000252,-0.009961,-0.005980,-0.030125, 0.039633,1, 0.002782,-0.000188, 0.000060,1,-0.117914, 0.211519, 9.803659,1,1
1778107462746,   514.232,   514.232, 0.011455,-0.024374,-0.996044, 0.000115,-0.000243,-0.009959,-0.005641,-0.027056, 0.035790,1, 0.001682,-0.000155, 0.000033,1,-0.117974, 0.212021, 9.803648,1,1
1778107462767,   514.257,   514.252, 0.011087,-0.024832,-0.995728, 0.000111,-0.000245,-0.009960,-0.011330,-0.024122, 0.041158,1, 0.002371,-0.000641,-0.000005,1,-0.117946, 0.212449, 9.803639,1,1
1778107462789,   514.277,   514.272, 0.011879,-0.024940,-0.995765, 0.000119,-0.000248,-0.009959,-0.001908,-0.031076, 0.040823,1, 0.001789,-0.000759,-0.000295,1,-0.117934, 0.212778, 9.803632,1,1
1778107462816,   514.302,   514.302, 0.011746,-0.024634,-0.994584, 0.000118,-0.000247,-0.009947,-0.002671,-0.027362, 0.050066,1, 0.000700, 0.000260,-0.000401,1,-0.117871, 0.214234, 9.803601,1,1
1778107462837,   514.327,   514.322, 0.012130,-0.024254,-0.995163, 0.000120,-0.000244,-0.009953, 0.004439,-0.026067, 0.037898,1, 0.001133,-0.000355,-0.000112,1,-0.117828, 0.214387, 9.803598,1,1
1778107462859,   514.347,   514.342, 0.012305,-0.024957,-0.995342, 0.000126,-0.000250,-0.009956, 0.010230,-0.028954, 0.037087,1, 0.000862,-0.000040, 0.000654,1,-0.117891, 0.214662, 9.803592,1,1
1778107462886,   514.372,   514.372, 0.012449,-0.024341,-0.995443, 0.000123,-0.000246,-0.009955, 0.004046,-0.023991, 0.041629,1, 0.000546,-0.000036, 0.000899,1,-0.118039, 0.214733, 9.803588,1,1
1778107462907,   514.397,   514.392, 0.011282,-0.024392,-0.995673, 0.000112,-0.000243,-0.009959,-0.004038,-0.020510, 0.038793,1,-0.000025,-0.000694, 0.000049,1,-0.117981, 0.214718, 9.803589,1,1
1778107462930,   514.417,   514.417, 0.011349,-0.024945,-0.995531, 0.000112,-0.000250,-0.009954,-0.006577,-0.029980, 0.040765,1,-0.000430,-0.000002, 0.000588,1,-0.117873, 0.214634, 9.803593,1,1
1778107462956,   514.442,   514.442, 0.010574,-0.024611,-0.995588, 0.000107,-0.000244,-0.009956,-0.014067,-0.026816, 0.040217,1,-0.001315,-0.000253, 0.000315,1,-0.117749, 0.214492, 9.803596,1,1
1778107462978,   514.467,   514.462, 0.011197,-0.025046,-0.995923, 0.000112,-0.000250,-0.009960,-0.009761,-0.027626, 0.034099,1,-0.001181,-0.000358, 0.000226,1,-0.117747, 0.214388, 9.803599,1,1
1778107463000,   514.487,   514.487, 0.012195,-0.024865,-0.995666, 0.000121,-0.000250,-0.009958, 0.001874,-0.028854, 0.039437,1,-0.001735, 0.000165,-0.000105,1,-0.117723, 0.214942, 9.803587,1,1
1778107463026,   514.512,   514.512, 0.012475,-0.024377,-0.995725, 0.000124,-0.000244,-0.009955, 0.004719,-0.024492, 0.038870,1,-0.002353,-0.000594,-0.000335,1,-0.117602, 0.214491, 9.803598,1,1
1778107463048,   514.537,   514.532, 0.012584,-0.023828,-0.995024, 0.000128,-0.000240,-0.009953, 0.003976,-0.023604, 0.038182,1,-0.002580, 0.000153,-0.000095,1,-0.117632, 0.214007, 9.803609,1,1
1778107463070,   514.557,   514.557, 0.011813,-0.024501,-0.995722, 0.000118,-0.000244,-0.009956,-0.001791,-0.026810, 0.038927,1,-0.002482, 0.000222, 0.000203,1,-0.117646, 0.213387, 9.803622,1,1
1778107463096,   514.582,   514.582, 0.011308,-0.024164,-0.996113, 0.000115,-0.000241,-0.009962,-0.004169,-0.021957, 0.044056,1,-0.001846, 0.000485, 0.000679,1,-0.117724, 0.213211, 9.803625,1,1
1778107463118,   514.607,   514.602, 0.011008,-0.024385,-0.996130, 0.000109,-0.000244,-0.009960,-0.010501,-0.024351, 0.043652,1,-0.002109, 0.000363,-0.000157,1,-0.117868, 0.212621, 9.803637,1,1
1778107463141,   514.627,   514.627, 0.011557,-0.024486,-0.995380, 0.000116,-0.000245,-0.009951,-0.004557,-0.027987, 0.042301,1,-0.001556, 0.000343,-0.000590,1,-0.117907, 0.212093, 9.803647,1,1
1778107463166,   514.652,   514.652, 0.011724,-0.024081,-0.995667, 0.000117,-0.000240,-0.009959,-0.002859,-0.024421, 0.039502,1,-0.002294,-0.000327,-0.000287,1,-0.117821, 0.211662, 9.803658,1,1
1778107463188,   514.677,   514.672, 0.012000,-0.024115,-0.995829, 0.000122,-0.000241,-0.009961,-0.002185,-0.024690, 0.033709,1,-0.002550,-0.000255,-0.000069,1,-0.117839, 0.211166, 9.803668,1,1
1778107463211,   514.697,   514.697, 0.012078,-0.024517,-0.996070, 0.000121,-0.000242,-0.009957, 0.000699,-0.028847, 0.035554,1,-0.002169,-0.000556,-0.000272,1,-0.117728, 0.211517, 9.803661,1,1
1778107463236,   514.722,   514.722, 0.011817,-0.024669,-0.995464, 0.000118,-0.000246,-0.009956,-0.001892,-0.030982, 0.041510,1,-0.003619, 0.000007, 0.000111,1,-0.117779, 0.210823, 9.803677,1,1
1778107463258,   514.747,   514.742, 0.011992,-0.023342,-0.995291, 0.000118,-0.000233,-0.009953, 0.000722,-0.024006, 0.039068,1,-0.003897, 0.000309,-0.000202,1,-0.117835, 0.210125, 9.803691,1,0
1778107463281,   514.772,   514.767, 0.012327,-0.023513,-0.996325, 0.000124,-0.000233,-0.009962, 0.002982,-0.021305, 0.033091,1,-0.003563,-0.000777,-0.000031,1,-0.117881, 0.209166, 9.803710,1,0
1778107463306,   514.792,   514.792, 0.012219,-0.023249,-0.995675, 0.000122,-0.000233,-0.009958, 0.001936,-0.019333, 0.039480,1,-0.003086,-0.000265,-0.000070,1,-0.117882, 0.208568, 9.803723,1,0
1778107463328,   514.817,   514.812, 0.011046,-0.023014,-0.995418, 0.000112,-0.000232,-0.009953,-0.002887,-0.016947, 0.038917,1,-0.002048, 0.000428, 0.000134,1,-0.117927, 0.208097, 9.803733,1,0
1778107463351,   514.842,   514.837, 0.011494,-0.023222,-0.995758, 0.000115,-0.000234,-0.009958,-0.005073,-0.020222, 0.038697,1,-0.002485, 0.000389,-0.000260,1,-0.117806, 0.207433, 9.803748,1,0
1778107463377,   514.862,   514.862, 0.011274,-0.023770,-0.995657, 0.000114,-0.000238,-0.009957,-0.007220,-0.026020, 0.039694,1,-0.001671,-0.000411, 0.000046,1,-0.117762, 0.207028, 9.803758,1,0
1778107463398,   514.887,   514.882, 0.012605,-0.022934,-0.995685, 0.000124,-0.000232,-0.009953, 0.000543,-0.020425, 0.041232,1,-0.002124, 0.000243,-0.000388,1,-0.117732, 0.207603, 9.803745,1,0
1778107463421,   514.912,   514.907, 0.012227,-0.023041,-0.996057, 0.000122,-0.000231,-0.009959, 0.002166,-0.018799, 0.035767,1,-0.001521,-0.000073,-0.000238,1,-0.117740, 0.207113, 9.803756,1,0
1778107463447,   514.932,   514.932, 0.011969,-0.023279,-0.995748, 0.000121,-0.000232,-0.009958,-0.000379,-0.021339, 0.038804,1,-0.001130, 0.000064,-0.000287,1,-0.117753, 0.206917, 9.803760,1,0
1778107463468,   514.957,   514.952, 0.012139,-0.022913,-0.996476, 0.000121,-0.000231,-0.009964, 0.003021,-0.020396, 0.035720,1,-0.000236, 0.000296, 0.000051,1,-0.117800, 0.206750, 9.803762,1,0
1778107463491,   514.982,   514.977, 0.011985,-0.022495,-0.995839, 0.000121,-0.000225,-0.009958,-0.000214,-0.013695, 0.037911,1, 0.000767,-0.000250,-0.000621,1,-0.117742, 0.206928, 9.803760,1,0
1778107463517,   515.002,   515.002, 0.012167,-0.023427,-0.995157, 0.000124,-0.000234,-0.009954, 0.001577,-0.022585, 0.044593,1, 0.001472, 0.000059,-0.000179,1,-0.117740, 0.207198, 9.803754,1,0
1778107463538,   515.027,   515.022, 0.011843,-0.023256,-0.995648, 0.000119,-0.000234,-0.009958,-0.002208,-0.018933, 0.032978,1, 0.001317,-0.000164,-0.000245,1,-0.117716, 0.207457, 9.803749,1,0
1778107463561,   515.052,   515.047, 0.011225,-0.023447,-0.995575, 0.000113,-0.000235,-0.009958,-0.007606,-0.021930, 0.040483,1, 0.002323, 0.000219,-0.000073,1,-0.117695, 0.208080, 9.803736,1,0
1778107463587,   515.072,   515.072, 0.010855,-0.023275,-0.995481, 0.000109,-0.000231,-0.009953,-0.011332,-0.019888, 0.041395,1, 0.002020, 0.000644, 0.000120,1,-0.117799, 0.208428, 9.803727,1,0
1778107463608,   515.097,   515.092, 0.012073,-0.023720,-0.995811, 0.000121,-0.000235,-0.009956,-0.007413,-0.020545, 0.036751,1, 0.001797,-0.000244, 0.000300,1,-0.117748, 0.209583, 9.803703,1,0
1778107463635,   515.122,   515.122, 0.012227,-0.023616,-0.995441, 0.000123,-0.000239,-0.009955, 0.002159,-0.021345, 0.041744,1, 0.002566,-0.000091, 0.000379,1,-0.117745, 0.210329, 9.803687,1,0
1778107463657,   515.142,   515.142, 0.012062,-0.023589,-0.996757, 0.000122,-0.000237,-0.009967, 0.000575,-0.020503, 0.028826,1, 0.002892,-0.000429,-0.000343,1,-0.117696, 0.210918, 9.803675,1,0
1778107463678,   515.167,   515.162, 0.012565,-0.023840,-0.995812, 0.000127,-0.000237,-0.009957, 0.006324,-0.025559, 0.049330,1, 0.003169, 0.000054, 0.000533,1,-0.117717, 0.211444, 9.803663,1,0
1778107463705,   515.192,   515.192, 0.012520,-0.024457,-0.995431, 0.000123,-0.000242,-0.009958, 0.005070,-0.027982, 0.041809,1, 0.001203,-0.000505, 0.000550,1,-0.117697, 0.211900, 9.803654,1,0
1778107463727,   515.217,   515.212, 0.011440,-0.024315,-0.995683, 0.000117,-0.000241,-0.009957,-0.004883,-0.024627, 0.043655,1, 0.001287, 0.000051,-0.000047,1,-0.117675, 0.212330, 9.803645,1,0
1778107463749,   515.237,   515.232, 0.011330,-0.024428,-0.996084, 0.000113,-0.000244,-0.009961,-0.007452,-0.021922, 0.039777,1, 0.000987,-0.000453, 0.000216,1,-0.117590, 0.212598, 9.803640,1,0
1778107463775,   515.262,   515.262, 0.011203,-0.024088,-0.995494, 0.000111,-0.000240,-0.009955,-0.007787,-0.023216, 0.041169,1, 0.001570, 0.000238,-0.000034,1,-0.117663, 0.213051, 9.803629,1,0
1778107463797,   515.287,   515.282, 0.012793,-0.024648,-0.995541, 0.000127,-0.000246,-0.009957, 0.001845,-0.028097, 0.044348,1, 0.001396,-0.000236, 0.000078,1,-0.117647, 0.214271, 9.803603,1,0
1778107463819,   515.307,   515.302, 0.012623,-0.024428,-0.995355, 0.000127,-0.000243,-0.009953, 0.003776,-0.027091, 0.038616,1, 0.000007,-0.000249, 0.000319,1,-0.117630, 0.214391, 9.803600,1,0
1778107463846,   515.332,   515.332, 0.011581,-0.024895,-0.995866, 0.000117,-0.000253,-0.009957,-0.004003,-0.029652, 0.037487,1, 0.000329,-0.000346, 0.000455,1,-0.117560, 0.214494, 9.803599,1,0
1778107463867,   515.357,   515.352, 0.011278,-0.024080,-0.995787, 0.000114,-0.000240,-0.009956,-0.003185,-0.024398, 0.038187,1, 0.000344,-0.000633, 0.000307,1,-0.117442, 0.214502, 9.803600,1,0
1778107463889,   515.377,   515.372, 0.011495,-0.024765,-0.995531, 0.000116,-0.000247,-0.009957,-0.005083,-0.028081, 0.038732,1,-0.000001, 0.000011, 0.000278,1,-0.117436, 0.214517, 9.803600,1,0
1778107463916,   515.402,   515.402, 0.011402,-0.025305,-0.996004, 0.000116,-0.000254,-0.009962,-0.005614,-0.033614, 0.036136,1,-0.000267,-0.000733, 0.000082,1,-0.117404, 0.214536, 9.803600,1,0
1778107463937,   515.427,   515.422, 0.011272,-0.023958,-0.995374, 0.000116,-0.000241,-0.009954,-0.000438,-0.021948, 0.044738,1,-0.000997,-0.000443,-0.000396,1,-0.117382, 0.214274, 9.803606,1,0
1778107463959,   515.447,   515.442, 0.011640,-0.023670,-0.996080, 0.000117,-0.000236,-0.009962,-0.003206,-0.016997, 0.043653,1,-0.000222,-0.000483, 0.000437,1,-0.117354, 0.214182, 9.803609,1,0
1778107463986,   515.472,   515.472, 0.011590,-0.024093,-0.995499, 0.000116,-0.000242,-0.009955,-0.003642,-0.022289, 0.041099,1,-0.000806, 0.000100, 0.000314,1,-0.117308, 0.213962, 9.803614,1,0
1778107464007,   515.497,   515.492, 0.012306,-0.024998,-0.995439, 0.000119,-0.000248,-0.009957,-0.000890,-0.024984, 0.037123,1, 0.000970, 0.000376,-0.000245,1,-0.117369, 0.215101, 9.803588,1,0
1778107464029,   515.517,   515.512, 0.012571,-0.024492,-0.996166, 0.000127,-0.000245,-0.009960, 0.002961,-0.021269, 0.036984,1, 0.000396,-0.000300,-0.000782,1,-0.117345, 0.215164, 9.803587,1,0
1778107464056,   515.542,   515.542, 0.012495,-0.024620,-0.995308, 0.000125,-0.000245,-0.009952, 0.005148,-0.026491, 0.042949,1,-0.001369, 0.000164,-0.000043,1,-0.117395, 0.214907, 9.803592,1,0
1778107464077,   515.567,   515.562, 0.012417,-0.024487,-0.996097, 0.000123,-0.000246,-0.009959, 0.005805,-0.028395, 0.034725,1,-0.001188,-0.000637, 0.000124,1,-0.117359, 0.214668, 9.803597,1,0
1778107464099,   515.587,   515.582, 0.011617,-0.023419,-0.995441, 0.000116,-0.000234,-0.009954, 0.000234,-0.018732, 0.032284,1,-0.001522,-0.000135, 0.000261,1,-0.117353, 0.214420, 9.803603,1,0
1778107464126,   515.612,   515.612, 0.011847,-0.023834,-0.995919, 0.000118,-0.000240,-0.009958,-0.001122,-0.019604, 0.036980,1,-0.001220, 0.000578,-0.000003,1,-0.117321, 0.214094, 9.803611,1,0
1778107464148,   515.637,   515.632, 0.011678,-0.024614,-0.995623, 0.000116,-0.000248,-0.009957,-0.007594,-0.027115, 0.038004,1,-0.001096, 0.000224, 0.000098,1,-0.117317, 0.213930, 9.803615,1,0
1778107464170,   515.657,   515.657, 0.011850,-0.024318,-0.995581, 0.000117,-0.000241,-0.009955,-0.001140,-0.024886, 0.040304,1,-0.001523, 0.000517,-0.000102,1,-0.117361, 0.213547, 9.803622,1,0
1778107464196,   515.682,   515.682, 0.011756,-0.024196,-0.995735, 0.000116,-0.000240,-0.009956,-0.002131,-0.023205, 0.038788,1,-0.002001,-0.000087,-0.000040,1,-0.117423, 0.214148, 9.803608,1,0
1778107464218,   515.707,   515.702, 0.011503,-0.023983,-0.995465, 0.000115,-0.000240,-0.009958,-0.000158,-0.017603, 0.036750,1,-0.002052,-0.000628,-0.000174,1,-0.117443, 0.213721, 9.803617,1,0
1778107464240,   515.727,   515.727, 0.011069,-0.023985,-0.995817, 0.000114,-0.000241,-0.009957,-0.008936,-0.021875, 0.037992,1,-0.001462, 0.000425, 0.000108,1,-0.117500, 0.213296, 9.803626,1,0
1778107464266,   515.752,   515.752, 0.011829,-0.024595,-0.995868, 0.000118,-0.000245,-0.009960,-0.001562,-0.028110, 0.037496,1,-0.001668, 0.000194,-0.000364,1,-0.117573, 0.213033, 9.803631,1,0
1778107464288,   515.777,   515.772, 0.012160,-0.023803,-0.996105, 0.000121,-0.000236,-0.009962,-0.003457,-0.018489, 0.037253,1,-0.001315,-0.000559,-0.000104,1,-0.117554, 0.212755, 9.803638,1,0
1778107464310,   515.797,   515.797, 0.011928,-0.023286,-0.995657, 0.000122,-0.000234,-0.009956,-0.000622,-0.016099, 0.039591,1,-0.001270,-0.000517, 0.000220,1,-0.117578, 0.212215, 9.803649,1,0
1778107464336,   515.822,   515.822, 0.011902,-0.023936,-0.995876, 0.000122,-0.000239,-0.009959,-0.000821,-0.022727, 0.037447,1,-0.001060, 0.000092, 0.000264,1,-0.117544, 0.211968, 9.803655,1,0
1778107464358,   515.847,   515.842, 0.012054,-0.023660,-0.996079, 0.000121,-0.000238,-0.009960,-0.003194,-0.018459, 0.040201,1,-0.000466, 0.000419,-0.000232,1,-0.117565, 0.211877, 9.803656,1,0
1778107464381,   515.867,   515.867, 0.011952,-0.023854,-0.996176, 0.000118,-0.000237,-0.009963,-0.000400,-0.022127, 0.034508,1, 0.000249,-0.000352, 0.000726,1,-0.117595, 0.211810, 9.803658,1,0
1778107464406,   515.892,   515.892, 0.011796,-0.023492,-0.995244, 0.000118,-0.000234,-0.009949,-0.001847,-0.017763, 0.043631,1, 0.000576,-0.000825,-0.000053,1,-0.117500, 0.212637, 9.803640,1,0
1778107464428,   515.917,   515.912, 0.011625,-0.023367,-0.996252, 0.000117,-0.000233,-0.009959,-0.006563,-0.013726, 0.035330,1, 0.000701,-0.000820,-0.000146,1,-0.117511, 0.212761, 9.803638,1,0
1778107464451,   515.937,   515.937, 0.011567,-0.024163,-0.995437, 0.000115,-0.000237,-0.009952,-0.004029,-0.023728, 0.041724,1, 0.002062, 0.000069,-0.000323,1,-0.117463, 0.213295, 9.803626,1,0
1778107464476,   515.962,   515.962, 0.011779,-0.024108,-0.996102, 0.000117,-0.000240,-0.009963,-0.001911,-0.022911, 0.035198,1, 0.001858, 0.000070, 0.000251,1,-0.117421, 0.213561, 9.803621,1,0
1778107464498,   515.987,   515.982, 0.011361,-0.024012,-0.996102, 0.000114,-0.000241,-0.009962, 0.001366,-0.017779, 0.038012,1, 0.002241,-0.000002, 0.000501,1,-0.117455, 0.213963, 9.803612,1,0
1778107464521,   516.012,   516.007, 0.012003,-0.024892,-0.995365, 0.000119,-0.000247,-0.009953, 0.000223,-0.029691, 0.042407,1, 0.001982, 0.000624, 0.000566,1,-0.117506, 0.214480, 9.803600,1,0
1778107464546,   516.032,   516.032, 0.011862,-0.024444,-0.995067, 0.000119,-0.000245,-0.009951,-0.001233,-0.025008, 0.045320,1, 0.000306,-0.000371,-0.000209,1,-0.117547, 0.214718, 9.803595,1,0
1778107464568,   516.057,   516.052, 0.011884,-0.023874,-0.995120, 0.000121,-0.000240,-0.009952, 0.001420,-0.021850, 0.037483,1,-0.000264, 0.000009, 0.000597,1,-0.117554, 0.214875, 9.803591,1,0
