unix_time_ms,GPS_ts_tow,scaledAccelX,scaledAccelY,scaledAccelZ,deltaVelX,deltaVelY,deltaVelZ,estLinAccelX,estLinAccelY,estLinAccelZ,estLinAccel_valid,estAngRateX,estAngRateY,estAngRateZ,estAngRate_valid,estGravityX,estGravityY,estGravityZ,estGravity_valid,flag
1779390687260,414705.260000000,0.051863499,0.012931718,-0.986949384,0.000519047,0.000125473,-0.009849597,-0.020061132,0.029744225,0.113241389,1,-0.008426948,-0.000571976,0.000168852,1,-0.528650582,-0.097334981,9.791906357,1,0
1779390687270,414705.270000000,0.049134128,0.011692317,-0.999399006,0.000488171,0.000120972,-0.009976937,-0.046560436,0.017113416,-0.008839072,1,-0.000342809,-0.004046611,-0.000346798,1,-0.528275430,-0.097560324,9.791924477,1,0
1779390687290,414705.290000000,0.053684633,0.007863476,-0.999212384,0.000532827,0.000070860,-0.010004340,-0.001390474,-0.019395143,-0.006968658,1,0.003576002,0.000978842,-0.000535678,1,-0.527887285,-0.096398950,9.791956902,1,0
1779390687300,414705.300000000,0.053931355,0.011387213,-0.991258562,0.000538375,0.000106339,-0.009919485,0.000864885,0.014938760,0.071020618,1,-0.007449786,0.002903673,-0.000124947,1,-0.528111577,-0.096964069,9.791939735,1,0
1779390687320,414705.320000000,0.054979071,0.012424495,-0.999739170,0.000544924,0.000130453,-0.009996966,0.011021147,0.023499485,-0.012168344,1,-0.000503419,-0.000713977,0.000791102,1,-0.528117120,-0.098357961,9.791925430,1,0
1779390687330,414705.330000000,0.057807401,0.007271254,-0.999015391,0.000578563,0.000081070,-0.010000238,0.038878448,-0.026454365,-0.005058243,1,0.009745808,-0.001017955,-0.000743031,1,-0.527986586,-0.097458534,9.791941643,1,0
1779390687350,414705.350000000,0.052448783,0.009052216,-0.983949482,0.000536376,0.000089045,-0.009840036,-0.013814418,-0.007913750,0.142690822,1,-0.005181649,0.001144371,0.000125390,1,-0.528197050,-0.096846968,9.791935921,1,0
1779390687360,414705.360000000,0.047759123,0.011396742,-0.991534173,0.000486883,0.000116515,-0.009897000,-0.059809558,0.014101617,0.068299897,1,-0.011480936,-0.001647763,0.000237686,1,-0.528115332,-0.098019697,9.791929245,1,0
1779390687370,414705.370000000,0.047342762,0.012585367,-1.003461599,0.000479401,0.000127891,-0.010026515,-0.063640945,0.024928205,-0.048662730,1,-0.004808978,-0.002889137,-0.000756574,1,-0.527824581,-0.098643258,9.791937828,1,0
1779390687390,414705.390000000,0.056580573,0.006501189,-0.998558402,0.000572703,0.000063190,-0.010003781,0.027178265,-0.033959471,-0.000558362,1,0.004916246,0.001130893,-0.000302204,1,-0.527722836,-0.097561635,9.791954994,1,0
1779390687400,414705.400000000,0.055575080,0.010232456,-0.987867713,0.000559245,0.000091694,-0.009890425,0.017033618,0.002636325,0.104265682,1,-0.005045721,0.003556609,0.000202922,1,-0.528082669,-0.097866721,9.791932106,1,0
1779390687420,414705.420000000,0.052811723,0.014085476,-0.995094299,0.000522773,0.000144206,-0.009934304,-0.010406852,0.038863696,0.033364072,1,-0.002519088,-0.001064490,0.000254505,1,-0.528279901,-0.099345736,9.791906357,1,0
1779390687430,414705.430000000,0.055924520,0.008891465,-0.997854233,0.000551541,0.000094612,-0.009984650,0.020222429,-0.011816325,0.006306442,1,0.005575527,-0.001236314,0.000013918,1,-0.528171241,-0.098838009,9.791917801,1,0
1779390687450,414705.450000000,0.052499779,0.009606157,-0.989860475,0.000523452,0.000089150,-0.009892891,-0.013339689,-0.004123376,0.084705546,1,-0.004307156,0.001272675,-0.000101658,1,-0.528226316,-0.098462030,9.791918755,1,0
1779390687460,414705.460000000,0.049835827,0.012968266,-0.995190382,0.000491898,0.000124575,-0.009939753,-0.039591059,0.028041845,0.032422286,1,-0.009900638,0.001008795,-0.000233102,1,-0.528344989,-0.099442400,9.791902542,1,0
1779390687480,414705.480000000,0.055402860,0.007824059,-1.004146695,0.000539679,0.000086985,-0.010055053,0.015270929,-0.022892393,-0.055399347,1,0.006243615,-0.000143757,0.000053983,1,-0.528041065,-0.099425502,9.791918755,1,0
1779390687490,414705.490000000,0.057638120,0.007968361,-0.992535293,0.000580178,0.000073454,-0.009947695,0.037112806,-0.020778788,0.058472130,1,0.005657725,0.002141346,-0.000793804,1,-0.528190613,-0.098746710,9.791917801,1,0
1779390687510,414705.510000000,0.053039823,0.012734285,-0.986241341,0.000539451,0.000131633,-0.009845152,-0.008546747,0.025425015,0.120159283,1,-0.008804502,0.000147343,0.000524133,1,-0.528694510,-0.099729203,9.791880608,1,0
1779390687520,414705.520000000,0.052772891,0.011281065,-0.998723328,0.000529350,0.000119275,-0.009973043,-0.011038430,0.010577992,-0.002246928,1,-0.001982416,-0.002386117,0.000284160,1,-0.528492272,-0.100113399,9.791887283,1,0
1779390687530,414705.530000000,0.053840861,0.007007218,-1.003908038,0.000541991,0.000082113,-0.010045573,-0.000299087,-0.030959114,-0.053073719,1,0.007143133,-0.003313944,-0.000080937,1,-0.528194487,-0.099453993,9.791910172,1,0
1779390687550,414705.550000000,0.051813051,0.009371086,-0.990887225,0.000522268,0.000087054,-0.009914461,-0.020078003,-0.007003779,0.074631222,1,-0.004679154,0.000970936,0.000105553,1,-0.528220773,-0.099048413,9.791913033,1,0
1779390687570,414705.570000000,0.054239962,0.012853366,-1.000290036,0.000537460,0.000136109,-0.009994442,0.003622518,0.025538076,-0.017600074,1,-0.003100004,-0.001066802,0.000559409,1,-0.528256774,-0.100606076,9.791894913,1,0
1779390687580,414705.580000000,0.058516383,0.007617259,-0.999418437,0.000573147,0.000082050,-0.009998722,0.045624353,-0.025605528,-0.009047125,1,0.005467970,-0.001064451,0.000031739,1,-0.528192222,-0.100134842,9.791903496,1,0
1779390687590,414705.590000000,0.058079235,0.006493341,-0.993220150,0.000587086,0.000059656,-0.009937373,0.041424964,-0.035920572,0.051748402,1,0.006200069,-0.000052767,-0.000489652,1,-0.528136015,-0.099406078,9.791913986,1,0
1779390687610,414705.610000000,0.051265042,0.013683705,-0.990015149,0.000510456,0.000130484,-0.009885971,-0.025747821,0.034042340,0.083153963,1,-0.008046483,0.001284705,0.000254994,1,-0.528526306,-0.100399345,9.791882515,1,0
1779390687620,414705.620000000,0.051217619,0.012758693,-1.000892878,0.000501987,0.000130193,-0.009989155,-0.026102282,0.024415905,-0.023519272,1,-0.001818663,-0.001727634,0.000483815,1,-0.528321862,-0.100760005,9.791890144,1,0
1779390687640,414705.640000000,0.053322278,0.007987774,-0.995978057,0.000533344,0.000075790,-0.009968896,-0.005236197,-0.021435723,0.024700029,1,0.004981896,0.001607011,0.000056818,1,-0.528199255,-0.099613659,9.791908264,1,0
1779390687650,414705.650000000,0.051608030,0.011035202,-0.989644349,0.000510577,0.000104327,-0.009901516,-0.022285355,0.008425522,0.086798899,1,-0.005429469,0.003980618,0.000414690,1,-0.528511524,-0.099961378,9.791888237,1,0
1779390687660,414705.660000000,0.051350202,0.014519081,-0.992173493,0.000513291,0.000138840,-0.009915113,-0.025055474,0.041780148,0.061976269,1,-0.009115800,0.001474183,0.000222508,1,-0.528675020,-0.100887164,9.791869164,1,0
1779390687680,414705.680000000,0.052914791,0.007479572,-1.002000690,0.000503090,0.000091948,-0.010023266,-0.009241584,-0.026890257,-0.034366094,1,0.011223900,0.000477472,0.000282180,1,-0.528173447,-0.099889494,9.791906357,1,0
1779390687690,414705.690000000,0.058068313,0.007201174,-0.992382109,0.000585146,0.000066317,-0.009934708,0.041013017,-0.028718531,0.059953436,1,0.005243831,0.003059152,-0.000479031,1,-0.528537810,-0.099175297,9.791893959,1,0
1779390687710,414705.710000000,0.049258955,0.012662056,-0.992710114,0.000485187,0.000131014,-0.009924002,-0.046024013,0.023763746,0.056690812,1,-0.010803255,0.004187776,0.001049703,1,-0.529220223,-0.100743562,9.791841507,1,0
1779390687720,414705.720000000,0.051439442,0.011401614,-0.998875439,0.000522611,0.000113909,-0.009979267,-0.024781344,0.010682521,-0.003785257,1,-0.003607996,-0.000726304,0.000299385,1,-0.529203117,-0.101240911,9.791837692,1,0
1779390687740,414705.740000000,0.053416006,0.006962844,-0.996640980,0.000531835,0.000068423,-0.009973403,-0.005405298,-0.032001242,0.018135577,1,0.004102299,0.003125719,-0.000319393,1,-0.529334724,-0.100156091,9.791841507,1,0
1779390687750,414705.750000000,0.053779602,0.010796528,-0.990852952,0.000539005,0.000099399,-0.009914232,-0.002284840,0.005354572,0.074870154,1,-0.007207926,0.004650061,0.000146072,1,-0.529827595,-0.100747615,9.791809082,1,0
1779390687770,414705.770000000,0.058691945,0.012653479,-0.999314249,0.000571209,0.000128671,-0.009985778,0.045007136,0.021548279,-0.008175691,1,-0.006505838,0.003215676,0.000789357,1,-0.530664742,-0.102741420,9.791742325,1,0
1779390687780,414705.780000000,0.063499190,0.009572780,-0.995311499,0.000623675,0.000099853,-0.009963506,0.091899812,-0.008794556,0.031063221,1,0.003476203,0.002554684,0.000698259,1,-0.530894399,-0.102561936,9.791731834,1,0
1779390687800,414705.800000000,0.054178849,0.011555471,-0.983628392,0.000546323,0.000116838,-0.009826479,0.000236542,0.011135357,0.145625964,1,-0.004035597,0.001222649,-0.000067470,1,-0.531114638,-0.102310993,9.791722298,1,0
1779390687810,414705.810000000,0.052117426,0.012110220,-0.990036666,0.000516422,0.000112975,-0.009888791,-0.019929232,0.015937705,0.082778029,1,-0.006584502,-0.001827813,-0.000059630,1,-0.530969620,-0.103028320,9.791723251,1,0
1779390687820,414705.820000000,0.048386514,0.009053246,-1.003662825,0.000490931,0.000092594,-0.010021152,-0.056066934,-0.014506325,-0.050829478,1,-0.003083229,-0.005295128,-0.000640195,1,-0.530411363,-0.103385530,9.791749954,1,0
1779390687840,414705.840000000,0.057026718,0.009865962,-0.997695565,0.000583715,0.000082533,-0.009996902,0.028902831,-0.006410872,0.007703990,1,-0.001815806,0.001377790,-0.001464577,1,-0.530380726,-0.103221983,9.791752815,1,0
1779390687870,414705.870000000,0.054683041,0.013410868,-0.996448159,0.000553140,0.000140892,-0.009964758,0.005415516,0.026225109,0.019887056,1,0.000625616,-0.003037700,-0.000350497,1,-0.530747175,-0.105271682,9.791710854,1,0
1779390687880,414705.880000000,0.055676047,0.009142715,-0.997513473,0.000560452,0.000096325,-0.009986333,0.015472408,-0.015028720,0.009463586,1,0.009349400,-0.002714397,-0.001003285,1,-0.530438185,-0.104398429,9.791737556,1,0
1779390687900,414705.900000000,0.050726358,0.010036778,-0.985666215,0.000508424,0.000100162,-0.009850650,-0.032884352,-0.005219588,0.125666291,1,-0.004009282,-0.000480657,-0.000192732,1,-0.530324996,-0.103772044,9.791749954,1,0
1779390687910,414705.910000000,0.046538617,0.011828461,-0.996503353,0.000469558,0.000113334,-0.009946984,-0.073766261,0.011609464,0.019392751,1,-0.008700793,-0.003279426,-0.000597847,1,-0.530051827,-0.104660317,9.791755676,1,0
1779390687930,414705.930000000,0.055830229,0.006676565,-1.006125808,0.000549561,0.000074165,-0.010063548,0.017869409,-0.038722899,-0.074942231,1,0.008914204,-0.001851089,0.000119346,1,-0.529580832,-0.103919715,9.791789055,1,0
1779390687940,414705.940000000,0.055050466,0.008808110,-0.992652297,0.000540807,0.000081537,-0.009951146,0.010250828,-0.017016001,0.057198748,1,0.006313112,0.002818954,-0.000109656,1,-0.529697657,-0.103197485,9.791790009,1,0
1779390687950,414705.950000000,0.055561166,0.012109241,-0.982347488,0.000556301,0.000109307,-0.009826914,0.014981544,0.015607137,0.158241630,1,-0.001392434,0.002533783,0.001254063,1,-0.529966772,-0.103185251,9.791775703,1,0
1779390687970,414705.970000000,0.056060635,0.010233576,-0.993038893,0.000549589,0.000109988,-0.009924415,0.020058203,-0.002470172,0.053407930,1,0.008699959,-0.003611579,0.000984469,1,-0.529596627,-0.102554463,9.791802406,1,0
1779390687980,414705.980000000,0.056109123,0.005781538,-0.995877802,0.000558351,0.000058323,-0.009962934,0.021020913,-0.044858970,0.025606962,1,0.015183417,-0.004286449,0.000565799,1,-0.529088199,-0.101082303,9.791845322,1,0
1779390688000,414706.000000000,0.053807046,0.010743408,-0.989784181,0.000552650,0.000092019,-0.009895987,-0.001186468,0.005406502,0.085401870,1,-0.003283316,-0.001568953,-0.000186118,1,-0.528804421,-0.100053005,9.791871071,1,0
1779390688010,414706.010000000,0.049829848,0.012310481,-0.995479167,0.000506922,0.000125044,-0.009946796,-0.039999675,0.020243078,0.029557630,1,-0.005141601,-0.002563379,0.000056392,1,-0.528583705,-0.100641668,9.791876793,1,0
1779390688030,414706.030000000,0.057031825,0.008320755,-0.998753786,0.000568494,0.000090387,-0.010002989,0.031472523,-0.018103344,-0.002501493,1,0.013216993,-0.005656694,-0.000369555,1,-0.527642250,-0.099290743,9.791941643,1,0
1779390688040,414706.040000000,0.054275174,0.006090289,-0.992592871,0.000557509,0.000069038,-0.009932618,0.004827595,-0.038613122,0.057951026,1,0.010749168,-0.002370559,0.000041629,1,-0.527356207,-0.098003358,9.791970253,1,0
1779390688060,414706.060000000,0.049336646,0.010125341,-0.998373568,0.000494423,0.000099813,-0.009965083,-0.043715470,0.000663473,0.001252703,1,-0.007698621,0.001069198,-0.000381764,1,-0.527575910,-0.098872796,9.791949272,1,0
1779390688070,414706.070000000,0.051999446,0.010209945,-1.007331967,0.000511304,0.000106592,-0.010063451,-0.017556241,0.001041681,-0.086599834,1,-0.000860878,-0.001915912,-0.000441396,1,-0.527436793,-0.099111259,9.791954041,1,0
1779390688090,414706.090000000,0.055723339,0.012672094,-0.988678336,0.000552651,0.000126837,-0.009899448,0.019074781,0.026063493,0.096343108,1,0.004976696,0.001203448,-0.000490509,1,-0.527421892,-0.098053008,9.791965485,1,0
1779390688100,414706.100000000,0.056307532,0.014936741,-0.983510137,0.000559975,0.000144050,-0.009824079,0.024732037,0.048368290,0.147023246,1,-0.001125911,-0.001049478,0.000177943,1,-0.527423561,-0.098145887,9.791964531,1,0
1779390688110,414706.110000000,0.052975036,0.014185504,-0.993498266,0.000529009,0.000142658,-0.009914878,-0.007680682,0.040901516,0.049086694,1,0.000210590,-0.003507461,0.000081993,1,-0.527079046,-0.098204076,9.791982651,1,0
1779390688130,414706.130000000,0.053858586,0.004974496,-1.006007195,0.000529985,0.000047081,-0.010061199,0.001593893,-0.048230335,-0.073539272,1,0.007268737,-0.000495787,-0.000496853,1,-0.526562691,-0.096787691,9.792024612,1,0
1779390688140,414706.140000000,0.052297555,0.006044707,-1.001436234,0.000521290,0.000049370,-0.010023101,-0.013855527,-0.037515629,-0.028718548,1,-0.004058470,0.004572103,-0.000851503,1,-0.526861608,-0.096921876,9.792007446,1,0
1779390688160,414706.160000000,0.054681223,0.017651973,-0.993626416,0.000539585,0.000171154,-0.009936528,0.008282863,0.073419496,0.047773566,1,-0.015997693,0.004736553,0.000939379,1,-0.528104722,-0.100184299,9.791907310,1,0
1779390688170,414706.170000000,0.056907225,0.016642421,-0.995517492,0.000564020,0.000174021,-0.009953598,0.029920623,0.062743537,0.029209763,1,0.000083495,0.000672530,0.000705116,1,-0.528169870,-0.100459084,9.791901588,1,0
1779390688190,414706.190000000,0.054152526,0.008353907,-0.984210432,0.000556882,0.000087586,-0.009844229,0.003138407,-0.016316494,0.140129402,1,0.011313181,-0.002559226,0.000678133,1,-0.527836919,-0.097886585,9.791945457,1,0
1779390688200,414706.200000000,0.050412335,0.008026015,-0.988251865,0.000508608,0.000080693,-0.009869800,-0.033372335,-0.019143339,0.100509420,1,-0.002392821,-0.001046318,0.000972469,1,-0.527716160,-0.097924620,9.791951180,1,0
1779390688220,414706.220000000,0.054112002,0.007596948,-1.008851290,0.000538474,0.000076548,-0.010086241,0.003088549,-0.024453042,-0.101502985,1,-0.003401185,0.000074339,-0.000233688,1,-0.527571201,-0.099060051,9.791947365,1,0
1779390688230,414706.230000000,0.057550240,0.009238800,-0.999379098,0.000575673,0.000088253,-0.010017746,0.036642954,-0.008414205,-0.008622882,1,0.000815396,0.002929330,-0.000745933,1,-0.527823210,-0.098991737,9.791934967,1,0
1779390688240,414706.240000000,0.059023682,0.012676414,-0.986071646,0.000588752,0.000117127,-0.009872471,0.050674327,0.025194451,0.121855609,1,-0.003150355,0.003442327,-0.001157451,1,-0.528257191,-0.099218853,9.791909218,1,0
1779390688260,414706.260000000,0.051702708,0.013955209,-0.990443468,0.000504394,0.000154722,-0.009885929,-0.021167940,0.036913544,0.078971893,1,0.000426584,-0.002806664,0.000507944,1,-0.528111041,-0.099926174,9.791910172,1,0
1779390688270,414706.270000000,0.049718790,0.008799585,-0.998221040,0.000495995,0.000087104,-0.009971717,-0.040239085,-0.013262821,0.002724232,1,0.007450386,-0.004274479,-0.000078725,1,-0.527680635,-0.099325188,9.791938782,1,0
1779390688290,414706.290000000,0.051512476,0.007243374,-0.995034814,0.000500639,0.000067985,-0.009945772,-0.022338487,-0.027447738,0.033998843,1,-0.005041342,0.002840943,-0.000719742,1,-0.527591646,-0.098639324,9.791951180,1,0
1779390688300,414706.300000000,0.055591095,0.013159376,-0.995479643,0.000551225,0.000117605,-0.009948571,0.017349316,0.029490344,0.029608246,1,-0.013352053,0.003349283,-0.000235396,1,-0.527917445,-0.099975608,9.791919708,1,0
1779390688320,414706.320000000,0.057742883,0.010455531,-1.000795841,0.000561644,0.000109260,-0.010012038,0.038051065,0.001571607,-0.022560908,1,0.003305941,0.001978837,-0.000387593,1,-0.528273940,-0.100863613,9.791891098,1,0
1779390688330,414706.330000000,0.055587430,0.008712445,-0.991134703,0.000572085,0.000085218,-0.009934897,0.016889215,-0.014777809,0.072187871,1,0.009354913,-0.000278648,-0.000716278,1,-0.528228343,-0.099927589,9.791903496,1,0
1779390688350,414706.350000000,0.048783474,0.008921839,-0.988865376,0.000487020,0.000094896,-0.009866260,-0.049786154,-0.012376749,0.094448984,1,-0.006378062,-0.001060977,-0.000419606,1,-0.528155446,-0.100069605,9.791906357,1,0
1779390688360,414706.360000000,0.049520254,0.008906531,-1.003232837,0.000498800,0.000089863,-0.010015605,-0.042330731,-0.013185518,-0.046441667,1,-0.005354375,-0.002582050,-0.000154616,1,-0.527878046,-0.100695901,9.791914940,1,0
1779390688380,414706.380000000,0.058721479,0.008147201,-0.999222040,0.000589471,0.000084251,-0.010010383,0.047919549,-0.020661855,-0.007109611,1,0.002874377,0.001563129,-0.000955813,1,-0.527989924,-0.100470617,9.791911125,1,0
1779390688390,414706.390000000,0.056942455,0.010750470,-0.990256250,0.000580840,0.000102621,-0.009915112,0.030278180,0.004958488,0.080805853,1,-0.000925360,0.001575952,-0.000730325,1,-0.528185487,-0.100497685,9.791899681,1,0
1779390688400,414706.400000000,0.054890171,0.012465227,-0.987618685,0.000556229,0.000130180,-0.009872818,0.009966757,0.021604210,0.106659472,1,-0.001083437,0.001590664,0.000939231,1,-0.528371871,-0.100670114,9.791888237,1,0
1779390688420,414706.420000000,0.052083015,0.005577738,-0.995018363,0.000522397,0.000056897,-0.009942256,-0.017293030,-0.045165066,0.034116104,1,0.007930358,-0.003833505,-0.001126743,1,-0.527933121,-0.099618718,9.791922569,1,0
1779390688430,414706.430000000,0.050839808,0.004858386,-0.994264066,0.000506199,0.000044864,-0.009944649,-0.029294537,-0.051621523,0.041529775,1,0.002815557,-0.000725615,-0.000684020,1,-0.527839899,-0.099179409,9.791932106,1,0
1779390688450,414706.450000000,0.051005427,0.012818838,-1.000903368,0.000505678,0.000117492,-0.009995320,-0.027892934,0.024631083,-0.023610326,1,-0.015323387,0.001206035,0.000317523,1,-0.528123021,-0.101555862,9.791892052,1,0
1779390688460,414706.460000000,0.054635946,0.014805705,-1.005634069,0.000529457,0.000146046,-0.010051208,0.007610521,0.042931069,-0.070020027,1,-0.007567045,0.001631055,0.000139527,1,-0.528235972,-0.102498934,9.791876793,1,0
1779390688480,414706.480000000,0.057809439,0.011917822,-0.987084627,0.000573971,0.000122715,-0.009891652,0.038476847,0.015358094,0.111881703,1,0.008841769,0.003136203,-0.000675153,1,-0.528537631,-0.101241365,9.791872978,1,0
1779390688490,414706.490000000,0.054489315,0.009848303,-0.980121672,0.000546293,0.000097489,-0.009798503,0.005776488,-0.004411025,0.180162907,1,0.002481787,0.000513966,0.000012400,1,-0.528597236,-0.100912519,9.791873932,1,0
1779390688510,414706.510000000,0.046612691,0.008719859,-1.003834009,0.000469293,0.000089773,-0.010028833,-0.071105458,-0.016177988,-0.052363239,1,-0.004646477,-0.001312552,0.000125901,1,-0.528178990,-0.101835206,9.791886330,1,0
1779390688520,414706.520000000,0.049804278,0.007363998,-1.005462289,0.000497784,0.000074853,-0.010066018,-0.039799064,-0.029735133,-0.068334356,1,-0.002657581,0.000895404,-0.001593202,1,-0.528240204,-0.102032445,9.791881561,1,0
1779390688530,414706.530000000,0.052300476,0.008802320,-1.000297546,0.000522554,0.000087928,-0.010011243,-0.015438886,-0.015900966,-0.017693814,1,-0.004638507,0.001497774,-0.000981545,1,-0.528377771,-0.102368183,9.791870117,1,0
1779390688550,414706.550000000,0.057781793,0.023800742,-0.987293303,0.000574827,0.000237996,-0.009879183,0.037728656,0.129492775,0.109784618,1,-0.005667736,0.003321845,0.000042136,1,-0.529020786,-0.104089364,9.791817665,1,0
1779390688560,414706.560000000,0.060348313,0.018304465,-0.982854486,0.000596428,0.000203894,-0.009817799,0.062833108,0.075796261,0.153312996,1,0.009384599,-0.003134496,0.001086886,1,-0.528884411,-0.103414908,9.791831970,1,0
1779390688580,414706.580000000,0.051009540,0.000894398,-0.989069164,0.000515183,0.000016572,-0.009887205,-0.027486604,-0.090607867,0.092480585,1,0.021874795,-0.003821312,-0.000385469,1,-0.527600110,-0.098697752,9.791950226,1,0
1779390688590,414706.590000000,0.045245651,0.003175346,-0.992949724,0.000459592,0.000019382,-0.009916534,-0.083830856,-0.067291051,0.054444332,1,-0.000673666,-0.001338763,-0.001594614,1,-0.527496934,-0.098454230,9.791957855,1,0
1779390688610,414706.610000000,0.050525390,0.009471259,-1.016952395,0.000486000,0.000083885,-0.010159494,-0.031954266,-0.007693391,-0.180957496,1,-0.012582873,0.000435036,-0.000570852,1,-0.527452528,-0.100967877,9.791934967,1,0
1779390688620,414706.620000000,0.061591879,0.011218494,-1.009833217,0.000600224,0.000102144,-0.010128086,0.076290019,0.008598174,-0.111166477,1,-0.004976348,0.005391440,-0.000391349,1,-0.527887940,-0.101573445,9.791904449,1,0
1779390688640,414706.640000000,0.061754931,0.018246982,-0.973873854,0.000618247,0.000177333,-0.009737445,0.076895908,0.077046618,0.241416126,1,-0.001416368,0.001345485,0.000796525,1,-0.528755307,-0.101937957,9.791853905,1,0
1779390688650,414706.650000000,0.055144697,0.015246736,-0.982059896,0.000561106,0.000158559,-0.009798144,0.012269488,0.047815695,0.161151320,1,0.005966044,-0.003946356,0.001043269,1,-0.528392673,-0.101516016,9.791878700,1,0
1779390688670,414706.670000000,0.048962612,0.001276751,-1.006170392,0.000491139,0.000010477,-0.010058274,-0.047051698,-0.086759441,-0.075196937,1,0.009331935,-0.005399654,-0.000807390,1,-0.527042389,-0.098990582,9.791976929,1,0
1779390688680,414706.680000000,0.048787765,0.002838448,-1.006450891,0.000490129,0.000022517,-0.010076513,-0.048594393,-0.071317405,-0.077936545,1,-0.006957272,0.001404701,-0.001339160,1,-0.527082324,-0.099372171,9.791971207,1,0
1779390688690,414706.690000000,0.049832787,0.010053960,-1.002016306,0.000503840,0.000090898,-0.010023993,-0.038759928,-0.002080264,-0.034487486,1,-0.021321798,0.004700126,-0.000448818,1,-0.527599037,-0.101341255,9.791922569,1,0
1779390688710,414706.710000000,0.056206144,0.015161180,-1.003533602,0.000562727,0.000163260,-0.010038891,0.023420691,0.045400813,-0.049410313,1,0.003332216,-0.000410668,0.000731309,1,-0.527760804,-0.103174500,9.791894913,1,0
1779390688720,414706.720000000,0.060157284,0.010092073,-0.993848383,0.000602951,0.000113998,-0.009965794,0.062209208,-0.003342290,0.045581333,1,0.014128809,0.000116525,0.000461026,1,-0.527733624,-0.101873010,9.791910172,1,0
1779390688740,414706.740000000,0.052793242,0.008353134,-0.978211045,0.000542028,0.000079193,-0.009768387,-0.010343247,-0.019281551,0.198925033,1,-0.008458452,0.001274046,0.000327724,1,-0.528107941,-0.101460919,9.791893959,1,0
1779390688750,414706.750000000,0.049977884,0.011217321,-0.989452422,0.000497415,0.000106709,-0.009874113,-0.038042329,0.007476998,0.088665783,1,-0.015072001,-0.000665520,-0.000076714,1,-0.528137207,-0.102997251,9.791876793,1,0
1779390688770,414706.770000000,0.053351410,0.011578994,-1.005209327,0.000527745,0.000117805,-0.010063767,-0.004593562,0.009513514,-0.065851919,1,0.001605684,-0.001325968,-0.000351124,1,-0.527750731,-0.103988178,9.791887283,1,0
1779390688780,414706.780000000,0.056323905,0.011881839,-0.994369030,0.000558889,0.000111821,-0.009955137,0.024573898,0.012765485,0.040458679,1,0.002153316,-0.000025029,-0.000436318,1,-0.527774036,-0.103689171,9.791889191,1,0
1779390688800,414706.800000000,0.052884366,0.012513407,-0.990505755,0.000521684,0.000124449,-0.009895923,-0.008998594,0.018843403,0.078351766,1,-0.001191677,-0.001267243,0.000801570,1,-0.527577877,-0.103906997,9.791896820,1,0
1779390688810,414706.810000000,0.054041017,0.010277532,-0.994515717,0.000533579,0.000104405,-0.009943974,0.002557917,-0.003000701,0.039040133,1,0.003135001,-0.003095323,0.000638179,1,-0.527307212,-0.103690088,9.791913986,1,0
1779390688820,414706.820000000,0.052982111,0.006000769,-0.994971752,0.000526383,0.000072197,-0.009951612,-0.007599371,-0.044501793,0.034584507,1,0.004339088,-0.000839814,0.000058909,1,-0.527150214,-0.103213906,9.791927338,1,0
1779390688840,414706.840000000,0.046888925,0.012520847,-0.989831984,0.000475203,0.000121023,-0.009901947,-0.067532979,0.019419279,0.084978268,1,-0.006173769,0.002263086,-0.000065543,1,-0.527426779,-0.103560835,9.791909218,1,0
1779390688850,414706.850000000,0.048493657,0.012939215,-1.003583193,0.000494296,0.000133460,-0.010010783,-0.051783025,0.022703487,-0.049882896,1,-0.009834747,-0.001975852,-0.000004529,1,-0.527281761,-0.104493417,9.791906357,1,0
1779390688870,414706.870000000,0.055543695,0.008264744,-1.003820419,0.000560734,0.000092270,-0.010057924,0.017532747,-0.022516968,-0.052192308,1,0.010150420,-0.000173357,-0.000887781,1,-0.527159154,-0.103251539,9.791926384,1,0
1779390688880,414706.880000000,0.054318890,0.010906402,-0.989574373,0.000552201,0.000107034,-0.009929268,0.005379683,0.004211172,0.087513641,1,0.006587376,0.002672025,-0.000641391,1,-0.527389765,-0.102539860,9.791921616,1,0
1779390688900,414706.900000000,0.057678092,0.010132772,-0.988598526,0.000577854,0.000105087,-0.009862159,0.038052298,-0.003492143,0.097067423,1,-0.005094579,-0.004309835,0.000278614,1,-0.527442396,-0.103019021,9.791913986,1,0
1779390688910,414706.910000000,0.055553421,0.007389536,-1.003489971,0.000564543,0.000079959,-0.010028214,0.017598148,-0.030549232,-0.048947878,1,0.001304684,-0.002956381,-0.000952641,1,-0.527102411,-0.102976762,9.791932106,1,0
1779390688930,414706.930000000,0.052214053,0.011480510,-0.994608283,0.000524284,0.000105927,-0.009941185,-0.015365027,0.009758692,0.038141921,1,-0.004626069,0.000537936,-0.001464409,1,-0.527426541,-0.102973409,9.791914940,1,0
1779390688940,414706.940000000,0.050174300,0.013359209,-0.997820020,0.000500207,0.000127361,-0.009965925,-0.035421189,0.027413461,0.006634737,1,-0.009403362,0.000423611,0.000333858,1,-0.527476311,-0.103888161,9.791902542,1,0
1779390688960,414706.960000000,0.056567263,0.012164822,-1.001572490,0.000548358,0.000127098,-0.010017460,0.027410470,0.015002431,-0.030165046,1,0.005016360,-0.001320677,0.000695631,1,-0.527284026,-0.104136206,9.791910172,1,0
1779390688970,414706.970000000,0.061273780,0.008197140,-0.993844450,0.000604791,0.000082973,-0.009952393,0.073645726,-0.023118019,0.045634113,1,0.009623921,0.000136212,0.000536182,1,-0.527249277,-0.103203647,9.791922569,1,0
1779390688980,414706.980000000,0.061242335,0.008228449,-0.985661268,0.000605625,0.000075044,-0.009866643,0.073150136,-0.022148892,0.125880748,1,0.002976994,0.003534005,-0.000607527,1,-0.527541935,-0.102750652,9.791911125,1,0
1779390689000,414707.000000000,0.053066216,0.013286990,-0.991228878,0.000534809,0.000131547,-0.009904020,-0.007462572,0.026413538,0.071246654,1,-0.006623505,0.000076389,0.000045645,1,-0.527866781,-0.104093708,9.791879654,1,0
1779390689010,414707.010000000,0.053790193,0.012442099,-1.000936627,0.000539667,0.000129400,-0.009999020,-0.000155601,0.017826840,-0.023946363,1,0.000014718,-0.003280182,-0.000856649,1,-0.527554691,-0.104189463,9.791894913,1,0
1779390689030,414707.030000000,0.047027238,0.011088460,-0.989491165,0.000483193,0.000109687,-0.009913873,-0.065944731,0.005574460,0.088335268,1,0.005696861,-0.000863196,0.000150059,1,-0.527097583,-0.102988370,9.791933060,1,0
1779390689040,414707.040000000,0.048958242,0.011166886,-0.990288496,0.000487204,0.000119753,-0.009888235,-0.046919286,0.006641812,0.080524221,1,0.001152838,-0.002360245,0.000460198,1,-0.526962280,-0.102831230,9.791941643,1,0
1779390689060,414707.060000000,0.053437728,0.004852314,-1.007320285,0.000524515,0.000051820,-0.010075331,-0.002181531,-0.054812662,-0.086452283,1,0.005530060,-0.001478674,-0.000755956,1,-0.526180327,-0.102226518,9.791990280,1,0
1779390689070,414707.070000000,0.056943279,0.007311870,-0.998296618,0.000575012,0.000069896,-0.010002455,0.032105867,-0.030366896,0.002037953,1,0.000082050,0.002479953,-0.001308328,1,-0.526393831,-0.102071486,9.791979790,1,0
1779390689090,414707.090000000,0.052958671,0.013875301,-0.983918488,0.000551602,0.000130624,-0.009823641,-0.007880235,0.032574248,0.142975941,1,-0.011482844,0.000411814,0.000396579,1,-0.527240396,-0.103853226,9.791915894,1,0
1779390689100,414707.100000000,0.048773255,0.014531985,-0.992910385,0.000478274,0.000152420,-0.009915231,-0.048838951,0.038342547,0.054793086,1,-0.001563010,-0.001998027,0.000701269,1,-0.527079165,-0.104215093,9.791920662,1,0
1779390689110,414707.110000000,0.048922051,0.007097982,-0.999884546,0.000491831,0.000074317,-0.009995879,-0.047028597,-0.034167472,-0.013577119,1,0.008116999,-0.004339411,0.000016863,1,-0.526654780,-0.103521876,9.791951180,1,0
1779390689130,414707.130000000,0.049517762,0.007854916,-0.996600211,0.000485481,0.000072189,-0.009970130,-0.040852863,-0.025494680,0.018662388,1,-0.003433177,0.002602882,-0.000206244,1,-0.526537359,-0.102632605,9.791966438,1,0
1779390689140,414707.140000000,0.051572744,0.012487246,-0.995149493,0.000507191,0.000111088,-0.009949500,-0.021014959,0.018992631,0.032862175,1,-0.012501140,0.003465402,-0.000449209,1,-0.526878774,-0.103855833,9.791934967,1,0
1779390689160,414707.160000000,0.062905826,0.013549871,-1.001763821,0.000620181,0.000144427,-0.010026174,0.089720838,0.028237058,-0.032037176,1,0.005035643,0.002569559,0.000093350,1,-0.527254760,-0.104484685,9.791908264,1,0
1779390689170,414707.170000000,0.062075961,0.010847959,-0.990210831,0.000628808,0.000111872,-0.009923936,0.081334449,0.002692423,0.081255883,1,0.012734604,0.003297951,-0.000446312,1,-0.527525485,-0.103293546,9.791906357,1,0
1779390689190,414707.190000000,0.049507998,0.013024202,-0.988864541,0.000490987,0.000100549,-0.009859539,-0.041493505,0.026236104,0.094504088,1,0.004394741,-0.013613169,0.000011167,1,-0.526576877,-0.101350687,9.791977882,1,0
1779390689200,414707.200000000,0.046784732,0.006016106,-1.008772373,0.000426730,0.000084058,-0.010028282,-0.067533858,-0.042183898,-0.100686550,1,0.002067878,-0.005568156,-0.000460682,1,-0.526161671,-0.101118065,9.792002678,1,0
1779390689220,414707.220000000,0.056600623,0.010941588,-1.012216687,0.000532415,0.000070064,-0.010095179,0.029658595,0.007305519,-0.134401068,1,0.003328659,-0.004455788,-0.001286731,1,-0.525264621,-0.099893212,9.792063713,1,0
1779390689230,414707.230000000,0.059223551,0.011490360,-1.002474546,0.000546892,0.000128166,-0.010025729,0.055245370,0.012694516,-0.038869955,1,-0.002344061,0.007079876,-0.000567761,1,-0.525759816,-0.100061446,9.792035103,1,0
1779390689250,414707.250000000,0.058924548,0.015717432,-0.989588857,0.000596033,0.000147468,-0.009864430,0.052055046,0.054736465,0.087487176,1,0.009014091,-0.007077257,-0.000150455,1,-0.525576770,-0.099118203,9.792054176,1,0
1779390689260,414707.260000000,0.059698530,0.006805466,-0.994875908,0.000581825,0.000098343,-0.009937515,0.060318258,-0.030941863,0.035692990,1,0.023590973,-0.004534371,-0.000353349,1,-0.524982989,-0.096945964,9.792107582,1,0
1779390689270,414707.270000000,0.055264510,0.005546764,-0.984046817,0.000565529,0.000050139,-0.009855582,0.017294375,-0.040937066,0.141937271,1,0.023061762,-0.004708072,-0.000954707,1,-0.524518371,-0.094615020,9.792155266,1,0
1779390689290,414707.290000000,0.046096813,0.008118269,-1.000857115,0.000445800,0.000089299,-0.009975093,-0.071617551,-0.014878448,-0.022853816,1,-0.007798961,-0.002998837,-0.000354196,1,-0.523579299,-0.094735160,9.792204857,1,0
1779390689300,414707.300000000,0.049383312,0.011968587,-1.012736082,0.000476477,0.000101349,-0.010112282,-0.039003789,0.022001056,-0.139334485,1,-0.007433970,-0.004346210,-0.000075717,1,-0.523153186,-0.095602520,9.792219162,1,0
1779390689320,414707.320000000,0.063026570,0.013073431,-0.999738872,0.000622660,0.000090726,-0.010054288,0.095390208,0.033811226,-0.011834666,1,0.010293907,-0.001155414,-0.000978270,1,-0.522650599,-0.094073519,9.792261124,1,0
1779390689330,414707.330000000,0.030809063,-0.043010134,-0.959066153,0.000448772,-0.000235316,-0.009704541,-0.220657751,-0.514720142,0.387037724,1,0.019399367,0.004524985,-0.001610388,1,-0.522931874,-0.092332646,9.792262077,1,0
1779390689350,414707.350000000,0.111880928,0.024098624,-0.967120588,0.001073278,-0.000007005,-0.009136974,0.567349672,0.133683264,0.307572275,1,-0.287977666,-0.034318853,-0.016478702,1,-0.528752685,-0.111647040,9.791749001,1,0
1779390689360,414707.360000000,0.080932342,0.087850869,-1.176117063,0.000928760,0.000770479,-0.011628555,0.272639126,0.719610214,-1.742010832,1,-0.400663674,-0.097304456,0.029432395,1,-0.518017232,-0.154351890,9.791742325,1,0
1779390689380,414707.380000000,0.040538777,0.108133972,-1.059935451,0.000649830,0.000873019,-0.010842029,-0.122202389,0.911040366,-0.602690160,1,0.198248610,-0.013587969,-0.003218308,1,-0.519327104,-0.143218011,9.791842461,1,0
1779390689390,414707.390000000,-0.041029472,0.046690952,-1.060440183,-0.000407894,0.000752525,-0.010488003,-0.919996023,0.335004807,-0.607164145,1,0.313779056,-0.003433260,-0.004900367,1,-0.517525434,-0.113104761,9.792331696,1,0
1779390689400,414707.400000000,0.012050973,-0.015191333,-0.964204252,0.000028371,-0.000021342,-0.009773977,-0.402658641,-0.238578320,0.336777300,1,0.357097119,0.062511027,-0.003415793,1,-0.522785842,-0.078477100,9.792390823,1,0
1779390689420,414707.420000000,0.100119144,-0.069050774,-0.851527154,0.000932297,-0.000660054,-0.008487752,0.447129458,-0.724170864,1.441318631,1,0.042133637,0.055416480,-0.002580890,1,-0.536430836,-0.045705132,9.791860580,1,0
1779390689430,414707.430000000,0.106606700,-0.021276768,-0.852956951,0.001115365,-0.000287899,-0.008465491,0.508460164,-0.261043429,1.427144647,1,-0.105967335,0.002290414,-0.002499511,1,-0.537065506,-0.055696681,9.791773796,1,0
1779390689450,414707.450000000,0.040018149,0.027626967,-1.029954314,0.000486509,0.000228655,-0.010117996,-0.135427117,0.186441436,-0.308336705,1,-0.192455843,-0.083533876,0.001541515,1,-0.525267899,-0.090482682,9.792154312,1,0
1779390689460,414707.460000000,0.010290591,0.057645328,-1.099192858,0.000089877,0.000557399,-0.010972157,-0.420942843,0.466631293,-0.987143695,1,-0.087884977,-0.029928215,0.000160285,1,-0.520926237,-0.101415396,9.792279243,1,0
1779390689480,414707.480000000,0.032217678,0.035032548,-1.055689096,0.000326126,0.000323528,-0.010599448,-0.205670953,0.245867059,-0.560493469,1,0.041076701,-0.004297128,0.002160226,1,-0.521485150,-0.096400969,9.792300224,1,0
1779390689490,414707.490000000,0.057545602,0.020760341,-1.015406251,0.000520661,0.000247147,-0.010237801,0.042273175,0.111713596,-0.165420935,1,0.071702406,0.013870924,0.007011160,1,-0.522490859,-0.089629203,9.792310715,1,0
1779390689510,414707.510000000,0.074915208,-0.004035787,-0.933395028,0.000772348,-0.000056725,-0.009403184,0.207217470,-0.116527289,0.638673425,1,0.055191200,0.021266349,-0.000177439,1,-0.528112590,-0.075229749,9.792130470,1,0
1779390689520,414707.520000000,0.058405340,-0.008707325,-0.921153784,0.000620042,-0.000072154,-0.009191195,0.044630047,-0.159162015,0.758707404,1,0.017659094,-0.004448961,-0.000349358,1,-0.527994037,-0.073239103,9.792152405,1,0
1779390689540,414707.540000000,0.046063408,-0.002479891,-1.001816273,0.000448337,-0.000032011,-0.009977952,-0.075179942,-0.101451844,-0.032281384,1,-0.044189356,-0.000133787,-0.001726300,1,-0.526903093,-0.078512743,9.792169571,1,0
1779390689550,414707.550000000,0.055186540,0.007936864,-1.026148558,0.000545030,0.000073565,-0.010231460,0.014633712,-0.004551412,-0.270923585,1,-0.057165794,-0.008409307,-0.000234835,1,-0.526299179,-0.084167689,9.792155266,1,0
1779390689560,414707.560000000,0.049574487,0.023842987,-1.043695569,0.000521771,0.000213862,-0.010409098,-0.039062236,0.146359995,-0.442972928,1,-0.038983848,-0.010827686,0.000378795,1,-0.524884582,-0.088674337,9.792191505,1,0
1779390689580,414707.580000000,0.058040071,0.017309824,-0.983227074,0.000607648,0.000179604,-0.009872610,0.042570986,0.082527086,0.149948299,1,0.020253358,0.004320660,0.001911062,1,-0.526742935,-0.086589821,9.792110443,1,0
1779390689590,414707.590000000,0.048530713,0.009201752,-0.971775770,0.000472920,0.000098030,-0.009695539,-0.050491564,0.005452265,0.262278855,1,0.027320575,-0.004208288,0.002351234,1,-0.526284754,-0.083930589,9.792158127,1,0
1779390689610,414707.610000000,0.053851619,-0.005285547,-0.982070923,0.000557976,-0.000064666,-0.009829713,0.001916588,-0.133702263,0.161355108,1,-0.005378857,0.005228258,-0.000532155,1,-0.526350260,-0.082037292,9.792170525,1,0
1779390689620,414707.620000000,0.048462715,-0.004509523,-0.980162919,0.000517575,-0.000006799,-0.009770897,-0.051415671,-0.127397731,0.180028498,1,-0.019815391,0.007290094,-0.001555418,1,-0.526899397,-0.083794661,9.792126656,1,0
1779390689640,414707.640000000,0.051153652,0.019130910,-1.017564654,0.000496592,0.000192675,-0.010119112,-0.025534688,0.098405614,-0.186837077,1,-0.021839336,0.002000837,-0.000771970,1,-0.527242839,-0.089886554,9.792054176,1,0
1779390689650,414707.650000000,0.049005721,0.015931258,-1.017284632,0.000469156,0.000218423,-0.010118349,-0.046432849,0.066559017,-0.184086666,1,0.009277880,-0.000429972,0.000237490,1,-0.527001500,-0.089383692,9.792071342,1,0
1779390689670,414707.670000000,0.053096402,-0.000206946,-0.990152359,0.000548980,0.000025285,-0.009937032,-0.006121389,-0.087753154,0.082036071,1,0.022873368,0.005678370,0.000768479,1,-0.526996493,-0.085009471,9.792110443,1,0
1779390689680,414707.680000000,0.052204445,0.000762891,-0.971989214,0.000538714,0.000026674,-0.009707602,-0.015307058,-0.076986492,0.260142773,1,0.003084427,0.005384556,0.000492419,1,-0.527425766,-0.084370941,9.792093277,1,0
1779390689690,414707.690000000,0.049479481,0.007499596,-0.975436687,0.000518658,0.000078532,-0.009751501,-0.042336684,-0.011793265,0.226310328,1,-0.013032247,0.004093558,0.000318935,1,-0.527692378,-0.085744850,9.792066574,1,0
1779390689700,414707.700000000,0.054362051,0.007277128,-0.992719710,0.000564858,0.000063774,-0.009934254,0.005183254,-0.015451164,0.056789145,1,-0.015197877,0.002196067,-0.000501533,1,-0.527994692,-0.087289959,9.792037010,1,0
1779390689710,414707.710000000,0.054846700,0.007900769,-1.005541801,0.000570051,0.000086859,-0.010044292,0.009772702,-0.010387711,-0.068970554,1,-0.008101747,0.001695456,-0.002244178,1,-0.528141975,-0.088124089,9.792021751,1,0
1779390689720,414707.720000000,0.053593274,0.010924811,-1.002113581,0.000539731,0.000129207,-0.010011679,-0.002749501,0.019097216,-0.035365280,1,-0.001272047,0.003729794,-0.002068280,1,-0.528438747,-0.088067189,9.792005539,1,0
1779390689740,414707.740000000,0.045684535,0.008839607,-1.007260799,0.000469596,0.000117738,-0.010040754,-0.080340266,-0.001879780,-0.085848495,1,-0.000987329,0.002317757,0.000492697,1,-0.528424919,-0.088596597,9.792001724,1,0
1779390689750,414707.750000000,0.051082373,0.006590310,-1.001737118,0.000512909,0.000101971,-0.010003472,-0.027482990,-0.023650795,-0.031682011,1,0.007059343,0.003303267,0.001398788,1,-0.528533340,-0.088057280,9.792000771,1,0
1779390689770,414707.770000000,0.061945375,0.002792729,-0.988344967,0.000630733,0.000029405,-0.009895575,0.078708239,-0.059842404,0.099642038,1,-0.001333841,0.006287905,-0.000352075,1,-0.528964281,-0.087271892,9.791984558,1,0
1779390689780,414707.780000000,0.061470415,0.011951004,-0.983392000,0.000627788,0.000118839,-0.009827940,0.073430553,0.028994644,0.148171768,1,-0.014861949,0.006305873,0.000368339,1,-0.529585004,-0.088667288,9.791938782,1,0
1779390689800,414707.800000000,0.049053639,0.013192945,-1.004696131,0.000499137,0.000128587,-0.010029093,-0.048540398,0.038876522,-0.060783308,1,-0.000949875,-0.003431702,-0.000219945,1,-0.529485285,-0.090532072,9.791927338,1,0
1779390689810,414707.810000000,0.050762746,0.009193561,-1.009220600,0.000499650,0.000112728,-0.010095702,-0.031531364,0.000113968,-0.105135120,1,0.009326096,-0.000801275,0.000176569,1,-0.529318988,-0.089753091,9.791943550,1,0
1779390689830,414707.830000000,0.051344138,0.005463726,-0.991398752,0.000513353,0.000048257,-0.009919562,-0.026160780,-0.035772968,0.069625624,1,-0.007120327,0.004092579,0.000589363,1,-0.529802561,-0.089574754,9.791918755,1,0
1779390689840,414707.840000000,0.056346413,0.009788675,-0.993458331,0.000558454,0.000098361,-0.009920412,0.022565719,0.005418614,0.049399465,1,-0.014055192,0.002745919,0.000723265,1,-0.530089676,-0.091012366,9.791890144,1,0
1779390689850,414707.850000000,0.059531346,0.012252582,-0.993961930,0.000600408,0.000125605,-0.009945050,0.053617794,0.028580388,0.044442013,1,-0.005728248,0.000861926,0.000797633,1,-0.530212402,-0.091753602,9.791875839,1,0
1779390689870,414707.870000000,0.060977120,0.009917147,-0.986425459,0.000621291,0.000115384,-0.009876537,0.067647301,0.006255912,0.118346922,1,0.005512600,0.001633717,0.000125493,1,-0.530384958,-0.090826064,9.791875839,1,0
1779390689880,414707.880000000,0.050006323,0.011728671,-0.981453598,0.000520937,0.000112790,-0.009817488,-0.039962653,0.024070829,0.167103156,1,-0.001971257,-0.000196313,0.000766661,1,-0.530351281,-0.091008298,9.791875839,1,0
1779390689900,414707.900000000,0.049908757,0.008728051,-1.002410889,0.000499220,0.000099993,-0.010013150,-0.040472262,-0.005958688,-0.038399238,1,0.001784835,-0.004509347,0.000440926,1,-0.529769599,-0.091495261,9.791902542,1,0
1779390689910,414707.910000000,0.050112806,0.005797190,-1.001683116,0.000502250,0.000056392,-0.010032496,-0.038065705,-0.034195483,-0.031235008,1,0.006862479,-0.003146129,-0.000326772,1,-0.529406309,-0.090833157,9.791928291,1,0
1779390689930,414707.930000000,0.053467702,0.012042583,-0.990420699,0.000536982,0.000112206,-0.009897444,-0.005216209,0.027213382,0.079209954,1,-0.005927485,0.001131546,-0.000229165,1,-0.529590786,-0.091069557,9.791915894,1,0
1779390689940,414707.940000000,0.052264541,0.013585907,-0.993978977,0.000511535,0.000133711,-0.009929565,-0.017128518,0.041678574,0.044303015,1,-0.005814363,0.001681224,0.000348483,1,-0.529721141,-0.091734335,9.791902542,1,0
1779390689960,414707.960000000,0.059261162,0.007924009,-0.997284710,0.000584942,0.000081119,-0.009983323,0.051636770,-0.013410307,0.011897278,1,0.008797040,-0.000210699,-0.000331313,1,-0.529510140,-0.090844668,9.791922569,1,0
1779390689970,414707.970000000,0.057731207,0.005641520,-0.988428533,0.000577237,0.000054599,-0.009898710,0.036521845,-0.034981824,0.098747991,1,0.005612571,0.002560822,-0.000540579,1,-0.529707611,-0.090132214,9.791918755,1,0
1779390689990,414707.990000000,0.046598736,0.012768051,-0.991806388,0.000466062,0.000122458,-0.009902199,-0.072762117,0.034338921,0.065610953,1,-0.004555076,-0.002112846,0.000645593,1,-0.529673994,-0.091013782,9.791912079,1,0
1779390690000,414708.000000000,0.047592390,0.012171179,-1.003497958,0.000473301,0.000129115,-0.010022984,-0.062593117,0.028379053,-0.049021758,1,0.002772842,-0.005628650,-0.000164362,1,-0.529139638,-0.090893298,9.791942596,1,0
1779390690010,414708.010000000,0.051799808,0.007806306,-1.005419731,0.000514509,0.000088226,-0.010067229,-0.020909389,-0.013771625,-0.067838654,1,0.009369201,-0.002635730,-0.000070158,1,-0.528809845,-0.090033442,9.791968346,1,0
1779390690030,414708.030000000,0.055880196,0.008931303,-0.990941048,0.000565536,0.000086073,-0.009912580,0.018929925,-0.001945139,0.074145421,1,-0.006361410,0.002693924,0.000261000,1,-0.529151678,-0.089729138,9.791952133,1,0
1779390690040,414708.040000000,0.055491045,0.010043122,-0.994903803,0.000565717,0.000107346,-0.009939867,0.014866251,0.008102035,0.035263531,1,-0.008045294,0.001152789,0.000585782,1,-0.529351115,-0.090637133,9.791933060,1,0
1779390690050,414708.050000000,0.053619508,0.007719563,-1.001330733,0.000543368,0.000085728,-0.010005552,-0.003434780,-0.015002685,-0.027763076,1,0.001480237,-0.002179779,-0.000406645,1,-0.529194534,-0.090660289,9.791941643,1,0
1779390690060,414708.060000000,0.054898269,0.006255710,-1.000741839,0.000551590,0.000066964,-0.010021470,0.009253652,-0.028784236,-0.021974517,1,0.008498304,-0.000827828,-0.001096530,1,-0.529088378,-0.089868762,9.791954994,1,0
1779390690070,414708.070000000,0.053802624,0.005439411,-0.991442144,0.000544990,0.000054610,-0.009923499,-0.001574501,-0.036148861,0.069225296,1,0.002750744,0.001173916,-0.001015301,1,-0.529234290,-0.089407235,9.791951180,1,0
1779390690090,414708.090000000,0.052524254,0.012973660,-0.994917214,0.000525810,0.000127337,-0.009934223,-0.014097920,0.036170848,0.035132352,1,-0.010502824,-0.001898300,0.000726401,1,-0.529125988,-0.091383442,9.791938782,1,0
1779390690100,414708.100000000,0.054406974,0.011145134,-1.002554774,0.000536831,0.000116695,-0.010011408,0.004669387,0.017794382,-0.039753418,1,0.001737366,-0.004090962,0.001102645,1,-0.528753638,-0.091446050,9.791957855,1,0
1779390690120,414708.120000000,0.060111023,0.004480463,-0.993938327,0.000602207,0.000046264,-0.009946696,0.061265931,-0.045655780,0.044798259,1,0.009356719,-0.001094943,0.000279169,1,-0.528185189,-0.089301862,9.792008400,1,0
1779390690130,414708.130000000,0.054984346,0.006693079,-0.987953484,0.000551311,0.000058004,-0.009884398,0.010966173,-0.023645323,0.103490546,1,-0.001969481,0.001454804,0.000603292,1,-0.528291464,-0.089342378,9.792002678,1,0
1779390690140,414708.140000000,0.053006839,0.011022476,-0.988276184,0.000525442,0.000104069,-0.009877286,-0.008601708,0.018119492,0.100309931,1,-0.008918790,0.001026031,0.000422141,1,-0.528453350,-0.090251349,9.791985512,1,0
1779390690160,414708.160000000,0.056298643,0.009572378,-0.997165859,0.000562791,0.000101574,-0.009984177,0.023950245,0.003361838,0.013141869,1,0.005000577,-0.001728491,-0.000517304,1,-0.528096855,-0.090356141,9.792003632,1,0
1779390690170,414708.170000000,0.053138673,0.007791338,-0.990763605,0.000542019,0.000081371,-0.009918980,-0.006947950,-0.013389286,0.075938202,1,0.005673692,0.000364128,-0.000325741,1,-0.528071582,-0.089619927,9.792011261,1,0
1779390690190,414708.190000000,0.045190297,0.011724342,-0.999320626,0.000458687,0.000125096,-0.009980065,-0.084523648,0.025164315,-0.007957828,1,-0.001048131,-0.003707102,0.000752878,1,-0.527573764,-0.089843616,9.792036057,1,0
1779390690200,414708.200000000,0.045982346,0.008527377,-1.008440971,0.000459188,0.000097443,-0.010077903,-0.076422065,-0.005927752,-0.097377606,1,0.005538715,-0.002666085,-0.000314070,1,-0.527271688,-0.089380644,9.792057037,1,0
1779390690220,414708.220000000,0.057786491,0.005841190,-0.989877820,0.000581248,0.000059407,-0.009914689,0.039032087,-0.030746397,0.084661901,1,0.004240415,0.004781881,-0.000550537,1,-0.527808726,-0.087897666,9.792041779,1,0
1779390690230,414708.230000000,0.056182064,0.010794513,-0.983212173,0.000571952,0.000097987,-0.009840569,0.022717424,0.017454559,0.149995729,1,-0.009637384,0.005991166,0.000273314,1,-0.528427243,-0.088703386,9.792000771,1,0
1779390690250,414708.250000000,0.049060471,0.011464022,-0.996809006,0.000493967,0.000122394,-0.009945331,-0.047507893,0.022597212,0.016621836,1,0.000894814,-0.003578587,0.000020843,1,-0.528515220,-0.089798532,9.791986465,1,0
1779390690260,414708.260000000,0.049650226,0.007226598,-1.001457334,0.000486947,0.000077920,-0.010019806,-0.041397247,-0.018382080,-0.028939545,1,0.009563209,-0.002154988,-0.000481444,1,-0.528232336,-0.088953532,9.792009354,1,0
1779390690280,414708.280000000,0.052531742,0.009012864,-0.994832635,0.000509019,0.000080515,-0.009946726,-0.013446040,-0.000586926,0.036013018,1,-0.012541623,0.004736527,0.000712728,1,-0.528754294,-0.089362651,9.791976929,1,0
1779390690290,414708.290000000,0.059656892,0.015314661,-0.995984256,0.000575411,0.000142318,-0.009944276,0.055998698,0.059675995,0.024681970,1,-0.016608091,0.003988244,0.001443085,1,-0.529160321,-0.091024764,9.791939735,1,0
1779390690300,414708.300000000,0.058279604,0.012875384,-0.998532593,0.000589195,0.000123799,-0.009987568,0.042334657,0.034548886,-0.000328415,1,-0.006267073,0.000581452,0.000781827,1,-0.529211402,-0.091909520,9.791929245,1,0
1779390690320,414708.320000000,0.062928960,0.010244368,-0.984736204,0.000644111,0.000100325,-0.009854922,0.087655403,0.010028916,0.134965271,1,0.010016215,-0.000376822,-0.000571198,1,-0.529454708,-0.090125971,9.791932106,1,0
1779390690330,414708.330000000,0.051006421,0.009357458,-0.984765887,0.000522481,0.000088958,-0.009848720,-0.029295089,0.001662430,0.134675205,1,-0.003258051,0.001173106,0.000532251,1,-0.529533923,-0.090203755,9.791927338,1,0
1779390690350,414708.350000000,0.049753733,0.009079268,-1.004305720,0.000503624,0.000097934,-0.010026641,-0.041340627,-0.002223298,-0.056943059,1,-0.001732226,-0.005507942,0.000047498,1,-0.529086471,-0.091314420,9.791941643,1,0
1779390690360,414708.360000000,0.052299440,0.005921979,-1.011462688,0.000521620,0.000063052,-0.010125607,-0.015910028,-0.032848880,-0.127101570,1,0.005714987,-0.003593842,-0.000690328,1,-0.528680146,-0.090746693,9.791968346,1,0
1779390690380,414708.380000000,0.057666030,0.011484395,-0.988755882,0.000588047,0.000109908,-0.009894663,0.036449958,0.022279026,0.095568031,1,-0.003041915,0.001447633,0.000155253,1,-0.529105783,-0.090438969,9.791948318,1,0
1779390690390,414708.390000000,0.054055307,0.014877685,-0.990430236,0.000547781,0.000149470,-0.009893400,0.001001123,0.055150285,0.079142615,1,-0.003324947,-0.001244758,0.000527769,1,-0.529061735,-0.090852723,9.791946411,1,0
1779390690410,414708.410000000,0.055959981,0.005539213,-0.996934712,0.000554919,0.000063871,-0.009972679,0.020270446,-0.035119031,0.015399119,1,0.012861622,-0.004828329,-0.000621018,1,-0.528358877,-0.089040324,9.792001724,1,0
1779390690420,414708.420000000,0.055475105,0.003354617,-0.993489802,0.000559745,0.000028402,-0.009941057,0.015795495,-0.055570886,0.049206473,1,0.006372771,-0.001141199,-0.000736554,1,-0.528193653,-0.088271052,9.792016983,1,0
1779390690430,414708.430000000,0.051644906,0.007271173,-0.988575757,0.000516008,0.000059586,-0.009887965,-0.021850241,-0.017437484,0.097390011,1,-0.009746094,0.001769207,0.000183173,1,-0.528368950,-0.089046806,9.792000771,1,0
1779390690450,414708.450000000,0.049899429,0.012252377,-1.004815340,0.000495008,0.000127752,-0.010035811,-0.038581740,0.029220402,-0.061865695,1,-0.002249710,-0.005176701,-0.000365909,1,-0.527766526,-0.091005117,9.792015076,1,0
1779390690460,414708.460000000,0.054732688,0.006381549,-1.003913879,0.000530724,0.000070543,-0.010055123,0.009168833,-0.027782474,-0.053000838,1,0.010388295,-0.002530710,0.000383476,1,-0.527496755,-0.090039663,9.792038918,1,0
1779390690480,414708.480000000,0.052785352,0.007475257,-0.983629405,0.000526489,0.000063909,-0.009844325,-0.010108569,-0.015671192,0.145924330,1,-0.003492943,0.005520841,0.000139126,1,-0.527928174,-0.089087069,9.792024612,1,0
1779390690490,414708.490000000,0.052350972,0.009854588,-0.986745119,0.000525421,0.000098661,-0.009851895,-0.014690753,0.006797669,0.115344785,1,-0.011919627,0.001092934,0.001240159,1,-0.528112888,-0.090212271,9.792003632,1,0
1779390690510,414708.510000000,0.052714929,0.004985710,-1.002660751,0.000524478,0.000059340,-0.010040059,-0.011085371,-0.041501250,-0.040737931,1,0.006986175,0.001913975,-0.000787673,1,-0.528101742,-0.090177938,9.792004585,1,0
1779390690520,414708.520000000,0.051646322,0.005265954,-0.994774580,0.000526353,0.000054867,-0.009960875,-0.021871984,-0.037899628,0.036590606,1,0.007827298,0.003330029,-0.001512146,1,-0.528454542,-0.089297459,9.791994095,1,0
1779390690540,414708.540000000,0.050085027,0.013809510,-0.993028402,0.000502375,0.000136968,-0.009921233,-0.037829492,0.045357078,0.053675111,1,-0.008477586,0.000184393,-0.000451980,1,-0.529001474,-0.090332940,9.791954994,1,0
1779390690550,414708.550000000,0.053588036,0.012251424,-0.999169230,0.000530801,0.000133361,-0.009984275,-0.003411954,0.029603280,-0.006547246,1,-0.000387007,-0.001446303,-0.000838505,1,-0.528885782,-0.090555623,9.791958809,1,0
1779390690570,414708.570000000,0.059521992,0.006205559,-0.991967976,0.000597925,0.000062008,-0.009931288,0.054813083,-0.028499119,0.064086027,1,0.005889190,0.001500992,-0.000803767,1,-0.528944850,-0.089172661,9.791968346,1,0
1779390690580,414708.580000000,0.057398304,0.010194734,-0.986370206,0.000577953,0.000091761,-0.009863463,0.033730295,0.010616140,0.118967697,1,-0.005227058,0.002177754,-0.000593223,1,-0.529222548,-0.089523964,9.791950226,1,0
1779390690590,414708.590000000,0.053061590,0.014354059,-0.992965698,0.000533264,0.000136297,-0.009909773,-0.008846177,0.050609134,0.054278087,1,-0.009023806,-0.000833512,-0.000263177,1,-0.529176593,-0.090437822,9.791944504,1,0
1779390690610,414708.610000000,0.056395359,0.008845377,-1.001833916,0.000551356,0.000091535,-0.010027923,0.024389254,-0.003315541,-0.032659274,1,0.008974947,-0.003472775,-0.000024872,1,-0.528552055,-0.089779355,9.791984558,1,0
1779390690620,414708.620000000,0.056058001,0.005559662,-0.996914327,0.000559711,0.000054106,-0.009971955,0.021363176,-0.034538209,0.015609532,1,0.008607882,-0.000442986,-0.000766738,1,-0.528364062,-0.088792868,9.792003632,1,0
1779390690640,414708.640000000,0.054774478,0.012217732,-0.992325664,0.000550609,0.000116173,-0.009915167,0.008387577,0.029989023,0.060580563,1,-0.010079920,0.000921610,-0.000154193,1,-0.528795242,-0.090140447,9.791967392,1,0
1779390690650,414708.650000000,0.052704290,0.012471422,-0.998780787,0.000522213,0.000129173,-0.009983198,-0.011788165,0.031779610,-0.002721509,1,-0.002481376,-0.002124500,-0.000259474,1,-0.528574407,-0.090601042,9.791975975,1,0
1779390690670,414708.670000000,0.056119654,0.007662078,-0.992703795,0.000568825,0.000076957,-0.009939179,0.021896785,-0.013905699,0.056897312,1,0.009310992,0.000735720,-0.000328185,1,-0.528471887,-0.088755362,9.791997910,1,0
1779390690680,414708.680000000,0.054039199,0.009370972,-0.985458732,0.000548302,0.000089776,-0.009866053,0.001303451,0.003284302,0.127940401,1,-0.000992727,0.002394396,0.000341895,1,-0.528714836,-0.088643916,9.791985512,1,0
1779390690700,414708.700000000,0.051883042,0.011099844,-0.998266101,0.000520209,0.000119337,-0.009973004,-0.019756326,0.019077551,0.002336906,1,-0.000778989,-0.002190591,0.000333171,1,-0.528487027,-0.089798465,9.791987419,1,0
1779390690710,414708.710000000,0.053822756,0.006243760,-1.001070738,0.000537954,0.000071599,-0.010018164,-0.000448674,-0.028059164,-0.025147015,1,0.009630842,-0.003445745,-0.000505164,1,-0.528162062,-0.088990197,9.792012215,1,0
1779390690720,414708.720000000,0.052678727,0.005693185,-0.994886696,0.000531232,0.000058910,-0.009959692,-0.011595421,-0.032572255,0.035509586,1,0.009352054,-0.000086653,-0.001389131,1,-0.528200030,-0.088121235,9.792017937,1,0
1779390690740,414708.740000000,0.050102428,0.011246979,-0.991307855,0.000500187,0.000111260,-0.009901757,-0.037253559,0.021556731,0.070581578,1,-0.008337093,0.001318528,0.000365756,1,-0.528631806,-0.088997737,9.791987419,1,0
1779390690750,414708.750000000,0.052340183,0.010520991,-0.997595370,0.000517713,0.000110494,-0.009968570,-0.015300605,0.013884410,0.008917864,1,-0.001134846,-0.001440076,0.000310053,1,-0.528537750,-0.089326121,9.791989326,1,0
1779390690770,414708.770000000,0.055984158,0.004749953,-0.994472563,0.000561367,0.000042858,-0.009955990,0.020677783,-0.041509714,0.039565995,1,0.005823915,0.001186788,-0.000097571,1,-0.528376281,-0.087909482,9.792010307,1,0
1779390690780,414708.780000000,0.052512806,0.008252578,-0.989401281,0.000525022,0.000071692,-0.009893319,-0.013638033,-0.007173353,0.089283571,1,-0.005032304,0.003920088,-0.000692298,1,-0.528734744,-0.088261515,9.791988373,1,0
1779390690800,414708.800000000,0.049894810,0.011953016,-1.003038526,0.000487485,0.000120711,-0.010018527,-0.039461114,0.027545411,-0.044474855,1,-0.001864783,-0.000876598,0.000119483,1,-0.528734803,-0.089731559,9.791975021,1,0
1779390690810,414708.810000000,0.057194829,0.007269319,-1.003633618,0.000555454,0.000075136,-0.010046214,0.032171056,-0.018000493,-0.050304327,1,0.007310075,0.000593948,-0.000523635,1,-0.528737009,-0.089061193,9.791980743,1,0
1779390690830,414708.830000000,0.056348998,0.009916037,-0.984602332,0.000569119,0.000090562,-0.009850828,0.023403596,0.008652777,0.136309490,1,-0.006084283,0.003280149,-0.000014830,1,-0.529293597,-0.088780008,9.791953087,1,0
1779390690840,414708.840000000,0.052313063,0.012482572,-0.989709556,0.000530464,0.000126310,-0.009880887,-0.016331783,0.032981742,0.086208433,1,-0.008675130,0.000657299,0.000231893,1,-0.529368281,-0.089700490,9.791940689,1,0
1779390690860,414708.860000000,0.053919364,0.005755093,-1.006210327,0.000536909,0.000065985,-0.010072177,-0.000036047,-0.032715127,-0.075576410,1,0.010881608,-0.002643448,-0.000261484,1,-0.528721929,-0.088814594,9.791983604,1,0
1779390690870,414708.870000000,0.057634804,0.003890671,-0.998281479,0.000579925,0.000040407,-0.010001390,0.036387715,-0.049951166,0.002187328,1,0.008391552,0.002638365,-0.000714271,1,-0.528898716,-0.087845258,9.791982651,1,0
1779390690880,414708.880000000,0.056263961,0.008830389,-0.991043389,0.000574156,0.000077706,-0.009917025,0.022614036,-0.001558054,0.073150776,1,-0.008037086,0.003287383,0.000076629,1,-0.529249430,-0.088404968,9.791958809,1,0
1779390690900,414708.900000000,0.052034020,0.014041828,-0.995207250,0.000520663,0.000147664,-0.009933904,-0.019212060,0.047761977,0.032282460,1,-0.000290085,-0.002856034,-0.000298462,1,-0.529402375,-0.089950867,9.791936874,1,0
1779390690910,414708.910000000,0.053140372,0.008212846,-1.000791430,0.000525201,0.000091244,-0.010008859,-0.007970838,-0.008614246,-0.022452595,1,0.013667397,-0.004009083,-0.000617809,1,-0.528974712,-0.088729806,9.791971207,1,0
1779390690930,414708.930000000,0.055752300,0.007482442,-0.990648568,0.000556764,0.000058280,-0.009911958,0.017745206,-0.013843274,0.077039234,1,-0.003918662,0.002817288,-0.000313380,1,-0.529085755,-0.087343603,9.791977882,1,0
1779390690940,414708.940000000,0.053695764,0.013673658,-0.991331577,0.000530412,0.000127745,-0.009899677,-0.002775778,0.045732688,0.070311084,1,-0.015019273,0.003887885,-0.000535565,1,-0.529472470,-0.088829145,9.791943550,1,0
1779390690960,414708.960000000,0.059057780,0.012588822,-1.001682639,0.000583033,0.000130019,-0.010023612,0.049736805,0.033766869,-0.031214204,1,0.007487433,-0.001580548,-0.000421507,1,-0.529372811,-0.089454651,9.791942596,1,0
1779390690970,414708.970000000,0.056988344,0.007121434,-0.994547904,0.000574074,0.000077384,-0.009958587,0.029541649,-0.018641751,0.038770474,1,0.014346249,0.000075839,-0.000440281,1,-0.529325366,-0.088032752,9.791958809,1,0
1779390690990,414708.990000000,0.047597498,0.010547542,-0.988835752,0.000484126,0.000103881,-0.009876195,-0.062712632,0.015500518,0.094783686,1,-0.007521451,0.000806536,0.000297826,1,-0.529509902,-0.088169470,9.791947365,1,0
1779390691000,414709.000000000,0.045870297,0.010050606,-0.998460114,0.000455025,0.000103372,-0.009968432,-0.079555124,0.009859911,0.000398980,1,-0.006332475,-0.001618458,0.000244203,1,-0.529338717,-0.088899843,9.791950226,1,0
1779390691010,414709.010000000,0.053165160,0.005342113,-1.003967047,0.000520886,0.000064854,-0.010043603,-0.007814000,-0.036402542,-0.053595353,1,0.003786667,-0.002068882,-0.000083038,1,-0.529121637,-0.088672899,9.791963577,1,0
1779390691030,414709.030000000,0.057266396,0.007343213,-0.986436367,0.000578779,0.000066364,-0.009878096,0.031989440,-0.016096907,0.118305929,1,-0.004006823,0.004481904,0.000090914,1,-0.529741824,-0.088233970,9.791934013,1,0
1779390691040,414709.040000000,0.054784112,0.012931051,-0.985257983,0.000558864,0.000131485,-0.009844255,0.007231990,0.037914108,0.129832476,1,-0.009300418,0.003008979,0.000732686,1,-0.530110657,-0.089184836,9.791905403,1,0
1779390691060,414709.060000000,0.052927513,0.005281699,-0.999669015,0.000521504,0.000065264,-0.009992919,-0.010674929,-0.037154973,-0.011476353,1,0.010196674,-0.003539726,0.000157984,1,-0.529606283,-0.088632658,9.791937828,1,0
1779390691070,414709.070000000,0.055448808,0.002417227,-0.995272696,0.000556286,0.000026687,-0.009961565,0.014229856,-0.064073130,0.031658046,1,0.010976704,-0.000898878,-0.000231573,1,-0.529509187,-0.087436296,9.791954041,1,0
1779390691090,414709.090000000,0.052298903,0.012331178,-0.992922246,0.000516785,0.000116140,-0.009916568,-0.017133698,0.032408748,0.054674864,1,-0.015383065,0.003168023,-0.000182338,1,-0.530109465,-0.088998593,9.791907310,1,0
1779390691100,414709.100000000,0.053776171,0.014233174,-1.000427127,0.000530150,0.000143644,-0.009990010,-0.002743893,0.049783666,-0.018939961,1,-0.007307582,-0.000898702,0.000165333,1,-0.530080080,-0.090023585,9.791899681,1,0
1779390691120,414709.120000000,0.060462505,0.004717582,-0.998532951,0.000595059,0.000048249,-0.010006511,0.063259564,-0.041892130,-0.000325964,1,0.015232507,0.001627051,0.000124169,1,-0.529726326,-0.087680735,9.791939735,1,0
1779390691130,414709.130000000,0.057682935,0.006098674,-0.984795392,0.000579018,0.000049743,-0.009860121,0.035689604,-0.027492773,0.134384900,1,0.001183833,0.004175690,-0.000345508,1,-0.530116856,-0.087264016,9.791922569,1,0
1779390691150,414709.150000000,0.050620586,0.011747659,-0.995675981,0.000503536,0.000116936,-0.009943091,-0.033734873,0.025963884,0.027655888,1,-0.008935131,-0.002320861,-0.000447390,1,-0.530080855,-0.089520559,9.791904449,1,0
1779390691160,414709.160000000,0.053482890,0.006990845,-1.006232262,0.000529570,0.000079443,-0.010057990,-0.005312750,-0.020801226,-0.075846992,1,0.004027644,-0.003694912,-0.000341676,1,-0.529685497,-0.089233048,9.791928291,1,0
1779390691170,414709.170000000,0.055561420,0.005302979,-1.003860235,0.000556169,0.000053472,-0.010054929,0.015279217,-0.036666635,-0.052568864,1,0.008057291,0.000047782,-0.000928487,1,-0.529593468,-0.088421524,9.791940689,1,0
1779390691190,414709.190000000,0.052479599,0.013089175,-0.992033541,0.000535404,0.000127731,-0.009913783,-0.015316496,0.039308347,0.063388266,1,-0.010392113,0.001469874,-0.000012039,1,-0.530011415,-0.089376554,9.791909218,1,0
1779390691200,414709.200000000,0.052775886,0.015017333,-0.996500909,0.000523498,0.000158407,-0.009959795,-0.012487106,0.057424534,0.019566184,1,-0.003202312,0.000090329,-0.000224787,1,-0.530044556,-0.089945391,9.791902542,1,0
1779390691220,414709.220000000,0.056468681,0.005694538,-0.994508803,0.000575160,0.000060322,-0.009955740,0.024068506,-0.032503668,0.039134666,1,0.011949545,-0.000713928,-0.000690188,1,-0.529677689,-0.087976724,9.791939735,1,0
1779390691230,414709.230000000,0.054172512,0.006586107,-0.986390710,0.000545902,0.000057955,-0.009871992,0.001359551,-0.023142433,0.118741289,1,-0.000378185,0.002502423,0.000179302,1,-0.529969394,-0.087741569,9.791926384,1,0
1779390691260,414709.260000000,0.052962922,0.010977655,-1.007105708,0.000516621,0.000117913,-0.010066021,-0.010375372,0.017979179,-0.084414989,1,0.005563271,-0.002272112,0.000374980,1,-0.529693544,-0.089500807,9.791925430,1,0
1779390691280,414709.280000000,0.057292890,0.009245113,-0.987842500,0.000570547,0.000080368,-0.009887810,0.031981546,0.002697954,0.104503103,1,0.000155608,0.003162659,0.000149615,1,-0.529968441,-0.087960534,9.791924477,1,0
1779390691290,414709.290000000,0.054076806,0.013382509,-0.985681772,0.000537576,0.000128697,-0.009847471,0.000166230,0.042584363,0.125671551,1,-0.011474580,0.002711533,0.000889467,1,-0.530230939,-0.089009382,9.791900635,1,0
1779390691300,414709.300000000,0.052192654,0.014453623,-0.993351519,0.000517691,0.000143897,-0.009920991,-0.018394930,0.051975030,0.050442103,1,-0.008957189,0.000328767,0.000729698,1,-0.530240536,-0.090044543,9.791890144,1,0
1779390691320,414709.320000000,0.052977830,0.006557742,-0.997423768,0.000533882,0.000069224,-0.009992756,-0.010468543,-0.024845779,0.010524685,1,0.010783827,0.000113908,-0.000461013,1,-0.530009627,-0.088826515,9.791913986,1,0
1779390691330,414709.330000000,0.053031053,0.008740807,-0.990255415,0.000531979,0.000076601,-0.009909414,-0.010061173,-0.002858806,0.080821700,1,0.000630396,0.002290271,-0.000417531,1,-0.530189633,-0.088558339,9.791907310,1,0
1779390691350,414709.350000000,0.052910138,0.012889040,-0.996549010,0.000526171,0.000136614,-0.009956621,-0.011478684,0.036654625,0.019079743,1,-0.002897970,-0.000946826,0.000496684,1,-0.530320585,-0.089833170,9.791888237,1,0
1779390691360,414709.360000000,0.056614473,0.008212798,-1.001948833,0.000565715,0.000092175,-0.010019273,0.025108654,-0.008853022,-0.033857692,1,0.008697923,-0.003172916,0.000444086,1,-0.529990911,-0.089121215,9.791912079,1,0
1779390691380,414709.380000000,0.056628685,0.005030074,-0.987696290,0.000577477,0.000039156,-0.009884224,0.025214488,-0.038062423,0.105927981,1,0.001130965,0.001620159,-0.000631496,1,-0.530173600,-0.087356418,9.791918755,1,0
1779390691390,414709.390000000,0.052630339,0.011516216,-0.990090907,0.000531579,0.000108868,-0.009888669,-0.014256621,0.024958575,0.082426146,1,-0.009708894,0.001979499,-0.000654596,1,-0.530445457,-0.088280648,9.791895866,1,0
1779390691410,414709.410000000,0.054420974,0.007050876,-1.001851916,0.000538738,0.000078203,-0.010014508,0.003582625,-0.019440940,-0.032900684,1,0.007508798,-0.004929482,-0.000541586,1,-0.529951096,-0.088353284,9.791921616,1,0
1779390691420,414709.420000000,0.054277252,0.003681667,-0.999108315,0.000543189,0.000039404,-0.009998425,0.002522197,-0.051358495,-0.005966506,1,0.012037232,-0.002150510,-0.001472354,1,-0.529688418,-0.087090619,9.791947365,1,0
1779390691440,414709.440000000,0.051646717,0.009251560,-0.992769301,0.000513754,0.000088263,-0.009913269,-0.023527596,0.003142387,0.056183863,1,-0.011128792,0.001405137,0.000844986,1,-0.530052960,-0.087929875,9.791919708,1,0
1779390691450,414709.450000000,0.052263472,0.010387223,-1.001120925,0.000515171,0.000100706,-0.009998138,-0.017435756,0.013257936,-0.025724214,1,-0.007363406,-0.001654354,-0.000141390,1,-0.529913783,-0.088835679,9.791919708,1,0
1779390691460,414709.460000000,0.056774296,0.007348748,-1.003825665,0.000550934,0.000071832,-0.010050629,0.026897185,-0.016648367,-0.052245140,1,0.003518094,0.000614122,0.000272874,1,-0.529887736,-0.088604860,9.791922569,1,0
1779390691480,414709.480000000,0.058404546,0.008331522,-0.986395657,0.000584334,0.000073056,-0.009873196,0.042520709,-0.006434786,0.118670613,1,-0.005743640,0.003503821,-0.000505200,1,-0.530341387,-0.088318989,9.791900635,1,0
1779390691490,414709.490000000,0.053260501,0.011445051,-0.987602055,0.000539634,0.000111742,-0.009866562,-0.008199817,0.023201115,0.106817029,1,-0.010964710,0.002216490,0.000369508,1,-0.530576110,-0.089377642,9.791878700,1,0
1779390691510,414709.510000000,0.050948948,0.006687739,-1.001346111,0.000513020,0.000075911,-0.010014593,-0.030401517,-0.023800435,-0.027944341,1,0.007885162,-0.005243403,0.000271848,1,-0.529876709,-0.089138523,9.791918755,1,0
1779390691520,414709.520000000,0.051341023,0.004120891,-0.997663736,0.000516960,0.000045785,-0.009988265,-0.026236156,-0.047984224,0.008193941,1,0.008310414,-0.002416484,-0.000706922,1,-0.529647708,-0.088134035,9.791939735,1,0
1779390691540,414709.540000000,0.052693717,0.012524000,-0.992898166,0.000529180,0.000126358,-0.009921024,-0.013158645,0.033674791,0.054910999,1,-0.011333235,0.000781488,-0.000043576,1,-0.529931843,-0.089497007,9.791912079,1,0
1779390691550,414709.550000000,0.055639531,0.014373562,-0.997266769,0.000551692,0.000151100,-0.009965254,0.015692204,0.051019032,0.012060536,1,-0.003973546,-0.000849514,0.000083243,1,-0.529918790,-0.090061180,9.791908264,1,0
1779390691570,414709.570000000,0.056804642,0.007369854,-0.991643667,0.000578312,0.000078783,-0.009925655,0.027294245,-0.016190629,0.067227289,1,0.011953463,0.000182896,-0.000586810,1,-0.529774606,-0.088092625,9.791934013,1,0
1779390691580,414709.580000000,0.052853003,0.008695425,-0.986248732,0.000532443,0.000079674,-0.009863176,-0.011600584,-0.002563207,0.120131887,1,0.000205923,0.001576972,-0.000192054,1,-0.529960573,-0.087830119,9.791925430,1,0
1779390691590,414709.590000000,0.047421440,0.011358472,-0.991498768,0.000477383,0.000109151,-0.009895366,-0.064975962,0.023016056,0.068635784,1,-0.008555955,0.000185232,0.000082488,1,-0.530027270,-0.088639043,9.791914940,1,0
1779390691610,414709.610000000,0.053496081,0.008832465,-1.005080342,0.000517919,0.000088976,-0.010053983,-0.005021269,-0.002389476,-0.064538658,1,0.004757825,-0.001890580,-0.000360946,1,-0.529579639,-0.088858686,9.791936874,1,0
1779390691620,414709.620000000,0.057830229,0.008105175,-0.998497367,0.000573958,0.000077118,-0.009999020,0.037586968,-0.008887646,0.000029201,1,0.006124938,0.001083360,-0.000324255,1,-0.529567599,-0.088181905,9.791943550,1,0
1779390691640,414709.640000000,0.057285663,0.014226651,-0.987706125,0.000572539,0.000140576,-0.009869937,0.031567775,0.050577860,0.105813883,1,-0.006430799,0.002144183,0.000877850,1,-0.530279815,-0.089136891,9.791896820,1,0
1779390691650,414709.650000000,0.053889554,0.012909476,-0.993673503,0.000541019,0.000132702,-0.009926165,-0.001650350,0.037448984,0.047296248,1,0.002114830,-0.001861864,0.000200243,1,-0.530068398,-0.089083478,9.791908264,1,0
1779390691670,414709.670000000,0.052567996,0.004551877,-0.993380189,0.000539633,0.000050482,-0.009945564,-0.014203397,-0.042667158,0.050211221,1,0.008206850,-0.000161872,-0.000893208,1,-0.529714108,-0.087051533,9.791946411,1,0
1779390691680,414709.680000000,0.049572658,0.007907632,-0.990963459,0.000501610,0.000069861,-0.009908222,-0.043691915,-0.009777466,0.073904201,1,-0.007508242,0.002258200,-0.000107082,1,-0.529904068,-0.087559044,9.791931152,1,0
1779390691700,414709.700000000,0.051065095,0.012403714,-1.006290913,0.000505612,0.000130726,-0.010052100,-0.028999548,0.032245025,-0.076421984,1,-0.003362163,-0.003362647,0.000394343,1,-0.529672384,-0.089497998,9.791926384,1,0
1779390691710,414709.710000000,0.056189373,0.008396207,-1.006947517,0.000560849,0.000089826,-0.010087365,0.021422727,-0.006627142,-0.082847588,1,0.009801557,-0.000794671,-0.000296880,1,-0.529581964,-0.088660814,9.791938782,1,0
1779390691730,414709.730000000,0.057258502,0.007780923,-0.983010769,0.000578792,0.000072002,-0.009836062,0.031498257,-0.011130471,0.151883274,1,-0.001217772,0.003896501,0.000764519,1,-0.530137122,-0.087472476,9.791919708,1,0
1779390691740,414709.740000000,0.054072540,0.011113190,-0.985483646,0.000541039,0.000112019,-0.009843364,-0.000023520,0.020929333,0.127612650,1,-0.008276082,0.001339443,0.000632715,1,-0.530335963,-0.088310763,9.791901588,1,0
1779390691750,414709.750000000,0.053794917,0.009940985,-0.993603706,0.000537083,0.000103049,-0.009920015,-0.002748760,0.008910975,0.047976509,1,-0.001100671,-0.001750230,0.000021168,1,-0.530242145,-0.088611059,9.791903496,1,0
1779390691770,414709.770000000,0.054661535,0.003806734,-0.998431802,0.000545235,0.000035637,-0.009989915,0.006309761,-0.050226405,0.000668890,1,0.005715711,0.000352178,-0.000705325,1,-0.529747605,-0.087380752,9.791941643,1,0
1779390691780,414709.780000000,0.053311501,0.007710552,-0.993712544,0.000529881,0.000062079,-0.009934555,-0.007073148,-0.012062930,0.046940047,1,-0.006807877,0.001916973,-0.000103664,1,-0.529940128,-0.087889984,9.791926384,1,0
1779390691800,414709.800000000,0.056015253,0.010369494,-1.000288725,0.000548259,0.000108399,-0.010001561,0.019310322,0.012312284,-0.017573362,1,-0.001706331,-0.000270100,0.000382704,1,-0.530003369,-0.089430258,9.791909218,1,0
1779390691810,414709.810000000,0.059777938,0.007030780,-0.997184396,0.000587434,0.000070305,-0.009986348,0.056301691,-0.019930096,0.012879318,1,0.008909992,0.000216261,-0.000701562,1,-0.529926240,-0.088601977,9.791920662,1,0
1779390691830,414709.830000000,0.053659368,0.007533330,-0.982029676,0.000548660,0.000067760,-0.009817369,-0.003987155,-0.014094638,0.161488995,1,-0.006789532,0.001846710,-0.000418997,1,-0.530263245,-0.088183701,9.791906357,1,0
1779390691840,414709.840000000,0.048710585,0.009725551,-0.991393685,0.000492214,0.000098345,-0.009894948,-0.052550223,0.006398713,0.069648907,1,-0.011022882,-0.000454715,-0.000144540,1,-0.530223727,-0.089320190,9.791897774,1,0
1779390691860,414709.860000000,0.050866533,0.006921337,-1.006908417,0.000502708,0.000074810,-0.010087347,-0.030881358,-0.021483159,-0.082473084,1,0.007296115,-0.001559588,-0.000521378,1,-0.529662907,-0.089131765,9.791930199,1,0
1779390691870,414709.870000000,0.055607613,0.005850101,-0.997782469,0.000562530,0.000063866,-0.009994150,0.015553568,-0.031209582,0.007025379,1,0.006152497,0.002020318,-0.000363379,1,-0.529833734,-0.088388324,9.791927338,1,0
1779390691880,414709.880000000,0.055508792,0.009944581,-0.990369022,0.000561927,0.000088912,-0.009913286,0.014356909,0.008907448,0.079713412,1,-0.005637953,0.001731836,-0.000644591,1,-0.530052185,-0.088792399,9.791912079,1,0
1779390691900,414709.900000000,0.057189237,0.011729156,-0.993369818,0.000576584,0.000124345,-0.009923415,0.030516122,0.025298202,0.050258808,1,0.001385028,-0.001795712,0.000607853,1,-0.530262947,-0.089681327,9.791893005,1,0
1779390691910,414709.910000000,0.055565044,0.008226234,-0.996155620,0.000559237,0.000087215,-0.009962578,0.014874164,-0.008356614,0.022960765,1,0.011247728,-0.003312815,-0.000540536,1,-0.529929399,-0.088678747,9.791919708,1,0
1779390691930,414709.930000000,0.048966136,0.009819296,-0.989795089,0.000490305,0.000084520,-0.009889649,-0.049929902,0.008401072,0.085342616,1,-0.006361557,0.000504955,-0.000676162,1,-0.530139863,-0.088092402,9.791913986,1,0
1779390691940,414709.940000000,0.048856497,0.012913505,-0.999410689,0.000475852,0.000123570,-0.009975778,-0.051006246,0.037696637,-0.008964735,1,-0.011582990,-0.000226713,-0.000254462,1,-0.530117750,-0.089303017,9.791904449,1,0
1779390691960,414709.960000000,0.059862092,0.009632319,-1.003319144,0.000586953,0.000096379,-0.010057466,0.057158768,0.005097507,-0.047284417,1,0.007632120,0.000295886,-0.000338257,1,-0.529896975,-0.089125969,9.791917801,1,0
1779390691970,414709.970000000,0.060011398,0.008387976,-0.990253210,0.000600200,0.000081378,-0.009918820,0.058505110,-0.006147242,0.080850728,1,0.008686490,0.002375845,-0.000577001,1,-0.530079603,-0.088135429,9.791916847,1,0
1779390691990,414709.990000000,0.050361216,0.011854524,-0.988544822,0.000507980,0.000120885,-0.009874092,-0.036405236,0.027558764,0.097587831,1,-0.006170271,-0.000531154,0.000715080,1,-0.530263722,-0.088885516,9.791899681,1,0
1779390692000,414710.000000000,0.050418090,0.009063607,-0.998375416,0.000506126,0.000100757,-0.009967622,-0.035680100,-0.000055925,0.001188900,1,0.000470609,-0.002737284,0.000089194,1,-0.530027390,-0.088924743,9.791912079,1,0
1779390692020,414710.020000000,0.054111663,0.006424182,-0.996619463,0.000544418,0.000065015,-0.009979672,0.000725186,-0.025040722,0.018425871,1,0.001972399,0.001787660,-0.000139299,1,-0.529984653,-0.087979183,9.791923523,1,0
1779390692030,414710.030000000,0.055176459,0.011773888,-0.992202699,0.000555947,0.000111205,-0.009923507,0.010981983,0.027060783,0.061727040,1,-0.007521892,0.002258049,0.000385198,1,-0.530184805,-0.088635415,9.791906357,1,0
1779390692040,414710.040000000,0.055355944,0.014558031,-0.994443357,0.000561859,0.000149557,-0.009941773,0.012661215,0.053717438,0.039743450,1,-0.003916985,-0.000786677,0.000033292,1,-0.530170679,-0.089170121,9.791902542,1,0
1779390692060,414710.060000000,0.058059003,0.004883064,-0.994509101,0.000580258,0.000059724,-0.009960342,0.039610911,-0.039738789,0.039135572,1,0.014927123,-0.002434696,-0.000349088,1,-0.529677451,-0.087160625,9.791947365,1,0
1779390692070,414710.070000000,0.055914294,0.002300781,-0.988544822,0.000566659,0.000022544,-0.009887011,0.018687416,-0.063903652,0.097642019,1,0.006321897,-0.000277416,-0.000656401,1,-0.529635727,-0.086270675,9.791956902,1,0
1779390692090,414710.090000000,0.050126012,0.011400921,-0.995622396,0.000497372,0.000105283,-0.009939370,-0.038426667,0.023567172,0.028199090,1,-0.016686182,0.000628299,-0.000654596,1,-0.530014396,-0.088758864,9.791914940,1,0
1779390692100,414710.100000000,0.050782122,0.011261401,-1.006389380,0.000499266,0.000113840,-0.010047935,-0.031898517,0.021063598,-0.077394791,1,-0.004985678,-0.002296042,0.000196592,1,-0.529829502,-0.089528084,9.791917801,1,0
1779390692120,414710.120000000,0.054269556,0.008293328,-0.995500684,0.000542012,0.000082580,-0.009968139,0.002395170,-0.007051464,0.029401585,1,0.008099075,0.001801857,0.000239998,1,-0.529861093,-0.088131942,9.791928291,1,0
1779390692130,414710.130000000,0.053756163,0.010361416,-0.988709450,0.000530204,0.000095939,-0.009884155,-0.002745809,0.013525683,0.095997825,1,-0.001379137,0.001260094,0.001062565,1,-0.529953122,-0.088126533,9.791923523,1,0
1779390692150,414710.150000000,0.056585569,0.006071492,-0.997886777,0.000555015,0.000066642,-0.009971783,0.025104683,-0.028834581,0.006001909,1,0.003671847,-0.001126089,-0.000043042,1,-0.529775083,-0.088261209,9.791932106,1,0
1779390692160,414710.160000000,0.058893267,0.002933414,-0.997686684,0.000590656,0.000027270,-0.009985936,0.047883008,-0.059010044,0.007977990,1,0.007532997,-0.000575421,-0.000157603,1,-0.529644668,-0.087542482,9.791945457,1,0
1779390692170,414710.170000000,0.056627799,0.003806816,-0.992182672,0.000572724,0.000033390,-0.009932693,0.025556257,-0.049981348,0.061951812,1,0.000275164,0.003022819,-0.000525221,1,-0.529866874,-0.087305769,9.791935921,1,0
1779390692180,414710.180000000,0.053188544,0.010011990,-0.989888728,0.000538143,0.000095167,-0.009898798,-0.008451360,0.010318600,0.084427141,1,-0.009164873,0.001967428,-0.000648010,1,-0.530113995,-0.088152237,9.791914940,1,0
1779390692190,414710.190000000,0.050427489,0.013315057,-0.994922996,0.000510530,0.000132526,-0.009943064,-0.035573438,0.041865814,0.035048626,1,-0.006328715,-0.001829384,-0.000413574,1,-0.530041099,-0.088908263,9.791912079,1,0
1779390692200,414710.200000000,0.051654596,0.010871656,-1.000562072,0.000516058,0.000121192,-0.010003262,-0.023235321,0.018025121,-0.020234514,1,0.007613254,-0.003906506,-0.000110961,1,-0.529672086,-0.088352308,9.791936874,1,0
1779390692220,414710.220000000,0.056564130,0.003935540,-0.989749968,0.000574029,0.000037181,-0.009904271,0.025462868,-0.047819827,0.085844792,1,0.004460317,-0.000117473,-0.000692917,1,-0.529237926,-0.086276442,9.791978836,1,0
1779390692230,414710.230000000,0.053333312,0.008852097,-0.988011897,0.000541426,0.000081945,-0.009870136,-0.006309087,-0.000092756,0.102880388,1,-0.011193357,0.001064265,-0.000467740,1,-0.529363275,-0.087251849,9.791963577,1,0
1779390692250,414710.250000000,0.053207859,0.011892851,-1.006723046,0.000526565,0.000121872,-0.010048985,-0.007399245,0.027571907,-0.080624469,1,-0.002724740,-0.002849652,-0.000964921,1,-0.529101014,-0.089143679,9.791960716,1,0
1779390692260,414710.260000000,0.054438680,0.010545410,-1.002713323,0.000540436,0.000107236,-0.010045103,0.004758527,0.014612034,-0.041296862,1,0.006699675,0.001133976,-0.001196128,1,-0.529137611,-0.088596307,9.791963577,1,0
1779390692280,414710.280000000,0.051704299,0.013065450,-0.989532709,0.000518307,0.000123325,-0.009881675,-0.022282684,0.039718185,0.087953031,1,-0.005468589,-0.000683324,0.000238717,1,-0.529307425,-0.088580161,9.791954041,1,0
1779390692290,414710.290000000,0.050653800,0.011729294,-0.996633947,0.000496199,0.000116000,-0.009952614,-0.032469004,0.026023189,0.018314347,1,-0.004821627,-0.001754815,0.000255575,1,-0.529158533,-0.089151762,9.791956902,1,0
1779390692310,414710.310000000,0.056185462,0.006338794,-1.000961423,0.000552886,0.000059966,-0.010025803,0.022151407,-0.026318755,-0.024099268,1,0.007774689,0.000672697,-0.000478558,1,-0.528860629,-0.088239573,9.791981697,1,0
1779390692320,414710.320000000,0.057692800,0.007449723,-0.991152167,0.000573924,0.000066930,-0.009926599,0.036618005,-0.014964943,0.072085157,1,-0.000248001,0.004881242,-0.001354336,1,-0.529307306,-0.088031463,9.791959763,1,0
1779390692330,414710.330000000,0.054848433,0.013007008,-0.985521317,0.000552999,0.000125089,-0.009855209,0.008266486,0.038893506,0.127274126,1,-0.009975619,0.004602743,0.000410768,1,-0.529756546,-0.088971898,9.791926384,1,0
1779390692350,414710.350000000,0.054960899,0.011086339,-0.998327315,0.000545635,0.000122570,-0.009972763,0.009238929,0.019178201,0.001674587,1,0.004663607,-0.002334460,0.000215222,1,-0.529670715,-0.089395925,9.791927338,1,0
1779390692360,414710.360000000,0.054496005,0.005839435,-0.995634258,0.000551403,0.000073551,-0.009970734,0.004942956,-0.031259537,0.028107554,1,0.014065333,-0.002027794,-0.000559385,1,-0.529416978,-0.088087380,9.791953087,1,0
1779390692380,414710.380000000,0.049562220,0.009809032,-0.991074443,0.000504496,0.000089481,-0.009902536,-0.043554567,0.008265687,0.072824016,1,-0.009134754,0.000210966,0.000336923,1,-0.529600620,-0.088212214,9.791941643,1,0
1779390692390,414710.390000000,0.050088026,0.012198439,-0.998648286,0.000502714,0.000121274,-0.009974828,-0.038456656,0.030718118,-0.001462205,1,-0.009634797,-0.000293181,0.000616603,1,-0.529643476,-0.089206979,9.791930199,1,0
1779390692410,414710.410000000,0.062076934,0.008628029,-0.996109128,0.000612542,0.000090622,-0.009980948,0.079100803,-0.004083700,0.023439810,1,0.010856427,0.001323592,0.000681843,1,-0.529707432,-0.088356242,9.791934967,1,0
1779390692420,414710.420000000,0.060462460,0.006824080,-0.985635102,0.000609158,0.000069056,-0.009865629,0.063134655,-0.020734452,0.126157045,1,0.007779236,0.001573498,0.000247494,1,-0.529848695,-0.087412938,9.791935921,1,0
1779390692440,414710.440000000,0.050860554,0.010630532,-0.992882848,0.000507089,0.000104802,-0.009909217,-0.031075109,0.016618168,0.055078737,1,-0.001289865,-0.002618002,0.000052255,1,-0.529765189,-0.087671854,9.791937828,1,0
1779390692450,414710.450000000,0.048214611,0.007111634,-1.004009485,0.000473553,0.000076603,-0.010021009,-0.056621101,-0.017735209,-0.054013662,1,0.005236599,-0.004129041,-0.000625725,1,-0.529316068,-0.087314360,9.791965485,1,0
1779390692470,414710.470000000,0.052062515,0.006542530,-0.998035014,0.000516779,0.000054497,-0.009991694,-0.018642737,-0.022188269,0.004599370,1,-0.000188374,0.001679168,-0.000830536,1,-0.529253721,-0.086355843,9.791976929,1,0
1779390692480,414710.480000000,0.053810794,0.012073244,-0.993604660,0.000529980,0.000110355,-0.009933112,-0.001774140,0.031503700,0.048026633,1,-0.009681477,0.003456885,0.000325140,1,-0.529585600,-0.087195605,9.791952133,1,0
1779390692490,414710.490000000,0.056844242,0.014552357,-0.996881664,0.000560536,0.000147108,-0.009963409,0.027782319,0.054900482,0.015871605,1,-0.006144996,0.000621008,0.000906188,1,-0.529688954,-0.087999403,9.791938782,1,0
1779390692510,414710.510000000,0.058622889,0.005444843,-0.994250715,0.000598190,0.000060622,-0.009960365,0.045429338,-0.033174630,0.041694082,1,0.013397665,-0.000595265,0.000179472,1,-0.529446363,-0.086152412,9.791968346,1,0
1779390692520,414710.520000000,0.053873304,0.005189580,-0.984953105,0.000552081,0.000052794,-0.009854962,-0.001230423,-0.034819487,0.132876292,1,0.003555212,0.000214517,-0.000560416,1,-0.529559672,-0.085606314,9.791967392,1,0
1779390692530,414710.530000000,0.048527837,0.008726568,-0.988866806,0.000496158,0.000086272,-0.009870771,-0.053656708,-0.000581015,0.094491564,1,-0.010152532,-0.000100785,0.000268432,1,-0.529549599,-0.086475685,9.791959763,1,0
1779390692540,414710.540000000,0.047534045,0.009951114,-1.000472546,0.000476236,0.000098257,-0.009992872,-0.063240342,0.010269590,-0.019323871,1,-0.011061163,-0.003392537,0.000649063,1,-0.529284596,-0.087661192,9.791963577,1,0
1779390692550,414710.550000000,0.052700095,0.007944525,-1.008693218,0.000519892,0.000085168,-0.010084411,-0.012239652,-0.010025894,-0.099927597,1,-0.001707026,-0.003578295,-0.000430215,1,-0.528939426,-0.087989010,9.791979790,1,0
1779390692570,414710.570000000,0.060815971,0.007927272,-0.990655303,0.000610255,0.000075720,-0.009923474,0.067276046,-0.009674786,0.076964110,1,-0.000323787,0.003301785,-0.000506369,1,-0.529227734,-0.087425716,9.791969299,1,0
1779390692580,414710.580000000,0.056688942,0.012331385,-0.985101342,0.000570872,0.000119307,-0.009843692,0.026527949,0.033088297,0.131411135,1,-0.006339208,0.001774563,-0.000161381,1,-0.529455960,-0.088039152,9.791951180,1,0
1779390692600,414710.600000000,0.050050240,0.009705037,-0.997283816,0.000496350,0.000105302,-0.009959873,-0.038371641,0.006841938,0.011948969,1,0.004895493,-0.001998415,0.000028330,1,-0.529134572,-0.088179328,9.791967392,1,0
1779390692610,414710.610000000,0.052726660,0.004843317,-0.994625807,0.000518789,0.000055026,-0.009950848,-0.011963614,-0.040045552,0.038030803,1,0.009344484,-0.000705436,0.000148315,1,-0.529013574,-0.087250769,9.791982651,1,0
1779390692620,414710.620000000,0.052140649,0.004950257,-0.992270231,0.000516609,0.000037282,-0.009925540,-0.017751643,-0.038544685,0.061132874,1,-0.001431426,0.001362851,-0.000947767,1,-0.529119015,-0.087136343,9.791977882,1,0
1779390692640,414710.640000000,0.052613262,0.014383852,-0.997795522,0.000520117,0.000139289,-0.009972258,-0.013493225,0.052108433,0.006910944,1,-0.008180287,0.000178058,-0.000272758,1,-0.529458582,-0.089204408,9.791940689,1,0
1779390692650,414710.650000000,0.055458043,0.013396515,-1.003051400,0.000546456,0.000135652,-0.010029151,0.014540670,0.042246535,-0.044624940,1,0.005044209,-0.001870494,-0.000035710,1,-0.529258668,-0.088971242,9.791953087,1,0
1779390692670,414710.670000000,0.056077871,0.006609656,-0.983513296,0.000568133,0.000063929,-0.009846672,0.020530498,-0.021794060,0.146995306,1,0.007932776,0.001715965,0.000225727,1,-0.529459119,-0.086365014,9.791966438,1,0
1779390692680,414710.680000000,0.051654663,0.009030130,-0.982265830,0.000527242,0.000090285,-0.009813105,-0.022944078,0.001968165,0.159223244,1,-0.004935312,-0.000059180,0.000609935,1,-0.529501617,-0.086739972,9.791960716,1,0
1779390692700,414710.700000000,0.050351761,0.007641133,-1.005275011,0.000505954,0.000082428,-0.010038486,-0.035382602,-0.012494270,-0.066407949,1,0.001890597,-0.003546241,-0.000529425,1,-0.529054046,-0.087370150,9.791978836,1,0
1779390692710,414710.710000000,0.052240040,0.006086589,-1.004970908,0.000524853,0.000063286,-0.010062028,-0.016629072,-0.027221970,-0.063409150,1,0.006880208,-0.001631986,-0.000460613,1,-0.528877914,-0.086697347,9.791994095,1,0
1779390692730,414710.730000000,0.052366171,0.011098325,-0.993229806,0.000525920,0.000104738,-0.009926459,-0.015498733,0.022124350,0.051728688,1,-0.006081469,0.001046698,-0.000033874,1,-0.529067814,-0.086902693,9.791982651,1,0
1779390692740,414710.740000000,0.053888392,0.012327638,-0.996728241,0.000534122,0.000127914,-0.009960067,-0.000617911,0.033719979,0.017413443,1,-0.002090105,-0.000478484,0.000753574,1,-0.529067814,-0.087236740,9.791979790,1,0
1779390692760,414710.760000000,0.061875124,0.003018362,-0.994136751,0.000615685,0.000033416,-0.009946201,0.077829286,-0.056384236,0.042844709,1,0.009540409,-0.000635554,-0.000506177,1,-0.528938472,-0.085687749,9.791999817,1,0
1779390692770,414710.770000000,0.057454646,0.003002632,-0.988751650,0.000577771,0.000021159,-0.009888768,0.034422919,-0.056025825,0.095655993,1,0.000119007,0.001991812,-0.000576501,1,-0.529076636,-0.085468858,9.791994095,1,0
1779390692780,414710.780000000,0.052028809,0.009779350,-0.990545273,0.000517797,0.000083918,-0.009889551,-0.019010916,0.009760112,0.078048095,1,-0.011670182,0.001370075,-0.000221041,1,-0.529281914,-0.086506680,9.791974068,1,0
1779390692800,414710.800000000,0.050966870,0.010510690,-1.009844184,0.000496456,0.000111743,-0.010092646,-0.029165203,0.015407381,-0.111208558,1,0.001700818,-0.002052614,-0.000258482,1,-0.528915465,-0.087614693,9.791984558,1,0
1779390692810,414710.810000000,0.058231898,0.006251705,-1.001832008,0.000569806,0.000065060,-0.010043107,0.042082261,-0.025740648,-0.032631207,1,0.008247952,0.001828512,0.000105976,1,-0.529034615,-0.086791672,9.791985512,1,0
1779390692830,414710.830000000,0.056633092,0.011291283,-0.984130204,0.000570816,0.000101283,-0.009838290,0.025833679,0.023669593,0.140934035,1,-0.010874312,0.002785087,0.000674688,1,-0.529634297,-0.087397881,9.791947365,1,0
1779390692840,414710.840000000,0.054678250,0.012759721,-0.990015388,0.000551642,0.000129880,-0.009891098,0.006533680,0.037064455,0.083203897,1,-0.007839175,-0.000363136,0.000125981,1,-0.529665530,-0.088309795,9.791937828,1,0
1779390692860,414710.860000000,0.054628789,0.006562324,-0.998415470,0.000545843,0.000068419,-0.009995766,0.006579768,-0.023212783,0.000860522,1,0.007194660,-0.001602816,-0.000094591,1,-0.529095709,-0.087343112,9.791976929,1,0
1779390692870,414710.870000000,0.053899948,0.007122287,-0.992097497,0.000546779,0.000068236,-0.009927162,-0.000544103,-0.017346837,0.062823169,1,-0.001233100,-0.000072663,-0.000399785,1,-0.529119670,-0.087231718,9.791976929,1,0
1779390692890,414710.890000000,0.051195394,0.014747306,-0.996055365,0.000511104,0.000149285,-0.009953336,-0.027042212,0.055412490,0.023992708,1,-0.008823865,-0.002411842,0.000860191,1,-0.529022634,-0.089482762,9.791961670,1,0
1779390692900,414710.900000000,0.054584350,0.011603098,-1.001315117,0.000545057,0.000126192,-0.010006573,0.006515801,0.024468660,-0.027571131,1,0.005495265,-0.004929604,0.000430604,1,-0.528620303,-0.089146860,9.791986465,1,0
1779390692910,414710.910000000,0.056064900,0.007282213,-0.997721136,0.000561212,0.000075655,-0.009987760,0.021448050,-0.016755374,0.007706319,1,0.014766333,-0.003444396,-0.000157808,1,-0.528253436,-0.087709509,9.792018890,1,0
1779390692930,414710.930000000,0.051416770,0.009727675,-0.986112058,0.000517499,0.000087380,-0.009849617,-0.024283549,0.008181434,0.121552959,1,-0.007752880,0.001248399,-0.000223974,1,-0.528549194,-0.087456644,9.792005539,1,0
1779390692940,414710.940000000,0.046841860,0.012961147,-0.994784832,0.000460172,0.000124712,-0.009931716,-0.069165036,0.038818307,0.036492098,1,-0.010819204,-0.000745211,-0.000219058,1,-0.528503537,-0.088624731,9.791997910,1,0
1779390692960,414710.960000000,0.053890683,0.006784751,-1.003779054,0.000531396,0.000070518,-0.010049166,0.000224708,-0.021930255,-0.051698804,1,0.008517148,-0.000114288,0.000287590,1,-0.528258920,-0.088199988,9.792014122,1,0
1779390692970,414710.970000000,0.053975549,0.005728451,-0.994952023,0.000537625,0.000052765,-0.009962362,0.000944521,-0.031522334,0.034866087,1,0.004578192,0.003141783,0.000598240,1,-0.528472960,-0.087555550,9.792008400,1,0
1779390692990,414710.990000000,0.051553924,0.013272883,-0.992674530,0.000512996,0.000132590,-0.009914801,-0.023208417,0.041711185,0.057171725,1,-0.005891923,0.000450881,0.000819183,1,-0.528794050,-0.088633619,9.791981697,1,0
1779390693000,414711.000000000,0.052405730,0.009951657,-0.998231173,0.000518068,0.000106216,-0.009976130,-0.014660426,0.009063422,0.002689249,1,0.003287694,-0.002651178,0.000750008,1,-0.528502703,-0.088425271,9.791998863,1,0
1779390693020,414711.020000000,0.059025619,0.001792905,-0.989352643,0.000603336,0.000016441,-0.009899993,0.050424781,-0.069231883,0.089782692,1,0.003962019,0.001295257,-0.000304119,1,-0.528459072,-0.086691298,9.792016983,1,0
1779390693030,414711.030000000,0.053337190,0.007488050,-0.985457659,0.000545601,0.000071087,-0.009853767,-0.005613168,-0.013797893,0.127962261,1,-0.009391340,0.002913575,-0.000489014,1,-0.528763056,-0.087524116,9.791993141,1,0
1779390693050,414711.050000000,0.050426200,0.010446688,-1.005399466,0.000509915,0.000113280,-0.010036481,-0.033907555,0.013426762,-0.067602471,1,0.000040891,-0.005710976,-0.000964797,1,-0.528241396,-0.089020610,9.792008400,1,0
1779390693060,414711.060000000,0.053361211,0.006742802,-1.006562710,0.000525636,0.000075124,-0.010082269,-0.004835229,-0.022267848,-0.078990079,1,0.010173249,-0.000832777,-0.001168961,1,-0.528103709,-0.088077031,9.792023659,1,0
1779390693070,414711.070000000,0.054113284,0.006485566,-0.993542135,0.000548865,0.000061419,-0.009950867,0.002398450,-0.023903184,0.048699502,1,0.005549829,0.001712946,-0.000161646,1,-0.528324962,-0.087332152,9.792018890,1,0
1779390693090,414711.090000000,0.051984310,0.012379024,-0.996201158,0.000514082,0.000120150,-0.009948483,-0.018783702,0.032804161,0.022596840,1,-0.009247118,0.000309445,0.000379019,1,-0.528585434,-0.088880189,9.791990280,1,0
1779390693100,414711.100000000,0.056376368,0.009406052,-1.002948523,0.000554724,0.000101306,-0.010022020,0.024348594,0.003264613,-0.043572113,1,0.001482136,-0.001558762,0.000203538,1,-0.528466225,-0.088930711,9.791996956,1,0
1779390693120,414711.120000000,0.059502315,0.005184879,-0.990981042,0.000591460,0.000045362,-0.009922173,0.055024158,-0.036625624,0.073803782,1,0.005329029,0.003745170,-0.000328106,1,-0.528606534,-0.087303631,9.792003632,1,0
1779390693130,414711.130000000,0.055330232,0.010621840,-0.985818207,0.000560195,0.000091345,-0.009857162,0.013775263,0.016446698,0.124413311,1,-0.008452916,0.003183381,-0.000079600,1,-0.528927922,-0.087981410,9.791980743,1,0
1779390693150,414711.150000000,0.051004186,0.011487462,-0.998531401,0.000502827,0.000124248,-0.009980953,-0.028656133,0.023602521,-0.000272995,1,0.001668285,-0.002910184,0.000737796,1,-0.528745890,-0.088997759,9.791980743,1,0
1779390693160,414711.160000000,0.054908346,0.004563517,-0.999537230,0.000545438,0.000053515,-0.010006215,0.010093361,-0.043493833,-0.010104821,1,0.012151813,-0.004508475,0.000388767,1,-0.528233171,-0.087867238,9.792018890,1,0
1779390693180,414711.180000000,0.055445082,0.007841294,-0.988228559,0.000563681,0.000067148,-0.009890574,0.015367520,-0.010256603,0.100805715,1,-0.007536461,0.003005575,-0.000134349,1,-0.528456688,-0.087388560,9.792011261,1,0
1779390693190,414711.190000000,0.051699955,0.013356239,-0.990036249,0.000527620,0.000129310,-0.009891873,-0.021603215,0.042635839,0.083054721,1,-0.013098181,0.001609274,-0.000520229,1,-0.528656602,-0.088753261,9.791988373,1,0
1779390693200,414711.200000000,0.053842727,0.013203872,-0.998658359,0.000536064,0.000143591,-0.009976751,-0.000578211,0.040347070,-0.001505920,1,-0.002004008,-0.001749554,0.000064471,1,-0.528540492,-0.089201048,9.791990280,1,0
1779390693220,414711.220000000,0.052755971,0.005531854,-0.988804400,0.000535936,0.000058497,-0.009902264,-0.011134245,-0.033213191,0.095148548,1,0.009311029,0.001048385,-0.000237915,1,-0.528526187,-0.087172344,9.792009354,1,0
1779390693230,414711.230000000,0.049149010,0.009250026,-0.986084402,0.000498371,0.000087729,-0.009851055,-0.046568375,0.003398749,0.121821135,1,-0.005007006,-0.000136109,-0.000150066,1,-0.528551280,-0.087469347,9.792005539,1,0
1779390693250,414711.250000000,0.047140159,0.010518063,-1.006775260,0.000462695,0.000113229,-0.010057641,-0.065902434,0.014365019,-0.081080481,1,-0.001042250,-0.002891810,0.000317220,1,-0.528099477,-0.088813886,9.792017937,1,0
1779390693260,414711.260000000,0.054864131,0.007588283,-1.006427169,0.000533658,0.000074808,-0.010075228,0.010034407,-0.013971258,-0.077652112,1,0.008105114,-0.000667588,-0.000074373,1,-0.527978122,-0.088134401,9.792030334,1,0
1779390693280,414711.280000000,0.059078902,0.011036886,-0.985300601,0.000588533,0.000097880,-0.009863008,0.050728090,0.020802706,0.129502699,1,-0.005175377,0.006361398,-0.000526246,1,-0.528836191,-0.087594382,9.791988373,1,0
1779390693290,414711.290000000,0.056119066,0.015180979,-0.985058546,0.000553946,0.000149869,-0.009842166,0.021230375,0.060536746,0.131842047,1,-0.008917265,0.003649509,0.000189306,1,-0.529223502,-0.088615440,9.791958809,1,0
1779390693310,414711.310000000,0.052164789,0.005926967,-0.999631107,0.000522405,0.000062510,-0.009997264,-0.017073045,-0.029765494,-0.011035947,1,0.012072290,-0.003902377,-0.000106006,1,-0.528513253,-0.087513082,9.792006493,1,0
1779390693320,414711.320000000,0.049326960,0.003138311,-0.994946778,0.000492175,0.000026624,-0.009960155,-0.044747539,-0.056109171,0.034918379,1,0.007985197,0.000065464,-0.001009817,1,-0.528485298,-0.086643010,9.792016029,1,0
1779390693340,414711.340000000,0.048082329,0.013586117,-1.003398061,0.000479186,0.000131610,-0.010025929,-0.057045534,0.044917446,-0.047978550,1,-0.014784537,0.001459704,0.000068208,1,-0.528617680,-0.088777587,9.791990280,1,0
1779390693350,414711.350000000,0.054604355,0.012457102,-1.006901145,0.000536215,0.000136342,-0.010072768,0.006822677,0.032948125,-0.082343943,1,-0.002952200,0.000692435,0.000435259,1,-0.528684855,-0.089305609,9.791981697,1,0
1779390693360,414711.360000000,0.062275652,0.007353843,-1.000420928,0.000621758,0.000079627,-0.010026772,0.081930459,-0.016625393,-0.018795758,1,0.010517219,0.001470059,0.000526659,1,-0.528831065,-0.088413268,9.791981697,1,0
1779390693380,414711.380000000,0.058380812,0.007120793,-0.978971303,0.000598429,0.000067925,-0.009796977,0.043078817,-0.017444622,0.191528857,1,-0.003231834,0.004223482,-0.000185189,1,-0.529573023,-0.087376788,9.791951180,1,0
1779390693390,414711.390000000,0.049722057,0.010957731,-0.984476805,0.000514883,0.000105487,-0.009826581,-0.042093094,0.019454179,0.137517914,1,-0.009232145,-0.000379267,-0.000018248,1,-0.529688120,-0.088292241,9.791936874,1,0
1779390693410,414711.410000000,0.050290436,0.005345060,-1.006381750,0.000494995,0.000060705,-0.010065795,-0.035933204,-0.035986874,-0.077268779,1,0.006826042,-0.003871464,-0.000468300,1,-0.528993189,-0.088192038,9.791975021,1,0
1779390693420,414711.420000000,0.053059127,0.004081340,-1.002251625,0.000527562,0.000036623,-0.010027543,-0.008603388,-0.047709670,-0.036749691,1,0.004758984,-0.000290264,-0.000687754,1,-0.528926492,-0.087586768,9.791983604,1,0
1779390693440,414711.440000000,0.059259035,0.013809022,-0.993914247,0.000581916,0.000133605,-0.009926623,0.051673431,0.046585102,0.044973731,1,-0.009517070,0.002310016,0.000777426,1,-0.529531479,-0.089130484,9.791936874,1,0
1779390693450,414711.450000000,0.059687294,0.012080648,-0.996731997,0.000590230,0.000125747,-0.009961098,0.055923235,0.029295754,0.017340599,1,0.003101509,-0.001638947,0.000463130,1,-0.529358268,-0.089077488,9.791947365,1,0
1779390693470,414711.470000000,0.056503184,0.004340800,-0.984155655,0.000571737,0.000039541,-0.009847732,0.024850709,-0.044241991,0.140702352,1,0.010379258,0.000301782,-0.000772529,1,-0.529265523,-0.086488493,9.791975021,1,0
1779390693480,414711.480000000,0.049126964,0.008460588,-0.983556986,0.000500094,0.000072405,-0.009831135,-0.047502995,-0.003724155,0.146573737,1,-0.006022790,0.000591412,-0.000575814,1,-0.529292285,-0.086882882,9.791970253,1,0
1779390693490,414711.490000000,0.045056760,0.010651638,-0.993981659,0.000446066,0.000101375,-0.009922065,-0.087363981,0.016630771,0.044334907,1,-0.014126895,-0.001795906,-0.000326382,1,-0.529163837,-0.088266984,9.791965485,1,0
1779390693510,414711.510000000,0.053362895,0.007348026,-1.009557128,0.000527547,0.000076165,-0.010114674,-0.005173466,-0.016593616,-0.108376957,1,0.006659524,-0.001814988,-0.000241888,1,-0.528428137,-0.088445984,9.792002678,1,0
1779390693520,414711.520000000,0.057992779,0.006478268,-0.997372389,0.000578325,0.000067305,-0.009994421,0.040262453,-0.024235869,0.011125518,1,0.007274183,0.001838800,-0.000310204,1,-0.528505325,-0.087534353,9.792007446,1,0
1779390693540,414711.540000000,0.054475352,0.013237536,-0.985394657,0.000556013,0.000134927,-0.009850330,0.005213886,0.041679464,0.128553972,1,-0.007064082,0.001290053,0.000293584,1,-0.529047132,-0.088356093,9.791970253,1,0
1779390693550,414711.550000000,0.053999826,0.010976619,-0.991475821,0.000543365,0.000122073,-0.009903650,0.000549121,0.019213112,0.068915151,1,0.001085974,-0.001776154,-0.000152967,1,-0.528952897,-0.088397168,9.791975021,1,0
1779390693570,414711.570000000,0.050567903,0.004111593,-0.995013177,0.000513930,0.000041252,-0.009952744,-0.032689571,-0.046739627,0.034259830,1,0.004058735,-0.000479963,-0.001129814,1,-0.528576016,-0.086935982,9.792008400,1,0
1779390693580,414711.580000000,0.048265580,0.009376945,-0.995463908,0.000482228,0.000084685,-0.009947719,-0.055361692,0.004528672,0.029831653,1,-0.008881913,0.001146498,-0.000958142,1,-0.528720796,-0.087706201,9.791994095,1,0
1779390693600,414711.600000000,0.052269902,0.012655211,-1.008680940,0.000512172,0.000133956,-0.010079295,-0.016100314,0.034983806,-0.099799208,1,0.000881434,-0.000474197,-0.000083802,1,-0.528678179,-0.089094087,9.791983604,1,0
1779390693610,414711.610000000,0.060459848,0.009546814,-1.002177000,0.000592554,0.000097474,-0.010039283,0.064217925,0.005184705,-0.036011506,1,0.011618041,0.000972735,0.000236555,1,-0.528721094,-0.088075042,9.791990280,1,0
1779390693630,414711.630000000,0.056330528,0.008969638,-0.979311407,0.000564430,0.000079553,-0.009786725,0.023205284,0.001005388,0.188209161,1,-0.003841995,0.002349601,0.000833722,1,-0.529281974,-0.087075070,9.791969299,1,0
1779390693640,414711.640000000,0.052911151,0.011013372,-0.987409294,0.000526586,0.000106287,-0.009852921,-0.010400251,0.020294439,0.108786456,1,-0.008641725,-0.000878688,0.000074325,1,-0.529254079,-0.087979078,9.791962624,1,0
1779390693650,414711.650000000,0.049667001,0.008647379,-1.001121998,0.000496741,0.000095229,-0.009996085,-0.041896831,-0.003426828,-0.025677126,1,-0.000854980,-0.003793811,-0.000361186,1,-0.528845429,-0.088255912,9.791982651,1,0
1779390693670,414711.670000000,0.053772472,0.005891931,-1.000815868,0.000540497,0.000057024,-0.010021258,-0.001113162,-0.029559251,-0.022638261,1,0.003182830,0.000596225,-0.000594962,1,-0.528459430,-0.087241158,9.792012215,1,0
1779390693680,414711.680000000,0.052702893,0.010473917,-0.994173110,0.000531021,0.000096783,-0.009953330,-0.011846468,0.014977142,0.042487610,1,-0.009270897,0.003900232,-0.000089590,1,-0.528806865,-0.088026017,9.791986465,1,0
1779390693700,414711.700000000,0.057412516,0.010772632,-0.994814157,0.000578705,0.000121625,-0.009945481,0.034055699,0.016746357,0.036174558,1,0.005350561,-0.002365241,0.000263620,1,-0.528895140,-0.088729866,9.791975021,1,0
1779390693710,414711.710000000,0.058419783,0.006315554,-0.991395354,0.000592411,0.000072004,-0.009928520,0.044153642,-0.025994357,0.069722518,1,0.012459517,-0.001496737,-0.000228928,1,-0.528702080,-0.087540820,9.791996002,1,0
1779390693730,414711.730000000,0.051354725,0.008275948,-0.986091733,0.000524639,0.000079030,-0.009847211,-0.025201680,-0.005873885,0.121737510,1,-0.007488813,-0.000476231,-0.000728534,1,-0.528804898,-0.087268151,9.791993141,1,0
1779390693740,414711.740000000,0.048933685,0.011227660,-0.998590529,0.000490047,0.000106832,-0.009970902,-0.048797339,0.022154402,-0.000833686,1,-0.009393867,-0.002412375,-0.000674897,1,-0.528597534,-0.088245295,9.791996002,1,0
1779390693770,414711.770000000,0.057649907,0.005504311,-0.994563699,0.000570838,0.000047745,-0.009958297,0.037116241,-0.033062652,0.038687408,1,0.005317917,0.001473427,-0.000202267,1,-0.528282166,-0.086876087,9.792024612,1,0
1779390693780,414711.780000000,0.055551451,0.009908068,-0.985722721,0.000553190,0.000090231,-0.009856079,0.016323235,0.010043232,0.125375345,1,-0.004676627,0.002323732,-0.000301753,1,-0.528522789,-0.087268002,9.792008400,1,0
1779390693800,414711.800000000,0.051809564,0.008676082,-0.998985648,0.000508745,0.000092880,-0.009971873,-0.020242723,-0.002891690,-0.004689961,1,0.001613996,-0.002317505,-0.000056900,1,-0.528248787,-0.087924778,9.792017937,1,0
1779390693810,414711.810000000,0.053419016,0.005949213,-1.000133753,0.000528311,0.000057141,-0.010007703,-0.004278471,-0.029258778,-0.015936244,1,0.004642677,-0.000349745,-0.000477112,1,-0.528129101,-0.087456726,9.792028427,1,0
1779390693830,414711.830000000,0.049637079,0.011442435,-0.994440198,0.000496191,0.000104543,-0.009938336,-0.041662801,0.023970932,0.039876767,1,-0.012882515,0.003361898,-0.000404130,1,-0.528540969,-0.088643245,9.791995049,1,0
1779390693840,414711.840000000,0.051452134,0.013890142,-0.999266446,0.000519536,0.000145961,-0.009990053,-0.024035698,0.046689756,-0.007473536,1,-0.010622325,0.000899031,0.000465242,1,-0.528636992,-0.089856312,9.791978836,1,0
1779390693860,414711.860000000,0.058096170,0.007383001,-0.993628502,0.000581954,0.000081467,-0.009949731,0.041237917,-0.016595587,0.047826953,1,0.010703527,-0.000478754,0.000150508,1,-0.528476059,-0.088664226,9.791998863,1,0
1779390693890,414711.890000000,0.049584866,0.009531821,-0.995204091,0.000498372,0.000099919,-0.009927994,-0.042355366,0.004356972,0.032368515,1,-0.009530319,-0.001928839,-0.000211996,1,-0.528556645,-0.089415677,9.791987419,1,0
1779390693900,414711.900000000,0.051690146,0.008440931,-1.005705118,0.000515893,0.000085698,-0.010049894,-0.021502353,-0.006929758,-0.070606455,1,-0.002241599,-0.001842040,-0.000706449,1,-0.528351963,-0.089778073,9.791995049,1,0
1779390693920,414711.920000000,0.054414924,0.009545333,-0.993362904,0.000541590,0.000088872,-0.009939441,0.005043387,0.004345628,0.050424375,1,0.000133023,0.002012573,-0.000564228,1,-0.528644323,-0.089255743,9.791984558,1,0
1779390693930,414711.930000000,0.054129601,0.014014867,-0.989017785,0.000543287,0.000136335,-0.009885194,0.002070837,0.047830112,0.093023330,1,-0.004916307,0.001161510,-0.000008688,1,-0.528795242,-0.089761838,9.791971207,1,0
1779390693940,414711.940000000,0.053871043,0.014240694,-0.993692935,0.000534511,0.000140574,-0.009927081,-0.000508949,0.049748182,0.047170091,1,-0.000665880,-0.001117327,0.000584595,1,-0.528768778,-0.089925081,9.791971207,1,0
1779390693960,414711.960000000,0.058973406,0.005369323,-0.994705975,0.000587313,0.000055822,-0.009953928,0.049787935,-0.035812195,0.037262935,1,0.011796921,-0.001055380,-0.000350916,1,-0.528510630,-0.088100173,9.792001724,1,0
1779390693970,414711.970000000,0.055709571,0.006299178,-0.989116848,0.000554886,0.000049959,-0.009895466,0.017737752,-0.026023012,0.092077203,1,0.001133627,0.001599151,-0.000614748,1,-0.528636217,-0.087762542,9.791997910,1,0
1779390693990,414711.990000000,0.052600671,0.011803603,-1.000427127,0.000525129,0.000117546,-0.009992959,-0.012806628,0.026581004,-0.018855076,1,-0.006129538,-0.001460065,-0.000513781,1,-0.528597355,-0.089364722,9.791985512,1,0
1779390694000,414712.000000000,0.054378610,0.009026485,-1.005523443,0.000538377,0.000096418,-0.010057369,0.004842720,-0.000652286,-0.068819672,1,0.005347548,-0.001334415,-0.001012416,1,-0.528387427,-0.089006908,9.791999817,1,0
1779390694020,414712.020000000,0.053540614,0.007386222,-0.987892270,0.000543535,0.000071341,-0.009890657,-0.003322887,-0.015087921,0.104099609,1,0.003525833,0.000475568,-0.000428579,1,-0.528391659,-0.087412842,9.792014122,1,0
1779390694030,414712.030000000,0.051425319,0.009595289,-0.989256203,0.000520142,0.000097339,-0.009883480,-0.024040079,0.006365669,0.090723388,1,-0.005272579,-0.001237951,0.000279531,1,-0.528311729,-0.087895848,9.792014122,1,0
1779390694050,414712.050000000,0.053091165,0.005243815,-1.004303813,0.000536279,0.000061524,-0.010041764,-0.007260716,-0.036601909,-0.056822199,1,0.005296235,-0.003864070,-0.000552847,1,-0.527786672,-0.087862022,9.792042732,1,0
1779390694060,414712.060000000,0.054875530,0.005208830,-0.997862101,0.000553205,0.000053194,-0.009995071,0.010366250,-0.036252059,0.006363816,1,0.007590413,0.000009736,-0.000427671,1,-0.527779043,-0.087097369,9.792050362,1,0
1779390694070,414712.070000000,0.053984828,0.006799232,-0.990677893,0.000547898,0.000065811,-0.009913073,0.001489799,-0.020364109,0.076811135,1,-0.002286692,0.001465882,-0.001167753,1,-0.527965903,-0.087115034,9.792039871,1,0
1779390694090,414712.090000000,0.050553031,0.012043186,-0.997610986,0.000500893,0.000119060,-0.009963580,-0.032392982,0.029377075,0.008793068,1,-0.005545118,-0.000367947,0.000898224,1,-0.528137684,-0.088897578,9.792015076,1,0
1779390694100,414712.100000000,0.053666689,0.007692163,-1.001247883,0.000534432,0.000082703,-0.010013386,-0.001758515,-0.013190549,-0.026865570,1,0.005724500,-0.001010872,0.000140596,1,-0.528017521,-0.088446237,9.792025566,1,0
1779390694120,414712.120000000,0.053878348,0.006925318,-0.985934615,0.000528606,0.000060664,-0.009862947,0.000161493,-0.019316304,0.123309672,1,0.001334880,0.001879895,-0.000118709,1,-0.528265595,-0.087188758,9.792022705,1,0
1779390694130,414712.130000000,0.051915105,0.010410398,-0.988852620,0.000517000,0.000098975,-0.009868810,-0.019137381,0.014509858,0.094688557,1,-0.005980445,-0.000561733,-0.000283738,1,-0.528233230,-0.087768137,9.792019844,1,0
1779390694150,414712.150000000,0.057309475,0.007393275,-1.002792001,0.000564383,0.000075648,-0.010034970,0.033969291,-0.015374414,-0.042002797,1,0.004744380,-0.000397572,-0.000534974,1,-0.528032184,-0.087730698,9.792031288,1,0
1779390694160,414712.160000000,0.056242835,0.005569572,-0.993321419,0.000562497,0.000054365,-0.009949056,0.023454677,-0.032606348,0.050875954,1,0.006365858,0.002332654,-0.000939931,1,-0.528171599,-0.087028354,9.792029381,1,0
1779390694180,414712.180000000,0.050267801,0.012755675,-0.990763545,0.000507981,0.000128482,-0.009893928,-0.035383187,0.037289489,0.075941809,1,-0.007893301,0.000211735,-0.000278888,1,-0.528348446,-0.088047460,9.792011261,1,0
1779390694190,414712.190000000,0.048957668,0.011848219,-0.998998940,0.000491958,0.000122254,-0.009979663,-0.048088208,0.027957505,-0.004816396,1,-0.000829331,-0.002284262,0.000256485,1,-0.528127849,-0.088259257,9.792020798,1,0
1779390694210,414712.210000000,0.054956939,0.005800583,-0.998833537,0.000554022,0.000061208,-0.010000499,0.011089424,-0.030096535,-0.003164927,1,0.006797813,0.000863577,-0.001002806,1,-0.527880728,-0.086770631,9.792047501,1,0
1779390694220,414712.220000000,0.054456577,0.010220372,-0.991806507,0.000556927,0.000095724,-0.009928863,0.005911151,0.013354398,0.065733090,1,-0.004775529,0.003270528,-0.000196252,1,-0.528227389,-0.087022394,9.792026520,1,0
1779390694230,414712.230000000,0.054594364,0.013266726,-0.992135167,0.000549766,0.000136651,-0.009917639,0.006912194,0.042319916,0.062483128,1,-0.010300514,0.002214836,-0.000014004,1,-0.528544664,-0.088103309,9.791999817,1,0
1779390694250,414712.250000000,0.057574373,0.009210296,-1.001199245,0.000579602,0.000094851,-0.010016264,0.036209304,0.002509931,-0.026401263,1,0.009296714,-0.002138372,-0.000275514,1,-0.528335750,-0.087522924,9.792016029,1,0
1779390694260,414712.260000000,0.056786101,0.007119240,-0.993137598,0.000567611,0.000078266,-0.009943591,0.028478008,-0.016950989,0.052665494,1,0.009429841,0.000993272,-0.000449107,1,-0.528434277,-0.086473726,9.792020798,1,0
1779390694280,414712.280000000,0.052945439,0.011193835,-0.997311354,0.000523034,0.000104975,-0.009951369,-0.009285245,0.022375807,0.011724456,1,-0.011583088,-0.000161459,0.000368618,1,-0.528497756,-0.087758638,9.792005539,1,0
1779390694290,414712.290000000,0.056127898,0.011535130,-1.004127026,0.000548527,0.000119960,-0.010027846,0.021951875,0.024856135,-0.055120606,1,-0.004785226,-0.000261954,0.000244953,1,-0.528466702,-0.088413604,9.792001724,1,0
1779390694310,414712.310000000,0.057348359,0.009648943,-0.990316093,0.000572006,0.000095282,-0.009919156,0.033922572,0.006966413,0.080324434,1,0.005707728,0.001233396,-0.000488725,1,-0.528511047,-0.087480329,9.792007446,1,0
1779390694320,414712.320000000,0.054339927,0.011864836,-0.984565020,0.000546973,0.000111071,-0.009845855,0.004229038,0.028789531,0.136713162,1,-0.001726818,0.000568115,-0.000438397,1,-0.528687716,-0.087623999,9.791996956,1,0
1779390694340,414712.340000000,0.050845332,0.009156421,-0.999287546,0.000502262,0.000100019,-0.009984151,-0.029684573,0.001546660,-0.007652335,1,0.000604022,-0.002443452,0.000604349,1,-0.528231025,-0.088227339,9.792016029,1,0
1779390694350,414712.350000000,0.053024698,0.005734375,-0.999145269,0.000532607,0.000059587,-0.010003699,-0.008060306,-0.031663980,-0.006240966,1,0.005569264,-0.001262877,0.000396815,1,-0.528015733,-0.087724738,9.792032242,1,0
1779390694360,414712.360000000,0.052705500,0.005158878,-0.993052363,0.000532727,0.000051960,-0.009939458,-0.011209032,-0.036885463,0.053512756,1,0.002090745,0.001825642,-0.000794194,1,-0.528130174,-0.087412938,9.792028427,1,0
1779390694380,414712.380000000,0.050901860,0.012537037,-0.992799103,0.000513715,0.000128109,-0.009919021,-0.029187219,0.034362476,0.055971317,1,-0.007063129,0.000071531,0.000478209,1,-0.528366327,-0.088803217,9.792003632,1,0
1779390694390,414712.390000000,0.052516591,0.009247834,-0.999174178,0.000524432,0.000105883,-0.009984130,-0.013214134,0.001937452,-0.006540377,1,0.003692219,-0.002943232,0.000243894,1,-0.528134346,-0.088637330,9.792016983,1,0
1779390694410,414712.410000000,0.051438760,0.005522510,-0.988352358,0.000517619,0.000057734,-0.009893344,-0.023639919,-0.032977540,0.099607192,1,0.006440932,0.000745245,-0.000967419,1,-0.528104842,-0.086935729,9.792034149,1,0
1779390694420,414712.420000000,0.050193772,0.007792938,-0.987168252,0.000506973,0.000073645,-0.009864189,-0.035952173,-0.010804606,0.111212738,1,-0.006335746,0.000019476,-0.000143360,1,-0.528185546,-0.087424941,9.792025566,1,0
1779390694440,414712.440000000,0.052257299,0.008181784,-1.004909515,0.000511637,0.000083945,-0.010040351,-0.015536272,-0.008082953,-0.062770091,1,0.000529062,-0.001882280,-0.000814514,1,-0.527946413,-0.088303730,9.792030334,1,0
1779390694450,414712.450000000,0.056217913,0.008138292,-1.001084208,0.000556314,0.000075292,-0.010026447,0.023356171,-0.008087213,-0.025249869,1,0.006572305,0.000184335,-0.000958425,1,-0.527958751,-0.087693356,9.792035103,1,0
1779390694470,414712.470000000,0.056643005,0.009689562,-0.987208605,0.000559099,0.000092329,-0.009863435,0.027075103,0.007519071,0.110803112,1,-0.004619061,0.002299848,0.000056151,1,-0.528474808,-0.087646961,9.792007446,1,0
1779390694480,414712.480000000,0.055593576,0.011369608,-0.993305087,0.000556846,0.000109645,-0.009922651,0.016728826,0.023483979,0.051009808,1,-0.003751708,-0.000613686,0.000233110,1,-0.528438926,-0.088130340,9.792005539,1,0
1779390694500,414712.500000000,0.054310430,0.006272039,-0.997493267,0.000546670,0.000060908,-0.009985595,0.004405408,-0.025714241,0.009958355,1,0.008138207,-0.001167153,-0.000527840,1,-0.528161466,-0.086969167,9.792030334,1,0
1779390694510,414712.510000000,0.050648425,0.006470914,-0.992948234,0.000512876,0.000054585,-0.009935101,-0.031475458,-0.023242652,0.054536499,1,0.000931143,0.000375115,-0.000467216,1,-0.528178453,-0.086672403,9.792032242,1,0
1779390694520,414712.520000000,0.049347527,0.009270402,-0.994075477,0.000493288,0.000091275,-0.009931648,-0.044211674,0.003836561,0.043479793,1,-0.007311014,0.001492971,-0.000015654,1,-0.528186977,-0.087299004,9.792026520,1,0
1779390694540,414712.540000000,0.056842364,0.009049782,-1.004892588,0.000566662,0.000100607,-0.010054082,0.029488692,0.000878215,-0.062595859,1,0.004279634,-0.000691353,0.000790923,1,-0.527923167,-0.087735094,9.792037010,1,0
1779390694550,414712.550000000,0.060755365,0.007328286,-0.996120811,0.000612759,0.000079132,-0.009983523,0.067841098,-0.015280022,0.023430295,1,0.008464932,0.000706687,-0.000344274,1,-0.527987421,-0.086882696,9.792040825,1,0
1779390694570,414712.570000000,0.052597310,0.009571196,-0.983733654,0.000539545,0.000099537,-0.009830717,-0.012567210,0.007173410,0.144889712,1,-0.004378916,0.000133311,0.000544563,1,-0.528374970,-0.086823530,9.792020798,1,0
1779390694580,414712.580000000,0.050235398,0.010118069,-0.992537975,0.000507351,0.000106151,-0.009908216,-0.035595153,0.012109324,0.058552176,1,-0.002475932,-0.003879584,-0.000009690,1,-0.528115273,-0.087192230,9.792031288,1,0
1779390694600,414712.600000000,0.052124735,0.005893427,-0.999760926,0.000521337,0.000064499,-0.010009611,-0.016364101,-0.028575864,-0.012236703,1,0.006676720,-0.001097919,-0.000378693,1,-0.527498782,-0.086163171,9.792073250,1,0
1779390694610,414712.610000000,0.054657236,0.008342985,-0.992072582,0.000543154,0.000074743,-0.009926061,0.008358483,-0.004391798,0.063155904,1,-0.003218760,0.002014167,-0.000246182,1,-0.527708650,-0.086309277,9.792060852,1,0
1779390694630,414712.630000000,0.056929730,0.012898811,-0.995836020,0.000562870,0.000128065,-0.009951447,0.030417271,0.038950972,0.026225327,1,-0.003647809,-0.000678399,0.001547906,1,-0.527851999,-0.087654263,9.792041779,1,0
1779390694640,414712.640000000,0.058262065,0.009488604,-0.998023033,0.000574428,0.000095672,-0.009983370,0.043634452,0.005752906,0.004788620,1,0.006658962,-0.001408793,-0.000095562,1,-0.527677357,-0.087091118,9.792056084,1,0
1779390694650,414712.650000000,0.056751765,0.007673837,-0.989899576,0.000568753,0.000077620,-0.009914698,0.028877072,-0.011100751,0.084463388,1,0.010133629,0.000622027,-0.000224866,1,-0.527687013,-0.086039908,9.792064667,1,0
1779390694660,414712.660000000,0.052944638,0.007644212,-0.982490420,0.000528711,0.000067707,-0.009829692,-0.008599794,-0.010971704,0.157118246,1,-0.000883908,0.001904793,-0.000270930,1,-0.527868688,-0.085963830,9.792055130,1,0
1779390694670,414712.670000000,0.049480204,0.010189905,-0.987521768,0.000495725,0.000096752,-0.009857396,-0.042547222,0.013354450,0.107773826,1,-0.008896252,-0.001607115,0.000134053,1,-0.527732253,-0.086851448,9.792055130,1,0
1779390694680,414712.680000000,0.047916133,0.010593046,-1.000412703,0.000480684,0.000107872,-0.009989059,-0.057589974,0.016566910,-0.018633394,1,-0.004560282,-0.003533316,0.000385030,1,-0.527376711,-0.087456889,9.792068481,1,0
1779390694700,414712.700000000,0.054890703,0.006790561,-1.001556754,0.000553642,0.000070048,-0.010033410,0.011243671,-0.020010876,-0.029823715,1,0.006166024,-0.000028490,-0.001327669,1,-0.527049065,-0.086413570,9.792095184,1,0
1779390694710,414712.710000000,0.053555589,0.008894277,-0.992795646,0.000541273,0.000083889,-0.009938532,-0.002019665,0.000868154,0.056086559,1,-0.001770429,0.002500875,-0.000648469,1,-0.527298391,-0.086411186,9.792081833,1,0
1779390694730,414712.730000000,0.051893000,0.011865991,-0.996102452,0.000524917,0.000120927,-0.009951819,-0.018641282,0.028662141,0.023629639,1,-0.003392681,-0.001482740,0.000472763,1,-0.527491808,-0.087808557,9.792058945,1,0
1779390694740,414712.740000000,0.053634118,0.007953741,-1.001637101,0.000536207,0.000084253,-0.010014562,-0.001435522,-0.009480594,-0.030638264,1,0.005071899,-0.001643674,-0.000349863,1,-0.527355254,-0.087322660,9.792071342,1,0
1779390694760,414712.760000000,0.052585933,0.007788040,-0.990361035,0.000536808,0.000070652,-0.009906773,-0.011980277,-0.010347911,0.079934835,1,-0.003644168,0.001927154,-0.000825108,1,-0.527732015,-0.086837478,9.792055130,1,0
1779390694770,414712.770000000,0.049811065,0.012181777,-0.996439278,0.000497375,0.000117171,-0.009945590,-0.039263096,0.031876680,0.020316109,1,-0.011135580,-0.000137123,-0.000825932,1,-0.527738333,-0.087934218,9.792044640,1,0
1779390694790,414712.790000000,0.054820675,0.009186124,-1.007347345,0.000535760,0.000096596,-0.010078371,0.010116450,0.001863508,-0.086647876,1,0.006539279,-0.000700185,-0.000194773,1,-0.527468860,-0.088018119,9.792058945,1,0
1779390694800,414712.800000000,0.059561297,0.007652658,-0.996908367,0.000583871,0.000078935,-0.009984994,0.056514822,-0.012228956,0.015727194,1,0.010600993,0.002325494,-0.000676246,1,-0.527654290,-0.086946607,9.792057991,1,0
1779390694810,414712.810000000,0.061507069,0.008285431,-0.983521461,0.000608729,0.000071957,-0.009849512,0.075260460,-0.005483059,0.146995082,1,0.000167820,0.003950174,-0.000264646,1,-0.528040946,-0.086730607,9.792038918,1,0
1779390694830,414712.830000000,0.052851863,0.012267233,-0.992343724,0.000527618,0.000121708,-0.009907266,-0.009784506,0.032453474,0.060458709,1,-0.004211549,-0.001901128,-0.000128782,1,-0.528024971,-0.087978482,9.792029381,1,0
1779390694840,414712.840000000,0.052700154,0.008252183,-0.999609172,0.000524592,0.000088946,-0.009989070,-0.010985887,-0.006792224,-0.010774334,1,0.005963881,-0.003110170,-0.000670628,1,-0.527700782,-0.087533742,9.792050362,1,0
1779390694860,414712.860000000,0.050336469,0.008666494,-0.991072237,0.000507277,0.000081816,-0.009919566,-0.033890340,-0.001614694,0.072969191,1,-0.002251095,0.001147709,-0.000594137,1,-0.527558088,-0.086675130,9.792065620,1,0
1779390694870,414712.870000000,0.051537864,0.010944480,-0.990685821,0.000516023,0.000109203,-0.009901113,-0.022220161,0.020039715,0.076746665,1,-0.009826771,0.000968263,0.000184099,1,-0.527664244,-0.087594964,9.792052269,1,0
1779390694890,414712.890000000,0.059946470,0.008438020,-1.001165986,0.000594748,0.000090417,-0.010021420,0.060484767,-0.005137363,-0.026021034,1,0.005966454,-0.000671157,-0.000117584,1,-0.527368367,-0.087700307,9.792066574,1,0
1779390694900,414712.900000000,0.058793347,0.005488212,-0.990025997,0.000595100,0.000056483,-0.009919920,0.049120303,-0.033146780,0.083230339,1,0.010461288,0.001210256,-0.001028483,1,-0.527482927,-0.086643420,9.792070389,1,0
