unix_time_ms_sensor,GPS_ts_week,GPS_ts_tow,scaledAccelX,scaledAccelY,scaledAccelZ,deltaVelX,deltaVelY,deltaVelZ,unix_time_ms_filter,fGPS_ts_week,fGPS_ts_tow,estLinAccelX,estLinAccelY,estLinAccelZ,estLinAccel_valid,estAngRateX,estAngRateY,estAngRateZ,estAngRate_valid,estGravityX,estGravityY,estGravityZ,estGravity_valid,flag_sensor,flag_filter
1779139782110.000000000,2419,163800.110000000,0.029653845,0.028402846,-0.998521090,0.000298904,0.000286314,-0.009992398,1779139782110.000000000,2419,163800.110000000,0.008361893,-0.014073915,0.006065910,1,-0.001365721,-0.000266270,0.001096212,1,-0.282435715,-0.292652309,9.798213005,1,0,0
1779139782120.000000000,2419,163800.120000000,0.030072503,0.028274585,-0.999190569,0.000300731,0.000283078,-0.009995786,1779139782120.000000000,2419,163800.120000000,0.012506863,-0.015493819,-0.000503028,1,-0.001732749,0.000375320,0.001173346,1,-0.282416463,-0.292825788,9.798208237,1,0,0
1779139782140.000000000,2419,163800.140000000,0.029164121,0.031443208,-0.999241829,0.000292126,0.000312100,-0.009990633,1779139782140.000000000,2419,163800.140000000,0.003490135,0.015425774,-0.001013277,1,-0.000398680,0.000229569,0.001021404,1,-0.282520324,-0.292938322,9.798201561,1,0,0
1779139782150.000000000,2419,163800.150000000,0.029194245,0.031912543,-1.000087857,0.000291319,0.000317801,-0.009997970,1779139782150.000000000,2419,163800.150000000,0.003799426,0.019985469,-0.009310914,1,-0.000593012,-0.000139830,0.000796707,1,-0.282494694,-0.292987496,9.798200607,1,0,0
1779139782170.000000000,2419,163800.170000000,0.028376525,0.034638178,-0.999838948,0.000284319,0.000343733,-0.009995253,1779139782170.000000000,2419,163800.170000000,-0.004124026,0.046716977,-0.006867641,1,0.000394563,0.000163750,-0.000152360,1,-0.282407671,-0.292955339,9.798204422,1,0,0
1779139782180.000000000,2419,163800.180000000,0.028316371,0.033686336,-0.998637915,0.000284323,0.000340848,-0.009988352,1779139782180.000000000,2419,163800.180000000,-0.004704143,0.037412599,0.004911653,1,0.000220657,0.000008898,-0.001014302,1,-0.282392234,-0.292931557,9.798205376,1,0,0
1779139782200.000000000,2419,163800.200000000,0.028956329,0.030271094,-1.000110984,0.000290716,0.000303986,-0.009998025,1779139782200.000000000,2419,163800.200000000,0.001524353,0.003904853,-0.009535073,1,0.000058288,0.001052761,-0.001433215,1,-0.282471746,-0.292952657,9.798202515,1,0,0
1779139782210.000000000,2419,163800.210000000,0.029513901,0.028925082,-0.999000490,0.000292780,0.000293853,-0.009991380,1779139782210.000000000,2419,163800.210000000,0.006977133,-0.009305585,0.001353751,1,-0.000081745,0.000086008,-0.000667035,1,-0.282457471,-0.292966932,9.798202515,1,0,0
1779139782230.000000000,2419,163800.230000000,0.028858732,0.027099747,-0.999529898,0.000291062,0.000273153,-0.009993753,1779139782230.000000000,2419,163800.230000000,0.000600981,-0.027243806,-0.003837457,1,0.000146108,-0.001102722,-0.000210812,1,-0.282371938,-0.292997211,9.798204422,1,0,0
1779139782240.000000000,2419,163800.240000000,0.027590035,0.028298073,-0.998659551,0.000275588,0.000282000,-0.009995207,1779139782240.000000000,2419,163800.240000000,-0.011790965,-0.015420869,0.004701091,1,0.001031604,-0.000142811,-0.000812988,1,-0.282351583,-0.292898715,9.798207283,1,0,0
1779139782250.000000000,2419,163800.250000000,0.026584174,0.027761925,-0.998997271,0.000266146,0.000277453,-0.009985113,1779139782250.000000000,2419,163800.250000000,-0.021753859,-0.020791937,0.001383690,1,-0.000003808,0.000216591,-0.000317556,1,-0.282466948,-0.293054849,9.798199654,1,0,0
1779139782270.000000000,2419,163800.270000000,0.026520405,0.027127651,-0.999419689,0.000263724,0.000269088,-0.009991784,1779139782270.000000000,2419,163800.270000000,-0.022355661,-0.027084103,-0.002761098,1,0.000087416,-0.001023832,0.001172125,1,-0.282401174,-0.293111771,9.798199654,1,0,0
1779139782280.000000000,2419,163800.280000000,0.027666541,0.027710957,-0.999589920,0.000273900,0.000278645,-0.010000488,1779139782280.000000000,2419,163800.280000000,-0.011067654,-0.021350199,-0.004429147,1,-0.000541438,-0.000797014,0.000790426,1,-0.282359660,-0.293118030,9.798200607,1,0,0
1779139782300.000000000,2419,163800.300000000,0.028606579,0.031403139,-0.999003172,0.000288289,0.000313595,-0.009989570,1779139782300.000000000,2419,163800.300000000,-0.001756278,0.014765938,0.001324633,1,-0.000448686,-0.000727821,0.001074579,1,-0.282269299,-0.293206722,9.798200607,1,0,0
1779139782310.000000000,2419,163800.310000000,0.029018506,0.032211725,-0.999383628,0.000289740,0.000322894,-0.009994155,1779139782310.000000000,2419,163800.310000000,0.002274057,0.022680754,-0.002406901,1,0.000123028,0.000581448,0.000961045,1,-0.282319337,-0.293203682,9.798199654,1,0,0
1779139782330.000000000,2419,163800.330000000,0.030077640,0.029915810,-0.999291182,0.000300815,0.000302079,-0.009996838,1779139782330.000000000,2419,163800.330000000,0.012621303,0.000148874,-0.001501378,1,0.000031268,0.000201937,0.000178036,1,-0.282346070,-0.293223888,9.798197746,1,0,0
1779139782340.000000000,2419,163800.340000000,0.029965861,0.031058157,-0.999831378,0.000298416,0.000306555,-0.009996447,1779139782340.000000000,2419,163800.340000000,0.011545784,0.011354539,-0.006798575,1,-0.000045567,-0.000379086,0.000088059,1,-0.282307208,-0.293223292,9.798198700,1,0,0
1779139782360.000000000,2419,163800.360000000,0.029212544,0.032906596,-0.999583900,0.000289608,0.000329094,-0.009993973,1779139782360.000000000,2419,163800.360000000,0.004141676,0.029530950,-0.004370646,1,0.000043727,0.000651206,-0.001094609,1,-0.282354832,-0.293172151,9.798199654,1,0,0
1779139782370.000000000,2419,163800.370000000,0.029900599,0.031760782,-0.999008060,0.000297803,0.000317373,-0.009986140,1779139782370.000000000,2419,163800.370000000,0.010865035,0.018327689,0.001277096,1,0.000599697,0.000208706,-0.001013888,1,-0.282365263,-0.293121427,9.798200607,1,0,0
1779139782380.000000000,2419,163800.380000000,0.030707097,0.030641459,-0.999240935,0.000306028,0.000306416,-0.009995953,1779139782380.000000000,2419,163800.380000000,0.018785594,0.007421049,-0.001003683,1,0.000941435,-0.000503896,-0.001259157,1,-0.282331288,-0.293040812,9.798203468,1,0,0
1779139782400.000000000,2419,163800.400000000,0.031696197,0.029944930,-0.999057651,0.000315648,0.000302292,-0.009995037,1779139782400.000000000,2419,163800.400000000,0.028528577,0.000671905,0.000797517,1,0.000042282,-0.000180717,-0.001258974,1,-0.282298177,-0.292987376,9.798206329,1,0,0
1779139782410.000000000,2419,163800.410000000,0.030478267,0.028374210,-0.999945164,0.000304370,0.000285998,-0.009996789,1779139782410.000000000,2419,163800.410000000,0.016601626,-0.014688454,-0.007904750,1,0.000595125,-0.000750214,-0.000977726,1,-0.282263786,-0.292926759,9.798209190,1,0,0
1779139782430.000000000,2419,163800.430000000,0.027160009,0.028558772,-0.999276817,0.000271557,0.000284624,-0.009990098,1779139782430.000000000,2419,163800.430000000,-0.015836695,-0.012874912,-0.001347207,1,-0.000020447,-0.000563378,-0.000780068,1,-0.282167137,-0.292942137,9.798212051,1,0,0
1779139782440.000000000,2419,163800.440000000,0.025894357,0.027609475,-0.999033153,0.000261298,0.000278469,-0.009991470,1779139782440.000000000,2419,163800.440000000,-0.028254641,-0.022162378,0.001042686,1,0.000362491,-0.000057291,-0.000285255,1,-0.282189488,-0.292907804,9.798212051,1,0,0
1779139782460.000000000,2419,163800.460000000,0.025323378,0.027526926,-0.999408662,0.000252957,0.000274293,-0.009993766,1779139782460.000000000,2419,163800.460000000,-0.033820353,-0.023024093,-0.002640716,1,-0.000351577,-0.000121813,0.000284966,1,-0.282154620,-0.292981625,9.798211098,1,0,0
1779139782470.000000000,2419,163800.470000000,0.025653476,0.028883008,-0.998952508,0.000252713,0.000286974,-0.009987419,1779139782470.000000000,2419,163800.470000000,-0.030540455,-0.009700924,0.001834956,1,-0.000153658,-0.000196388,0.000341821,1,-0.282109350,-0.292950988,9.798213005,1,0,0
1779139782490.000000000,2419,163800.490000000,0.029194850,0.032268174,-0.999114394,0.000288994,0.000323208,-0.009986420,1779139782490.000000000,2419,163800.490000000,0.004179293,0.023463277,0.000245766,1,0.000773136,0.000530319,0.000295593,1,-0.282141209,-0.292955041,9.798212051,1,0,0
1779139782500.000000000,2419,163800.500000000,0.030182395,0.032229509,-0.999935865,0.000300373,0.000323663,-0.010000004,1779139782500.000000000,2419,163800.500000000,0.013838657,0.023109218,-0.007809655,1,-0.000050845,-0.000089915,-0.000435252,1,-0.282146335,-0.292956293,9.798212051,1,0,0
1779139782520.000000000,2419,163800.520000000,0.031572938,0.029460322,-0.999033749,0.000317315,0.000293381,-0.009995059,1779139782520.000000000,2419,163800.520000000,0.027418183,-0.004015653,0.001036141,1,-0.000102382,0.000527981,-0.000507192,1,-0.282222599,-0.292926401,9.798210144,1,0,0
1779139782530.000000000,2419,163800.530000000,0.031295173,0.030516814,-0.999383330,0.000315379,0.000301580,-0.009988599,1779139782530.000000000,2419,163800.530000000,0.024682768,0.006336099,-0.002392972,1,-0.000137605,-0.000310329,0.000003664,1,-0.282208383,-0.292935938,9.798210144,1,0,0
1779139782540.000000000,2419,163800.540000000,0.031139262,0.031076167,-0.998589814,0.000312485,0.000311184,-0.009990289,1779139782540.000000000,2419,163800.540000000,0.023220796,0.011805695,0.005390346,1,0.000250855,-0.000916318,-0.000513834,1,-0.282122016,-0.292940050,9.798213005,1,0,0
1779139782560.000000000,2419,163800.560000000,0.030039009,0.030471127,-0.998581231,0.000299662,0.000302653,-0.009985238,1779139782560.000000000,2419,163800.560000000,0.012503235,0.005906392,0.005477245,1,0.000447620,-0.000514048,-0.000415087,1,-0.282062411,-0.292899698,9.798215866,1,0,0
1779139782570.000000000,2419,163800.570000000,0.029351141,0.029779388,-0.999357045,0.000295161,0.000298550,-0.009994474,1779139782570.000000000,2419,163800.570000000,0.005851123,-0.000840190,-0.002126706,1,0.000926702,-0.000720232,0.000187515,1,-0.281962961,-0.292847157,9.798220634,1,0,0
1779139782590.000000000,2419,163800.590000000,0.027193796,0.029631607,-0.998314857,0.000274404,0.000301032,-0.009987536,1779139782590.000000000,2419,163800.590000000,-0.015208488,-0.002196619,0.008098956,1,0.000597461,0.000445167,0.000432118,1,-0.281902820,-0.292764395,9.798224449,1,0,0
1779139782600.000000000,2419,163800.600000000,0.026893929,0.030279409,-0.999961853,0.000268813,0.000304263,-0.010000428,1779139782600.000000000,2419,163800.600000000,-0.018188294,0.004132018,-0.008054060,1,-0.000255811,0.000013895,-0.001168438,1,-0.281926990,-0.292816579,9.798222542,1,0,0
1779139782620.000000000,2419,163800.620000000,0.027198218,0.029447619,-1.000092387,0.000272379,0.000295979,-0.010003092,1779139782620.000000000,2419,163800.620000000,-0.015218854,-0.004081735,-0.009336008,1,-0.001035787,0.000380375,-0.000210574,1,-0.281953931,-0.292896748,9.798218727,1,0,0
1779139782630.000000000,2419,163800.630000000,0.027751191,0.029176692,-0.999404967,0.000277448,0.000288677,-0.009989390,1779139782630.000000000,2419,163800.630000000,-0.009809879,-0.006769144,-0.002596119,1,-0.000165416,0.000259323,-0.000668022,1,-0.281963557,-0.292900503,9.798218727,1,0,0
1779139782650.000000000,2419,163800.650000000,0.029313918,0.028721040,-0.999656737,0.000289932,0.000288224,-0.009995599,1779139782650.000000000,2419,163800.650000000,0.005614733,-0.011153031,-0.005060173,1,-0.000142753,0.000603564,-0.000113517,1,-0.281865478,-0.292813569,9.798224449,1,0,0
1779139782660.000000000,2419,163800.660000000,0.030296491,0.029413098,-0.999294698,0.000301108,0.000294735,-0.009995206,1779139782660.000000000,2419,163800.660000000,0.015229667,-0.004340756,-0.001509218,1,0.000591619,-0.000457256,0.000440673,1,-0.281862974,-0.292765796,9.798225403,1,0,0
1779139782670.000000000,2419,163800.670000000,0.030748064,0.031359073,-0.999122620,0.000306271,0.000312906,-0.009993596,1779139782670.000000000,2419,163800.670000000,0.019717028,0.014784489,0.000181014,1,0.000552173,-0.000237855,-0.000394480,1,-0.281810641,-0.292726099,9.798228264,1,0,0
1779139782690.000000000,2419,163800.690000000,0.029622065,0.031476807,-0.998660326,0.000297063,0.000318174,-0.009993593,1779139782690.000000000,2419,163800.690000000,0.008697296,0.015976103,0.004716360,1,0.000138012,0.000190854,-0.000723441,1,-0.281801224,-0.292702258,9.798229218,1,0,0
1779139782700.000000000,2419,163800.700000000,0.029055620,0.029563824,-1.000334740,0.000289640,0.000298160,-0.009997004,1779139782700.000000000,2419,163800.700000000,0.003083641,-0.002830144,-0.011706875,1,-0.001000087,0.000353437,-0.001229840,1,-0.281864554,-0.292784542,9.798225403,1,0,0
1779139782720.000000000,2419,163800.720000000,0.027521623,0.029376101,-0.999188006,0.000277356,0.000292892,-0.009990032,1779139782720.000000000,2419,163800.720000000,-0.011925181,-0.004706399,-0.000461809,1,0.000249769,-0.000101314,-0.000873506,1,-0.281816125,-0.292780548,9.798226357,1,0,0
1779139782730.000000000,2419,163800.730000000,0.027838651,0.027653476,-0.998931646,0.000276722,0.000279638,-0.009987799,1779139782730.000000000,2419,163800.730000000,-0.008784004,-0.021577241,0.002054468,1,0.000044477,-0.000608246,-0.000269748,1,-0.281768709,-0.292764097,9.798228264,1,0,0
1779139782750.000000000,2419,163800.750000000,0.027853422,0.027426157,-0.999113798,0.000278711,0.000270787,-0.009989365,1779139782750.000000000,2419,163800.750000000,-0.008550218,-0.023799866,0.000270366,1,-0.000355628,-0.000001078,0.000112621,1,-0.281699061,-0.292769611,9.798230171,1,0,0
1779139782760.000000000,2419,163800.760000000,0.027786616,0.028383689,-0.998712778,0.000276595,0.000286018,-0.009991048,1779139782760.000000000,2419,163800.760000000,-0.009227553,-0.014471432,0.004200348,1,-0.000588067,-0.000223564,0.000697518,1,-0.281714886,-0.292838067,9.798227310,1,0,0
1779139782780.000000000,2419,163800.780000000,0.027288267,0.029220851,-0.999095678,0.000272809,0.000293713,-0.009991399,1779139782780.000000000,2419,163800.780000000,-0.014094278,-0.006275993,0.000446167,1,-0.000314172,-0.000159295,0.000639434,1,-0.281696409,-0.292843878,9.798228264,1,0,0
1779139782790.000000000,2419,163800.790000000,0.027639026,0.030164577,-1.000320554,0.000275375,0.000299535,-0.010002075,1779139782790.000000000,2419,163800.790000000,-0.010623844,0.002971606,-0.011565520,1,0.000395084,-0.000491449,0.000598237,1,-0.281655341,-0.292829007,9.798230171,1,0,0
1779139782810.000000000,2419,163800.810000000,0.029160419,0.030927856,-0.999791205,0.000289455,0.000307942,-0.009999643,1779139782810.000000000,2419,163800.810000000,0.004317574,0.010332808,-0.006377286,1,-0.000997314,0.000552880,0.000709292,1,-0.281666368,-0.292996347,9.798224449,1,0,0
1779139782820.000000000,2419,163800.820000000,0.029822905,0.032289267,-0.998591363,0.000296556,0.000322506,-0.009987234,1779139782820.000000000,2419,163800.820000000,0.010855716,0.023580091,0.005387436,1,-0.000551561,-0.001167518,-0.000112111,1,-0.281570584,-0.293086797,9.798224449,1,0,0
1779139782830.000000000,2419,163800.830000000,0.029657049,0.032448724,-0.998906851,0.000299384,0.000326668,-0.009990375,1779139782830.000000000,2419,163800.830000000,0.009275881,0.025136614,0.002294451,1,-0.000540271,0.000227680,-0.000055343,1,-0.281567484,-0.293093592,9.798224449,1,0,0
1779139782850.000000000,2419,163800.850000000,0.030472692,0.030853244,-0.999635875,0.000303398,0.000309345,-0.009993932,1779139782850.000000000,2419,163800.850000000,0.017210413,0.009543071,-0.004855155,1,0.000436242,0.000410310,-0.000687439,1,-0.281635702,-0.293009609,9.798224449,1,0,0
1779139782860.000000000,2419,163800.860000000,0.030389234,0.030451167,-0.999034941,0.000305107,0.000304470,-0.009994119,1779139782860.000000000,2419,163800.860000000,0.016373845,0.005606571,0.001037845,1,0.000842245,0.000283800,-0.000907697,1,-0.281650692,-0.292991847,9.798225403,1,0,0
1779139782880.000000000,2419,163800.880000000,0.029101461,0.028239470,-0.998973727,0.000290906,0.000286169,-0.009994535,1779139782880.000000000,2419,163800.880000000,0.003774123,-0.016064480,0.001639394,1,-0.000155614,-0.000525648,-0.001033930,1,-0.281596392,-0.293004870,9.798226357,1,0,0
1779139782890.000000000,2419,163800.890000000,0.028583976,0.029100241,-0.999311388,0.000287883,0.000287205,-0.009988698,1779139782890.000000000,2419,163800.890000000,-0.001307206,-0.007681757,-0.001673684,1,-0.000045499,0.000505529,-0.000779832,1,-0.281635314,-0.293059766,9.798223495,1,0,0
1779139782910.000000000,2419,163800.910000000,0.027473493,0.029672386,-0.999665439,0.000275167,0.000294201,-0.009991690,1779139782910.000000000,2419,163800.910000000,-0.012220942,-0.002028679,-0.005144823,1,0.000472498,0.000028982,-0.000488457,1,-0.281644344,-0.293001115,9.798224449,1,0,0
1779139782920.000000000,2419,163800.920000000,0.027566256,0.030022237,-0.999273181,0.000275375,0.000300019,-0.009992668,1779139782920.000000000,2419,163800.920000000,-0.011406345,0.001412173,-0.001300734,1,0.000144963,0.001554376,0.000356442,1,-0.281787813,-0.293000609,9.798220634,1,0,0
1779139782940.000000000,2419,163800.940000000,0.027947087,0.030004960,-0.999759376,0.000277020,0.000298552,-0.009995476,1779139782940.000000000,2419,163800.940000000,-0.007846500,0.001181951,-0.006076067,1,-0.000540600,0.000326734,-0.000351588,1,-0.281923681,-0.293083370,9.798213959,1,0,0
1779139782950.000000000,2419,163800.950000000,0.028254997,0.029358342,-0.999025762,0.000282471,0.000296459,-0.009992281,1779139782950.000000000,2419,163800.950000000,-0.004841078,-0.005155532,0.001118148,1,0.000406094,0.000174028,-0.000543757,1,-0.281932890,-0.293050349,9.798214912,1,0,0
1779139782960.000000000,2419,163800.960000000,0.028785810,0.029871611,-1.000324488,0.000287169,0.000296945,-0.010000824,1779139782960.000000000,2419,163800.960000000,0.000400972,-0.000158116,-0.011617772,1,-0.000842693,-0.000238140,0.000049231,1,-0.281884044,-0.293124825,9.798213959,1,0,0
1779139782980.000000000,2419,163800.980000000,0.029957326,0.029351544,-0.999467492,0.000298490,0.000292165,-0.009995388,1779139782980.000000000,2419,163800.980000000,0.011956031,-0.005171177,-0.003209872,1,0.000308151,-0.000607801,0.000165905,1,-0.281806201,-0.293001741,9.798220634,1,0,0
1779139782990.000000000,2419,163800.990000000,0.030205728,0.028993374,-0.998890936,0.000298936,0.000289084,-0.009984786,1779139782990.000000000,2419,163800.990000000,0.014426843,-0.008708157,0.002445391,1,-0.000691976,-0.000209396,0.000176801,1,-0.281783819,-0.293057442,9.798218727,1,0,0
1779139783010.000000000,2419,163801.010000000,0.029757315,0.031311408,-0.999266326,0.000296549,0.000311042,-0.009990669,1779139783010.000000000,2419,163801.010000000,0.010030786,0.014035037,-0.001235673,1,-0.000138437,-0.000106915,0.000830332,1,-0.281786233,-0.293028593,9.798219681,1,0,0
1779139783020.000000000,2419,163801.020000000,0.029316539,0.030541103,-0.999113917,0.000296045,0.000309141,-0.009993181,1779139783020.000000000,2419,163801.020000000,0.005719597,0.006464425,0.000258858,1,-0.000009868,0.000328371,0.000419285,1,-0.281788111,-0.293041438,9.798219681,1,0,0
1779139783040.000000000,2419,163801.040000000,0.027807552,0.029739283,-0.998701036,0.000277762,0.000300534,-0.009989114,1779139783040.000000000,2419,163801.040000000,-0.009162194,-0.001356103,0.004306528,1,-0.000233224,0.000462198,-0.000155795,1,-0.281875402,-0.293006271,9.798217773,1,0,0
1779139783050.000000000,2419,163801.050000000,0.027458165,0.029861992,-0.998920977,0.000275154,0.000299447,-0.009993079,1779139783050.000000000,2419,163801.050000000,-0.012727375,-0.000201718,0.002143384,1,-0.000442945,-0.000295044,-0.000304156,1,-0.281998098,-0.293063819,9.798213005,1,0,0
1779139783070.000000000,2419,163801.070000000,0.028313076,0.029212065,-0.998248994,0.000279849,0.000294806,-0.009983691,1779139783070.000000000,2419,163801.070000000,-0.004325400,-0.006656423,0.008731957,1,0.000592570,0.000125800,-0.000071471,1,-0.281985730,-0.293110549,9.798212051,1,0,0
1779139783080.000000000,2419,163801.080000000,0.028921150,0.030755935,-0.999870241,0.000286102,0.000306213,-0.009998983,1779139783080.000000000,2419,163801.080000000,0.001651404,0.008499994,-0.007165833,1,0.000807812,0.000145432,0.000376729,1,-0.281973094,-0.293087184,9.798213005,1,0,0
1779139783100.000000000,2419,163801.100000000,0.029904021,0.030934010,-0.999572039,0.000298841,0.000311351,-0.009997065,1779139783100.000000000,2419,163801.100000000,0.011210571,0.010349573,-0.004240860,1,0.000266146,0.000097814,-0.000362948,1,-0.282050431,-0.293001503,9.798213005,1,0,0
1779139783110.000000000,2419,163801.110000000,0.030594416,0.029545490,-0.999148071,0.000304266,0.000298443,-0.009988573,1779139783110.000000000,2419,163801.110000000,0.017968340,-0.003214433,-0.000082402,1,0.000506210,0.000034639,-0.001227734,1,-0.282060355,-0.292942047,9.798214912,1,0,0
1779139783120.000000000,2419,163801.120000000,0.031054888,0.029724319,-0.999668121,0.000311853,0.000296570,-0.010001296,1779139783120.000000000,2419,163801.120000000,0.022477606,-0.001425020,-0.005181127,1,0.000285270,0.000101138,-0.000510812,1,-0.282069504,-0.292912602,9.798214912,1,0,0
1779139783140.000000000,2419,163801.140000000,0.029560616,0.029369082,-0.999212027,0.000298944,0.000295660,-0.009996060,1779139783140.000000000,2419,163801.140000000,0.007844713,-0.004988694,-0.000710025,1,-0.000620782,0.000218437,-0.000438024,1,-0.282052308,-0.293020785,9.798213005,1,0,0
1779139783150.000000000,2419,163801.150000000,0.028251905,0.029250827,-1.000311375,0.000283630,0.000292935,-0.009997502,1779139783150.000000000,2419,163801.150000000,-0.004984445,-0.006169899,-0.011490792,1,-0.000020765,-0.000210302,-0.000208392,1,-0.282034248,-0.293023378,9.798213005,1,0,0
1779139783170.000000000,2419,163801.170000000,0.026151372,0.029148666,-0.999084651,0.000261966,0.000292119,-0.009993470,1779139783170.000000000,2419,163801.170000000,-0.025639111,-0.007256397,0.000534188,1,-0.000133837,-0.000150187,-0.000246119,1,-0.282091588,-0.293111563,9.798209190,1,0,0
1779139783180.000000000,2419,163801.180000000,0.025598258,0.028437164,-0.998892307,0.000256189,0.000282895,-0.009986352,1779139783180.000000000,2419,163801.180000000,-0.031051811,-0.014226626,0.002421505,1,-0.000001458,0.000460495,0.000039426,1,-0.282099366,-0.293099970,9.798209190,1,0,0
1779139783200.000000000,2419,163801.200000000,0.027255379,0.030914651,-0.999123037,0.000271152,0.000305757,-0.009991166,1779139783200.000000000,2419,163801.200000000,-0.014911292,0.010057047,0.000155487,1,-0.000051522,0.000500573,0.000139448,1,-0.282211006,-0.293113619,9.798205376,1,0,0
1779139783210.000000000,2419,163801.210000000,0.028762760,0.030499348,-0.998910189,0.000288190,0.000311574,-0.009986976,1779139783210.000000000,2419,163801.210000000,-0.000131445,0.005998477,0.002242823,1,0.000288588,-0.000305037,-0.000326596,1,-0.282187968,-0.293089271,9.798206329,1,0,0
1779139783230.000000000,2419,163801.230000000,0.031137573,0.028764557,-0.998926699,0.000312820,0.000287600,-0.009986325,1779139783230.000000000,2419,163801.230000000,0.023167899,-0.011127666,0.002077830,1,-0.000173364,0.000547296,-0.000295141,1,-0.282204181,-0.293217301,9.798202515,1,0,0
1779139783240.000000000,2419,163801.240000000,0.031310964,0.029213818,-0.999094665,0.000313947,0.000290134,-0.009995520,1779139783240.000000000,2419,163801.240000000,0.024850810,-0.006770219,0.000428787,1,-0.000300197,-0.000201209,-0.000147326,1,-0.282198459,-0.293269426,9.798200607,1,0,0
1779139783250.000000000,2419,163801.250000000,0.031641968,0.030829541,-0.998839676,0.000315742,0.000306039,-0.009982172,1779139783250.000000000,2419,163801.250000000,0.028225852,0.009117479,0.002934456,1,0.000532549,-0.000010434,0.000081543,1,-0.282069564,-0.293196589,9.798207283,1,0,0
1779139783260.000000000,2419,163801.260000000,0.030318463,0.031748001,-0.998727262,0.000304322,0.000318141,-0.009986495,1779139783260.000000000,2419,163801.260000000,0.015175910,0.018191312,0.004036940,1,0.000376640,0.001333828,-0.000388269,1,-0.282187521,-0.293138593,9.798205376,1,0,0
1779139783270.000000000,2419,163801.270000000,0.029697105,0.031251207,-0.999290228,0.000296342,0.000312818,-0.009991504,1779139783270.000000000,2419,163801.270000000,0.009009656,0.013381726,-0.001484398,1,0.000668211,0.000692345,-0.000555557,1,-0.282240540,-0.293067575,9.798205376,1,0,0
1779139783280.000000000,2419,163801.280000000,0.028981626,0.029578520,-0.999444902,0.000288201,0.000296804,-0.009992758,1779139783280.000000000,2419,163801.280000000,0.001955150,-0.002980696,-0.003001076,1,0.000737629,0.000229171,-0.000357175,1,-0.282264352,-0.293024212,9.798206329,1,0,0
1779139783300.000000000,2419,163801.300000000,0.027438704,0.029325655,-0.999338508,0.000272512,0.000292343,-0.009988548,1779139783300.000000000,2419,163801.300000000,-0.013133096,-0.005418049,-0.001955713,1,-0.000619721,-0.000338974,-0.000508977,1,-0.282203823,-0.293024272,9.798208237,1,0,0
1779139783310.000000000,2419,163801.310000000,0.027277315,0.029119559,-0.999045610,0.000274449,0.000291130,-0.009993006,1779139783310.000000000,2419,163801.310000000,-0.014663708,-0.007415877,0.000919581,1,0.001282756,0.000174040,-0.000522034,1,-0.282167763,-0.292941660,9.798212051,1,0,0
1779139783330.000000000,2419,163801.330000000,0.027320785,0.030072154,-0.998006225,0.000274639,0.000299919,-0.009987310,1779139783330.000000000,2419,163801.330000000,-0.014290726,0.002003964,0.011113054,1,-0.000001497,0.000519095,0.000102326,1,-0.282232404,-0.292903095,9.798211098,1,0,0
1779139783340.000000000,2419,163801.340000000,0.027697312,0.030563908,-0.999008656,0.000278155,0.000304982,-0.009992851,1779139783340.000000000,2419,163801.340000000,-0.010656036,0.006860492,0.001281758,1,0.000419105,0.000681502,-0.000187411,1,-0.282294989,-0.292856187,9.798210144,1,0,0
1779139783360.000000000,2419,163801.360000000,0.029371640,0.029270703,-0.999291062,0.000293636,0.000298512,-0.009994495,1779139783360.000000000,2419,163801.360000000,0.005714222,-0.005848289,-0.001489817,1,0.000418189,-0.000370286,-0.000275803,1,-0.282311380,-0.292883068,9.798209190,1,0,0
1779139783370.000000000,2419,163801.370000000,0.030140514,0.028278170,-0.999628901,0.000302088,0.000281972,-0.009992591,1779139783370.000000000,2419,163801.370000000,0.013255234,-0.015552158,-0.004802593,1,0.000218987,0.000289245,-0.000551082,1,-0.282330751,-0.292859972,9.798209190,1,0,0
1779139783390.000000000,2419,163801.390000000,0.030400820,0.030704770,-0.998577356,0.000305052,0.000303190,-0.009986189,1779139783390.000000000,2419,163801.390000000,0.015814230,0.008257451,0.005510609,1,0.000165796,-0.000440768,-0.000146291,1,-0.282302111,-0.292848498,9.798210144,1,0,0
1779139783400.000000000,2419,163801.400000000,0.029973067,0.030778119,-0.999051452,0.000299021,0.000310088,-0.009987939,1779139783400.000000000,2419,163801.400000000,0.011663160,0.009001920,0.000863203,1,0.000337600,-0.000289863,-0.000134154,1,-0.282263100,-0.292817950,9.798213005,1,0,0
1779139783410.000000000,2419,163801.410000000,0.029072639,0.030646605,-0.999362111,0.000291892,0.000308814,-0.009995013,1779139783410.000000000,2419,163801.410000000,0.002803182,0.007684525,-0.002184813,1,-0.000441551,0.000627136,0.000025477,1,-0.282321632,-0.292869776,9.798209190,1,0,0
1779139783430.000000000,2419,163801.430000000,0.027595486,0.029388167,-0.999176323,0.000278675,0.000296524,-0.009994381,1779139783430.000000000,2419,163801.430000000,-0.011681912,-0.004613081,-0.000361527,1,0.000137561,0.000090223,0.000099921,1,-0.282304138,-0.292808175,9.798212051,1,0,0
1779139783440.000000000,2419,163801.440000000,0.027183233,0.029078806,-0.999495387,0.000271825,0.000290473,-0.009994019,1779139783440.000000000,2419,163801.440000000,-0.015727937,-0.007632626,-0.003489953,1,-0.000265277,0.000293924,-0.000366393,1,-0.282313228,-0.292806923,9.798211098,1,0,0
1779139783460.000000000,2419,163801.460000000,0.027701760,0.028500138,-0.999251902,0.000278947,0.000283900,-0.009993858,1779139783460.000000000,2419,163801.460000000,-0.010678958,-0.013333664,-0.001104182,1,-0.000106059,-0.000688796,0.000566105,1,-0.282320023,-0.292827517,9.798211098,1,0,0
1779139783470.000000000,2419,163801.470000000,0.027859056,0.029558072,-0.999589324,0.000275740,0.000294974,-0.009986927,1779139783470.000000000,2419,163801.470000000,-0.009134924,-0.003004809,-0.004414383,1,-0.000226381,0.000676468,0.000371573,1,-0.282360435,-0.292877227,9.798208237,1,0,0
1779139783490.000000000,2419,163801.490000000,0.029226307,0.031247081,-0.999051452,0.000288236,0.000307609,-0.009984447,1779139783490.000000000,2419,163801.490000000,0.004226603,0.013558061,0.000859831,1,0.000005081,0.000968847,0.000163247,1,-0.282415926,-0.292870849,9.798206329,1,0,0
1779139783500.000000000,2419,163801.500000000,0.029948747,0.030193368,-0.999328971,0.000301415,0.000304766,-0.009998686,1779139783500.000000000,2419,163801.500000000,0.011265143,0.003229007,-0.001863891,1,-0.000344326,0.000325067,0.000152403,1,-0.282442033,-0.292877406,9.798205376,1,0,0
1779139783520.000000000,2419,163801.520000000,0.029169021,0.030022992,-0.999762893,0.000295082,0.000300211,-0.009998076,1779139783520.000000000,2419,163801.520000000,0.003590336,0.001591311,-0.006118734,1,-0.000384722,0.000637300,0.000313514,1,-0.282480240,-0.292845398,9.798205376,1,0,0
1779139783530.000000000,2419,163801.530000000,0.028476190,0.030666171,-0.999500096,0.000287119,0.000308745,-0.009994002,1779139783530.000000000,2419,163801.530000000,-0.003234178,0.007879544,-0.003543534,1,0.000292309,0.000168452,-0.000090972,1,-0.282495379,-0.292843848,9.798205376,1,0,0
1779139783550.000000000,2419,163801.550000000,0.027544612,0.029117236,-0.999014199,0.000269879,0.000292926,-0.009989031,1779139783550.000000000,2419,163801.550000000,-0.012419263,-0.007407360,0.001217500,1,-0.000952975,0.000245204,-0.000503478,1,-0.282546818,-0.292980105,9.798199654,1,0,0
1779139783560.000000000,2419,163801.560000000,0.027105128,0.028217828,-0.999941170,0.000272113,0.000282024,-0.009996138,1779139783560.000000000,2419,163801.560000000,-0.016758498,-0.016284486,-0.007875850,1,-0.000312019,0.000057771,-0.000666237,1,-0.282570213,-0.293017209,9.798197746,1,0,0
1779139783570.000000000,2419,163801.570000000,0.026656233,0.028319798,-0.999059498,0.000265586,0.000282652,-0.009992965,1779139783570.000000000,2419,163801.570000000,-0.021190932,-0.015296211,0.000769463,1,0.000024686,0.000324963,-0.000180311,1,-0.282609254,-0.293017983,9.798196793,1,0,0
1779139783590.000000000,2419,163801.590000000,0.026286632,0.030033071,-0.998635173,0.000258832,0.000300475,-0.009986022,1779139783590.000000000,2419,163801.590000000,-0.024772068,0.001536047,0.004932965,1,0.000320195,0.000370972,-0.000464656,1,-0.282567024,-0.292978197,9.798198700,1,0,0
1779139783600.000000000,2419,163801.600000000,0.028087866,0.029425643,-0.998836935,0.000276672,0.000291752,-0.009991103,1779139783600.000000000,2419,163801.600000000,-0.007150280,-0.004454570,0.002952187,1,-0.000298739,0.000402263,0.000794821,1,-0.282611459,-0.293030173,9.798195839,1,0,0
1779139783610.000000000,2419,163801.610000000,0.030585121,0.029670935,-0.998657942,0.000301470,0.000291788,-0.009992315,1779139783610.000000000,2419,163801.610000000,0.017384978,-0.002057786,0.004708090,1,-0.000010582,-0.000464863,0.000876925,1,-0.282538950,-0.293029815,9.798198700,1,0,0
1779139783620.000000000,2419,163801.620000000,0.033083942,0.031094933,-0.998793125,0.000326023,0.000309888,-0.009992116,1779139783620.000000000,2419,163801.620000000,0.041935135,0.011940323,0.003384415,1,0.000273136,-0.001213874,0.000240184,1,-0.282469898,-0.292988092,9.798201561,1,0,0
1779139783630.000000000,2419,163801.630000000,0.034530442,0.031178331,-0.999197841,0.000342408,0.000314925,-0.009988911,1779139783630.000000000,2419,163801.630000000,0.056197215,0.012772417,-0.000581142,1,0.000000756,-0.000472273,0.000848903,1,-0.282416821,-0.292981774,9.798203468,1,0,0
1779139783650.000000000,2419,163801.650000000,0.033097066,0.031446416,-0.999972343,0.000334796,0.000316261,-0.009995867,1779139783650.000000000,2419,163801.650000000,0.042407613,0.015566440,-0.008164248,1,0.000541190,-0.000598917,-0.000438749,1,-0.282136828,-0.292796582,9.798216820,1,0,0
1779139783660.000000000,2419,163801.660000000,0.030572835,0.030370345,-0.999419510,0.000308326,0.000304615,-0.009994009,1779139783660.000000000,2419,163801.660000000,0.017755199,0.005092418,-0.002737635,1,0.000802671,-0.001123190,-0.000937918,1,-0.282025486,-0.292714447,9.798222542,1,0,0
1779139783680.000000000,2419,163801.680000000,0.025558874,0.032311171,-0.999622047,0.000253104,0.000321494,-0.009992862,1779139783680.000000000,2419,163801.680000000,-0.031389564,0.024170790,-0.004721190,1,0.000122066,0.000025924,-0.001543949,1,-0.282035887,-0.292691171,9.798222542,1,0,0
1779139783690.000000000,2419,163801.690000000,0.024535939,0.031069087,-0.997973800,0.000245043,0.000312642,-0.009982616,1779139783690.000000000,2419,163801.690000000,-0.041365016,0.012072483,0.011446567,1,0.000538614,-0.000082474,-0.001768714,1,-0.281976163,-0.292595983,9.798227310,1,0,0
1779139783700.000000000,2419,163801.700000000,0.025200875,0.029491913,-1.000492811,0.000247610,0.000294851,-0.010002710,1779139783700.000000000,2419,163801.700000000,-0.034885388,-0.003380578,-0.013258014,1,0.000126854,0.000635740,-0.001810375,1,-0.282039732,-0.292595148,9.798225403,1,0,0
1779139783720.000000000,2419,163801.720000000,0.027297081,0.027334467,-0.999977231,0.000269244,0.000270498,-0.009998948,1779139783720.000000000,2419,163801.720000000,-0.014397631,-0.024513034,-0.008201848,1,0.000008206,0.000526109,-0.001095676,1,-0.282105953,-0.292573333,9.798224449,1,0,0
1779139783730.000000000,2419,163801.730000000,0.027991530,0.027243622,-0.999159575,0.000279122,0.000273342,-0.009992132,1779139783730.000000000,2419,163801.730000000,-0.007642976,-0.025414867,-0.000186286,1,0.000603167,0.000550072,-0.000685006,1,-0.282162666,-0.292565346,9.798222542,1,0,0
1779139783750.000000000,2419,163801.750000000,0.029143421,0.028384054,-1.000331640,0.000291932,0.000280739,-0.010005396,1779139783750.000000000,2419,163801.750000000,0.003635687,-0.014248727,-0.011682055,1,-0.000344895,-0.000469968,0.000888404,1,-0.282149822,-0.292611182,9.798221588,1,0,0
1779139783760.000000000,2419,163801.760000000,0.028344093,0.028176541,-0.998607099,0.000282475,0.000282690,-0.009987413,1779139783760.000000000,2419,163801.760000000,-0.004195216,-0.016273975,0.005231569,1,0.000558438,0.000080002,0.000883293,1,-0.282159150,-0.292573273,9.798222542,1,0,0
1779139783780.000000000,2419,163801.780000000,0.028031122,0.029765693,-0.998679101,0.000281122,0.000298090,-0.009982266,1779139783780.000000000,2419,163801.780000000,-0.007247559,-0.000703266,0.004525307,1,0.000479917,0.000066378,0.000679414,1,-0.282141685,-0.292589456,9.798222542,1,0,0
1779139783790.000000000,2419,163801.790000000,0.028674085,0.031864051,-0.999498606,0.000286642,0.000315731,-0.010001658,1779139783790.000000000,2419,163801.790000000,-0.000920541,0.019904884,-0.003509722,1,-0.000067649,-0.000440464,0.000550435,1,-0.282104045,-0.292576313,9.798224449,1,0,0
1779139783810.000000000,2419,163801.810000000,0.029874295,0.031294115,-0.998824418,0.000299747,0.000316343,-0.009988432,1779139783810.000000000,2419,163801.810000000,0.010905962,0.014372226,0.003105294,1,0.000094026,-0.000542099,0.000356734,1,-0.282044232,-0.292514980,9.798228264,1,0,0
1779139783820.000000000,2419,163801.820000000,0.030196564,0.030647386,-0.999843001,0.000303731,0.000307334,-0.009995077,1779139783820.000000000,2419,163801.820000000,0.014061529,0.008047619,-0.006882881,1,0.000280919,0.000180064,0.000309267,1,-0.282071561,-0.292491555,9.798228264,1,0,0
1779139783840.000000000,2419,163801.840000000,0.029847803,0.028036112,-1.000643134,0.000296375,0.000276110,-0.009999645,1779139783840.000000000,2419,163801.840000000,0.010676104,-0.017616225,-0.014730116,1,-0.000409245,-0.000529867,0.000802161,1,-0.282015085,-0.292568624,9.798227310,1,0,0
1779139783850.000000000,2419,163801.850000000,0.028400917,0.029967347,-0.997939944,0.000288052,0.000291584,-0.009987166,1779139783850.000000000,2419,163801.850000000,-0.003423858,0.001319947,0.011781092,1,-0.000578991,0.000000434,0.000340520,1,-0.281940997,-0.292576700,9.798229218,1,0,0
1779139783860.000000000,2419,163801.860000000,0.027422491,0.032231197,-0.999794364,0.000273307,0.000318995,-0.009992560,1779139783860.000000000,2419,163801.860000000,-0.013120439,0.023449231,-0.006409629,1,-0.000909978,0.001070981,0.000100724,1,-0.282076657,-0.292659134,9.798222542,1,0,0
1779139783880.000000000,2419,163801.880000000,0.027374160,0.029570164,-0.999010265,0.000272689,0.000300726,-0.009979738,1779139783880.000000000,2419,163801.880000000,-0.013670116,-0.002592270,0.001279426,1,-0.000233508,0.001329963,-0.000751824,1,-0.282159716,-0.292584509,9.798222542,1,0,0
1779139783890.000000000,2419,163801.890000000,0.027727924,0.028879121,-1.000386477,0.000278931,0.000286672,-0.010012476,1779139783890.000000000,2419,163801.890000000,-0.010236706,-0.009391990,-0.012218340,1,0.000363825,-0.000481405,-0.000647142,1,-0.282139152,-0.292588681,9.798222542,1,0,0
1779139783910.000000000,2419,163801.910000000,0.028584626,0.031695403,-0.999053419,0.000286437,0.000315400,-0.010001079,1779139783910.000000000,2419,163801.910000000,-0.001803993,0.018127607,0.000851840,1,-0.001172499,0.000779219,0.000469577,1,-0.282148153,-0.292734295,9.798218727,1,0,0
1779139783920.000000000,2419,163801.920000000,0.028971927,0.030460270,-0.998900354,0.000290075,0.000307318,-0.009982877,1779139783920.000000000,2419,163801.920000000,0.001994892,0.005932624,0.002350853,1,-0.000764025,-0.000338221,0.000082837,1,-0.282112211,-0.292804360,9.798217773,1,0,0
1779139783940.000000000,2419,163801.940000000,0.030309372,0.028897194,-0.999946058,0.000302159,0.000286723,-0.009999245,1779139783940.000000000,2419,163801.940000000,0.015040525,-0.009476368,-0.007908722,1,-0.000196386,0.000456534,0.000106766,1,-0.282207221,-0.292867094,9.798213005,1,0,0
1779139783950.000000000,2419,163801.950000000,0.030132577,0.029181920,-0.998607039,0.000303093,0.000289363,-0.009985972,1779139783950.000000000,2419,163801.950000000,0.013310878,-0.006666078,0.005223623,1,0.000067010,0.000397275,-0.000082279,1,-0.282201082,-0.292840958,9.798213959,1,0,0
1779139783970.000000000,2419,163801.970000000,0.030499754,0.030365914,-0.998759747,0.000305228,0.000301680,-0.009990299,1779139783970.000000000,2419,163801.970000000,0.016979909,0.004952223,0.003727968,1,0.000439661,-0.001153535,-0.000278286,1,-0.282084286,-0.292822212,9.798217773,1,0,0
1779139783980.000000000,2419,163801.980000000,0.029141005,0.030635392,-0.998755157,0.000293670,0.000306717,-0.009987884,1779139783980.000000000,2419,163801.980000000,0.003695967,0.007626833,0.003774807,1,0.000109247,0.000746162,-0.000570370,1,-0.282102436,-0.292800874,9.798217773,1,0,0
1779139783990.000000000,2419,163801.990000000,0.028609017,0.030207716,-0.999408245,0.000290876,0.000303078,-0.009996368,1779139783990.000000000,2419,163801.990000000,-0.001523445,0.003414255,-0.002629711,1,-0.000227904,-0.000010110,-0.000695145,1,-0.282081127,-0.292829990,9.798217773,1,0,0
1779139784010.000000000,2419,163802.010000000,0.026570119,0.029036827,-0.999512017,0.000264928,0.000291808,-0.009996794,1779139784010.000000000,2419,163802.010000000,-0.021511301,-0.008122501,-0.003649224,1,-0.000946214,0.000365219,-0.000390727,1,-0.282086194,-0.292906374,9.798214912,1,0,0
1779139784020.000000000,2419,163802.020000000,0.026683003,0.029064583,-0.999221921,0.000264718,0.000289975,-0.009989870,1779139784020.000000000,2419,163802.020000000,-0.020418469,-0.007882154,-0.000805092,1,-0.000409210,-0.000282773,-0.000271108,1,-0.282080263,-0.292921364,9.798214912,1,0,0
1779139784040.000000000,2419,163802.040000000,0.027410917,0.029760521,-0.998946428,0.000271807,0.000297178,-0.009984861,1779139784040.000000000,2419,163802.040000000,-0.013318567,-0.001086477,0.001894383,1,-0.000451195,0.000438750,0.000702181,1,-0.282142192,-0.292950928,9.798212051,1,0,0
1779139784050.000000000,2419,163802.050000000,0.029032433,0.029591912,-0.999010324,0.000288353,0.000297187,-0.009992417,1779139784050.000000000,2419,163802.050000000,0.002655041,-0.002728308,0.001270422,1,0.000385405,-0.000579926,0.000262305,1,-0.282032102,-0.292912900,9.798216820,1,0,0
1779139784070.000000000,2419,163802.070000000,0.030299360,0.029238923,-0.999714553,0.000303464,0.000293220,-0.009996761,1779139784070.000000000,2419,163802.070000000,0.014970312,-0.006238921,-0.005640138,1,-0.000331171,0.000800049,0.000773394,1,-0.282190561,-0.292984456,9.798210144,1,0,0
1779139784080.000000000,2419,163802.080000000,0.030403096,0.030836906,-0.999592364,0.000305037,0.000308040,-0.009997011,1779139784080.000000000,2419,163802.080000000,0.015974106,0.009438164,-0.004442940,1,-0.000145517,-0.000269783,0.000416256,1,-0.282170415,-0.292972744,9.798210144,1,0,0
1779139784100.000000000,2419,163802.100000000,0.030239107,0.030596977,-0.999693334,0.000301435,0.000307892,-0.009995915,1779139784100.000000000,2419,163802.100000000,0.014350605,0.007048231,-0.005434018,1,0.000307693,0.000221147,-0.000161871,1,-0.282200485,-0.292996198,9.798209190,1,0,0
1779139784110.000000000,2419,163802.110000000,0.029115062,0.030809950,-0.999702990,0.000292794,0.000307871,-0.009992582,1779139784110.000000000,2419,163802.110000000,0.003313671,0.009151918,-0.005529467,1,0.000083518,-0.000088721,0.000254303,1,-0.282205045,-0.292987674,9.798209190,1,0,0
1779139784130.000000000,2419,163802.130000000,0.028266864,0.030799557,-0.999671102,0.000283779,0.000306813,-0.009992228,1779139784130.000000000,2419,163802.130000000,-0.005093718,0.009054901,-0.005218462,1,-0.000306053,0.000826805,-0.000353552,1,-0.282322437,-0.292995453,9.798205376,1,0,0
1779139784140.000000000,2419,163802.140000000,0.027645081,0.030033194,-0.999070406,0.000278898,0.000300641,-0.009992694,1779139784140.000000000,2419,163802.140000000,-0.011168178,0.001507744,0.000671242,1,-0.000097859,-0.000213894,-0.000770695,1,-0.282266438,-0.293021053,9.798206329,1,0,0
1779139784150.000000000,2419,163802.150000000,0.028175615,0.030478314,-0.999248028,0.000280084,0.000305946,-0.009994668,1779139784150.000000000,2419,163802.150000000,-0.005943651,0.005830734,-0.001070976,1,-0.000615316,0.000052394,-0.000125650,1,-0.282253563,-0.293078750,9.798205376,1,0,0
1779139784170.000000000,2419,163802.170000000,0.028600601,0.030518744,-0.998674393,0.000285585,0.000306286,-0.009987368,1779139784170.000000000,2419,163802.170000000,-0.001781987,0.006253933,0.004555241,1,0.000371192,0.000145816,-0.000309851,1,-0.282262355,-0.293021441,9.798206329,1,0,0
1779139784180.000000000,2419,163802.180000000,0.028589042,0.030039251,-0.999460280,0.000288285,0.000300482,-0.009997037,1779139784180.000000000,2419,163802.180000000,-0.001947251,0.001579126,-0.003152257,1,0.000410630,0.000529740,-0.000437698,1,-0.282326102,-0.292992890,9.798205376,1,0,0
1779139784200.000000000,2419,163802.200000000,0.029037714,0.029017678,-0.999897718,0.000290299,0.000288339,-0.010000029,1779139784200.000000000,2419,163802.200000000,0.002448345,-0.008340435,-0.007439212,1,0.000413348,0.000645376,-0.000105184,1,-0.282334417,-0.292893887,9.798208237,1,0,0
1779139784210.000000000,2419,163802.210000000,0.028440220,0.029096335,-0.998996854,0.000285323,0.000294111,-0.009987481,1779139784210.000000000,2419,163802.210000000,-0.003490161,-0.007594923,0.001392605,1,-0.001001221,0.000339369,-0.000674161,1,-0.282403439,-0.292964369,9.798204422,1,0,0
1779139784230.000000000,2419,163802.230000000,0.027812121,0.029312573,-0.999284565,0.000280657,0.000294311,-0.009988890,1779139784230.000000000,2419,163802.230000000,-0.009677215,-0.005504557,-0.001430502,1,-0.000559854,0.000214355,0.000311340,1,-0.282427937,-0.292979926,9.798202515,1,0,0
1779139784240.000000000,2419,163802.240000000,0.028029718,0.028123401,-0.999127865,0.000283100,0.000283008,-0.009996187,1779139784240.000000000,2419,163802.240000000,-0.007562288,-0.017124904,0.000106515,1,0.000553458,0.000006712,0.000025378,1,-0.282440186,-0.292903990,9.798204422,1,0,0
1779139784260.000000000,2419,163802.260000000,0.029136218,0.031273309,-0.998768568,0.000290065,0.000309901,-0.009984761,1779139784260.000000000,2419,163802.260000000,0.003172199,0.013649253,0.003623502,1,-0.000186472,0.000885628,0.000651608,1,-0.282584965,-0.293042690,9.798196793,1,0,0
1779139784270.000000000,2419,163802.270000000,0.030495090,0.031252004,-1.000285149,0.000300929,0.000316180,-0.009999526,1779139784270.000000000,2419,163802.270000000,0.016461398,0.013452526,-0.011250313,1,0.000565995,-0.000613493,0.000175356,1,-0.282574326,-0.293007165,9.798197746,1,0,0
1779139784280.000000000,2419,163802.280000000,0.029913142,0.030573344,-0.999696374,0.000297882,0.000304688,-0.009989451,1779139784280.000000000,2419,163802.280000000,0.010773070,0.006819728,-0.005475740,1,-0.000129352,0.000167503,-0.000203192,1,-0.282579720,-0.293006599,9.798197746,1,0,0
1779139784300.000000000,2419,163802.300000000,0.028915936,0.029973458,-1.000660419,0.000288004,0.000296683,-0.010002806,1779139784300.000000000,2419,163802.300000000,0.001071367,0.000920867,-0.014927770,1,-0.000578329,-0.000544997,-0.000111715,1,-0.282480001,-0.293036520,9.798199654,1,0,0
1779139784310.000000000,2419,163802.310000000,0.027770694,0.029931433,-0.998286128,0.000277338,0.000299432,-0.009983127,1779139784310.000000000,2419,163802.310000000,-0.010111561,0.000496853,0.008357866,1,0.000619017,-0.000125763,-0.000714221,1,-0.282444477,-0.293011606,9.798201561,1,0,0
1779139784330.000000000,2419,163802.330000000,0.027075602,0.029287670,-0.997750938,0.000268887,0.000294388,-0.009980271,1779139784330.000000000,2419,163802.330000000,-0.016990570,-0.005910433,0.013601588,1,0.000155647,0.000466659,-0.000308736,1,-0.282525778,-0.293119788,9.798195839,1,0,0
1779139784340.000000000,2419,163802.340000000,0.027339159,0.029200910,-0.999537468,0.000269979,0.000291989,-0.009996305,1779139784340.000000000,2419,163802.340000000,-0.014450750,-0.006735079,-0.003919261,1,-0.000097418,0.000892660,-0.000754971,1,-0.282583475,-0.293101937,9.798194885,1,0,0
1779139784360.000000000,2419,163802.360000000,0.029474016,0.028742410,-0.999488771,0.000292087,0.000289930,-0.009993303,1779139784360.000000000,2419,163802.360000000,0.006536919,-0.011218236,-0.003439754,1,-0.000352170,0.000070433,0.000494240,1,-0.282507122,-0.293095559,9.798196793,1,0,0
1779139784370.000000000,2419,163802.370000000,0.030560054,0.029206887,-0.998982847,0.000303746,0.000291103,-0.009989931,1779139784370.000000000,2419,163802.370000000,0.017184546,-0.006677280,0.001521203,1,0.000540004,0.000106228,-0.000190715,1,-0.282510370,-0.293082356,9.798197746,1,0,0
1779139784390.000000000,2419,163802.390000000,0.031184552,0.029873144,-0.999475896,0.000311207,0.000296729,-0.009996336,1779139784390.000000000,2419,163802.390000000,0.023294572,-0.000201545,-0.003316362,1,-0.000476014,-0.000229718,0.000409619,1,-0.282514662,-0.293171525,9.798194885,1,0,0
1779139784400.000000000,2419,163802.400000000,0.030193603,0.031304281,-0.999102116,0.000301394,0.000311664,-0.009988747,1779139784400.000000000,2419,163802.400000000,0.013552303,0.013823632,0.000348838,1,0.000066973,0.000242015,-0.000037638,1,-0.282553315,-0.293164432,9.798193932,1,0,0
1779139784420.000000000,2419,163802.420000000,0.028410722,0.030225862,-0.999897301,0.000284010,0.000303585,-0.009995629,1779139784420.000000000,2419,163802.420000000,-0.003857536,0.003325609,-0.007445136,1,0.000881182,-0.000498738,-0.000866366,1,-0.282455206,-0.293062150,9.798199654,1,0,0
1779139784430.000000000,2419,163802.430000000,0.027630815,0.029033789,-0.999341547,0.000274800,0.000288002,-0.009996831,1779139784430.000000000,2419,163802.430000000,-0.011488684,-0.008285093,-0.001991998,1,0.000292785,-0.000128086,-0.000589934,1,-0.282449901,-0.293000728,9.798201561,1,0,0
1779139784440.000000000,2419,163802.440000000,0.027154066,0.029741455,-0.999724388,0.000269828,0.000294473,-0.009993888,1779139784440.000000000,2419,163802.440000000,-0.016150495,-0.001335274,-0.005745734,1,0.000476970,-0.000619318,-0.000748269,1,-0.282420903,-0.292985111,9.798203468,1,0,0
1779139784460.000000000,2419,163802.460000000,0.028014734,0.029835712,-0.999849677,0.000276865,0.000300426,-0.009996783,1779139784460.000000000,2419,163802.460000000,-0.007783343,-0.000388603,-0.006976338,1,-0.000087392,0.000681129,0.000544974,1,-0.282535911,-0.292979002,9.798199654,1,0,0
1779139784470.000000000,2419,163802.470000000,0.027980715,0.029347243,-0.999477625,0.000278550,0.000292501,-0.009998133,1779139784470.000000000,2419,163802.470000000,-0.008112311,-0.005138134,-0.003325844,1,0.000071073,-0.000241688,0.000487892,1,-0.282502323,-0.292933613,9.798202515,1,0,0
1779139784490.000000000,2419,163802.490000000,0.028734252,0.029723395,-0.999238431,0.000286176,0.000296963,-0.009991389,1779139784490.000000000,2419,163802.490000000,-0.000700640,-0.001503009,-0.000980835,1,-0.000471446,0.000548252,0.000301612,1,-0.282504797,-0.293004394,9.798199654,1,0,0
1779139784500.000000000,2419,163802.500000000,0.029410372,0.029697342,-0.999187469,0.000294941,0.000293641,-0.009991202,1779139784500.000000000,2419,163802.500000000,0.005866284,-0.001757004,-0.000482740,1,0.000544974,0.000393239,0.000056707,1,-0.282563269,-0.292971432,9.798199654,1,0,0
1779139784520.000000000,2419,163802.520000000,0.029831517,0.030368246,-0.998933256,0.000294870,0.000307450,-0.009983310,1779139784520.000000000,2419,163802.520000000,0.009936751,0.004713748,0.002004448,1,-0.000814118,0.000564043,0.000212853,1,-0.282628298,-0.293122232,9.798192978,1,0,0
1779139784530.000000000,2419,163802.530000000,0.029534191,0.030154765,-0.999537230,0.000296973,0.000303942,-0.009998049,1779139784530.000000000,2419,163802.530000000,0.006937955,0.002585849,-0.003921188,1,-0.000026638,0.000212342,0.000367589,1,-0.282700479,-0.293131888,9.798190117,1,0,0
1779139784550.000000000,2419,163802.550000000,0.029792015,0.030035982,-0.999274194,0.000296030,0.000299459,-0.009997838,1779139784550.000000000,2419,163802.550000000,0.009443723,0.001306375,-0.001346353,1,-0.001182020,-0.000018280,-0.000607958,1,-0.282714993,-0.293283403,9.798185349,1,0,0
1779139784560.000000000,2419,163802.560000000,0.029741814,0.031010985,-0.999726176,0.000296175,0.000303600,-0.009993492,1779139784560.000000000,2419,163802.560000000,0.008893437,0.010838206,-0.005781529,1,-0.000450746,0.000455519,0.000268309,1,-0.282788604,-0.293289512,9.798183441,1,0,0
1779139784570.000000000,2419,163802.570000000,0.029135758,0.031430550,-0.999107480,0.000292185,0.000317414,-0.009993235,1779139784570.000000000,2419,163802.570000000,0.002912832,0.014937792,0.000284096,1,-0.000144471,-0.000224449,-0.000458382,1,-0.282803953,-0.293295532,9.798182487,1,0,0
1779139784590.000000000,2419,163802.590000000,0.027367108,0.031547125,-0.999481678,0.000274078,0.000318266,-0.009991740,1779139784590.000000000,2419,163802.590000000,-0.014494381,0.016141528,-0.003384937,1,0.001285814,0.000374978,-0.000818329,1,-0.282884985,-0.293190718,9.798183441,1,0,0
1779139784600.000000000,2419,163802.600000000,0.027150718,0.028484588,-0.999653935,0.000267569,0.000291714,-0.009996566,1779139784600.000000000,2419,163802.600000000,-0.016654279,-0.013800383,-0.005072246,1,0.000865169,-0.000213472,-0.001257747,1,-0.282904059,-0.293112934,9.798185349,1,0,0
1779139784620.000000000,2419,163802.620000000,0.026544295,0.024758352,-0.997340262,0.000266948,0.000240795,-0.009987959,1779139784620.000000000,2419,163802.620000000,-0.022545027,-0.050349001,0.017618353,1,-0.001054964,-0.000099042,0.000859257,1,-0.282853365,-0.293177634,9.798184395,1,0,0
1779139784630.000000000,2419,163802.630000000,0.027733905,0.030412652,-0.998867273,0.000272102,0.000292923,-0.009983547,1779139784630.000000000,2419,163802.630000000,-0.010931812,0.005013133,0.002638975,1,-0.001145359,0.001216061,0.000603516,1,-0.282947034,-0.293268323,9.798179626,1,0,0
1779139784650.000000000,2419,163802.650000000,0.030541245,0.030481666,-0.998990953,0.000302902,0.000312233,-0.009985431,1779139784650.000000000,2419,163802.650000000,0.016650036,0.005756871,0.001429251,1,-0.000240797,0.000556147,0.000202898,1,-0.282862902,-0.293164968,9.798185349,1,0,0
1779139784660.000000000,2419,163802.660000000,0.031000232,0.028762612,-0.999350369,0.000307757,0.000286716,-0.009999077,1779139784660.000000000,2419,163802.660000000,0.021149440,-0.011080235,-0.002093971,1,0.000203775,-0.000138612,0.000109577,1,-0.282854021,-0.293138117,9.798186302,1,0,0
1779139784680.000000000,2419,163802.680000000,0.030370770,0.031617943,-0.999555647,0.000306779,0.000314725,-0.009998245,1779139784680.000000000,2419,163802.680000000,0.014873658,0.016997946,-0.004108091,1,0.000080037,0.000988417,-0.000080602,1,-0.282992631,-0.293065757,9.798184395,1,0,0
1779139784690.000000000,2419,163802.690000000,0.029045891,0.030806594,-0.999258041,0.000292812,0.000311328,-0.009986761,1779139784690.000000000,2419,163802.690000000,0.001792821,0.009073948,-0.001190856,1,0.000043560,0.000684052,-0.000880172,1,-0.283070594,-0.293035001,9.798182487,1,0,0
1779139784710.000000000,2419,163802.710000000,0.026919918,0.028136767,-0.999547422,0.000268396,0.000280965,-0.009992737,1779139784710.000000000,2419,163802.710000000,-0.018953055,-0.017127458,-0.004026784,1,-0.000209673,-0.000335318,-0.000114444,1,-0.282936722,-0.293061554,9.798186302,1,0,0
1779139784720.000000000,2419,163802.720000000,0.025710011,0.028987089,-0.998668730,0.000258494,0.000289428,-0.009992290,1779139784720.000000000,2419,163802.720000000,-0.030792799,-0.008792509,0.004590728,1,-0.000160847,-0.000140386,-0.000159018,1,-0.282917380,-0.293063909,9.798186302,1,0,0
1779139784730.000000000,2419,163802.730000000,0.025780352,0.030404096,-0.998886168,0.000259332,0.000303209,-0.009986369,1779139784730.000000000,2419,163802.730000000,-0.030108809,0.005122079,0.002459593,1,0.000254581,0.000582665,-0.000168374,1,-0.282945722,-0.293032497,9.798186302,1,0,0
1779139784750.000000000,2419,163802.750000000,0.028573863,0.030813323,-0.999863923,0.000282828,0.000311089,-0.009994201,1779139784750.000000000,2419,163802.750000000,-0.002836121,0.009219965,-0.007130712,1,0.000675355,0.000170007,-0.000429710,1,-0.283054918,-0.292934865,9.798186302,1,0,0
1779139784760.000000000,2419,163802.760000000,0.030229099,0.029247122,-0.999667823,0.000299422,0.000294910,-0.009993982,1779139784760.000000000,2419,163802.760000000,0.013363460,-0.006181681,-0.005209355,1,-0.000128205,0.000662175,-0.000453113,1,-0.283102989,-0.293002397,9.798182487,1,0,0
1779139784780.000000000,2419,163802.780000000,0.031695306,0.028986434,-0.999936521,0.000318711,0.000290507,-0.009996515,1779139784780.000000000,2419,163802.780000000,0.027719468,-0.008779338,-0.007846551,1,-0.000602388,-0.000316153,-0.000092083,1,-0.283095360,-0.293058038,9.798181534,1,0,0
1779139784790.000000000,2419,163802.790000000,0.031871133,0.029495334,-0.998825550,0.000317666,0.000297147,-0.009987151,1779139784790.000000000,2419,163802.790000000,0.029509600,-0.003839889,0.003048650,1,-0.000179148,-0.000458219,-0.000440446,1,-0.283024758,-0.293096304,9.798182487,1,0,0
1779139784810.000000000,2419,163802.810000000,0.028844567,0.029583590,-0.998875916,0.000288613,0.000297179,-0.009987381,1779139784810.000000000,2419,163802.810000000,-0.000103349,-0.002977234,0.002556994,1,0.000296637,0.000328475,0.000013926,1,-0.282982200,-0.293083906,9.798183441,1,0,0
1779139784820.000000000,2419,163802.820000000,0.028027402,0.030162169,-0.999133766,0.000279018,0.000302837,-0.009994187,1779139784820.000000000,2419,163802.820000000,-0.008117399,0.002753127,0.000029833,1,0.000864522,-0.000257209,0.000585519,1,-0.282964855,-0.293009251,9.798186302,1,0,0
1779139784840.000000000,2419,163802.840000000,0.028869586,0.029728038,-0.999536574,0.000288122,0.000298035,-0.009997870,1779139784840.000000000,2419,163802.840000000,0.000197317,-0.001348477,-0.003914067,1,0.000871764,-0.000326553,0.000356284,1,-0.282906771,-0.292853445,9.798192978,1,0,0
1779139784850.000000000,2419,163802.850000000,0.028629789,0.029813161,-0.999337733,0.000284958,0.000293461,-0.009993359,1779139784850.000000000,2419,163802.850000000,-0.002294977,-0.000606759,-0.001970979,1,-0.000191585,0.000027755,0.000475653,1,-0.283066511,-0.292985141,9.798184395,1,0,0
1779139784860.000000000,2419,163802.860000000,0.029153669,0.030049464,-0.998826683,0.000291714,0.000300165,-0.009994809,1779139784860.000000000,2419,163802.860000000,0.002827037,0.001694358,0.003039771,1,0.000162975,-0.000001326,-0.000211788,1,-0.283073097,-0.292985708,9.798184395,1,0,0
1779139784880.000000000,2419,163802.880000000,0.028480571,0.030969847,-0.998931527,0.000287562,0.000311120,-0.009993833,1779139784880.000000000,2419,163802.880000000,-0.003817335,0.010709053,0.002010355,1,-0.000847760,0.000366832,-0.000401387,1,-0.283127397,-0.293028235,9.798181534,1,0,0
1779139784890.000000000,2419,163802.890000000,0.028685547,0.030385155,-0.998866558,0.000285032,0.000304325,-0.009991599,1779139784890.000000000,2419,163802.890000000,-0.001802040,0.004949395,0.002646370,1,0.000009830,0.000289259,-0.000576576,1,-0.283119678,-0.293027431,9.798181534,1,0,0
1779139784910.000000000,2419,163802.910000000,0.028291248,0.028524484,-0.998845637,0.000282317,0.000284179,-0.009986746,1779139784910.000000000,2419,163802.910000000,-0.005622719,-0.013307903,0.002852265,1,-0.000159603,-0.000292052,-0.000192588,1,-0.283055812,-0.293042690,9.798183441,1,0,0
1779139784920.000000000,2419,163802.920000000,0.028667020,0.029003814,-0.999283075,0.000287551,0.000289865,-0.009994905,1779139784920.000000000,2419,163802.920000000,-0.001917570,-0.008621365,-0.001437359,1,-0.000794403,-0.000595391,0.000005383,1,-0.283026457,-0.293076396,9.798182487,1,0,0
1779139784940.000000000,2419,163802.940000000,0.029476495,0.031489216,-0.999289513,0.000297279,0.000313931,-0.009998647,1779139784940.000000000,2419,163802.940000000,0.006045761,0.015716558,-0.001500840,1,0.000082104,-0.000502214,-0.000035738,1,-0.283004224,-0.293084651,9.798183441,1,0,0
1779139784950.000000000,2419,163802.950000000,0.028915849,0.030727604,-0.999295712,0.000289743,0.000306347,-0.009988846,1779139784950.000000000,2419,163802.950000000,0.000619570,0.008239162,-0.001559209,1,-0.000484640,-0.000327410,-0.000324022,1,-0.282937527,-0.293111116,9.798184395,1,0,0
1779139784970.000000000,2419,163802.970000000,0.029201519,0.028727507,-0.999913514,0.000293210,0.000288281,-0.009997220,1779139784970.000000000,2419,163802.970000000,0.003449310,-0.011318527,-0.007615956,1,0.000952579,0.000399494,-0.000486935,1,-0.282931805,-0.293009847,9.798187256,1,0,0
1779139784980.000000000,2419,163802.980000000,0.028607642,0.028700382,-0.999474645,0.000290051,0.000287035,-0.009992224,1779139784980.000000000,2419,163802.980000000,-0.002388016,-0.011505713,-0.003308972,1,0.000697976,-0.000546287,-0.000034587,1,-0.282916099,-0.292938590,9.798190117,1,0,0
1779139785000.000000000,2419,163803.000000000,0.026682051,0.029538384,-0.998204410,0.000266842,0.000297154,-0.009987282,1779139785000.000000000,2419,163803.000000000,-0.021185210,-0.003297684,0.009148768,1,-0.000401473,-0.000354779,-0.000266974,1,-0.282835454,-0.292983055,9.798191071,1,0,0
1779139785010.000000000,2419,163803.010000000,0.026481638,0.029698642,-0.998875737,0.000267045,0.000298043,-0.009996177,1779139785010.000000000,2419,163803.010000000,-0.023157364,-0.001767577,0.002564071,1,-0.000308083,0.000021440,-0.000400538,1,-0.282853812,-0.293021768,9.798189163,1,0,0
1779139785020.000000000,2419,163803.020000000,0.026367560,0.028024739,-1.000742078,0.000262388,0.000282048,-0.010002480,1779139785020.000000000,2419,163803.020000000,-0.024258334,-0.018166484,-0.015736969,1,-0.000105435,-0.000392594,0.000112794,1,-0.282823622,-0.292998493,9.798191071,1,0,0
1779139785040.000000000,2419,163803.040000000,0.025601475,0.031145882,-0.999354780,0.000252361,0.000303655,-0.009995965,1779139785040.000000000,2419,163803.040000000,-0.031891674,0.012412077,-0.002137178,1,-0.000692509,0.001322410,0.000257120,1,-0.282997876,-0.293046057,9.798184395,1,0,0
1779139785050.000000000,2419,163803.050000000,0.026085800,0.031328332,-0.997455299,0.000258540,0.000313900,-0.009981257,1779139785050.000000000,2419,163803.050000000,-0.027025094,0.014265351,0.016496133,1,0.000025270,0.000070342,-0.000008043,1,-0.282829255,-0.292954564,9.798192024,1,0,0
1779139785070.000000000,2419,163803.070000000,0.031667691,0.025546009,-0.999355733,0.000311627,0.000258911,-0.009992396,1779139785070.000000000,2419,163803.070000000,0.027715027,-0.042584389,-0.002145588,1,-0.000895119,-0.000103494,0.000563210,1,-0.282836199,-0.293132573,9.798186302,1,0,0
1779139785080.000000000,2419,163803.080000000,0.033609137,0.026098056,-0.999459147,0.000336502,0.000261051,-0.010002844,1779139785080.000000000,2419,163803.080000000,0.046821095,-0.037251085,-0.003160247,1,-0.000552418,-0.001310598,0.001339981,1,-0.282732368,-0.293201625,9.798187256,1,0,0
1779139785100.000000000,2419,163803.100000000,0.033903837,0.031861629,-0.997966409,0.000342517,0.000317376,-0.009984844,1779139785100.000000000,2419,163803.100000000,0.049731523,0.019121749,0.011474688,1,0.000573332,0.000405579,0.001207032,1,-0.282765359,-0.293315142,9.798183441,1,0,0
1779139785110.000000000,2419,163803.110000000,0.032343570,0.035032507,-0.999787629,0.000323968,0.000347079,-0.009988368,1779139785110.000000000,2419,163803.110000000,0.034401245,0.050219081,-0.006385923,1,-0.000194071,0.000231077,0.001439377,1,-0.282789409,-0.293337226,9.798181534,1,0,0
1779139785130.000000000,2419,163803.130000000,0.030053642,0.031624123,-0.999691010,0.000297613,0.000321016,-0.009990103,1779139785130.000000000,2419,163803.130000000,0.011894315,0.016864376,-0.005437190,1,0.000682117,0.000927324,-0.000941992,1,-0.282859266,-0.293241948,9.798182487,1,0,0
1779139785140.000000000,2419,163803.140000000,0.027490944,0.029675474,-0.999806583,0.000280365,0.000294248,-0.010022216,1779139785140.000000000,2419,163803.140000000,-0.013282701,-0.002217659,-0.006571375,1,-0.000285286,-0.000285575,-0.001567650,1,-0.282866418,-0.293244988,9.798182487,1,0,0
1779139785150.000000000,2419,163803.150000000,0.027263032,0.029682299,-0.997985959,0.000272077,0.000298107,-0.009975387,1779139785150.000000000,2419,163803.150000000,-0.015570136,-0.002166472,0.011280807,1,-0.000838288,0.001267289,-0.001657358,1,-0.282967150,-0.293278039,9.798178673,1,0,0
1779139785170.000000000,2419,163803.170000000,0.024406787,0.029430725,-0.998593330,0.000246246,0.000300906,-0.009974923,1779139785170.000000000,2419,163803.170000000,-0.043557115,-0.004676058,0.005323598,1,0.000219696,-0.000180132,-0.000567993,1,-0.282899797,-0.293286532,9.798180580,1,0,0
1779139785180.000000000,2419,163803.180000000,0.023947211,0.027508132,-0.999139965,0.000243722,0.000277457,-0.010001933,1779139785180.000000000,2419,163803.180000000,-0.048095293,-0.023548950,-0.000038323,1,0.000812759,-0.000001198,0.000011636,1,-0.282937199,-0.293286234,9.798178673,1,0,0
1779139785200.000000000,2419,163803.200000000,0.025737928,0.027702279,-0.999624491,0.000258993,0.000276405,-0.010004185,1779139785200.000000000,2419,163803.200000000,-0.030562289,-0.021609653,-0.004790393,1,0.000198994,-0.000832451,0.000161097,1,-0.282939345,-0.293269873,9.798179626,1,0,0
1779139785210.000000000,2419,163803.210000000,0.027370656,0.026924390,-0.999132097,0.000270601,0.000271222,-0.009984434,1779139785210.000000000,2419,163803.210000000,-0.014510462,-0.029222097,0.000041019,1,0.000308584,0.000019700,0.000347210,1,-0.282925874,-0.293250263,9.798180580,1,0,0
1779139785230.000000000,2419,163803.230000000,0.029995520,0.028289314,-0.999251068,0.000298256,0.000284605,-0.009987576,1779139785230.000000000,2419,163803.230000000,0.011174915,-0.015867511,-0.001128593,1,-0.000489621,-0.000304871,0.001237181,1,-0.282972306,-0.293305069,9.798177719,1,0,0
1779139785240.000000000,2419,163803.240000000,0.030671667,0.028976789,-0.999690950,0.000309373,0.000288142,-0.010000265,1779139785240.000000000,2419,163803.240000000,0.017864214,-0.009257631,-0.005444342,1,-0.001829790,-0.001532779,0.001231001,1,-0.282875448,-0.293478817,9.798174858,1,0,0
1779139785260.000000000,2419,163803.260000000,0.030538714,0.032007772,-0.999756813,0.000306728,0.000315585,-0.009997489,1779139785260.000000000,2419,163803.260000000,0.016738515,0.020449042,-0.006086146,1,-0.000695438,0.000038135,0.001623629,1,-0.282746255,-0.293459594,9.798179626,1,0,0
1779139785270.000000000,2419,163803.270000000,0.029760569,0.032569736,-0.998323321,0.000299468,0.000326668,-0.009984226,1779139785270.000000000,2419,163803.270000000,0.009121602,0.025991060,0.007972896,1,0.000415956,-0.000149363,0.001024480,1,-0.282726169,-0.293395013,9.798181534,1,0,0
1779139785290.000000000,2419,163803.290000000,0.029621454,0.032254796,-0.998690009,0.000295026,0.000324289,-0.009986329,1779139785290.000000000,2419,163803.290000000,0.007713516,0.022929959,0.004376556,1,0.000031444,0.000143209,-0.000466136,1,-0.282777756,-0.293381006,9.798180580,1,0,0
1779139785300.000000000,2419,163803.300000000,0.030003931,0.032352820,-1.000720501,0.000301261,0.000323406,-0.010004729,1779139785300.000000000,2419,163803.300000000,0.011473715,0.023893625,-0.015534748,1,-0.000180936,-0.000586335,-0.000330120,1,-0.282745749,-0.293385118,9.798181534,1,0,0
1779139785310.000000000,2419,163803.310000000,0.028670415,0.032390505,-0.999077380,0.000289961,0.000324708,-0.009986180,1779139785310.000000000,2419,163803.310000000,-0.001615642,0.024220319,0.000577114,1,0.000178592,0.000138007,-0.000540397,1,-0.282780200,-0.293416947,9.798179626,1,0,0
1779139785330.000000000,2419,163803.330000000,0.027120817,0.031486385,-0.998547912,0.000272474,0.000306594,-0.009981660,1779139785330.000000000,2419,163803.330000000,-0.016783528,0.015411276,0.005771657,1,0.000401980,-0.000029260,-0.001243093,1,-0.282745838,-0.293353260,9.798182487,1,0,0
1779139785340.000000000,2419,163803.340000000,0.027299855,0.033096336,-0.998698175,0.000270994,0.000330103,-0.009989589,1779139785340.000000000,2419,163803.340000000,-0.015038651,0.031306081,0.004301227,1,0.000954070,0.000668911,-0.001734300,1,-0.282778025,-0.293229938,9.798185349,1,0,0
1779139785360.000000000,2419,163803.360000000,0.032032508,0.030366939,-1.000028253,0.000314204,0.000304343,-0.009998488,1779139785360.000000000,2419,163803.360000000,0.031239351,0.004699288,-0.008741904,1,0.000290247,0.000000839,-0.001937643,1,-0.282890499,-0.293091357,9.798186302,1,0,0
1779139785370.000000000,2419,163803.370000000,0.034565680,0.027676335,-0.998998344,0.000344974,0.000278000,-0.009991841,1779139785370.000000000,2419,163803.370000000,0.056119304,-0.021679338,0.001359794,1,-0.000090335,-0.000231323,-0.002597907,1,-0.282844603,-0.293096632,9.798187256,1,0,0
1779139785390.000000000,2419,163803.390000000,0.033929300,0.022309018,-0.999709845,0.000347519,0.000225036,-0.010003434,1779139785390.000000000,2419,163803.390000000,0.049949851,-0.074293867,-0.005614616,1,0.000615688,-0.000744238,-0.000801703,1,-0.282758981,-0.293052167,9.798191071,1,0,0
1779139785400.000000000,2419,163803.400000000,0.029936256,0.025306651,-0.999519408,0.000304454,0.000245313,-0.009995591,1779139785400.000000000,2419,163803.400000000,0.010889623,-0.044891495,-0.003744503,1,0.000108163,-0.001072550,0.000614780,1,-0.282651871,-0.293061078,9.798193932,1,0,0
1779139785420.000000000,2419,163803.420000000,0.023600958,0.036100563,-0.998900712,0.000240115,0.000360722,-0.009989526,1779139785420.000000000,2419,163803.420000000,-0.051022016,0.060993634,0.002329782,1,0.000401096,-0.001133220,-0.000236177,1,-0.282432824,-0.293019682,9.798201561,1,0,0
1779139785430.000000000,2419,163803.430000000,0.022901371,0.032049011,-0.996554017,0.000236561,0.000337497,-0.009977063,1779139785430.000000000,2419,163803.430000000,-0.057816092,0.021343336,0.025347477,1,0.001251127,-0.000010916,-0.001553400,1,-0.282400042,-0.292912483,9.798205376,1,0,0
1779139785440.000000000,2419,163803.440000000,0.024674566,0.028357476,-1.003940582,0.000255418,0.000300514,-0.010034444,1779139785440.000000000,2419,163803.440000000,-0.040507697,-0.014729282,-0.047089271,1,0.001003616,-0.000399116,-0.001864501,1,-0.282468349,-0.292791516,9.798207283,1,0,0
1779139785460.000000000,2419,163803.460000000,0.024848094,0.025648959,-1.002962828,0.000250960,0.000266529,-0.010008529,1779139785460.000000000,2419,163803.460000000,-0.039136816,-0.041531220,-0.037516762,1,0.000410208,-0.000183926,-0.001016870,1,-0.282808065,-0.293050766,9.798190117,1,0,0
1779139785470.000000000,2419,163803.470000000,0.025071466,0.024271498,-1.000112772,0.000249659,0.000249724,-0.009981817,1779139785470.000000000,2419,163803.470000000,-0.037012462,-0.055155590,-0.009572990,1,-0.000813256,0.000963068,0.000644242,1,-0.282910317,-0.293202549,9.798182487,1,0,0
1779139785490.000000000,2419,163803.490000000,0.022538362,0.022099901,-0.998410940,0.000222978,0.000216828,-0.009980975,1779139785490.000000000,2419,163803.490000000,-0.061952058,-0.076716088,0.007105933,1,-0.001650902,0.000757604,0.002336595,1,-0.283003718,-0.293491483,9.798171043,1,0,0
1779139785500.000000000,2419,163803.500000000,0.022866046,0.024843743,-0.999071002,0.000224380,0.000242761,-0.009983017,1779139785500.000000000,2419,163803.500000000,-0.058819335,-0.049944289,0.000626323,1,-0.001100373,0.000329746,0.002490025,1,-0.283071280,-0.293610275,9.798165321,1,0,0
1779139785520.000000000,2419,163803.520000000,0.032114815,0.035568155,-0.999769032,0.000310870,0.000352238,-0.009985489,1779139785520.000000000,2419,163803.520000000,0.031806558,0.055125777,-0.006223641,1,-0.000207526,0.000168783,0.002827446,1,-0.283140153,-0.293682605,9.798161507,1,0,0
1779139785530.000000000,2419,163803.530000000,0.036676958,0.038818356,-0.999253452,0.000360779,0.000387027,-0.009997543,1779139785530.000000000,2419,163803.530000000,0.076598898,0.087004982,-0.001166125,1,0.000682763,-0.000546167,0.001738687,1,-0.283063829,-0.293650210,9.798164368,1,0,0
1779139785550.000000000,2419,163803.550000000,0.042838462,0.038971558,-0.998774946,0.000429705,0.000390023,-0.009989773,1779139785550.000000000,2419,163803.550000000,0.137137324,0.088592395,0.003532664,1,0.000173581,-0.000854808,-0.000848052,1,-0.282937080,-0.293583423,9.798170090,1,0,0
1779139785560.000000000,2419,163803.560000000,0.041760217,0.039850038,-1.000804424,0.000417259,0.000399401,-0.010009024,1779139785560.000000000,2419,163803.560000000,0.126644537,0.097225145,-0.016366167,1,0.000017318,-0.000594909,-0.002176341,1,-0.282862723,-0.293571681,9.798172951,1,0,0
1779139785580.000000000,2419,163803.580000000,0.032592610,0.035827674,-0.998998523,0.000332673,0.000362753,-0.009992702,1779139785580.000000000,2419,163803.580000000,0.036977828,0.057885241,0.001353159,1,0.001399929,-0.001489013,-0.004570738,1,-0.282595754,-0.293424726,9.798184395,1,0,0
1779139785590.000000000,2419,163803.590000000,0.027283641,0.029830130,-0.999173105,0.000277783,0.000307230,-0.009990484,1779139785590.000000000,2419,163803.590000000,-0.014988468,-0.000810683,-0.000352684,1,0.001536472,-0.000493087,-0.005632911,1,-0.282528967,-0.293301493,9.798190117,1,0,0
1779139785600.000000000,2419,163803.600000000,0.023844795,0.022003142,-0.996946514,0.000239868,0.000225526,-0.009982293,1779139785600.000000000,2419,163803.600000000,-0.048631046,-0.077394165,0.021489901,1,0.001658749,-0.000154342,-0.005661500,1,-0.282458544,-0.293124646,9.798197746,1,0,0
1779139785620.000000000,2419,163803.620000000,0.025135159,0.027619286,-1.002900004,0.000262579,0.000235637,-0.010070232,1779139785620.000000000,2419,163803.620000000,-0.036068857,-0.022121899,-0.036890246,1,0.002708032,-0.000512056,-0.000990257,1,-0.282543689,-0.292890996,9.798202515,1,0,0
1779139785630.000000000,2419,163803.630000000,0.024211964,0.026567232,-0.987025559,0.000254706,0.000238449,-0.009910432,1779139785630.000000000,2419,163803.630000000,-0.045129210,-0.032291591,0.118788913,1,0.001421554,-0.001306534,-0.001012367,1,-0.282525778,-0.292783707,9.798206329,1,0,0
1779139785650.000000000,2419,163803.650000000,0.023763010,0.024570642,-0.992927134,0.000233267,0.000247937,-0.009929304,1779139785650.000000000,2419,163803.650000000,-0.049708672,-0.051498927,0.060919732,1,0.001027695,-0.000345270,-0.000759835,1,-0.282744974,-0.292412788,9.798211098,1,0,0
1779139785660.000000000,2419,163803.660000000,0.025278760,0.026021982,-1.004825354,0.000239864,0.000254865,-0.010051807,1779139785660.000000000,2419,163803.660000000,-0.034967251,-0.037215844,-0.055763680,1,-0.000321229,0.001566641,0.000385206,1,-0.282917231,-0.292413324,9.798205376,1,0,0
1779139785680.000000000,2419,163803.680000000,0.024778519,0.031694517,-1.002632499,0.000249760,0.000313025,-0.010033345,1779139785680.000000000,2419,163803.680000000,-0.039920598,0.018255761,-0.034265075,1,-0.001055119,-0.000347782,0.001583255,1,-0.282905519,-0.292592764,9.798200607,1,0,0
1779139785690.000000000,2419,163803.690000000,0.025141690,0.033931300,-0.997001827,0.000252538,0.000343111,-0.009958819,1779139785690.000000000,2419,163803.690000000,-0.036404680,0.040174879,0.020950831,1,0.000507477,0.000505658,0.002065973,1,-0.282978147,-0.292559832,9.798199654,1,0,0
1779139785710.000000000,2419,163803.710000000,0.028288065,0.030132502,-0.997422278,0.000278616,0.000305344,-0.009964850,1779139785710.000000000,2419,163803.710000000,-0.005548146,0.002911105,0.016827650,1,-0.000167105,0.000823416,0.000639324,1,-0.282985598,-0.292592466,9.798198700,1,0,0
1779139785720.000000000,2419,163803.720000000,0.030471995,0.029651826,-1.001450062,0.000307131,0.000299269,-0.010023621,1779139785720.000000000,2419,163803.720000000,0.015862539,-0.001899590,-0.022674279,1,-0.000878385,-0.000837818,0.001214496,1,-0.282940686,-0.292710990,9.798195839,1,0,0
1779139785730.000000000,2419,163803.730000000,0.029304376,0.028573683,-0.996375680,0.000294993,0.000289528,-0.009965248,1779139785730.000000000,2419,163803.730000000,0.004412434,-0.012507241,0.027086740,1,-0.000989139,0.001088166,0.000146064,1,-0.282999426,-0.292750090,9.798192978,1,0,0
1779139785740.000000000,2419,163803.740000000,0.030162647,0.030442419,-1.003104687,0.000304397,0.000305041,-0.010029200,1779139785740.000000000,2419,163803.740000000,0.012759466,0.005718812,-0.038907610,1,-0.000254632,0.000163148,0.000330249,1,-0.283040464,-0.292827010,9.798190117,1,0,0
1779139785750.000000000,2419,163803.750000000,0.027242696,0.028936751,-0.996478558,0.000280617,0.000294472,-0.009972168,1779139785750.000000000,2419,163803.750000000,-0.015845798,-0.009070730,0.026073327,1,0.000132434,-0.000135657,-0.000335638,1,-0.283000857,-0.292839527,9.798191071,1,0,0
1779139785760.000000000,2419,163803.760000000,0.026184348,0.031682655,-1.002867699,0.000263431,0.000311677,-0.010020623,1779139785760.000000000,2419,163803.760000000,-0.026312739,0.017822290,-0.036587138,1,-0.000359424,0.000615958,-0.000135593,1,-0.283112556,-0.292889774,9.798186302,1,0,0
1779139785780.000000000,2419,163803.780000000,0.024095092,0.032637738,-1.001029015,0.000237293,0.000324668,-0.009995686,1779139785780.000000000,2419,163803.780000000,-0.047024112,0.027148865,-0.018564045,1,-0.000360571,0.000784234,-0.001420687,1,-0.283339411,-0.292930573,9.798177719,1,0,0
1779139785790.000000000,2419,163803.790000000,0.025497895,0.029401077,-0.997095466,0.000252957,0.000300996,-0.009981570,1779139785790.000000000,2419,163803.790000000,-0.033252463,-0.004538749,0.020014288,1,0.000578059,-0.000654745,-0.000787016,1,-0.283280253,-0.292847514,9.798182487,1,0,0
1779139785810.000000000,2419,163803.810000000,0.033459589,0.031434141,-0.997969687,0.000333782,0.000310835,-0.009986393,1779139785810.000000000,2419,163803.810000000,0.044794939,0.015413765,0.011440275,1,0.000081261,-0.000707840,0.000066225,1,-0.283309549,-0.292847246,9.798181534,1,0,0
1779139785820.000000000,2419,163803.820000000,0.036406364,0.033276912,-1.000097871,0.000360560,0.000332665,-0.009987312,1779139785820.000000000,2419,163803.820000000,0.073736377,0.033482771,-0.009428245,1,-0.000202645,-0.000182687,0.000340589,1,-0.283282727,-0.292858273,9.798181534,1,0,0
1779139785840.000000000,2419,163803.840000000,0.036865212,0.029887293,-1.000608683,0.000367330,0.000296112,-0.009992881,1779139785840.000000000,2419,163803.840000000,0.078279667,0.000414450,-0.014431518,1,0.000577416,-0.000237216,-0.001350170,1,-0.283235908,-0.292663008,9.798189163,1,0,0
1779139785850.000000000,2419,163803.850000000,0.033919051,0.029436912,-0.999376714,0.000343003,0.000292433,-0.010006506,1779139785850.000000000,2419,163803.850000000,0.049833953,-0.004059467,-0.002338510,1,0.000634920,-0.000434660,-0.001644358,1,-0.282755971,-0.292728245,9.798200607,1,0,0
1779139785870.000000000,2419,163803.870000000,0.026997877,0.030194018,-0.998391509,0.000273781,0.000301999,-0.009993046,1779139785870.000000000,2419,163803.870000000,-0.017966414,0.003436871,0.007327196,1,0.000759023,-0.001445192,-0.001918173,1,-0.282678187,-0.292643398,9.798205376,1,0,0
1779139785880.000000000,2419,163803.880000000,0.024751112,0.030787302,-0.998333335,0.000249267,0.000308435,-0.009977533,1779139785880.000000000,2419,163803.880000000,-0.039931115,0.009315287,0.007901769,1,0.000634820,0.000065271,-0.002832767,1,-0.282656014,-0.292587787,9.798208237,1,0,0
1779139785890.000000000,2419,163803.890000000,0.023937311,0.029675350,-0.998442888,0.000240652,0.000303178,-0.009994735,1779139785890.000000000,2419,163803.890000000,-0.047873728,-0.001540108,0.006829350,1,0.000791383,-0.000622118,-0.002012259,1,-0.282597333,-0.292533010,9.798211098,1,0,0
1779139785910.000000000,2419,163803.910000000,0.025151238,0.028051591,-0.999186516,0.000254011,0.000280372,-0.009996738,1779139785910.000000000,2419,163803.910000000,-0.035933215,-0.017308900,-0.000456763,1,0.000731540,-0.000228787,-0.000792161,1,-0.282574743,-0.292378932,9.798216820,1,0,0
1779139785920.000000000,2419,163803.920000000,0.026476895,0.029075228,-0.999441504,0.000261304,0.000288900,-0.009994881,1779139785920.000000000,2419,163803.920000000,-0.022951191,-0.007216006,-0.002956622,1,0.001062075,0.000112715,-0.000912364,1,-0.282603502,-0.292314291,9.798217773,1,0,0
1779139785940.000000000,2419,163803.940000000,0.027679365,0.027349385,-0.999509394,0.000274258,0.000276498,-0.009991941,1779139785940.000000000,2419,163803.940000000,-0.011250742,-0.023945274,-0.003619339,1,0.000423768,0.000667404,-0.001121255,1,-0.282712370,-0.292138934,9.798219681,1,0,0
1779139785950.000000000,2419,163803.950000000,0.028586160,0.027252890,-1.000079155,0.000285756,0.000268939,-0.009999324,1779139785950.000000000,2419,163803.950000000,-0.002423640,-0.024916021,-0.009209014,1,-0.000721082,0.000530101,0.000308410,1,-0.282774955,-0.292197794,9.798215866,1,0,0
1779139785970.000000000,2419,163803.970000000,0.029596897,0.029312152,-0.998983562,0.000293174,0.000290350,-0.009993993,1779139785970.000000000,2419,163803.970000000,0.007441686,-0.004771276,0.001531827,1,0.000411141,0.000299640,0.000927246,1,-0.282814950,-0.292211652,9.798214912,1,0,0
1779139785980.000000000,2419,163803.980000000,0.029912084,0.030234313,-0.997993469,0.000296859,0.000302883,-0.009977799,1779139785980.000000000,2419,163803.980000000,0.010549509,0.004292197,0.011242501,1,-0.000131530,0.000077953,0.000395110,1,-0.282790661,-0.292208910,9.798215866,1,0,0
1779139786000.000000000,2419,163804.000000000,0.031462796,0.031613991,-0.999747038,0.000312364,0.000316863,-0.009989923,1779139786000.000000000,2419,163804.000000000,0.025780048,0.017858442,-0.005952504,1,0.000623878,-0.001140736,0.000420286,1,-0.282729417,-0.292149127,9.798218727,1,0,0
1779139786010.000000000,2419,163804.010000000,0.032302361,0.031153360,-1.000621438,0.000323535,0.000311451,-0.010003962,1779139786010.000000000,2419,163804.010000000,0.034077734,0.013339832,-0.014526116,1,-0.000059360,-0.000948443,0.000158205,1,-0.282670796,-0.292172015,9.798219681,1,0,0
1779139786030.000000000,2419,163804.030000000,0.030455850,0.029871667,-0.999453723,0.000306578,0.000297180,-0.009997417,1779139786030.000000000,2419,163804.030000000,0.016043374,0.000638415,-0.003076034,1,-0.001409581,-0.000523923,-0.000099682,1,-0.282610059,-0.292346627,9.798216820,1,0,0
1779139786040.000000000,2419,163804.040000000,0.029351959,0.030355837,-0.999365687,0.000292901,0.000302388,-0.009989642,1779139786040.000000000,2419,163804.040000000,0.005300406,0.005351481,-0.002211309,1,-0.000094982,-0.000752704,-0.000654041,1,-0.282519907,-0.292341143,9.798219681,1,0,0
1779139786050.000000000,2419,163804.050000000,0.028690346,0.030028181,-0.999248922,0.000288898,0.000298443,-0.009989300,1779139786050.000000000,2419,163804.050000000,-0.001262547,0.002255010,-0.001064815,1,0.000030876,-0.000715517,-0.000880936,1,-0.282602549,-0.292212248,9.798220634,1,0,0
1779139786070.000000000,2419,163804.070000000,0.028615048,0.029229214,-0.999787033,0.000285747,0.000292592,-0.009997242,1779139786070.000000000,2419,163804.070000000,-0.001987739,-0.005448970,-0.006338012,1,0.000791304,-0.000624737,-0.001035307,1,-0.282585114,-0.292065889,9.798225403,1,0,0
1779139786080.000000000,2419,163804.080000000,0.028720150,0.029439799,-0.998707712,0.000288761,0.000294363,-0.009987687,1779139786080.000000000,2419,163804.080000000,-0.000921624,-0.003305463,0.004249382,1,0.000824394,-0.000322154,-0.000753182,1,-0.282559365,-0.291986257,9.798229218,1,0,0
1779139786090.000000000,2419,163804.090000000,0.028785598,0.029814648,-0.999756932,0.000285799,0.000299149,-0.009995667,1779139786090.000000000,2419,163804.090000000,-0.000257693,0.000363131,-0.006039169,1,-0.000716096,-0.000852398,-0.000618367,1,-0.282520831,-0.292041600,9.798228264,1,0,0
1779139786100.000000000,2419,163804.100000000,0.028206658,0.028846573,-0.998915255,0.000284650,0.000290912,-0.009987986,1779139786100.000000000,2419,163804.100000000,-0.005911407,-0.009150129,0.002215089,1,0.000003733,0.000172321,-0.000732473,1,-0.282528937,-0.292038947,9.798228264,1,0,0
1779139786110.000000000,2419,163804.110000000,0.028739452,0.028680626,-1.000719786,0.000285043,0.000288884,-0.010002350,1779139786110.000000000,2419,163804.110000000,-0.000694281,-0.010759150,-0.015480466,1,0.000750802,-0.000353688,-0.000974235,1,-0.282520115,-0.291997492,9.798229218,1,0,0
1779139786130.000000000,2419,163804.130000000,0.027151739,0.026698852,-1.000577688,0.000271656,0.000268381,-0.010003775,1779139786130.000000000,2419,163804.130000000,-0.016133880,-0.030087871,-0.014080080,1,0.000212246,-0.000944105,-0.000425554,1,-0.282371670,-0.291907966,9.798236847,1,0,0
1779139786140.000000000,2419,163804.140000000,0.026960947,0.026401293,-0.998990536,0.000269806,0.000261117,-0.009989090,1779139786140.000000000,2419,163804.140000000,-0.017911807,-0.033033010,0.001485808,1,-0.000994172,-0.000902340,0.000822496,1,-0.282281011,-0.291971534,9.798236847,1,0,0
1779139786160.000000000,2419,163804.160000000,0.026903853,0.029057927,-0.998457670,0.000271659,0.000289668,-0.009986758,1779139786160.000000000,2419,163804.160000000,-0.018321024,-0.007093399,0.006713435,1,-0.000039869,-0.000622664,0.000947820,1,-0.282139152,-0.292054713,9.798238754,1,0,0
1779139786170.000000000,2419,163804.170000000,0.027598470,0.030240914,-0.999269724,0.000273080,0.000296921,-0.009989655,1779139786170.000000000,2419,163804.170000000,-0.011523642,0.004481958,-0.001251816,1,-0.000664909,0.000571349,0.001814615,1,-0.282191694,-0.292099237,9.798235893,1,0,0
1779139786180.000000000,2419,163804.180000000,0.026707860,0.031405102,-0.999225676,0.000268362,0.000313846,-0.009994216,1779139786180.000000000,2419,163804.180000000,-0.020230686,0.015861841,-0.000820801,1,0.000680530,-0.000319475,0.001163610,1,-0.282136440,-0.292094767,9.798237801,1,0,0
1779139786200.000000000,2419,163804.200000000,0.027948029,0.033286344,-0.998515904,0.000277090,0.000335186,-0.009990959,1779139786200.000000000,2419,163804.200000000,-0.008096093,0.034307096,0.006139481,1,-0.000461585,-0.000527110,0.000084356,1,-0.282156289,-0.292134762,9.798235893,1,0,0
1779139786210.000000000,2419,163804.210000000,0.028219501,0.033349454,-0.999764383,0.000283912,0.000332254,-0.009992888,1779139786210.000000000,2419,163804.210000000,-0.005433362,0.034869518,-0.006105807,1,-0.000704655,-0.000051623,-0.000313240,1,-0.282170236,-0.292199165,9.798233986,1,0,0
1779139786230.000000000,2419,163804.230000000,0.029816175,0.033000674,-0.999569595,0.000296697,0.000335887,-0.009993673,1779139786230.000000000,2419,163804.230000000,0.010238193,0.031358585,-0.004197925,1,-0.000168288,0.000283842,-0.000903580,1,-0.282166630,-0.292273521,9.798231125,1,0,0
1779139786240.000000000,2419,163804.240000000,0.030721499,0.031922411,-0.999321818,0.000307300,0.000321534,-0.009994591,1779139786240.000000000,2419,163804.240000000,0.019108633,0.020795038,-0.001767960,1,0.000164431,0.000094654,-0.001302235,1,-0.282168120,-0.292252928,9.798232079,1,0,0
1779139786260.000000000,2419,163804.260000000,0.029341625,0.028380718,-0.999818623,0.000293321,0.000282324,-0.009993820,1779139786260.000000000,2419,163804.260000000,0.005842637,-0.013996925,-0.006634210,1,0.000419547,-0.000491320,-0.001476373,1,-0.281882823,-0.292305350,9.798238754,1,0,0
1779139786270.000000000,2419,163804.270000000,0.028299883,0.026959332,-0.998748124,0.000282129,0.000271741,-0.009987715,1779139786270.000000000,2419,163804.270000000,-0.004381940,-0.027886212,0.003864924,1,0.000236529,0.000039546,-0.001314716,1,-0.281908959,-0.292260796,9.798239708,1,0,0
1779139786290.000000000,2419,163804.290000000,0.025138466,0.025809569,-0.999201775,0.000251843,0.000259772,-0.009990778,1779139786290.000000000,2419,163804.290000000,-0.035423350,-0.039050482,-0.000581978,1,0.000336773,0.000378810,-0.000436933,1,-0.281958908,-0.292145789,9.798241615,1,0,0
1779139786300.000000000,2419,163804.300000000,0.024838977,0.025772875,-0.998878717,0.000247353,0.000257038,-0.009991653,1779139786300.000000000,2419,163804.300000000,-0.038372569,-0.039365325,0.002587427,1,-0.000345789,0.000412948,0.000427025,1,-0.281973004,-0.292121321,9.798241615,1,0,0
1779139786320.000000000,2419,163804.320000000,0.027001603,0.027296003,-0.999130070,0.000266861,0.000273514,-0.009996299,1779139786320.000000000,2419,163804.320000000,-0.017158156,-0.024474921,0.000120913,1,-0.000681694,0.000286594,0.001521135,1,-0.281963795,-0.292177200,9.798240662,1,0,0
1779139786330.000000000,2419,163804.330000000,0.028202420,0.027112821,-0.999891400,0.000281409,0.000267751,-0.009994132,1779139786330.000000000,2419,163804.330000000,-0.005418128,-0.026311945,-0.007347094,1,-0.000214348,0.000365760,0.001786490,1,-0.282002479,-0.292203009,9.798238754,1,0,0
1779139786340.000000000,2419,163804.340000000,0.030072546,0.028131947,-0.999624610,0.000297522,0.000280188,-0.009998338,1779139786340.000000000,2419,163804.340000000,0.012892520,-0.016366661,-0.004732885,1,-0.000786165,-0.000337669,0.002022354,1,-0.282009751,-0.292269528,9.798235893,1,0,0
1779139786360.000000000,2419,163804.360000000,0.030190574,0.032440968,-0.998445630,0.000302292,0.000320356,-0.009984778,1779139786360.000000000,2419,163804.360000000,0.014139624,0.025724743,0.006827005,1,-0.001494138,-0.000579867,0.001465328,1,-0.281912059,-0.292457789,9.798233032,1,0,0
1779139786370.000000000,2419,163804.370000000,0.030708754,0.033367336,-0.998564780,0.000308038,0.000334648,-0.009991045,1779139786370.000000000,2419,163804.370000000,0.019232990,0.034739822,0.005656849,1,-0.000462198,0.000122489,0.000901910,1,-0.281921685,-0.292495608,9.798232079,1,0,0
1779139786390.000000000,2419,163804.390000000,0.031185035,0.030189103,-0.999117196,0.000314222,0.000308132,-0.009995323,1779139786390.000000000,2419,163804.390000000,0.023874156,0.003513894,0.000236583,1,-0.000519945,0.000261467,0.000266908,1,-0.281954974,-0.292556077,9.798229218,1,0,0
1779139786400.000000000,2419,163804.400000000,0.030302314,0.030108703,-1.000204325,0.000306133,0.000300760,-0.009998011,1779139786400.000000000,2419,163804.400000000,0.015233087,0.002612114,-0.010426151,1,-0.000619189,0.000190646,0.000184538,1,-0.281937242,-0.292672575,9.798226357,1,0,0
1779139786420.000000000,2419,163804.420000000,0.030053718,0.031762350,-0.999879360,0.000303067,0.000313328,-0.009997830,1779139786420.000000000,2419,163804.420000000,0.012862927,0.018696900,-0.007241685,1,-0.000587328,-0.001047322,0.000611585,1,-0.281831264,-0.292803168,9.798225403,1,0,0
1779139786430.000000000,2419,163804.430000000,0.030233825,0.031516921,-0.998597860,0.000301764,0.000312323,-0.009983215,1779139786430.000000000,2419,163804.430000000,0.014708563,0.016301397,0.005326975,1,-0.000342965,-0.000199618,-0.000164777,1,-0.281777591,-0.292784899,9.798227310,1,0,0
1779139786450.000000000,2419,163804.450000000,0.029313942,0.030681077,-0.999025404,0.000294449,0.000306060,-0.009989545,1779139786450.000000000,2419,163804.450000000,0.005679827,0.008222097,0.001137783,1,0.000297638,-0.000524252,0.000187568,1,-0.281781822,-0.292635381,9.798232079,1,0,0
1779139786460.000000000,2419,163804.460000000,0.029088125,0.030150101,-0.998755872,0.000291747,0.000300838,-0.009989953,1779139786460.000000000,2419,163804.460000000,0.003561631,0.003032675,0.003784338,1,-0.000071477,-0.001275769,-0.000539689,1,-0.281655550,-0.292640805,9.798234940,1,0,0
1779139786470.000000000,2419,163804.470000000,0.028407224,0.031054765,-0.999424577,0.000287391,0.000308807,-0.009996164,1779139786470.000000000,2419,163804.470000000,-0.003000486,0.011935213,-0.002768802,1,0.000052248,-0.000596496,-0.000986074,1,-0.281560689,-0.292607218,9.798238754,1,0,0
1779139786490.000000000,2419,163804.490000000,0.028967639,0.030007340,-1.000063419,0.000287607,0.000299067,-0.010005862,1779139786490.000000000,2419,163804.490000000,0.002555782,0.001594055,-0.009034486,1,0.000031584,0.000090915,-0.000360989,1,-0.281522244,-0.292676777,9.798237801,1,0,0
1779139786500.000000000,2419,163804.500000000,0.028423015,0.029709062,-0.998306274,0.000281568,0.000299047,-0.009981614,1779139786500.000000000,2419,163804.500000000,-0.002745614,-0.001328938,0.008198714,1,0.000278799,0.000005902,-0.000590269,1,-0.281479836,-0.292667180,9.798239708,1,0,0
1779139786520.000000000,2419,163804.520000000,0.025876593,0.029012633,-0.999695182,0.000260599,0.000286596,-0.009993428,1779139786520.000000000,2419,163804.520000000,-0.027729489,-0.008109989,-0.005421025,1,0.000285446,-0.000655366,-0.000204886,1,-0.281471550,-0.292618036,9.798241615,1,0,0
1779139786530.000000000,2419,163804.530000000,0.025786953,0.028501187,-0.999354243,0.000255966,0.000285799,-0.009991042,1779139786530.000000000,2419,163804.530000000,-0.028572574,-0.013110960,-0.002075782,1,0.000179180,-0.000521743,-0.000314061,1,-0.281439632,-0.292606831,9.798242569,1,0,0
1779139786550.000000000,2419,163804.550000000,0.026674228,0.029463395,-1.000295401,0.000263226,0.000293163,-0.010001317,1779139786550.000000000,2419,163804.550000000,-0.019798977,-0.003578240,-0.011299812,1,0.000094311,-0.000054173,-0.000136829,1,-0.281381994,-0.292512655,9.798247337,1,0,0
1779139786560.000000000,2419,163804.560000000,0.027483301,0.027532697,-0.999918282,0.000271074,0.000280608,-0.009996358,1779139786560.000000000,2419,163804.560000000,-0.011811107,-0.022522938,-0.007601481,1,0.000298519,0.000216387,0.000176409,1,-0.281337142,-0.292517006,9.798248291,1,0,0
1779139786580.000000000,2419,163804.580000000,0.029502278,0.028826766,-0.998469293,0.000294872,0.000283966,-0.009986683,1779139786580.000000000,2419,163804.580000000,0.008054821,-0.009915717,0.006607913,1,-0.000710597,0.000173367,0.000412885,1,-0.281269521,-0.292631537,9.798246384,1,0,0
1779139786590.000000000,2419,163804.590000000,0.029363731,0.030759865,-0.998952448,0.000295173,0.000308518,-0.010000611,1779139786590.000000000,2419,163804.590000000,0.006723453,0.008983460,0.001868387,1,-0.000420105,-0.000455150,0.000366107,1,-0.281222552,-0.292680562,9.798246384,1,0,0
1779139786610.000000000,2419,163804.610000000,0.029066969,0.030722918,-0.997859001,0.000299425,0.000312793,-0.010003944,1779139786610.000000000,2419,163804.610000000,0.003907103,0.008603024,0.012593818,1,-0.000133193,-0.001209422,-0.000070877,1,-0.281104714,-0.292690128,9.798249245,1,0,0
1779139786620.000000000,2419,163804.620000000,0.027739003,0.030170765,-1.000255585,0.000279826,0.000306544,-0.009981255,1779139786620.000000000,2419,163804.620000000,-0.009102585,0.003150953,-0.010909218,1,-0.000881737,0.000712827,0.000381516,1,-0.281151921,-0.292750359,9.798246384,1,0,0
1779139786630.000000000,2419,163804.630000000,0.029770851,0.029378979,-1.001074076,0.000303785,0.000303908,-0.010016699,1779139786630.000000000,2419,163804.630000000,0.010795711,-0.004676775,-0.018938668,1,0.000332031,-0.001268751,-0.000284276,1,-0.281116784,-0.292776048,9.798246384,1,0,0
1779139786650.000000000,2419,163804.650000000,0.029413560,0.031374920,-1.001042843,0.000289412,0.000307360,-0.010003211,1779139786650.000000000,2419,163804.650000000,0.007432194,0.014800464,-0.018631043,1,-0.000936696,-0.000290663,0.000204333,1,-0.281000406,-0.292909741,9.798246384,1,0,0
1779139786660.000000000,2419,163804.660000000,0.029047493,0.033347983,-0.998026550,0.000288907,0.000328938,-0.009974843,1779139786660.000000000,2419,163804.660000000,0.003913890,0.034120917,0.010950102,1,0.000328310,-0.000011456,-0.000459604,1,-0.280943453,-0.292901158,9.798248291,1,0,0
1779139786680.000000000,2419,163804.680000000,0.030726312,0.031306114,-0.998229861,0.000308052,0.000315959,-0.009986215,1779139786680.000000000,2419,163804.680000000,0.020247089,0.014169582,0.008954351,1,0.001141919,0.000328081,-0.001104659,1,-0.281084329,-0.292803913,9.798247337,1,0,0
1779139786690.000000000,2419,163804.690000000,0.031468321,0.029928520,-0.999914289,0.000312486,0.000295225,-0.010005187,1779139786690.000000000,2419,163804.690000000,0.027559496,0.000751512,-0.007559658,1,0.000795421,-0.000299780,-0.001204172,1,-0.281028867,-0.292723298,9.798251152,1,0,0
1779139786710.000000000,2419,163804.710000000,0.032490697,0.029297717,-0.999651670,0.000326076,0.000296273,-0.009999254,1779139786710.000000000,2419,163804.710000000,0.037494175,-0.005348037,-0.004984434,1,0.000593497,0.000466176,-0.000852839,1,-0.281144500,-0.292642772,9.798250198,1,0,0
1779139786720.000000000,2419,163804.720000000,0.032417517,0.028185381,-0.998034358,0.000324850,0.000282731,-0.009979729,1779139786720.000000000,2419,163804.720000000,0.036745921,-0.016182845,0.010876947,1,0.000753063,0.000385787,-0.001359497,1,-0.281172097,-0.292564750,9.798251152,1,0,0
1779139786740.000000000,2419,163804.740000000,0.031081272,0.027914084,-0.998855650,0.000311719,0.000278507,-0.009992064,1779139786740.000000000,2419,163804.740000000,0.023695692,-0.018684547,0.002829230,1,0.000698270,-0.000465742,-0.001063357,1,-0.281091958,-0.292407393,9.798258781,1,0,0
1779139786750.000000000,2419,163804.750000000,0.029796263,0.027873296,-0.999895692,0.000298394,0.000277924,-0.009995304,1779139786750.000000000,2419,163804.750000000,0.011145062,-0.019065890,-0.007368202,1,-0.000372200,-0.000596399,-0.000494206,1,-0.281037420,-0.292421639,9.798259735,1,0,0
1779139786760.000000000,2419,163804.760000000,0.029371714,0.028346114,-0.998586178,0.000294643,0.000286904,-0.009989143,1779139786760.000000000,2419,163804.760000000,0.007044889,-0.014395835,0.005476417,1,0.000227258,-0.000580716,0.000240251,1,-0.280975372,-0.292368948,9.798262596,1,0,0
1779139786780.000000000,2419,163804.780000000,0.029535487,0.029420247,-0.999855042,0.000294601,0.000292896,-0.009997083,1779139786780.000000000,2419,163804.780000000,0.008656031,-0.003795414,-0.006964623,1,-0.000577188,-0.000173325,0.000121662,1,-0.280982882,-0.292327404,9.798263550,1,0,0
1779139786790.000000000,2419,163804.790000000,0.028946536,0.031175785,-1.000145316,0.000291172,0.000311306,-0.010000956,1779139786790.000000000,2419,163804.790000000,0.002897100,0.013378236,-0.009811602,1,-0.000862560,-0.000114785,-0.000338517,1,-0.280967563,-0.292378992,9.798262596,1,0,0
1779139786810.000000000,2419,163804.810000000,0.029388227,0.030771689,-1.000368476,0.000294886,0.000307933,-0.009995530,1779139786810.000000000,2419,163804.810000000,0.007168003,0.009370608,-0.012003495,1,-0.000144722,0.000101559,-0.000441171,1,-0.281034827,-0.292401493,9.798260689,1,0,0
1779139786820.000000000,2419,163804.820000000,0.028569588,0.030128326,-0.999045432,0.000286251,0.000304153,-0.009993023,1779139786820.000000000,2419,163804.820000000,-0.000922175,0.003105049,0.000971039,1,0.001396565,0.000977536,-0.001028534,1,-0.281123668,-0.292310268,9.798260689,1,0,0
1779139786840.000000000,2419,163804.840000000,0.027620131,0.028645335,-0.998496473,0.000279463,0.000286015,-0.009998137,1779139786840.000000000,2419,163804.840000000,-0.010355549,-0.011291500,0.006354329,1,0.000275794,0.000389997,-0.000238346,1,-0.281228483,-0.292197883,9.798260689,1,0,0
1779139786850.000000000,2419,163804.850000000,0.026762746,0.029395331,-0.999154747,0.000268432,0.000295096,-0.009987650,1779139786850.000000000,2419,163804.850000000,-0.019256016,-0.003887939,-0.000113534,1,-0.000163272,0.001202053,-0.000401571,1,-0.281776100,-0.292162120,9.798246384,1,0,0
1779139786870.000000000,2419,163804.870000000,0.026967483,0.029492024,-0.998428702,0.000267814,0.000297490,-0.009981993,1779139786870.000000000,2419,163804.870000000,-0.017409798,-0.002911137,0.007002432,1,0.000765576,0.000326867,-0.000635121,1,-0.281880200,-0.292105794,9.798244476,1,0,0
1779139786880.000000000,2419,163804.880000000,0.026719341,0.030526184,-1.000558972,0.000267206,0.000302831,-0.010002135,1779139786880.000000000,2419,163804.880000000,-0.019875051,0.007214536,-0.013889004,1,-0.000590380,0.000357417,-0.000822184,1,-0.281912684,-0.292164266,9.798242569,1,0,0
1779139786900.000000000,2419,163804.900000000,0.026410596,0.029874062,-0.999991536,0.000264432,0.000294868,-0.010003114,1779139786900.000000000,2419,163804.900000000,-0.023008931,0.000830922,-0.008327665,1,0.000178722,0.000290914,-0.000410447,1,-0.282017112,-0.292128354,9.798240662,1,0,0
1779139786910.000000000,2419,163804.910000000,0.026236100,0.030910069,-0.998289824,0.000260708,0.000306372,-0.009981815,1779139786910.000000000,2419,163804.910000000,-0.024726732,0.011032343,0.008361288,1,0.000372747,0.000012070,-0.000558264,1,-0.282014847,-0.292080790,9.798241615,1,0,0
1779139786920.000000000,2419,163804.920000000,0.026599856,0.030957274,-0.999787211,0.000265169,0.000308963,-0.009996086,1779139786920.000000000,2419,163804.920000000,-0.021171579,0.011532106,-0.006322286,1,0.000348648,0.000518717,-0.000077799,1,-0.282043159,-0.292044282,9.798241615,1,0,0
1779139786940.000000000,2419,163804.940000000,0.027448649,0.029590275,-0.998982072,0.000272473,0.000296535,-0.009993806,1779139786940.000000000,2419,163804.940000000,-0.012862048,-0.001895619,0.001572911,1,0.000064541,0.000847447,-0.000220927,1,-0.282067597,-0.292075306,9.798240662,1,0,0
1779139786950.000000000,2419,163804.950000000,0.028081346,0.029279869,-0.999200225,0.000281192,0.000292266,-0.009992816,1779139786950.000000000,2419,163804.950000000,-0.006695562,-0.004937297,-0.000567158,1,0.000865301,0.000194646,-0.000636322,1,-0.282085001,-0.292048335,9.798240662,1,0,0
1779139786970.000000000,2419,163804.970000000,0.028174855,0.028202059,-0.999534011,0.000277846,0.000282082,-0.009995678,1779139786970.000000000,2419,163804.970000000,-0.005877397,-0.015502632,-0.003843560,1,-0.000930287,0.000922801,-0.000065682,1,-0.282207072,-0.292099446,9.798235893,1,0,0
1779139786980.000000000,2419,163804.980000000,0.027616618,0.029534094,-0.999280572,0.000277163,0.000293953,-0.009990343,1779139786980.000000000,2419,163804.980000000,-0.011422713,-0.002491484,-0.001362158,1,-0.000308810,0.000786842,0.000064327,1,-0.282273829,-0.292131603,9.798233032,1,0,0
1779139787000.000000000,2419,163805.000000000,0.028097870,0.029411515,-0.998701930,0.000279159,0.000291169,-0.009987986,1779139787000.000000000,2419,163805.000000000,-0.006799866,-0.003817882,0.004305709,1,-0.000720916,0.000691713,0.000250559,1,-0.282367647,-0.292268604,9.798226357,1,0,0
1779139787010.000000000,2419,163805.010000000,0.028807035,0.029190090,-0.998865545,0.000287785,0.000289231,-0.009989963,1779139787010.000000000,2419,163805.010000000,0.000117973,-0.005987213,0.002701025,1,-0.000177947,0.001073125,-0.000563306,1,-0.282415509,-0.292250305,9.798225403,1,0,0
1779139787030.000000000,2419,163805.030000000,0.029800666,0.029878629,-0.999205470,0.000297104,0.000301766,-0.009989263,1779139787030.000000000,2419,163805.030000000,0.009778430,0.000715203,-0.000636646,1,-0.000618095,0.000181198,0.000566445,1,-0.282472491,-0.292312831,9.798221588,1,0,0
1779139787040.000000000,2419,163805.040000000,0.030000616,0.030455738,-0.998624325,0.000300733,0.000302693,-0.009990639,1779139787040.000000000,2419,163805.040000000,0.011709699,0.006319241,0.005059803,1,-0.000526724,0.000048943,-0.000002100,1,-0.282497376,-0.292365968,9.798219681,1,0,0
1779139787050.000000000,2419,163805.050000000,0.031204240,0.030017294,-0.999530852,0.000307253,0.000299245,-0.009993203,1779139787050.000000000,2419,163805.050000000,0.023902621,0.001986360,-0.003819765,1,-0.001047187,0.000595421,-0.000431363,1,-0.282095164,-0.292410105,9.798229218,1,0,0
1779139787070.000000000,2419,163805.070000000,0.031065637,0.031114452,-0.999415994,0.000311257,0.000310690,-0.009990371,1779139787070.000000000,2419,163805.070000000,0.022576423,0.012641331,-0.002695140,1,-0.000517003,-0.000357474,-0.000653904,1,-0.282061547,-0.292503893,9.798227310,1,0,0
1779139787080.000000000,2419,163805.080000000,0.031282995,0.030601345,-0.998836100,0.000312161,0.000308719,-0.009989879,1779139787080.000000000,2419,163805.080000000,0.024677219,0.007610272,0.002990280,1,0.000051209,0.000806512,-0.001155161,1,-0.282128274,-0.292485863,9.798226357,1,0,0
1779139787100.000000000,2419,163805.100000000,0.032316234,0.030171761,-0.998767316,0.000321639,0.000300285,-0.009986359,1779139787100.000000000,2419,163805.100000000,0.034623809,0.003434530,0.003660775,1,-0.000406061,0.001639455,-0.001159032,1,-0.282340258,-0.292463094,9.798220634,1,0,0
1779139787110.000000000,2419,163805.110000000,0.032017279,0.030496016,-1.000028729,0.000320222,0.000304487,-0.010002054,1779139787110.000000000,2419,163805.110000000,0.031521857,0.006571881,-0.008716927,1,-0.000048433,0.001250216,-0.000870359,1,-0.282498598,-0.292494178,9.798215866,1,0,0
1779139787130.000000000,2419,163805.130000000,0.029594360,0.032000981,-0.999095619,0.000298904,0.000322491,-0.009992147,1779139787130.000000000,2419,163805.130000000,0.007632575,0.021441638,0.000434645,1,0.001654998,0.000751296,-0.002414076,1,-0.282610148,-0.292331338,9.798216820,1,0,0
1779139787140.000000000,2419,163805.140000000,0.028785622,0.030527163,-0.999297678,0.000289337,0.000308790,-0.009993914,1779139787140.000000000,2419,163805.140000000,-0.000381926,0.007134902,-0.001544565,1,0.001520272,0.000600064,-0.002655169,1,-0.282688707,-0.292189270,9.798218727,1,0,0
1779139787160.000000000,2419,163805.160000000,0.027539784,0.026778400,-0.999418437,0.000274257,0.000269159,-0.009998540,1779139787160.000000000,2419,163805.160000000,-0.012509771,-0.029448714,-0.002720877,1,0.001187114,-0.000786960,-0.003088447,1,-0.282555372,-0.292020887,9.798228264,1,0,0
1779139787170.000000000,2419,163805.170000000,0.026873853,0.026226498,-1.000422239,0.000267427,0.000262026,-0.009995859,1779139787170.000000000,2419,163805.170000000,-0.018921141,-0.034811877,-0.012559974,1,-0.000036146,-0.000964231,-0.002257172,1,-0.282431453,-0.292009145,9.798232079,1,0,0
1779139787190.000000000,2419,163805.190000000,0.027173227,0.026624383,-0.999383688,0.000269604,0.000265892,-0.009990404,1779139787190.000000000,2419,163805.190000000,-0.015819281,-0.030883441,-0.002369918,1,-0.000524097,-0.000901211,-0.001993119,1,-0.282267660,-0.291997612,9.798236847,1,0,0
1779139787200.000000000,2419,163805.200000000,0.026915897,0.027261361,-0.998704493,0.000267204,0.000270440,-0.009992111,1779139787200.000000000,2419,163805.200000000,-0.018193655,-0.024654511,0.004294001,1,0.000563832,-0.002151201,-0.002303531,1,-0.282079220,-0.291981637,9.798242569,1,0,0
1779139787210.000000000,2419,163805.210000000,0.026538828,0.029141726,-0.999383569,0.000264956,0.000285698,-0.009993103,1779139787210.000000000,2419,163805.210000000,-0.021768898,-0.006174037,-0.002359840,1,0.000330895,-0.000653457,-0.002645799,1,-0.282003105,-0.291948825,9.798246384,1,0,0
1779139787230.000000000,2419,163805.230000000,0.026224412,0.030545384,-0.999387324,0.000261170,0.000307818,-0.009991879,1779139787230.000000000,2419,163805.230000000,-0.024593718,0.007752416,-0.002385342,1,0.001139407,-0.000937931,-0.003596145,1,-0.281734765,-0.291763186,9.798258781,1,0,0
1779139787240.000000000,2419,163805.240000000,0.024103617,0.028807804,-1.000682354,0.000244259,0.000285687,-0.009998789,1779139787240.000000000,2419,163805.240000000,-0.045281120,-0.009249538,-0.015080254,1,-0.000223942,-0.001561057,-0.003765754,1,-0.281604677,-0.291767985,9.798262596,1,0,0
1779139787260.000000000,2419,163805.260000000,0.025187783,0.030268909,-1.000260234,0.000251310,0.000299716,-0.009999852,1779139787260.000000000,2419,163805.260000000,-0.034574248,0.005067368,-0.010938028,1,-0.000976077,-0.000205995,-0.003682872,1,-0.281572551,-0.291802555,9.798262596,1,0,0
1779139787270.000000000,2419,163805.270000000,0.026881997,0.029693428,-0.999596000,0.000264212,0.000295214,-0.009997400,1779139787270.000000000,2419,163805.270000000,-0.017991634,-0.000714904,-0.004430415,1,-0.001037396,0.001006314,-0.003376465,1,-0.281642258,-0.291943341,9.798256874,1,0,0
1779139787290.000000000,2419,163805.290000000,0.029867113,0.029588789,-0.998956680,0.000296405,0.000297334,-0.009987035,1779139787290.000000000,2419,163805.290000000,0.011155864,-0.001805687,0.001833622,1,-0.000812566,-0.000395817,-0.003848150,1,-0.281724572,-0.292001396,9.798252106,1,0,0
1779139787300.000000000,2419,163805.300000000,0.030059231,0.029700555,-0.998867214,0.000300467,0.000295409,-0.009990776,1779139787300.000000000,2419,163805.300000000,0.013069888,-0.000774081,0.002709978,1,-0.000370614,-0.000580294,-0.003105478,1,-0.281689495,-0.292051405,9.798252106,1,0,0
1779139787320.000000000,2419,163805.320000000,0.031219278,0.032410722,-0.998901427,0.000310468,0.000321388,-0.009992349,1779139787320.000000000,2419,163805.320000000,0.024539465,0.025745530,0.002375613,1,0.000160877,-0.000339071,-0.003506335,1,-0.281603247,-0.292093247,9.798253059,1,0,0
1779139787330.000000000,2419,163805.330000000,0.031072019,0.032463692,-0.999677122,0.000308840,0.000323409,-0.009996839,1779139787330.000000000,2419,163805.330000000,0.023100846,0.026252052,-0.005231469,1,0.000208919,0.000514841,-0.003698698,1,-0.281624228,-0.292104870,9.798252106,1,0,0
1779139787340.000000000,2419,163805.340000000,0.032308728,0.028961385,-0.999236822,0.000322938,0.000297223,-0.009984656,1779139787340.000000000,2419,163805.340000000,0.035262473,-0.008090561,-0.000913034,1,0.000815678,-0.000340527,-0.003770245,1,-0.281563818,-0.292082697,9.798254967,1,0,0
1779139787360.000000000,2419,163805.360000000,0.029305521,0.029995885,-0.999720871,0.000294447,0.000299335,-0.009990640,1779139787360.000000000,2419,163805.360000000,0.005859973,0.002071403,-0.005657390,1,-0.000299451,0.001019374,-0.002921994,1,-0.281558126,-0.292099744,9.798254013,1,0,0
1779139787370.000000000,2419,163805.370000000,0.027838832,0.027846448,-0.998495460,0.000283224,0.000284468,-0.009990947,1779139787370.000000000,2419,163805.370000000,-0.008542335,-0.019012054,0.006358560,1,0.000846502,0.000538039,-0.002952944,1,-0.281562090,-0.292068660,9.798254967,1,0,0
1779139787390.000000000,2419,163805.390000000,0.028018899,0.023876781,-1.001121283,0.000281106,0.000238199,-0.010007954,1779139787390.000000000,2419,163805.390000000,-0.006901659,-0.057963300,-0.019396402,1,-0.000981966,0.000420937,-0.002121162,1,-0.281684369,-0.292147070,9.798249245,1,0,0
1779139787400.000000000,2419,163805.400000000,0.027601684,0.027358714,-0.998640060,0.000273933,0.000269981,-0.009978879,1779139787400.000000000,2419,163805.400000000,-0.010977224,-0.023908189,0.004934119,1,-0.000674388,0.000581298,-0.001235667,1,-0.281674266,-0.292227685,9.798247337,1,0,0
1779139787420.000000000,2419,163805.420000000,0.026524177,0.029274423,-0.998226821,0.000265064,0.000290231,-0.009981159,1779139787420.000000000,2419,163805.420000000,-0.021452514,-0.005284553,0.008984409,1,-0.001454604,-0.000628170,-0.000902749,1,-0.281545430,-0.292414755,9.798245430,1,0,0
1779139787430.000000000,2419,163805.430000000,0.025612345,0.028870370,-1.001792908,0.000256956,0.000286671,-0.010016155,1779139787430.000000000,2419,163805.430000000,-0.030434547,-0.009369272,-0.025991416,1,-0.001482001,0.000771875,0.000698335,1,-0.281630576,-0.292536527,9.798238754,1,0,0
1779139787450.000000000,2419,163805.450000000,0.022723814,0.034432665,-0.999948263,0.000225945,0.000338588,-0.010001871,1779139787450.000000000,2419,163805.450000000,-0.058662139,0.045208208,-0.007897456,1,-0.001157561,0.000290773,0.001776220,1,-0.281506449,-0.292480499,9.798244476,1,0,0
1779139787460.000000000,2419,163805.460000000,0.022439206,0.037146479,-0.998732686,0.000224543,0.000367487,-0.009985838,1779139787460.000000000,2419,163805.460000000,-0.061518420,0.071716063,0.004017499,1,-0.001301839,0.001184105,0.001852767,1,-0.281609803,-0.292604476,9.798237801,1,0,0
1779139787480.000000000,2419,163805.480000000,0.026668178,0.034182575,-0.999291480,0.000256737,0.000342310,-0.009991185,1779139787480.000000000,2419,163805.480000000,-0.020354290,0.042426679,-0.001478050,1,-0.000455000,0.002116456,0.002702661,1,-0.281948328,-0.292801678,9.798222542,1,0,0
1779139787490.000000000,2419,163805.490000000,0.029115405,0.033468705,-0.999547064,0.000286241,0.000337057,-0.009995057,1779139787490.000000000,2419,163805.490000000,0.003472765,0.035358820,-0.003991278,1,-0.000703655,0.001100609,0.004012645,1,-0.282089889,-0.292875439,9.798215866,1,0,0
1779139787500.000000000,2419,163805.500000000,0.032809608,0.034159817,-0.999498963,0.000321887,0.000343439,-0.009990408,1779139787500.000000000,2419,163805.500000000,0.039639186,0.042123750,-0.003521450,1,-0.000114146,0.000103296,0.004731529,1,-0.282120824,-0.292868942,9.798214912,1,0,0
1779139787520.000000000,2419,163805.520000000,0.034318402,0.034795474,-0.999894857,0.000346802,0.000349921,-0.009999555,1779139787520.000000000,2419,163805.520000000,0.054269034,0.048462741,-0.007405762,1,0.000868700,0.000924131,0.004915887,1,-0.282312959,-0.292732805,9.798213959,1,0,0
1779139787530.000000000,2419,163805.530000000,0.034065101,0.031537667,-0.998989344,0.000344967,0.000321102,-0.009985221,1779139787530.000000000,2419,163805.530000000,0.051783990,0.016673785,0.001478785,1,0.001813193,-0.000365214,0.006259301,1,-0.282274961,-0.292542934,9.798220634,1,0,0
1779139787550.000000000,2419,163805.550000000,0.031609565,0.027484732,-0.998542786,0.000317098,0.000274304,-0.009990929,1779139787550.000000000,2419,163805.550000000,0.027693560,-0.022801632,0.005866501,1,0.000588303,-0.000459978,0.006864488,1,-0.282282442,-0.292310297,9.798227310,1,0,0
1779139787560.000000000,2419,163805.560000000,0.029113861,0.027026448,-0.999221325,0.000290401,0.000265658,-0.009992725,1779139787560.000000000,2419,163805.560000000,0.003218143,-0.027212430,-0.000786190,1,0.000341471,0.000025319,0.008010114,1,-0.282299578,-0.292233527,9.798229218,1,0,0
1779139787580.000000000,2419,163805.580000000,0.028160758,0.027378662,-0.998362958,0.000281694,0.000268785,-0.009969583,1779139787580.000000000,2419,163805.580000000,-0.006004644,-0.023631223,0.007638917,1,-0.000274491,0.000014409,0.009451200,1,-0.282176584,-0.292124271,9.798235893,1,0,0
1779139787590.000000000,2419,163805.590000000,0.029040936,0.027394144,-0.998683631,0.000287042,0.000266416,-0.010022571,1779139787590.000000000,2419,163805.590000000,0.002618058,-0.023451088,0.004495210,1,0.000125477,-0.001133547,0.008915021,1,-0.282149196,-0.292083979,9.798237801,1,0,0
1779139787610.000000000,2419,163805.610000000,0.033165477,0.022937033,-1.001508355,0.000330554,0.000225002,-0.010021875,1779139787610.000000000,2419,163805.610000000,0.043004271,-0.066936873,-0.023200642,1,0.000539115,-0.001601724,0.006222981,1,-0.282193840,-0.291849941,9.798243523,1,0,0
1779139787620.000000000,2419,163805.620000000,0.029847478,0.023092994,-0.999866188,0.000298980,0.000229850,-0.009975336,1779139787620.000000000,2419,163805.620000000,0.010616676,-0.065424509,-0.007093054,1,-0.000615667,-0.000094083,0.002738381,1,-0.282086730,-0.291906178,9.798244476,1,0,0
1779139787630.000000000,2419,163805.630000000,0.029014368,0.023995891,-1.001058936,0.000291362,0.000243145,-0.010013511,1779139787630.000000000,2419,163805.630000000,0.002540152,-0.056619000,-0.018788256,1,-0.000488173,-0.000799802,-0.001396145,1,-0.281967372,-0.291954815,9.798246384,1,0,0
1779139787650.000000000,2419,163805.650000000,0.028920259,0.032817576,-0.997875869,0.000285871,0.000338243,-0.009977095,1779139787650.000000000,2419,163805.650000000,0.001283286,0.029589597,0.012407980,1,-0.000485573,0.001801740,-0.004649225,1,-0.282385945,-0.292267233,9.798225403,1,0,0
1779139787660.000000000,2419,163805.660000000,0.027822012,0.033435609,-0.998366237,0.000281724,0.000335885,-0.009982688,1779139787660.000000000,2419,163805.660000000,-0.009580812,0.035618603,0.007594961,1,0.000138880,0.000870246,-0.004020474,1,-0.282445371,-0.292272478,9.798223495,1,0,0
1779139787680.000000000,2419,163805.680000000,0.026499061,0.033389933,-0.998840094,0.000272399,0.000341242,-0.009987954,1779139787680.000000000,2419,163805.680000000,-0.022697581,0.035136290,0.002943304,1,-0.000661462,0.001254011,-0.002886873,1,-0.282601029,-0.292330354,9.798217773,1,0,0
1779139787690.000000000,2419,163805.690000000,0.025354924,0.036928263,-0.998681724,0.000254540,0.000369423,-0.009997093,1779139787690.000000000,2419,163805.690000000,-0.034003999,0.069775075,0.004491203,1,0.000390239,0.000596751,-0.002817773,1,-0.282666862,-0.292357862,9.798214912,1,0,0
1779139787710.000000000,2419,163805.710000000,0.027886977,0.031617425,-1.000231385,0.000276386,0.000324620,-0.010001628,1779139787710.000000000,2419,163805.710000000,-0.009172679,0.017683083,-0.010705143,1,0.000203250,-0.000110970,-0.002541197,1,-0.282644719,-0.292373896,9.798214912,1,0,0
1779139787720.000000000,2419,163805.720000000,0.029026952,0.029302364,-0.999798417,0.000289507,0.000292181,-0.009995294,1779139787720.000000000,2419,163805.720000000,0.002029371,-0.005006552,-0.006458467,1,0.000443082,-0.000644194,-0.002022227,1,-0.282605827,-0.292352617,9.798216820,1,0,0
1779139787740.000000000,2419,163805.740000000,0.030983867,0.027394619,-0.998950839,0.000308923,0.000276595,-0.009989217,1779139787740.000000000,2419,163805.740000000,0.021271197,-0.023623353,0.001857542,1,0.001398750,-0.000225229,-0.000004865,1,-0.282569736,-0.292229205,9.798221588,1,0,0
1779139787750.000000000,2419,163805.750000000,0.029735385,0.027711820,-0.999683559,0.000297825,0.000269831,-0.009991131,1779139787750.000000000,2419,163805.750000000,0.009131717,-0.020438064,-0.005322519,1,0.000249014,-0.000311855,0.000864049,1,-0.282463878,-0.292189658,9.798225403,1,0,0
1779139787770.000000000,2419,163805.770000000,0.027772903,0.027973611,-0.998971701,0.000279033,0.000280218,-0.009983524,1779139787770.000000000,2419,163805.770000000,-0.010137724,-0.017697822,0.001662988,1,0.001271547,-0.000145174,0.002224415,1,-0.282494426,-0.291983604,9.798231125,1,0,0
1779139787780.000000000,2419,163805.780000000,0.025894964,0.028369352,-0.999679387,0.000258731,0.000281186,-0.009998281,1779139787780.000000000,2419,163805.780000000,-0.028546445,-0.013713528,-0.005273457,1,0.000531790,-0.000358663,0.003174343,1,-0.282481104,-0.291902423,9.798233986,1,0,0
1779139787790.000000000,2419,163805.790000000,0.025382135,0.026846997,-0.998895168,0.000253321,0.000272156,-0.009986106,1779139787790.000000000,2419,163805.790000000,-0.033544902,-0.028599959,0.002418750,1,0.000854172,-0.000281268,0.002930972,1,-0.282452583,-0.291849822,9.798235893,1,0,0
1779139787810.000000000,2419,163805.810000000,0.026027873,0.027340723,-0.999090314,0.000259600,0.000273781,-0.009997679,1779139787810.000000000,2419,163805.810000000,-0.027134130,-0.023794746,0.000506462,1,-0.000002595,-0.000694514,0.002202424,1,-0.282360762,-0.291913748,9.798236847,1,0,0
1779139787820.000000000,2419,163805.820000000,0.026561821,0.026792349,-0.999250531,0.000260887,0.000267732,-0.009981283,1779139787820.000000000,2419,163805.820000000,-0.021869618,-0.029218527,-0.001065191,1,-0.000876149,0.000124624,0.001918228,1,-0.282357782,-0.291987330,9.798234940,1,0,0
1779139787840.000000000,2419,163805.840000000,0.028080871,0.027058605,-1.000330925,0.000278593,0.000264607,-0.009996462,1779139787840.000000000,2419,163805.840000000,-0.006957332,-0.026752185,-0.011664798,1,-0.001643248,0.000125894,0.000857131,1,-0.282341361,-0.292156965,9.798230171,1,0,0
1779139787850.000000000,2419,163805.850000000,0.029853171,0.031133879,-0.997839808,0.000294425,0.000305947,-0.009985667,1779139787850.000000000,2419,163805.850000000,0.010792352,0.013079375,0.012771889,1,-0.001212023,-0.000174851,0.001095194,1,-0.281935453,-0.292275667,9.798237801,1,0,0
1779139787870.000000000,2419,163805.870000000,0.032387100,0.035878763,-0.998569310,0.000323280,0.000358410,-0.009980327,1779139787870.000000000,2419,163805.870000000,0.035765160,0.059541289,0.005619743,1,0.000095762,-0.000201804,0.001029630,1,-0.281838387,-0.292305261,9.798239708,1,0,0
1779139787880.000000000,2419,163805.880000000,0.033368561,0.036391258,-1.000784397,0.000333966,0.000363830,-0.010009959,1779139787880.000000000,2419,163805.880000000,0.045402724,0.064598463,-0.016102575,1,0.000896316,-0.000250106,0.001178354,1,-0.281824380,-0.292248905,9.798242569,1,0,0
1779139787900.000000000,2419,163805.900000000,0.032449216,0.034589238,-1.000231147,0.000322756,0.000348644,-0.010003641,1779139787900.000000000,2419,163805.900000000,0.036324248,0.047077168,-0.010674890,1,0.001078630,0.000179305,-0.000515059,1,-0.281898975,-0.292094231,9.798244476,1,0,0
1779139787910.000000000,2419,163805.910000000,0.030936066,0.033181295,-0.999279559,0.000310209,0.000334376,-0.009991605,1779139787910.000000000,2419,163805.910000000,0.021510750,0.033352550,-0.001338577,1,0.000051278,-0.000516127,-0.000481034,1,-0.281851918,-0.292043626,9.798247337,1,0,0
1779139787920.000000000,2419,163805.920000000,0.029808361,0.030670479,-1.000072837,0.000299513,0.000309259,-0.009997566,1779139787920.000000000,2419,163805.920000000,0.010449893,0.008742767,-0.009118234,1,0.000319954,0.000396812,-0.001849505,1,-0.281880945,-0.292023599,9.798247337,1,0,0
1779139787940.000000000,2419,163805.940000000,0.028492622,0.027134243,-0.998990774,0.000285481,0.000271566,-0.009987355,1779139787940.000000000,2419,163805.940000000,-0.002434844,-0.025838215,0.001496858,1,0.000621175,-0.000363784,-0.002682067,1,-0.281838179,-0.291917294,9.798252106,1,0,0
1779139787950.000000000,2419,163805.950000000,0.028511353,0.027262425,-0.998909831,0.000283921,0.000271488,-0.009996684,1779139787950.000000000,2419,163805.950000000,-0.002230198,-0.024520822,0.002293177,1,0.000856379,-0.000076430,-0.002450850,1,-0.281826407,-0.291849405,9.798254013,1,0,0
1779139787970.000000000,2419,163805.970000000,0.028901884,0.027617052,-0.998616338,0.000289866,0.000277698,-0.009993740,1779139787970.000000000,2419,163805.970000000,0.001533611,-0.020971945,0.005171153,1,0.000653519,0.000083313,-0.001497616,1,-0.281898290,-0.291783690,9.798254013,1,0,0
1779139787980.000000000,2419,163805.980000000,0.029255370,0.027447822,-1.000092506,0.000292278,0.000268874,-0.009998959,1779139787980.000000000,2419,163805.980000000,0.005033622,-0.022588922,-0.009302391,1,0.000412827,-0.000460313,-0.000885505,1,-0.281848371,-0.291748047,9.798256874,1,0,0
1779139788000.000000000,2419,163806.000000000,0.028981701,0.030117752,-1.000221610,0.000290607,0.000297847,-0.010007158,1779139788000.000000000,2419,163806.000000000,0.002521345,0.003596380,-0.010563921,1,0.000157989,-0.000476238,-0.000182685,1,-0.281677037,-0.291753143,9.798261642,1,0,0
1779139788010.000000000,2419,163806.010000000,0.028111661,0.030315155,-0.998673737,0.000284583,0.000302291,-0.009984393,1779139788010.000000000,2419,163806.010000000,-0.005932348,0.005528593,0.004618287,1,-0.000024087,-0.001009579,0.000364443,1,-0.281582445,-0.291761965,9.798263550,1,0,0
1779139788030.000000000,2419,163806.030000000,0.026657816,0.027644569,-0.998806536,0.000267426,0.000277747,-0.009985383,1779139788030.000000000,2419,163806.030000000,-0.020194668,-0.020565102,0.003318409,1,0.000082433,0.000238793,0.000902051,1,-0.281626850,-0.291662365,9.798265457,1,0,0
