Time,GPS_ts,fGPS_ts,scaledAccelX,scaledAccelY,scaledAccelZ,deltaVelX,deltaVelY,deltaVelZ,estLinearAccelX,estLinearAccelY,estLinearAccelZ,estLinearAccel:valid,estAngularRateX,estAngularRateY,estAngularRateZ,estAngularRate:valid,estGravityX,estGravityY,estGravityZ,estGravity:valid,flag
1778781452483,  2472.037,  2472.037, 0.008648, 0.017902,-0.998880, 0.000089, 0.000162,-0.010013, 0.026566, 0.004565, 0.009316,1,-0.000193, 0.003776,-0.000923,1,-0.058355,-0.171000, 9.804985,1,0
1778781452483,  2472.062,  2472.057, 0.002430, 0.013631,-1.001218, 0.000027, 0.000148,-0.009995,-0.030442, 0.036752, 0.105673,1, 0.000663,-0.003423, 0.000077,1,-0.058535,-0.171001, 9.804984,1,0
1778781452483,  2472.082,  2472.082, 0.008320, 0.018715,-0.996950, 0.000082, 0.000174,-0.010001, 0.023565, 0.012661, 0.028250,1, 0.000840, 0.005599,-0.000913,1,-0.058204,-0.170845, 9.804989,1,0
1778781452483,  2472.107,  2472.107, 0.004843, 0.019778,-0.985498, 0.000052, 0.000211,-0.009843,-0.011250, 0.023318, 0.140556,1, 0.002230,-0.001663, 0.000470,1,-0.058693,-0.170565, 9.804991,1,0
1778781452483,  2472.132,  2472.127, 0.004472, 0.021240,-0.996445, 0.000047, 0.000195,-0.009988,-0.002284,-0.045263,-0.063889,1,-0.001486,-0.001863,-0.000318,1,-0.057871,-0.170467, 9.804997,1,0
1778781452483,  2472.157,  2472.157, 0.003012, 0.018561,-0.988642, 0.000030, 0.000196,-0.009863,-0.007741, 0.061718, 0.156043,1,-0.001119, 0.003818, 0.000016,1,-0.058746,-0.170661, 9.804989,1,0
1778781452483,  2472.182,  2472.177, 0.006965, 0.022475,-0.995588, 0.000069, 0.000208,-0.009981, 0.011347,-0.036761,-0.101232,1,-0.001024,-0.000261,-0.000332,1,-0.057605,-0.170571, 9.804997,1,0
1778781452483,  2472.207,  2472.202, 0.004433, 0.017101,-0.987270, 0.000042, 0.000182,-0.009846,-0.015218,-0.002946, 0.123177,1, 0.000071,-0.003789, 0.000384,1,-0.058570,-0.170655, 9.804990,1,0
1778781452483,  2472.232,  2472.227, 0.006578, 0.022173,-0.995136, 0.000061, 0.000209,-0.009980, 0.008825,-0.041767,-0.088101,1,-0.002917,-0.000538,-0.000042,1,-0.057788,-0.171163, 9.804986,1,0
1778781452483,  2472.252,  2472.247, 0.004666, 0.017190,-0.993154, 0.000046, 0.000183,-0.009911, 0.005206, 0.041877, 0.144873,1,-0.000943, 0.002424,-0.000252,1,-0.058895,-0.171383, 9.804976,1,0
1778781452483,  2472.272,  2472.267, 0.008079, 0.013966,-1.005220, 0.000081, 0.000140,-0.010073,-0.017712,-0.041680,-0.063348,1,-0.000001,-0.005285, 0.000786,1,-0.057858,-0.171419, 9.804981,1,0
1778781452497,  2488.097,  2488.097, 0.006174, 0.021768,-0.999278, 0.000063, 0.000210,-0.010019, 0.014232, 0.025067, 0.005164,1,-0.000607, 0.005237, 0.000162,1,-0.046479,-0.188425, 9.804729,1,0
1778781452518,  2488.122,  2488.117, 0.005460, 0.016064,-0.999542, 0.000056, 0.000167,-0.009981, 0.005798, 0.019263, 0.123541,1, 0.001555,-0.002840, 0.000878,1,-0.046765,-0.188071, 9.804735,1,0
1778781452540,  2488.142,  2488.137, 0.009852, 0.020680,-0.994585, 0.000102, 0.000198,-0.009967, 0.037198,-0.036214,-0.045161,1,-0.001474,-0.000673,-0.000206,1,-0.046047,-0.188091, 9.804738,1,0
1778781452567,  2488.167,  2488.167,-0.000310, 0.021229,-0.989815, 0.000003, 0.000222,-0.009879,-0.049665, 0.020281, 0.097966,1, 0.002046,-0.003983, 0.000745,1,-0.046499,-0.187843, 9.804741,1,0
1778781452589,  2488.192,  2488.187, 0.007891, 0.022825,-0.998386, 0.000074, 0.000214,-0.010003, 0.001308,-0.043048,-0.080103,1,-0.001699,-0.001382,-0.000712,1,-0.045661,-0.187884, 9.804744,1,0
1778781452611,  2488.212,  2488.212, 0.004023, 0.020157,-0.983985, 0.000041, 0.000211,-0.009822,-0.007173, 0.010321, 0.155156,1, 0.004735,-0.001580, 0.000131,1,-0.046579,-0.187203, 9.804752,1,0
1778781452637,  2488.237,  2488.237, 0.004783, 0.013915,-1.008199, 0.000040, 0.000131,-0.010080, 0.001225,-0.050802,-0.082302,1,-0.002394,-0.001629,-0.001178,1,-0.045628,-0.187334, 9.804754,1,0
1778781452659,  2488.262,  2488.257, 0.000881, 0.019498,-0.986127, 0.000011, 0.000205,-0.009843,-0.004680, 0.044965, 0.136788,1, 0.000377, 0.004888, 0.000420,1,-0.046739,-0.187446, 9.804747,1,0
1778781452681,  2488.282,  2488.282, 0.005057, 0.014593,-1.010157, 0.000040, 0.000139,-0.010106, 0.004130,-0.044546,-0.101511,1,-0.002127,-0.002454, 0.000226,1,-0.045388,-0.187720, 9.804749,1,0
1778781452707,  2488.307,  2488.307, 0.007486, 0.021945,-0.986283, 0.000080, 0.000223,-0.009874, 0.027023, 0.027720, 0.132610,1, 0.003698, 0.005699,-0.000108,1,-0.046571,-0.187371, 9.804749,1,0
1778781452729,  2488.332,  2488.327, 0.005583, 0.014857,-1.007666, 0.000045, 0.000142,-0.010076,-0.023713,-0.039834,-0.013571,1,-0.000540,-0.006479,-0.000289,1,-0.045886,-0.187029, 9.804759,1,0
1778781452752,  2488.352,  2488.352, 0.007802, 0.024137,-0.988043, 0.000083, 0.000239,-0.009886, 0.029936, 0.049261, 0.115358,1, 0.000556, 0.004172, 0.000435,1,-0.046711,-0.187425, 9.804748,1,0
1778781452777,  2488.377,  2488.377, 0.002405, 0.015721,-1.001592, 0.000020, 0.000166,-0.009994,-0.022557,-0.032990,-0.017503,1, 0.000520,-0.005679, 0.000003,1,-0.045966,-0.187144, 9.804756,1,0
1778781452799,  2488.402,  2488.397, 0.008766, 0.024125,-0.985081, 0.000090, 0.000236,-0.009862, 0.044470, 0.015765, 0.003658,1, 0.000488, 0.005015,-0.000479,1,-0.046100,-0.187247, 9.804754,1,0
1778781452822,  2488.422,  2488.422, 0.001124, 0.013471,-0.996491, 0.000011, 0.000158,-0.009939,-0.035494,-0.054425, 0.032522,1,-0.000366,-0.006826, 0.000017,1,-0.046307,-0.186537, 9.804767,1,0
1778781452847,  2488.447,  2488.447, 0.003452, 0.020532,-1.000372, 0.000039, 0.000196,-0.010030,-0.012222, 0.014335,-0.005542,1,-0.001692, 0.004444,-0.000537,1,-0.046210,-0.187065, 9.804757,1,0
1778781452869,  2488.472,  2488.467, 0.005024, 0.015022,-0.997885, 0.000052, 0.000153,-0.009957,-0.008403, 0.011343, 0.140274,1, 0.002169,-0.000182, 0.000433,1,-0.047009,-0.186604, 9.804762,1,0
1778781452892,  2488.492,  2488.492, 0.007168, 0.020568,-0.997322, 0.000078, 0.000193,-0.009998, 0.023898, 0.015003, 0.024375,1, 0.001836, 0.005277,-0.000928,1,-0.046557,-0.186644, 9.804763,1,0
1778781452917,  2488.517,  2488.517,-0.000936, 0.021361,-0.987566,-0.000007, 0.000220,-0.009852,-0.056102, 0.023304, 0.120054,1, 0.000825,-0.003483,-0.000234,1,-0.046816,-0.186154, 9.804771,1,0
1778781452939,  2488.542,  2488.537, 0.011031, 0.020816,-1.001872, 0.000106, 0.000192,-0.010046,-0.000310,-0.050184,-0.140086,1,-0.003483,-0.001557,-0.000233,1,-0.045783,-0.186723, 9.804766,1,0
1778781452962,  2488.567,  2488.562, 0.006686, 0.022040,-0.983231, 0.000069, 0.000226,-0.009819, 0.018396, 0.029854, 0.162564,1, 0.004294,-0.000563, 0.000504,1,-0.047156,-0.186155, 9.804770,1,0
1778781452988,  2488.587,  2488.587, 0.003577, 0.013905,-1.006777, 0.000029, 0.000130,-0.010062,-0.011085,-0.049740,-0.068337,1,-0.002507,-0.003756,-0.000547,1,-0.046051,-0.186182, 9.804774,1,0
1778781453009,  2488.612,  2488.607, 0.000358, 0.020406,-0.989673, 0.000007, 0.000217,-0.009884,-0.010553, 0.055142, 0.096188,1, 0.000043, 0.004869, 0.000377,1,-0.047060,-0.186388, 9.804766,1,0
1778781453032,  2488.637,  2488.632, 0.005054, 0.012639,-1.008050, 0.000040, 0.000121,-0.010086, 0.003231,-0.062224,-0.080823,1,-0.000256, 0.000287,-0.000668,1,-0.046339,-0.186182, 9.804773,1,0
1778781453058,  2488.657,  2488.657, 0.009167, 0.022341,-0.980620, 0.000096, 0.000228,-0.009823, 0.042287, 0.033047, 0.188168,1, 0.002284, 0.008482,-0.000648,1,-0.047878,-0.185973, 9.804770,1,0
1778781453079,  2488.682,  2488.677, 0.002245, 0.013413,-1.007396, 0.000018, 0.000128,-0.010065,-0.026130,-0.058713, 0.056921,1,-0.002309,-0.005934,-0.000493,1,-0.047445,-0.186102, 9.804770,1,0
1778781453102,  2488.707,  2488.702, 0.003496, 0.025672,-0.991036, 0.000036, 0.000254,-0.009921,-0.013428, 0.064516, 0.086002,1,-0.001222, 0.004088,-0.000681,1,-0.047838,-0.187280, 9.804745,1,0
1778781453128,  2488.727,  2488.727, 0.006947, 0.016556,-0.998926, 0.000066, 0.000177,-0.009970, 0.020501,-0.024936, 0.008628,1,-0.001560,-0.004521, 0.000487,1,-0.047483,-0.187344, 9.804746,1,0
1778781453149,  2488.752,  2488.747, 0.007420, 0.023317,-0.985141, 0.000086, 0.000234,-0.009857, 0.072458, 0.017245, 0.038499,1, 0.000939, 0.004182,-0.000511,1,-0.047707,-0.187403, 9.804743,1,0
1778781453172,  2488.777,  2488.772,-0.001709, 0.013118,-1.000283,-0.000017, 0.000137,-0.009978,-0.064153,-0.058294,-0.004674,1,-0.002601,-0.008577, 0.000508,1,-0.047124,-0.187018, 9.804753,1,0
1778781453198,  2488.797,  2488.797, 0.007342, 0.021289,-1.004452, 0.000070, 0.000198,-0.010074, 0.025259, 0.020812,-0.045568,1,-0.004226, 0.004693, 0.000262,1,-0.046833,-0.188036, 9.804735,1,0
1778781453219,  2488.822,  2488.817, 0.004516, 0.013777,-0.996158, 0.000051, 0.000143,-0.009944, 0.015360, 0.012223, 0.137250,1, 0.002953,-0.000391, 0.000924,1,-0.047577,-0.187817, 9.804736,1,0
1778781453242,  2488.847,  2488.842, 0.005557, 0.020147,-0.998482, 0.000058, 0.000189,-0.010008, 0.007857, 0.009738, 0.012979,1,-0.000374, 0.004594,-0.000037,1,-0.046778,-0.187845, 9.804739,1,0
1778781453268,  2488.867,  2488.867, 0.002201, 0.021157,-0.987982, 0.000027, 0.000224,-0.009859,-0.025628, 0.019731, 0.115940,1, 0.000347,-0.003211, 0.000668,1,-0.047111,-0.187739, 9.804740,1,0
1778781453289,  2488.892,  2488.887, 0.007435, 0.021598,-0.997498, 0.000074, 0.000200,-0.010003,-0.002332,-0.039614,-0.075131,1,-0.001267,-0.000658,-0.000236,1,-0.046228,-0.188097, 9.804737,1,0
1778781453316,  2488.917,  2488.917, 0.004607, 0.023133,-0.985512, 0.000053, 0.000238,-0.009836,-0.001969, 0.039240, 0.140172,1, 0.003352,-0.001454, 0.000396,1,-0.047098,-0.187511, 9.804744,1,0
1778781453338,  2488.937,  2488.937, 0.004131, 0.013692,-1.006118, 0.000035, 0.000131,-0.010058,-0.005836,-0.052999,-0.061894,1, 0.000121,-0.002633,-0.000292,1,-0.046261,-0.187268, 9.804752,1,0
1778781453360,  2488.962,  2488.957,-0.000075, 0.022411,-0.989709, 0.000001, 0.000237,-0.009884,-0.012114, 0.045688, 0.094373,1, 0.002160, 0.003541,-0.000332,1,-0.046916,-0.187042, 9.804754,1,0
1778781453387,  2488.987,  2488.987, 0.005166, 0.012849,-1.004315, 0.000042, 0.000124,-0.010046, 0.004219,-0.060369,-0.044197,1,-0.000705,-0.001493,-0.000982,1,-0.046398,-0.186401, 9.804769,1,0
1778781453408,  2489.012,  2489.007, 0.001542, 0.020480,-0.985342, 0.000017, 0.000218,-0.009847, 0.004814, 0.066900, 0.097845,1, 0.002940, 0.005571, 0.000224,1,-0.047233,-0.186291, 9.804767,1,0
1778781453430,  2489.032,  2489.027, 0.002494, 0.011970,-1.011821, 0.000014, 0.000111,-0.010112,-0.045390,-0.061238, 0.005953,1, 0.001309,-0.006860,-0.000488,1,-0.046831,-0.185609, 9.804782,1,0
1778781453457,  2489.057,  2489.057, 0.007177, 0.023785,-0.985108, 0.000080, 0.000239,-0.009876, 0.023043, 0.047749, 0.144172,1, 0.003609, 0.008021, 0.000490,1,-0.047594,-0.185385, 9.804782,1,0
1778781453478,  2489.082,  2489.077, 0.006013, 0.013363,-1.009189, 0.000053, 0.000121,-0.010081,-0.004527,-0.068873, 0.053314,1,-0.001932,-0.006300, 0.000115,1,-0.047383,-0.185216, 9.804787,1,0
1778781453500,  2489.102,  2489.097, 0.007933, 0.025355,-0.986865, 0.000079, 0.000255,-0.009882, 0.026605, 0.031823,-0.023325,1,-0.004048, 0.006578,-0.000719,1,-0.047446,-0.186282, 9.804766,1,0
1778781453527,  2489.127,  2489.127, 0.003869, 0.021233,-0.983614, 0.000042, 0.000223,-0.009825,-0.008657,-0.032681, 0.034168,1,-0.003705,-0.006635, 0.000445,1,-0.048173,-0.186534, 9.804757,1,0
1778781453548,  2489.152,  2489.147, 0.010311, 0.023118,-0.985280, 0.000103, 0.000236,-0.009874, 0.043377, 0.008284,-0.006767,1, 0.000517, 0.006134,-0.000230,1,-0.048231,-0.187016, 9.804748,1,0
1778781453570,  2489.172,  2489.167, 0.003530, 0.013785,-0.996320, 0.000037, 0.000142,-0.009941, 0.016720, 0.008299, 0.170177,1, 0.004476,-0.003012, 0.000285,1,-0.048968,-0.186022, 9.804763,1,0
1778781453597,  2489.197,  2489.197, 0.008202, 0.019208,-1.003554, 0.000089, 0.000182,-0.010060, 0.033027, 0.001884,-0.036738,1,-0.000515, 0.001408, 0.000098,1,-0.047628,-0.186427, 9.804762,1,0
1778781453618,  2489.222,  2489.217,-0.001051, 0.014867,-1.002016,-0.000005, 0.000156,-0.009996,-0.030626, 0.028256, 0.110809,1, 0.000538,-0.004091,-0.000077,1,-0.047782,-0.186303, 9.804764,1,0
1778781453640,  2489.242,  2489.237, 0.003155, 0.021595,-1.004126, 0.000037, 0.000199,-0.010071,-0.031917,-0.051891,-0.131417,1,-0.002613,-0.004092,-0.000895,1,-0.046181,-0.186665, 9.804765,1,0
1778781453667,  2489.267,  2489.267, 0.004019, 0.025065,-0.989310, 0.000040, 0.000251,-0.009904,-0.020200, 0.034497, 0.132589,1,-0.000248, 0.001810,-0.000698,1,-0.047511,-0.186488, 9.804762,1,0
1778781453688,  2489.287,  2489.287, 0.002241, 0.014414,-1.005515, 0.000012, 0.000139,-0.010058,-0.025183,-0.045377,-0.055973,1,-0.001237, 0.001545,-0.001103,1,-0.047208,-0.186773, 9.804757,1,0
1778781453710,  2489.312,  2489.307, 0.000406, 0.022324,-0.981916, 0.000001, 0.000232,-0.009814,-0.018973, 0.046424, 0.139170,1, 0.002737, 0.006972,-0.000266,1,-0.048760,-0.186501, 9.804755,1,0
1778781453737,  2489.337,  2489.337, 0.008185, 0.012476,-0.999327, 0.000072, 0.000118,-0.009994, 0.031848,-0.064420, 0.004701,1,-0.004682,-0.002151, 0.000298,1,-0.048357,-0.186914, 9.804749,1,0
1778781453758,  2489.362,  2489.357, 0.004296, 0.023715,-0.980356, 0.000054, 0.000252,-0.009799, 0.061069, 0.063292, 0.188870,1,-0.005071, 0.002035, 0.001207,1,-0.048896,-0.187942, 9.804727,1,0
1778781453780,  2489.382,  2489.377, 0.004756, 0.013445,-1.010518, 0.000046, 0.000127,-0.010091,-0.023740,-0.035315, 0.056461,1,-0.008117,-0.008165, 0.002249,1,-0.047849,-0.189219, 9.804708,1,0
1778781453807,  2489.407,  2489.407, 0.002740, 0.026696,-0.997851, 0.000031, 0.000274,-0.009993,-0.020468, 0.071099, 0.019109,1, 0.003469, 0.007021, 0.001560,1,-0.047548,-0.190590, 9.804683,1,0
1778781453829,  2489.432,  2489.427, 0.009807, 0.012077,-1.015990, 0.000088, 0.000112,-0.010126,-0.036270,-0.067613, 0.039404,1, 0.001673,-0.005381,-0.000401,1,-0.047645,-0.189608, 9.804701,1,0
1778781453851,  2489.452,  2489.452, 0.009611, 0.027460,-0.989521, 0.000091, 0.000279,-0.009922, 0.046136, 0.080803, 0.100829,1, 0.010612, 0.013341,-0.001028,1,-0.048533,-0.188153, 9.804725,1,0
1778781453877,  2489.477,  2489.477, 0.007184, 0.019002,-0.983405, 0.000080, 0.000203,-0.009818,-0.032559,-0.067312, 0.019058,1, 0.000773,-0.008167,-0.000481,1,-0.048076,-0.186914, 9.804750,1,0
1778781453899,  2489.502,  2489.497, 0.004516, 0.023029,-0.987005, 0.000044, 0.000236,-0.009897, 0.015647, 0.024954,-0.077995,1, 0.006098, 0.005412,-0.001540,1,-0.047783,-0.186715, 9.804756,1,0
1778781453921,  2489.522,  2489.522, 0.004302, 0.015369,-0.996670, 0.000049, 0.000168,-0.009936,-0.005935,-0.034607, 0.030787,1,-0.000880,-0.009042, 0.000715,1,-0.047841,-0.185352, 9.804782,1,0
1778781453947,  2489.547,  2489.547, 0.012440, 0.020675,-0.998258, 0.000132, 0.000204,-0.010006, 0.074354, 0.017071, 0.015212,1, 0.001229, 0.005354,-0.000007,1,-0.047808,-0.185643, 9.804776,1,0
1778781453969,  2489.572,  2489.567,-0.003738, 0.014490,-0.993366,-0.000028, 0.000157,-0.009912,-0.046583, 0.020259, 0.200863,1, 0.003352,-0.000095, 0.000719,1,-0.048570,-0.184940, 9.804786,1,0
1778781453992,  2489.592,  2489.592, 0.005013, 0.021994,-0.999838, 0.000057, 0.000211,-0.010006, 0.001898, 0.029285,-0.000302,1,-0.002529, 0.001767,-0.000186,1,-0.047276,-0.186436, 9.804764,1,0
1778781454017,  2489.617,  2489.617, 0.005215, 0.024120,-0.976706, 0.000036, 0.000249,-0.009758, 0.002723, 0.049778, 0.226534,1, 0.000118, 0.002614, 0.001477,1,-0.048504,-0.186753, 9.804751,1,0
1778781454039,  2489.642,  2489.637, 0.006338, 0.023606,-0.995960, 0.000066, 0.000223,-0.009988, 0.014778,-0.029327,-0.066472,1,-0.007504,-0.004474, 0.000663,1,-0.047093,-0.187998, 9.804735,1,0
1778781454062,  2489.662,  2489.662,-0.001452, 0.019936,-0.986243,-0.000011, 0.000210,-0.009840,-0.061907, 0.007746, 0.132992,1,-0.001339,-0.007944, 0.000462,1,-0.047419,-0.187797, 9.804737,1,0
1778781454087,  2489.687,  2489.687, 0.005060, 0.012922,-1.018743, 0.000042, 0.000126,-0.010187, 0.003746,-0.061799,-0.185726,1,-0.002412,-0.003865,-0.000260,1,-0.045757,-0.188600, 9.804729,1,0
1778781454109,  2489.712,  2489.707, 0.005382, 0.019098,-0.989825, 0.000062, 0.000207,-0.009897, 0.044915, 0.058761, 0.054085,1, 0.005624, 0.008662,-0.000801,1,-0.047091,-0.187856, 9.804737,1,0
1778781454132,  2489.732,  2489.732, 0.010901, 0.011267,-1.010083, 0.000114, 0.000108,-0.010087, 0.060269,-0.077334,-0.100794,1,-0.003473,-0.003874,-0.000971,1,-0.046512,-0.187936, 9.804739,1,0
1778781454157,  2489.757,  2489.757, 0.006107, 0.024522,-0.989424, 0.000063, 0.000246,-0.009906, 0.012513, 0.052427, 0.101796,1, 0.002173, 0.005723,-0.000000,1,-0.047558,-0.187986, 9.804732,1,0
1778781454179,  2489.782,  2489.777, 0.008208, 0.014715,-1.006698, 0.000070, 0.000138,-0.010082,-0.019545,-0.051259,-0.063064,1,-0.002861,-0.005789, 0.000389,1,-0.046739,-0.188124, 9.804734,1,0
1778781454202,  2489.807,  2489.802, 0.010465, 0.019622,-0.977345, 0.000110, 0.000189,-0.009779, 0.054345, 0.005041, 0.220256,1, 0.004580, 0.004357, 0.000355,1,-0.048420,-0.187245, 9.804743,1,0
1778781454228,  2489.827,  2489.827, 0.000217, 0.012749,-0.997263, 0.000007, 0.000133,-0.009952,-0.045361,-0.062221, 0.024938,1,-0.003252,-0.008491, 0.000157,1,-0.047223,-0.187346, 9.804747,1,0
1778781454249,  2489.852,  2489.847, 0.000455, 0.029049,-0.990621, 0.000009, 0.000297,-0.009916,-0.011602, 0.035075, 0.001291,1,-0.004937, 0.001420,-0.001062,1,-0.046902,-0.188258, 9.804730,1,0
1778781454272,  2489.877,  2489.872, 0.000334, 0.016528,-0.998638, 0.000006, 0.000181,-0.009973,-0.043169,-0.026025, 0.011439,1, 0.002583,-0.007629,-0.000001,1,-0.046202,-0.188032, 9.804738,1,0
1778781454298,  2489.897,  2489.897, 0.003699, 0.024630,-0.999105, 0.000044, 0.000235,-0.010010,-0.009541, 0.053960, 0.006878,1, 0.005308, 0.002837,-0.001904,1,-0.045898,-0.187416, 9.804751,1,0
1778781454319,  2489.922,  2489.917, 0.001649, 0.010812,-0.996364, 0.000019, 0.000113,-0.009942,-0.046114, 0.004752, 0.156949,1, 0.003793, 0.000840,-0.000360,1,-0.046616,-0.186084, 9.804773,1,0
1778781454342,  2489.947,  2489.942, 0.010419, 0.022259,-0.997157, 0.000105, 0.000211,-0.009995, 0.055937, 0.030585, 0.025978,1,-0.006813, 0.008647, 0.000264,1,-0.046505,-0.187911, 9.804739,1,0
1778781454368,  2489.967,  2489.967, 0.003533, 0.019575,-0.983062, 0.000042, 0.000208,-0.009813,-0.012807, 0.003391, 0.164177,1,-0.002886,-0.001699, 0.001522,1,-0.047407,-0.188663, 9.804721,1,0
1778781454389,  2489.992,  2489.987, 0.007708, 0.025476,-1.002752, 0.000076, 0.000241,-0.010057, 0.029159,-0.016434,-0.121370,1,-0.005792,-0.003177, 0.000236,1,-0.046275,-0.189940, 9.804701,1,0
1778781454412,  2490.017,  2490.012, 0.004691, 0.018836,-0.984660, 0.000051, 0.000202,-0.009830,-0.001560,-0.004715, 0.148484,1, 0.004020,-0.000971, 0.002226,1,-0.047533,-0.189312, 9.804708,1,0
1778781454438,  2490.037,  2490.037, 0.009084, 0.015619,-1.013320, 0.000093, 0.000148,-0.010125, 0.042720,-0.036664,-0.132577,1,-0.002610,-0.004727,-0.000088,1,-0.046215,-0.189918, 9.804702,1,0
1778781454459,  2490.062,  2490.057, 0.001728, 0.018654,-0.986921, 0.000030, 0.000197,-0.009848, 0.012887, 0.052878, 0.146846,1, 0.005864, 0.007779,-0.000061,1,-0.047613,-0.189234, 9.804708,1,0
1778781454482,  2490.087,  2490.082, 0.007878, 0.013329,-1.012808, 0.000070, 0.000129,-0.010133, 0.031215,-0.058219,-0.127535,1, 0.000187,-0.001238,-0.001423,1,-0.046001,-0.188930, 9.804722,1,1
1778781454508,  2490.107,  2490.107, 0.006070, 0.022575,-0.981852, 0.000060, 0.000225,-0.009830, 0.012412, 0.033055, 0.176047,1, 0.003250, 0.005821,-0.000840,1,-0.047293,-0.188229, 9.804729,1,1
1778781454529,  2490.132,  2490.127, 0.005371, 0.014688,-1.007602, 0.000042, 0.000135,-0.010076,-0.048147,-0.057330,-0.000823,1,-0.004343,-0.006726, 0.000262,1,-0.046328,-0.188583, 9.804728,1,1
1778781454556,  2490.157,  2490.157, 0.005312, 0.024383,-0.983243, 0.000056, 0.000242,-0.009839, 0.004886, 0.049935, 0.162395,1, 0.000970, 0.004842, 0.000582,1,-0.047363,-0.189151, 9.804711,1,1
1778781454578,  2490.177,  2490.177, 0.003086, 0.014721,-1.000230, 0.000029, 0.000149,-0.009978,-0.016259,-0.044647,-0.004186,1, 0.000193,-0.008695,-0.000198,1,-0.046250,-0.189005, 9.804719,1,1
1778781454600,  2490.202,  2490.197, 0.005028, 0.024576,-0.982320, 0.000059, 0.000246,-0.009834, 0.024614, 0.027929, 0.033499,1, 0.000664, 0.005976, 0.000239,1,-0.046491,-0.188934, 9.804720,1,1
1778781454626,  2490.227,  2490.227,-0.001399, 0.013761,-1.002663,-0.000010, 0.000144,-0.010003,-0.060020,-0.054023,-0.028050,1,-0.002636,-0.008717, 0.000230,1,-0.046034,-0.189052, 9.804720,1,1
1778781454648,  2490.252,  2490.247, 0.003733, 0.026564,-0.988158, 0.000042, 0.000269,-0.009902,-0.007240, 0.039424,-0.031450,1, 0.001782, 0.006055,-0.001248,1,-0.046128,-0.189229, 9.804716,1,1
1778781454670,  2490.272,  2490.267, 0.004290, 0.014510,-0.999504, 0.000044, 0.000152,-0.009971,-0.004353, 0.025168, 0.130252,1, 0.004256,-0.000456, 0.000347,1,-0.047017,-0.188567, 9.804724,1,1
1778781454697,  2490.297,  2490.297, 0.005597, 0.021244,-0.996876, 0.000065, 0.000205,-0.009992, 0.008286, 0.020066, 0.028716,1, 0.002950, 0.005285,-0.000665,1,-0.046766,-0.188173, 9.804733,1,1
1778781454718,  2490.322,  2490.317, 0.002874, 0.014713,-1.005180, 0.000023, 0.000149,-0.010029,-0.041226, 0.013006, 0.096718,1, 0.001441,-0.003233, 0.000046,1,-0.047116,-0.187747, 9.804739,1,1
1778781454740,  2490.342,  2490.337, 0.012005, 0.022775,-0.998043, 0.000122, 0.000219,-0.010012, 0.051181,-0.025252,-0.123115,1,-0.002996, 0.000361,-0.000998,1,-0.046295,-0.188391, 9.804731,1,1
1778781454767,  2490.367,  2490.367, 0.005232, 0.018718,-0.982436, 0.000061, 0.000199,-0.009805, 0.003514,-0.004361, 0.170322,1, 0.001243,-0.004252, 0.000888,1,-0.047661,-0.187887, 9.804734,1,1
1778781454788,  2490.392,  2490.387, 0.006183, 0.021824,-0.999469, 0.000065, 0.000208,-0.010019, 0.017632,-0.045024,-0.085982,1,-0.004245,-0.002897,-0.000479,1,-0.046400,-0.188630, 9.804726,1,1
1778781454810,  2490.412,  2490.407, 0.005217, 0.019301,-0.986545, 0.000056, 0.000207,-0.009846, 0.012588, 0.046076, 0.147918,1,-0.000418, 0.005286, 0.001097,1,-0.047493,-0.189084, 9.804712,1,1
1778781454837,  2490.437,  2490.437, 0.006922, 0.016368,-1.007667, 0.000067, 0.000154,-0.010087, 0.021597,-0.029014,-0.077134,1,-0.001870,-0.001031,-0.000497,1,-0.046251,-0.189585, 9.804708,1,1
1778781454858,  2490.462,  2490.457,-0.000428, 0.019539,-0.987766, 0.000001, 0.000205,-0.009848,-0.012324, 0.045465, 0.197072,1, 0.003912, 0.002409,-0.000068,1,-0.047184,-0.188935, 9.804716,1,1
1778781454880,  2490.482,  2490.477, 0.002510, 0.016255,-1.013581, 0.000023, 0.000151,-0.010151,-0.060052,-0.051068,-0.073078,1,-0.001868,-0.009361, 0.000051,1,-0.045687,-0.189011, 9.804722,1,1
1778781454907,  2490.507,  2490.507, 0.002881, 0.023778,-0.983788, 0.000036, 0.000238,-0.009844,-0.018353, 0.044552, 0.157061,1, 0.002875, 0.004964, 0.000038,1,-0.046758,-0.188542, 9.804726,1,1
1778781454928,  2490.532,  2490.527, 0.005230, 0.015175,-1.006652, 0.000046, 0.000143,-0.010074,-0.023083,-0.046755,-0.024781,1,-0.001432,-0.006744,-0.000357,1,-0.045811,-0.188486, 9.804731,1,1
1778781454950,  2490.552,  2490.547, 0.004140, 0.022718,-0.987045, 0.000044, 0.000227,-0.009872, 0.007686, 0.019410, 0.042797,1, 0.001029, 0.006546, 0.000242,1,-0.046436,-0.188554, 9.804728,1,1
1778781454977,  2490.577,  2490.577, 0.003217, 0.014331,-1.005423, 0.000031, 0.000144,-0.010045,-0.014658,-0.047804,-0.055103,1,-0.001644,-0.004220, 0.000437,1,-0.046070,-0.188397, 9.804732,1,1
1778781454998,  2490.602,  2490.597, 0.007027, 0.023756,-0.981090, 0.000077, 0.000243,-0.009807, 0.040427, 0.031563, 0.116970,1, 0.001274, 0.007121, 0.000518,1,-0.046826,-0.188381, 9.804729,1,1
1778781455020,  2490.622,  2490.617, 0.004467, 0.013492,-1.008253, 0.000043, 0.000135,-0.010068,-0.003063,-0.005234, 0.073080,1, 0.001089,-0.005502, 0.000956,1,-0.046675,-0.188204, 9.804732,1,1
1778781455047,  2490.647,  2490.647, 0.008283, 0.024321,-0.993550, 0.000083, 0.000241,-0.009960, 0.034839, 0.050266, 0.061338,1, 0.002012, 0.005914, 0.000072,1,-0.046577,-0.188182, 9.804733,1,1
1778781455069,  2490.672,  2490.667, 0.005009, 0.014134,-1.000905, 0.000048, 0.000142,-0.009994, 0.002777,-0.007948, 0.104166,1, 0.000651,-0.004128, 0.000882,1,-0.046481,-0.187873, 9.804740,1,1
1778781455091,  2490.692,  2490.692, 0.003322, 0.023394,-0.994837, 0.000040, 0.000228,-0.009962,-0.013437, 0.041319, 0.048724,1,-0.000359, 0.003756,-0.000800,1,-0.046132,-0.188106, 9.804737,1,1
1778781455117,  2490.717,  2490.717, 0.002763, 0.017388,-0.995851, 0.000024, 0.000184,-0.009938,-0.018963,-0.017380, 0.038777,1, 0.000370,-0.005393, 0.000261,1,-0.045885,-0.187885, 9.804743,1,1
1778781455139,  2490.742,  2490.737, 0.008884, 0.022631,-0.984594, 0.000092, 0.000230,-0.009863, 0.045966,-0.013060,-0.000501,1,-0.002709, 0.005008,-0.001087,1,-0.045920,-0.188506, 9.804730,1,1
1778781455161,  2490.762,  2490.762,-0.001759, 0.016396,-0.994054,-0.000017, 0.000174,-0.009912,-0.063491,-0.027962, 0.056387,1,-0.001586,-0.008339, 0.000601,1,-0.045980,-0.188797, 9.804725,1,1
1778781455187,  2490.787,  2490.787, 0.003431, 0.018279,-1.009746, 0.000033, 0.000173,-0.010118,-0.011641,-0.010186,-0.097513,1,-0.002468, 0.002219,-0.000562,1,-0.045352,-0.189515, 9.804714,1,1
1778781455209,  2490.812,  2490.807, 0.003794, 0.016166,-0.989105, 0.000043, 0.000168,-0.009873, 0.001322, 0.027599, 0.167396,1, 0.003308, 0.003884, 0.001500,1,-0.046829,-0.189216, 9.804712,1,1
1778781455232,  2490.832,  2490.832, 0.004029, 0.019394,-1.006148, 0.000046, 0.000181,-0.010077,-0.006374, 0.000967,-0.062225,1,-0.000783, 0.001901,-0.000390,1,-0.045946,-0.189248, 9.804716,1,1
1778781455257,  2490.857,  2490.857, 0.001308, 0.021518,-0.987624, 0.000011, 0.000222,-0.009866,-0.033879, 0.022088, 0.119439,1, 0.002320,-0.000449,-0.000490,1,-0.046693,-0.188863, 9.804720,1,1
1778781455279,  2490.882,  2490.877, 0.010482, 0.019915,-1.002088, 0.000101, 0.000190,-0.010049, 0.005794,-0.027940,-0.119095,1,-0.002795,-0.001040,-0.000387,1,-0.045669,-0.189195, 9.804718,1,1
1778781455302,  2490.902,  2490.902, 0.005995, 0.022574,-0.983315, 0.000066, 0.000227,-0.009817, 0.011597, 0.032612, 0.161692,1, 0.002159,-0.002301,-0.000082,1,-0.047123,-0.188699, 9.804721,1,1
1778781455327,  2490.927,  2490.927, 0.004005, 0.014055,-1.008412, 0.000036, 0.000141,-0.010082,-0.006923,-0.050872,-0.084417,1,-0.001263,-0.002723, 0.000173,1,-0.046111,-0.188739, 9.804725,1,1
1778781455349,  2490.952,  2490.947, 0.004569, 0.021398,-0.985536, 0.000048, 0.000223,-0.009849, 0.009588, 0.028400, 0.102535,1, 0.000481, 0.005763, 0.000081,1,-0.047129,-0.188772, 9.804720,1,1
1778781455372,  2490.972,  2490.972, 0.007857, 0.013761,-1.005086, 0.000075, 0.000137,-0.010050, 0.030680,-0.053484,-0.051796,1,-0.000813,-0.001543,-0.000232,1,-0.046323,-0.188463, 9.804729,1,1
1778781455397,  2490.997,  2490.997, 0.006569, 0.022705,-0.981441, 0.000070, 0.000235,-0.009827, 0.017145, 0.034364, 0.180078,1, 0.002213, 0.005730,-0.000231,1,-0.047542,-0.188227, 9.804729,1,1
1778781455419,  2491.022,  2491.017, 0.002060, 0.014520,-1.011553, 0.000014, 0.000141,-0.010116,-0.050060,-0.046302,-0.005967,1,-0.001147,-0.009488,-0.000205,1,-0.046381,-0.187989, 9.804738,1,1
1778781455442,  2491.047,  2491.042, 0.006423, 0.024883,-0.985858, 0.000068, 0.000251,-0.009878, 0.016312, 0.055770, 0.136766,1, 0.000082, 0.005102, 0.000819,1,-0.046838,-0.188242, 9.804731,1,1
1778781455468,  2491.067,  2491.067, 0.003157, 0.015341,-0.995486, 0.000033, 0.000159,-0.009925,-0.015312,-0.037799, 0.042346,1,-0.000841,-0.008200, 0.000639,1,-0.046013,-0.188268, 9.804734,1,1
1778781455489,  2491.092,  2491.087, 0.002351, 0.023332,-0.990072, 0.000028, 0.000234,-0.009908,-0.011197, 0.015744,-0.015194,1,-0.000865, 0.003530,-0.000735,1,-0.045680,-0.188623, 9.804729,1,1
1778781455512,  2491.117,  2491.112, 0.002243, 0.016725,-1.003202, 0.000021, 0.000172,-0.010017,-0.023556,-0.024461,-0.033321,1,-0.000289,-0.006025, 0.000258,1,-0.045363,-0.188489, 9.804733,1,1
1778781455538,  2491.137,  2491.137, 0.008383, 0.020907,-0.995212, 0.000079, 0.000204,-0.009978, 0.036411, 0.016372, 0.045032,1, 0.000530, 0.007792,-0.001106,1,-0.046043,-0.188635, 9.804728,1,1
1778781455559,  2491.162,  2491.157, 0.002729, 0.015642,-1.000929, 0.000028, 0.000165,-0.009994,-0.012371, 0.014201, 0.111161,1, 0.000222,-0.001716, 0.000380,1,-0.046524,-0.188499, 9.804728,1,1
1778781455582,  2491.187,  2491.182, 0.007579, 0.022330,-0.997329, 0.000075, 0.000213,-0.009997, 0.028033, 0.030014, 0.024263,1,-0.002416, 0.005272,-0.000868,1,-0.046457,-0.189049, 9.804718,1,1
1778781455608,  2491.207,  2491.207, 0.004036, 0.020649,-0.986378, 0.000042, 0.000218,-0.009851,-0.007035, 0.013253, 0.131648,1, 0.001513,-0.002270, 0.001413,1,-0.046535,-0.189198, 9.804714,1,1
1778781455629,  2491.232,  2491.227, 0.007654, 0.022680,-1.000076, 0.000077, 0.000217,-0.010022, 0.023402,-0.039717,-0.079929,1,-0.002341,-0.003037,-0.000435,1,-0.045401,-0.189384, 9.804716,1,1
1778781455652,  2491.257,  2491.252, 0.003039, 0.019303,-0.985621, 0.000031, 0.000204,-0.009843,-0.016318,-0.000032, 0.139071,1, 0.001570,-0.002443, 0.001277,1,-0.046044,-0.189282, 9.804715,1,1
1778781455678,  2491.277,  2491.277, 0.005192, 0.016053,-1.007937, 0.000050, 0.000152,-0.010077, 0.005798,-0.032169,-0.079777,1,-0.002908,-0.002545,-0.000234,1,-0.045039,-0.189688, 9.804712,1,1
1778781455699,  2491.302,  2491.297, 0.001400, 0.017023,-0.988108, 0.000016, 0.000183,-0.009861,-0.013387, 0.032749, 0.149290,1, 0.003568, 0.005638, 0.000150,1,-0.046258,-0.189325, 9.804713,1,1
1778781455722,  2491.327,  2491.322, 0.006923, 0.015290,-1.010362, 0.000065, 0.000154,-0.010104, 0.022587,-0.039198,-0.103548,1,-0.000205,-0.000753,-0.001039,1,-0.045281,-0.189147, 9.804721,1,1
1778781455748,  2491.347,  2491.347, 0.006132, 0.021110,-0.980624, 0.000067, 0.000220,-0.009823, 0.013311, 0.018034, 0.188080,1, 0.003009, 0.008932,-0.000073,1,-0.047101,-0.188890, 9.804718,1,1
1778781455769,  2491.372,  2491.367, 0.003313, 0.015153,-1.009888, 0.000028, 0.000145,-0.010097,-0.051612,-0.052723, 0.011609,1,-0.002576,-0.008050,-0.000031,1,-0.046239,-0.188801, 9.804724,1,1
1778781455796,  2491.397,  2491.397, 0.007027, 0.023553,-0.984939, 0.000073, 0.000238,-0.009861, 0.022126, 0.041093, 0.145746,1,-0.001677, 0.006203, 0.001214,1,-0.046946,-0.189824, 9.804700,1,1
1778781455818,  2491.417,  2491.417, 0.003742, 0.017681,-1.002577, 0.000042, 0.000178,-0.010000,-0.009560,-0.016787,-0.027227,1,-0.004383,-0.008120, 0.000772,1,-0.046001,-0.190316, 9.804695,1,1
1778781455840,  2491.442,  2491.437, 0.004492, 0.024717,-0.986766, 0.000047, 0.000251,-0.009874, 0.023419, 0.036517,-0.004430,1, 0.000769, 0.005678,-0.000410,1,-0.046234,-0.190558, 9.804689,1,1
1778781455867,  2491.467,  2491.467, 0.000558, 0.016632,-1.001488, 0.000003, 0.000174,-0.009995,-0.040598,-0.026990,-0.016547,1, 0.000723,-0.006722, 0.000704,1,-0.045862,-0.190071, 9.804701,1,1
1778781455888,  2491.492,  2491.487, 0.006257, 0.023246,-0.985157, 0.000068, 0.000235,-0.009871, 0.040767, 0.014601, 0.003208,1, 0.000305, 0.004835,-0.000618,1,-0.046032,-0.190040, 9.804701,1,1
1778781455910,  2491.512,  2491.507, 0.003384, 0.015341,-0.996552, 0.000035, 0.000163,-0.009943,-0.010122, 0.022554, 0.161113,1, 0.001630,-0.001118, 0.000091,1,-0.046693,-0.189865, 9.804701,1,1
1778781455937,  2491.537,  2491.537, 0.006860, 0.022074,-0.998038, 0.000070, 0.000209,-0.010004, 0.021121, 0.026003, 0.017284,1,-0.000813, 0.005751,-0.000199,1,-0.046334,-0.190496, 9.804690,1,1
1778781455958,  2491.562,  2491.557,-0.000647, 0.016550,-1.000517,-0.000012, 0.000166,-0.009980,-0.041401, 0.013798, 0.134354,1, 0.003013,-0.003649, 0.001047,1,-0.046670,-0.189887, 9.804700,1,1
1778781455980,  2491.582,  2491.577, 0.010254, 0.020771,-1.000147, 0.000100, 0.000193,-0.010025, 0.010402,-0.038660,-0.096221,1, 0.000838,-0.002913,-0.000075,1,-0.045519,-0.189758, 9.804708,1,1
1778781456007,  2491.607,  2491.607, 0.004245, 0.019226,-0.983072, 0.000049, 0.000204,-0.009815,-0.005238,-0.000648, 0.164066,1, 0.004044,-0.001151, 0.000269,1,-0.046834,-0.189071, 9.804715,1,1
1778781456028,  2491.632,  2491.627, 0.005340, 0.018101,-1.004145, 0.000050, 0.000174,-0.010065,-0.047516,-0.061059,-0.099551,1,-0.000995,-0.003795,-0.000758,1,-0.045481,-0.188922, 9.804725,1,1
1778781456050,  2491.652,  2491.647, 0.006423, 0.019843,-0.982285, 0.000061, 0.000207,-0.009816, 0.006576, 0.022943, 0.116433,1, 0.000529, 0.008323, 0.000461,1,-0.046713,-0.188953, 9.804718,1,1
1778781456077,  2491.677,  2491.677, 0.007638, 0.014588,-1.009961, 0.000072, 0.000137,-0.010096, 0.029035,-0.046583,-0.099621,1,-0.006301,-0.003543,-0.001208,1,-0.045760,-0.189844, 9.804706,1,1
1778781456098,  2491.702,  2491.697, 0.001918, 0.022559,-0.984423, 0.000027, 0.000230,-0.009829, 0.013365, 0.037706, 0.135517,1, 0.000421, 0.005582, 0.000573,1,-0.046844,-0.189985, 9.804698,1,1
1778781456120,  2491.722,  2491.717, 0.002786, 0.016867,-1.013042, 0.000018, 0.000165,-0.010122,-0.051131,-0.002168, 0.000388,1,-0.003392,-0.008717, 0.000166,1,-0.045771,-0.190370, 9.804695,1,1
1778781456147,  2491.747,  2491.747, 0.008570, 0.025165,-0.991388, 0.000087, 0.000248,-0.009928, 0.038072, 0.056111, 0.082489,1, 0.001806, 0.006169,-0.000078,1,-0.046161,-0.190620, 9.804688,1,1
1778781456168,  2491.772,  2491.767, 0.005137, 0.015444,-1.003909, 0.000043, 0.000149,-0.010034,-0.011351,-0.003562, 0.047596,1, 0.001797,-0.005500, 0.000137,1,-0.045799,-0.190044, 9.804702,1,1
1778781456190,  2491.792,  2491.787, 0.004387, 0.023240,-0.985981, 0.000045, 0.000231,-0.009873, 0.015949,-0.000959, 0.008820,1,-0.000452, 0.003072,-0.000748,1,-0.045704,-0.190200, 9.804699,1,1
1778781456217,  2491.817,  2491.817,-0.000590, 0.015648,-0.999263,-0.000012, 0.000166,-0.009966,-0.051598,-0.036109, 0.005286,1, 0.001528,-0.007066, 0.000080,1,-0.045590,-0.189513, 9.804712,1,1
1778781456239,  2491.842,  2491.837, 0.008526, 0.023333,-0.983108, 0.000087, 0.000234,-0.009855, 0.038950,-0.001201,-0.012949,1, 0.001423, 0.005992,-0.000399,1,-0.045588,-0.189357, 9.804716,1,1
1778781456260,  2491.862,  2491.857, 0.001127, 0.013568,-0.991139, 0.000017, 0.000147,-0.009882,-0.007894, 0.018907, 0.220217,1, 0.002460, 0.000669, 0.000220,1,-0.046604,-0.188863, 9.804721,1,1
1778781456287,  2491.887,  2491.887, 0.001778, 0.018572,-1.006992, 0.000017, 0.000173,-0.010090,-0.027890,-0.007343,-0.070503,1,-0.002120, 0.002692,-0.000156,1,-0.045415,-0.189535, 9.804713,1,1
1778781456309,  2491.912,  2491.907, 0.004969, 0.017813,-0.996950, 0.000046, 0.000187,-0.009945,-0.019530, 0.033878, 0.133935,1,-0.000379, 0.001498, 0.001179,1,-0.046336,-0.189588, 9.804708,1,1
1778781456331,  2491.932,  2491.932, 0.011918, 0.018177,-1.001642, 0.000121, 0.000168,-0.010035, 0.071205,-0.011806,-0.018046,1,-0.001274, 0.005090,-0.000069,1,-0.045828,-0.190098, 9.804700,1,1
1778781456357,  2491.957,  2491.957, 0.003727, 0.022803,-0.984912, 0.000048, 0.000228,-0.009836,-0.010057, 0.033750, 0.146017,1, 0.000238,-0.000677, 0.000297,1,-0.046588,-0.189865, 9.804701,1,1
1778781456379,  2491.982,  2491.977, 0.006687, 0.019119,-1.006496, 0.000059, 0.000179,-0.010083,-0.030725,-0.037260,-0.100250,1,-0.004394,-0.004177,-0.000123,1,-0.045388,-0.190383, 9.804697,1,1
1778781456402,  2492.002,  2492.002, 0.007119, 0.023541,-0.982811, 0.000073, 0.000244,-0.009828, 0.023428, 0.040207, 0.166603,1, 0.001182, 0.001656, 0.000990,1,-0.046429,-0.190614, 9.804688,1,1
1778781456427,  2492.027,  2492.027, 0.006888, 0.015016,-1.006465, 0.000062, 0.000144,-0.010053, 0.022005,-0.043347,-0.065355,1,-0.001808,-0.005156,-0.000636,1,-0.045379,-0.190662, 9.804691,1,1
1778781456449,  2492.052,  2492.047, 0.000473, 0.022404,-0.982345, 0.000008, 0.000233,-0.009819,-0.007039, 0.057855, 0.115356,1, 0.001672, 0.006521,-0.000589,1,-0.046182,-0.190451, 9.804691,1,1
1778781456472,  2492.072,  2492.072, 0.001039, 0.013364,-1.011801, 0.000003, 0.000128,-0.010105,-0.034940,-0.059668,-0.117691,1,-0.002674,-0.005285,-0.000663,1,-0.044959,-0.190811, 9.804690,1,1
1778781456497,  2492.097,  2492.097, 0.007862, 0.023989,-0.990075, 0.000075, 0.000237,-0.009927, 0.031279, 0.044611, 0.095375,1, 0.003420, 0.008665,-0.000228,1,-0.046096,-0.190537, 9.804690,1,1
1778781456519,  2492.122,  2492.117, 0.004247, 0.014410,-1.002849, 0.000037, 0.000140,-0.010016,-0.014513,-0.017102, 0.098510,1, 0.000064,-0.005139, 0.000077,1,-0.046000,-0.190223, 9.804697,1,1
1778781456542,  2492.142,  2492.142, 0.005013, 0.022653,-0.990149, 0.000052, 0.000219,-0.009914, 0.002977, 0.031432, 0.094637,1,-0.000599, 0.006294,-0.000296,1,-0.046376,-0.190737, 9.804686,1,1
1778781456567,  2492.167,  2492.167, 0.000934, 0.017678,-0.997086, 0.000009, 0.000186,-0.009951,-0.037089,-0.017367, 0.026611,1,-0.000766,-0.005059, 0.000590,1,-0.046095,-0.190752, 9.804687,1,1
1778781456589,  2492.192,  2492.187, 0.009199, 0.024652,-0.984739, 0.000091, 0.000246,-0.009867, 0.042110,-0.010834, 0.007366,1,-0.001618, 0.004266,-0.000316,1,-0.046082,-0.191127, 9.804679,1,1
1778781456612,  2492.212,  2492.212, 0.001178, 0.015336,-0.995888, 0.000014, 0.000166,-0.009937,-0.034887,-0.040722, 0.038353,1,-0.000675,-0.007451, 0.000805,1,-0.046204,-0.191138, 9.804678,1,1
1778781456637,  2492.237,  2492.237, 0.005989, 0.019419,-1.008449, 0.000057, 0.000177,-0.010107, 0.013065,-0.001098,-0.084836,1,-0.001471, 0.003591,-0.000559,1,-0.045778,-0.191583, 9.804671,1,1
1778781456659,  2492.262,  2492.257, 0.004030, 0.017260,-0.991761, 0.000043, 0.000180,-0.009889, 0.008316, 0.041550, 0.178421,1, 0.001222, 0.002343, 0.000345,1,-0.046896,-0.191362, 9.804670,1,1
1778781456682,  2492.287,  2492.282, 0.006617, 0.018540,-1.005783, 0.000067, 0.000168,-0.010077, 0.019080,-0.009838,-0.058696,1,-0.001066, 0.002887,-0.000527,1,-0.045900,-0.191686, 9.804669,1,1
1778781456708,  2492.307,  2492.307, 0.004270, 0.024316,-0.986342, 0.000045, 0.000246,-0.009852,-0.004733, 0.047121, 0.131960,1, 0.002117,-0.000179, 0.000198,1,-0.046606,-0.191273, 9.804674,1,1
1778781456729,  2492.332,  2492.327, 0.008602, 0.018577,-1.001126, 0.000086, 0.000174,-0.010035, 0.004181,-0.043046,-0.069902,1,-0.001394,-0.003081, 0.000175,1,-0.045539,-0.191499, 9.804674,1,1
1778781456752,  2492.357,  2492.352, 0.004350, 0.022622,-0.985149, 0.000046, 0.000232,-0.009842,-0.003794, 0.030647, 0.143661,1, 0.002772,-0.001389, 0.001148,1,-0.046411,-0.191115, 9.804678,1,1
1778781456778,  2492.377,  2492.377, 0.003585, 0.013704,-1.008404, 0.000029, 0.000132,-0.010084,-0.010339,-0.056615,-0.084385,1, 0.000223,-0.003279,-0.000509,1,-0.045392,-0.191002, 9.804685,1,1
1778781456799,  2492.402,  2492.397, 0.001131, 0.022694,-0.983316, 0.000017, 0.000235,-0.009823,-0.003063, 0.055720, 0.134858,1, 0.002475, 0.005541,-0.000171,1,-0.046411,-0.190652, 9.804687,1,1
1778781456822,  2492.427,  2492.422, 0.003487, 0.013091,-1.009336, 0.000024, 0.000125,-0.010086,-0.011329,-0.061980,-0.093509,1,-0.000869,-0.003437,-0.001068,1,-0.045415,-0.190390, 9.804696,1,1
1778781456848,  2492.447,  2492.447, 0.006310, 0.024952,-0.990121, 0.000066, 0.000246,-0.009920, 0.015705, 0.054456, 0.094928,1, 0.002238, 0.007094,-0.000156,1,-0.046401,-0.190170, 9.804696,1,1
1778781456869,  2492.472,  2492.467, 0.004663, 0.013945,-1.003135, 0.000038, 0.000131,-0.010025,-0.014346,-0.040163, 0.061218,1, 0.000014,-0.003549, 0.000355,1,-0.046385,-0.189849, 9.804703,1,1
1778781456892,  2492.497,  2492.492, 0.005290, 0.024911,-0.987348, 0.000050, 0.000246,-0.009881, 0.004968, 0.053792, 0.122108,1,-0.000544, 0.004987, 0.000585,1,-0.047061,-0.190513, 9.804687,1,1
1778781456918,  2492.517,  2492.517, 0.002849, 0.017116,-1.002534, 0.000026, 0.000179,-0.010000,-0.018624,-0.022885,-0.026816,1,-0.002776,-0.005644, 0.001054,1,-0.046384,-0.190825, 9.804684,1,1
1778781456939,  2492.542,  2492.537, 0.010727, 0.025454,-0.985207, 0.000111, 0.000256,-0.009865, 0.070937, 0.011878, 0.013309,1, 0.000021, 0.004745,-0.001006,1,-0.046664,-0.191169, 9.804675,1,1
1778781456962,  2492.567,  2492.562, 0.000288, 0.014985,-0.995690, 0.000005, 0.000161,-0.009937,-0.044039,-0.043938, 0.040299,1, 0.000221,-0.005666, 0.000574,1,-0.046687,-0.190881, 9.804681,1,1
1778781456988,  2492.587,  2492.587, 0.003127, 0.020220,-1.003659, 0.000037, 0.000189,-0.010056,-0.015624, 0.007000,-0.037860,1,-0.002626, 0.003020,-0.000370,1,-0.046380,-0.191371, 9.804673,1,1
1778781457009,  2492.612,  2492.607, 0.005036, 0.016600,-0.997565, 0.000053, 0.000174,-0.009957, 0.009274, 0.038312, 0.121991,1, 0.002230,-0.000975, 0.001715,1,-0.046812,-0.191267, 9.804673,1,1
1778781457036,  2492.637,  2492.637, 0.009009, 0.019629,-0.996351, 0.000095, 0.000179,-0.009985, 0.042099, 0.001473, 0.033815,1, 0.000945, 0.004305,-0.000626,1,-0.046387,-0.190997, 9.804680,1,1
1778781457058,  2492.657,  2492.657, 0.001528, 0.021660,-0.988059, 0.000021, 0.000224,-0.009862,-0.031802, 0.021748, 0.115133,1, 0.001706,-0.002691, 0.000312,1,-0.046705,-0.190606, 9.804687,1,1
1778781457080,  2492.682,  2492.677, 0.006523, 0.020474,-1.000692, 0.000064, 0.000191,-0.010030,-0.021713,-0.058292,-0.111727,1,-0.002552,-0.000583,-0.000265,1,-0.045822,-0.190826, 9.804687,1,1
1778781457107,  2492.707,  2492.707, 0.004462, 0.022332,-0.986065, 0.000046, 0.000230,-0.009846,-0.003242, 0.028174, 0.134686,1, 0.001272,-0.001660, 0.000974,1,-0.046945,-0.190784, 9.804682,1,1
1778781457128,  2492.732,  2492.727, 0.006517, 0.021087,-1.000553, 0.000070, 0.000199,-0.010030, 0.012861,-0.053367,-0.077914,1,-0.001187,-0.000741,-0.000777,1,-0.046207,-0.190755, 9.804686,1,1
1778781457150,  2492.752,  2492.747,-0.000089, 0.022967,-0.988020, 0.000005, 0.000238,-0.009868,-0.010822, 0.059705, 0.110792,1, 0.002027, 0.004090,-0.000172,1,-0.047142,-0.190648, 9.804684,1,1
1778781457177,  2492.777,  2492.777, 0.004099, 0.015698,-1.006899, 0.000032, 0.000149,-0.010073,-0.006245,-0.036482,-0.069613,1,-0.002118,-0.000954,-0.000831,1,-0.046411,-0.190492, 9.804689,1,1
1778781457198,  2492.802,  2492.797, 0.004479, 0.023406,-0.983760, 0.000050, 0.000240,-0.009819, 0.026945, 0.071489, 0.159877,1, 0.001278, 0.006358, 0.000831,1,-0.047574,-0.190622, 9.804682,1,1
1778781457220,  2492.822,  2492.817, 0.005509, 0.015071,-1.007862, 0.000046, 0.000142,-0.010080,-0.016980,-0.037589, 0.005588,1,-0.001051,-0.006009, 0.000141,1,-0.046891,-0.190478, 9.804688,1,1
1778781457247,  2492.847,  2492.847, 0.007001, 0.026413,-0.983272, 0.000070, 0.000262,-0.009840, 0.021046, 0.068104, 0.162069,1,-0.000555, 0.005000, 0.000173,1,-0.047771,-0.190932, 9.804675,1,1
1778781457268,  2492.872,  2492.867, 0.005799, 0.013439,-1.008329, 0.000053, 0.000128,-0.010084,-0.013958,-0.049800, 0.002270,1,-0.001311,-0.007202, 0.001057,1,-0.046935,-0.191024, 9.804677,1,1
1778781457290,  2492.892,  2492.887, 0.006428, 0.023621,-0.985916, 0.000067, 0.000238,-0.009871, 0.025494, 0.007610, 0.010877,1, 0.000460, 0.004319,-0.000286,1,-0.047008,-0.191249, 9.804672,1,1
1778781457317,  2492.917,  2492.917, 0.003743, 0.013982,-1.002137, 0.000036, 0.000151,-0.010007,-0.010287,-0.053544,-0.022922,1, 0.000732,-0.006061, 0.000494,1,-0.046800,-0.190635, 9.804686,1,1
1778781457338,  2492.942,  2492.937, 0.005991, 0.023177,-0.987391, 0.000062, 0.000229,-0.009877, 0.028571, 0.005665, 0.024995,1, 0.001552, 0.005908,-0.000387,1,-0.047362,-0.190566, 9.804684,1,1
1778781457360,  2492.962,  2492.957, 0.000620, 0.014436,-1.004964, 0.000009, 0.000149,-0.010035,-0.027414, 0.005579, 0.074733,1, 0.002922,-0.004648, 0.000393,1,-0.047460,-0.189997, 9.804694,1,1
1778781457387,  2492.987,  2492.987, 0.007788, 0.020782,-0.996684, 0.000079, 0.000193,-0.009987, 0.029285, 0.013525, 0.030555,1,-0.001080, 0.006010,-0.000273,1,-0.047275,-0.190308, 9.804689,1,1
1778781457408,  2493.012,  2493.007, 0.003273, 0.013101,-1.002014, 0.000038, 0.000138,-0.010007,-0.014822, 0.018864, 0.104800,1,-0.000455,-0.002269, 0.000767,1,-0.047703,-0.190362, 9.804687,1,1
1778781457430,  2493.032,  2493.027, 0.005380, 0.022829,-0.993497, 0.000048, 0.000215,-0.009958,-0.006865,-0.044820,-0.052480,1,-0.003525, 0.001658,-0.001014,1,-0.047249,-0.190817, 9.804680,1,1
1778781457457,  2493.057,  2493.057, 0.002260, 0.020246,-0.988818, 0.000017, 0.000212,-0.009869,-0.011533, 0.057626, 0.163851,1, 0.001401, 0.001967, 0.000467,1,-0.048104,-0.190970, 9.804672,1,1
1778781457479,  2493.082,  2493.077, 0.007651, 0.024682,-0.991093, 0.000077, 0.000239,-0.009933, 0.028192,-0.028874,-0.031645,1,-0.002237, 0.000819,-0.000230,1,-0.047138,-0.191478, 9.804667,1,1
1778781457500,  2493.102,  2493.097,-0.000305, 0.021784,-0.991407, 0.000000, 0.000228,-0.009898,-0.001376, 0.063643, 0.163376,1, 0.001425, 0.001166,-0.000105,1,-0.047956,-0.191473, 9.804664,1,1
1778781457527,  2493.127,  2493.127, 0.005249, 0.017577,-1.005883, 0.000050, 0.000163,-0.010077, 0.004408,-0.019124,-0.059678,1,-0.001688, 0.002097,-0.000326,1,-0.047131,-0.191546, 9.804666,1,1
1778781457549,  2493.152,  2493.147, 0.003942, 0.019899,-0.991871, 0.000039, 0.000209,-0.009899, 0.000094, 0.060233, 0.140812,1, 0.005897, 0.001979,-0.000112,1,-0.048033,-0.190735, 9.804677,1,1
1778781457571,  2493.172,  2493.172, 0.008139, 0.017574,-1.002725, 0.000077, 0.000162,-0.010040, 0.032533,-0.017427,-0.028679,1,-0.000405, 0.002408,-0.000118,1,-0.047355,-0.189783, 9.804699,1,1
1778781457597,  2493.197,  2493.197, 0.005882, 0.025566,-0.984830, 0.000068, 0.000242,-0.009850, 0.009887, 0.060972, 0.146815,1, 0.000663,-0.002063, 0.000581,1,-0.047728,-0.189871, 9.804695,1,1
1778781457619,  2493.222,  2493.217, 0.004722, 0.016767,-1.005883, 0.000070, 0.000153,-0.010063,-0.013298,-0.063805,-0.088812,1, 0.000308,-0.003847, 0.000241,1,-0.046569,-0.189234, 9.804713,1,1
1778781457642,  2493.242,  2493.242, 0.007652, 0.021673,-0.984620, 0.000067, 0.000219,-0.009851, 0.028011, 0.023656, 0.148894,1, 0.004393, 0.002059, 0.000976,1,-0.047098,-0.188751, 9.804720,1,1
1778781457667,  2493.267,  2493.267, 0.007473, 0.010656,-1.002747, 0.000042, 0.000101,-0.010019, 0.026706,-0.083947,-0.028858,1,-0.003812,-0.000589, 0.000042,1,-0.046559,-0.188569, 9.804727,1,1
1778781457689,  2493.292,  2493.287, 0.003104, 0.025738,-0.986243, 0.000055, 0.000254,-0.009856,-0.041762, 0.003524, 0.026962,1,-0.006122, 0.009977,-0.000120,1,-0.047054,-0.188794, 9.804720,1,1
1778781457712,  2493.312,  2493.312, 0.008023, 0.014892,-1.003884, 0.000058, 0.000125,-0.010037, 0.031967,-0.042629,-0.040017,1,-0.009933,-0.001393,-0.000444,1,-0.046671,-0.188984, 9.804718,1,1
1778781457737,  2493.337,  2493.337, 0.007508, 0.020600,-0.991820, 0.000066, 0.000196,-0.009944, 0.026563, 0.012864, 0.078281,1,-0.000722, 0.008718, 0.000054,1,-0.047341,-0.189170, 9.804711,1,1
1778781457759,  2493.362,  2493.357, 0.002082, 0.013600,-1.003357, 0.000018, 0.000135,-0.010017,-0.026166,-0.040211, 0.104529,1, 0.002656,-0.005231, 0.000474,1,-0.047447,-0.188843, 9.804717,1,1
1778781457782,  2493.382,  2493.382, 0.000206, 0.022581,-0.988297, 0.000004, 0.000239,-0.009886,-0.045177, 0.032048, 0.112826,1, 0.002097, 0.004754, 0.000181,1,-0.047349,-0.189330, 9.804708,1,1
1778781457807,  2493.407,  2493.407, 0.000825, 0.017174,-0.998265, 0.000009, 0.000190,-0.009950,-0.038769,-0.020634, 0.015078,1, 0.001568,-0.009058, 0.000360,1,-0.046574,-0.188988, 9.804718,1,1
1778781457829,  2493.432,  2493.427, 0.007822, 0.025505,-0.986728, 0.000089, 0.000264,-0.009892, 0.058278, 0.050934,-0.044759,1, 0.001143, 0.003967,-0.001219,1,-0.046414,-0.189443, 9.804710,1,1
1778781457852,  2493.452,  2493.452, 0.000784, 0.015745,-0.992174, 0.000013, 0.000175,-0.009891,-0.039374,-0.033782, 0.074828,1, 0.004325,-0.007245, 0.000351,1,-0.046832,-0.188057, 9.804735,1,1
1778781457878,  2493.477,  2493.477, 0.001953, 0.019702,-1.010078, 0.000031, 0.000189,-0.010119,-0.026938, 0.004833,-0.100746,1,-0.000970, 0.002073,-0.000837,1,-0.046155,-0.188407, 9.804731,1,1
1778781457899,  2493.502,  2493.497, 0.002396, 0.017846,-0.996401, 0.000019, 0.000183,-0.009945,-0.025864, 0.047823, 0.105152,1, 0.006031, 0.001714, 0.001428,1,-0.047352,-0.187667, 9.804740,1,1
1778781457922,  2493.527,  2493.522, 0.011717, 0.020904,-0.999445, 0.000122, 0.000198,-0.010020, 0.067897, 0.017103, 0.003527,1, 0.001487, 0.006217,-0.000389,1,-0.047202,-0.187844, 9.804737,1,1
1778781457948,  2493.547,  2493.547, 0.003770, 0.021967,-0.981267, 0.000047, 0.000226,-0.009800,-0.011338, 0.028120, 0.181802,1, 0.005714,-0.000060, 0.000892,1,-0.048307,-0.187129, 9.804746,1,1
1778781457969,  2493.572,  2493.567, 0.005495, 0.020841,-1.008938, 0.000048, 0.000199,-0.010112,-0.014219,-0.051422,-0.124438,1,-0.004212,-0.007039,-0.000863,1,-0.046751,-0.187053, 9.804754,1,1
1778781457992,  2493.597,  2493.592, 0.006265, 0.021220,-0.979532, 0.000061, 0.000219,-0.009792, 0.013089, 0.021239, 0.198821,1, 0.005581, 0.002022, 0.000798,1,-0.048427,-0.186851, 9.804750,1,1
1778781458018,  2493.617,  2493.617, 0.008455, 0.013452,-1.004432, 0.000080, 0.000120,-0.010040, 0.035471,-0.054891,-0.045355,1,-0.004245,-0.004523,-0.000703,1,-0.047302,-0.186949, 9.804754,1,1
1778781458039,  2493.642,  2493.637,-0.000342, 0.020130,-0.982053,-0.000004, 0.000219,-0.009815,-0.026361, 0.031088, 0.100373,1, 0.004350, 0.008732,-0.000791,1,-0.048469,-0.186492, 9.804757,1,1
1778781458062,  2493.667,  2493.662, 0.004866, 0.015649,-1.011857, 0.000051, 0.000148,-0.010107,-0.000053,-0.032855,-0.118162,1,-0.006649,-0.005053,-0.000342,1,-0.047611,-0.186522, 9.804760,1,1
1778781458088,  2493.687,  2493.687, 0.005184, 0.023677,-0.986388, 0.000059, 0.000239,-0.009894, 0.001824, 0.046262, 0.131603,1, 0.007426, 0.012219,-0.000046,1,-0.049391,-0.185698, 9.804768,1,1
1778781458109,  2493.712,  2493.707, 0.006829, 0.014875,-1.012043, 0.000063, 0.000138,-0.010107,-0.024075,-0.058412, 0.069263,1, 0.003242,-0.009337,-0.000039,1,-0.048913,-0.184373, 9.804794,1,1
1778781458132,  2493.737,  2493.732, 0.001635, 0.023941,-0.991732, 0.000034, 0.000237,-0.009947,-0.033355, 0.050791, 0.079227,1, 0.006488, 0.009248,-0.000112,1,-0.049681,-0.183783, 9.804802,1,1
1778781458158,  2493.757,  2493.757, 0.001780, 0.012735,-0.997611, 0.000015, 0.000124,-0.009946,-0.032219,-0.057945, 0.021598,1,-0.000870,-0.008785, 0.000563,1,-0.049400,-0.182863, 9.804820,1,1
1778781458179,  2493.782,  2493.777, 0.006234, 0.022683,-0.982409, 0.000067, 0.000232,-0.009854, 0.027371, 0.039786,-0.041343,1, 0.003118, 0.008146,-0.000086,1,-0.049419,-0.183482, 9.804809,1,1
1778781458202,  2493.807,  2493.802, 0.003593, 0.013458,-0.998721, 0.000034, 0.000139,-0.009955,-0.014685,-0.050461, 0.010717,1,-0.002486,-0.010049, 0.000763,1,-0.049606,-0.182512, 9.804826,1,1
1778781458228,  2493.827,  2493.827, 0.008928, 0.021779,-1.000276, 0.000090, 0.000220,-0.010039, 0.037940, 0.030669,-0.004543,1, 0.002233, 0.008515,-0.000662,1,-0.049876,-0.182836, 9.804818,1,1
1778781458249,  2493.852,  2493.847, 0.003448, 0.014247,-1.000245, 0.000027, 0.000143,-0.009972,-0.021710, 0.006348, 0.169818,1, 0.003297,-0.003750, 0.001092,1,-0.050581,-0.182108, 9.804829,1,1
1778781458276,  2493.877,  2493.877, 0.003997, 0.023259,-1.001424, 0.000040, 0.000226,-0.010039,-0.010487, 0.045002,-0.015804,1, 0.001365, 0.008286,-0.000693,1,-0.049945,-0.183043, 9.804814,1,1
1778781458298,  2493.897,  2493.897, 0.004308, 0.019584,-0.986101, 0.000048, 0.000208,-0.009837,-0.008394, 0.009282, 0.134472,1, 0.000588,-0.003661, 0.000546,1,-0.050526,-0.182755, 9.804817,1,1
1778781458320,  2493.922,  2493.917, 0.008387, 0.021002,-0.990168, 0.000083, 0.000206,-0.009926, 0.025228,-0.021101,-0.041836,1,-0.001221, 0.001700,-0.001576,1,-0.049913,-0.182985, 9.804815,1,1
1778781458347,  2493.947,  2493.947, 0.000554, 0.017019,-0.988797, 0.000010, 0.000184,-0.009861,-0.045080,-0.015161, 0.108046,1, 0.003958,-0.007636,-0.000081,1,-0.050271,-0.181934, 9.804833,1,1
1778781458368,  2493.972,  2493.967, 0.006005, 0.020019,-1.001234, 0.000058, 0.000197,-0.010043,-0.014170,-0.042740,-0.131378,1,-0.000874,-0.002264,-0.000885,1,-0.048947,-0.181874, 9.804841,1,1
1778781458390,  2493.992,  2493.987, 0.003772, 0.015955,-0.988382, 0.000042, 0.000175,-0.009868,-0.007899, 0.022315, 0.123865,1, 0.003319, 0.005196, 0.000335,1,-0.050079,-0.181434, 9.804844,1,1
1778781458417,  2494.017,  2494.017, 0.004679, 0.014304,-1.008226, 0.000052, 0.000130,-0.010093,-0.003020,-0.040974,-0.082465,1,-0.001974,-0.001342,-0.000825,1,-0.048866,-0.181311, 9.804852,1,1
1778781458438,  2494.042,  2494.037, 0.002203, 0.014792,-0.990934, 0.000020, 0.000170,-0.009886,-0.035536, 0.019469, 0.134291,1, 0.002983, 0.004389, 0.000964,1,-0.050006,-0.180882, 9.804854,1,1
1778781458460,  2494.062,  2494.057, 0.010454, 0.017290,-1.007381, 0.000105, 0.000160,-0.010086, 0.018752,-0.070568,-0.045434,1,-0.003007,-0.005265,-0.000039,1,-0.049193,-0.180862, 9.804858,1,1
1778781458487,  2494.087,  2494.087, 0.004486, 0.021920,-0.975989, 0.000049, 0.000218,-0.009769,-0.006857, 0.033747, 0.233658,1, 0.000935, 0.006449, 0.001638,1,-0.051052,-0.181182, 9.804843,1,1
1778781458508,  2494.112,  2494.107, 0.006710, 0.019604,-1.012835, 0.000061, 0.000184,-0.010146,-0.012699,-0.024801,-0.059083,1,-0.007440,-0.010116, 0.000465,1,-0.049502,-0.181958, 9.804837,1,1
1778781458530,  2494.132,  2494.127, 0.007787, 0.022204,-0.980249, 0.000083, 0.000226,-0.009811, 0.042134, 0.050755, 0.042214,1,-0.000528, 0.011218,-0.000103,1,-0.050540,-0.182634, 9.804819,1,1
1778781458557,  2494.157,  2494.157, 0.006623, 0.017306,-1.002837, 0.000059, 0.000172,-0.010007, 0.014757,-0.012799,-0.029648,1,-0.003215,-0.007609,-0.000290,1,-0.049954,-0.182614, 9.804822,1,1
1778781458578,  2494.182,  2494.177, 0.001657, 0.022129,-0.984109, 0.000016, 0.000227,-0.009839,-0.033161, 0.060523, 0.067455,1, 0.002049, 0.008553,-0.000798,1,-0.050557,-0.182723, 9.804817,1,1
1778781458600,  2494.202,  2494.197, 0.003887, 0.017416,-1.011313, 0.000026, 0.000169,-0.010102,-0.044184,-0.008706, 0.034109,1, 0.000920,-0.008709, 0.000388,1,-0.050184,-0.182314, 9.804827,1,1
1778781458627,  2494.227,  2494.227, 0.007398, 0.024356,-0.985586, 0.000078, 0.000249,-0.009877, 0.022056, 0.056931, 0.139531,1, 0.004104, 0.009042,-0.000326,1,-0.050772,-0.181789, 9.804833,1,1
1778781458648,  2494.252,  2494.247, 0.003706, 0.014219,-1.009660, 0.000027, 0.000135,-0.010078,-0.029857,-0.026774, 0.079509,1,-0.000452,-0.007047, 0.001035,1,-0.050476,-0.181538, 9.804840,1,1
1778781458670,  2494.272,  2494.267, 0.004731, 0.021986,-0.992445, 0.000048, 0.000221,-0.009946,-0.001310,-0.003071,-0.089063,1,-0.002344, 0.003800,-0.000765,1,-0.049965,-0.182207, 9.804830,1,1
1778781458697,  2494.297,  2494.297, 0.005296, 0.015641,-0.995121, 0.000052, 0.000162,-0.009928, 0.001132,-0.028604, 0.046028,1,-0.001961,-0.006716, 0.001250,1,-0.050599,-0.182055, 9.804830,1,1
1778781458719,  2494.322,  2494.317, 0.007430, 0.019859,-0.989032, 0.000078, 0.000209,-0.009913, 0.038158,-0.004618,-0.042322,1,-0.003485, 0.006280, 0.000283,1,-0.050690,-0.182869, 9.804813,1,1
1778781458740,  2494.342,  2494.337, 0.000074, 0.013517,-1.000207, 0.000002, 0.000140,-0.009984,-0.022013,-0.014632, 0.139251,1, 0.001214, 0.000127, 0.000656,1,-0.051726,-0.182764, 9.804811,1,1
1778781458767,  2494.367,  2494.367, 0.006724, 0.017799,-1.003937, 0.000064, 0.000164,-0.010066, 0.014946,-0.008508,-0.040452,1,-0.001897, 0.005853,-0.000914,1,-0.051176,-0.183118, 9.804807,1,1
1778781458789,  2494.392,  2494.387, 0.006634, 0.012715,-0.992986, 0.000075, 0.000131,-0.009904, 0.015822, 0.005631, 0.191390,1, 0.002695, 0.003336, 0.000640,1,-0.052552,-0.182768, 9.804806,1,1
1778781458811,  2494.412,  2494.412, 0.008699, 0.019216,-1.001812, 0.000083, 0.000175,-0.010039, 0.033975, 0.006070,-0.019601,1, 0.000362, 0.003544,-0.001327,1,-0.051444,-0.182366, 9.804819,1,1
1778781458837,  2494.437,  2494.437, 0.002536, 0.019417,-0.985320, 0.000019, 0.000200,-0.009839,-0.026998, 0.008575, 0.142139,1, 0.003024,-0.000547, 0.000526,1,-0.051849,-0.181743, 9.804829,1,1
1778781458859,  2494.462,  2494.457, 0.007518, 0.019947,-1.000497, 0.000071, 0.000186,-0.010025, 0.014112,-0.033377,-0.069535,1,-0.002965,-0.004081,-0.000872,1,-0.050748,-0.182039, 9.804829,1,1
1778781458881,  2494.482,  2494.482, 0.003434, 0.020757,-0.986208, 0.000037, 0.000211,-0.009844,-0.018105, 0.021211, 0.133425,1, 0.001360,-0.001753, 0.000882,1,-0.051728,-0.182306, 9.804819,1,1
1778781458907,  2494.507,  2494.507, 0.003823, 0.017314,-1.007215, 0.000033, 0.000169,-0.010075,-0.013472,-0.012923,-0.072593,1,-0.003242,-0.001042, 0.000306,1,-0.050931,-0.182818, 9.804813,1,1
1778781458929,  2494.532,  2494.527, 0.002417, 0.022873,-0.986383, 0.000030, 0.000236,-0.009853, 0.010197, 0.043925, 0.126966,1,-0.002079, 0.005217, 0.000447,1,-0.052039,-0.183262, 9.804799,1,1
1778781458952,  2494.552,  2494.552, 0.006758, 0.018005,-1.006765, 0.000065, 0.000173,-0.010065, 0.015351,-0.006246,-0.068184,1,-0.000196,-0.003712,-0.001349,1,-0.050802,-0.182824, 9.804814,1,1
1778781458977,  2494.577,  2494.577, 0.005306, 0.025143,-0.988084, 0.000058, 0.000254,-0.009891, 0.000693, 0.064237, 0.115030,1, 0.003216, 0.004586,-0.000408,1,-0.051484,-0.182235, 9.804821,1,1
1778781458999,  2494.602,  2494.597, 0.005470, 0.015530,-1.013430, 0.000043, 0.000143,-0.010117,-0.074122,-0.059102, 0.007285,1, 0.003763,-0.007780,-0.000099,1,-0.050486,-0.181250, 9.804845,1,1
1778781459022,  2494.622,  2494.622, 0.008691, 0.024135,-0.991022, 0.000081, 0.000240,-0.009938, 0.034412, 0.055028, 0.086225,1, 0.000608, 0.011812, 0.000206,1,-0.051189,-0.181640, 9.804834,1,1
1778781459047,  2494.647,  2494.647, 0.005640, 0.013188,-0.985192, 0.000052, 0.000134,-0.009827, 0.003659,-0.051790, 0.143410,1,-0.000188,-0.004622, 0.000465,1,-0.051506,-0.181121, 9.804842,1,1
1778781459069,  2494.672,  2494.667, 0.008518, 0.020363,-0.985023, 0.000075, 0.000207,-0.009874, 0.019401, 0.012033,-0.018819,1, 0.000663, 0.003949, 0.000078,1,-0.051083,-0.181739, 9.804832,1,1
1778781459092,  2494.692,  2494.692, 0.001275, 0.016021,-0.999238, 0.000019, 0.000158,-0.009969,-0.038724,-0.023690, 0.005675,1, 0.000229,-0.009022,-0.000005,1,-0.050948,-0.180796, 9.804851,1,1
1778781459117,  2494.717,  2494.717, 0.011184, 0.017705,-1.003604, 0.000108, 0.000169,-0.010055, 0.058864,-0.007257,-0.037143,1, 0.000044, 0.004382,-0.000804,1,-0.050949,-0.180886, 9.804850,1,1
1778781459139,  2494.742,  2494.737,-0.000656, 0.015803,-0.996222,-0.000004, 0.000161,-0.009942,-0.022246, 0.014812, 0.138240,1, 0.001011, 0.000311, 0.000498,1,-0.051675,-0.180741, 9.804848,1,1
1778781459162,  2494.767,  2494.762, 0.003740, 0.019274,-1.009253, 0.000033, 0.000178,-0.010107,-0.013549, 0.007900,-0.092538,1,-0.003269, 0.002154,-0.000666,1,-0.050298,-0.181214, 9.804847,1,1
1778781459188,  2494.787,  2494.787, 0.001209, 0.021879,-0.982930, 0.000004, 0.000224,-0.009827,-0.039421, 0.033576, 0.165598,1, 0.002670, 0.003818, 0.000921,1,-0.051401,-0.180897, 9.804847,1,1
1778781459209,  2494.812,  2494.807, 0.010332, 0.018834,-1.006371, 0.000096, 0.000177,-0.010084, 0.000412,-0.055393,-0.067612,1,-0.002755,-0.005206, 0.000092,1,-0.050225,-0.180828, 9.804854,1,1
1778781459232,  2494.837,  2494.832, 0.004182, 0.020641,-0.977056, 0.000049, 0.000215,-0.009771,-0.010876, 0.022393, 0.223215,1, 0.006322, 0.002204, 0.000409,1,-0.051953,-0.179827, 9.804864,1,1
1778781459258,  2494.857,  2494.857, 0.002245, 0.012845,-1.007277, 0.000018, 0.000129,-0.010054,-0.028560,-0.053741,-0.073146,1,-0.002879,-0.009000,-0.000522,1,-0.050296,-0.179800, 9.804873,1,1
1778781459279,  2494.882,  2494.877, 0.008553, 0.020336,-0.980593, 0.000091, 0.000213,-0.009810, 0.047044, 0.017063, 0.059761,1, 0.002266, 0.009027, 0.000295,1,-0.051271,-0.179765, 9.804868,1,1
1778781459302,  2494.907,  2494.902, 0.006568, 0.013701,-1.006501, 0.000063, 0.000140,-0.010043, 0.013631,-0.044976,-0.065523,1,-0.004159,-0.007748, 0.000086,1,-0.050535,-0.179469, 9.804877,1,1
1778781459328,  2494.927,  2494.927, 0.007175, 0.021288,-0.993008, 0.000081, 0.000212,-0.009953, 0.019322, 0.029204, 0.066788,1, 0.001796, 0.007663, 0.001172,1,-0.051277,-0.179501, 9.804873,1,1
1778781459349,  2494.952,  2494.947, 0.002185, 0.014125,-1.009271, 0.000014, 0.000147,-0.010068,-0.051538,-0.014444, 0.084691,1,-0.001329,-0.007266, 0.000674,1,-0.051102,-0.179467, 9.804874,1,1
1778781459372,  2494.977,  2494.972, 0.009527, 0.021699,-0.993471, 0.000096, 0.000216,-0.009961, 0.042965, 0.032987, 0.062252,1, 0.004427, 0.007457,-0.000281,1,-0.050696,-0.179674, 9.804873,1,1
1778781459398,  2494.997,  2494.997, 0.001552, 0.017658,-0.985325, 0.000020, 0.000192,-0.009825,-0.035834,-0.005831, 0.142149,1, 0.003174,-0.005668, 0.000947,1,-0.050984,-0.178871, 9.804886,1,1
1778781459419,  2495.022,  2495.017, 0.003407, 0.020552,-0.999886, 0.000033, 0.000208,-0.010025,-0.017890,-0.014540,-0.111815,1,-0.002020,-0.002148,-0.000168,1,-0.049690,-0.179275, 9.804885,1,1
1778781459442,  2495.047,  2495.042, 0.002653, 0.018458,-0.988614, 0.000022, 0.000196,-0.009865,-0.024855, 0.002328, 0.109897,1, 0.001397,-0.002635,-0.000020,1,-0.050794,-0.178640, 9.804892,1,1
1778781459468,  2495.067,  2495.067, 0.009228, 0.016226,-1.008260, 0.000091, 0.000152,-0.010095, 0.040506,-0.020046,-0.082769,1,-0.002192, 0.001401,-0.001345,1,-0.050029,-0.179241, 9.804884,1,1
1778781459489,  2495.092,  2495.087,-0.000990, 0.017758,-0.986690,-0.000005, 0.000188,-0.009835,-0.021609, 0.041109, 0.200698,1, 0.002491, 0.004422, 0.000446,1,-0.051437,-0.178725, 9.804886,1,1
1778781459516,  2495.117,  2495.117, 0.007859, 0.016067,-1.012990, 0.000067, 0.000147,-0.010134, 0.027340,-0.021874,-0.129156,1,-0.002482,-0.001028,-0.000562,1,-0.049697,-0.179518, 9.804881,1,1
1778781459538,  2495.137,  2495.137, 0.007670, 0.023440,-0.982414, 0.000084, 0.000234,-0.009847, 0.024225, 0.050870, 0.170696,1, 0.003350, 0.007910, 0.000124,1,-0.051235,-0.178896, 9.804884,1,1
1778781459560,  2495.162,  2495.157, 0.005406, 0.015633,-1.007459, 0.000049, 0.000148,-0.010081, 0.001999,-0.055404, 0.025060,1,-0.002668,-0.009017, 0.000745,1,-0.050306,-0.178529, 9.804895,1,1
1778781459587,  2495.187,  2495.187, 0.002191, 0.022514,-0.987525, 0.000025, 0.000227,-0.009886,-0.029455, 0.042130, 0.120582,1, 0.001655, 0.004411, 0.000251,1,-0.051080,-0.178605, 9.804891,1,1
1778781459608,  2495.212,  2495.207, 0.008976, 0.014048,-1.009531, 0.000081, 0.000136,-0.010110,-0.026384,-0.050877,-0.055366,1,-0.001739,-0.006631,-0.000313,1,-0.049968,-0.178732, 9.804893,1,1
1778781459630,  2495.232,  2495.227, 0.007092, 0.022502,-0.977481, 0.000085, 0.000228,-0.009791, 0.057177, 0.025278, 0.057225,1, 0.004557, 0.009240,-0.000513,1,-0.050787,-0.178243, 9.804898,1,1
1778781459657,  2495.257,  2495.257, 0.001544, 0.009105,-0.998236, 0.000014, 0.000099,-0.009950,-0.035651,-0.088365, 0.015556,1,-0.003231,-0.009754,-0.000422,1,-0.050492,-0.177755, 9.804909,1,1
1778781459678,  2495.282,  2495.277, 0.003922, 0.022616,-0.989343, 0.000043, 0.000222,-0.009920,-0.003905,-0.050395,-0.124246,1,-0.003380,-0.006396,-0.001455,1,-0.049718,-0.178139, 9.804906,1,1
1778781459700,  2495.302,  2495.297, 0.005972, 0.012548,-0.996906, 0.000063, 0.000131,-0.009943, 0.001731, 0.010238, 0.162355,1, 0.002169,-0.001830, 0.000086,1,-0.050752,-0.177366, 9.804914,1,1
1778781459727,  2495.327,  2495.327, 0.009339, 0.020761,-1.000394, 0.000096, 0.000203,-0.010027, 0.041951, 0.025134,-0.005616,1, 0.000245, 0.006371,-0.000247,1,-0.049837,-0.178449, 9.804899,1,1
1778781459748,  2495.352,  2495.347,-0.001383, 0.015619,-1.001896,-0.000017, 0.000163,-0.009999,-0.069436, 0.024927, 0.131262,1, 0.000269,-0.002198, 0.000341,1,-0.050525,-0.178139, 9.804902,1,1
1778781459770,  2495.372,  2495.367, 0.008622, 0.024714,-1.000796, 0.000081, 0.000241,-0.010036,-0.005667,-0.019802,-0.113724,1,-0.003592,-0.002528,-0.000281,1,-0.049302,-0.178680, 9.804898,1,1
1778781459797,  2495.397,  2495.397, 0.004449, 0.022340,-0.978356, 0.000043, 0.000241,-0.009770,-0.007394, 0.041564, 0.210514,1, 0.006489, 0.000233, 0.000060,1,-0.051012,-0.177350, 9.804914,1,1
1778781459818,  2495.417,  2495.417, 0.003574, 0.013835,-1.013252, 0.000034, 0.000131,-0.010120,-0.014423,-0.041400,-0.131688,1, 0.000463,-0.005935,-0.001749,1,-0.049290,-0.177057, 9.804928,1,1
1778781459840,  2495.442,  2495.437, 0.003878, 0.020942,-0.980383, 0.000036, 0.000225,-0.009799,-0.016188, 0.074120, 0.095914,1, 0.006992, 0.009914,-0.000646,1,-0.050596,-0.175843, 9.804943,1,1
1778781459867,  2495.467,  2495.467, 0.009104, 0.013083,-1.007679, 0.000087, 0.000115,-0.010064, 0.039383,-0.047590,-0.077009,1,-0.004596,-0.005608,-0.001497,1,-0.049717,-0.176034, 9.804944,1,1
1778781459888,  2495.492,  2495.487, 0.003411, 0.018583,-0.979034, 0.000028, 0.000198,-0.009774,-0.009189, 0.042609, 0.146090,1, 0.004957, 0.009503, 0.000141,1,-0.050993,-0.175335, 9.804950,1,1
1778781459910,  2495.512,  2495.507, 0.007487, 0.013101,-1.013883, 0.000065, 0.000124,-0.010133,-0.019169,-0.061164, 0.021306,1,-0.005177,-0.011419, 0.000283,1,-0.050003,-0.175539, 9.804952,1,1
1778781459937,  2495.537,  2495.537, 0.006820, 0.020687,-0.983214, 0.000075, 0.000214,-0.009855, 0.016378, 0.027081, 0.162905,1, 0.005090, 0.006825, 0.000731,1,-0.050718,-0.175631, 9.804946,1,1
1778781459959,  2495.562,  2495.557, 0.003215, 0.009285,-1.012168, 0.000022, 0.000092,-0.010121,-0.057595,-0.067250, 0.015666,1,-0.001115,-0.010526, 0.000312,1,-0.049502,-0.175466, 9.804955,1,1
1778781459980,  2495.582,  2495.577, 0.003908, 0.019385,-0.989938, 0.000045, 0.000197,-0.009927, 0.005424,-0.012113,-0.051234,1, 0.004482, 0.004258,-0.000556,1,-0.049154,-0.175370, 9.804958,1,1
1778781460007,  2495.607,  2495.607, 0.003706, 0.008878,-0.995857, 0.000038, 0.000104,-0.009930,-0.013581,-0.087253, 0.038954,1,-0.000408,-0.006213, 0.000351,1,-0.049726,-0.174321, 9.804975,1,1
1778781460029,  2495.632,  2495.627, 0.005242, 0.022329,-0.987371, 0.000060, 0.000219,-0.009895, 0.018849, 0.013096,-0.016898,1, 0.000837, 0.005011,-0.000434,1,-0.049575,-0.174749, 9.804968,1,1
1778781460051,  2495.652,  2495.652, 0.005116, 0.013464,-0.995773, 0.000050, 0.000142,-0.009922,-0.000134,-0.042951, 0.039761,1,-0.005738,-0.007867, 0.000349,1,-0.050063,-0.175162, 9.804957,1,1
1778781460077,  2495.677,  2495.677, 0.007415, 0.021922,-1.005040, 0.000075, 0.000209,-0.010075, 0.022902, 0.039165,-0.051125,1, 0.000437, 0.006181, 0.000730,1,-0.050003,-0.175799, 9.804947,1,1
1778781460099,  2495.702,  2495.697, 0.005383, 0.016441,-0.994882, 0.000051, 0.000178,-0.009927,-0.014171, 0.056064, 0.164127,1, 0.002569, 0.001088, 0.000536,1,-0.051103,-0.175060, 9.804955,1,1
1778781460122,  2495.722,  2495.722, 0.007769, 0.021515,-1.001954, 0.000084, 0.000205,-0.010045, 0.025952, 0.035869,-0.020858,1, 0.003286, 0.005310,-0.001047,1,-0.050405,-0.175017, 9.804958,1,1
1778781460147,  2495.747,  2495.747,-0.000923, 0.022912,-0.984951, 0.000000, 0.000246,-0.009845,-0.060111, 0.050569, 0.145898,1, 0.005986,-0.003060,-0.000040,1,-0.050966,-0.173930, 9.804975,1,1
1778781460169,  2495.772,  2495.767, 0.008671, 0.020221,-1.006884, 0.000092, 0.000196,-0.010090, 0.018658,-0.034902,-0.097666,1,-0.002685,-0.005981,-0.000857,1,-0.049502,-0.174196, 9.804977,1,1
1778781460192,  2495.792,  2495.792, 0.004080, 0.022213,-0.980521, 0.000049, 0.000236,-0.009799,-0.011209, 0.044390, 0.189356,1, 0.006133, 0.003980, 0.000201,1,-0.051365,-0.173446, 9.804981,1,1
1778781460217,  2495.817,  2495.817, 0.005535, 0.012929,-1.009914, 0.000049, 0.000110,-0.010073, 0.004215,-0.046835,-0.098892,1,-0.006381,-0.007355,-0.001043,1,-0.049838,-0.173830, 9.804982,1,1
1778781460239,  2495.842,  2495.837, 0.005552, 0.018878,-0.978513, 0.000057, 0.000198,-0.009770,-0.010954, 0.058294, 0.118088,1, 0.005839, 0.012241, 0.000849,1,-0.051172,-0.173176, 9.804987,1,1
1778781460262,  2495.862,  2495.862, 0.008682, 0.011639,-1.014560, 0.000071, 0.000107,-0.010135, 0.035100,-0.059678,-0.144452,1,-0.004381,-0.004799,-0.000524,1,-0.049895,-0.173950, 9.804980,1,1
1778781460287,  2495.887,  2495.887, 0.005718, 0.020602,-0.986029, 0.000056, 0.000212,-0.009888, 0.004898, 0.028704, 0.135340,1, 0.005872, 0.010266, 0.000199,1,-0.051493,-0.173148, 9.804986,1,1
1778781460309,  2495.912,  2495.907, 0.001687, 0.009615,-1.008859, 0.000008, 0.000095,-0.010079,-0.066065,-0.070205, 0.067691,1,-0.003893,-0.008385,-0.000348,1,-0.051036,-0.173276, 9.804986,1,1
1778781460332,  2495.932,  2495.932, 0.005543, 0.019473,-0.991049, 0.000061, 0.000197,-0.009934, 0.002915, 0.017078, 0.086103,1,-0.000085, 0.009100,-0.000058,1,-0.051727,-0.173890, 9.804972,1,1
1778781460358,  2495.957,  2495.957, 0.005779, 0.013629,-0.992820, 0.000061, 0.000152,-0.009901, 0.004643,-0.040642, 0.068723,1,-0.003890,-0.003923, 0.000356,1,-0.051908,-0.174416, 9.804961,1,1
1778781460379,  2495.982,  2495.977, 0.003958, 0.023417,-0.986970, 0.000047, 0.000237,-0.009880, 0.020009, 0.000002, 0.009165,1,-0.003760, 0.006013,-0.000290,1,-0.052085,-0.175438, 9.804942,1,1
1778781460402,  2496.007,  2496.002,-0.000740, 0.013003,-0.998053,-0.000009, 0.000138,-0.009958,-0.059702,-0.048341, 0.017377,1,-0.004707,-0.008027, 0.000446,1,-0.052187,-0.175996, 9.804932,1,1
1778781460428,  2496.027,  2496.027, 0.011172, 0.020486,-1.010049, 0.000114, 0.000187,-0.010127, 0.057976, 0.024343,-0.100269,1,-0.000004, 0.002594,-0.000249,1,-0.051663,-0.176559, 9.804924,1,1
1778781460449,  2496.052,  2496.047, 0.007076, 0.011121,-0.985997, 0.000069, 0.000140,-0.009821, 0.037549, 0.055816, 0.241972,1, 0.003197, 0.003552, 0.001143,1,-0.053232,-0.176046, 9.804925,1,1
1778781460472,  2496.077,  2496.072, 0.003362, 0.020936,-1.011181, 0.000048, 0.000190,-0.010131,-0.018042, 0.028148,-0.111377,1,-0.003428,-0.001861,-0.000910,1,-0.050951,-0.177271, 9.804915,1,1
1778781460498,  2496.097,  2496.097, 0.000926, 0.023092,-0.987198, 0.000007, 0.000247,-0.009872,-0.042505, 0.049642, 0.123812,1, 0.001911,-0.001614, 0.000224,1,-0.051535,-0.176754, 9.804921,1,1
1778781460519,  2496.122,  2496.117, 0.012732, 0.020082,-1.006211, 0.000137, 0.000190,-0.010089, 0.047230,-0.049876,-0.092815,1,-0.003317,-0.006892,-0.001433,1,-0.049799,-0.177313, 9.804920,1,1
1778781460542,  2496.147,  2496.142, 0.000477, 0.019589,-0.975313, 0.000010, 0.000210,-0.009748,-0.046698, 0.016032, 0.240377,1, 0.004865, 0.002032,-0.000111,1,-0.051443,-0.175918, 9.804937,1,1
1778781460568,  2496.167,  2496.167,-0.001794, 0.010693,-1.009133,-0.000035, 0.000097,-0.010073,-0.067145,-0.071504,-0.091276,1,-0.006518,-0.010177,-0.001374,1,-0.049229,-0.176574, 9.804936,1,1
1778781460589,  2496.192,  2496.187, 0.005092, 0.020590,-0.975991, 0.000038, 0.000212,-0.009767,-0.001061, 0.065426, 0.032539,1, 0.004032, 0.010176, 0.000435,1,-0.050110,-0.176637, 9.804931,1,1
1778781460612,  2496.217,  2496.212, 0.007050, 0.010536,-1.003675, 0.000064, 0.000102,-0.010014, 0.019584,-0.073509,-0.037765,1,-0.006344,-0.009655, 0.000266,1,-0.049247,-0.177030, 9.804929,1,1
1778781460638,  2496.237,  2496.237, 0.007590, 0.025790,-0.987341, 0.000070, 0.000255,-0.009904, 0.024350, 0.075385, 0.122405,1, 0.001023, 0.008819,-0.000308,1,-0.050353,-0.177498, 9.804914,1,1
1778781460659,  2496.262,  2496.257, 0.003126, 0.013759,-1.017407, 0.000029, 0.000137,-0.010157,-0.063023,-0.017505, 0.005215,1,-0.009823,-0.010145, 0.001079,1,-0.049531,-0.178715, 9.804896,1,1
1778781460682,  2496.287,  2496.282, 0.008076, 0.023475,-0.991157, 0.000076, 0.000241,-0.009940, 0.029412, 0.051312, 0.084962,1, 0.008113, 0.010588,-0.000423,1,-0.050116,-0.178649, 9.804894,1,1
1778781460708,  2496.307,  2496.307, 0.004468, 0.012452,-0.992418, 0.000045, 0.000140,-0.009900,-0.006343,-0.055843, 0.072613,1, 0.000698,-0.004592, 0.000452,1,-0.050020,-0.177931, 9.804908,1,1
1778781460730,  2496.332,  2496.327, 0.004867, 0.023531,-0.991758, 0.000055, 0.000233,-0.009937, 0.043481,-0.023647,-0.052099,1,-0.003796, 0.005110,-0.001856,1,-0.050034,-0.178617, 9.804895,1,1
1778781460756,  2496.357,  2496.357, 0.003063, 0.014448,-0.995667, 0.000031, 0.000155,-0.009930,-0.020947,-0.037316, 0.040726,1,-0.002891,-0.006465, 0.000419,1,-0.050786,-0.179096, 9.804883,1,1
1778781460778,  2496.377,  2496.377, 0.011382, 0.019437,-1.002360, 0.000114, 0.000168,-0.010045, 0.061352, 0.010885,-0.024918,1,-0.001599, 0.003762,-0.001096,1,-0.050381,-0.179777, 9.804873,1,1
1778781460800,  2496.402,  2496.397, 0.004100, 0.013609,-0.995110, 0.000043, 0.000149,-0.009925,-0.000353, 0.027421, 0.180690,1, 0.003056, 0.000099, 0.000679,1,-0.051337,-0.178984, 9.804882,1,1
1778781460827,  2496.427,  2496.427, 0.006545, 0.019764,-1.000491, 0.000061, 0.000182,-0.010036, 0.014123, 0.014461,-0.006579,1,-0.002062, 0.004671,-0.000906,1,-0.050203,-0.179421, 9.804880,1,1
1778781460848,  2496.452,  2496.447, 0.005756, 0.015258,-0.996155, 0.000049, 0.000159,-0.009941,-0.036343, 0.063199, 0.179900,1,-0.000843,-0.001575, 0.000822,1,-0.050913,-0.179395, 9.804877,1,1
1778781460870,  2496.472,  2496.467, 0.007719, 0.020801,-1.006890, 0.000084, 0.000179,-0.010094, 0.022444,-0.043936,-0.087974,1,-0.001557,-0.006287,-0.000098,1,-0.049627,-0.179812, 9.804875,1,1
1778781460897,  2496.497,  2496.497, 0.000665, 0.022026,-0.983476, 0.000008, 0.000228,-0.009825,-0.044010, 0.037189, 0.160282,1, 0.005303,-0.001022, 0.000084,1,-0.050495,-0.178649, 9.804893,1,1
1778781460918,  2496.522,  2496.517, 0.007950, 0.019006,-1.007545, 0.000079, 0.000168,-0.010093,-0.039428,-0.063610,-0.094922,1,-0.003051,-0.005180,-0.000065,1,-0.048993,-0.178824, 9.804897,1,1
1778781460940,  2496.542,  2496.537, 0.007109, 0.024050,-0.988599, 0.000065, 0.000214,-0.009884, 0.010771, 0.027044, 0.051400,1, 0.001733, 0.006094, 0.000241,1,-0.049735,-0.178976, 9.804891,1,1
1778781460967,  2496.567,  2496.567, 0.023825, 0.013632,-1.006752, 0.000223, 0.000104,-0.010061, 0.183469,-0.045680,-0.067987,1,-0.007596, 0.002927,-0.001268,1,-0.050263,-0.179602, 9.804876,1,1
1778781460988,  2496.592,  2496.587, 0.018759, 0.015787,-0.973971, 0.000185, 0.000169,-0.009704, 0.089747, 0.069810, 0.276184,1, 0.004569, 0.016058, 0.000072,1,-0.052976,-0.179808, 9.804858,1,1
1778781461010,  2496.612,  2496.607, 0.021396, 0.013028,-1.025062, 0.000175, 0.000127,-0.010257, 0.069356,-0.043263,-0.071077,1,-0.007492,-0.014360, 0.000116,1,-0.052331,-0.180335, 9.804852,1,1
1778781461037,  2496.637,  2496.637, 0.022908, 0.025698,-0.970658, 0.000237, 0.000270,-0.009731, 0.169941, 0.071561, 0.285936,1, 0.007627, 0.012126, 0.000826,1,-0.055084,-0.180216, 9.804839,1,1
1778781461058,  2496.657,  2496.657, 0.020624, 0.013979,-0.997191, 0.000222, 0.000139,-0.009928, 0.147996,-0.043205, 0.025737,1,-0.004663,-0.015820,-0.000475,1,-0.053763,-0.180442, 9.804842,1,1
1778781461080,  2496.682,  2496.677, 0.013393, 0.022954,-0.980395, 0.000136, 0.000231,-0.009813, 0.120508, 0.017268,-0.031165,1, 0.003171, 0.008441,-0.000670,1,-0.053528,-0.180858, 9.804836,1,1
1778781461107,  2496.707,  2496.707, 0.016009, 0.017864,-1.012672, 0.000148, 0.000171,-0.010100, 0.104627,-0.005278,-0.126072,1,-0.007763,-0.013973,-0.000328,1,-0.051930,-0.180708, 9.804848,1,1
1778781461128,  2496.732,  2496.727, 0.019835, 0.022536,-0.971420, 0.000200, 0.000228,-0.009708, 0.172911, 0.022371, 0.078024,1, 0.004245, 0.012863,-0.000807,1,-0.052929,-0.180790, 9.804840,1,1
1778781461150,  2496.752,  2496.747, 0.009652, 0.015890,-1.017221, 0.000091, 0.000157,-0.010136, 0.072672,-0.010790, 0.103678,1,-0.001926,-0.012860,-0.000862,1,-0.052701,-0.180298, 9.804851,1,1
1778781461177,  2496.777,  2496.777, 0.012973, 0.021827,-0.992456, 0.000135, 0.000208,-0.009980, 0.075148, 0.033290, 0.072179,1, 0.005861, 0.013604,-0.000516,1,-0.052498,-0.180573, 9.804847,1,1
1778781461199,  2496.802,  2496.797, 0.019368, 0.016877,-1.012730, 0.000197, 0.000168,-0.010111, 0.128919, 0.000505, 0.117215,1,-0.003399,-0.009000, 0.000182,1,-0.053279,-0.180314, 9.804848,1,1
1778781461220,  2496.822,  2496.817, 0.017811, 0.019331,-0.978940, 0.000196, 0.000194,-0.009827, 0.164862,-0.007306,-0.068511,1, 0.000147, 0.010502, 0.000278,1,-0.053265,-0.181006, 9.804834,1,1
1778781461247,  2496.847,  2496.847, 0.011592, 0.017448,-0.995468, 0.000107, 0.000177,-0.009907, 0.059671,-0.009090, 0.042635,1,-0.004424,-0.011222,-0.000629,1,-0.053658,-0.180331, 9.804845,1,1
1778781461269,  2496.872,  2496.867, 0.020913, 0.022126,-0.975547, 0.000219, 0.000223,-0.009791, 0.163418, 0.004949,-0.058755,1,-0.002711, 0.010031,-0.000077,1,-0.053604,-0.181282, 9.804828,1,1
1778781461291,  2496.887,  2496.892, 0.017519, 0.021555,-0.970232, 0.000177, 0.000217,-0.009675, 0.087763, 0.012384, 0.033489,1,-0.004673,-0.015596,-0.000993,1,-0.053533,-0.181038, 9.804832,1,1
1778781461317,  2496.917,  2496.917, 0.024966, 0.018675,-1.012251, 0.000238, 0.000177,-0.010159, 0.192085, 0.001206,-0.121970,1,-0.001184, 0.007326, 0.000076,1,-0.052982,-0.181973, 9.804818,1,1
1778781461339,  2496.942,  2496.937, 0.018886, 0.015457,-0.995138, 0.000175, 0.000157,-0.009900, 0.092258, 0.024203, 0.280080,1, 0.005993, 0.000022,-0.001204,1,-0.054473,-0.180818, 9.804832,1,1
1778781461362,  2496.962,  2496.962, 0.017891, 0.022652,-1.008346, 0.000173, 0.000219,-0.010133, 0.123201, 0.039856,-0.083681,1,-0.003928, 0.009871, 0.000029,1,-0.052559,-0.182409, 9.804812,1,1
1778781461387,  2496.987,  2496.987, 0.014796, 0.019885,-0.972652, 0.000150, 0.000208,-0.009688, 0.091138, 0.013232, 0.266359,1, 0.001656,-0.008282,-0.000420,1,-0.053704,-0.181724, 9.804819,1,1
1778781461409,  2497.012,  2497.007, 0.015326, 0.024855,-1.008893, 0.000161, 0.000247,-0.010158, 0.089758, 0.033877,-0.332579,1,-0.002473,-0.006525,-0.001381,1,-0.051130,-0.182886, 9.804811,1,1
1778781461432,  2497.032,  2497.032, 0.010101, 0.021812,-0.976825, 0.000102, 0.000228,-0.009718, 0.045776, 0.033422, 0.225467,1, 0.004040,-0.008514,-0.001587,1,-0.053016,-0.180358, 9.804848,1,1
1778781461457,  2497.057,  2497.057, 0.012141, 0.021505,-1.026576, 0.000117, 0.000213,-0.010277, 0.068181, 0.029975,-0.262420,1,-0.002198,-0.000516,-0.001677,1,-0.050859,-0.180982, 9.804848,1,1
1778781461479,  2497.082,  2497.077, 0.010176, 0.016032,-0.983814, 0.000097, 0.000166,-0.009782, 0.038916, 0.011465, 0.277436,1, 0.010597, 0.011665,-0.001489,1,-0.053709,-0.179161, 9.804866,1,1
1778781461502,  2497.102,  2497.102, 0.024380, 0.019150,-1.018277, 0.000230, 0.000187,-0.010211, 0.187210, 0.008253,-0.181019,1,-0.000535, 0.007269,-0.000253,1,-0.052099,-0.179561, 9.804868,1,1
1778781461527,  2497.127,  2497.127, 0.021921, 0.018833,-0.952809, 0.000215, 0.000175,-0.009542, 0.159526, 0.006383, 0.461007,1, 0.006230, 0.012664, 0.000793,1,-0.055845,-0.178113, 9.804873,1,1
1778781461549,  2497.152,  2497.147, 0.036103, 0.019292,-1.021953, 0.000369, 0.000198,-0.010262, 0.252086,-0.057808,-0.147223,1,-0.015136,-0.015251, 0.001152,1,-0.053279,-0.179900, 9.804855,1,1
1778781461572,  2497.172,  2497.172, 0.034609, 0.012594,-0.942699, 0.000312, 0.000152,-0.009413, 0.281145,-0.056166, 0.560116,1, 0.006461, 0.013666, 0.000321,1,-0.058678,-0.179474, 9.804832,1,1
1778781461598,  2497.197,  2497.197, 0.030266, 0.018801,-1.035205, 0.000277, 0.000188,-0.010310, 0.241698, 0.002464,-0.347085,1,-0.017828,-0.012622, 0.000275,1,-0.055026,-0.182433, 9.804798,1,1
1778781461619,  2497.222,  2497.217, 0.005591, 0.013934,-0.959942, 0.000062, 0.000144,-0.009551, 0.143402, 0.023149, 0.361833,1, 0.016990, 0.020233,-0.000220,1,-0.058888,-0.181132, 9.804800,1,1
1778781461642,  2497.247,  2497.242, 0.015892, 0.021817,-1.052628, 0.000136, 0.000206,-0.010452, 0.102742, 0.031820,-0.517938,1,-0.012374,-0.032074,-0.002188,1,-0.052104,-0.182520, 9.804812,1,1
1778781461668,  2497.267,  2497.267, 0.009474, 0.025086,-0.989557, 0.000103, 0.000245,-0.010004, 0.039459, 0.064441, 0.100582,1, 0.019283, 0.025388,-0.002878,1,-0.054240,-0.180969, 9.804830,1,1
1778781461689,  2497.292,  2497.287, 0.006944, 0.021030,-1.032696, 0.000045, 0.000169,-0.010276,-0.095512,-0.125618, 0.161979,1,-0.005484,-0.031831,-0.003933,1,-0.052019,-0.178671, 9.804884,1,1
1778781461712,  2497.317,  2497.312,-0.002963, 0.026408,-1.002300,-0.000001, 0.000262,-0.010126,-0.079482, 0.078120,-0.024354,1, 0.012364, 0.035689, 0.000026,1,-0.051539,-0.180469, 9.804853,1,1
1778781461738,  2497.337,  2497.337, 0.016737, 0.012948,-0.973154, 0.000151, 0.000129,-0.009614, 0.110236,-0.053294, 0.261460,1,-0.013371,-0.022816,-0.001284,1,-0.053181,-0.180688, 9.804841,1,1
1778781461759,  2497.362,  2497.357, 0.017137, 0.028425,-0.950275, 0.000162, 0.000313,-0.009592, 0.080996, 0.197102,-0.262142,1,-0.003299, 0.028409, 0.000918,1,-0.052403,-0.184433, 9.804775,1,0
1778781461782,  2497.387,  2497.382, 0.016163, 0.014612,-1.009905, 0.000145, 0.000117,-0.009984, 0.104386,-0.038179,-0.098961,1,-0.020403,-0.032028,-0.001884,1,-0.053121,-0.182111, 9.804815,1,0
1778781461808,  2497.407,  2497.407, 0.026117, 0.029168,-1.002127, 0.000269, 0.000298,-0.010136, 0.200737, 0.103038,-0.022727,1, 0.014301, 0.035632, 0.001284,1,-0.056538,-0.182569, 9.804788,1,0
1778781461829,  2497.432,  2497.427, 0.012939, 0.015923,-1.008673, 0.000122, 0.000140,-0.009990, 0.080349,-0.094391, 0.505982,1,-0.001109,-0.016086,-0.000165,1,-0.058877,-0.180510, 9.804811,1,0
1778781461852,  2497.457,  2497.452, 0.008419, 0.029147,-0.992630, 0.000074, 0.000316,-0.010004, 0.026186, 0.102693, 0.070401,1, 0.015102, 0.021100, 0.000916,1,-0.057032,-0.182670, 9.804783,1,0
1778781461878,  2497.477,  2497.477, 0.020587, 0.006903,-0.996330, 0.000207, 0.000049,-0.009878, 0.145496,-0.113463, 0.034152,1,-0.003402,-0.025830,-0.002983,1,-0.055582,-0.181262, 9.804817,1,0
1778781461899,  2497.502,  2497.497, 0.008113, 0.018004,-0.961445, 0.000067, 0.000224,-0.009653, 0.033342, 0.132646,-0.081713,1, 0.013198, 0.015860,-0.000970,1,-0.054746,-0.180801, 9.804831,1,0
1778781461922,  2497.527,  2497.522, 0.003007, 0.006214,-1.023825, 0.000048, 0.000027,-0.010179,-0.024401,-0.119273,-0.235449,1,-0.016656,-0.023973,-0.003988,1,-0.053140,-0.180730, 9.804840,1,0
1778781461948,  2497.547,  2497.547, 0.001097, 0.027979,-0.991439,-0.000019, 0.000315,-0.009972,-0.044094, 0.093825, 0.082138,1, 0.013370, 0.022039,-0.001445,1,-0.055543,-0.180141, 9.804838,1,0
1778781461970,  2497.572,  2497.567, 0.014577, 0.027972,-1.009963, 0.000159, 0.000250,-0.010155, 0.151992,-0.124083,-0.134640,1,-0.014888,-0.012243,-0.002401,1,-0.054525,-0.181273, 9.804823,1,0
1778781461996,  2497.597,  2497.597, 0.022200, 0.007323,-0.967719, 0.000239, 0.000108,-0.009636, 0.159624,-0.107985, 0.314749,1, 0.001324,-0.005057, 0.000136,1,-0.058469,-0.179928, 9.804825,1,0
1778781462018,  2497.617,  2497.617,-0.003467, 0.025362,-1.020014,-0.000030, 0.000212,-0.010219,-0.089795, 0.066457,-0.198118,1,-0.002278,-0.000652,-0.001658,1,-0.055776,-0.182334, 9.804796,1,0
1778781462040,  2497.642,  2497.637, 0.033559, 0.012183,-1.000534, 0.000338, 0.000099,-0.009987, 0.091776, 0.144057,-0.014046,1, 0.014066, 0.014222,-0.000229,1,-0.057274,-0.180915, 9.804813,1,0
1778781462067,  2497.667,  2497.667, 0.025902, 0.022054,-0.968950, 0.000285, 0.000256,-0.009729, 0.287527, 0.119141, 0.047713,1, 0.006411, 0.011840,-0.001417,1,-0.058280,-0.181786, 9.804791,1,0
1778781462088,  2497.692,  2497.687, 0.015295, 0.027866,-1.037166, 0.000167, 0.000277,-0.010345, 0.074946,-0.011828, 0.051141,1,-0.009496,-0.019829,-0.002601,1,-0.058632,-0.180821, 9.804808,1,0
1778781462110,  2497.712,  2497.707, 0.027741, 0.023059,-0.979904, 0.000254, 0.000227,-0.009840, 0.086471, 0.071332,-0.194325,1,-0.001630, 0.015756, 0.000017,1,-0.058067,-0.182509, 9.804780,1,0
1778781462137,  2497.737,  2497.737, 0.015185, 0.016106,-0.996302, 0.000145, 0.000139,-0.009934, 0.090623,-0.022621, 0.034434,1,-0.004234,-0.011895,-0.001834,1,-0.057921,-0.180697, 9.804814,1,0
1778781462158,  2497.762,  2497.757, 0.030469, 0.011886,-0.997314, 0.000300, 0.000097,-0.009981, 0.248031,-0.032851,-0.036022,1, 0.005541, 0.003207,-0.000870,1,-0.058148,-0.179822, 9.804829,1,0
1778781462180,  2497.782,  2497.777, 0.026609, 0.016148,-0.995634, 0.000287, 0.000171,-0.009961, 0.300191, 0.044970, 0.038998,1, 0.001028, 0.007037,-0.002511,1,-0.059686,-0.179978, 9.804816,1,0
1778781462207,  2497.807,  2497.807, 0.023351, 0.024614,-0.986319, 0.000246, 0.000263,-0.009867, 0.167374, 0.060537, 0.132306,1,-0.007606, 0.003606,-0.000792,1,-0.061747,-0.181082, 9.804784,1,0
1778781462228,  2497.832,  2497.827, 0.032471, 0.021238,-1.011196, 0.000334, 0.000203,-0.010106, 0.287420, 0.007847,-0.019189,1,-0.004298,-0.004939,-0.001600,1,-0.061552,-0.182042, 9.804767,1,0
1778781462250,  2497.852,  2497.847, 0.042561, 0.019302,-0.996089, 0.000423, 0.000197,-0.009980, 0.298882, 0.045271,-0.081845,1, 0.007449, 0.002966,-0.001693,1,-0.061001,-0.181344, 9.804784,1,0
1778781462277,  2497.877,  2497.877, 0.041421, 0.012785,-0.990597, 0.000411, 0.000121,-0.009900, 0.344341,-0.055141, 0.090353,1,-0.001380, 0.002788,-0.001325,1,-0.061943,-0.180561, 9.804792,1,0
1778781462298,  2497.902,  2497.897, 0.029635, 0.021855,-0.995529, 0.000290, 0.000217,-0.009953, 0.307894, 0.007094, 0.081785,1,-0.008578, 0.001922,-0.001672,1,-0.062792,-0.182020, 9.804760,1,0
1778781462320,  2497.922,  2497.917, 0.028009, 0.020331,-1.005520, 0.000276, 0.000189,-0.010040, 0.233998,-0.009782, 0.023968,1,-0.002709,-0.001183,-0.001519,1,-0.063118,-0.182860, 9.804742,1,0
1778781462347,  2497.947,  2497.947, 0.048067, 0.026359,-0.994850, 0.000479, 0.000265,-0.009973, 0.408306, 0.075873, 0.048603,1, 0.003664, 0.004783, 0.000006,1,-0.063218,-0.182507, 9.804748,1,0
1778781462368,  2497.972,  2497.967, 0.035460, 0.015629,-0.990297, 0.000380, 0.000155,-0.009882, 0.396778,-0.004800, 0.198201,1, 0.007810, 0.002285,-0.001289,1,-0.064034,-0.180790, 9.804774,1,0
1778781462390,  2497.992,  2497.987, 0.037684, 0.023703,-0.997688, 0.000371, 0.000250,-0.009985, 0.238271, 0.050421, 0.005784,1,-0.001821, 0.000170,-0.002178,1,-0.063257,-0.180588, 9.804783,1,0
1778781462417,  2498.017,  2498.017, 0.046415, 0.020619,-0.986869, 0.000449, 0.000205,-0.009863, 0.390276, 0.020715, 0.126876,1,-0.000641, 0.001906,-0.002051,1,-0.064956,-0.181513, 9.804755,1,0
1778781462439,  2498.042,  2498.037, 0.042783, 0.019421,-0.993009, 0.000427, 0.000197,-0.009924, 0.336761, 0.088422, 0.064562,1, 0.006081, 0.000385,-0.002184,1,-0.064840,-0.180889, 9.804768,1,0
1778781462460,  2498.062,  2498.057, 0.044814, 0.022833,-1.010989, 0.000456, 0.000239,-0.010093, 0.372009, 0.051305, 0.014896,1, 0.001644,-0.005015,-0.003570,1,-0.064390,-0.180284, 9.804781,1,0
1778781462487,  2498.087,  2498.087, 0.047950, 0.024086,-0.993555, 0.000471, 0.000257,-0.009945, 0.405655, 0.056798, 0.061346,1, 0.007567, 0.006506,-0.002344,1,-0.064773,-0.179164, 9.804799,1,0
1778781462509,  2498.112,  2498.107, 0.053568, 0.020003,-0.996827, 0.000542, 0.000208,-0.009969, 0.426363, 0.047074, 0.091628,1, 0.001787, 0.001979,-0.003497,1,-0.065262,-0.178628, 9.804806,1,0
1778781462531,  2498.132,  2498.132, 0.060089, 0.016856,-0.991409, 0.000595, 0.000182,-0.009910, 0.522480,-0.012050, 0.082417,1, 0.006630, 0.005839,-0.003775,1,-0.066974,-0.177144, 9.804821,1,0
1778781462557,  2498.157,  2498.157, 0.058077, 0.020875,-0.994625, 0.000565, 0.000221,-0.009950, 0.502019, 0.028147, 0.050883,1, 0.004123, 0.007280,-0.004258,1,-0.067746,-0.176444, 9.804829,1,0
1778781462579,  2498.182,  2498.177, 0.063918, 0.016284,-0.991883, 0.000642, 0.000168,-0.009910, 0.518265, 0.001203, 0.138483,1, 0.004903, 0.005696,-0.004439,1,-0.069040,-0.175541, 9.804835,1,0
1778781462602,  2498.202,  2498.202, 0.064509, 0.019151,-0.994384, 0.000642, 0.000200,-0.009942, 0.563328, 0.011624, 0.053243,1, 0.002941, 0.000918,-0.003403,1,-0.069321,-0.176115, 9.804824,1,0
1778781462627,  2498.227,  2498.227, 0.060188, 0.019747,-0.990003, 0.000583, 0.000193,-0.009891, 0.520775, 0.018034, 0.096213,1, 0.002971, 0.001234,-0.003393,1,-0.069509,-0.175528, 9.804832,1,0
1778781462649,  2498.252,  2498.247, 0.065482, 0.018949,-0.996709, 0.000649, 0.000207,-0.009963, 0.513810, 0.072294, 0.029454,1, 0.001065, 0.003437,-0.003772,1,-0.069538,-0.175470, 9.804833,1,0
1778781462672,  2498.272,  2498.272, 0.063261, 0.021281,-0.996369, 0.000614, 0.000218,-0.009950, 0.549628, 0.034880, 0.033815,1, 0.007243, 0.003679,-0.005571,1,-0.070863,-0.173594, 9.804857,1,0
1778781462697,  2498.297,  2498.297, 0.066378, 0.024518,-1.000021, 0.000663, 0.000243,-0.010009, 0.579549, 0.067686,-0.001989,1, 0.007068, 0.003996,-0.005923,1,-0.071521,-0.172537, 9.804872,1,0
1778781462719,  2498.322,  2498.317, 0.070617, 0.017092,-0.986892, 0.000701, 0.000193,-0.009856, 0.574151, 0.046918, 0.129489,1, 0.007988, 0.009140,-0.006766,1,-0.073210,-0.170921, 9.804887,1,0
1778781462742,  2498.342,  2498.342, 0.066858, 0.023485,-1.001819, 0.000656, 0.000244,-0.010013, 0.582205, 0.059821,-0.019597,1,-0.001264, 0.001832,-0.006104,1,-0.073498,-0.170525, 9.804892,1,0
1778781462767,  2498.367,  2498.367, 0.065979, 0.016172,-0.998577, 0.000677, 0.000144,-0.009997, 0.573103,-0.011763, 0.012200,1, 0.001856, 0.003441,-0.006234,1,-0.074032,-0.170303, 9.804892,1,0
1778781462789,  2498.392,  2498.387, 0.059958, 0.019601,-0.994939, 0.000602, 0.000183,-0.009948, 0.567737,-0.032365, 0.032901,1, 0.000016, 0.001764,-0.006009,1,-0.074379,-0.169749, 9.804898,1,0
1778781462812,  2498.412,  2498.412, 0.060313, 0.016946,-0.998750, 0.000634, 0.000149,-0.009989, 0.516954,-0.002797, 0.010518,1, 0.001729,-0.000217,-0.006247,1,-0.074510,-0.168931, 9.804912,1,0
1778781462838,  2498.437,  2498.437, 0.071054, 0.020412,-0.995181, 0.000736, 0.000255,-0.009947, 0.621001, 0.031538, 0.045514,1, 0.004353, 0.003135,-0.006583,1,-0.075892,-0.168499, 9.804909,1,0
1778781462859,  2498.462,  2498.457, 0.068563, 0.018159,-0.977948, 0.000709, 0.000189,-0.009778, 0.605868, 0.121181, 0.116597,1, 0.009070, 0.015760,-0.008912,1,-0.077989,-0.166428, 9.804928,1,0
1778781462882,  2498.487,  2498.482, 0.073409, 0.015334,-0.991595, 0.000742, 0.000185,-0.009898, 0.641437,-0.011148, 0.080784,1, 0.020678,-0.003600,-0.009539,1,-0.078346,-0.160882, 9.805017,1,0
1778781462908,  2498.507,  2498.507, 0.061717, 0.008874,-1.005577, 0.000605, 0.000080,-0.010052, 0.526631,-0.071584,-0.056294,1, 0.008974, 0.002897,-0.010321,1,-0.078689,-0.158329, 9.805056,1,0
1778781462929,  2498.532,  2498.527, 0.079407, 0.012581,-0.993757, 0.000761, 0.000149,-0.009954, 0.467877,-0.045543,-0.073890,1,-0.009928, 0.009879,-0.009487,1,-0.079106,-0.159288, 9.805037,1,0
1778781462952,  2498.557,  2498.552, 0.075848, 0.021886,-0.972025, 0.000733, 0.000207,-0.009713, 0.661364, 0.051539, 0.272633,1,-0.016585, 0.011967,-0.008201,1,-0.082819,-0.163606, 9.804935,1,0
1778781462978,  2498.577,  2498.577, 0.060701, 0.015487,-0.992636, 0.000636, 0.000150,-0.009910, 0.512930,-0.013751, 0.070466,1,-0.009455,-0.008187,-0.010013,1,-0.082082,-0.165924, 9.804903,1,0
1778781462999,  2498.602,  2498.597, 0.061875, 0.011014,-1.005165, 0.000601, 0.000105,-0.010063, 0.595490, 0.054228,-0.109730,1, 0.012604,-0.011951,-0.009892,1,-0.080574,-0.164705, 9.804935,1,0
1778781463022,  2498.627,  2498.622, 0.065889, 0.012543,-0.999609, 0.000697, 0.000148,-0.009998, 0.566796,-0.038254, 0.002183,1, 0.008650,-0.007061,-0.010012,1,-0.079130,-0.160994, 9.805009,1,0
1778781463048,  2498.647,  2498.647, 0.075658, 0.015076,-1.001818, 0.000750, 0.000136,-0.010009, 0.662575,-0.013222,-0.019472,1,-0.004188,-0.001075,-0.012203,1,-0.079332,-0.161205, 9.805004,1,0
1778781463069,  2498.672,  2498.667, 0.076746, 0.021376,-0.991637, 0.000772, 0.000228,-0.009926, 0.539023,-0.001474,-0.003661,1,-0.010787, 0.014356,-0.012822,1,-0.080108,-0.163457, 9.804960,1,0
1778781463092,  2498.697,  2498.692, 0.066365, 0.021472,-0.993750, 0.000635, 0.000200,-0.009945, 0.568965, 0.044195, 0.059534,1,-0.007308, 0.010322,-0.015680,1,-0.082163,-0.166603, 9.804891,1,0
1778781463118,  2498.717,  2498.717, 0.064628, 0.019311,-0.986932, 0.000661, 0.000219,-0.009869, 0.550886, 0.022621, 0.126380,1, 0.000355, 0.003588,-0.014539,1,-0.083002,-0.166743, 9.804881,1,0
1778781463139,  2498.742,  2498.737, 0.073814, 0.021409,-0.982460, 0.000747, 0.000232,-0.009812, 0.680741, 0.116805, 0.232523,1, 0.008125, 0.001760,-0.016788,1,-0.084275,-0.165340, 9.804893,1,0
1778781463162,  2498.767,  2498.762, 0.086324, 0.026570,-0.980877, 0.000862, 0.000265,-0.009803, 0.761424, 0.096242, 0.185781,1, 0.007594, 0.002475,-0.016761,1,-0.085190,-0.164093, 9.804907,1,0
1778781463188,  2498.787,  2498.787, 0.086803, 0.020630,-0.996225, 0.000862, 0.000188,-0.009957, 0.766564, 0.038458, 0.035282,1, 0.001212,-0.001407,-0.017093,1,-0.084633,-0.163818, 9.804916,1,0
1778781463210,  2498.812,  2498.807, 0.098945, 0.007630,-0.993858, 0.001001, 0.000070,-0.009939, 0.846162,-0.045506, 0.063626,1, 0.006546, 0.003163,-0.016662,1,-0.085165,-0.162785, 9.804929,1,0
1778781463237,  2498.837,  2498.837, 0.099724, 0.018694,-0.989561, 0.000974, 0.000203,-0.009901, 0.891801, 0.020765, 0.100649,1,-0.001502, 0.010723,-0.015750,1,-0.086485,-0.162610, 9.804920,1,0
1778781463258,  2498.857,  2498.857, 0.097564, 0.014708,-0.998929, 0.000986, 0.000119,-0.009989, 0.869625,-0.020191, 0.008735,1,-0.011122, 0.005841,-0.016583,1,-0.087322,-0.164778, 9.804876,1,0
1778781463280,  2498.882,  2498.877, 0.100112, 0.015364,-0.987850, 0.001019, 0.000146,-0.009873, 0.983075, 0.033863, 0.114574,1,-0.004117, 0.010506,-0.015378,1,-0.089909,-0.165683, 9.804838,1,0
1778781463307,  2498.907,  2498.907, 0.115131, 0.028742,-0.996268, 0.001139, 0.000293,-0.009953, 1.036854, 0.116473, 0.034768,1, 0.003851, 0.009488,-0.016620,1,-0.092486,-0.165271, 9.804821,1,0
1778781463328,  2498.932,  2498.927, 0.115334, 0.023943,-0.975614, 0.001154, 0.000220,-0.009776, 1.025740, 0.006536, 0.085647,1, 0.008248, 0.014858,-0.019077,1,-0.094517,-0.164621, 9.804812,1,0
1778781463350,  2498.952,  2498.947, 0.117708, 0.006138,-1.000304, 0.001187, 0.000055,-0.009981, 1.031132, 0.008050, 0.208675,1, 0.004425,-0.003157,-0.019434,1,-0.095608,-0.163038, 9.804829,1,0
1778781463377,  2498.977,  2498.977, 0.109516, 0.022966,-0.997373, 0.001075, 0.000264,-0.009990, 0.979335, 0.061426, 0.023932,1, 0.005484, 0.006742,-0.020279,1,-0.094846,-0.163629, 9.804826,1,0
1778781463398,  2499.002,  2498.997, 0.113775, 0.026692,-1.001060, 0.001137, 0.000261,-0.010046, 1.030436,-0.019348,-0.101897,1,-0.006715,-0.002635,-0.021838,1,-0.094496,-0.164355, 9.804817,1,0
1778781463420,  2499.022,  2499.017, 0.126614, 0.005985,-0.987582, 0.001264, 0.000081,-0.009845, 1.072842, 0.078017, 0.180638,1, 0.012320, 0.016088,-0.018906,1,-0.097378,-0.162983, 9.804812,1,0
1778781463447,  2499.047,  2499.047, 0.123862, 0.032467,-1.009069, 0.001247, 0.000320,-0.010108, 1.116869, 0.154717,-0.090787,1, 0.005568, 0.011545,-0.020775,1,-0.098154,-0.163503, 9.804795,1,0
1778781463468,  2499.072,  2499.067, 0.132079, 0.015791,-1.005472, 0.001355, 0.000113,-0.010020, 1.228685,-0.099723, 0.174493,1, 0.013383, 0.004439,-0.023308,1,-0.100922,-0.160109, 9.804824,1,0
1778781463490,  2499.092,  2499.087, 0.122395, 0.018336,-0.971427, 0.001178, 0.000228,-0.009764, 1.000913, 0.154864,-0.053627,1, 0.005376, 0.009278,-0.021507,1,-0.100019,-0.160058, 9.804833,1,0
1778781463517,  2499.117,  2499.117, 0.140181, 0.019862,-1.007786, 0.001435, 0.000158,-0.010029, 1.272909, 0.036926,-0.078156,1,-0.019899,-0.018401,-0.025041,1,-0.101208,-0.158483, 9.804847,1,0
1778781463538,  2499.142,  2499.137, 0.142474, 0.001437,-0.959640, 0.001391, 0.000035,-0.009529, 1.102640, 0.110346, 0.371760,1, 0.017584, 0.034474,-0.021292,1,-0.105608,-0.158116, 9.804807,1,0
1778781463560,  2499.162,  2499.157, 0.133544, 0.042765,-1.037545, 0.001352, 0.000416,-0.010410, 1.309669,-0.015866,-0.167033,1,-0.030528,-0.028489,-0.028084,1,-0.103306,-0.160017, 9.804800,1,0
1778781463587,  2499.187,  2499.187, 0.135790,-0.002718,-0.957760, 0.001326, 0.000036,-0.009564, 1.223267,-0.184486, 0.412363,1, 0.033267, 0.017873,-0.027541,1,-0.108918,-0.156807, 9.804791,1,0
1778781463608,  2499.212,  2499.207, 0.125556, 0.037982,-1.011882, 0.001282, 0.000410,-0.010245, 1.310319, 0.183226,-0.411141,1,-0.018781,-0.016621,-0.028373,1,-0.104444,-0.160228, 9.804785,1,0
1778781463630,  2499.232,  2499.227, 0.156399,-0.007462,-0.958608, 0.001581,-0.000066,-0.009470, 1.267705, 0.001371, 0.602847,1, 0.038028, 0.045891,-0.026605,1,-0.112194,-0.156006, 9.804768,1,0
1778781463657,  2499.257,  2499.257, 0.136620, 0.053579,-1.047259, 0.001389, 0.000527,-0.010571, 1.231900, 0.365715,-0.465350,1,-0.004751, 0.021722,-0.027360,1,-0.108547,-0.159873, 9.804746,1,0
1778781463679,  2499.282,  2499.277, 0.149684, 0.005773,-0.996298, 0.001464,-0.000023,-0.009823, 1.244034,-0.240872, 0.618193,1, 0.033850, 0.009921,-0.031017,1,-0.115516,-0.151730, 9.804795,1,0
1778781463700,  2499.302,  2499.297, 0.128911, 0.040656,-1.016060, 0.001318, 0.000480,-0.010298, 1.426575, 0.253661,-0.585599,1,-0.019244,-0.014130,-0.032192,1,-0.110109,-0.155486, 9.804799,1,0
1778781463727,  2499.327,  2499.327, 0.154893,-0.022782,-0.948806, 0.001572,-0.000225,-0.009376, 1.400617,-0.369359, 0.500244,1, 0.015208,-0.024887,-0.033425,1,-0.117575,-0.145481, 9.804866,1,0
1778781463749,  2499.352,  2499.347, 0.129954, 0.022170,-0.965577, 0.001270, 0.000329,-0.009821, 1.285901, 0.385527,-0.621752,1,-0.010742, 0.015496,-0.029646,1,-0.113205,-0.150615, 9.804840,1,0
1778781463771,  2499.372,  2499.372, 0.163043,-0.012219,-0.998217, 0.001659,-0.000189,-0.009776, 1.479853,-0.262289, 0.015726,1,-0.026867,-0.054105,-0.036539,1,-0.117350,-0.143318, 9.804900,1,0
1778781463797,  2499.397,  2499.397, 0.132074, 0.049792,-1.015584, 0.001332, 0.000561,-0.010361, 1.177624, 0.341341,-0.154630,1, 0.029741, 0.060317,-0.026277,1,-0.119488,-0.146008, 9.804835,1,0
1778781463819,  2499.422,  2499.417, 0.151945, 0.015221,-1.056993, 0.001538, 0.000062,-0.010419, 1.457691,-0.438459, 0.518035,1, 0.003810,-0.033955,-0.035288,1,-0.123679,-0.137577, 9.804905,1,0
1778781463842,  2499.442,  2499.442, 0.125247, 0.028768,-0.950319, 0.001252, 0.000388,-0.009690, 1.104548, 0.142137, 0.485421,1, 0.062140, 0.071790,-0.026476,1,-0.125938,-0.138055, 9.804870,1,0
1778781463867,  2499.467,  2499.467, 0.145437,-0.024648,-0.987685, 0.001490,-0.000287,-0.009665, 1.301526,-0.376326, 0.119050,1,-0.033981,-0.067064,-0.035737,1,-0.122619,-0.135687, 9.804945,1,0
1778781463889,  2499.492,  2499.487, 0.130238, 0.006189,-0.932056, 0.001267, 0.000141,-0.009420, 1.283432, 0.274768,-0.937617,1,-0.041560,-0.032992,-0.034697,1,-0.118010,-0.140545, 9.804933,1,0
1778781463912,  2499.512,  2499.512, 0.126007,-0.002170,-1.033768, 0.001237,-0.000064,-0.010153, 1.114509,-0.153402,-0.332795,1,-0.043401,-0.067859,-0.037793,1,-0.119063,-0.133491, 9.805018,1,0
1778781463937,  2499.537,  2499.537, 0.093019, 0.035570,-0.984368, 0.000926, 0.000410,-0.010056, 0.791503, 0.215426, 0.151644,1, 0.043071, 0.060951,-0.032026,1,-0.122592,-0.132067, 9.804995,1,0
1778781463959,  2499.562,  2499.557, 0.102738, 0.007180,-1.096387, 0.001023, 0.000035,-0.010871, 0.967947,-0.355033, 0.159764,1,-0.027712,-0.075269,-0.036382,1,-0.119344,-0.129724, 9.805066,1,0
1778781463982,  2499.582,  2499.582, 0.087219, 0.017616,-0.948365, 0.000907, 0.000231,-0.009642, 0.737643, 0.041788, 0.504785,1, 0.063818, 0.045740,-0.035210,1,-0.119099,-0.128982, 9.805079,1,0
1778781464007,  2499.607,  2499.607, 0.106442,-0.009531,-0.996826, 0.001077,-0.000165,-0.009780, 0.928737,-0.221032, 0.029623,1,-0.048391,-0.067148,-0.040041,1,-0.112996,-0.129044, 9.805150,1,0
1778781464029,  2499.632,  2499.627, 0.095734, 0.012938,-0.931358, 0.000945, 0.000221,-0.009415, 0.782735, 0.292435,-0.300623,1, 0.030336, 0.039365,-0.037473,1,-0.111332,-0.132277, 9.805126,1,0
1778781464052,  2499.652,  2499.652, 0.113915, 0.006946,-1.045011, 0.001170, 0.000025,-0.010318, 1.008167,-0.062181,-0.442883,1,-0.045489,-0.061854,-0.042494,1,-0.107010,-0.131728, 9.805182,1,0
1778781464078,  2499.677,  2499.677, 0.104655, 0.045846,-0.960796, 0.001012, 0.000517,-0.009785, 0.916151, 0.319612, 0.382977,1, 0.054786, 0.057583,-0.036747,1,-0.111947,-0.128283, 9.805172,1,0
1778781464099,  2499.702,  2499.697, 0.107385, 0.043485,-1.030029, 0.001051, 0.000308,-0.010276, 0.983690,-0.360699, 0.315552,1,-0.028835,-0.046814,-0.043686,1,-0.109440,-0.126290, 9.805226,1,0
1778781464122,  2499.727,  2499.722, 0.118358, 0.007715,-0.952695, 0.001154, 0.000122,-0.009594, 1.049425,-0.049315, 0.462474,1, 0.027145, 0.032696,-0.036534,1,-0.112276,-0.124139, 9.805222,1,0
1778781464148,  2499.747,  2499.747, 0.129234, 0.003232,-0.997789, 0.001338, 0.000022,-0.009912, 1.157129,-0.093443, 0.020268,1,-0.014727,-0.028200,-0.040620,1,-0.109332,-0.125610, 9.805236,1,0
1778781464169,  2499.772,  2499.767, 0.139010,-0.011596,-0.963571, 0.001420,-0.000132,-0.009624, 1.312786, 0.025437, 0.205948,1, 0.029533, 0.021930,-0.037066,1,-0.112030,-0.121974, 9.805251,1,0
1778781464192,  2499.797,  2499.792, 0.142669, 0.012215,-0.996038, 0.001385, 0.000187,-0.009943, 1.287082,-0.001184, 0.037462,1, 0.007188, 0.006636,-0.038182,1,-0.112294,-0.120164, 9.805271,1,0
1778781464218,  2499.817,  2499.817, 0.145742, 0.011076,-0.991750, 0.001475, 0.000119,-0.009925, 1.315246,-0.010310, 0.079522,1, 0.006590, 0.009513,-0.038718,1,-0.114275,-0.118729, 9.805265,1,0
1778781464239,  2499.842,  2499.837, 0.152808, 0.008320,-0.994361, 0.001494, 0.000120,-0.009919, 1.293088, 0.024589, 0.161655,1, 0.009347, 0.007657,-0.037575,1,-0.116212,-0.117033, 9.805263,1,0
1778781464262,  2499.867,  2499.862, 0.148111, 0.019558,-0.991571, 0.001423, 0.000188,-0.009911, 1.334497, 0.077063, 0.081277,1, 0.013939, 0.011902,-0.039408,1,-0.118336,-0.114318, 9.805269,1,0
1778781464288,  2499.887,  2499.887, 0.142036,-0.004726,-0.992537, 0.001399,-0.000054,-0.009912, 1.273859,-0.159487, 0.071807,1, 0.005781, 0.005564,-0.038474,1,-0.119197,-0.112970, 9.805275,1,0
1778781464309,  2499.912,  2499.907, 0.135740, 0.007476,-1.004589, 0.001391, 0.000115,-0.010065, 1.291709,-0.034460,-0.021206,1, 0.005693,-0.000967,-0.039675,1,-0.119222,-0.111448, 9.805292,1,0
1778781464332,  2499.937,  2499.932, 0.139059, 0.008648,-1.002038, 0.001414, 0.000097,-0.010010, 1.244494,-0.025642,-0.021332,1, 0.006133,-0.005790,-0.040913,1,-0.119010,-0.110273, 9.805307,1,0
1778781464358,  2499.957,  2499.957, 0.132773, 0.013541,-1.008659, 0.001347, 0.000162,-0.010116, 1.183857, 0.022546,-0.086248,1, 0.004906, 0.000327,-0.039989,1,-0.118196,-0.110109, 9.805320,1,0
1778781464379,  2499.982,  2499.977, 0.115521, 0.009150,-1.008942, 0.001207, 0.000058,-0.010087, 1.233814, 0.016921, 0.058835,1, 0.011227,-0.007318,-0.041850,1,-0.118314,-0.107547, 9.805346,1,0
1778781464402,  2500.007,  2500.002, 0.127997, 0.027355,-1.002779, 0.001305, 0.000300,-0.010060, 1.138176, 0.162920,-0.028522,1, 0.017533, 0.001506,-0.042593,1,-0.117088,-0.104773, 9.805391,1,0
1778781464428,  2500.027,  2500.027, 0.117059, 0.005005,-0.995350, 0.001166, 0.000051,-0.009949, 1.031859,-0.053599, 0.044379,1, 0.015810,-0.010088,-0.044784,1,-0.115769,-0.102206, 9.805434,1,0
1778781464450,  2500.052,  2500.047, 0.112325, 0.005100,-0.994079, 0.001130,-0.000024,-0.009990, 1.100881, 0.002213,-0.182910,1, 0.013706,-0.007424,-0.043492,1,-0.113415,-0.098537, 9.805499,1,0
1778781464477,  2500.077,  2500.077, 0.135673,-0.001409,-0.989944, 0.001322,-0.000018,-0.009845, 1.216068,-0.108793, 0.097488,1, 0.004363,-0.005308,-0.042714,1,-0.114251,-0.094858, 9.805526,1,0
1778781464498,  2500.097,  2500.097, 0.123378, 0.006950,-0.999556, 0.001194, 0.000047,-0.010012, 1.096535,-0.027108, 0.003240,1, 0.006479, 0.009089,-0.042456,1,-0.113665,-0.095078, 9.805531,1,0
1778781464520,  2500.122,  2500.117, 0.133615, 0.001048,-0.979084, 0.001283, 0.000010,-0.009794, 1.163689,-0.063364, 0.105991,1,-0.017122, 0.000785,-0.038389,1,-0.114391,-0.095916, 9.805513,1,0
1778781464547,  2500.147,  2500.147, 0.139761, 0.007307,-0.994642, 0.001431, 0.000103,-0.009932, 1.254967,-0.025883, 0.051374,1,-0.011444,-0.007708,-0.040075,1,-0.115366,-0.097913, 9.805483,1,0
1778781464568,  2500.172,  2500.167, 0.150140, 0.011555,-1.004115, 0.001515, 0.000066,-0.010052, 1.404669,-0.015985,-0.001315,1, 0.009041,-0.002530,-0.041966,1,-0.115217,-0.097335, 9.805490,1,0
1778781464590,  2500.192,  2500.187, 0.170243, 0.003976,-0.982530, 0.001685, 0.000042,-0.009845, 1.360299,-0.010636, 0.043219,1, 0.006984, 0.010093,-0.041297,1,-0.115266,-0.096876, 9.805494,1,0
1778781464617,  2500.217,  2500.217, 0.173870, 0.001427,-0.990429, 0.001723,-0.000025,-0.009877, 1.587779,-0.079759, 0.092706,1,-0.000495, 0.001288,-0.042667,1,-0.117332,-0.093781, 9.805500,1,0
1778781464638,  2500.242,  2500.237, 0.190967, 0.006074,-0.971735, 0.001923,-0.000010,-0.009726, 1.515621,-0.130366, 0.208099,1, 0.002354, 0.026500,-0.039902,1,-0.120149,-0.093954, 9.805464,1,0
1778781464660,  2500.262,  2500.257, 0.180728, 0.006412,-0.969920, 0.001758, 0.000078,-0.009715, 1.598251, 0.149697, 0.256650,1,-0.012397, 0.010231,-0.037778,1,-0.123006,-0.095113, 9.805417,1,0
1778781464687,  2500.287,  2500.287, 0.176094, 0.010746,-0.966438, 0.001788, 0.000068,-0.009645, 1.599019, 0.010157, 0.327832,1, 0.000991, 0.007315,-0.039757,1,-0.128091,-0.095206, 9.805351,1,0
1778781464708,  2500.312,  2500.307, 0.176879, 0.000027,-0.961100, 0.001721,-0.000034,-0.009625, 1.620719, 0.081935, 0.214876,1, 0.000632, 0.016270,-0.035301,1,-0.130717,-0.095659, 9.805312,1,0
1778781464730,  2500.332,  2500.327, 0.155086, 0.007391,-0.986178, 0.001632, 0.000110,-0.009866, 1.800258, 0.202027, 0.284863,1, 0.007262, 0.003566,-0.037081,1,-0.133841,-0.094186, 9.805285,1,0
1778781464757,  2500.357,  2500.357, 0.186983, 0.005512,-0.992095, 0.001933, 0.000089,-0.009892, 1.697914,-0.040770, 0.076122,1, 0.000922,-0.000229,-0.033362,1,-0.135745,-0.094809, 9.805252,1,0
1778781464778,  2500.382,  2500.377, 0.151622,-0.008368,-0.990628, 0.001639,-0.000015,-0.009910, 1.601804, 0.180855, 0.073061,1, 0.010171, 0.020896,-0.035569,1,-0.138127,-0.094958, 9.805218,1,0
1778781464800,  2500.402,  2500.397, 0.157743,-0.009024,-1.002158, 0.001539,-0.000059,-0.010036, 1.231461,-0.070083,-0.044693,1,-0.008566, 0.007547,-0.033642,1,-0.138221,-0.094982, 9.805216,1,0
1778781464827,  2500.427,  2500.427, 0.132765, 0.015998,-1.011284, 0.001326, 0.000164,-0.010123, 1.163395, 0.059528,-0.112118,1,-0.015126, 0.005364,-0.028142,1,-0.138740,-0.097843, 9.805181,1,0
1778781464849,  2500.452,  2500.447, 0.150550, 0.036567,-0.999781, 0.001519, 0.000342,-0.009953, 1.168119, 0.021372, 0.207215,1,-0.010478, 0.007883,-0.029905,1,-0.141024,-0.100072, 9.805125,1,0
1778781464870,  2500.472,  2500.467, 0.122228, 0.040649,-0.994275, 0.001185, 0.000381,-0.009976, 1.146455, 0.225208,-0.142629,1,-0.021431,-0.004149,-0.023148,1,-0.139665,-0.103934, 9.805104,1,0
1778781464897,  2500.497,  2500.497, 0.135793, 0.040840,-0.998016, 0.001421, 0.000374,-0.009947, 1.191008, 0.298508, 0.017917,1, 0.001449,-0.023057,-0.024741,1,-0.139941,-0.101962, 9.805121,1,0
1778781464919,  2500.522,  2500.517, 0.147747, 0.026891,-0.980997, 0.001502, 0.000300,-0.009804, 1.443169, 0.263569, 0.041892,1, 0.028238, 0.006264,-0.020475,1,-0.140091,-0.099056, 9.805149,1,0
1778781464940,  2500.542,  2500.537, 0.148962, 0.027626,-0.998466, 0.001476, 0.000277,-0.009953, 1.223513,-0.033708, 0.134874,1, 0.021905,-0.012886,-0.021063,1,-0.138400,-0.093842, 9.805224,1,0
1778781464967,  2500.567,  2500.567, 0.141458, 0.003264,-1.006133, 0.001396, 0.000037,-0.010127, 1.252964,-0.061159,-0.061511,1, 0.001373, 0.010537,-0.012204,1,-0.134592,-0.093131, 9.805285,1,0
1778781464989,  2500.592,  2500.587, 0.166256, 0.017635,-0.981045, 0.001652, 0.000096,-0.009807, 1.554741,-0.023828, 0.270406,1,-0.016227,-0.004756,-0.010737,1,-0.136326,-0.093636, 9.805255,1,0
1778781465012,  2500.612,  2500.612, 0.182243, 0.010133,-0.956180, 0.001808, 0.000030,-0.009569, 1.646630, 0.001447, 0.428229,1,-0.011666, 0.019375,-0.009389,1,-0.141161,-0.098298, 9.805141,1,0
1778781465037,  2500.637,  2500.637, 0.176150, 0.027968,-0.964366, 0.001740, 0.000257,-0.009669, 1.584110, 0.172487, 0.347872,1,-0.019296, 0.025267,-0.005734,1,-0.144121,-0.102387, 9.805057,1,0
1778781465059,  2500.662,  2500.657, 0.181653, 0.038705,-0.985356, 0.001809, 0.000331,-0.009832, 1.749625, 0.218102, 0.358269,1, 0.002952, 0.001235,-0.004346,1,-0.147166,-0.102097, 9.805015,1,0
1778781465082,  2500.682,  2500.682, 0.181332, 0.037506,-1.006818, 0.001782, 0.000415,-0.010002, 1.630711, 0.267831,-0.068478,1, 0.015590,-0.004128,-0.002794,1,-0.147423,-0.099491, 9.805037,1,0
1778781465107,  2500.707,  2500.707, 0.161332, 0.027067,-1.011174, 0.001599, 0.000233,-0.010126, 1.435305, 0.167707,-0.111166,1, 0.021547, 0.005955,-0.003818,1,-0.147005,-0.097058, 9.805068,1,0
1778781465129,  2500.732,  2500.727, 0.168385, 0.011689,-1.012061, 0.001649, 0.000116,-0.010102, 1.317113, 0.118894,-0.013651,1, 0.019317,-0.001048,-0.001282,1,-0.147365,-0.092974, 9.805102,1,0
1778781465152,  2500.752,  2500.752, 0.166009, 0.014986,-1.039260, 0.001665, 0.000199,-0.010342, 1.479842, 0.056490,-0.386545,1,-0.004590,-0.002886, 0.000392,1,-0.148056,-0.090618, 9.805114,1,0
1778781465177,  2500.777,  2500.777, 0.185488, 0.024587,-1.004831, 0.001853, 0.000325,-0.010084, 1.667779, 0.149694,-0.048974,1, 0.004149, 0.018951, 0.001945,1,-0.151833,-0.091292, 9.805050,1,0
1778781465199,  2500.802,  2500.797, 0.149420, 0.004216,-0.993757, 0.001528, 0.000106,-0.009890, 1.315296, 0.224267, 0.250737,1,-0.010439, 0.006100, 0.002185,1,-0.153270,-0.093843, 9.805003,1,0
1778781465222,  2500.822,  2500.822, 0.148995, 0.031513,-1.035764, 0.001534, 0.000304,-0.010377, 1.310634, 0.209179,-0.352386,1,-0.012908,-0.002893, 0.006156,1,-0.150422,-0.100259, 9.804984,1,0
1778781465247,  2500.847,  2500.847, 0.150061, 0.005899,-0.996890, 0.001554, 0.000030,-0.010000, 1.319902,-0.042205, 0.028817,1,-0.003727,-0.003447, 0.003945,1,-0.151591,-0.100170, 9.804967,1,0
1778781465269,  2500.872,  2500.867, 0.140640, 0.038638,-1.004799, 0.001374, 0.000343,-0.010031, 1.081461, 0.080161, 0.010110,1, 0.001822,-0.012669, 0.005447,1,-0.148841,-0.099396, 9.805017,1,0
1778781465292,  2500.892,  2500.892, 0.133465, 0.031294,-0.991897, 0.001327, 0.000223,-0.009966, 1.159969, 0.208405, 0.077838,1, 0.003019, 0.016207, 0.007420,1,-0.149382,-0.098387, 9.805018,1,0
1778781465318,  2500.917,  2500.917, 0.134422, 0.043264,-0.972375, 0.001323, 0.000452,-0.009705, 1.167735, 0.328519, 0.269286,1, 0.018424,-0.002743, 0.009893,1,-0.150409,-0.095177, 9.805035,1,0
1778781465339,  2500.942,  2500.937, 0.145418, 0.044126,-0.975562, 0.001448, 0.000407,-0.009773, 1.132782, 0.262691, 0.146320,1, 0.027051,-0.003891, 0.011375,1,-0.148734,-0.090279, 9.805106,1,0
1778781465362,  2500.967,  2500.962, 0.146438, 0.040799,-0.976407, 0.001454, 0.000351,-0.009770, 1.288462, 0.318430, 0.229919,1, 0.031766,-0.000929, 0.010748,1,-0.147574,-0.080673, 9.805207,1,0
1778781465388,  2500.987,  2500.987, 0.134571, 0.017336,-0.975415, 0.001384, 0.000124,-0.009745, 1.172816, 0.093581, 0.239694,1, 0.022946,-0.010866, 0.010992,1,-0.146541,-0.075709, 9.805263,1,0
1778781465409,  2501.012,  2501.007, 0.121771, 0.011740,-0.991707, 0.001204, 0.000121,-0.009956, 1.241812,-0.130463,-0.104705,1,-0.008065,-0.003829, 0.014344,1,-0.145063,-0.076184, 9.805281,1,0
1778781465432,  2501.037,  2501.032, 0.147924, 0.030019,-0.993575, 0.001523, 0.000258,-0.009895, 1.301700, 0.219291, 0.061589,1,-0.017535,-0.002910, 0.016048,1,-0.148851,-0.075635, 9.805228,1,0
1778781465458,  2501.057,  2501.057, 0.151916, 0.028476,-0.989882, 0.001371, 0.000302,-0.009900, 1.337871, 0.201361, 0.097737,1, 0.004607, 0.035342, 0.013577,1,-0.153022,-0.077740, 9.805148,1,0
1778781465479,  2501.082,  2501.077, 0.134889, 0.023735,-1.026949, 0.001278, 0.000101,-0.010278, 1.164441,-0.102926,-0.230781,1,-0.018400,-0.003375, 0.018057,1,-0.153082,-0.079535, 9.805133,1,0
1778781465502,  2501.107,  2501.102, 0.141120, 0.006601,-1.016067, 0.001390, 0.000020,-0.010121, 1.227498,-0.015541,-0.159142,1, 0.007716, 0.005504, 0.011869,1,-0.156595,-0.080024, 9.805073,1,0
1778781465528,  2501.127,  2501.127, 0.135080,-0.039441,-0.995496, 0.001279,-0.000426,-0.009957, 1.165753,-0.466965, 0.042549,1,-0.003437, 0.019461, 0.006940,1,-0.159538,-0.080289, 9.805023,1,0
1778781465549,  2501.152,  2501.147, 0.125005,-0.006605,-0.983056, 0.001267,-0.000092,-0.009912, 1.058318,-0.212540,-0.094266,1,-0.020314, 0.016768, 0.012636,1,-0.161137,-0.082820, 9.804976,1,0
1778781465572,  2501.177,  2501.172, 0.122138,-0.012889,-0.957379, 0.001219,-0.000106,-0.009529, 1.028680,-0.216230, 0.416102,1,-0.030253, 0.012276, 0.011629,1,-0.169469,-0.090772, 9.804766,1,0
1778781465598,  2501.197,  2501.197, 0.091660, 0.006100,-1.002448, 0.000916, 0.000128,-0.010026, 0.729818,-0.037926,-0.025954,1,-0.043019, 0.003301, 0.014495,1,-0.169248,-0.098705, 9.804692,1,0
1778781465619,  2501.222,  2501.217, 0.084283, 0.017356,-1.004450, 0.000868, 0.000157,-0.010130, 0.790558, 0.364777,-0.214040,1,-0.009506,-0.018360, 0.016648,1,-0.167262,-0.101860, 9.804694,1,0
1778781465642,  2501.247,  2501.242, 0.095409, 0.032830,-0.993024, 0.001024, 0.000369,-0.009906, 0.770683, 0.223474, 0.066530,1, 0.005228,-0.030444, 0.012077,1,-0.164016,-0.098314, 9.804786,1,0
1778781465668,  2501.267,  2501.267, 0.083620, 0.054149,-0.964127, 0.000749, 0.000664,-0.009666, 0.655221, 0.435344, 0.349946,1, 0.034475, 0.028328, 0.011716,1,-0.165703,-0.094593, 9.804793,1,0
1778781465690,  2501.292,  2501.287, 0.095810, 0.043488,-1.021523, 0.000869, 0.000596,-0.010205, 0.551541, 0.392677, 0.053716,1,-0.011860,-0.010476, 0.011080,1,-0.165358,-0.094822, 9.804797,1,0
1778781465717,  2501.317,  2501.317, 0.083687, 0.047826,-0.965663, 0.000915, 0.000621,-0.009666, 0.649628, 0.375056, 0.334787,1, 0.021422, 0.007499, 0.013165,1,-0.171302,-0.093279, 9.804710,1,0
1778781465738,  2501.337,  2501.337, 0.088290,-0.013189,-0.984762, 0.001009,-0.000114,-0.009892, 0.694803,-0.222101, 0.147505,1,-0.014741,-0.012671, 0.010011,1,-0.170635,-0.093213, 9.804722,1,0
1778781465760,  2501.362,  2501.357, 0.102111, 0.007950,-0.973069, 0.001006, 0.000127,-0.009721, 0.609616, 0.111259, 0.217170,1, 0.020099, 0.008225, 0.013633,1,-0.171213,-0.090757, 9.804735,1,0
1778781465787,  2501.387,  2501.387, 0.078662, 0.027389,-0.978946, 0.000768, 0.000267,-0.009788, 0.599996, 0.175704, 0.204534,1,-0.003928, 0.003804, 0.011539,1,-0.171539,-0.093003, 9.804708,1,0
1778781465808,  2501.412,  2501.407, 0.091593, 0.018248,-0.986305, 0.000831, 0.000272,-0.009840, 0.444737, 0.166662, 0.114038,1,-0.017028, 0.005740, 0.016594,1,-0.172302,-0.095125, 9.804675,1,0
1778781465830,  2501.432,  2501.427, 0.087947, 0.004878,-1.017316, 0.000953, 0.000199,-0.010127, 0.527043, 0.322319, 0.250343,1, 0.021514, 0.008103, 0.011160,1,-0.175722,-0.092106, 9.804643,1,0
1778781465857,  2501.457,  2501.457, 0.064480, 0.002618,-1.016620, 0.000685, 0.000087,-0.010257, 0.458119,-0.064729,-0.164956,1, 0.021133, 0.011835, 0.012933,1,-0.174592,-0.089736, 9.804685,1,0
1778781465878,  2501.482,  2501.477, 0.078942,-0.027388,-0.993650, 0.000760,-0.000238,-0.009935, 0.475513,-0.035126, 0.127401,1, 0.006185,-0.010348, 0.009897,1,-0.174601,-0.086131, 9.804717,1,0
1778781465900,  2501.502,  2501.497, 0.067750,-0.015905,-0.969746, 0.000665,-0.000131,-0.009678, 0.486875,-0.098406, 0.257844,1,-0.009576, 0.010994, 0.012830,1,-0.175180,-0.087779, 9.804692,1,0
1778781465927,  2501.527,  2501.527, 0.066640, 0.012767,-1.001863, 0.000627, 0.000028,-0.009966, 0.474492, 0.030010,-0.020367,1,-0.043088, 0.007741, 0.019623,1,-0.179267,-0.096530, 9.804536,1,0
1778781465948,  2501.552,  2501.547, 0.083354, 0.050253,-1.017168, 0.000832, 0.000415,-0.010239, 0.442329, 0.018880,-0.532499,1,-0.038364, 0.015255, 0.022927,1,-0.180251,-0.104711, 9.804434,1,0
1778781465970,  2501.572,  2501.567, 0.054048, 0.020983,-0.996453, 0.000612, 0.000144,-0.009949, 0.539877, 0.365574, 0.196378,1, 0.010733,-0.018323, 0.020183,1,-0.181146,-0.104499, 9.804420,1,0
1778781465997,  2501.597,  2501.597, 0.067444, 0.024988,-0.970379, 0.000648, 0.000243,-0.009705, 0.485728, 0.142663, 0.288369,1, 0.021041,-0.007507, 0.008975,1,-0.175544,-0.101995, 9.804548,1,0
1778781466018,  2501.622,  2501.617, 0.076040, 0.012474,-0.995170, 0.000733, 0.000090,-0.009978, 0.155258, 0.021301,-0.061490,1, 0.002530, 0.015458, 0.012208,1,-0.174577,-0.098916, 9.804597,1,0
1778781466040,  2501.642,  2501.637, 0.058213, 0.009354,-1.019214, 0.000582, 0.000087,-0.010219, 0.445491, 0.224787,-0.034289,1, 0.026428,-0.010572, 0.007222,1,-0.176275,-0.095246, 9.804603,1,0
1778781466067,  2501.667,  2501.667, 0.076163,-0.009588,-0.979870, 0.000753, 0.000010,-0.009737, 0.570787,-0.190049, 0.195355,1, 0.000847,-0.023790, 0.013248,1,-0.175378,-0.095988, 9.804612,1,0
1778781466089,  2501.692,  2501.687, 0.061818, 0.016049,-1.018709, 0.000630, 0.000255,-0.010191, 0.178218,-0.108940,-0.184072,1,-0.013753,-0.017104, 0.012563,1,-0.169252,-0.099333, 9.804687,1,0
1778781466110,  2501.712,  2501.707, 0.041323, 0.001631,-1.051303, 0.000398,-0.000071,-0.010518, 0.208239,-0.158531,-0.336421,1, 0.008696,-0.034725, 0.011242,1,-0.164159,-0.097284, 9.804793,1,0
1778781466137,  2501.737,  2501.737, 0.053018,-0.018014,-1.035262, 0.000512,-0.000097,-0.010346, 0.401789, 0.234301,-0.480583,1,-0.003106,-0.010762, 0.016464,1,-0.160717,-0.098528, 9.804838,1,0
1778781466159,  2501.762,  2501.757, 0.018284,-0.000185,-1.028970, 0.000231,-0.000148,-0.010286, 0.454353,-0.079366,-0.157252,1,-0.017981,-0.009894, 0.018328,1,-0.160447,-0.100978, 9.804817,1,0
1778781466180,  2501.782,  2501.777, 0.048686, 0.007591,-1.038530, 0.000478,-0.000068,-0.010407, 0.163236, 0.116914,-0.398080,1,-0.028067,-0.001568, 0.019170,1,-0.158615,-0.108260, 9.804770,1,0
1778781466207,  2501.807,  2501.807, 0.052913, 0.018056,-0.996926, 0.000436, 0.000193,-0.009979, 0.358529, 0.062159, 0.028158,1,-0.014502, 0.017657, 0.016202,1,-0.160939,-0.115367, 9.804650,1,0
1778781466229,  2501.832,  2501.827, 0.051138, 0.015586,-0.978881, 0.000425, 0.000229,-0.009792, 0.200830, 0.172247, 0.198179,1,-0.018358,-0.000245, 0.016304,1,-0.161101,-0.118684, 9.804608,1,0
1778781466252,  2501.852,  2501.852, 0.027536, 0.039946,-0.996377, 0.000292, 0.000482,-0.009936, 0.107578, 0.268124, 0.033408,1,-0.034602,-0.003642, 0.015641,1,-0.162347,-0.124686, 9.804513,1,0
1778781466277,  2501.877,  2501.877, 0.042360, 0.042920,-1.010436, 0.000534, 0.000541,-0.010107, 0.253128, 0.292171,-0.104527,1,-0.019215,-0.015761, 0.014847,1,-0.161799,-0.129319, 9.804462,1,0
1778781466299,  2501.902,  2501.897, 0.053197, 0.020811,-0.985590, 0.000513, 0.000280,-0.009858, 0.247484, 0.261471, 0.024568,1, 0.003683,-0.001741, 0.009167,1,-0.161221,-0.130215, 9.804460,1,0
1778781466322,  2501.922,  2501.922, 0.020389, 0.007991,-0.946928, 0.000254, 0.000197,-0.009517, 0.038005,-0.047601, 0.518312,1, 0.016755, 0.010922, 0.011810,1,-0.162292,-0.125437, 9.804504,1,0
1778781466347,  2501.947,  2501.947, 0.031456, 0.026492,-0.968938, 0.000437, 0.000312,-0.009688, 0.614396, 0.078802, 0.405074,1, 0.008685, 0.006773, 0.005493,1,-0.163593,-0.124195, 9.804499,1,0
1778781466369,  2501.972,  2501.967, 0.053111, 0.043591,-0.942729, 0.000584, 0.000393,-0.009395, 0.415706, 0.027553, 0.561629,1, 0.016793, 0.025364, 0.011928,1,-0.166232,-0.122877, 9.804471,1,0
1778781466392,  2501.992,  2501.992, 0.073021, 0.049820,-0.956525, 0.000567, 0.000451,-0.009543, 0.549698, 0.366221, 0.424166,1, 0.004997, 0.013747, 0.011682,1,-0.167034,-0.122564, 9.804461,1,0
1778781466417,  2502.017,  2502.017, 0.030197, 0.000731,-0.968548, 0.000307, 0.000067,-0.009696, 0.130632,-0.113540, 0.306300,1, 0.012254, 0.004258, 0.015113,1,-0.165643,-0.120322, 9.804513,1,0
1778781466439,  2502.042,  2502.037, 0.025908, 0.022426,-1.035293, 0.000338, 0.000107,-0.010363, 0.535092,-0.116116, 0.082015,1, 0.005457,-0.042094, 0.014849,1,-0.163576,-0.117863, 9.804577,1,0
1778781466462,  2502.062,  2502.062, 0.095061, 0.011451,-0.985376, 0.000939, 0.000131,-0.009808, 0.768788,-0.006355, 0.141336,1, 0.008257,-0.008993, 0.015252,1,-0.163167,-0.118382, 9.804578,1,0
1778781466487,  2502.087,  2502.087, 0.060612, 0.019445,-1.036117, 0.000484, 0.000224,-0.010363, 0.435311, 0.068663,-0.356240,1,-0.030677, 0.006493, 0.016667,1,-0.159297,-0.122971, 9.804585,1,0
1778781466509,  2502.112,  2502.107, 0.030361, 0.015527,-0.969298, 0.000278, 0.000167,-0.009734, 0.193583,-0.024165, 0.084793,1,-0.001023,-0.000650, 0.020149,1,-0.159425,-0.124122, 9.804568,1,0
1778781466532,  2502.132,  2502.132, 0.045782, 0.047570,-0.972092, 0.000501, 0.000365,-0.009650, 0.286293, 0.337180, 0.271483,1,-0.026049,-0.013207, 0.020313,1,-0.162274,-0.130122, 9.804444,1,0
1778781466558,  2502.157,  2502.157, 0.049819, 0.050082,-1.001052, 0.000499, 0.000396,-0.010086, 0.325143, 0.358578,-0.012571,1,-0.005201, 0.025998, 0.017626,1,-0.164234,-0.132710, 9.804377,1,0
1778781466579,  2502.177,  2502.177, 0.036468, 0.029679,-0.979628, 0.000334, 0.000191,-0.009763, 0.192290, 0.162244, 0.197544,1, 0.026390,-0.010310, 0.011718,1,-0.165021,-0.127980, 9.804426,1,0
1778781466602,  2502.207,  2502.202, 0.024705, 0.038612,-1.012073, 0.000231, 0.000334,-0.010153, 0.081698, 0.256197,-0.120477,1, 0.047287,-0.000834, 0.009230,1,-0.160566,-0.120999, 9.804589,1,0
1778781466628,  2502.227,  2502.227, 0.031505,-0.002364,-1.020935, 0.000398,-0.000046,-0.010188, 0.150532,-0.136631,-0.207236,1, 0.024350,-0.031372, 0.002926,1,-0.157445,-0.112683, 9.804739,1,0
1778781466649,  2502.252,  2502.247, 0.024999, 0.015958,-0.997846, 0.000192, 0.000029,-0.009951, 0.348520,-0.265072,-0.171359,1, 0.008915,-0.006360, 0.008848,1,-0.155991,-0.108427, 9.804810,1,0
