Time,GPS_ts,fGPS_ts,scaledAccelX,scaledAccelY,scaledAccelZ,deltaVelX,deltaVelY,deltaVelZ,estLinearAccelX,estLinearAccelY,estLinearAccelZ,estLinearAccel:valid,estAngularRateX,estAngularRateY,estAngularRateZ,estAngularRate:valid,estGravityX,estGravityY,estGravityZ,estGravity:valid,flag
1778780935481,  1957.061,  1957.061, 0.041192,-0.007938,-0.988338, 0.000414,-0.000087,-0.009924, 0.020293, 0.011157, 0.106455,1, 0.000535, 0.013303, 0.000220,1,-0.384075, 0.089014, 9.798721,1,0
1778780935481,  1957.086,  1957.081, 0.034399,-0.007758,-1.022360, 0.000332,-0.000066,-0.010183,-0.047267, 0.036901, 0.043768,1,-0.012150,-0.014019, 0.000046,1,-0.383280, 0.087486, 9.798766,1,0
1778780935481,  1957.106,  1957.106, 0.051827,-0.007099,-0.981753, 0.000515,-0.000072,-0.009857, 0.123907, 0.018828, 0.171009,1, 0.009693, 0.017618,-0.000308,1,-0.384888, 0.088743, 9.798693,1,0
1778780935481,  1957.131,  1957.131, 0.033028,-0.007107,-0.986476, 0.000331,-0.000076,-0.009815,-0.060376, 0.018943, 0.124694,1,-0.006716,-0.013953,-0.000160,1,-0.383837, 0.088428, 9.798737,1,0
1778780935481,  1957.156,  1957.151, 0.044298,-0.007618,-0.985348, 0.000444,-0.000076,-0.009896, 0.017716,-0.034514,-0.118171,1, 0.000416, 0.008909,-0.000647,1,-0.383289, 0.088302, 9.798759,1,0
1778780935481,  1957.181,  1957.181, 0.032371,-0.005850,-0.998533, 0.000330,-0.000063,-0.009964,-0.066296, 0.030118, 0.006480,1,-0.005460,-0.011503, 0.001158,1,-0.383384, 0.087322, 9.798764,1,0
1778780935481,  1957.206,  1957.201, 0.047271,-0.007568,-0.973075, 0.000483,-0.000078,-0.009770, 0.075451,-0.021412,-0.051714,1, 0.007880, 0.015674,-0.000671,1,-0.384253, 0.088222, 9.798722,1,0
1778780935481,  1957.231,  1957.226, 0.027959,-0.009914,-0.993455, 0.000317,-0.000102,-0.009887,-0.110873,-0.008801, 0.056218,1,-0.009152,-0.018724, 0.000421,1,-0.384500, 0.088133, 9.798713,1,0
1778780935481,  1957.256,  1957.251, 0.051802,-0.008070,-0.986408, 0.000509,-0.000096,-0.009885, 0.012669,-0.048758,-0.165078,1,-0.000560, 0.013820,-0.000703,1,-0.384271, 0.087642, 9.798726,1,0
1778780935481,  1957.276,  1957.271, 0.040096,-0.005705,-0.990122, 0.000398,-0.000075,-0.009869, 0.013326, 0.022876, 0.211390,1, 0.000633,-0.002444, 0.000664,1,-0.385608, 0.088245, 9.798669,1,0
1778780935481,  1957.296,  1957.291, 0.041741,-0.010524,-0.996329, 0.000394,-0.000096,-0.009989, 0.017103, 0.009807,-0.066928,1, 0.006114,-0.005124,-0.000043,1,-0.384009, 0.088384, 9.798730,1,0
1778780935495,  1971.101,  1971.101, 0.039050,-0.011938,-1.019851, 0.000364,-0.000121,-0.010227, 0.001614,-0.030874,-0.202466,1, 0.000082, 0.009138,-0.000202,1,-0.381617, 0.086197, 9.798843,1,0
1778780935516,  1971.126,  1971.121, 0.039018,-0.007347,-0.982099, 0.000404,-0.000072,-0.009786, 0.074547, 0.015902, 0.270001,1, 0.003728, 0.004430, 0.000706,1,-0.383926, 0.087056, 9.798745,1,0
1778780935538,  1971.146,  1971.141, 0.035217,-0.011701,-1.012839, 0.000351,-0.000125,-0.010164,-0.060996,-0.033100,-0.095166,1,-0.002160,-0.011974, 0.000167,1,-0.381509, 0.086825, 9.798841,1,0
1778780935565,  1971.171,  1971.171, 0.038137,-0.007116,-0.972622, 0.000390,-0.000069,-0.009729,-0.009628, 0.017327, 0.260590,1,-0.002301, 0.002432, 0.000474,1,-0.383699, 0.087045, 9.798754,1,0
1778780935586,  1971.196,  1971.191, 0.041366,-0.011517,-1.020881, 0.000404,-0.000116,-0.010243,-0.058552,-0.016728,-0.205961,1,-0.003662,-0.012350, 0.000563,1,-0.380897, 0.085689, 9.798876,1,0
1778780935609,  1971.216,  1971.216, 0.045405,-0.009119,-0.964574, 0.000458,-0.000091,-0.009639, 0.061157,-0.001505, 0.339488,1, 0.003363, 0.004958,-0.000285,1,-0.384272, 0.088025, 9.798723,1,0
1778780935635,  1971.241,  1971.241, 0.030927,-0.009989,-1.011735, 0.000306,-0.000097,-0.010068,-0.078555,-0.011101,-0.122901,1,-0.007013,-0.014529, 0.000088,1,-0.381387, 0.086643, 9.798848,1,0
1778780935656,  1971.266,  1971.261, 0.042801,-0.007851,-0.978188, 0.000431,-0.000080,-0.009776, 0.022250, 0.005634, 0.055527,1, 0.004770, 0.014008,-0.000076,1,-0.383032, 0.086869, 9.798781,1,0
1778780935679,  1971.286,  1971.286, 0.036991,-0.009257,-1.014184, 0.000360,-0.000083,-0.010119,-0.018756,-0.004625,-0.146902,1,-0.001473,-0.007995,-0.000234,1,-0.381266, 0.086112, 9.798858,1,0
1778780935705,  1971.311,  1971.311, 0.043733,-0.007453,-0.983398, 0.000450,-0.000072,-0.009885, 0.045795, 0.014305, 0.154934,1, 0.010493, 0.015340,-0.000248,1,-0.383558, 0.087718, 9.798754,1,0
1778780935726,  1971.336,  1971.331, 0.026060,-0.012262,-1.019309, 0.000265,-0.000113,-0.010159,-0.074614,-0.007247, 0.140428,1,-0.010504,-0.017527, 0.000517,1,-0.382548, 0.087098, 9.798799,1,0
1778780935749,  1971.356,  1971.356, 0.046169,-0.005811,-0.995333, 0.000464,-0.000066,-0.010017, 0.070460, 0.029573, 0.037930,1, 0.006747, 0.017080,-0.000246,1,-0.382833, 0.086774, 9.798790,1,0
1778780935775,  1971.381,  1971.381, 0.040945,-0.006711,-0.976492, 0.000424,-0.000066,-0.009724, 0.018100, 0.021417, 0.222645,1,-0.001553,-0.011274,-0.000372,1,-0.383080, 0.087181, 9.798778,1,0
1778780935796,  1971.406,  1971.401, 0.039227,-0.009313,-0.990699, 0.000394,-0.000098,-0.009942,-0.024801,-0.045861,-0.153127,1, 0.001179, 0.004612,-0.000125,1,-0.381777, 0.087077, 9.798829,1,0
1778780935819,  1971.426,  1971.426, 0.035345,-0.005538,-0.990417, 0.000347,-0.000062,-0.009843,-0.036172, 0.032135, 0.086122,1,-0.011173,-0.015638, 0.000013,1,-0.382281, 0.086117, 9.798818,1,0
1778780935845,  1971.451,  1971.451, 0.043913,-0.009294,-1.021255, 0.000417,-0.000092,-0.010244, 0.049490,-0.005543,-0.216230,1, 0.006185, 0.010088,-0.000001,1,-0.381464, 0.085789, 9.798853,1,0
1778780935867,  1971.476,  1971.471, 0.033541,-0.008773,-0.977995, 0.000351,-0.000086,-0.009735, 0.056685,-0.006707, 0.333489,1, 0.005896, 0.005360, 0.000761,1,-0.384252, 0.087779, 9.798726,1,0
1778780935889,  1971.496,  1971.496, 0.033145,-0.013390,-1.020963, 0.000325,-0.000135,-0.010240,-0.056203,-0.044764,-0.213375,1,-0.001749, 0.004463, 0.000137,1,-0.381387, 0.086494, 9.798849,1,0
1778780935915,  1971.521,  1971.521, 0.042087,-0.007129,-0.976319, 0.000433,-0.000066,-0.009774, 0.029305, 0.016895, 0.224350,1,-0.000299, 0.003804, 0.000793,1,-0.383546, 0.086795, 9.798762,1,0
1778780935937,  1971.546,  1971.541, 0.041283,-0.011421,-1.014571, 0.000410,-0.000119,-0.010177,-0.033920,-0.010552,-0.139977,1, 0.000472,-0.011375, 0.000414,1,-0.381224, 0.086273, 9.798858,1,0
1778780935959,  1971.571,  1971.566, 0.041971,-0.009153,-0.965523, 0.000430,-0.000092,-0.009644, 0.027539,-0.001611, 0.330181,1,-0.000206, 0.001185, 0.000256,1,-0.384096, 0.088138, 9.798729,1,0
1778780935985,  1971.591,  1971.591, 0.030054,-0.010676,-1.019182, 0.000296,-0.000101,-0.010148,-0.086683,-0.018414,-0.195913,1,-0.009635,-0.014550, 0.000595,1,-0.380958, 0.085982, 9.798870,1,0
1778780936007,  1971.616,  1971.611, 0.046250,-0.007062,-0.971448, 0.000462,-0.000072,-0.009710, 0.055761, 0.024438, 0.042788,1, 0.010400, 0.018233,-0.000380,1,-0.383165, 0.086915, 9.798777,1,0
1778780936030,  1971.641,  1971.636, 0.035406,-0.010800,-1.007138, 0.000351,-0.000096,-0.010040,-0.034817,-0.019022,-0.077827,1,-0.001675,-0.010514, 0.000010,1,-0.381701, 0.086842, 9.798834,1,0
1778780936055,  1971.661,  1971.661, 0.041258,-0.009111,-0.988802, 0.000423,-0.000095,-0.009936, 0.021629,-0.001976, 0.101946,1, 0.005224, 0.013502, 0.000638,1,-0.383391, 0.087537, 9.798761,1,0
1778780936077,  1971.686,  1971.681, 0.029381,-0.009857,-1.016160, 0.000295,-0.000086,-0.010139,-0.067576, 0.030000, 0.101962,1,-0.009631,-0.014193, 0.000105,1,-0.382557, 0.086589, 9.798802,1,0
1778780936100,  1971.711,  1971.706, 0.044717,-0.008452,-0.990277, 0.000460,-0.000084,-0.009962, 0.055843, 0.004173, 0.087498,1, 0.010205, 0.016691, 0.000195,1,-0.383202, 0.087375, 9.798771,1,0
1778780936125,  1971.731,  1971.731, 0.037860,-0.008130,-0.980421, 0.000391,-0.000083,-0.009751,-0.012239, 0.007627, 0.184115,1,-0.007534,-0.012837, 0.000337,1,-0.383114, 0.087116, 9.798777,1,0
1778780936147,  1971.756,  1971.751, 0.043079,-0.006778,-0.992620, 0.000427,-0.000076,-0.009975,-0.027808,-0.017478,-0.211090,1, 0.001720, 0.005078,-0.000661,1,-0.381792, 0.086458, 9.798834,1,0
1778780936170,  1971.781,  1971.776, 0.036168,-0.005922,-0.985004, 0.000360,-0.000063,-0.009795,-0.028720, 0.028688, 0.139175,1,-0.006781,-0.014061,-0.000163,1,-0.382967, 0.086550, 9.798787,1,0
1778780936195,  1971.801,  1971.801, 0.040655,-0.012056,-1.020331, 0.000382,-0.000130,-0.010225, 0.017027,-0.031757,-0.207193,1, 0.005345, 0.007364,-0.000148,1,-0.381888, 0.086637, 9.798828,1,0
1778780936217,  1971.826,  1971.821, 0.036449,-0.005232,-0.978397, 0.000374,-0.000056,-0.009735, 0.062571, 0.001982, 0.317040,1, 0.001762, 0.005857,-0.000193,1,-0.384626, 0.087990, 9.798709,1,0
1778780936240,  1971.851,  1971.846, 0.035800,-0.013000,-1.021013, 0.000343,-0.000125,-0.010237,-0.030436,-0.040786,-0.213879,1, 0.001443, 0.005523,-0.000060,1,-0.381686, 0.086749, 9.798836,1,0
1778780936266,  1971.871,  1971.871, 0.043823,-0.008388,-0.974217, 0.000448,-0.000082,-0.009753, 0.045877, 0.005359, 0.244939,1, 0.000898, 0.005742, 0.000343,1,-0.384062, 0.087647, 9.798735,1,0
1778780936287,  1971.896,  1971.891, 0.036671,-0.011637,-1.015322, 0.000363,-0.000114,-0.010174,-0.059573,-0.003003,-0.096048,1,-0.004526,-0.012316,-0.000064,1,-0.381781, 0.086546, 9.798834,1,0
1778780936314,  1971.921,  1971.921, 0.039894,-0.008145,-0.972791, 0.000402,-0.000083,-0.009728, 0.007136, 0.008084, 0.258906,1, 0.001988, 0.004033, 0.000868,1,-0.384220, 0.088021, 9.798725,1,0
1778780936336,  1971.941,  1971.941, 0.039894,-0.008145,-0.972791, 0.000402,-0.000083,-0.009728,-0.084530,-0.019676,-0.150495,1,-0.007070,-0.014681, 0.000337,1,-0.381410, 0.086522, 9.798848,1,0
1778780936357,  1971.966,  1971.961, 0.048221,-0.006859,-0.967855, 0.000477,-0.000064,-0.009695, 0.085823, 0.033288, 0.020081,1, 0.012571, 0.017008,-0.000887,1,-0.383190, 0.087874, 9.798767,1,0
1778780936384,  1971.991,  1971.991, 0.030351,-0.013296,-1.005967, 0.000309,-0.000120,-0.010009,-0.084523,-0.042487,-0.066365,1,-0.006369,-0.017099,-0.000292,1,-0.381631, 0.087699, 9.798829,1,0
1778780936406,  1972.016,  1972.011, 0.042523,-0.007571,-0.973135, 0.000422,-0.000068,-0.009756, 0.017404, 0.003852,-0.000038,1, 0.005050, 0.015013,-0.000574,1,-0.382775, 0.087820, 9.798783,1,0
1778780936427,  1972.036,  1972.031, 0.036913,-0.007669,-1.010033, 0.000379,-0.000061,-0.010066, 0.006283, 0.039690, 0.194957,1,-0.007770,-0.011326,-0.000640,1,-0.382638, 0.087383, 9.798793,1,0
1778780936454,  1972.061,  1972.061, 0.045586,-0.007745,-0.989512, 0.000466,-0.000088,-0.009965, 0.064462, 0.012312, 0.094987,1, 0.012145, 0.017643, 0.000050,1,-0.383134, 0.088643, 9.798762,1,0
1778780936476,  1972.086,  1972.081, 0.025650,-0.010968,-1.016024, 0.000264,-0.000102,-0.010111,-0.081174,-0.001911, 0.206497,1,-0.011107,-0.016880,-0.000200,1,-0.382664, 0.088258, 9.798783,1,0
1778780936497,  1972.101,  1972.101, 0.035313,-0.012049,-1.030879, 0.000333,-0.000125,-0.010317,-0.034254,-0.031362,-0.310593,1, 0.000045, 0.002873,-0.000271,1,-0.380650, 0.086804, 9.798875,1,0
1778780936524,  1972.131,  1972.131, 0.043193,-0.005110,-0.972261, 0.000441,-0.000058,-0.009686, 0.040027, 0.038107, 0.264127,1,-0.000924,-0.009879,-0.000420,1,-0.383243, 0.088186, 9.798761,1,0
1778780936546,  1972.156,  1972.151, 0.038960,-0.009771,-0.995350, 0.000387,-0.000111,-0.010004,-0.020462,-0.056240,-0.175058,1, 0.002808, 0.002103,-0.000458,1,-0.381405, 0.088269, 9.798833,1,0
1778780936567,  1972.176,  1972.171, 0.034002,-0.006207,-0.985261, 0.000345,-0.000067,-0.009812,-0.006384,-0.001791, 0.251244,1,-0.004121, 0.006136, 0.000653,1,-0.383702, 0.088385, 9.798742,1,0
1778780936594,  1972.201,  1972.201, 0.041993,-0.010471,-1.025270, 0.000404,-0.000106,-0.010286, 0.030939,-0.016228,-0.255592,1, 0.006233, 0.006838,-0.000780,1,-0.381082, 0.086650, 9.798860,1,0
1778780936616,  1972.226,  1972.221, 0.036280,-0.008721,-0.968045, 0.000386,-0.000092,-0.009641, 0.045659, 0.009626, 0.398422,1, 0.009019, 0.009841, 0.000771,1,-0.384414, 0.089278, 9.798706,1,0
1778780936638,  1972.246,  1972.241, 0.034447,-0.013877,-1.024844, 0.000332,-0.000142,-0.010259,-0.099199,-0.035045,-0.071480,1,-0.008963,-0.018965, 0.000125,1,-0.381445, 0.087964, 9.798834,1,0
1778780936664,  1972.271,  1972.271, 0.042321,-0.005231,-0.977152, 0.000432,-0.000051,-0.009787, 0.031529, 0.036292, 0.216167,1, 0.000884, 0.007395,-0.000249,1,-0.383732, 0.087614, 9.798748,1,0
1778780936686,  1972.296,  1972.291, 0.042012,-0.013361,-1.016257, 0.000409,-0.000138,-0.010178,-0.009134, 0.002035,-0.101265,1, 0.000533,-0.012931,-0.000425,1,-0.381444, 0.087451, 9.798839,1,0
1778780936708,  1972.316,  1972.311, 0.039699,-0.008095,-0.965450, 0.000402,-0.000077,-0.009652, 0.037755,-0.000735, 0.098832,1, 0.008313, 0.017148,-0.000186,1,-0.383306, 0.088719, 9.798755,1,0
1778780936735,  1972.341,  1972.341, 0.030251,-0.009466,-1.018745, 0.000297,-0.000090,-0.010138,-0.084595,-0.005812,-0.191627,1,-0.011446,-0.017398, 0.000623,1,-0.380715, 0.086658, 9.798874,1,0
1778780936756,  1972.366,  1972.361, 0.045222,-0.005350,-0.968490, 0.000463,-0.000049,-0.009709, 0.062736, 0.017823, 0.012434,1, 0.010817, 0.018884,-0.000226,1,-0.382676, 0.087696, 9.798788,1,0
1778780936778,  1972.386,  1972.381, 0.034785,-0.012069,-1.004405, 0.000360,-0.000111,-0.010011, 0.008360, 0.019864, 0.243374,1,-0.003857,-0.010670, 0.000413,1,-0.382889, 0.088230, 9.798776,1,0
1778780936805,  1972.411,  1972.411, 0.037792,-0.010417,-0.993126, 0.000386,-0.000107,-0.009984,-0.011622,-0.013741, 0.059556,1, 0.005975, 0.014008,-0.000861,1,-0.382669, 0.088598, 9.798780,1,0
1778780936826,  1972.436,  1972.431, 0.036369,-0.008564,-1.016292, 0.000366,-0.000077,-0.010135,-0.030690, 0.033136, 0.108423,1,-0.010185,-0.013308,-0.000249,1,-0.382078, 0.087736, 9.798811,1,0
1778780936849,  1972.456,  1972.456, 0.047443,-0.007526,-0.986467, 0.000473,-0.000077,-0.009912, 0.082682, 0.014328, 0.124851,1, 0.012999, 0.016195,-0.000472,1,-0.383081, 0.088538, 9.798765,1,0
1778780936875,  1972.481,  1972.481, 0.032298,-0.009068,-0.981792, 0.000328,-0.000093,-0.009759,-0.066131,-0.000047, 0.170677,1,-0.006288,-0.016311,-0.001252,1,-0.382362, 0.088681, 9.798792,1,0
1778780936896,  1972.506,  1972.501, 0.045227,-0.004464,-0.996159, 0.000439,-0.000059,-0.010008,-0.011533,-0.032827,-0.233052,1,-0.003563, 0.005823,-0.000441,1,-0.380929, 0.087340, 9.798860,1,0
1778780936919,  1972.526,  1972.526, 0.037037,-0.005993,-0.981666, 0.000375,-0.000057,-0.009773,-0.019495, 0.029037, 0.171935,1,-0.001402,-0.012757,-0.000115,1,-0.382302, 0.087769, 9.798802,1,0
1778780936945,  1972.551,  1972.551, 0.038295,-0.014639,-1.017970, 0.000370,-0.000154,-0.010213,-0.005260,-0.055296,-0.184017,1, 0.005840, 0.006616,-0.000310,1,-0.381010, 0.088446, 9.798846,1,0
1778780936966,  1972.576,  1972.571, 0.036895,-0.007316,-0.979941, 0.000382,-0.000069,-0.009751, 0.031707, 0.022196, 0.337533,1,-0.002305, 0.005263, 0.000515,1,-0.383779, 0.089111, 9.798733,1,0
1778780936989,  1972.596,  1972.596, 0.036682,-0.011786,-1.024000, 0.000362,-0.000118,-0.010274,-0.020869,-0.028021,-0.243143,1, 0.006415, 0.005941, 0.000449,1,-0.380785, 0.087756, 9.798862,1,0
1778780937015,  1972.621,  1972.621, 0.041127,-0.008447,-0.967006, 0.000423,-0.000081,-0.009682, 0.019966, 0.006531, 0.315659,1, 0.002778, 0.005123, 0.000528,1,-0.383516, 0.089453, 9.798739,1,0
1778780937037,  1972.646,  1972.641, 0.040688,-0.011371,-1.021049, 0.000394,-0.000120,-0.010229,-0.037441,-0.013465,-0.138877,1,-0.007560,-0.014721,-0.000486,1,-0.380797, 0.087913, 9.798860,1,0
1778780937059,  1972.666,  1972.666, 0.041397,-0.005175,-0.971738, 0.000421,-0.000054,-0.009714, 0.022611, 0.037743, 0.269262,1, 0.002640, 0.003888, 0.000446,1,-0.383480, 0.088573, 9.798749,1,0
1778780937085,  1972.691,  1972.691, 0.030717,-0.011007,-1.015054, 0.000303,-0.000105,-0.010107,-0.079881,-0.019975,-0.155433,1,-0.002162,-0.014193,-0.000210,1,-0.380671, 0.087897, 9.798864,1,0
1778780937107,  1972.716,  1972.711, 0.044494,-0.005691,-0.970233, 0.000448,-0.000056,-0.009718,-0.004663,-0.043174,-0.219442,1, 0.002734, 0.005643,-0.000122,1,-0.380903, 0.088099, 9.798854,1,0
1778780937129,  1972.736,  1972.736, 0.033991,-0.010962,-1.008984, 0.000343,-0.000098,-0.010055,-0.048014,-0.019447,-0.095914,1,-0.003978,-0.014658, 0.000156,1,-0.380891, 0.087926, 9.798856,1,0
1778780937155,  1972.761,  1972.761, 0.040927,-0.008145,-0.990849, 0.000414,-0.000081,-0.009976, 0.019201, 0.008832, 0.081886,1, 0.007976, 0.017864,-0.000291,1,-0.382710, 0.088959, 9.798776,1,0
1778780937177,  1972.786,  1972.781, 0.030764,-0.010844,-1.016201, 0.000320,-0.000098,-0.010122,-0.048667, 0.014925, 0.177172,1,-0.010821,-0.016371,-0.000110,1,-0.382187, 0.088291, 9.798802,1,0
1778780937199,  1972.811,  1972.806, 0.045882,-0.007170,-0.993364, 0.000454,-0.000082,-0.009994, 0.068109, 0.018091, 0.057237,1, 0.009970, 0.019286,-0.000617,1,-0.382442, 0.088713, 9.798788,1,0
1778780937225,  1972.831,  1972.831, 0.039178,-0.006266,-0.975164, 0.000396,-0.000069,-0.009695, 0.001194, 0.027529, 0.235672,1,-0.005719,-0.012289,-0.000584,1,-0.382631, 0.088799, 9.798780,1,0
1778780937247,  1972.856,  1972.851, 0.040896,-0.008645,-0.994651, 0.000398,-0.000094,-0.009992,-0.012873,-0.034827,-0.212600,1, 0.000087, 0.003905,-0.000125,1,-0.381076, 0.088256, 9.798845,1,0
1778780937270,  1972.881,  1972.876, 0.036002,-0.006898,-0.987267, 0.000358,-0.000071,-0.009820,-0.029415, 0.020690, 0.117003,1,-0.009367,-0.014993,-0.000124,1,-0.382005, 0.088046, 9.798811,1,0
1778780937295,  1972.901,  1972.901, 0.043606,-0.012141,-1.020200, 0.000418,-0.000121,-0.010240, 0.046824,-0.031305,-0.205884,1, 0.005344, 0.009786, 0.000197,1,-0.381110, 0.087920, 9.798847,1,0
1778780937317,  1972.926,  1972.921, 0.034758,-0.008047,-0.978600, 0.000364,-0.000078,-0.009737, 0.039202, 0.009559, 0.355076,1, 0.002856, 0.004642, 0.000148,1,-0.383879, 0.089450, 9.798725,1,0
1778780937340,  1972.951,  1972.946, 0.032938,-0.012756,-1.023438, 0.000317,-0.000130,-0.010259,-0.057725,-0.037122,-0.237635,1, 0.000970, 0.004569,-0.000276,1,-0.380883, 0.088000, 9.798856,1,0
1778780937365,  1972.971,  1972.971, 0.043269,-0.005142,-0.973134, 0.000437,-0.000049,-0.009746, 0.041157, 0.038118, 0.255579,1, 0.000704, 0.005763, 0.000551,1,-0.383352, 0.088563, 9.798754,1,0
1778780937387,  1972.996,  1972.991, 0.042080,-0.011417,-1.013725, 0.000414,-0.000120,-0.010156, 0.009909,-0.007520,-0.100774,1,-0.001110,-0.010687, 0.000044,1,-0.381256, 0.087990, 9.798841,1,0
1778780937410,  1973.021,  1973.016, 0.037649,-0.008979,-0.968152, 0.000379,-0.000093,-0.009673,-0.014521, 0.001522, 0.304400,1,-0.001338, 0.002258, 0.000367,1,-0.383798, 0.089534, 9.798728,1,0
1778780937435,  1973.041,  1973.041, 0.029339,-0.009375,-1.022403, 0.000285,-0.000092,-0.010179,-0.093469,-0.004161,-0.227501,1,-0.007712,-0.014504,-0.000069,1,-0.380737, 0.087537, 9.798865,1,0
1778780937457,  1973.066,  1973.061, 0.048988,-0.007635,-0.968843, 0.000490,-0.000068,-0.009702, 0.097183, 0.025888, 0.038043,1, 0.009792, 0.018764,-0.001001,1,-0.383002, 0.088577, 9.798768,1,0
1778780937480,  1973.091,  1973.086, 0.032578,-0.012810,-1.003205, 0.000338,-0.000114,-0.010002,-0.062586,-0.036594,-0.039280,1,-0.001779,-0.012418, 0.000049,1,-0.381675, 0.088978, 9.798816,1,0
1778780937506,  1973.111,  1973.111, 0.037395,-0.009554,-0.991844, 0.000383,-0.000099,-0.009967,-0.015995,-0.004592, 0.072111,1, 0.001758, 0.012637, 0.000229,1,-0.383113, 0.089160, 9.798759,1,0
1778780937527,  1973.136,  1973.131, 0.033470,-0.009172,-1.019367, 0.000341,-0.000080,-0.010167,-0.048485, 0.024356, 0.087314,1,-0.010949,-0.015045, 0.000654,1,-0.382365, 0.087715, 9.798800,1,0
1778780937554,  1973.161,  1973.161, 0.050276,-0.006825,-0.985491, 0.000508,-0.000080,-0.009919, 0.110106, 0.022259, 0.134397,1, 0.015482, 0.019149,-0.000197,1,-0.383531, 0.089670, 9.798737,1,0
1778780937576,  1973.181,  1973.181, 0.035560,-0.008856,-0.974328, 0.000374,-0.000092,-0.009689,-0.035065, 0.003119, 0.243825,1,-0.007783,-0.015239,-0.000191,1,-0.383311, 0.089720, 9.798745,1,0
1778780937597,  1973.206,  1973.201, 0.038485,-0.008642,-1.003317, 0.000372,-0.000104,-0.010070,-0.064645,-0.047565,-0.241504,1,-0.003852, 0.000459, 0.000914,1,-0.381262, 0.088187, 9.798839,1,0
1778780937624,  1973.231,  1973.231, 0.040048,-0.003605,-0.987160, 0.000395,-0.000041,-0.009833, 0.010052, 0.052773, 0.118051,1,-0.006354,-0.008575,-0.000585,1,-0.382362, 0.087953, 9.798799,1,0
1778780937646,  1973.256,  1973.251, 0.046528,-0.010017,-0.983980, 0.000476,-0.000101,-0.009889, 0.056256,-0.034564,-0.112196,1, 0.007767, 0.008108, 0.000104,1,-0.381827, 0.088557, 9.798814,1,0
1778780937667,  1973.276,  1973.271, 0.027862,-0.008485,-0.982595, 0.000291,-0.000084,-0.009777, 0.015576,-0.014837, 0.315981,1, 0.000173, 0.002774, 0.000094,1,-0.384018, 0.089890, 9.798716,1,0
1778780937694,  1973.301,  1973.301, 0.032652,-0.010817,-1.030309, 0.000312,-0.000110,-0.010329,-0.060395,-0.018889,-0.305007,1,-0.000525, 0.004304,-0.000275,1,-0.380732, 0.087175, 9.798869,1,0
1778780937716,  1973.326,  1973.321, 0.044054,-0.005380,-0.972240, 0.000454,-0.000057,-0.009691, 0.110557, 0.034806, 0.268972,1, 0.007149, 0.010246, 0.000778,1,-0.383907, 0.088612, 9.798732,1,0
1778780937737,  1973.346,  1973.341, 0.034786,-0.013472,-1.013511, 0.000334,-0.000138,-0.010135,-0.045825,-0.011626,-0.000629,1, 0.001433,-0.014436, 0.000647,1,-0.381821, 0.088818, 9.798812,1,0
1778780937764,  1973.371,  1973.371, 0.040196,-0.007353,-0.976453, 0.000397,-0.000081,-0.009762, 0.010589, 0.017129, 0.223002,1,-0.005774, 0.004665, 0.000565,1,-0.383747, 0.089060, 9.798734,1,0
1778780937786,  1973.396,  1973.391, 0.041097,-0.010377,-1.025994, 0.000390,-0.000104,-0.010275,-0.034019, 0.025259,-0.171744,1,-0.009011,-0.014655,-0.000180,1,-0.381099, 0.086761, 9.798858,1,0
1778780937807,  1973.416,  1973.411, 0.047725,-0.009583,-0.963541, 0.000485,-0.000085,-0.009652, 0.088875, 0.012018, 0.029270,1, 0.016797, 0.019872,-0.000676,1,-0.383069, 0.088912, 9.798762,1,0
1778780937834,  1973.441,  1973.441, 0.027201,-0.011938,-1.002504, 0.000280,-0.000103,-0.009978,-0.115500,-0.028197,-0.032410,1,-0.008859,-0.018685, 0.000280,1,-0.381668, 0.088598, 9.798820,1,0
1778780937856,  1973.466,  1973.461, 0.044510,-0.007061,-0.981309, 0.000458,-0.000070,-0.009844, 0.032435,-0.021228,-0.087381,1, 0.002079, 0.013787, 0.000045,1,-0.382502, 0.088324, 9.798789,1,0
1778780937878,  1973.486,  1973.481, 0.034828,-0.007035,-1.001346, 0.000362,-0.000056,-0.009975, 0.013775, 0.048468, 0.205136,1,-0.003998,-0.006834, 0.000603,1,-0.383306, 0.088018, 9.798760,1,0
1778780937904,  1973.511,  1973.511, 0.042050,-0.010045,-0.994344, 0.000425,-0.000110,-0.009996, 0.029738,-0.009494, 0.047591,1, 0.009169, 0.015293, 0.000733,1,-0.383107, 0.089300, 9.798757,1,0
1778780937926,  1973.536,  1973.531, 0.028356,-0.008066,-1.013565, 0.000282,-0.000081,-0.010075,-0.028675, 0.005983, 0.209801,1,-0.013151,-0.013251, 0.000011,1,-0.383284, 0.088585, 9.798757,1,0
1778780937948,  1973.556,  1973.551, 0.046088,-0.006770,-1.008511, 0.000444,-0.000078,-0.010149,-0.034488,-0.011781,-0.357097,1, 0.001211,-0.000677,-0.000487,1,-0.380680, 0.086858, 9.798874,1,0
1778780937975,  1973.581,  1973.581, 0.043209,-0.007062,-0.963058, 0.000440,-0.000072,-0.009597, 0.039451, 0.020025, 0.354333,1,-0.002657,-0.006529, 0.000270,1,-0.384081, 0.089193, 9.798719,1,0
1778780937996,  1973.606,  1973.601, 0.036928,-0.012088,-1.007182, 0.000363,-0.000132,-0.010129,-0.070721,-0.072166,-0.192822,1,-0.000653,-0.005436,-0.000232,1,-0.381233, 0.088477, 9.798838,1,0
1778780938018,  1973.626,  1973.621, 0.037324,-0.004659,-0.978796, 0.000380,-0.000052,-0.009767, 0.001893, 0.017072, 0.188173,1,-0.000071, 0.010842,-0.000305,1,-0.383616, 0.088667, 9.798743,1,0
1778780938045,  1973.651,  1973.651, 0.040238,-0.010223,-1.021922, 0.000396,-0.000097,-0.010231, 0.013514,-0.012686,-0.222779,1, 0.008320, 0.001290,-0.000089,1,-0.381128, 0.087828, 9.798847,1,0
1778780938066,  1973.676,  1973.671, 0.035181,-0.009921,-0.968242, 0.000372,-0.000104,-0.009641, 0.064430,-0.015734, 0.345665,1, 0.009616, 0.011709,-0.000857,1,-0.384440, 0.090515, 9.798694,1,0
1778780938089,  1973.696,  1973.696, 0.032158,-0.011165,-1.029229, 0.000307,-0.000112,-0.010279,-0.065752,-0.021628,-0.294442,1,-0.005531,-0.003158,-0.000481,1,-0.381017, 0.087686, 9.798853,1,0
1778780938115,  1973.721,  1973.721, 0.048063,-0.004398,-0.980006, 0.000469,-0.000047,-0.009828, 0.087703, 0.045318, 0.188171,1, 0.006576, 0.013164,-0.000578,1,-0.384049, 0.088649, 9.798726,1,0
1778780938136,  1973.746,  1973.741, 0.036440,-0.013506,-1.015118, 0.000353,-0.000132,-0.010146,-0.020930, 0.010213, 0.003705,1,-0.000488,-0.015494, 0.000144,1,-0.382163, 0.088456, 9.798801,1,0
1778780938159,  1973.766,  1973.766, 0.040970,-0.008047,-0.974636, 0.000407,-0.000084,-0.009765, 0.018125, 0.010590, 0.240821,1,-0.001975, 0.008578,-0.000085,1,-0.383919, 0.089440, 9.798724,1,0
1778780938185,  1973.791,  1973.791, 0.035363,-0.008136,-1.006550, 0.000355,-0.000075,-0.010020,-0.035373, 0.007543,-0.072068,1,-0.012447,-0.016139, 0.000262,1,-0.381661, 0.086946, 9.798835,1,0
1778780938206,  1973.816,  1973.811, 0.043507,-0.008805,-0.971464, 0.000441,-0.000078,-0.009751, 0.034001, 0.007825,-0.039630,1, 0.013691, 0.015885,-0.000252,1,-0.382515, 0.088069, 9.798791,1,0
1778780938229,  1973.836,  1973.836, 0.031336,-0.010092,-1.000756, 0.000322,-0.000089,-0.009960,-0.075049,-0.010754,-0.015270,1,-0.007792,-0.016124, 0.000579,1,-0.381846, 0.087974, 9.798819,1,0
1778780938255,  1973.861,  1973.861, 0.044070,-0.010440,-1.004805, 0.000435,-0.000114,-0.010095, 0.049896,-0.014549,-0.054968,1, 0.003548, 0.013248,-0.000243,1,-0.382698, 0.087946, 9.798785,1,0
1778780938276,  1973.886,  1973.881, 0.033791,-0.007109,-1.003139, 0.000336,-0.000068,-0.009982,-0.000501, 0.037530, 0.209162,1,-0.004607,-0.008349,-0.000413,1,-0.383258, 0.087868, 9.798764,1,0
1778780938299,  1973.906,  1973.901, 0.042041,-0.010302,-1.000709, 0.000409,-0.000118,-0.010054,-0.024627,-0.039554,-0.209369,1, 0.005525,-0.000645, 0.000297,1,-0.381352, 0.087971, 9.798838,1,0
1778780938325,  1973.931,  1973.931, 0.037071,-0.007665,-0.975454, 0.000377,-0.000085,-0.009714,-0.020125, 0.013521, 0.232805,1,-0.010222,-0.010891, 0.000221,1,-0.383325, 0.088374, 9.798757,1,0
1778780938347,  1973.956,  1973.951, 0.044051,-0.008410,-1.005093, 0.000432,-0.000092,-0.010118,-0.037468,-0.030612,-0.291320,1, 0.003478,-0.000908,-0.000821,1,-0.380856, 0.087465, 9.798862,1,0
1778780938369,  1973.976,  1973.976, 0.040816,-0.008718,-0.966969, 0.000420,-0.000085,-0.009640, 0.016349, 0.003568, 0.315999,1,-0.007969,-0.008371, 0.000482,1,-0.383657, 0.088815, 9.798739,1,0
1778780938395,  1974.001,  1974.001, 0.034551,-0.012833,-1.021409, 0.000340,-0.000129,-0.010220,-0.042401,-0.038052,-0.217761,1,-0.000064,-0.001845, 0.000279,1,-0.381173, 0.087799, 9.798846,1,0
1778780938417,  1974.026,  1974.021, 0.037035,-0.005246,-0.980670, 0.000382,-0.000058,-0.009767, 0.009713, 0.015151, 0.241784,1, 0.001961, 0.007879,-0.000097,1,-0.383663, 0.088556, 9.798742,1,0
1778780938439,  1974.051,  1974.046, 0.039891,-0.010168,-1.021901, 0.000386,-0.000095,-0.010231, 0.010291,-0.012411,-0.222565,1, 0.006631, 0.003757, 0.000495,1,-0.381021, 0.087511, 9.798855,1,0
1778780938465,  1974.071,  1974.071, 0.046936,-0.009091,-0.968079, 0.000472,-0.000091,-0.009687, 0.076649, 0.000102, 0.305120,1, 0.005192, 0.006962,-0.000442,1,-0.383857, 0.089417, 9.798727,1,0
1778780938487,  1974.096,  1974.091, 0.034132,-0.011583,-1.022817, 0.000319,-0.000121,-0.010231,-0.072154,-0.000595,-0.095281,1,-0.007828,-0.016275, 0.000162,1,-0.381159, 0.087844, 9.798846,1,0
1778780938510,  1974.121,  1974.116, 0.042394,-0.006124,-0.976028, 0.000422,-0.000059,-0.009771, 0.032368, 0.028466, 0.227189,1, 0.002252, 0.009117,-0.000014,1,-0.383660, 0.088592, 9.798741,1,0
1778780938535,  1974.141,  1974.141, 0.034765,-0.010558,-1.009698, 0.000351,-0.000095,-0.010060,-0.040863,-0.015723,-0.102934,1,-0.002750,-0.013729, 0.000184,1,-0.381362, 0.087730, 9.798840,1,0
1778780938557,  1974.166,  1974.161, 0.041787,-0.007133,-0.967093, 0.000431,-0.000066,-0.009690, 0.042731, 0.008751, 0.071877,1, 0.008426, 0.017845,-0.000033,1,-0.383274, 0.088979, 9.798754,1,0
1778780938580,  1974.191,  1974.186, 0.032219,-0.010013,-1.011535, 0.000326,-0.000087,-0.010071,-0.065996,-0.010479,-0.120954,1,-0.007771,-0.016147, 0.000548,1,-0.381448, 0.087471, 9.798839,1,0
1778780938605,  1974.211,  1974.211, 0.041483,-0.008417,-0.996334, 0.000416,-0.000089,-0.010024, 0.024251, 0.005881, 0.028089,1, 0.010429, 0.017436, 0.000248,1,-0.383100, 0.088746, 9.798762,1,0
1778780938627,  1974.236,  1974.231, 0.035831,-0.008057,-1.011352, 0.000359,-0.000074,-0.010074,-0.010068, 0.045601, 0.166709,1,-0.008263,-0.013085,-0.000125,1,-0.382992, 0.088394, 9.798770,1,0
1778780938650,  1974.261,  1974.256, 0.044433,-0.009405,-0.986954, 0.000441,-0.000099,-0.009908, 0.052606,-0.003435, 0.120049,1, 0.009882, 0.015313, 0.000291,1,-0.383613, 0.089106, 9.798739,1,0
1778780938675,  1974.281,  1974.281, 0.034739,-0.007318,-0.987979, 0.000349,-0.000084,-0.009824,-0.042505, 0.016989, 0.109991,1,-0.009230,-0.015428,-0.000153,1,-0.382693, 0.088469, 9.798780,1,0
1778780938697,  1974.306,  1974.301, 0.044613,-0.006237,-0.991828, 0.000436,-0.000068,-0.009965,-0.008870,-0.020624,-0.202195,1, 0.002167, 0.007468,-0.000718,1,-0.381647, 0.087816, 9.798827,1,0
1778780938720,  1974.331,  1974.321, 0.038770,-0.007410,-0.983013, 0.000396,-0.000073,-0.009791, 0.057088, 0.021031, 0.259920,1, 0.001954, 0.004661,-0.000324,1,-0.383991, 0.088966, 9.798725,1,0
1778780938746,  1974.351,  1974.351, 0.037143,-0.013144,-1.015250, 0.000361,-0.000135,-0.010184,-0.017434,-0.040168,-0.157383,1, 0.004190, 0.006594,-0.001312,1,-0.381887, 0.088864, 9.798809,1,0
1778780938767,  1974.376,  1974.371, 0.035752,-0.006976,-0.986402, 0.000365,-0.000069,-0.009824, 0.011364, 0.022132, 0.260060,1,-0.004050, 0.001507, 0.000643,1,-0.383761, 0.088944, 9.798735,1,0
1778780938794,  1974.401,  1974.401, 0.037931,-0.010945,-1.017707, 0.000371,-0.000116,-0.010210,-0.009472,-0.019135,-0.181470,1, 0.006472, 0.006717, 0.000282,1,-0.381653, 0.088403, 9.798821,1,0
1778780938816,  1974.421,  1974.421, 0.041931,-0.008711,-0.968484, 0.000429,-0.000085,-0.009684, 0.027409, 0.003911, 0.301148,1,-0.001253, 0.001913,-0.000256,1,-0.383853, 0.089295, 9.798728,1,0
1778780938837,  1974.446,  1974.441, 0.041075,-0.010273,-1.020176, 0.000392,-0.000115,-0.010230,-0.048752,-0.009489,-0.185905,1,-0.004011,-0.012388,-0.000687,1,-0.381039, 0.087968, 9.798850,1,0
1778780938864,  1974.471,  1974.471, 0.044831,-0.007003,-0.968836, 0.000453,-0.000064,-0.009688, 0.055689, 0.020447, 0.297692,1,-0.000640, 0.002148, 0.000010,1,-0.384025, 0.089105, 9.798723,1,0
1778780938886,  1974.496,  1974.491, 0.037654,-0.014019,-1.018205, 0.000358,-0.000140,-0.010217,-0.080332,-0.003932,-0.160267,1, 0.000445,-0.013129,-0.000234,1,-0.380904, 0.088177, 9.798853,1,0
1778780938907,  1974.516,  1974.511, 0.042900,-0.008650,-0.970623, 0.000439,-0.000079,-0.009709, 0.037627,-0.000146, 0.122477,1, 0.003905, 0.016795, 0.000227,1,-0.383227, 0.088961, 9.798756,1,0
1778780938934,  1974.541,  1974.541, 0.033699,-0.008858,-1.014858, 0.000347,-0.000079,-0.010129,-0.050877, 0.000623,-0.153520,1,-0.002366,-0.011101, 0.000386,1,-0.381002, 0.087412, 9.798856,1,0
1778780938956,  1974.566,  1974.561, 0.039225,-0.008253,-0.968455, 0.000413,-0.000082,-0.009684, 0.024254, 0.009175, 0.146620,1, 0.008490, 0.015340, 0.000021,1,-0.383234, 0.088913, 9.798756,1,0
1778780938977,  1974.586,  1974.581, 0.032107,-0.010728,-1.016760, 0.000316,-0.000104,-0.010136,-0.045714, 0.011983, 0.108845,1,-0.008022,-0.015998, 0.000026,1,-0.382170, 0.088326, 9.798802,1,0
1778780939004,  1974.611,  1974.611, 0.045935,-0.006492,-0.989965, 0.000458,-0.000079,-0.009938, 0.067904, 0.024548, 0.090543,1, 0.006026, 0.014945,-0.000996,1,-0.383033, 0.088398, 9.798768,1,0
1778780939026,  1974.636,  1974.631, 0.034920,-0.010145,-1.014340, 0.000337,-0.000096,-0.010107,-0.025000, 0.034544, 0.108946,1,-0.004402,-0.013363,-0.000290,1,-0.382314, 0.088299, 9.798797,1,0
1778780939047,  1974.656,  1974.651, 0.045688,-0.007819,-0.985658, 0.000446,-0.000085,-0.009896, 0.007082,-0.023238,-0.141844,1, 0.003318, 0.010189,-0.000369,1,-0.381969, 0.088247, 9.798811,1,0
1778780939074,  1974.681,  1974.681, 0.033788,-0.008152,-0.991810, 0.000342,-0.000083,-0.009867,-0.051383, 0.008638, 0.072448,1,-0.005823,-0.015640,-0.000156,1,-0.382238, 0.088395, 9.798800,1,0
1778780939096,  1974.706,  1974.701, 0.047498,-0.008143,-0.981621, 0.000473,-0.000081,-0.009873, 0.018856,-0.036315,-0.171241,1, 0.005254, 0.012230,-0.000080,1,-0.381883, 0.088702, 9.798810,1,0
1778780939118,  1974.726,  1974.721, 0.033588,-0.008303,-0.984612, 0.000359,-0.000081,-0.009795, 0.038482,-0.002923, 0.345360,1,-0.001521, 0.001253, 0.000656,1,-0.384225, 0.089526, 9.798711,1,0
1778780939145,  1974.751,  1974.751, 0.035754,-0.012664,-1.019551, 0.000346,-0.000132,-0.010236,-0.030821,-0.035980,-0.199548,1, 0.001123, 0.008670,-0.000765,1,-0.381719, 0.088243, 9.798820,1,0
1778780939166,  1974.776,  1974.771, 0.037530,-0.005875,-0.989664, 0.000381,-0.000062,-0.009843, 0.032135, 0.023448, 0.262661,1,-0.003087, 0.000483, 0.000063,1,-0.383884, 0.088572, 9.798733,1,0
1778780939188,  1974.796,  1974.791, 0.042357,-0.010143,-1.012628, 0.000409,-0.000113,-0.010163,-0.014953,-0.013038,-0.183485,1, 0.000418,-0.009680,-0.000132,1,-0.381347, 0.087500, 9.798841,1,0
1778780939215,  1974.821,  1974.821, 0.040762,-0.009090,-0.968800, 0.000412,-0.000096,-0.009665, 0.015733,-0.000093, 0.298043,1,-0.004037,-0.003408,-0.000136,1,-0.383897, 0.088927, 9.798730,1,0
1778780939236,  1974.846,  1974.841, 0.041316,-0.008734,-1.015464, 0.000392,-0.000094,-0.010196,-0.068863, 0.002667,-0.216559,1,-0.003417,-0.008464, 0.000190,1,-0.381004, 0.087290, 9.798857,1,0
1778780939258,  1974.866,  1974.861, 0.043470,-0.008081,-0.972412, 0.000448,-0.000079,-0.009718, 0.064092, 0.008126, 0.145703,1, 0.007656, 0.014763,-0.000157,1,-0.383415, 0.088431, 9.798753,1,0
1778780939285,  1974.891,  1974.891, 0.034760,-0.011952,-1.011783, 0.000352,-0.000113,-0.010113,-0.040724,-0.028858,-0.123375,1, 0.000121,-0.006504, 0.000107,1,-0.381403, 0.088358, 9.798832,1,0
1778780939306,  1974.916,  1974.911, 0.036420,-0.008315,-0.976021, 0.000380,-0.000078,-0.009742, 0.021278, 0.015918, 0.183505,1, 0.002579, 0.011362, 0.000394,1,-0.383563, 0.088917, 9.798742,1,0
1778780939329,  1974.936,  1974.936, 0.029986,-0.012390,-1.023650, 0.000295,-0.000119,-0.010223,-0.087024,-0.033705,-0.239726,1, 0.000634,-0.006686,-0.000362,1,-0.380883, 0.087821, 9.798857,1,0
1778780939355,  1974.961,  1974.961, 0.048303,-0.007083,-0.982618, 0.000481,-0.000076,-0.009865, 0.090547, 0.019591, 0.162562,1, 0.007599, 0.015263,-0.000111,1,-0.383621, 0.089291, 9.798737,1,0
1778780939376,  1974.986,  1974.981, 0.034632,-0.013012,-1.013054, 0.000345,-0.000132,-0.010101,-0.002859, 0.009741, 0.126400,1,-0.003720,-0.013823, 0.000128,1,-0.382764, 0.089136, 9.798772,1,0
1778780939399,  1975.006,  1975.006, 0.040262,-0.008205,-0.983630, 0.000393,-0.000081,-0.009861, 0.011592, 0.008725, 0.152636,1, 0.003401, 0.011514,-0.000521,1,-0.383604, 0.089292, 9.798738,1,1
1778780939425,  1975.031,  1975.031, 0.032844,-0.004755,-1.003392, 0.000327,-0.000044,-0.009985,-0.059843, 0.041379,-0.041104,1,-0.007973,-0.017449, 0.000314,1,-0.381357, 0.087753, 9.798840,1,1
1778780939446,  1975.056,  1975.051, 0.051729,-0.010328,-0.976003, 0.000521,-0.000098,-0.009804, 0.073173,-0.008710,-0.093647,1, 0.011105, 0.016568, 0.000428,1,-0.382020, 0.088776, 9.798804,1,1
1778780939469,  1975.076,  1975.076, 0.033613,-0.008109,-0.986653, 0.000355,-0.000077,-0.009825,-0.053246, 0.010153, 0.122999,1,-0.004837,-0.015172, 0.000100,1,-0.382404, 0.089527, 9.798782,1,1
1778780939495,  1975.101,  1975.101, 0.033470,-0.011091,-1.010583, 0.000328,-0.000121,-0.010140,-0.053508,-0.020053,-0.111617,1,-0.003636, 0.007267,-0.000087,1,-0.381963, 0.088596, 9.798808,1,1
1778780939516,  1975.126,  1975.121, 0.037122,-0.005874,-0.999826, 0.000373,-0.000055,-0.009953,-0.001113, 0.019156, 0.164110,1,-0.002937,-0.003295, 0.000236,1,-0.382972, 0.088506, 9.798769,1,1
1778780939539,  1975.146,  1975.146, 0.047323,-0.009402,-1.006578, 0.000457,-0.000109,-0.010103, 0.082266,-0.003354,-0.072343,1, 0.008724, 0.014187,-0.000861,1,-0.382258, 0.089123, 9.798792,1,1
1778780939565,  1975.171,  1975.171, 0.040704,-0.009314,-0.963438, 0.000421,-0.000091,-0.009616, 0.015158,-0.001255, 0.350618,1,-0.002927,-0.002541, 0.000106,1,-0.383934, 0.089993, 9.798718,1,1
1778780939587,  1975.196,  1975.191, 0.034901,-0.010211,-1.021414, 0.000327,-0.000114,-0.010254,-0.111427,-0.046967,-0.235193,1,-0.007077,-0.012309,-0.000197,1,-0.380705, 0.088302, 9.798860,1,1
1778780939609,  1975.216,  1975.216, 0.043272,-0.006999,-0.973177, 0.000444,-0.000066,-0.009730, 0.041219, 0.019814, 0.255152,1, 0.000072,-0.000846, 0.000086,1,-0.383108, 0.088452, 9.798764,1,1
1778780939635,  1975.241,  1975.241, 0.040312,-0.010309,-1.015672, 0.000402,-0.000091,-0.010150, 0.014374,-0.012677,-0.161488,1, 0.004386,-0.004111,-0.000072,1,-0.380819, 0.088560, 9.798853,1,1
1778780939657,  1975.266,  1975.261, 0.034526,-0.011274,-0.967669, 0.000373,-0.000111,-0.009651, 0.045360,-0.005910, 0.290477,1, 0.006663, 0.014394, 0.000534,1,-0.383761, 0.090032, 9.798725,1,1
1778780939679,  1975.291,  1975.286, 0.026183,-0.010538,-1.032655, 0.000253,-0.000100,-0.010309,-0.123262,-0.015612,-0.328000,1,-0.004447,-0.009857, 0.000019,1,-0.379727, 0.087588, 9.798904,1,1
1778780939705,  1975.311,  1975.311, 0.047619,-0.004465,-0.981820, 0.000474,-0.000049,-0.009863, 0.084625, 0.044766, 0.170425,1, 0.009920, 0.018149, 0.000008,1,-0.382920, 0.088865, 9.798768,1,1
1778780939727,  1975.336,  1975.331, 0.035172,-0.012315,-1.010757, 0.000345,-0.000119,-0.010086, 0.022886, 0.021626, 0.110149,1,-0.002220,-0.016078,-0.000295,1,-0.381631, 0.089154, 9.798816,1,1
1778780939750,  1975.361,  1975.356, 0.036359,-0.007966,-0.981348, 0.000366,-0.000085,-0.009837,-0.025595, 0.011280, 0.175060,1, 0.000265, 0.009296, 0.000264,1,-0.382442, 0.089405, 9.798782,1,1
1778780939775,  1975.381,  1975.381, 0.033610,-0.006450,-1.004917, 0.000333,-0.000070,-0.010005,-0.051523, 0.024829,-0.056028,1,-0.010153,-0.014848, 0.000005,1,-0.380661, 0.087763, 9.798866,1,1
1778780939797,  1975.406,  1975.401, 0.047486,-0.006454,-0.976451, 0.000478,-0.000061,-0.009814, 0.054344,-0.008331,-0.084541,1, 0.007599, 0.013047, 0.000353,1,-0.381131, 0.087956, 9.798846,1,1
1778780939820,  1975.431,  1975.426, 0.035552,-0.009518,-0.985774, 0.000379,-0.000083,-0.009826,-0.033342,-0.004059, 0.131664,1,-0.002456,-0.014232, 0.000465,1,-0.381574, 0.089198, 9.798818,1,1
1778780939845,  1975.451,  1975.451, 0.038736,-0.012167,-1.009969, 0.000392,-0.000131,-0.010135,-0.001078,-0.030959,-0.105569,1,-0.001952, 0.007386, 0.000110,1,-0.381180, 0.088299, 9.798841,1,1
1778780939867,  1975.476,  1975.471, 0.032524,-0.007095,-0.998686, 0.000329,-0.000063,-0.009944,-0.016786, 0.031672, 0.177090,1,-0.001415,-0.004231, 0.000739,1,-0.382094, 0.088316, 9.798805,1,1
1778780939890,  1975.501,  1975.496, 0.044928,-0.011843,-1.010149, 0.000441,-0.000128,-0.010139, 0.059955,-0.027422,-0.107324,1, 0.007068, 0.012878,-0.000744,1,-0.381038, 0.088934, 9.798841,1,1
1778780939915,  1975.521,  1975.521, 0.042430,-0.008696,-0.966897, 0.000430,-0.000084,-0.009644, 0.033107, 0.004339, 0.316734,1,-0.002312,-0.001435, 0.000256,1,-0.382940, 0.089545, 9.798761,1,1
1778780939937,  1975.546,  1975.541, 0.039395,-0.010258,-1.016576, 0.000380,-0.000109,-0.010215,-0.073448,-0.025869,-0.232575,1,-0.004287,-0.010676,-0.000511,1,-0.379863, 0.088028, 9.798895,1,1
1778780939960,  1975.571,  1975.566, 0.041016,-0.006939,-0.968938, 0.000417,-0.000063,-0.009674, 0.019521, 0.020857, 0.296737,1, 0.000053,-0.002620, 0.000539,1,-0.382624, 0.088909, 9.798779,1,1
1778780939986,  1975.591,  1975.591, 0.036057,-0.013041,-1.020276, 0.000356,-0.000124,-0.010196,-0.026508,-0.039636,-0.206604,1,-0.000083,-0.006220, 0.000183,1,-0.379908, 0.088249, 9.798891,1,1
1778780940007,  1975.616,  1975.611, 0.039158,-0.007595,-0.966709, 0.000410,-0.000077,-0.009648, 0.051296, 0.016152, 0.233128,1, 0.006275, 0.015066, 0.000462,1,-0.382828, 0.089486, 9.798766,1,1
1778780940034,  1975.641,  1975.641, 0.029314,-0.011249,-1.023837, 0.000290,-0.000105,-0.010222,-0.092638,-0.021735,-0.241536,1,-0.002721,-0.009006, 0.000111,1,-0.379834, 0.088491, 9.798892,1,1
1778780940056,  1975.661,  1975.661, 0.044275,-0.006777,-0.983321, 0.000446,-0.000073,-0.009874, 0.052247, 0.022543, 0.155722,1, 0.005079, 0.013613, 0.000352,1,-0.382370, 0.089164, 9.798787,1,1
1778780940077,  1975.686,  1975.681, 0.035237,-0.011159,-1.016418, 0.000348,-0.000109,-0.010140,-0.013289, 0.026650, 0.061476,1,-0.002765,-0.015207,-0.000589,1,-0.381084, 0.089178, 9.798837,1,1
1778780940104,  1975.711,  1975.711, 0.042951,-0.007264,-0.981009, 0.000425,-0.000078,-0.009841, 0.039074, 0.018061, 0.178386,1, 0.002329, 0.013481,-0.000354,1,-0.382549, 0.089368, 9.798779,1,1
1778780940126,  1975.736,  1975.731, 0.031192,-0.011919,-1.020068, 0.000304,-0.000114,-0.010188,-0.060887, 0.009889, 0.034156,1,-0.006999,-0.016750, 0.000480,1,-0.380933, 0.088508, 9.798849,1,1
1778780940147,  1975.756,  1975.751, 0.045185,-0.007403,-0.983744, 0.000454,-0.000076,-0.009888, 0.020221,-0.023342,-0.150360,1, 0.005422, 0.010714,-0.000923,1,-0.380630, 0.088659, 9.798860,1,1
1778780940174,  1975.781,  1975.781, 0.038156,-0.008619,-0.984647, 0.000394,-0.000075,-0.009809,-0.007802, 0.004847, 0.142714,1,-0.004498,-0.012196, 0.000817,1,-0.381602, 0.089235, 9.798817,1,1
1778780940196,  1975.806,  1975.801, 0.036876,-0.008268,-0.982847, 0.000384,-0.000076,-0.009874, 0.000816,-0.032917,-0.101098,1, 0.003532, 0.007250, 0.000126,1,-0.381113, 0.089065, 9.798837,1,1
1778780940217,  1975.826,  1975.821, 0.033203,-0.007224,-0.999816, 0.000332,-0.000070,-0.009941,-0.039548, 0.011670, 0.229576,1,-0.003559,-0.004091, 0.000376,1,-0.382359, 0.089434, 9.798785,1,1
1778780940244,  1975.851,  1975.851, 0.048395,-0.009665,-1.013777, 0.000465,-0.000100,-0.010181, 0.093952,-0.006638,-0.142893,1, 0.008167, 0.014890,-0.000379,1,-0.381101, 0.088400, 9.798843,1,1
1778780940266,  1975.876,  1975.871, 0.031557,-0.009296,-0.989920, 0.000313,-0.000090,-0.009834, 0.031706, 0.010903, 0.328777,1, 0.002562,-0.001123, 0.000218,1,-0.383144, 0.089902, 9.798750,1,1
1778780940287,  1975.896,  1975.891, 0.037768,-0.012059,-1.017815, 0.000355,-0.000128,-0.010219,-0.103798,-0.049116,-0.207061,1,-0.004890,-0.010079,-0.000152,1,-0.380077, 0.088887, 9.798879,1,1
1778780940314,  1975.921,  1975.921, 0.043740,-0.005701,-0.971807, 0.000444,-0.000057,-0.009712, 0.046020, 0.032845, 0.268596,1,-0.002701, 0.000592, 0.000199,1,-0.382943, 0.088672, 9.798769,1,1
1778780940336,  1975.946,  1975.941, 0.041533,-0.011301,-1.009328, 0.000412,-0.000115,-0.010148,-0.021574,-0.030373,-0.178582,1, 0.002726,-0.007003,-0.000103,1,-0.380402, 0.088440, 9.798870,1,1
1778780940358,  1975.966,  1975.961, 0.037336,-0.008703,-0.965034, 0.000397,-0.000089,-0.009643, 0.026208, 0.010942, 0.237295,1, 0.006580, 0.015818, 0.000624,1,-0.383213, 0.089968, 9.798747,1,1
1778780940385,  1975.991,  1975.986, 0.029484,-0.011939,-1.025881, 0.000291,-0.000115,-0.010243,-0.091114,-0.028949,-0.261577,1,-0.004853,-0.010764,-0.000415,1,-0.379916, 0.087978, 9.798893,1,1
1778780940406,  1976.016,  1976.011, 0.045672,-0.007126,-0.967297, 0.000467,-0.000077,-0.009666, 0.061851, 0.017474, 0.139468,1, 0.008558, 0.017034,-0.000251,1,-0.382707, 0.089118, 9.798775,1,1
1778780940428,  1976.036,  1976.031, 0.034130,-0.010655,-1.011448, 0.000335,-0.000103,-0.010089,-0.004226, 0.036893, 0.131744,1,-0.004437,-0.015354,-0.000211,1,-0.381775, 0.088931, 9.798812,1,1
1778780940455,  1976.061,  1976.061, 0.039587,-0.010117,-0.985094, 0.000396,-0.000108,-0.009881, 0.006051,-0.009828, 0.138321,1, 0.002982, 0.011049, 0.000734,1,-0.382508, 0.089480, 9.798779,1,1
1778780940476,  1976.086,  1976.081, 0.036924,-0.008463,-1.018952, 0.000357,-0.000081,-0.010179,-0.030366, 0.030956,-0.008753,1,-0.009631,-0.014794,-0.000473,1,-0.381076, 0.088285, 9.798845,1,1
1778780940498,  1976.106,  1976.101, 0.043588,-0.007352,-0.978974, 0.000449,-0.000068,-0.009833, 0.048419, 0.002578,-0.087485,1, 0.007163, 0.011660,-0.000057,1,-0.381185, 0.088419, 9.798840,1,1
1778780940525,  1976.131,  1976.131, 0.032218,-0.010264,-0.991503, 0.000335,-0.000096,-0.009870,-0.065774,-0.011139, 0.075483,1,-0.006890,-0.014822, 0.000834,1,-0.381258, 0.089307, 9.798829,1,1
1778780940546,  1976.156,  1976.151, 0.044288,-0.005756,-0.987480, 0.000451,-0.000061,-0.009923, 0.007918,-0.019052,-0.140710,1, 0.000477, 0.009571,-0.000614,1,-0.380937, 0.088486, 9.798849,1,1
1778780940569,  1976.176,  1976.176, 0.036757,-0.006819,-0.989966, 0.000378,-0.000063,-0.009857,-0.021452, 0.021861, 0.090558,1,-0.002211,-0.013069, 0.000697,1,-0.381505, 0.088662, 9.798825,1,1
1778780940595,  1976.201,  1976.201, 0.041846,-0.012224,-1.009250, 0.000411,-0.000134,-0.010128, 0.029303,-0.030798,-0.098522,1, 0.006072, 0.010809,-0.000520,1,-0.381409, 0.089270, 9.798823,1,1
1778780940616,  1976.226,  1976.221, 0.031393,-0.007627,-0.997107, 0.000315,-0.000078,-0.009907,-0.017721, 0.008650, 0.276411,1,-0.005602,-0.004392,-0.000043,1,-0.382803, 0.089667, 9.798765,1,1
1778780940639,  1976.246,  1976.246, 0.046165,-0.010270,-1.017143, 0.000435,-0.000107,-0.010217, 0.071942,-0.012400,-0.175908,1, 0.006461, 0.016431,-0.000553,1,-0.381294, 0.088512, 9.798835,1,1
1778780940665,  1976.271,  1976.271, 0.045761,-0.009335,-0.963581, 0.000478,-0.000096,-0.009627, 0.065261,-0.001882, 0.349233,1,-0.001477,-0.002675, 0.000411,1,-0.383413, 0.089615, 9.798742,1,1
1778780940686,  1976.296,  1976.291, 0.033578,-0.013058,-1.013283, 0.000326,-0.000130,-0.010174,-0.109551,-0.029720,-0.159302,1,-0.002128,-0.010081, 0.000031,1,-0.380380, 0.088615, 9.798869,1,1
1778780940709,  1976.316,  1976.316, 0.042187,-0.007786,-0.977821, 0.000435,-0.000074,-0.009778, 0.031169, 0.012269, 0.209640,1,-0.005632,-0.002095, 0.000360,1,-0.382474, 0.088452, 9.798789,1,1
1778780940735,  1976.341,  1976.341, 0.038823,-0.008938,-1.013938, 0.000390,-0.000082,-0.010136,-0.000102,-0.000075,-0.144472,1, 0.001252,-0.004539,-0.000370,1,-0.380684, 0.087615, 9.798866,1,1
1778780940757,  1976.366,  1976.361, 0.035416,-0.009497,-0.969661, 0.000375,-0.000091,-0.009679, 0.040792, 0.010592, 0.217541,1, 0.009240, 0.012147, 0.000887,1,-0.383044, 0.089393, 9.798759,1,1
1778780940779,  1976.386,  1976.386, 0.030451,-0.011555,-1.023277, 0.000289,-0.000117,-0.010198,-0.082026,-0.025740,-0.236048,1,-0.008536,-0.009735,-0.000325,1,-0.380340, 0.087305, 9.798882,1,1
1778780940805,  1976.411,  1976.411, 0.048655,-0.003506,-0.989168, 0.000480,-0.000044,-0.009933, 0.094886, 0.053286, 0.098384,1, 0.007383, 0.015385,-0.000887,1,-0.382732, 0.087896, 9.798784,1,1
1778780940827,  1976.436,  1976.431, 0.034167,-0.012173,-1.011896, 0.000332,-0.000112,-0.010087,-0.020046, 0.027265, 0.147634,1,-0.001181,-0.014252,-0.000526,1,-0.381941, 0.088386, 9.798811,1,1
1778780940849,  1976.456,  1976.456, 0.043706,-0.010720,-0.982460, 0.000433,-0.000107,-0.009863, 0.045937,-0.016703, 0.164142,1, 0.002813, 0.013636,-0.000057,1,-0.383099, 0.088510, 9.798764,1,1
1778780940875,  1976.481,  1976.481, 0.030978,-0.006189,-0.996565, 0.000324,-0.000063,-0.009920,-0.078043, 0.026534, 0.025864,1,-0.012885,-0.018907,-0.000656,1,-0.381239, 0.086826, 9.798852,1,1
1778780940897,  1976.506,  1976.501, 0.048805,-0.006727,-0.978754, 0.000491,-0.000065,-0.009848, 0.025992,-0.010831,-0.173191,1, 0.008312, 0.014596, 0.001033,1,-0.380968, 0.087020, 9.798861,1,1
1778780940920,  1976.531,  1976.526, 0.033861,-0.007587,-0.986097, 0.000360,-0.000075,-0.009807,-0.050206, 0.013656, 0.128488,1,-0.009786,-0.018966, 0.000686,1,-0.381679, 0.087754, 9.798826,1,1
1778780940945,  1976.551,  1976.551, 0.035334,-0.012845,-1.017346, 0.000341,-0.000135,-0.010206,-0.034035,-0.038455,-0.177881,1, 0.006372, 0.009078, 0.000300,1,-0.380826, 0.087706, 9.798861,1,1
1778780940967,  1976.576,  1976.571, 0.039453,-0.005693,-0.989411, 0.000398,-0.000061,-0.009842, 0.043399, 0.019011, 0.252175,1,-0.002802, 0.000646,-0.000114,1,-0.382848, 0.088366, 9.798776,1,1
1778780940990,  1976.601,  1976.596, 0.042418,-0.011234,-1.008076, 0.000411,-0.000119,-0.010115, 0.034976,-0.022467,-0.086998,1, 0.007347, 0.009073, 0.000009,1,-0.381281, 0.087928, 9.798841,1,1
1778780941015,  1976.621,  1976.621, 0.037561,-0.010137,-0.971631, 0.000390,-0.000104,-0.009702,-0.014416,-0.010398, 0.270331,1,-0.002975,-0.002547,-0.000714,1,-0.382684, 0.088914, 9.798777,1,1
1778780941037,  1976.646,  1976.641, 0.041361,-0.009827,-1.017122, 0.000398,-0.000100,-0.010219,-0.073412,-0.003296,-0.209001,1,-0.007628,-0.008721, 0.000118,1,-0.380021, 0.086795, 9.798900,1,1
1778780941060,  1976.671,  1976.666, 0.042364,-0.008034,-0.970571, 0.000446,-0.000071,-0.009713, 0.032663, 0.009663, 0.280730,1, 0.005082, 0.000652, 0.000871,1,-0.382809, 0.088608, 9.798775,1,1
1778780941085,  1976.691,  1976.691, 0.030797,-0.014038,-1.011295, 0.000313,-0.000128,-0.010093,-0.078657,-0.049301,-0.118558,1,-0.001310,-0.009746,-0.000366,1,-0.380373, 0.088327, 9.798872,1,1
1778780941107,  1976.716,  1976.711, 0.040100,-0.006296,-0.973549, 0.000411,-0.000058,-0.009732, 0.031325, 0.016386, 0.109939,1, 0.001206, 0.013597, 0.001080,1,-0.382433, 0.088538, 9.798790,1,1
1778780941130,  1976.741,  1976.736, 0.034259,-0.010932,-1.022514, 0.000334,-0.000101,-0.010192,-0.044459,-0.019841,-0.228553,1, 0.001717,-0.011109,-0.000417,1,-0.380075, 0.087422, 9.798892,1,1
1778780941155,  1976.761,  1976.761, 0.047486,-0.008757,-0.982078, 0.000467,-0.000092,-0.009869, 0.083359, 0.003248, 0.167897,1, 0.010301, 0.019002, 0.000061,1,-0.382909, 0.089450, 9.798763,1,1
1778780941177,  1976.786,  1976.781, 0.032236,-0.009829,-1.018282, 0.000314,-0.000088,-0.010145,-0.030241, 0.030299, 0.138730,1,-0.012420,-0.016617,-0.000410,1,-0.381822, 0.088135, 9.798818,1,1
1778780941200,  1976.811,  1976.806, 0.043236,-0.009152,-0.985431, 0.000431,-0.000088,-0.009900, 0.041661,-0.001522, 0.135023,1, 0.008621, 0.015753, 0.000545,1,-0.382833, 0.088501, 9.798775,1,1
1778780941226,  1976.831,  1976.831, 0.035278,-0.005838,-0.989767, 0.000363,-0.000058,-0.009856,-0.036082, 0.030938, 0.092514,1,-0.007858,-0.014827,-0.000110,1,-0.381562, 0.087951, 9.798829,1,1
1778780941247,  1976.856,  1976.851, 0.046649,-0.008003,-0.981299, 0.000475,-0.000078,-0.009858, 0.049373,-0.024384,-0.107274,1, 0.004867, 0.011965, 0.000587,1,-0.381552, 0.088067, 9.798829,1,1
1778780941274,  1976.881,  1976.881, 0.029087,-0.006561,-0.991298, 0.000309,-0.000062,-0.009866,-0.096845, 0.024028, 0.077489,1,-0.007160,-0.017927,-0.000096,1,-0.381534, 0.088148, 9.798829,1,1
1778780941296,  1976.901,  1976.901, 0.038445,-0.012099,-1.018968, 0.000365,-0.000123,-0.010222,-0.003613,-0.030589,-0.193802,1, 0.003742, 0.008901,-0.000424,1,-0.380907, 0.088176, 9.798853,1,1
1778780941317,  1976.926,  1976.921, 0.038699,-0.005842,-0.986238, 0.000392,-0.000066,-0.009809, 0.061524, 0.024150, 0.275636,1,-0.000432, 0.002597,-0.000351,1,-0.383126, 0.088962, 9.798759,1,1
1778780941344,  1976.951,  1976.951, 0.038637,-0.010122,-1.013445, 0.000372,-0.000112,-0.010164,-0.002091,-0.010983,-0.139656,1, 0.005485, 0.009365,-0.000228,1,-0.381286, 0.088454, 9.798836,1,1
1778780941366,  1976.976,  1976.971, 0.034214,-0.007040,-0.993290, 0.000341,-0.000071,-0.009878, 0.000918, 0.006006, 0.275001,1,-0.004528,-0.000354, 0.000421,1,-0.383138, 0.088884, 9.798759,1,1
1778780941387,  1976.996,  1976.991, 0.042882,-0.010632,-1.014837, 0.000420,-0.000109,-0.010197,-0.039696,-0.019924,-0.207537,1,-0.003321,-0.008784, 0.000158,1,-0.380384, 0.087171, 9.798882,1,1
1778780941414,  1977.021,  1977.021, 0.043376,-0.009313,-0.965350, 0.000449,-0.000090,-0.009657, 0.041979,-0.001800, 0.331893,1,-0.000048, 0.000458,-0.000006,1,-0.383406, 0.089527, 9.798743,1,1
1778780941436,  1977.046,  1977.041, 0.037307,-0.013797,-1.012352, 0.000370,-0.000138,-0.010161,-0.072789,-0.030417,-0.135565,1,-0.003450,-0.009350, 0.000381,1,-0.380822, 0.088095, 9.798857,1,1
1778780941457,  1977.066,  1977.061, 0.037939,-0.007677,-0.978934, 0.000396,-0.000078,-0.009784, 0.029245,-0.007679, 0.102576,1, 0.003083, 0.012067, 0.000430,1,-0.382811, 0.088567, 9.798776,1,1
1778780941484,  1977.091,  1977.091, 0.035388,-0.008305,-1.017109, 0.000350,-0.000077,-0.010153,-0.033990, 0.005577,-0.175577,1,-0.000932,-0.005624,-0.000143,1,-0.380856, 0.086988, 9.798865,1,1
1778780941506,  1977.116,  1977.111, 0.041428,-0.009278,-0.969328, 0.000428,-0.000095,-0.009673, 0.081013, 0.007095, 0.194944,1, 0.009461, 0.013930,-0.000316,1,-0.383426, 0.088783, 9.798749,1,1
1778780941527,  1977.136,  1977.131, 0.028853,-0.011033,-1.020287, 0.000272,-0.000102,-0.010173,-0.069669, 0.002332, 0.064004,1,-0.010832,-0.015919,-0.000099,1,-0.382155, 0.087797, 9.798808,1,1
1778780941554,  1977.161,  1977.161, 0.046660,-0.006138,-0.989796, 0.000459,-0.000067,-0.009944, 0.074721, 0.027336, 0.092198,1, 0.006193, 0.016283, 0.000031,1,-0.383361, 0.087721, 9.798761,1,1
1778780941576,  1977.186,  1977.181, 0.035853,-0.013404,-1.005935, 0.000358,-0.000115,-0.010042,-0.001949, 0.035141, 0.161584,1,-0.000159,-0.009776, 0.000108,1,-0.383161, 0.087974, 9.798767,1,1
1778780941598,  1977.206,  1977.201, 0.041052,-0.009243,-0.984668, 0.000423,-0.000091,-0.009890, 0.022189,-0.055977,-0.087894,1, 0.003723, 0.006751, 0.000147,1,-0.382689, 0.088462, 9.798781,1,1
1778780941625,  1977.231,  1977.231, 0.029704,-0.006732,-0.992499, 0.000313,-0.000065,-0.009886,-0.092050, 0.021906, 0.065670,1,-0.012132,-0.016115, 0.000140,1,-0.382843, 0.087559, 9.798783,1,1
1778780941646,  1977.256,  1977.251, 0.050435,-0.007560,-0.986167, 0.000501,-0.000078,-0.009917, 0.047112,-0.019957,-0.237449,1, 0.005469, 0.012182, 0.000456,1,-0.382421, 0.087343, 9.798801,1,1
1778780941668,  1977.276,  1977.271, 0.034177,-0.006622,-0.980483, 0.000357,-0.000076,-0.009752, 0.047112,-0.019957,-0.237449,1, 0.005469, 0.012182, 0.000456,1,-0.382421, 0.087343, 9.798801,1,1
1778780941695,  1977.301,  1977.301, 0.038138,-0.013549,-1.017789, 0.000361,-0.000148,-0.010204,-0.008936,-0.044872,-0.182327,1,-0.000572, 0.007311, 0.000217,1,-0.383173, 0.087983, 9.798766,1,1
1778780941716,  1977.326,  1977.321, 0.036137,-0.003598,-0.991748, 0.000369,-0.000043,-0.009869, 0.038715, 0.024121, 0.241819,1,-0.003861, 0.003184,-0.000481,1,-0.385335, 0.087923, 9.798682,1,1
1778780941738,  1977.346,  1977.341, 0.041571,-0.012239,-1.016688, 0.000399,-0.000125,-0.010211,-0.062437,-0.006581,-0.192008,1, 0.000834,-0.010665, 0.000193,1,-0.382762, 0.086744, 9.798794,1,1
1778780941765,  1977.371,  1977.371, 0.042030,-0.006902,-0.964042, 0.000435,-0.000062,-0.009646, 0.026295, 0.021262, 0.344627,1, 0.000300, 0.004788, 0.000564,1,-0.386028, 0.088956, 9.798645,1,1
1778780941786,  1977.396,  1977.391, 0.039749,-0.013492,-1.017390, 0.000387,-0.000140,-0.010206,-0.086165,-0.010994,-0.109168,1,-0.005966,-0.012724, 0.000855,1,-0.383500, 0.087161, 9.798760,1,1
1778780941809,  1977.416,  1977.416, 0.040426,-0.006769,-0.972881, 0.000418,-0.000062,-0.009741, 0.010876, 0.021931, 0.257965,1, 0.001435, 0.003560, 0.000342,1,-0.385682, 0.088359, 9.798664,1,1
1778780941835,  1977.441,  1977.441, 0.032818,-0.010588,-1.012185, 0.000330,-0.000095,-0.010091,-0.061787,-0.016410,-0.127389,1,-0.001993,-0.011607, 0.000495,1,-0.383258, 0.087362, 9.798769,1,1
1778780941856,  1977.466,  1977.461, 0.041726,-0.007693,-0.973047, 0.000433,-0.000074,-0.009728, 0.094893,-0.009811, 0.076407,1, 0.004469, 0.015068, 0.000481,1,-0.385301, 0.088004, 9.798683,1,1
1778780941879,  1977.486,  1977.486, 0.032909,-0.009397,-1.012381, 0.000322,-0.000085,-0.010088,-0.061618,-0.005306,-0.129338,1,-0.004588,-0.009597,-0.000396,1,-0.384050, 0.086706, 9.798743,1,1
1778780941905,  1977.511,  1977.511, 0.045889,-0.005436,-0.988434, 0.000452,-0.000059,-0.009921, 0.064412, 0.033717, 0.105457,1, 0.003700, 0.015561,-0.000235,1,-0.386095, 0.087140, 9.798659,1,1
1778780941926,  1977.536,  1977.531, 0.031467,-0.010091,-1.016648, 0.000306,-0.000087,-0.010142,-0.063568, 0.022962, 0.093796,1,-0.007396,-0.014743, 0.000398,1,-0.385285, 0.086473, 9.798697,1,1
1778780941949,  1977.556,  1977.556, 0.051334,-0.008038,-0.987950, 0.000521,-0.000086,-0.009931, 0.117740, 0.008833, 0.110195,1, 0.008909, 0.015739,-0.000982,1,-0.386167, 0.087932, 9.798649,1,1
1778780941975,  1977.581,  1977.581, 0.031300,-0.008188,-0.982698, 0.000332,-0.000076,-0.009787, 0.026592, 0.037960, 0.324632,1, 0.000253, 0.002023, 0.000955,1,-0.386675, 0.088079, 9.798628,1,1
1778780941997,  1977.606,  1977.601, 0.043461,-0.009086,-0.992325, 0.000435,-0.000099,-0.009973,-0.013892,-0.064456,-0.185764,1, 0.002395, 0.004246,-0.000704,1,-0.384205, 0.087437, 9.798731,1,1
1778780942019,  1977.626,  1977.626, 0.035908,-0.001549,-0.989111, 0.000365,-0.000024,-0.009856,-0.033312, 0.071754, 0.098821,1,-0.011952,-0.012736, 0.000543,1,-0.385049, 0.086596, 9.798705,1,1
1778780942045,  1977.651,  1977.651, 0.048659,-0.008860,-1.013627, 0.000471,-0.000110,-0.010172, 0.092835,-0.000504,-0.141551,1, 0.007998, 0.009674,-0.000643,1,-0.384645, 0.086629, 9.798720,1,1
1778780942067,  1977.676,  1977.671, 0.030048,-0.007697,-0.987610, 0.000310,-0.000086,-0.009804, 0.014814,-0.006943, 0.358234,1,-0.001208, 0.002200, 0.000222,1,-0.387063, 0.087755, 9.798615,1,1
1778780942089,  1977.696,  1977.696, 0.038917,-0.013551,-1.022503, 0.000354,-0.000146,-0.010268,-0.002271,-0.046796,-0.228580,1, 0.000090, 0.009690,-0.000163,1,-0.384219, 0.086097, 9.798742,1,1
1778780942115,  1977.721,  1977.721, 0.041619,-0.006061,-0.972794, 0.000430,-0.000050,-0.009738, 0.021969, 0.027332, 0.258804,1, 0.001145, 0.003280, 0.000365,1,-0.386274, 0.086807, 9.798656,1,1
1778780942137,  1977.746,  1977.741, 0.043969,-0.012217,-1.002469, 0.000436,-0.000130,-0.010075,-0.006196,-0.037979,-0.091116,1, 0.003316,-0.006850,-0.000193,1,-0.384559, 0.086805, 9.798722,1,1
1778780942160,  1977.771,  1977.766, 0.032198,-0.006418,-0.971595, 0.000352,-0.000063,-0.009702,-0.070713, 0.024332, 0.270547,1,-0.010022,-0.006782, 0.000574,1,-0.386253, 0.086961, 9.798655,1,1
1778780942185,  1977.791,  1977.791, 0.032535,-0.010605,-1.027275, 0.000308,-0.000092,-0.010250,-0.064439,-0.018911,-0.275345,1,-0.003502,-0.009136,-0.000510,1,-0.383216, 0.084975, 9.798791,1,1
1778780942207,  1977.816,  1977.811, 0.046379,-0.007724,-0.967450, 0.000477,-0.000073,-0.009663, 0.120252, 0.032883, 0.142541,1, 0.012081, 0.017491,-0.000913,1,-0.385889, 0.086654, 9.798672,1,1
1778780942230,  1977.841,  1977.836, 0.033638,-0.012482,-1.009028, 0.000324,-0.000112,-0.010058,-0.054664,-0.035555,-0.096459,1, 0.000743,-0.007017, 0.000282,1,-0.384327, 0.086869, 9.798731,1,1
1778780942255,  1977.861,  1977.861, 0.041653,-0.008702,-0.985550, 0.000415,-0.000100,-0.009871, 0.022753, 0.001417, 0.133733,1,-0.003428, 0.007369,-0.000256,1,-0.385956, 0.086646, 9.798669,1,1
1778780942277,  1977.886,  1977.881, 0.038457,-0.009378,-1.022042, 0.000364,-0.000100,-0.010217,-0.063017, 0.039743,-0.055608,1,-0.006260,-0.013984, 0.000266,1,-0.384058, 0.085108, 9.798757,1,1
1778780942300,  1977.911,  1977.906, 0.049778,-0.006057,-0.974220, 0.000509,-0.000086,-0.009784, 0.102270, 0.027487, 0.244837,1, 0.011143, 0.014523,-0.000011,1,-0.386340, 0.087237, 9.798649,1,1
1778780942325,  1977.931,  1977.931, 0.030364,-0.010989,-0.988432, 0.000315,-0.000119,-0.009852,-0.087675,-0.020618, 0.105477,1,-0.007812,-0.013759, 0.000253,1,-0.385012, 0.086900, 9.798704,1,1
1778780942347,  1977.956,  1977.951, 0.040851,-0.007353,-0.987290, 0.000415,-0.000061,-0.009925,-0.011144, 0.064128,-0.129708,1, 0.000844, 0.007721,-0.002182,1,-0.384568, 0.086367, 9.798726,1,1
1778780942370,  1977.981,  1977.971, 0.034902,-0.005560,-0.998319, 0.000360,-0.000049,-0.009945, 0.004997, 0.045608, 0.216496,1,-0.003603,-0.002116,-0.000157,1,-0.385997, 0.086079, 9.798673,1,1
1778780942395,  1978.001,  1978.001, 0.049578,-0.010460,-0.998177, 0.000495,-0.000118,-0.010025, 0.100945,-0.015797, 0.009928,1, 0.007330, 0.014171,-0.001213,1,-0.385688, 0.087006, 9.798676,1,1
1778780942417,  1978.026,  1978.021, 0.025835,-0.006964,-1.003997, 0.000259,-0.000068,-0.009981,-0.050392, 0.018390, 0.258195,1,-0.007855,-0.009458, 0.000030,1,-0.386228, 0.086785, 9.798657,1,1
1778780942440,  1978.051,  1978.046, 0.047033,-0.011006,-1.013101, 0.000454,-0.000118,-0.010182, 0.076949,-0.022157,-0.136386,1, 0.004034, 0.014746,-0.000069,1,-0.384749, 0.085900, 9.798723,1,1
1778780942466,  1978.071,  1978.071, 0.044016,-0.006554,-0.969318, 0.000448,-0.000058,-0.009670, 0.045290, 0.022563, 0.292890,1, 0.001361,-0.003331, 0.000744,1,-0.386253, 0.086877, 9.798656,1,1
1778780942487,  1978.096,  1978.091, 0.041977,-0.011672,-1.001910, 0.000421,-0.000123,-0.010076,-0.042065,-0.063438,-0.155514,1, 0.000255,-0.002833,-0.000581,1,-0.384077, 0.086539, 9.798744,1,1
1778780942514,  1978.121,  1978.121, 0.033576,-0.005820,-0.979557, 0.000350,-0.000053,-0.009765,-0.056684, 0.028882, 0.192505,1,-0.008926,-0.008128, 0.000650,1,-0.385694, 0.085677, 9.798688,1,1
1778780942536,  1978.141,  1978.141, 0.035956,-0.011974,-1.025503, 0.000349,-0.000113,-0.010257,-0.030875,-0.032418,-0.257969,1, 0.002470,-0.002622,-0.001274,1,-0.383402, 0.085081, 9.798783,1,1
1778780942557,  1978.166,  1978.161, 0.041203,-0.008607,-0.967796, 0.000424,-0.000096,-0.009644, 0.112104, 0.032641, 0.252385,1, 0.007606, 0.011160, 0.000199,1,-0.386062, 0.086732, 9.798664,1,1
1778780942584,  1978.191,  1978.191, 0.033152,-0.019996,-1.015346, 0.000297,-0.000190,-0.010140,-0.058555,-0.109968,-0.158376,1,-0.004372,-0.002241, 0.000247,1,-0.383594, 0.085986, 9.798768,1,1
1778780942606,  1978.216,  1978.211, 0.036343,-0.006541,-0.980285, 0.000352,-0.000065,-0.009785,-0.015849, 0.046973, 0.100921,1, 0.003034, 0.007710, 0.000214,1,-0.385037, 0.086011, 9.798711,1,1
1778780942627,  1978.236,  1978.231, 0.038755,-0.011758,-1.018867, 0.000360,-0.000113,-0.010181,-0.044175, 0.013711, 0.007147,1,-0.003351,-0.015941,-0.000224,1,-0.383553, 0.085444, 9.798774,1,1
1778780942654,  1978.261,  1978.261, 0.047221,-0.008675,-0.972301, 0.000491,-0.000085,-0.009751, 0.077702, 0.001520, 0.263681,1, 0.006743, 0.012374, 0.000382,1,-0.385759, 0.086802, 9.798676,1,1
1778780942676,  1978.286,  1978.281, 0.029299,-0.015104,-1.028619, 0.000273,-0.000141,-0.010278,-0.126814,-0.014325,-0.033698,1,-0.008501,-0.019079, 0.000595,1,-0.383395, 0.085554, 9.798779,1,1
1778780942697,  1978.306,  1978.301, 0.046313,-0.005302,-0.978512, 0.000472,-0.000052,-0.009825, 0.035512,-0.014998,-0.110666,1, 0.000873, 0.015617,-0.000313,1,-0.384017, 0.085120, 9.798759,1,1
1778780942724,  1978.331,  1978.331, 0.037339,-0.006064,-0.998303, 0.000387,-0.000058,-0.009949,-0.018069, 0.025720, 0.008741,1,-0.000504,-0.014380, 0.000184,1,-0.383790, 0.085172, 9.798767,1,1
1778780942746,  1978.356,  1978.351, 0.044163,-0.006790,-0.975912, 0.000456,-0.000075,-0.009770, 0.087232,-0.023785, 0.008231,1, 0.003591, 0.013174,-0.000890,1,-0.384709, 0.085975, 9.798724,1,1
1778780942767,  1978.376,  1978.371, 0.030043,-0.006687,-1.006295, 0.000299,-0.000060,-0.010017,-0.048691, 0.040949, 0.184041,1,-0.009055,-0.008891, 0.000674,1,-0.384869, 0.085096, 9.798725,1,1
1778780942794,  1978.401,  1978.401, 0.044926,-0.008070,-1.008077, 0.000441,-0.000100,-0.010127, 0.057138, 0.005708,-0.087076,1, 0.008323, 0.012838,-0.001184,1,-0.383839, 0.085110, 9.798765,1,1
1778780942816,  1978.426,  1978.421, 0.029835,-0.007031,-0.995791, 0.000305,-0.000061,-0.009913,-0.020636, 0.017763, 0.271063,1,-0.001180,-0.005175,-0.000294,1,-0.384878, 0.086261, 9.798715,1,1
1778780942838,  1978.446,  1978.441, 0.045561,-0.012113,-1.001845, 0.000450,-0.000125,-0.010069,-0.042390,-0.056723,-0.178670,1,-0.001548, 0.000393,-0.000191,1,-0.383024, 0.085743, 9.798792,1,1
1778780942865,  1978.471,  1978.471, 0.036616,-0.007439,-0.975398, 0.000384,-0.000068,-0.009737,-0.026220, 0.012739, 0.233315,1,-0.005216,-0.005624,-0.000232,1,-0.385126, 0.085532, 9.798712,1,1
1778780942886,  1978.496,  1978.491, 0.043765,-0.009925,-1.000728, 0.000440,-0.000101,-0.010053,-0.042520,-0.061953,-0.177342,1,-0.000820,-0.002272,-0.000425,1,-0.383119, 0.084854, 9.798796,1,1
1778780942908,  1978.516,  1978.511, 0.037236,-0.007220,-0.977861, 0.000380,-0.000068,-0.009745, 0.035043, 0.024106, 0.219710,1, 0.002113, 0.009213, 0.000671,1,-0.385308, 0.085176, 9.798707,1,1
1778780942935,  1978.541,  1978.541, 0.036342,-0.010780,-1.024201, 0.000334,-0.000110,-0.010230,-0.026578,-0.021557,-0.245173,1, 0.001159,-0.000952,-0.000309,1,-0.382945, 0.084191, 9.798808,1,1
1778780942956,  1978.566,  1978.561, 0.038063,-0.005023,-0.973548, 0.000391,-0.000038,-0.009700, 0.096341, 0.067257, 0.217674,1, 0.005593, 0.011188,-0.000218,1,-0.385660, 0.085336, 9.798692,1,1
1778780942978,  1978.586,  1978.581, 0.034641,-0.015718,-1.019690, 0.000324,-0.000139,-0.010175,-0.065653, 0.024171, 0.025157,1,-0.002975,-0.014165,-0.000039,1,-0.383943, 0.084937, 9.798763,1,1
1778780943005,  1978.611,  1978.611, 0.043643,-0.004666,-0.982505, 0.000449,-0.000047,-0.009853, 0.042975, 0.039591, 0.163630,1, 0.002787, 0.009724, 0.000112,1,-0.385321, 0.085431, 9.798705,1,1
1778780943026,  1978.636,  1978.631, 0.039814,-0.012044,-1.021085, 0.000383,-0.000115,-0.010211,-0.054508, 0.027182,-0.006399,1,-0.004922,-0.015045, 0.000027,1,-0.383467, 0.084435, 9.798786,1,1
1778780943049,  1978.656,  1978.656, 0.046865,-0.008109,-0.968906, 0.000489,-0.000068,-0.009732, 0.074001, 0.006129, 0.296971,1, 0.007537, 0.012984, 0.000556,1,-0.385996, 0.085891, 9.798675,1,1
1778780943075,  1978.681,  1978.681, 0.023825,-0.006649,-1.000956, 0.000256,-0.000057,-0.009959,-0.034849, 0.001733, 0.295809,1,-0.002834,-0.009688, 0.000758,1,-0.385410, 0.085776, 9.798698,1,1
1778780943096,  1978.706,  1978.701, 0.046930,-0.004226,-0.977173, 0.000471,-0.000039,-0.009809, 0.062782,-0.001796,-0.131756,1, 0.000986, 0.014323,-0.001049,1,-0.384052, 0.084727, 9.798760,1,1
1778780943119,  1978.726,  1978.726, 0.034033,-0.006287,-0.993311, 0.000359,-0.000062,-0.009884,-0.050664, 0.023773, 0.057684,1,-0.002267,-0.019926, 0.000031,1,-0.383796, 0.085355, 9.798765,1,1
1778780943145,  1978.751,  1978.751, 0.043058,-0.014796,-1.006432, 0.000417,-0.000157,-0.010108, 0.038518,-0.059216,-0.070966,1, 0.004188, 0.013738,-0.000774,1,-0.384167, 0.086011, 9.798745,1,1
1778780943166,  1978.776,  1978.771, 0.031169,-0.007487,-1.000020, 0.000322,-0.000068,-0.009957,-0.026781, 0.011106, 0.245875,1,-0.008663,-0.006054, 0.000176,1,-0.385067, 0.085587, 9.798714,1,1
1778780943189,  1978.796,  1978.796, 0.045047,-0.011529,-1.007398, 0.000445,-0.000118,-0.010139, 0.058452,-0.028370,-0.080414,1, 0.006159, 0.015336,-0.000540,1,-0.383784, 0.084884, 9.798770,1,1
1778780943215,  1978.821,  1978.821, 0.040015,-0.008064,-0.967970, 0.000415,-0.000074,-0.009666, 0.007031, 0.006714, 0.306157,1,-0.002815,-0.002489,-0.000005,1,-0.385300, 0.085710, 9.798703,1,1
1778780943237,  1978.846,  1978.841, 0.043830,-0.011531,-1.008495, 0.000436,-0.000115,-0.010129,-0.057604,-0.034305,-0.195590,1,-0.003441,-0.003777, 0.000050,1,-0.383032, 0.084538, 9.798802,1,1
1778780943259,  1978.866,  1978.866, 0.042234,-0.005195,-0.980717, 0.000430,-0.000054,-0.009783, 0.028765, 0.034215, 0.181152,1,-0.003722,-0.003860,-0.000477,1,-0.385285, 0.085040, 9.798710,1,1
1778780943285,  1978.891,  1978.891, 0.043505,-0.009109,-1.015248, 0.000417,-0.000084,-0.010147, 0.042645,-0.005169,-0.157415,1, 0.001048, 0.000808,-0.000861,1,-0.384014, 0.084189, 9.798767,1,1
1778780943307,  1978.916,  1978.911, 0.044269,-0.005020,-0.976249, 0.000448,-0.000047,-0.009717, 0.135097, 0.043930, 0.250719,1, 0.005374, 0.010628,-0.000777,1,-0.386682, 0.085589, 9.798650,1,1
1778780943329,  1978.936,  1978.936, 0.049569,-0.010607,-1.024209, 0.000470,-0.000100,-0.010235, 0.101383,-0.020142,-0.245321,1,-0.003766, 0.000543,-0.002362,1,-0.384738, 0.083754, 9.798742,1,1
1778780943355,  1978.961,  1978.961, 0.057072,-0.002743,-0.971610, 0.000588,-0.000029,-0.009758, 0.172275, 0.058292, 0.270386,1, 0.012550, 0.014108,-0.001730,1,-0.387853, 0.085580, 9.798603,1,1
1778780943377,  1978.986,  1978.981, 0.053745,-0.015139,-1.026078, 0.000516,-0.000142,-0.010263, 0.059343,-0.017955,-0.019571,1,-0.007888,-0.016359,-0.001078,1,-0.385951, 0.085431, 9.798680,1,1
1778780943400,  1979.011,  1979.006, 0.055153,-0.005526,-0.964520, 0.000573,-0.000060,-0.009688, 0.152670, 0.031431, 0.339879,1, 0.009073, 0.011634,-0.000921,1,-0.388558, 0.085901, 9.798573,1,1
1778780943425,  1979.031,  1979.031, 0.038628,-0.009233,-1.014065, 0.000383,-0.000089,-0.010079,-0.007619,-0.005395,-0.145914,1,-0.008646,-0.023571,-0.000741,1,-0.385878, 0.084833, 9.798688,1,1
1778780943447,  1979.056,  1979.051, 0.059930,-0.004414,-0.956561, 0.000616,-0.000047,-0.009587, 0.241479,-0.009624, 0.003162,1, 0.003339, 0.023202, 0.000685,1,-0.387844, 0.084406, 9.798615,1,1
1778780943470,  1979.081,  1979.071, 0.040216,-0.004963,-1.014624, 0.000403,-0.000050,-0.010072, 0.075496, 0.023205, 0.272650,1,-0.003319,-0.018162,-0.000662,1,-0.387935, 0.085159, 9.798604,1,1
1778780943495,  1979.101,  1979.101, 0.057285,-0.008050,-0.993246, 0.000556,-0.000089,-0.010007, 0.174955, 0.005301, 0.058236,1, 0.006551, 0.025171, 0.000651,1,-0.387599, 0.084446, 9.798623,1,1
1778780943517,  1979.126,  1979.121, 0.045169,-0.006117,-1.020283, 0.000451,-0.000049,-0.010146, 0.078711, 0.034761, 0.213072,1,-0.006033,-0.018358,-0.000370,1,-0.387293, 0.085100, 9.798630,1,1
1778780943540,  1979.151,  1979.146, 0.061367,-0.007642,-0.987658, 0.000619,-0.000080,-0.009964, 0.214764, 0.009818, 0.113027,1, 0.008888, 0.024946, 0.000486,1,-0.387820, 0.085035, 9.798610,1,1
1778780943565,  1979.171,  1979.171, 0.043365,-0.009489,-0.976958, 0.000444,-0.000081,-0.009703, 0.037216,-0.006807, 0.217908,1,-0.003034,-0.016419,-0.000562,1,-0.387542, 0.086148, 9.798611,1,1
1778780943587,  1979.191,  1979.191, 0.053462,-0.012212,-1.028123, 0.000521,-0.000120,-0.010338, 0.138621,-0.035214,-0.283741,1,-0.003021, 0.010034,-0.000901,1,-0.385972, 0.084452, 9.798688,1,1
1778780943610,  1979.221,  1979.211, 0.059857,-0.006659,-0.994457, 0.000592,-0.000084,-0.009860, 0.159412, 0.006891, 0.397050,1, 0.008086, 0.003477,-0.001674,1,-0.389327, 0.086331, 9.798538,1,1
1778780943636,  1979.241,  1979.241, 0.055364,-0.007129,-1.001501, 0.000543,-0.000074,-0.010111, 0.154940, 0.015239,-0.022770,1, 0.011694, 0.027289,-0.001771,1,-0.388851, 0.085515, 9.798565,1,1
1778780943657,  1979.266,  1979.261, 0.054789,-0.008331,-1.023617, 0.000528,-0.000090,-0.010154, 0.199565,-0.037216, 0.321206,1,-0.008113,-0.019704,-0.002805,1,-0.390321, 0.086900, 9.798494,1,1
1778780943680,  1979.291,  1979.286, 0.065491,-0.013924,-0.995496, 0.000649,-0.000133,-0.010020, 0.252690,-0.051420, 0.036053,1, 0.011753, 0.021125,-0.002686,1,-0.390214, 0.085490, 9.798511,1,1
1778780943706,  1979.311,  1979.311, 0.054019,-0.008524,-0.983757, 0.000541,-0.000081,-0.009747, 0.139746, 0.002665, 0.151147,1,-0.000177,-0.020674,-0.002349,1,-0.389354, 0.086246, 9.798538,1,1
1778780943727,  1979.336,  1979.331, 0.057451,-0.016165,-0.984131, 0.000581,-0.000174,-0.009895, 0.131292,-0.094188,-0.150367,1, 0.001456, 0.010909,-0.000859,1,-0.388362, 0.085411, 9.798585,1,1
1778780943754,  1979.361,  1979.361, 0.046049, 0.002479,-0.998574, 0.000487, 0.000033,-0.009951, 0.063700, 0.108048, 0.005950,1,-0.009170,-0.018890,-0.001386,1,-0.387299, 0.083448, 9.798644,1,1
1778780943776,  1979.381,  1979.381, 0.038293,-0.008554,-1.001626, 0.000386,-0.000079,-0.010071,-0.010979, 0.000107,-0.023924,1, 0.007509, 0.005353, 0.000178,1,-0.386674, 0.084230, 9.798662,1,1
1778780943797,  1979.406,  1979.401, 0.040284,-0.003962,-0.997086, 0.000401,-0.000036,-0.009930,-0.001342, 0.030769, 0.197246,1, 0.001046,-0.005094,-0.000409,1,-0.386852, 0.085173, 9.798647,1,1
1778780943824,  1979.431,  1979.431, 0.056574,-0.002450,-1.012073, 0.000551,-0.000045,-0.010146, 0.169135, 0.059798,-0.126339,1,-0.004852, 0.007219,-0.001070,1,-0.386017, 0.083652, 9.798693,1,1
1778780943846,  1979.456,  1979.451, 0.038352,-0.003850,-0.969911, 0.000405,-0.000027,-0.009647, 0.139549, 0.121027, 0.396267,1, 0.015513, 0.005789,-0.000354,1,-0.388377, 0.085839, 9.798580,1,1
1778780943867,  1979.476,  1979.471, 0.038340,-0.018836,-1.025141, 0.000354,-0.000200,-0.010259,-0.091677,-0.079952,-0.067912,1, 0.004342,-0.017215, 0.000197,1,-0.385306, 0.087606, 9.798686,1,1
1778780943894,  1979.501,  1979.501, 0.058732,-0.000124,-0.982438, 0.000580,-0.000005,-0.009842, 0.188786, 0.085202, 0.164192,1,-0.000876, 0.009285,-0.002034,1,-0.387472, 0.086386, 9.798612,1,1
1778780943916,  1979.526,  1979.521, 0.056230,-0.014982,-1.007545, 0.000557,-0.000141,-0.010108, 0.133065, 0.000335,-0.029138,1, 0.010920,-0.008686,-0.001917,1,-0.385985, 0.087477, 9.798660,1,1
1778780943937,  1979.546,  1979.541, 0.049137,-0.014717,-0.965028, 0.000515,-0.000144,-0.009654, 0.170977,-0.061258, 0.167337,1, 0.012518, 0.015480,-0.002279,1,-0.387931, 0.090213, 9.798559,1,1
1778780943964,  1979.571,  1979.571, 0.035641,-0.016537,-1.020267, 0.000359,-0.000164,-0.010158,-0.036087,-0.073137,-0.206742,1,-0.015396,-0.020001,-0.003134,1,-0.384985, 0.088549, 9.798690,1,1
1778780943986,  1979.596,  1979.591, 0.059898,-0.003972,-0.968869, 0.000596,-0.000035,-0.009706, 0.150287, 0.049757,-0.029274,1, 0.000384, 0.017769,-0.003193,1,-0.386322, 0.086911, 9.798653,1,1
1778780944007,  1979.616,  1979.611, 0.052640,-0.019754,-1.007471, 0.000529,-0.000204,-0.010025, 0.171957,-0.048294, 0.227609,1, 0.013626,-0.013053,-0.002881,1,-0.386733, 0.089588, 9.798612,1,1
1778780944034,  1979.641,  1979.641, 0.038979,-0.009660,-0.980177, 0.000398,-0.000107,-0.009844,-0.004491,-0.004993, 0.186356,1,-0.003056, 0.011018,-0.002922,1,-0.387098, 0.089639, 9.798597,1,1
1778780944056,  1979.666,  1979.661, 0.046296,-0.009324,-1.042183, 0.000433,-0.000100,-0.010393,-0.049841,-0.015713,-0.045242,1,-0.018490,-0.024771,-0.002115,1,-0.384435, 0.087030, 9.798725,1,1
1778780944078,  1979.686,  1979.681, 0.056413, 0.001971,-0.967652, 0.000571, 0.000020,-0.009756, 0.178775, 0.054801,-0.242766,1, 0.002928, 0.020001,-0.002864,1,-0.384441, 0.085733, 9.798737,1,1
1778780944105,  1979.711,  1979.711, 0.037990,-0.010426,-0.998212, 0.000392,-0.000103,-0.009895,-0.012212,-0.014001, 0.009582,1,-0.002689,-0.028952,-0.003252,1,-0.383860, 0.088156, 9.798738,1,1
1778780944126,  1979.736,  1979.731, 0.041841,-0.002461,-0.958107, 0.000413,-0.000005,-0.009619, 0.008885, 0.081013,-0.073464,1, 0.000774, 0.025924,-0.001516,1,-0.385019, 0.087646, 9.798697,1,1
1778780944148,  1979.756,  1979.751, 0.078013,-0.012376,-1.044662, 0.000738,-0.000119,-0.010352, 0.093740,-0.016272, 0.227790,1,-0.007565,-0.019786,-0.001860,1,-0.385685, 0.087459, 9.798673,1,1
1778780944175,  1979.781,  1979.781, 0.099461, 0.013992,-0.966639, 0.001046, 0.000128,-0.009836, 0.586658, 0.225504, 0.319052,1, 0.030312, 0.057298,-0.002409,1,-0.390509, 0.089228, 9.798466,1,1
1778780944196,  1979.806,  1979.801, 0.047406,-0.030568,-1.030991, 0.000431,-0.000307,-0.010119,-0.000176,-0.083004, 0.870004,1, 0.010752,-0.030458,-0.003524,1,-0.392298, 0.093762, 9.798351,1,1
1778780944218,  1979.826,  1979.821, 0.089798, 0.014509,-1.017234, 0.000889, 0.000150,-0.010341, 0.338558, 0.012797,-0.828892,1,-0.037425, 0.011777,-0.006168,1,-0.387656, 0.088614, 9.798584,1,1
1778780944245,  1979.851,  1979.851, 0.092703, 0.001508,-0.962455, 0.000980, 0.000004,-0.009514, 0.514385, 0.100166, 0.359867,1, 0.012762,-0.041909,-0.005231,1,-0.393412, 0.085770, 9.798380,1,1
1778780944266,  1979.876,  1979.871, 0.090955,-0.039479,-0.953064, 0.000830,-0.000332,-0.009581, 0.104252, 0.002551,-0.105441,1, 0.055109, 0.033727,-0.004049,1,-0.392001, 0.096225, 9.798340,1,1
1778780944289,  1979.896,  1979.896, 0.161881,-0.005656,-1.014768, 0.001650,-0.000092,-0.010084, 1.191324, 0.033008,-0.153227,1,-0.033910,-0.004945,-0.009140,1,-0.396038, 0.087407, 9.798260,1,1
1778780944315,  1979.921,  1979.921, 0.141094, 0.002595,-0.932307, 0.001467, 0.000097,-0.009422, 0.981293, 0.117504, 0.655151,1, 0.027879, 0.039214,-0.004143,1,-0.403590, 0.092922, 9.797901,1,1
1778780944336,  1979.946,  1979.941, 0.123018,-0.005961,-1.026671, 0.001174,-0.000037,-0.010276, 0.630560, 0.022192, 0.165130,1,-0.001791,-0.024352,-0.008260,1,-0.401306, 0.093058, 9.797994,1,1
1778780944359,  1979.966,  1979.966, 0.176914,-0.001885,-0.975225, 0.001798,-0.000073,-0.009726, 1.326702, 0.069289, 0.234067,1,-0.024429, 0.009219,-0.009210,1,-0.408522, 0.086998, 9.797751,1,1
1778780944385,  1979.991,  1979.991, 0.170329, 0.002216,-1.006500, 0.001724, 0.000073,-0.010111, 1.261085, 0.109622,-0.072678,1, 0.023852, 0.021762,-0.007586,1,-0.409950, 0.088623, 9.797677,1,1
1778780944406,  1980.016,  1980.011, 0.163015,-0.018928,-0.957869, 0.001615,-0.000158,-0.009538, 1.035416, 0.026018, 0.582845,1, 0.040794, 0.030969,-0.010887,1,-0.417063, 0.097915, 9.797288,1,1
1778780944429,  1980.036,  1980.036, 0.178934, 0.009147,-1.008205, 0.001790, 0.000071,-0.010052, 1.334335, 0.177855,-0.089880,1,-0.002930, 0.011513,-0.012110,1,-0.420768, 0.088030, 9.797223,1,1
1778780944455,  1980.061,  1980.061, 0.171986,-0.003462,-0.983786, 0.001730,-0.000040,-0.009867, 1.262757, 0.053299, 0.149450,1,-0.013886, 0.011954,-0.008988,1,-0.424227, 0.086803, 9.797086,1,1
1778780944477,  1980.086,  1980.081, 0.199147,-0.018915,-0.977587, 0.002000,-0.000134,-0.009835, 1.380165, 0.121246,-0.052434,1, 0.014656, 0.021247,-0.011391,1,-0.425842, 0.089723, 9.796988,1,1
1778780944499,  1980.106,  1980.106, 0.166177, 0.003894,-0.986426, 0.001656, 0.000074,-0.009818, 1.199529, 0.127957, 0.123270,1, 0.010742, 0.002819,-0.010723,1,-0.430203, 0.090093, 9.796795,1,1
1778780944525,  1980.131,  1980.131, 0.159679,-0.003154,-1.022494, 0.001601,-0.000074,-0.010197, 1.136542, 0.055630,-0.230380,1,-0.007695,-0.004945,-0.012274,1,-0.429227, 0.086301, 9.796872,1,1
1778780944547,  1980.156,  1980.151, 0.200269, 0.001784,-0.971303, 0.002032,-0.000007,-0.009706, 1.581174, 0.065207, 0.010332,1,-0.013465, 0.026045,-0.009457,1,-0.433401, 0.086636, 9.796685,1,1
1778780944569,  1980.176,  1980.176, 0.176354, 0.001125,-0.993791, 0.001791, 0.000059,-0.009951, 1.294918, 0.100415, 0.050853,1, 0.004705, 0.000517,-0.010780,1,-0.434541, 0.089517, 9.796609,1,1
1778780944595,  1980.201,  1980.201, 0.167059, 0.006157,-1.026313, 0.001632, 0.000055,-0.010204, 1.204847, 0.150303,-0.268040,1, 0.008329,-0.006690,-0.015534,1,-0.433234, 0.090158, 9.796660,1,1
1778780944617,  1980.226,  1980.221, 0.195727, 0.007763,-1.002903, 0.001929, 0.000100,-0.010004, 1.381529, 0.093286,-0.074547,1,-0.001864, 0.011788,-0.014993,1,-0.434950, 0.087782, 9.796606,1,1
1778780944640,  1980.251,  1980.246, 0.170966,-0.005868,-0.986127, 0.001705,-0.000096,-0.009844, 1.240662, 0.033794, 0.125923,1, 0.025942, 0.001299,-0.017488,1,-0.435986, 0.092119, 9.796520,1,1
1778780944665,  1980.271,  1980.271, 0.174736,-0.021999,-0.989210, 0.001760,-0.000212,-0.009931, 1.240662, 0.033794, 0.125923,1, 0.025942, 0.001299,-0.017488,1,-0.435986, 0.092119, 9.796520,1,1
1778780944687,  1980.296,  1980.291, 0.170719,-0.013194,-0.987737, 0.001720,-0.000119,-0.009926, 1.348449, 0.122067,-0.067727,1, 0.002002,-0.002727,-0.017455,1,-0.435895, 0.092426, 9.796522,1,1
1778780944710,  1980.321,  1980.316, 0.183028,-0.009105,-1.001619, 0.001839,-0.000072,-0.010030, 1.359116, 0.006299,-0.026034,1, 0.009576,-0.000739,-0.017596,1,-0.435761, 0.095858, 9.796494,1,1
1778780944735,  1980.341,  1980.341, 0.186742,-0.001912,-0.967454, 0.001857,-0.000016,-0.009658, 1.393718, 0.077002, 0.308933,1, 0.011326, 0.005970,-0.019183,1,-0.437791, 0.096082, 9.796402,1,1
1778780944757,  1980.366,  1980.361, 0.172958,-0.002837,-1.009048, 0.001720,-0.000005,-0.010050, 1.122003, 0.065833, 0.172435,1, 0.000661,-0.007218,-0.020086,1,-0.436587, 0.095110, 9.796465,1,1
1778780944780,  1980.391,  1980.386, 0.177877,-0.007184,-0.987716, 0.001731,-0.000109,-0.009862, 1.308173, 0.025423, 0.110291,1, 0.007951, 0.003510,-0.021593,1,-0.436318, 0.096094, 9.796468,1,1
1778780944805,  1980.411,  1980.411, 0.170231,-0.012300,-0.979657, 0.001716,-0.000112,-0.009833, 1.233295,-0.024486, 0.189323,1,-0.005633, 0.002911,-0.018967,1,-0.436198, 0.095934, 9.796474,1,1
1778780944827,  1980.436,  1980.431, 0.151222,-0.010202,-0.970998, 0.001499,-0.000116,-0.009715, 1.203817,-0.008676, 0.183059,1, 0.004441,-0.005025,-0.020867,1,-0.436407, 0.097926, 9.796446,1,1
1778780944850,  1980.461,  1980.456, 0.158622,-0.009034,-1.003581, 0.001632,-0.000090,-0.010064, 1.120278, 0.007256,-0.045251,1,-0.017309,-0.005884,-0.021962,1,-0.435093, 0.095275, 9.796530,1,1
1778780944876,  1980.481,  1980.481, 0.177937, 0.001563,-0.995775, 0.001789, 0.000037,-0.009949, 1.309399, 0.110870, 0.031293,1, 0.013012,-0.002884,-0.023376,1,-0.435482, 0.095916, 9.796507,1,1
1778780944897,  1980.506,  1980.501, 0.153510,-0.006838,-0.996115, 0.001577,-0.000047,-0.009946, 1.049982,-0.004091, 0.218304,1, 0.023892, 0.000059,-0.026175,1,-0.435193, 0.097847, 9.796500,1,1
1778780944920,  1980.531,  1980.526, 0.140986,-0.010863,-0.988702, 0.001381,-0.000125,-0.009858, 0.948888,-0.009057, 0.100718,1,-0.003416,-0.007001,-0.026785,1,-0.433499, 0.097326, 9.796580,1,1
1778780944946,  1980.551,  1980.551, 0.121071,-0.005542,-1.004608, 0.001238,-0.000053,-0.010091, 0.755800, 0.042117,-0.055165,1,-0.004495,-0.003568,-0.024017,1,-0.431397, 0.096291, 9.796683,1,1
1778780944967,  1980.576,  1980.571, 0.111204,-0.020089,-0.988250, 0.001103,-0.000209,-0.009883, 0.827328, 0.011157, 0.065784,1, 0.005113,-0.011326,-0.025140,1,-0.430913, 0.098917, 9.796679,1,1
1778780944994,  1980.601,  1980.601, 0.104422,-0.012723,-1.008482, 0.001065,-0.000115,-0.010077, 0.596566,-0.026588,-0.092988,1,-0.004738,-0.018678,-0.023981,1,-0.426886, 0.098000, 9.796865,1,1
1778780945016,  1980.621,  1980.621, 0.086249,-0.012556,-1.009265, 0.000861,-0.000154,-0.010075, 0.422116,-0.026992,-0.100488,1, 0.004131,-0.022017,-0.027063,1,-0.423020, 0.096235, 9.797050,1,1
1778780945037,  1980.646,  1980.641, 0.063044,-0.007028,-0.986417, 0.000634,-0.000092,-0.009855, 0.189753,-0.037708, 0.005433,1,-0.004303,-0.008088,-0.022888,1,-0.419962, 0.096559, 9.797178,1,1
1778780945064,  1980.671,  1980.671, 0.054076,-0.009394,-1.020753, 0.000545,-0.000088,-0.010239, 0.116987, 0.004508,-0.212711,1,-0.015491,-0.021634,-0.024362,1,-0.412649, 0.096118, 9.797493,1,1
1778780945086,  1980.696,  1980.691, 0.039515,-0.010468,-0.988808, 0.000420,-0.000125,-0.009910, 0.144173, 0.005444,-0.098669,1, 0.016983,-0.014463,-0.024426,1,-0.409816, 0.098559, 9.797587,1,1
1778780945107,  1980.716,  1980.711, 0.036540,-0.013734,-1.016421, 0.000363,-0.000153,-0.010147,-0.041056,-0.007843, 0.015988,1, 0.021536,-0.024776,-0.026047,1,-0.406045, 0.101384, 9.797716,1,1
1778780945134,  1980.741,  1980.741, 0.054043,-0.014025,-1.008052, 0.000507,-0.000160,-0.010081, 0.128116,-0.037253,-0.087719,1, 0.002209,-0.005327,-0.026052,1,-0.401709, 0.100323, 9.797905,1,1
1778780945156,  1980.766,  1980.761, 0.038378,-0.010997,-0.982804, 0.000362,-0.000118,-0.009804, 0.003635,-0.015798, 0.124649,1, 0.017615,-0.007678,-0.024872,1,-0.400202, 0.103065, 9.797938,1,1
1778780945177,  1980.786,  1980.781, 0.039658,-0.015573,-0.992701, 0.000380,-0.000160,-0.009946, 0.002652,-0.053823, 0.032506,1, 0.009577,-0.012027,-0.025535,1,-0.398163, 0.106157, 9.797989,1,1
1778780945204,  1980.811,  1980.811, 0.048230,-0.014944,-0.980459, 0.000512,-0.000157,-0.009798, 0.075052,-0.041600, 0.182990,1,-0.006794,-0.010433,-0.025793,1,-0.397603, 0.104702, 9.798027,1,1
1778780945226,  1980.836,  1980.831, 0.039967,-0.015597,-0.991924, 0.000441,-0.000153,-0.009982, 0.052894,-0.036565,-0.067567,1, 0.014711,-0.006955,-0.027947,1,-0.396190, 0.105373, 9.798077,1,1
1778780945248,  1980.856,  1980.851, 0.052449,-0.022328,-0.964712, 0.000529,-0.000250,-0.009618, 0.039994,-0.145009, 0.348265,1, 0.006721, 0.005840,-0.025232,1,-0.396902, 0.106777, 9.798033,1,1
1778780945274,  1980.881,  1980.881, 0.037035,-0.023839,-0.974399, 0.000340,-0.000240,-0.009754,-0.031113,-0.127052, 0.242550,1, 0.001661,-0.003553,-0.025473,1,-0.394198, 0.106748, 9.798142,1,1
1778780945296,  1980.906,  1980.901, 0.044829,-0.011722,-0.983605, 0.000417,-0.000127,-0.009821,-0.099079,-0.086552, 0.211561,1,-0.013839,-0.013017,-0.024313,1,-0.391944, 0.105066, 9.798251,1,1
1778780945318,  1980.926,  1980.921, 0.041997,-0.011220,-0.983183, 0.000421,-0.000117,-0.009853, 0.153742,-0.029191, 0.052829,1,-0.009858,-0.013658,-0.024641,1,-0.389914, 0.103395, 9.798350,1,1
1778780945345,  1980.951,  1980.951, 0.036279,-0.018478,-0.971976, 0.000391,-0.000176,-0.009725,-0.032432,-0.076918, 0.266578,1, 0.003134,-0.009062,-0.023561,1,-0.387937, 0.104353, 9.798418,1,1
1778780945366,  1980.976,  1980.971, 0.045922,-0.009837,-0.999069, 0.000462,-0.000112,-0.010011, 0.069113,-0.050900, 0.008932,1,-0.014693,-0.008704,-0.025796,1,-0.386122, 0.102747, 9.798507,1,1
1778780945388,  1980.996,  1980.991, 0.056489,-0.004436,-0.983187, 0.000574,-0.000044,-0.009825, 0.122781, 0.042057, 0.143513,1,-0.007934, 0.007570,-0.025601,1,-0.386833, 0.098807, 9.798519,1,1
1778780945415,  1981.021,  1981.021, 0.033699,-0.008962,-0.995544, 0.000327,-0.000075,-0.009954,-0.055729, 0.011080, 0.035591,1, 0.012772, 0.002954,-0.024461,1,-0.386306, 0.099338, 9.798534,1,1
1778780945436,  1981.046,  1981.041, 0.044834,-0.002356,-0.985175, 0.000433,-0.000026,-0.009848,-0.008830,-0.024284, 0.141059,1,-0.007376, 0.007869,-0.024624,1,-0.389083, 0.099752, 9.798421,1,1
1778780945458,  1981.066,  1981.061, 0.039148, 0.001817,-0.990035, 0.000380, 0.000003,-0.009878, 0.071308, 0.022901, 0.106431,1,-0.011039, 0.004409,-0.023579,1,-0.390593, 0.098870, 9.798369,1,0
1778780945485,  1981.091,  1981.091, 0.029136,-0.003246,-1.009060, 0.000290,-0.000052,-0.010106,-0.104711, 0.067164,-0.097119,1, 0.004750, 0.002189,-0.022619,1,-0.390517, 0.099116, 9.798370,1,0
1778780945506,  1981.116,  1981.111, 0.002445,-0.011031,-1.016467, 0.000015,-0.000110,-0.010140,-0.273966,-0.028362,-0.102140,1, 0.002672,-0.011565,-0.021863,1,-0.389467, 0.100341, 9.798399,1,0
1778780945529,  1981.136,  1981.136,-0.007714,-0.016947,-1.012950,-0.000086,-0.000184,-0.010132,-0.462139,-0.065219,-0.135132,1,-0.000514,-0.010298,-0.021014,1,-0.386179, 0.100931, 9.798524,1,0
1778780945555,  1981.161,  1981.161,-0.001423,-0.009885,-1.014439, 0.000002,-0.000110,-0.010160,-0.398128, 0.003677,-0.149643,1,-0.005674,-0.010604,-0.019575,1,-0.383851, 0.100415, 9.798620,1,0
1778780945576,  1981.186,  1981.181,-0.019606,-0.015701,-1.005183,-0.000166,-0.000176,-0.010021,-0.498112,-0.106801, 0.099735,1, 0.012262,-0.014739,-0.018811,1,-0.381938, 0.101553, 9.798683,1,0
1778780945599,  1981.206,  1981.206,-0.016905,-0.018337,-1.008682,-0.000193,-0.000183,-0.010106,-0.542805,-0.077843,-0.092927,1,-0.001064,-0.006213,-0.016574,1,-0.376831, 0.101924, 9.798877,1,0
1778780945625,  1981.231,  1981.231,-0.015227,-0.013048,-1.002222,-0.000131,-0.000146,-0.010040,-0.499079, 0.107699, 0.000985,1,-0.002441,-0.007090,-0.015073,1,-0.374879, 0.100471, 9.798967,1,0
1778780945646,  1981.256,  1981.251,-0.028396,-0.011176,-0.994402,-0.000291,-0.000118,-0.009933,-0.577890, 0.010596, 0.044890,1, 0.013253,-0.009412,-0.014681,1,-0.373314, 0.102412, 9.799006,1,0
1778780945669,  1981.276,  1981.276,-0.035191,-0.012634,-1.005853,-0.000347,-0.000149,-0.010073,-0.716458,-0.018138,-0.065001,1,-0.006190,-0.003460,-0.015078,1,-0.371252, 0.105547, 9.799052,1,0
1778780945695,  1981.301,  1981.301,-0.014797,-0.010523,-1.003224,-0.000133,-0.000121,-0.010034,-0.516577, 0.002517,-0.039224,1, 0.003685,-0.000874,-0.017225,1,-0.371442, 0.105808, 9.799042,1,0
1778780945717,  1981.321,  1981.321,-0.017900,-0.016119,-0.987860,-0.000205,-0.000142,-0.009861,-0.547509,-0.048884, 0.111391,1, 0.025667, 0.001342,-0.017134,1,-0.372016, 0.109973, 9.798974,1,0
1778780945739,  1981.346,  1981.346,-0.018797,-0.017869,-0.994895,-0.000197,-0.000166,-0.009954,-0.555680,-0.063758, 0.042392,1, 0.002312, 0.002126,-0.014868,1,-0.371412, 0.111531, 9.798980,1,0
1778780945765,  1981.371,  1981.371,-0.030002,-0.013634,-0.981951,-0.000321,-0.000146,-0.009786,-0.665276,-0.022795, 0.169352,1, 0.009508,-0.007888,-0.016507,1,-0.370813, 0.111184, 9.799006,1,0
1778780945787,  1981.396,  1981.391,-0.028386,-0.017227,-0.993919,-0.000289,-0.000171,-0.009961,-0.705930,-0.102742,-0.012936,1, 0.000284,-0.002295,-0.012889,1,-0.369142, 0.111997, 9.799060,1,0
1778780945809,  1981.416,  1981.416,-0.028501,-0.019817,-0.971019,-0.000288,-0.000212,-0.009705,-0.648844,-0.080699, 0.276585,1, 0.001464,-0.005950,-0.011883,1,-0.369167, 0.113675, 9.799040,1,0
1778780945835,  1981.441,  1981.441,-0.031795,-0.027707,-0.994774,-0.000313,-0.000275,-0.009952,-0.678712,-0.157009, 0.043709,1,-0.003489,-0.009326,-0.010715,1,-0.366619, 0.114589, 9.799125,1,0
1778780945857,  1981.466,  1981.461,-0.021614,-0.018745,-0.991936,-0.000214,-0.000195,-0.009924,-0.572615,-0.112656, 0.052071,1,-0.007541,-0.005274,-0.010352,1,-0.365705, 0.113466, 9.799171,1,0
1778780945880,  1981.491,  1981.486,-0.013023,-0.014271,-1.001187,-0.000139,-0.000130,-0.009983,-0.492395,-0.029295,-0.019053,1,-0.003051,-0.006407,-0.010840,1,-0.364486, 0.110545, 9.799251,1,0
1778780945905,  1981.511,  1981.511,-0.019099,-0.018357,-1.001064,-0.000221,-0.000174,-0.009993,-0.551346,-0.070658,-0.017808,1, 0.002643, 0.001938,-0.008651,1,-0.364115, 0.109437, 9.799277,1,0
1778780945927,  1981.536,  1981.531,-0.012534,-0.008932,-0.994296,-0.000162,-0.000101,-0.009927,-0.560017,-0.046035, 0.029270,1,-0.007060, 0.004571,-0.008630,1,-0.364713, 0.109006, 9.799259,1,0
1778780945950,  1981.561,  1981.556,-0.011761,-0.006039,-0.995499,-0.000123,-0.000071,-0.009973,-0.481527, 0.048449, 0.036711,1,-0.006484, 0.009451,-0.008138,1,-0.366491, 0.107464, 9.799211,1,0
1778780945975,  1981.581,  1981.581,-0.011903,-0.005857,-0.991623,-0.000114,-0.000055,-0.009921,-0.484772, 0.051964, 0.074627,1, 0.009334, 0.006688,-0.009790,1,-0.368257, 0.109686, 9.799119,1,0
1778780945997,  1981.606,  1981.601,-0.008138,-0.003086,-0.998512,-0.000070,-0.000019,-0.010005,-0.515470, 0.088617,-0.003203,1, 0.003522, 0.007750,-0.010533,1,-0.369358, 0.110059, 9.799074,1,0
1778780946020,  1981.631,  1981.626,-0.005387,-0.001557,-0.999165,-0.000059,-0.000009,-0.009975,-0.423745, 0.095184, 0.000545,1, 0.014269, 0.001885,-0.013060,1,-0.370946, 0.110897, 9.799005,1,0
1778780946045,  1981.651,  1981.651,-0.010383,-0.017505,-1.001034,-0.000106,-0.000173,-0.010003,-0.472826,-0.059495,-0.017807,1, 0.008433,-0.001644,-0.009880,1,-0.370958, 0.112418, 9.798986,1,0
1778780946067,  1981.676,  1981.671,-0.005604,-0.020027,-0.994351,-0.000068,-0.000210,-0.009953,-0.434212,-0.080008,-0.102851,1,-0.001502, 0.000092,-0.009923,1,-0.370593, 0.113605, 9.798986,1,0
1778780946090,  1981.701,  1981.696,-0.002149,-0.017946,-1.000251,-0.000027,-0.000181,-0.009983,-0.391301,-0.062708,-0.010105,1,-0.005407,-0.006448,-0.007234,1,-0.370032, 0.113108, 9.799013,1,0
1778780946116,  1981.721,  1981.721, 0.002736,-0.016578,-0.998670, 0.000008,-0.000176,-0.009987,-0.342830,-0.049938, 0.005425,1, 0.003015, 0.001580,-0.006050,1,-0.369716, 0.112719, 9.799030,1,0
1778780946137,  1981.746,  1981.741, 0.010285,-0.007964,-0.989826, 0.000099,-0.000098,-0.009904,-0.261544,-0.021822, 0.063896,1,-0.010561,-0.000949,-0.003604,1,-0.369796, 0.111551, 9.799041,1,0
1778780946160,  1981.771,  1981.766, 0.006378,-0.011327,-0.992394, 0.000080,-0.000113,-0.009929,-0.307733, 0.001194, 0.066952,1,-0.001177, 0.001001,-0.002934,1,-0.370315, 0.112238, 9.799013,1,0
1778780946186,  1981.791,  1981.791, 0.017719,-0.005757,-1.002590, 0.000172,-0.000063,-0.010024,-0.197167, 0.055777,-0.033063,1, 0.000849, 0.005050,-0.005355,1,-0.371090, 0.112259, 9.798984,1,0
1778780946207,  1981.816,  1981.811, 0.018248,-0.011339,-0.993879, 0.000193,-0.000100,-0.009927,-0.180847, 0.022050, 0.095191,1, 0.005528, 0.010221,-0.006171,1,-0.373021, 0.112175, 9.798911,1,0
1778780946234,  1981.841,  1981.841, 0.012860,-0.018797,-1.001011, 0.000122,-0.000197,-0.010005,-0.247599,-0.070152,-0.017708,1, 0.005455, 0.005824,-0.007132,1,-0.373895, 0.114347, 9.798853,1,0
1778780946256,  1981.861,  1981.861, 0.016405,-0.014346,-0.991521, 0.000157,-0.000140,-0.009917,-0.214269,-0.025808, 0.075299,1,-0.002205, 0.004774,-0.006012,1,-0.375295, 0.114798, 9.798794,1,0
1778780946277,  1981.886,  1981.881, 0.014298,-0.014336,-1.007728, 0.000130,-0.000131,-0.010081,-0.273482,-0.041775,-0.051676,1, 0.008588,-0.003448,-0.008262,1,-0.374677, 0.115003, 9.798815,1,0
1778780946304,  1981.911,  1981.911, 0.013655,-0.017615,-0.985663, 0.000128,-0.000186,-0.009850,-0.241702,-0.057356, 0.132721,1, 0.001759,-0.001289,-0.006821,1,-0.375574, 0.115437, 9.798776,1,0
1778780946326,  1981.936,  1981.931, 0.005894,-0.018722,-0.991442, 0.000067,-0.000167,-0.009931,-0.217857, 0.003596,-0.000820,1,-0.003684,-0.003356,-0.004822,1,-0.374733, 0.115362, 9.798809,1,0
1778780946347,  1981.956,  1981.951, 0.008012,-0.018691,-1.005469, 0.000101,-0.000184,-0.010050,-0.294139,-0.082904, 0.053720,1, 0.008943,-0.005375,-0.005534,1,-0.374234, 0.116864, 9.798810,1,0
1778780946374,  1981.981,  1981.981, 0.012736,-0.013753,-0.995076, 0.000110,-0.000140,-0.009969,-0.248458,-0.019226, 0.040499,1, 0.003698, 0.004429,-0.004879,1,-0.373491, 0.115754, 9.798851,1,0
1778780946396,  1982.006,  1982.001, 0.013238,-0.014457,-0.997479, 0.000124,-0.000132,-0.009965,-0.259541, 0.010541, 0.021517,1,-0.008216,-0.003589,-0.003122,1,-0.372898, 0.114545, 9.798888,1,0
1778780946417,  1982.026,  1982.021, 0.004232,-0.013320,-0.996683, 0.000044,-0.000122,-0.009953,-0.295670,-0.006544, 0.040109,1, 0.007648,-0.000651,-0.005146,1,-0.373072, 0.116269, 9.798862,1,0
1778780946444,  1982.051,  1982.051, 0.006698,-0.009961,-1.010355, 0.000047,-0.000108,-0.010095,-0.306591, 0.017604,-0.109294,1,-0.002043, 0.002567,-0.004074,1,-0.372356, 0.115223, 9.798901,1,0
1778780946466,  1982.076,  1982.071, 0.014056,-0.012663,-0.990293, 0.000149,-0.000131,-0.009905,-0.212120, 0.062958,-0.102693,1, 0.001514, 0.007328,-0.004435,1,-0.373061, 0.115393, 9.798872,1,0
1778780946488,  1982.096,  1982.091, 0.006624,-0.011946,-0.999944, 0.000086,-0.000107,-0.010014,-0.234030, 0.022675, 0.022572,1, 0.008495, 0.001206,-0.005171,1,-0.374677, 0.117570, 9.798784,1,0
1778780946515,  1982.121,  1982.121, 0.005882,-0.013565,-0.994780, 0.000062,-0.000147,-0.009948,-0.318132,-0.015284, 0.043282,1, 0.002652, 0.003594,-0.005968,1,-0.375929, 0.117820, 9.798734,1,0
1778780946536,  1982.146,  1982.141, 0.012213,-0.015939,-0.996021, 0.000116,-0.000168,-0.009966,-0.279407,-0.005046,-0.020414,1,-0.002044, 0.000900,-0.004314,1,-0.376107, 0.117106, 9.798736,1,0
1778780946558,  1982.166,  1982.161, 0.015641,-0.009408,-0.987216, 0.000161,-0.000085,-0.009869,-0.206447, 0.027847, 0.085119,1, 0.012115, 0.004650,-0.006159,1,-0.377152, 0.119056, 9.798672,1,0
1778780946585,  1982.191,  1982.191, 0.019238,-0.020016,-0.995017, 0.000172,-0.000212,-0.009921,-0.188216,-0.076733, 0.040888,1, 0.004537,-0.004311,-0.005313,1,-0.376746, 0.119694, 9.798679,1,0
1778780946606,  1982.216,  1982.211, 0.055289,-0.012198,-0.982246, 0.000537,-0.000122,-0.009849, 0.042215, 0.016401,-0.023781,1,-0.004399, 0.011481,-0.003675,1,-0.377429, 0.119671, 9.798654,1,0
1778780946628,  1982.236,  1982.231, 0.044749,-0.005121,-0.963204, 0.000478,-0.000049,-0.009640, 0.199515, 0.033784, 0.285973,1, 0.008338, 0.014075,-0.006826,1,-0.380168, 0.120105, 9.798542,1,0
1778780946655,  1982.261,  1982.261, 0.030628,-0.024409,-0.996922, 0.000308,-0.000243,-0.009930,-0.080243,-0.118416, 0.022049,1,-0.012999,-0.008171,-0.005150,1,-0.380344, 0.120543, 9.798530,1,0
1778780946676,  1982.286,  1982.281, 0.055284,-0.008120,-0.992767, 0.000559,-0.000075,-0.009984, 0.143987, 0.022638,-0.276162,1,-0.011212, 0.015058,-0.005842,1,-0.381139, 0.117205, 9.798540,1,0
1778780946698,  1982.306,  1982.301, 0.034244,-0.012913,-0.985979, 0.000349,-0.000146,-0.009809, 0.057055,-0.015402, 0.293768,1, 0.019104, 0.008050,-0.007542,1,-0.384606, 0.119407, 9.798378,1,0
1778780946725,  1982.331,  1982.331, 0.043652,-0.027207,-1.010488, 0.000408,-0.000277,-0.010131, 0.043916,-0.146414,-0.111116,1,-0.011694, 0.014050,-0.002960,1,-0.384607, 0.120032, 9.798370,1,0
1778780946746,  1982.356,  1982.351, 0.039623,-0.007616,-0.994454, 0.000407,-0.000070,-0.009922, 0.039350, 0.031004, 0.141214,1,-0.005521, 0.002405,-0.004167,1,-0.386415, 0.118286, 9.798320,1,0
1778780946769,  1982.376,  1982.376, 0.042428,-0.017337,-1.019744, 0.000417,-0.000191,-0.010227, 0.031561,-0.050897,-0.201888,1, 0.008914, 0.007929,-0.004505,1,-0.384762, 0.119391, 9.798371,1,0
1778780946795,  1982.401,  1982.401, 0.052117,-0.014672,-0.967169, 0.000526,-0.000130,-0.009690, 0.123581,-0.022907, 0.313559,1, 0.001277, 0.008208,-0.001534,1,-0.387765, 0.121017, 9.798233,1,0
1778780946816,  1982.426,  1982.421, 0.024818,-0.003926,-1.023166, 0.000231,-0.000045,-0.010241, 0.082145,-0.059474, 0.225110,1,-0.012827,-0.014381,-0.003309,1,-0.386678, 0.119805, 9.798291,1,0
1778780946839,  1982.446,  1982.446, 0.045568,-0.011312,-1.001771, 0.000438,-0.000127,-0.009995, 0.059576, 0.008027,-0.025745,1,-0.017385,-0.003810,-0.003901,1,-0.387180, 0.118411, 9.798288,1,0
1778780946865,  1982.471,  1982.471, 0.052861, 0.003031,-1.011951, 0.000540, 0.000036,-0.010142, 0.131733, 0.147658,-0.125534,1, 0.012712, 0.003976,-0.005226,1,-0.386780, 0.118324, 9.798306,1,0
1778780946886,  1982.496,  1982.491, 0.033927,-0.016890,-1.011919, 0.000358,-0.000183,-0.010104,-0.016515,-0.090528, 0.054022,1, 0.006262,-0.007666,-0.005216,1,-0.386595, 0.120704, 9.798284,1,0
1778780946909,  1982.516,  1982.516, 0.060541,-0.014395,-0.994940, 0.000574,-0.000145,-0.009967, 0.206221,-0.020691, 0.041222,1,-0.008716, 0.012354,-0.005099,1,-0.387867, 0.120195, 9.798240,1,0
1778780946935,  1982.541,  1982.541, 0.074021,-0.003888,-0.999621, 0.000761,-0.000059,-0.010011, 0.337593, 0.079365,-0.004676,1,-0.001660, 0.008186,-0.005336,1,-0.388564, 0.117440, 9.798245,1,0
1778780946957,  1982.566,  1982.561, 0.028979,-0.029266,-0.975671, 0.000269,-0.000285,-0.009656,-0.075534,-0.055097, 0.531152,1, 0.028332, 0.010055,-0.004855,1,-0.392147, 0.123660, 9.798026,1,0
1778780946979,  1982.586,  1982.586, 0.064874, 0.004661,-1.034330, 0.000642, 0.000032,-0.010427, 0.246936, 0.163355,-0.345102,1,-0.018924, 0.020993,-0.003248,1,-0.389915, 0.117055, 9.798196,1,0
1778780947005,  1982.611,  1982.611, 0.049838,-0.005025,-0.939407, 0.000541,-0.000031,-0.009368, 0.095237, 0.070462, 0.585587,1, 0.022776,-0.011911,-0.002636,1,-0.393139, 0.120449, 9.798026,1,0
1778780947027,  1982.636,  1982.631, 0.063128,-0.028040,-1.016549, 0.000601,-0.000283,-0.010277,-0.018199,-0.158672,-0.475049,1, 0.019742,-0.009376,-0.005575,1,-0.388434, 0.124213, 9.798167,1,0
1778780947049,  1982.656,  1982.656, 0.103815,-0.014694,-0.945283, 0.001046,-0.000181,-0.009399, 0.622829,-0.022425, 0.527867,1,-0.039365,-0.008259,-0.005490,1,-0.394988, 0.120436, 9.797952,1,0
1778780947075,  1982.681,  1982.681, 0.051190,-0.003361,-0.995677, 0.000526,-0.000011,-0.009977, 0.109793, 0.086314, 0.033821,1, 0.023022, 0.000500,-0.005468,1,-0.392231, 0.119990, 9.798068,1,0
1778780947097,  1982.706,  1982.701, 0.067281,-0.012571,-1.028132, 0.000639,-0.000150,-0.010238, 0.023777,-0.152299, 0.097261,1,-0.022138,-0.015889,-0.003111,1,-0.391606, 0.120610, 9.798085,1,0
1778780947120,  1982.731,  1982.726, 0.080732, 0.007439,-0.986003, 0.000816, 0.000109,-0.009933, 0.400186, 0.187748, 0.128774,1, 0.015818, 0.020220,-0.003666,1,-0.392161, 0.115281, 9.798127,1,0
1778780947145,  1982.751,  1982.751, 0.093279,-0.018036,-1.005131, 0.000908,-0.000173,-0.009968, 0.523354,-0.057190,-0.058869,1, 0.018259,-0.014280,-0.008308,1,-0.390961, 0.120242, 9.798116,1,0
1778780947167,  1982.776,  1982.771, 0.102024,-0.015908,-0.911006, 0.001017,-0.000142,-0.009135, 0.674508, 0.152720, 0.302619,1, 0.014131, 0.050478,-0.005343,1,-0.396915, 0.122285, 9.797852,1,0
1778780947190,  1982.801,  1982.796, 0.090268,-0.005286,-1.038312, 0.000914,-0.000074,-0.010280, 0.489059, 0.066803,-0.384440,1,-0.023005,-0.027513,-0.010969,1,-0.395317, 0.117911, 9.797970,1,0
1778780947215,  1982.821,  1982.821, 0.113306,-0.001939,-0.975152, 0.001111, 0.000011,-0.009860, 0.710413, 0.099502, 0.234765,1, 0.011299, 0.045940,-0.005992,1,-0.402177, 0.118859, 9.797679,1,0
1778780947237,  1982.846,  1982.841, 0.177595,-0.002019,-1.033148, 0.001761,-0.000019,-0.010371, 1.103778, 0.026586,-0.095879,1,-0.008573,-0.011744,-0.010215,1,-0.402151, 0.117598, 9.797695,1,0
1778780947260,  1982.871,  1982.866, 0.154968,-0.011577,-0.895239, 0.001570,-0.000085,-0.008986, 1.106449, 0.011258, 1.017850,1, 0.034089, 0.038682,-0.005801,1,-0.414480, 0.125842, 9.797079,1,0
1778780947286,  1982.891,  1982.891, 0.160215,-0.013786,-1.017383, 0.001579,-0.000185,-0.010085, 1.159031,-0.011019,-0.179923,1,-0.030818,-0.014016,-0.011085,1,-0.411713, 0.123202, 9.797229,1,0
1778780947307,  1982.916,  1982.911, 0.215470,-0.006280,-0.928363, 0.002122,-0.000038,-0.009243, 1.492436, 0.241086, 0.388926,1,-0.004377, 0.065504,-0.005996,1,-0.421427, 0.120689, 9.796847,1,0
1778780947330,  1982.941,  1982.936, 0.226052, 0.021243,-1.028238, 0.002251, 0.000242,-0.010310, 1.793367, 0.327285,-0.286786,1, 0.033061, 0.025899,-0.008356,1,-0.424261, 0.119981, 9.796734,1,0
1778780947356,  1982.961,  1982.961, 0.204044,-0.012437,-0.908951, 0.002050,-0.000095,-0.009091, 1.566565, 0.006993, 0.882405,1, 0.038320, 0.037101,-0.006187,1,-0.435578, 0.130144, 9.796107,1,0
1778780947377,  1982.986,  1982.981, 0.241138, 0.032780,-1.015755, 0.002434, 0.000343,-0.010320, 1.949987, 0.232487,-0.514868,1,-0.032177, 0.006369,-0.011452,1,-0.434096, 0.125422, 9.796235,1,0
1778780947400,  1983.011,  1983.006, 0.267724,-0.023084,-0.939914, 0.002647,-0.000249,-0.009243, 2.175775,-0.094629, 0.578037,1,-0.003313,-0.000148,-0.012675,1,-0.449704, 0.131630, 9.795449,1,0
1778780947426,  1983.031,  1983.031, 0.260705, 0.025802,-1.052524, 0.002682, 0.000263,-0.010677, 2.106643, 0.384620,-0.526296,1, 0.039062, 0.056520,-0.010666,1,-0.451774, 0.132692, 9.795340,1,0
1778780947447,  1983.056,  1983.051, 0.267594,-0.034672,-1.048569, 0.002672,-0.000501,-0.010202, 1.686651,-0.326872, 1.042811,1, 0.033073, 0.021974,-0.013912,1,-0.465621, 0.144401, 9.794525,1,0
1778780947474,  1983.081,  1983.081, 0.267159, 0.036944,-1.005215, 0.002782, 0.000374,-0.010497, 2.151306, 0.503815,-0.063367,1, 0.063613, 0.141424,-0.006969,1,-0.473038, 0.143490, 9.794184,1,0
1778780947496,  1983.101,  1983.101, 0.217480,-0.078161,-0.899138, 0.002157,-0.000686,-0.008574, 1.650851,-0.607170, 0.975970,1, 0.039651,-0.073560,-0.019586,1,-0.479619, 0.160535, 9.793599,1,0
1778780947517,  1983.126,  1983.121, 0.265855, 0.031326,-0.917954, 0.002794, 0.000278,-0.009756, 2.510408, 0.315952,-1.990079,1,-0.007495, 0.080135,-0.020566,1,-0.474095, 0.152108, 9.794003,1,0
1778780947544,  1983.151,  1983.151, 0.182423,-0.080710,-0.937151, 0.001779,-0.000707,-0.008706, 1.498264, 0.269549, 2.993906,1, 0.079496, 0.039543,-0.009917,1,-0.501232, 0.165165, 9.792439,1,0
1778780947566,  1983.176,  1983.171, 0.265028, 0.021912,-0.870252, 0.002641, 0.000192,-0.009334, 2.411262, 0.267414,-2.520109,1,-0.003546, 0.126889,-0.023776,1,-0.479339, 0.157135, 9.793668,1,0
1778780947587,  1983.196,  1983.191, 0.138730,-0.045144,-0.912965, 0.001506,-0.000381,-0.008390, 1.702031, 0.305521, 3.666301,1, 0.071546, 0.015409,-0.015304,1,-0.511522, 0.173677, 9.791760,1,0
1778780947614,  1983.221,  1983.221, 0.234123,-0.031471,-1.271676, 0.002307,-0.000392,-0.013164, 1.823339,-0.140091,-2.677081,1,-0.002604, 0.110733,-0.025232,1,-0.476089, 0.168415, 9.793639,1,0
1778780947636,  1983.246,  1983.241, 0.197201,-0.000325,-0.882262, 0.002090, 0.000105,-0.008196, 1.705860, 0.380318, 3.017972,1, 0.002286, 0.040599,-0.023431,1,-0.505379, 0.174957, 9.792056,1,0
1778780947657,  1983.266,  1983.261, 0.145069,-0.052722,-1.198755, 0.001358,-0.000561,-0.012264, 0.785563,-0.231055,-1.907846,1, 0.028525,-0.167479,-0.032486,1,-0.468901, 0.176316, 9.793846,1,0
1778780947684,  1983.291,  1983.291, 0.157840,-0.045644,-0.790128, 0.001495,-0.000525,-0.007919, 1.059841,-0.256880, 2.044131,1,-0.033334, 0.024953,-0.028866,1,-0.488840, 0.189655, 9.792623,1,0
1778780947706,  1983.316,  1983.311, 0.172476,-0.025802,-1.158247, 0.001659,-0.000240,-0.011758, 1.135740,-0.009191,-1.344915,1,-0.044392,-0.133062,-0.031933,1,-0.462194, 0.175430, 9.794181,1,0
1778780947728,  1983.336,  1983.331, 0.132335,-0.032600,-0.830411, 0.001351,-0.000338,-0.008392, 1.105290,-0.165407, 0.262051,1, 0.089069, 0.075576,-0.033664,1,-0.469309, 0.187450, 9.793620,1,0
1778780947755,  1983.361,  1983.361, 0.117772,-0.044347,-1.059437, 0.001160,-0.000401,-0.010367, 0.697747,-0.245622,-0.595368,1,-0.030144,-0.100635,-0.036039,1,-0.454087, 0.188283, 9.794322,1,0
1778780947776,  1983.386,  1983.381, 0.143172,-0.011234,-0.884547, 0.001451,-0.000132,-0.008943, 1.182829,-0.154601,-0.177718,1,-0.005814, 0.042884,-0.041617,1,-0.455576, 0.184981, 9.794315,1,0
1778780947798,  1983.406,  1983.401, 0.130128,-0.048711,-1.030568, 0.001235,-0.000424,-0.010106, 0.850847, 0.135263, 0.950195,1, 0.006438,-0.064742,-0.043981,1,-0.453335, 0.186476, 9.794392,1,0
1778780947825,  1983.431,  1983.431, 0.177961,-0.025921,-0.981791, 0.001820,-0.000255,-0.010060, 1.297423,-0.069380, 0.166593,1, 0.013880, 0.065747,-0.044423,1,-0.449877, 0.185274, 9.794574,1,0
1778780947846,  1983.456,  1983.451, 0.131925,-0.037694,-1.075364, 0.001399,-0.000408,-0.010557, 1.186073,-0.187283, 0.999344,1,-0.026424,-0.076317,-0.052395,1,-0.449633, 0.183899, 9.794611,1,0
1778780947868,  1983.476,  1983.471, 0.176478,-0.026293,-0.940954, 0.001648,-0.000196,-0.009666, 0.933626, 0.092850,-1.005656,1, 0.006517, 0.032772,-0.049142,1,-0.440411, 0.177500, 9.795148,1,0
1778780947895,  1983.501,  1983.501, 0.205246,-0.023930,-0.948054, 0.002081,-0.000305,-0.009248, 1.562358,-0.061159, 0.497526,1,-0.066410,-0.066025,-0.056749,1,-0.448393, 0.171366, 9.794894,1,0
1778780947916,  1983.526,  1983.521, 0.172746,-0.042426,-0.901029, 0.001711,-0.000389,-0.009060, 1.194711, 0.072300, 0.058213,1, 0.049522, 0.065545,-0.052037,1,-0.451579, 0.175382, 9.794677,1,0
1778780947938,  1983.546,  1983.541, 0.178751, 0.005560,-1.031459, 0.001775, 0.000006,-0.010258, 1.387305,-0.095087, 0.478548,1,-0.070092,-0.038815,-0.056820,1,-0.453246, 0.168584, 9.794720,1,0
1778780947965,  1983.571,  1983.571, 0.221051,-0.021392,-0.938362, 0.002220,-0.000228,-0.009473, 1.708393,-0.042321, 0.592264,1, 0.008364, 0.040543,-0.055773,1,-0.460671, 0.167642, 9.794390,1,0
1778780947986,  1983.596,  1983.591, 0.203644,-0.023914,-1.030150, 0.002018,-0.000127,-0.010330, 1.517405, 0.334565,-0.087925,1, 0.012301,-0.018907,-0.060644,1,-0.458347, 0.166789, 9.794513,1,0
1778780948009,  1983.616,  1983.616, 0.199070,-0.019549,-0.956948, 0.001971,-0.000210,-0.009494, 1.487662,-0.022679, 0.409725,1, 0.018977, 0.002660,-0.060233,1,-0.464664, 0.169538, 9.794168,1,0
1778780948035,  1983.641,  1983.641, 0.196546,-0.006245,-1.001526, 0.001951,-0.000063,-0.009942, 1.695586,-0.045153,-0.183063,1,-0.026398, 0.010745,-0.055547,1,-0.464310, 0.166314, 9.794240,1,0
1778780948056,  1983.666,  1983.661, 0.202813,-0.021673,-0.976645, 0.002013,-0.000180,-0.009729, 1.558909, 0.051785, 0.298211,1, 0.031172, 0.010152,-0.057176,1,-0.467658, 0.169238, 9.794031,1,0
1778780948079,  1983.686,  1983.686, 0.204694,-0.024181,-1.007295, 0.002045,-0.000261,-0.010079, 1.540624,-0.067802,-0.084116,1, 0.007398, 0.004361,-0.058365,1,-0.466907, 0.169473, 9.794063,1,0
1778780948105,  1983.711,  1983.711, 0.218388,-0.008152,-0.964581, 0.002225,-0.000059,-0.009690, 1.672060, 0.089570, 0.334627,1,-0.016942, 0.004943,-0.055545,1,-0.469782, 0.168898, 9.793935,1,0
1778780948127,  1983.736,  1983.731, 0.201300,-0.013124,-1.025146, 0.002006,-0.000116,-0.010331, 1.528566, 0.180821,-0.317617,1, 0.036073,-0.018537,-0.059996,1,-0.466417, 0.170483, 9.794068,1,0
1778780948149,  1983.756,  1983.756, 0.211254,-0.019181,-0.971227, 0.002102,-0.000204,-0.009654, 1.601888,-0.009922, 0.269290,1, 0.023452,-0.004938,-0.060469,1,-0.469684, 0.178820, 9.793763,1,0
1778780948175,  1983.781,  1983.781, 0.206785,-0.009847,-0.997404, 0.002085,-0.000083,-0.010009, 1.559141, 0.083079, 0.012597,1, 0.023945, 0.006072,-0.059980,1,-0.468952, 0.180306, 9.793772,1,0
1778780948197,  1983.806,  1983.801, 0.206400,-0.026800,-0.988153, 0.002095,-0.000253,-0.009912, 1.704312, 0.039749, 0.070950,1, 0.023470,-0.001916,-0.062336,1,-0.470673, 0.187268, 9.793558,1,0
1778780948219,  1983.826,  1983.826, 0.234270,-0.013642,-0.982567, 0.002336,-0.000152,-0.009826, 1.824692, 0.060320, 0.157637,1, 0.035936, 0.010607,-0.064422,1,-0.473111, 0.195286, 9.793284,1,0
1778780948245,  1983.851,  1983.851, 0.228488,-0.022301,-0.968407, 0.002210,-0.000278,-0.009595, 1.766580,-0.022195, 0.296383,1, 0.025750,-0.001838,-0.068254,1,-0.474103, 0.197201, 9.793198,1,0
1778780948267,  1983.876,  1983.871, 0.229444,-0.033193,-0.976268, 0.002255,-0.000327,-0.009751, 1.686644,-0.082486, 0.029116,1,-0.000856, 0.008206,-0.063287,1,-0.473782, 0.198072, 9.793196,1,0
1778780948289,  1983.896,  1983.896, 0.228190,-0.037925,-0.988603, 0.002251,-0.000446,-0.009884, 1.762553,-0.169198, 0.098150,1, 0.004415,-0.000344,-0.066327,1,-0.475255, 0.202757, 9.793029,1,0
1778780948315,  1983.921,  1983.921, 0.234454,-0.041364,-0.974459, 0.002366,-0.000406,-0.009810, 1.821921,-0.199212, 0.236669,1, 0.012931, 0.019267,-0.063495,1,-0.477934, 0.206740, 9.792815,1,0
1778780948337,  1983.946,  1983.941, 0.216086,-0.024950,-1.000793, 0.002206,-0.000237,-0.010065, 1.961042,-0.212595, 0.045619,1, 0.014028,-0.015531,-0.068254,1,-0.478222, 0.209206, 9.792748,1,0
1778780948360,  1983.971,  1983.966, 0.257469,-0.034216,-0.959036, 0.002570,-0.000355,-0.009538, 2.042267,-0.125450, 0.387580,1, 0.012590, 0.001408,-0.067618,1,-0.482730, 0.210384, 9.792502,1,0
1778780948385,  1983.991,  1983.991, 0.237024,-0.025840,-0.989900, 0.002337,-0.000222,-0.009912, 1.842249,-0.042762, 0.084921,1, 0.018503, 0.011352,-0.063996,1,-0.482563, 0.211120, 9.792495,1,0
1778780948407,  1984.016,  1984.011, 0.241992,-0.021513,-1.005787, 0.002381,-0.000254,-0.010009, 1.641648,-0.169403, 0.220715,1, 0.003612,-0.003406,-0.065295,1,-0.483490, 0.212946, 9.792409,1,0
1778780948430,  1984.041,  1984.036, 0.225785,-0.024821,-0.976956, 0.002207,-0.000231,-0.009828, 1.730160,-0.028626, 0.211678,1, 0.031177, 0.022151,-0.067881,1,-0.484768, 0.215657, 9.792287,1,0
1778780948455,  1984.061,  1984.061, 0.204319,-0.018300,-0.989019, 0.002116,-0.000213,-0.009881, 1.520076, 0.039100, 0.093317,1, 0.017472,-0.016143,-0.066835,1,-0.483153, 0.219005, 9.792292,1,0
1778780948477,  1984.086,  1984.081, 0.228432,-0.029446,-0.984198, 0.002267,-0.000255,-0.009785, 1.683647,-0.092061, 0.278341,1, 0.012973, 0.002906,-0.066857,1,-0.484837, 0.221681, 9.792149,1,0
1778780948500,  1984.111,  1984.106, 0.222944,-0.022551,-0.984276, 0.002218,-0.000155,-0.009833, 1.702722, 0.000854, 0.139746,1, 0.018131,-0.005771,-0.066803,1,-0.483475, 0.222468, 9.792198,1,0
1778780948525,  1984.131,  1984.131, 0.190351,-0.023482,-0.995272, 0.001977,-0.000206,-0.009995, 1.385345,-0.005166, 0.031957,1, 0.017137,-0.014365,-0.067060,1,-0.480965, 0.225549, 9.792252,1,0
1778780948547,  1984.156,  1984.151, 0.193816,-0.023838,-0.985487, 0.001925,-0.000241,-0.009914, 1.780149, 0.011424,-0.161294,1, 0.000284,-0.018376,-0.066730,1,-0.479539, 0.228400, 9.792255,1,0
1778780948570,  1984.181,  1984.176, 0.206786,-0.026859,-0.981433, 0.002208,-0.000305,-0.009837, 1.549090,-0.031268, 0.167637,1, 0.012658,-0.023370,-0.063155,1,-0.478106, 0.232423, 9.792231,1,0
1778780948596,  1984.201,  1984.201, 0.222865,-0.051787,-0.985546, 0.002204,-0.000526,-0.009913, 1.515105,-0.041397,-0.018654,1, 0.033669,-0.001333,-0.065016,1,-0.477699, 0.235326, 9.792181,1,0
1778780948617,  1984.226,  1984.221, 0.217469,-0.029018,-0.963971, 0.002126,-0.000312,-0.009678, 1.733124,-0.060047, 0.019168,1, 0.001064,-0.003386,-0.062982,1,-0.477445, 0.236688, 9.792161,1,0
1778780948640,  1984.251,  1984.246, 0.192460,-0.032718,-0.983324, 0.002000,-0.000375,-0.009900, 1.410400,-0.080202, 0.148976,1, 0.013864,-0.002616,-0.060270,1,-0.476956, 0.240997, 9.792079,1,0
1778780948666,  1984.271,  1984.271, 0.241423,-0.042242,-0.957477, 0.002499,-0.000461,-0.009616, 1.886876,-0.167639, 0.402112,1, 0.010725, 0.005280,-0.060626,1,-0.480886, 0.246855, 9.791741,1,0
1778780948687,  1984.296,  1984.291, 0.228291,-0.029378,-0.971389, 0.002241,-0.000257,-0.009688, 1.774298,-0.032088, 0.313905,1, 0.014343, 0.006667,-0.062487,1,-0.482249, 0.247151, 9.791667,1,0
1778780948714,  1984.321,  1984.321, 0.211917,-0.028033,-0.990168, 0.002060,-0.000310,-0.009850, 1.595391,-0.025498, 0.081354,1, 0.033332, 0.001858,-0.062459,1,-0.482908, 0.250353, 9.791553,1,0
1778780948736,  1984.341,  1984.341, 0.220808,-0.034262,-0.993271, 0.002095,-0.000489,-0.009905, 1.682093,-0.084602, 0.050844,1, 0.015825, 0.005300,-0.064697,1,-0.483507, 0.251783, 9.791487,1,0
1778780948757,  1984.366,  1984.361, 0.219466,-0.009388,-0.928345, 0.002137,-0.000067,-0.009233, 1.560899,-0.224165, 0.321095,1,-0.003247, 0.027148,-0.060972,1,-0.486129, 0.254277, 9.791292,1,0
1778780948784,  1984.391,  1984.391, 0.213936,-0.018031,-1.009612, 0.002147,-0.000151,-0.010113, 1.611459, 0.080995,-0.109735,1,-0.020927, 0.000891,-0.061620,1,-0.486616, 0.257073, 9.791195,1,0
1778780948806,  1984.416,  1984.411, 0.201111,-0.031202,-0.972296, 0.002126,-0.000328,-0.009720, 2.002677, 0.097774, 0.376889,1, 0.011540, 0.006731,-0.066182,1,-0.491295, 0.257717, 9.790944,1,0
1778780948827,  1984.436,  1984.431, 0.214699,-0.037099,-1.002872, 0.002201,-0.000310,-0.010104, 1.524298, 0.131263,-0.049408,1, 0.026916,-0.005361,-0.061445,1,-0.487940, 0.258054, 9.791103,1,0
1778780948854,  1984.461,  1984.461, 0.220211,-0.032301,-0.977521, 0.002226,-0.000364,-0.009729, 1.670597,-0.054554, 0.204734,1, 0.021892,-0.013635,-0.058323,1,-0.488564, 0.262807, 9.790946,1,0
1778780948876,  1984.486,  1984.481, 0.227489,-0.042452,-0.983723, 0.002188,-0.000389,-0.009745, 1.567607,-0.214056, 0.279702,1,-0.016362,-0.004963,-0.052773,1,-0.487864, 0.259814, 9.791060,1,0
1778780948897,  1984.506,  1984.501, 0.213041,-0.036969,-0.980711, 0.002024,-0.000384,-0.009735, 1.500567,-0.311911, 0.128787,1,-0.020677,-0.010472,-0.049539,1,-0.486636, 0.260209, 9.791111,1,0
1778780948924,  1984.531,  1984.531, 0.214538,-0.038121,-0.968319, 0.002062,-0.000405,-0.009716, 1.617730,-0.118396, 0.295292,1,-0.026459, 0.012551,-0.051150,1,-0.486604, 0.254535, 9.791262,1,0
1778780948946,  1984.556,  1984.551, 0.203888,-0.049772,-0.965040, 0.002038,-0.000567,-0.009758, 1.772543, 0.043503,-0.087446,1,-0.009441,-0.007847,-0.049325,1,-0.485641, 0.255180, 9.791293,1,0
1778780948968,  1984.576,  1984.571, 0.220865,-0.034823,-1.021343, 0.002283,-0.000317,-0.010246, 1.946293, 0.255927, 0.096078,1, 0.034055,-0.006160,-0.054247,1,-0.487045, 0.254857, 9.791232,1,0
1778780948995,  1984.601,  1984.601, 0.257610,-0.007723,-0.993601, 0.002502,-0.000037,-0.009832, 2.036928, 0.176218, 0.047298,1, 0.025558, 0.004015,-0.051386,1,-0.489528, 0.252669, 9.791164,1,0
1778780949016,  1984.626,  1984.621, 0.252423,-0.004736,-0.986897, 0.002466, 0.000010,-0.009875, 1.547148, 0.308763, 0.080407,1, 0.016402, 0.018276,-0.046437,1,-0.490261, 0.250483, 9.791184,1,0
1778780949038,  1984.646,  1984.641, 0.224581, 0.019220,-0.994823, 0.002240, 0.000199,-0.009890, 1.785543, 0.022394, 0.256017,1,-0.015130,-0.003781,-0.044682,1,-0.493760, 0.254395, 9.790908,1,0
1778780949065,  1984.671,  1984.671, 0.249626,-0.013520,-0.951787, 0.002553,-0.000130,-0.009574, 1.949388, 0.127099, 0.456681,1, 0.011926, 0.017961,-0.045149,1,-0.499206, 0.259987, 9.790484,1,0
1778780949086,  1984.696,  1984.691, 0.228944,-0.019260,-0.992008, 0.002319,-0.000138,-0.009958, 1.863063, 0.176462,-0.044988,1, 0.026208,-0.000957,-0.044191,1,-0.498557, 0.265682, 9.790364,1,0
1778780949108,  1984.716,  1984.711, 0.233504,-0.020718,-0.994844, 0.002365,-0.000168,-0.009931, 1.623099,-0.063413, 0.232579,1, 0.030756, 0.004084,-0.042827,1,-0.499717, 0.268653, 9.790224,1,0
1778780949135,  1984.741,  1984.741, 0.228725,-0.025295,-0.993629, 0.002345,-0.000296,-0.009940, 1.744794, 0.025026, 0.046009,1, 0.025585,-0.009924,-0.041532,1,-0.497962, 0.273818, 9.790171,1,0
1778780949156,  1984.766,  1984.761, 0.204443,-0.032027,-0.985901, 0.002046,-0.000239,-0.009792, 1.650868,-0.153152, 0.300813,1, 0.003367,-0.009408,-0.038394,1,-0.497417, 0.275687, 9.790146,1,0
1778780949178,  1984.786,  1984.781, 0.202264, 0.002655,-0.986588, 0.002111,-0.000046,-0.009884, 1.575085,-0.434301, 0.039020,1,-0.013691,-0.007420,-0.034262,1,-0.494381, 0.276839, 9.790267,1,0
1778780949205,  1984.811,  1984.811, 0.211997,-0.023817,-0.980248, 0.002221,-0.000385,-0.009819, 1.585935, 0.043364, 0.177379,1, 0.002823,-0.019453,-0.034822,1,-0.492470, 0.276963, 9.790360,1,0
1778780949226,  1984.836,  1984.831, 0.202427,-0.031761,-0.952842, 0.002013,-0.000288,-0.009534, 1.300388, 0.069905, 0.159227,1, 0.025296, 0.020163,-0.026965,1,-0.492601, 0.282081, 9.790207,1,0
1778780949249,  1984.856,  1984.856, 0.167961,-0.030379,-0.969479, 0.001735,-0.000310,-0.009742, 1.153870,-0.010353, 0.282668,1, 0.008344,-0.003593,-0.026287,1,-0.493181, 0.287787, 9.790012,1,0
1778780949275,  1984.881,  1984.881, 0.174212,-0.045114,-0.990354, 0.001853,-0.000422,-0.009996, 1.214648,-0.151467, 0.077837,1,-0.007032, 0.002643,-0.026697,1,-0.493894, 0.290692, 9.789890,1,0
1778780949296,  1984.906,  1984.901, 0.190663,-0.047066,-1.019972, 0.001890,-0.000437,-0.010222, 1.344383, 0.155524,-0.046395,1, 0.022680,-0.017429,-0.030722,1,-0.493231, 0.294101, 9.789822,1,0
1778780949319,  1984.926,  1984.926, 0.229621,-0.047074,-0.984337, 0.002168,-0.000439,-0.009777, 1.757894,-0.166533, 0.136712,1, 0.024674, 0.000659,-0.030340,1,-0.493965, 0.295827, 9.789733,1,0
1778780949345,  1984.951,  1984.951, 0.139768,-0.033588,-0.969117, 0.001325,-0.000365,-0.009736, 0.880935,-0.037026, 0.286262,1, 0.009316, 0.002944,-0.026404,1,-0.489842, 0.292613, 9.790036,1,0
1778780949367,  1984.976,  1984.971, 0.169999,-0.047908,-0.995192, 0.001645,-0.000421,-0.009958, 1.209378,-0.078808, 0.146299,1,-0.035856,-0.035485,-0.023310,1,-0.486718, 0.290481, 9.790256,1,0
1778780949389,  1984.996,  1984.996, 0.200544,-0.036095,-0.953607, 0.002010,-0.000418,-0.009498, 1.481841,-0.069764, 0.438839,1,-0.033582,-0.026416,-0.020634,1,-0.484019, 0.283130, 9.790605,1,0
1778780949415,  1985.021,  1985.021, 0.165928,-0.043095,-0.992272, 0.001618,-0.000405,-0.009950, 0.994015, 0.085079, 0.166036,1,-0.018798,-0.036788,-0.016892,1,-0.479777, 0.280845, 9.790879,1,0
1778780949437,  1985.046,  1985.041, 0.200253, 0.005772,-1.013582, 0.002006,-0.000036,-0.010181, 1.133964,-0.123832,-0.268757,1,-0.038738,-0.025807,-0.011364,1,-0.472467, 0.271593, 9.791496,1,0
1778780949459,  1985.066,  1985.066, 0.152630,-0.017976,-0.957287, 0.001576,-0.000219,-0.009590, 1.025405, 0.093232, 0.403826,1,-0.001122,-0.017775,-0.010862,1,-0.470843, 0.269464, 9.791634,1,0
1778780949485,  1985.091,  1985.091, 0.186420,-0.032223,-1.023991, 0.001914,-0.000242,-0.010264, 1.360430,-0.047412,-0.250113,1,-0.040698,-0.009855,-0.003091,1,-0.467424, 0.267319, 9.791856,1,0
1778780949507,  1985.116,  1985.111, 0.147799, 0.000276,-0.973012, 0.001531,-0.000041,-0.009731, 1.520676, 0.174458, 0.251226,1,-0.005783,-0.005693,-0.007943,1,-0.469401, 0.263402, 9.791867,1,0
1778780949530,  1985.136,  1985.136, 0.142871,-0.017162,-1.005886, 0.001445,-0.000080,-0.010093, 0.935627, 0.093197,-0.072270,1, 0.015432, 0.004058,-0.002029,1,-0.465590, 0.261978, 9.792088,1,0
1778780949555,  1985.161,  1985.161, 0.164043,-0.004364,-0.993066, 0.001791, 0.000026,-0.009904, 1.142773, 0.215731, 0.053508,1,-0.026428,-0.026234, 0.002039,1,-0.465121, 0.257703, 9.792223,1,0
1778780949577,  1985.186,  1985.181, 0.132215, 0.010670,-1.005349, 0.001414, 0.000046,-0.010046, 0.909479, 0.279712, 0.014073,1,-0.008720,-0.000596,-0.002893,1,-0.464152, 0.253190, 9.792387,1,0
1778780949600,  1985.211,  1985.206, 0.131605, 0.003484,-0.995327, 0.001383,-0.000046,-0.009984, 0.827047, 0.291119, 0.031494,1, 0.002026, 0.000527,-0.001248,1,-0.463574, 0.257011, 9.792315,1,0
1778780949625,  1985.231,  1985.231, 0.161078, 0.000756,-1.036656, 0.001609,-0.000089,-0.010293, 1.117095, 0.264525,-0.373758,1,-0.011041,-0.020895,-0.003309,1,-0.461910, 0.256748, 9.792400,1,0
1778780949647,  1985.256,  1985.251, 0.111668,-0.001913,-0.995150, 0.001179,-0.000044,-0.009926, 0.854301, 0.084618,-0.014017,1, 0.038741, 0.015012,-0.007303,1,-0.462684, 0.258880, 9.792308,1,0
