Time,GPS_ts,fGPS_ts,scaledAccelX,scaledAccelY,scaledAccelZ,deltaVelX,deltaVelY,deltaVelZ,estLinearAccelX,estLinearAccelY,estLinearAccelZ,estLinearAccel:valid,estAngularRateX,estAngularRateY,estAngularRateZ,estAngularRate:valid,estGravityX,estGravityY,estGravityZ,estGravity:valid,flag
1778779742716,   750.022,   750.022, 0.023218, 0.016438,-1.015293, 0.000235, 0.000154,-0.010182, 0.042604, 0.002034,-0.153009,1,-0.002051, 0.001318, 0.000048,1,-0.185124,-0.159229, 9.803610,1,0
1778779742716,   750.047,   750.042, 0.019114, 0.011086,-0.989473, 0.000202, 0.000128,-0.009870, 0.022448, 0.049108, 0.206509,1, 0.010885, 0.006762,-0.000255,1,-0.187357,-0.156914, 9.803604,1,0
1778779742716,   750.067,   750.067, 0.011370, 0.016396,-0.999142, 0.000125, 0.000160,-0.010022,-0.074647, 0.002856, 0.005373,1, 0.003050, 0.007281, 0.000021,1,-0.186372,-0.157834, 9.803608,1,0
1778779742716,   750.092,   750.092, 0.014116, 0.014162,-0.991064, 0.000141, 0.000152,-0.009876,-0.048779,-0.018399, 0.084583,1,-0.004591,-0.006796, 0.000282,1,-0.186997,-0.157423, 9.803603,1,0
1778779742716,   750.117,   750.112, 0.024241, 0.022399,-0.990662, 0.000232, 0.000220,-0.009938, 0.038875, 0.004658,-0.152792,1,-0.002058, 0.002607,-0.000759,1,-0.185776,-0.159061, 9.803600,1,0
1778779742716,   750.142,   750.142, 0.020581, 0.012256,-0.984477, 0.000208, 0.000125,-0.009792, 0.013583,-0.037267, 0.149161,1,-0.007394,-0.010317, 0.000090,1,-0.187926,-0.157683, 9.803581,1,0
1778779742716,   750.167,   750.162, 0.014601, 0.019308,-0.989340, 0.000132, 0.000190,-0.009908,-0.079717,-0.009554,-0.052425,1,-0.001222, 0.005474,-0.000358,1,-0.187061,-0.159067, 9.803576,1,0
1778779742716,   750.192,   750.187, 0.022787, 0.016304,-1.007845, 0.000221, 0.000166,-0.010056, 0.036957, 0.000139,-0.080011,1,-0.011299,-0.011634, 0.001406,1,-0.186079,-0.160104, 9.803577,1,0
1778779742717,   750.217,   750.212, 0.021428, 0.016439,-0.972897, 0.000224, 0.000174,-0.009741, 0.063403, 0.032583, 0.103284,1, 0.012308, 0.015127, 0.000032,1,-0.187347,-0.159359, 9.803565,1,0
1778779742717,   750.237,   750.232, 0.015639, 0.011167,-1.007935, 0.000165, 0.000107,-0.010067,-0.008467,-0.044106, 0.130230,1,-0.003211,-0.009778, 0.000139,1,-0.187499,-0.158332, 9.803579,1,0
1778779742717,   750.257,   750.252, 0.014471, 0.019940,-0.987826, 0.000148, 0.000204,-0.009905,-0.058283, 0.012283,-0.050114,1,-0.000468, 0.003666, 0.000207,1,-0.186461,-0.159536, 9.803579,1,0
1778779742731,   778.352,   778.352, 0.021828, 0.017164,-0.984274, 0.000226, 0.000185,-0.009823, 0.018140, 0.018874, 0.151125,1, 0.000326,-0.001393, 0.000287,1,-0.195872,-0.149433, 9.803555,1,0
1778779742752,   778.377,   778.372, 0.021542, 0.017757,-0.995251, 0.000208, 0.000169,-0.009982,-0.022074,-0.055771,-0.077327,1,-0.003495,-0.002457,-0.001220,1,-0.194685,-0.150099, 9.803568,1,0
1778779742774,   778.397,   778.392, 0.014108, 0.015353,-0.988812, 0.000153, 0.000168,-0.009872, 0.007810, 0.037482, 0.160047,1, 0.002222, 0.004400,-0.000484,1,-0.195874,-0.149870, 9.803548,1,0
1778779742801,   778.422,   778.422, 0.018297, 0.009310,-1.010573, 0.000177, 0.000079,-0.010124,-0.015353,-0.059067,-0.106770,1,-0.003355,-0.000422, 0.000418,1,-0.194775,-0.150472, 9.803561,1,0
1778779742823,   778.447,   778.442, 0.016271, 0.015201,-0.986379, 0.000176, 0.000167,-0.009847, 0.021688, 0.063604, 0.158281,1, 0.004313, 0.006388,-0.000201,1,-0.196152,-0.149980, 9.803541,1,0
1778779742845,   778.467,   778.462, 0.015640, 0.009081,-1.006813, 0.000146, 0.000079,-0.010069,-0.078705,-0.062212,-0.005153,1,-0.003346,-0.006363, 0.001653,1,-0.195648,-0.149976, 9.803551,1,0
1778779742871,   778.492,   778.492, 0.023094, 0.020819,-0.986836, 0.000231, 0.000202,-0.009860, 0.030436, 0.053724, 0.125981,1, 0.001234, 0.003351,-0.000568,1,-0.196140,-0.150403, 9.803535,1,0
1778779742893,   778.517,   778.512, 0.019305, 0.011546,-1.005916, 0.000175, 0.000104,-0.010066,-0.037564,-0.040746,-0.054376,1,-0.001402,-0.007140, 0.000632,1,-0.195306,-0.150393, 9.803552,1,0
1778779742915,   778.537,   778.537, 0.020372, 0.022018,-0.983122, 0.000209, 0.000227,-0.009826, 0.003681, 0.065928, 0.162410,1, 0.004445, 0.002878,-0.000127,1,-0.196194,-0.149853, 9.803542,1,0
1778779742941,   778.562,   778.562, 0.015157, 0.007720,-1.005784, 0.000144, 0.000082,-0.010044,-0.046885,-0.073923,-0.059815,1,-0.000432,-0.006493, 0.000009,1,-0.195320,-0.149641, 9.803563,1,0
1778779742963,   778.587,   778.582, 0.028371, 0.022372,-0.981476, 0.000299, 0.000234,-0.009832, 0.080643, 0.092825, 0.050533,1, 0.002282, 0.006452,-0.001578,1,-0.195626,-0.149557, 9.803558,1,0
1778779742986,   778.607,   778.607, 0.016783, 0.008136,-0.998538, 0.000178, 0.000089,-0.009975,-0.030939,-0.068585, 0.011264,1,-0.000159,-0.006164, 0.000700,1,-0.195332,-0.148372, 9.803582,1,0
1778779743011,   778.632,   778.632, 0.024413, 0.018656,-0.995829, 0.000242, 0.000176,-0.009978, 0.044214, 0.034257, 0.037834,1,-0.000200, 0.004105,-0.000640,1,-0.195325,-0.148698, 9.803577,1,0
1778779743033,   778.657,   778.652, 0.019180, 0.011471,-1.005824, 0.000184, 0.000114,-0.010040,-0.002951, 0.004148, 0.057674,1, 0.000937,-0.003403, 0.000735,1,-0.195497,-0.148260, 9.803580,1,0
1778779743056,   778.677,   778.677, 0.030853, 0.019709,-0.993405, 0.000296, 0.000181,-0.009945, 0.107322, 0.044243, 0.061600,1,-0.002607, 0.005508,-0.001080,1,-0.195413,-0.149118, 9.803569,1,0
1778779743081,   778.702,   778.702, 0.016992, 0.014622,-0.991211, 0.000175, 0.000156,-0.009881,-0.029044,-0.005636, 0.083107,1, 0.000521,-0.004288, 0.000875,1,-0.195541,-0.149010, 9.803568,1,0
1778779743103,   778.727,   778.722, 0.022435, 0.019031,-0.996127, 0.000215, 0.000175,-0.009986,-0.021934,-0.049925,-0.082571,1,-0.004584,-0.001514,-0.000548,1,-0.194675,-0.149613, 9.803576,1,0
1778779743126,   778.747,   778.747, 0.015642, 0.014287,-0.987940, 0.000165, 0.000162,-0.009871,-0.041921,-0.009641, 0.115178,1, 0.001603,-0.001591, 0.000920,1,-0.195271,-0.149701, 9.803563,1,0
1778779743151,   778.772,   778.772, 0.018875, 0.009571,-1.008304, 0.000187, 0.000086,-0.010100,-0.009240,-0.056464,-0.084516,1,-0.005262,-0.003375,-0.000734,1,-0.194240,-0.150489, 9.803571,1,0
1778779743173,   778.797,   778.792, 0.010756, 0.012127,-0.985659, 0.000124, 0.000136,-0.009841,-0.007052, 0.061278, 0.158385,1, 0.006369, 0.006869, 0.000319,1,-0.195621,-0.149959, 9.803552,1,0
1778779743196,   778.822,   778.817, 0.014314, 0.009876,-1.010300, 0.000134, 0.000082,-0.010108,-0.054110,-0.053004,-0.104081,1,-0.004436,-0.003121,-0.000774,1,-0.194382,-0.149996, 9.803576,1,0
1778779743222,   778.842,   778.842, 0.024248, 0.021873,-0.984259, 0.000252, 0.000216,-0.009842, 0.042211, 0.064575, 0.151271,1, 0.004087, 0.006668, 0.000279,1,-0.195786,-0.149795, 9.803551,1,0
1778779743243,   778.867,   778.862, 0.017568, 0.011192,-1.007511, 0.000158, 0.000099,-0.010077,-0.064528,-0.054612,-0.040564,1,-0.000922,-0.006331, 0.000332,1,-0.195126,-0.149483, 9.803569,1,0
1778779743266,   778.892,   778.887, 0.025227, 0.023607,-0.981230, 0.000249, 0.000236,-0.009811, 0.051384, 0.081771, 0.180970,1, 0.003407, 0.006005, 0.000124,1,-0.196192,-0.149625, 9.803546,1,0
1778779743292,   778.912,   778.912, 0.014875, 0.009301,-1.005513, 0.000140, 0.000100,-0.010027,-0.049595,-0.058170,-0.057148,1,-0.001130,-0.007180, 0.000887,1,-0.195241,-0.149416, 9.803568,1,0
1778779743313,   778.937,   778.932, 0.027992, 0.023904,-0.982047, 0.000285, 0.000248,-0.009844, 0.068230, 0.047665, 0.019039,1, 0.003027, 0.006876,-0.000984,1,-0.195414,-0.149422, 9.803564,1,0
1778779743336,   778.962,   778.957, 0.016644, 0.009188,-0.998478, 0.000179, 0.000098,-0.009970,-0.032725,-0.058205, 0.011846,1,-0.001678,-0.007249, 0.000905,1,-0.195721,-0.148364, 9.803575,1,0
1778779743362,   778.982,   778.982, 0.025538, 0.018337,-0.996945, 0.000257, 0.000171,-0.010001, 0.054893, 0.030958, 0.026877,1,-0.000152, 0.004429,-0.000772,1,-0.195685,-0.148872, 9.803567,1,0
1778779743383,   779.007,   779.002, 0.019413, 0.011270,-1.002009, 0.000196, 0.000114,-0.009998, 0.022522, 0.029448, 0.113051,1, 0.001838,-0.002646, 0.000234,1,-0.196098,-0.148444, 9.803565,1,0
1778779743406,   779.032,   779.027, 0.026209, 0.018413,-0.996265, 0.000259, 0.000167,-0.009979, 0.061883, 0.031660, 0.033554,1, 0.000951, 0.003959,-0.001357,1,-0.195259,-0.148879, 9.803576,1,0
1778779743432,   779.052,   779.052, 0.015746, 0.014896,-0.988783, 0.000164, 0.000160,-0.009855,-0.041068,-0.002164, 0.106930,1, 0.000916,-0.004766, 0.000491,1,-0.195333,-0.148215, 9.803584,1,0
1778779743453,   779.077,   779.072, 0.022526, 0.018001,-1.000498, 0.000216, 0.000163,-0.010029,-0.017886,-0.057281,-0.123732,1,-0.007289,-0.004111,-0.000351,1,-0.193840,-0.149302, 9.803597,1,0
1778779743476,   779.102,   779.097, 0.014812, 0.014810,-0.987559, 0.000162, 0.000162,-0.009865,-0.049574,-0.004145, 0.118932,1, 0.001113,-0.001017, 0.000568,1,-0.194800,-0.149343, 9.803577,1,0
1778779743502,   779.122,   779.122, 0.009573, 0.008287,-1.000233, 0.000093, 0.000091,-0.009988,-0.071755,-0.072152,-0.086522,1,-0.003812,-0.002787, 0.000117,1,-0.193714,-0.149925, 9.803590,1,0
1778779743523,   779.147,   779.142, 0.017382, 0.015017,-0.985255, 0.000189, 0.000162,-0.009839, 0.002145, 0.036151, 0.163199,1, 0.000998, 0.007986, 0.000001,1,-0.195069,-0.149964, 9.803563,1,0
1778779743550,   779.172,   779.172, 0.019494, 0.010924,-1.006352, 0.000193, 0.000096,-0.010071,-0.003280,-0.043221,-0.065370,1,-0.003317,-0.000536,-0.000500,1,-0.194435,-0.150449, 9.803568,1,0
1778779743572,   779.192,   779.192, 0.020948, 0.022848,-0.983668, 0.000217, 0.000230,-0.009838, 0.010063, 0.074063, 0.157067,1, 0.004635, 0.005378, 0.000113,1,-0.195511,-0.149837, 9.803555,1,0
1778779743594,   779.217,   779.212, 0.019753, 0.010410,-1.010448, 0.000179, 0.000090,-0.010101,-0.060136,-0.055609,-0.038560,1,-0.000731,-0.007732, 0.001204,1,-0.194724,-0.149483, 9.803577,1,0
1778779743621,   779.242,   779.242, 0.030575, 0.023774,-0.984602, 0.000305, 0.000240,-0.009848, 0.104487, 0.084006, 0.147923,1, 0.005301, 0.006264,-0.000218,1,-0.195550,-0.148976, 9.803568,1,0
1778779743642,   779.267,   779.262, 0.020682, 0.011046,-1.004682, 0.000197, 0.000102,-0.010047,-0.010652,-0.027299, 0.020299,1,-0.001736,-0.006010, 0.001033,1,-0.194990,-0.148670, 9.803584,1,0
1778779743664,   779.287,   779.282, 0.022135, 0.021622,-0.986255, 0.000226, 0.000221,-0.009875, 0.026348, 0.033063, 0.033383,1,-0.001596, 0.003193,-0.000325,1,-0.194745,-0.149340, 9.803578,1,0
1778779743691,   779.312,   779.312, 0.015105, 0.010808,-1.006517, 0.000151, 0.000116,-0.010052,-0.046186,-0.042790,-0.066966,1,-0.001006,-0.008087, 0.000687,1,-0.194064,-0.148812, 9.803600,1,0
1778779743712,   779.337,   779.332, 0.023666, 0.022639,-0.981106, 0.000259, 0.000241,-0.009824, 0.069448, 0.057904, 0.032514,1, 0.002982, 0.006019,-0.000706,1,-0.194266,-0.148832, 9.803596,1,0
1778779743734,   779.357,   779.352, 0.009431, 0.005690,-1.003378, 0.000101, 0.000067,-0.010007,-0.045313,-0.006840, 0.140126,1, 0.002585,-0.001851, 0.000690,1,-0.194946,-0.147865, 9.803597,1,0
1778779743761,   779.382,   779.382, 0.022219, 0.018331,-1.001741, 0.000217, 0.000167,-0.010039, 0.024044, 0.030982,-0.020116,1,-0.001629, 0.004431,-0.000846,1,-0.193991,-0.148839, 9.803601,1,0
1778779743782,   779.407,   779.402, 0.017136, 0.009267,-1.000014, 0.000167, 0.000093,-0.009975, 0.013098, 0.015192, 0.113315,1, 0.002322, 0.000062, 0.000539,1,-0.195029,-0.148390, 9.803588,1,0
1778779743804,   779.427,   779.422, 0.023145, 0.016156,-0.991977, 0.000225, 0.000151,-0.009940,-0.001427,-0.055922,-0.035032,1,-0.003742, 0.000481,-0.000157,1,-0.194437,-0.148966, 9.803591,1,0
1778779743831,   779.452,   779.452, 0.015421, 0.014998,-0.987548, 0.000156, 0.000161,-0.009853,-0.044115,-0.002027, 0.119031,1,-0.001451,-0.003122, 0.000781,1,-0.195245,-0.149150, 9.803572,1,0
1778779743852,   779.477,   779.472, 0.026304, 0.018093,-0.995338, 0.000259, 0.000171,-0.009995,-0.014171,-0.044453,-0.083835,1,-0.005988,-0.002051, 0.000250,1,-0.194072,-0.150359, 9.803576,1,0
1778779743874,   779.497,   779.492, 0.017033, 0.017052,-0.983768, 0.000190, 0.000188,-0.009825, 0.055644, 0.067915, 0.172193,1, 0.001881, 0.006351, 0.000625,1,-0.195179,-0.150475, 9.803553,1,0
1778779743901,   779.522,   779.522, 0.015226, 0.008953,-1.006159, 0.000149, 0.000084,-0.010068,-0.044881,-0.062722,-0.063481,1,-0.003870,-0.005056, 0.000165,1,-0.194041,-0.150639, 9.803573,1,0
1778779743922,   779.547,   779.542, 0.015384, 0.018045,-0.990699, 0.000164, 0.000192,-0.009887, 0.002402, 0.087934, 0.100411,1, 0.003809, 0.003330, 0.000586,1,-0.194604,-0.150592, 9.803562,1,0
1778779743944,   779.567,   779.562, 0.019693, 0.010983,-1.011600, 0.000183, 0.000095,-0.010111,-0.050215,-0.052323,-0.041629,1, 0.000153,-0.005753, 0.000230,1,-0.194025,-0.150060, 9.803582,1,0
1778779743971,   779.592,   779.592, 0.025826, 0.023276,-0.986453, 0.000258, 0.000239,-0.009868, 0.063174, 0.047694,-0.004973,1, 0.003030, 0.005865,-0.001248,1,-0.194121,-0.150036, 9.803580,1,0
1778779743993,   779.617,   779.612, 0.018232, 0.009033,-1.008830, 0.000162, 0.000080,-0.010090,-0.060464,-0.068650,-0.010146,1,-0.001254,-0.005603,-0.000008,1,-0.194615,-0.148830, 9.803589,1,0
1778779744014,   779.637,   779.632, 0.028438, 0.023140,-0.981230, 0.000286, 0.000237,-0.009828, 0.057941, 0.033169, 0.036958,1,-0.001658, 0.006338,-0.000908,1,-0.194731,-0.149412, 9.803578,1,0
1778779744041,   779.662,   779.662, 0.015463, 0.009565,-1.002770, 0.000163, 0.000109,-0.010012,-0.043125,-0.055129,-0.030229,1,-0.002626,-0.007726, 0.001122,1,-0.194522,-0.149007, 9.803588,1,0
1778779744063,   779.687,   779.682, 0.025227, 0.021662,-0.985070, 0.000262, 0.000217,-0.009867, 0.031841, 0.016517,-0.001278,1,-0.000893, 0.007209, 0.000212,1,-0.194739,-0.149635, 9.803575,1,0
1778779744085,   779.707,   779.707, 0.012907, 0.011058,-0.999215, 0.000136, 0.000119,-0.009970,-0.068905,-0.040738, 0.004614,1,-0.002622,-0.005505, 0.000139,1,-0.195303,-0.149262, 9.803569,1,0
1778779744111,   779.732,   779.732, 0.023733, 0.019185,-0.996192, 0.000235, 0.000173,-0.009979, 0.037494, 0.037945, 0.034246,1,-0.003772, 0.003364,-0.000588,1,-0.195356,-0.150317, 9.803552,1,0
1778779744133,   779.757,   779.752, 0.015157, 0.009936,-1.001395, 0.000146, 0.000108,-0.009983,-0.006357, 0.028058, 0.122719,1, 0.002101,-0.001104, 0.000079,1,-0.195990,-0.150035, 9.803543,1,0
1778779744155,   779.777,   779.777, 0.023354, 0.017951,-1.000047, 0.000224, 0.000165,-0.010018, 0.034119, 0.025716,-0.003553,1, 0.001438, 0.003276,-0.001146,1,-0.195002,-0.150281, 9.803559,1,0
1778779744181,   779.802,   779.802, 0.015797, 0.015320,-0.984367, 0.000159, 0.000166,-0.009826,-0.041050, 0.000748, 0.150213,1, 0.002860, 0.000907, 0.001257,1,-0.195999,-0.149403, 9.803553,1,0
1778779744203,   779.827,   779.822, 0.024503, 0.018745,-1.000118, 0.000238, 0.000174,-0.010037,-0.023942,-0.062016,-0.100909,1,-0.006646,-0.003211,-0.000204,1,-0.194808,-0.150358, 9.803562,1,0
1778779744226,   779.847,   779.847, 0.016205, 0.016203,-0.984105, 0.000179, 0.000179,-0.009837,-0.037184, 0.009140, 0.152770,1, 0.004640,-0.000658, 0.000808,1,-0.196083,-0.149615, 9.803548,1,0
1778779744251,   779.872,   779.872, 0.015673, 0.008116,-1.010358, 0.000151, 0.000074,-0.010110,-0.041128,-0.070262,-0.104658,1,-0.003168,-0.005149, 0.000420,1,-0.194671,-0.149956, 9.803571,1,0
1778779744273,   779.897,   779.892, 0.018894, 0.016681,-0.985479, 0.000204, 0.000178,-0.009835, 0.051660, 0.063802, 0.142742,1, 0.003752, 0.007861,-0.000089,1,-0.196053,-0.149748, 9.803547,1,0
1778779744296,   779.917,   779.917, 0.016744, 0.010209,-1.009789, 0.000156, 0.000092,-0.010093,-0.030968,-0.049951,-0.099086,1,-0.004627,-0.002301,-0.000173,1,-0.195095,-0.150216, 9.803558,1,0
1778779744321,   779.942,   779.942, 0.026242, 0.023555,-0.984234, 0.000261, 0.000232,-0.009846, 0.061222, 0.080517, 0.151498,1, 0.000637, 0.006593, 0.000727,1,-0.196327,-0.150462, 9.803530,1,0
1778779744343,   779.967,   779.962, 0.019811, 0.011526,-1.009688, 0.000182, 0.000104,-0.010097,-0.033940,-0.042445,-0.021597,1,-0.001435,-0.006232, 0.000770,1,-0.195723,-0.150487, 9.803542,1,0
1778779744366,   779.987,   779.987, 0.024828, 0.024574,-0.983519, 0.000250, 0.000252,-0.009847, 0.047402, 0.090808, 0.158511,1, 0.006334, 0.006658,-0.000182,1,-0.196270,-0.149974, 9.803538,1,0
1778779744391,   780.012,   780.012, 0.014086, 0.009820,-0.997019, 0.000144, 0.000108,-0.009953,-0.057730,-0.053125, 0.026143,1,-0.000427,-0.006680, 0.001005,1,-0.195659,-0.149436, 9.803559,1,0
1778779744413,   780.037,   780.032, 0.024086, 0.023481,-0.986183, 0.000249, 0.000237,-0.009880, 0.026432, 0.027285, 0.012325,1,-0.000446, 0.003091,-0.000580,1,-0.195340,-0.149971, 9.803557,1,0
1778779744436,   780.062,   780.057, 0.013597, 0.009323,-1.001619, 0.000141, 0.000104,-0.009994,-0.061990,-0.057855,-0.018957,1,-0.001942,-0.008574,-0.000068,1,-0.195061,-0.149338, 9.803573,1,0
1778779744462,   780.082,   780.082, 0.024854, 0.016682,-0.999186, 0.000246, 0.000153,-0.010014, 0.048909, 0.013591, 0.004903,1,-0.000693, 0.003740,-0.000576,1,-0.194939,-0.150026, 9.803564,1,0
1778779744483,   780.107,   780.102, 0.013460, 0.009054,-1.003705, 0.000134, 0.000094,-0.010007,-0.012652, 0.010543, 0.111502,1, 0.003101,-0.000974, 0.000736,1,-0.195645,-0.149368, 9.803560,1,0
1778779744506,   780.132,   780.127, 0.024674, 0.018799,-0.998030, 0.000234, 0.000169,-0.010001, 0.046905, 0.034114, 0.016230,1,-0.001430, 0.005874,-0.001197,1,-0.195246,-0.150291, 9.803555,1,0
1778779744532,   780.152,   780.152, 0.018442, 0.015755,-0.985771, 0.000188, 0.000171,-0.009835,-0.015178, 0.004463, 0.136432,1, 0.000772,-0.000909, 0.001428,1,-0.196006,-0.150019, 9.803543,1,0
1778779744553,   780.177,   780.172, 0.021795, 0.019105,-0.998373, 0.000214, 0.000179,-0.010021,-0.020783,-0.053380,-0.105699,1,-0.003908,-0.002613,-0.000007,1,-0.194937,-0.150644, 9.803555,1,0
1778779744576,   780.202,   780.197, 0.016540, 0.015841,-0.983447, 0.000177, 0.000177,-0.009825,-0.034023, 0.005598, 0.159219,1, 0.003427,-0.000844, 0.000953,1,-0.196198,-0.149645, 9.803545,1,0
1778779744602,   780.222,   780.222, 0.015915, 0.009664,-1.006045, 0.000156, 0.000090,-0.010072,-0.039062,-0.055368,-0.062368,1,-0.004116,-0.003641, 0.000071,1,-0.195017,-0.150273, 9.803559,1,0
1778779744623,   780.247,   780.242, 0.018003, 0.016784,-0.989209, 0.000194, 0.000180,-0.009870, 0.037204, 0.065921, 0.136785,1, 0.003010, 0.004646,-0.000358,1,-0.196034,-0.150148, 9.803540,1,0
1778779744646,   780.272,   780.267, 0.021866, 0.011777,-1.006977, 0.000213, 0.000108,-0.010074, 0.019314,-0.034714,-0.071516,1,-0.003046,-0.001606,-0.000835,1,-0.195064,-0.150301, 9.803557,1,0
1778779744672,   780.292,   780.292, 0.023930, 0.022774,-0.982628, 0.000245, 0.000233,-0.009822, 0.038742, 0.073345, 0.167261,1, 0.004377, 0.003795,-0.000479,1,-0.196053,-0.149858, 9.803545,1,0
1778779744693,   780.317,   780.312, 0.019926, 0.010013,-1.013423, 0.000179, 0.000085,-0.010134,-0.066168,-0.057437,-0.062643,1,-0.001505,-0.009222,-0.000334,1,-0.194955,-0.149539, 9.803572,1,0
1778779744716,   780.342,   780.337, 0.026601, 0.023969,-0.984694, 0.000267, 0.000246,-0.009858, 0.065270, 0.085329, 0.147011,1, 0.004524, 0.007630,-0.000112,1,-0.195836,-0.149584, 9.803554,1,0
1778779744742,   780.362,   780.362, 0.014336, 0.007823,-1.001256, 0.000146, 0.000088,-0.009998,-0.054820,-0.072641,-0.015406,1,-0.001192,-0.006096, 0.000457,1,-0.195217,-0.149399, 9.803569,1,0
1778779744763,   780.387,   780.382, 0.020913, 0.021529,-0.983520, 0.000217, 0.000223,-0.009852, 0.016653, 0.032017, 0.036567,1,-0.000253, 0.006256,-0.001002,1,-0.195404,-0.149789, 9.803558,1,0
1778779744790,   780.412,   780.412, 0.016988, 0.014552,-0.989728, 0.000188, 0.000161,-0.009880,-0.056457,-0.057719,-0.056476,1,-0.005576,-0.007000, 0.000357,1,-0.195234,-0.150048, 9.803558,1,0
1778779744812,   780.432,   780.432, 0.025118, 0.020744,-0.994077, 0.000251, 0.000195,-0.009966, 0.050776, 0.052848, 0.054982,1, 0.000409, 0.006643,-0.000837,1,-0.195752,-0.150566, 9.803540,1,0
1778779744834,   780.457,   780.452, 0.012804, 0.009663,-1.004122, 0.000128, 0.000100,-0.010015,-0.037996, 0.008821, 0.113107,1, 0.001517,-0.004296, 0.000945,1,-0.196111,-0.150052, 9.803540,1,0
1778779744861,   780.482,   780.482, 0.025336, 0.018168,-0.994740, 0.000241, 0.000164,-0.009964, 0.052946, 0.027777, 0.048477,1, 0.000735, 0.005818,-0.000829,1,-0.195701,-0.150364, 9.803544,1,0
1778779744882,   780.507,   780.502, 0.017066, 0.009978,-1.002474, 0.000163, 0.000105,-0.010009,-0.007425, 0.014715, 0.091389,1, 0.001614,-0.002786, 0.001037,1,-0.195930,-0.149911, 9.803546,1,0
1778779744904,   780.527,   780.522, 0.022876, 0.019471,-0.991225, 0.000225, 0.000181,-0.009938, 0.004769,-0.038458,-0.035889,1,-0.002276,-0.000146,-0.000468,1,-0.195321,-0.150166, 9.803555,1,0
1778779744931,   780.552,   780.552, 0.014001, 0.014221,-0.991039, 0.000148, 0.000158,-0.009897,-0.058492,-0.010247, 0.084777,1, 0.001620,-0.004397, 0.001556,1,-0.195661,-0.149657, 9.803555,1,0
1778779744952,   780.577,   780.572, 0.026631, 0.020926,-0.996206, 0.000269, 0.000199,-0.009994,-0.004381,-0.040447,-0.088668,1,-0.002837,-0.001715,-0.000926,1,-0.194659,-0.150119, 9.803569,1,0
1778779744974,   780.597,   780.592, 0.017244, 0.014675,-0.987784, 0.000185, 0.000161,-0.009857, 0.038764, 0.078374, 0.149765,1, 0.005324, 0.004507, 0.000217,1,-0.195558,-0.149570, 9.803559,1,0
1778779745001,   780.622,   780.622, 0.017778, 0.009301,-1.007232, 0.000169, 0.000084,-0.010072,-0.020466,-0.058327,-0.074001,1,-0.003938,-0.002316, 0.000249,1,-0.194734,-0.149666, 9.803574,1,0
1778779745022,   780.647,   780.642, 0.016995, 0.014118,-0.991792, 0.000173, 0.000150,-0.009885, 0.025416, 0.065775, 0.131723,1, 0.003633, 0.003811, 0.000046,1,-0.195626,-0.149473, 9.803559,1,0
1778779745044,   780.667,   780.662, 0.023272, 0.012621,-1.009699, 0.000213, 0.000112,-0.010103,-0.024949,-0.057172,-0.076961,1,-0.004579,-0.007815, 0.000302,1,-0.194641,-0.149741, 9.803575,1,0
1778779745071,   780.692,   780.692, 0.026529, 0.022524,-0.980655, 0.000271, 0.000234,-0.009807, 0.064465, 0.070829, 0.186610,1, 0.005136, 0.006772, 0.000113,1,-0.195912,-0.149899, 9.803547,1,0
1778779745092,   780.717,   780.712, 0.017496, 0.010444,-1.008611, 0.000161, 0.000093,-0.010103,-0.083895,-0.069604,-0.030827,1,-0.003034,-0.007251, 0.000012,1,-0.194998,-0.149784, 9.803567,1,0
1778779745114,   780.737,   780.732, 0.024448, 0.023174,-0.982660, 0.000254, 0.000243,-0.009836, 0.034553, 0.056817, 0.054855,1,-0.001122, 0.005624,-0.000399,1,-0.195109,-0.150578, 9.803553,1,0
1778779745141,   780.762,   780.762, 0.016822, 0.008111,-1.005541, 0.000170, 0.000093,-0.010039,-0.030020,-0.070669,-0.057431,1,-0.001793,-0.007452, 0.000415,1,-0.194759,-0.150269, 9.803564,1,0
1778779745162,   780.787,   780.782, 0.021775, 0.020981,-0.981774, 0.000229, 0.000218,-0.009820, 0.033334, 0.060999, 0.060851,1, 0.004313, 0.006621,-0.000491,1,-0.195033,-0.150195, 9.803560,1,0
1778779745184,   780.807,   780.802, 0.010944, 0.007484,-1.006087, 0.000105, 0.000076,-0.010032,-0.062940,-0.016037, 0.107246,1, 0.002736,-0.005649, 0.000692,1,-0.195537,-0.149280, 9.803564,1,0
1778779745211,   780.832,   780.832, 0.024676, 0.018946,-0.994874, 0.000238, 0.000179,-0.009968, 0.047291, 0.035754, 0.047186,1, 0.000902, 0.006568,-0.001256,1,-0.194899,-0.150019, 9.803565,1,0
1778779745233,   780.857,   780.852, 0.016538, 0.010534,-1.003698, 0.000161, 0.000107,-0.010021, 0.000454, 0.003076, 0.086892,1, 0.001424,-0.003600, 0.000621,1,-0.195158,-0.149510, 9.803568,1,1
1778779745254,   780.877,   780.872, 0.021876, 0.018025,-0.989817, 0.000215, 0.000169,-0.009920,-0.007217,-0.032952,-0.030807,1,-0.001431, 0.000555,-0.000026,1,-0.194463,-0.149821, 9.803577,1,1
1778779745281,   780.902,   780.902, 0.014605, 0.013928,-0.995184, 0.000150, 0.000152,-0.009934,-0.051757,-0.013095, 0.044144,1,-0.001287,-0.005222, 0.000690,1,-0.194816,-0.149726, 9.803572,1,1
1778779745303,   780.927,   780.922, 0.026902, 0.021226,-0.992004, 0.000275, 0.000207,-0.009953, 0.026833,-0.028629,-0.070511,1,-0.000762, 0.002342,-0.000377,1,-0.194247,-0.150126, 9.803576,1,1
1778779745325,   780.947,   780.947, 0.015716, 0.012493,-0.989197, 0.000168, 0.000141,-0.009876,-0.041383,-0.026525, 0.102857,1, 0.002669,-0.001517, 0.001538,1,-0.195460,-0.148959, 9.803571,1,1
1778779745351,   780.972,   780.972, 0.019982, 0.011992,-1.004859, 0.000202, 0.000105,-0.010055, 0.001166,-0.031937,-0.050725,1,-0.004369,-0.001994,-0.001087,1,-0.194723,-0.149677, 9.803574,1,1
1778779745373,   780.997,   780.992, 0.016669, 0.013205,-0.995402, 0.000172, 0.000137,-0.009925, 0.010176, 0.067229, 0.120983,1, 0.001655, 0.002868, 0.000567,1,-0.195474,-0.149633, 9.803559,1,1
1778779745395,   781.017,   781.017, 0.024468, 0.015533,-1.004859, 0.000231, 0.000137,-0.010063, 0.045645, 0.002178,-0.050728,1,-0.001563, 0.001297,-0.001095,1,-0.194348,-0.150196, 9.803574,1,1
1778779745421,   781.042,   781.042, 0.021216, 0.018454,-0.980867, 0.000223, 0.000197,-0.009802, 0.012609, 0.031563, 0.184544,1, 0.004844, 0.003093, 0.000279,1,-0.195542,-0.149255, 9.803564,1,1
1778779745443,   781.067,   781.062, 0.020136, 0.013626,-1.004278, 0.000186, 0.000123,-0.010066,-0.069700,-0.073231,-0.065354,1,-0.005912,-0.006921,-0.000098,1,-0.194284,-0.149664, 9.803583,1,1
1778779745466,   781.087,   781.087, 0.023942, 0.019414,-0.984004, 0.000254, 0.000204,-0.009843, 0.039741, 0.040249, 0.153773,1, 0.002236, 0.002386, 0.000500,1,-0.195122,-0.150064, 9.803560,1,1
1778779745491,   781.112,   781.112, 0.016167, 0.009425,-1.005324, 0.000160, 0.000097,-0.010062,-0.035810,-0.057463,-0.055279,1, 0.000041,-0.003694, 0.000409,1,-0.194236,-0.149887, 9.803580,1,1
1778779745513,   781.137,   781.132, 0.018190, 0.018149,-0.985004, 0.000198, 0.000192,-0.009843, 0.020698, 0.045011, 0.116593,1, 0.003126, 0.004845,-0.000507,1,-0.194853,-0.149512, 9.803574,1,1
1778779745536,   781.157,   781.157, 0.015250, 0.007207,-1.010207, 0.000143, 0.000075,-0.010089,-0.044618,-0.078694,-0.103159,1,-0.004491,-0.005548, 0.000116,1,-0.193992,-0.149514, 9.803591,1,1
1778779745561,   781.182,   781.182, 0.025658, 0.022903,-0.992142, 0.000258, 0.000223,-0.009937, 0.057107, 0.074524, 0.073986,1,-0.000514, 0.006991,-0.000795,1,-0.194732,-0.150092, 9.803568,1,1
1778779745583,   781.207,   781.202, 0.017838, 0.008411,-1.003119, 0.000162, 0.000079,-0.010019,-0.029630,-0.032561, 0.042571,1, 0.001049,-0.001742, 0.001260,1,-0.195174,-0.149680, 9.803565,1,1
1778779745606,   781.227,   781.227, 0.022427, 0.022711,-0.986939, 0.000225, 0.000225,-0.009881, 0.024935, 0.073021, 0.124999,1, 0.004747, 0.005260,-0.000219,1,-0.195159,-0.149549, 9.803567,1,1
1778779745631,   781.252,   781.252, 0.013941, 0.010916,-0.997164, 0.000135, 0.000120,-0.009947,-0.058268,-0.041968, 0.024737,1,-0.002097,-0.006138, 0.000726,1,-0.194791,-0.149079, 9.803582,1,1
1778779745653,   781.277,   781.272, 0.028854, 0.022640,-0.987397, 0.000295, 0.000230,-0.009904, 0.048908, 0.010244,-0.035815,1,-0.002458, 0.002687,-0.000478,1,-0.194092,-0.150051, 9.803581,1,1
1778779745676,   781.302,   781.297, 0.012264, 0.010699,-0.995327, 0.000137, 0.000119,-0.009931,-0.074631,-0.043699, 0.042766,1, 0.002453,-0.006376, 0.000717,1,-0.194705,-0.148549, 9.803592,1,1
1778779745702,   781.322,   781.322, 0.019063, 0.013908,-1.003020, 0.000187, 0.000127,-0.010057,-0.007163,-0.012503,-0.032666,1,-0.001796, 0.002681,-0.000325,1,-0.194194,-0.148953, 9.803596,1,1
1778779745723,   781.347,   781.342, 0.017902, 0.011437,-0.999355, 0.000182, 0.000121,-0.009958, 0.020143, 0.035391, 0.146738,1,-0.000163, 0.000255, 0.000965,1,-0.195170,-0.148893, 9.803577,1,1
1778779745746,   781.372,   781.367, 0.025447, 0.017352,-1.002660, 0.000244, 0.000155,-0.010045, 0.055278, 0.020644,-0.029153,1, 0.000263, 0.003864,-0.001142,1,-0.194390,-0.149509, 9.803583,1,1
1778779745772,   781.392,   781.392, 0.017391, 0.016677,-0.983538, 0.000184, 0.000179,-0.009813,-0.024866, 0.014719, 0.158355,1, 0.003593, 0.000556, 0.000308,1,-0.195437,-0.148722, 9.803575,1,1
1778779745793,   781.417,   781.412, 0.021417, 0.015236,-1.002802, 0.000202, 0.000139,-0.010053,-0.050834,-0.069351,-0.101807,1,-0.005338,-0.005598,-0.000733,1,-0.194074,-0.149414, 9.803591,1,1
1778779745816,   781.442,   781.437, 0.022511, 0.018304,-0.985705, 0.000242, 0.000194,-0.009854, 0.025753, 0.029880, 0.137100,1, 0.001405, 0.001139, 0.000586,1,-0.195043,-0.149577, 9.803569,1,1
1778779745842,   781.462,   781.462, 0.017828, 0.010833,-1.003193, 0.000176, 0.000109,-0.010046,-0.019587,-0.043493,-0.034389,1,-0.001465,-0.000735, 0.000527,1,-0.194401,-0.149770, 9.803579,1,1
1778779745863,   781.487,   781.482, 0.015682, 0.016731,-0.986706, 0.000172, 0.000183,-0.009856, 0.008435, 0.042483, 0.160361,1, 0.001537, 0.004817, 0.000320,1,-0.195353,-0.149808, 9.803559,1,1
1778779745886,   781.512,   781.507, 0.017877, 0.010326,-1.012558, 0.000171, 0.000094,-0.010124,-0.018896,-0.048881,-0.126226,1,-0.004124,-0.004691,-0.000806,1,-0.194060,-0.150273, 9.803578,1,1
1778779745912,   781.532,   781.532, 0.026346, 0.023658,-0.985903, 0.000267, 0.000238,-0.009870, 0.063475, 0.081723, 0.135157,1, 0.004345, 0.006533, 0.000103,1,-0.195097,-0.150151, 9.803559,1,1
1778779745933,   781.557,   781.552, 0.017514, 0.009483,-1.006954, 0.000162, 0.000081,-0.010060,-0.039111,-0.055070, 0.019850,1, 0.000957,-0.006933, 0.000708,1,-0.194728,-0.149475, 9.803577,1,1
1778779745956,   781.582,   781.577, 0.021430, 0.022254,-0.987939, 0.000209, 0.000229,-0.009882, 0.015481, 0.068500, 0.115201,1, 0.003935, 0.005226,-0.000319,1,-0.194836,-0.149618, 9.803573,1,1
1778779745982,   781.602,   781.602, 0.016934, 0.010344,-1.003014, 0.000162, 0.000107,-0.010009,-0.028181,-0.047930,-0.032624,1,-0.001823,-0.006507, 0.000240,1,-0.194046,-0.149422, 9.803592,1,1
1778779746003,   781.627,   781.622, 0.023638, 0.019933,-0.981794, 0.000246, 0.000211,-0.009835, 0.057999, 0.032061, 0.048518,1, 0.002383, 0.006760,-0.000550,1,-0.194223,-0.149593, 9.803585,1,1
1778779746030,   781.652,   781.652, 0.011799, 0.008820,-1.002200, 0.000122, 0.000091,-0.010010,-0.078535,-0.062315,-0.024633,1,-0.002540,-0.007455, 0.000670,1,-0.194013,-0.148886, 9.803600,1,1
1778779746052,   781.672,   781.672, 0.024031, 0.018716,-0.995182, 0.000239, 0.000176,-0.009987, 0.041590, 0.034054, 0.044192,1,-0.000248, 0.006021,-0.000341,1,-0.194261,-0.149500, 9.803586,1,1
1778779746074,   781.697,   781.692, 0.014882, 0.010727,-1.003337, 0.000153, 0.000114,-0.010013,-0.005029, 0.009366, 0.114150,1, 0.001900,-0.002924, 0.000750,1,-0.194717,-0.149242, 9.803581,1,1
1778779746101,   781.722,   781.722, 0.022457, 0.018078,-0.994928, 0.000220, 0.000169,-0.009963, 0.026109, 0.027995, 0.046681,1, 0.000418, 0.004668,-0.000963,1,-0.194260,-0.149276, 9.803589,1,1
1778779746122,   781.747,   781.742, 0.014777, 0.009832,-1.004936, 0.000135, 0.000099,-0.010027,-0.020603,-0.006972, 0.067138,1,-0.000522,-0.004415, 0.000522,1,-0.194440,-0.149139, 9.803588,1,1
1778779746144,   781.767,   781.762, 0.024354, 0.020797,-0.993527, 0.000231, 0.000197,-0.009955, 0.003645,-0.033559,-0.067304,1,-0.003390,-0.000183,-0.000726,1,-0.193758,-0.149841, 9.803591,1,1
1778779746171,   781.792,   781.792, 0.016944, 0.013940,-0.990498, 0.000172, 0.000153,-0.009892,-0.028432,-0.013093, 0.090104,1, 0.002019,-0.001561, 0.000890,1,-0.194552,-0.149744, 9.803576,1,1
1778779746192,   781.817,   781.812, 0.024319, 0.019698,-0.990395, 0.000249, 0.000190,-0.009929, 0.007512,-0.031978,-0.018451,1,-0.001898,-0.000056,-0.000327,1,-0.193905,-0.149969, 9.803586,1,1
1778779746214,   781.837,   781.832, 0.014485, 0.012997,-0.991224, 0.000161, 0.000144,-0.009897, 0.011529, 0.053142, 0.160835,1, 0.003625, 0.001536, 0.000486,1,-0.194487,-0.149410, 9.803583,1,1
1778779746241,   781.862,   781.862, 0.019345, 0.012479,-1.006445, 0.000191, 0.000115,-0.010080,-0.003399,-0.027319,-0.066253,1,-0.003849,-0.001276,-0.000375,1,-0.193071,-0.149816, 9.803604,1,1
1778779746262,   781.887,   781.882, 0.015765, 0.013298,-0.994638, 0.000168, 0.000142,-0.009914, 0.030465, 0.056313, 0.130217,1, 0.002760, 0.003726, 0.000229,1,-0.194053,-0.149758, 9.803586,1,1
1778779746284,   781.907,   781.902, 0.020315, 0.012637,-1.005064, 0.000190, 0.000114,-0.010058,-0.057516,-0.054877,-0.066477,1,-0.001486,-0.005381, 0.000294,1,-0.193207,-0.149731, 9.803603,1,1
1778779746311,   781.932,   781.932, 0.023404, 0.020897,-0.983582, 0.000235, 0.000215,-0.009825, 0.035370, 0.054989, 0.157934,1, 0.001723, 0.003330,-0.000444,1,-0.194243,-0.149891, 9.803580,1,1
1778779746332,   781.957,   781.952, 0.021176, 0.014799,-1.006206, 0.000199, 0.000126,-0.010079,-0.044297,-0.062855,-0.067664,1,-0.002449,-0.006573, 0.000212,1,-0.193190,-0.150075, 9.803598,1,1
1778779746354,   781.977,   781.972, 0.023060, 0.019961,-0.983456, 0.000241, 0.000204,-0.009842, 0.055728, 0.053996, 0.064179,1, 0.002359, 0.005469,-0.000379,1,-0.193425,-0.150168, 9.803593,1,1
1778779746381,   782.002,   782.002, 0.013576, 0.007332,-1.003181, 0.000136, 0.000076,-0.010032,-0.060038,-0.077442,-0.034232,1,-0.001012,-0.004298, 0.000348,1,-0.193038,-0.149372, 9.803612,1,1
1778779746403,   782.027,   782.022, 0.020852, 0.019349,-0.984983, 0.000223, 0.000200,-0.009848, 0.037496, 0.029684, 0.087712,1,-0.001143, 0.004683,-0.000450,1,-0.193419,-0.149911, 9.803596,1,1
1778779746424,   782.047,   782.042, 0.015456, 0.009816,-1.006202, 0.000149, 0.000098,-0.010052,-0.047511,-0.010111, 0.045402,1,-0.000021,-0.003637, 0.000530,1,-0.193459,-0.149826, 9.803596,1,1
1778779746451,   782.072,   782.072, 0.027318, 0.021591,-0.990723, 0.000272, 0.000207,-0.009918, 0.074543, 0.061098, 0.087914,1, 0.000184, 0.005452,-0.000523,1,-0.193521,-0.150636, 9.803583,1,1
1778779746473,   782.097,   782.092, 0.013423, 0.008457,-1.007299, 0.000119, 0.000086,-0.010053,-0.045517,-0.014313, 0.056858,1, 0.003228,-0.003791, 0.001035,1,-0.193596,-0.149905, 9.803593,1,1
1778779746494,   782.117,   782.112, 0.025534, 0.021082,-0.992440, 0.000245, 0.000203,-0.009940, 0.004599,-0.022431,-0.067249,1,-0.003036, 0.000314,-0.000442,1,-0.192891,-0.150219, 9.803602,1,1
1778779746521,   782.142,   782.142, 0.015962, 0.013472,-0.992595, 0.000163, 0.000146,-0.009905,-0.037250,-0.017769, 0.069557,1, 0.001560,-0.003070, 0.001181,1,-0.193689,-0.149840, 9.803592,1,1
1778779746543,   782.167,   782.162, 0.025262, 0.020179,-0.991169, 0.000247, 0.000197,-0.009942,-0.004708,-0.024974,-0.054568,1,-0.002603, 0.000739,-0.000576,1,-0.193038,-0.150214, 9.803599,1,1
1778779746565,   782.187,   782.187, 0.015820, 0.012996,-0.989211, 0.000174, 0.000144,-0.009879,-0.038848,-0.022013, 0.102746,1, 0.002856,-0.003947, 0.001076,1,-0.193860,-0.149366, 9.803596,1,1
1778779746591,   782.212,   782.212, 0.020121, 0.012757,-1.003972, 0.000197, 0.000113,-0.010058, 0.004172,-0.024591,-0.041994,1,-0.002425, 0.000183,-0.000564,1,-0.193157,-0.149771, 9.803603,1,1
1778779746613,   782.237,   782.232, 0.015168, 0.014613,-0.993074, 0.000160, 0.000156,-0.009903, 0.022810, 0.054144, 0.143669,1, 0.001951, 0.002283, 0.000727,1,-0.193976,-0.149628, 9.803590,1,1
1778779746635,   782.257,   782.257, 0.022521, 0.012593,-1.007939, 0.000205, 0.000111,-0.010082, 0.027988,-0.026483,-0.080898,1,-0.002920,-0.000931,-0.000934,1,-0.192843,-0.150073, 9.803605,1,1
1778779746661,   782.282,   782.282, 0.025333, 0.021803,-0.985023, 0.000256, 0.000218,-0.009847, 0.054666, 0.064016, 0.143813,1, 0.004204, 0.004388,-0.000231,1,-0.193907,-0.149672, 9.803590,1,1
1778779746683,   782.307,   782.302, 0.018883, 0.011091,-1.006739, 0.000165, 0.000095,-0.010073,-0.083285,-0.061836,-0.041322,1,-0.002013,-0.006335, 0.000308,1,-0.193149,-0.149439, 9.803609,1,1
1778779746706,   782.327,   782.327, 0.023846, 0.022361,-0.984213, 0.000244, 0.000232,-0.009850, 0.040117, 0.069028, 0.151752,1, 0.002620, 0.004758, 0.000188,1,-0.193877,-0.150173, 9.803583,1,1
1778779746731,   782.352,   782.352, 0.014086, 0.007926,-1.004243, 0.000142, 0.000085,-0.010035,-0.055223,-0.072050,-0.044657,1,-0.001122,-0.006859, 0.000239,1,-0.193144,-0.149810, 9.803603,1,1
1778779746753,   782.377,   782.372, 0.022815, 0.021770,-0.981153, 0.000245, 0.000228,-0.009824, 0.047523, 0.053414, 0.064284,1,-0.001167, 0.006696,-0.000120,1,-0.193436,-0.150400, 9.803589,1,1
1778779746776,   782.397,   782.397, 0.010232, 0.008075,-1.003819, 0.000108, 0.000085,-0.010018,-0.093133,-0.070739,-0.040512,1,-0.002112,-0.008314,-0.000124,1,-0.193216,-0.149998, 9.803599,1,1
1778779746802,   782.422,   782.422, 0.026434, 0.018946,-0.996352, 0.000257, 0.000175,-0.009984, 0.066063, 0.035331, 0.032712,1, 0.000481, 0.005165,-0.000963,1,-0.193323,-0.150448, 9.803590,1,1
1778779746823,   782.447,   782.442, 0.016113, 0.010318,-1.002893, 0.000152, 0.000101,-0.010003,-0.002172, 0.002406, 0.110911,1, 0.002430,-0.001989, 0.000477,1,-0.193940,-0.149860, 9.803587,1,1
1778779746846,   782.467,   782.467, 0.025027, 0.017929,-0.995237, 0.000241, 0.000164,-0.009967, 0.052080, 0.024620, 0.043635,1,-0.004105, 0.004682,-0.001048,1,-0.193493,-0.151329, 9.803573,1,1
1778779746872,   782.492,   782.492, 0.014507, 0.015623,-0.991694, 0.000152, 0.000166,-0.009892,-0.051668, 0.002137, 0.078369,1, 0.002144,-0.002507, 0.000480,1,-0.193855,-0.151004, 9.803571,1,1
1778779746893,   782.517,   782.512, 0.027476, 0.020392,-0.994659, 0.000271, 0.000193,-0.009985, 0.013009,-0.038612,-0.108979,1,-0.003162,-0.002344,-0.000268,1,-0.192677,-0.151442, 9.803587,1,1
1778779746916,   782.542,   782.537, 0.015975, 0.015537,-0.985678, 0.000180, 0.000169,-0.009845,-0.037318, 0.001762, 0.137374,1, 0.003645,-0.001632, 0.001668,1,-0.193933,-0.150488, 9.803577,1,1
1778779746942,   782.562,   782.562, 0.015659, 0.010615,-1.009468, 0.000151, 0.000092,-0.010110,-0.039439,-0.047363,-0.095915,1,-0.009203,-0.001968, 0.000166,1,-0.192944,-0.151743, 9.803577,1,1
1778779746963,   782.587,   782.582, 0.020310, 0.016901,-0.982312, 0.000212, 0.000181,-0.009804, 0.046769, 0.083548, 0.161263,1, 0.003976, 0.008645, 0.000770,1,-0.194502,-0.151889, 9.803544,1,1
1778779746986,   782.612,   782.607, 0.022219, 0.011502,-1.006615, 0.000210, 0.000100,-0.010065, 0.024743,-0.038142,-0.067937,1, 0.000956,-0.005940,-0.000945,1,-0.192961,-0.150905, 9.803590,1,1
1778779747012,   782.632,   782.632, 0.024044, 0.019314,-0.985264, 0.000241, 0.000196,-0.009855, 0.042100, 0.039220, 0.141449,1, 0.006464, 0.004766,-0.000230,1,-0.193844,-0.149980, 9.803587,1,1
1778779747033,   782.657,   782.652, 0.016907, 0.009126,-1.012552, 0.000166, 0.000078,-0.010120,-0.043746,-0.080506,-0.027473,1,-0.013945,-0.009578, 0.000044,1,-0.192690,-0.151009, 9.803594,1,1
1778779747056,   782.682,   782.677, 0.019840, 0.022522,-0.992354, 0.000208, 0.000233,-0.009943, 0.001836, 0.065796, 0.071859,1,-0.007660, 0.007798,-0.000855,1,-0.192969,-0.155309, 9.803521,1,1
1778779747082,   782.702,   782.702, 0.022108, 0.012749,-0.999068, 0.000208, 0.000131,-0.009972, 0.023551,-0.032134, 0.005978,1,-0.013426,-0.005178,-0.000530,1,-0.193088,-0.157582, 9.803482,1,1
1778779747103,   782.727,   782.722, 0.022203, 0.020933,-0.973075, 0.000245, 0.000226,-0.009786, 0.018408, 0.065047, 0.006424,1, 0.006672, 0.011515, 0.000038,1,-0.193149,-0.158150, 9.803473,1,1
1778779747126,   782.752,   782.747, 0.011048, 0.010070,-1.002791, 0.000129, 0.000098,-0.009982,-0.085000,-0.057543,-0.030520,1,-0.005647,-0.016517, 0.000656,1,-0.192825,-0.156467, 9.803506,1,1
1778779747152,   782.772,   782.772, 0.023809, 0.018978,-0.998207, 0.000217, 0.000179,-0.010018, 0.040399, 0.029205, 0.014426,1, 0.001199, 0.013188, 0.000518,1,-0.193495,-0.156865, 9.803486,1,1
1778779747173,   782.797,   782.792, 0.019130, 0.012317,-1.003899, 0.000167, 0.000125,-0.010012,-0.061577,-0.003966, 0.129414,1, 0.002448,-0.007503, 0.001538,1,-0.193922,-0.155838, 9.803493,1,1
1778779747196,   782.822,   782.817, 0.022323, 0.019010,-0.991552, 0.000205, 0.000167,-0.009939, 0.025642, 0.031396, 0.079714,1, 0.007672, 0.008357,-0.001391,1,-0.193531,-0.154794, 9.803518,1,1
1778779747222,   782.842,   782.842, 0.017299, 0.012605,-0.986829, 0.000178, 0.000129,-0.009837,-0.023932,-0.030345, 0.126041,1,-0.002753,-0.009999, 0.000687,1,-0.193265,-0.154040, 9.803535,1,1
1778779747244,   782.867,   782.862, 0.023127, 0.018987,-0.999465, 0.000228, 0.000185,-0.010031,-0.037650,-0.025082,-0.142252,1,-0.004198,-0.003104,-0.000875,1,-0.191215,-0.155418, 9.803554,1,1
1778779747270,   782.892,   782.892, 0.019401, 0.017228,-0.991941, 0.000208, 0.000181,-0.009910,-0.002212, 0.014060, 0.075915,1, 0.003464,-0.001380, 0.000298,1,-0.192430,-0.154777, 9.803540,1,1
1778779747292,   782.912,   782.912, 0.021231, 0.011878,-1.001747, 0.000211, 0.000113,-0.010034, 0.015857,-0.037622,-0.020232,1, 0.004812, 0.003355,-0.000450,1,-0.192449,-0.153956, 9.803553,1,1
1778779747314,   782.937,   782.932, 0.012125, 0.013643,-0.991401, 0.000130, 0.000149,-0.009885,-0.017374, 0.035034, 0.155578,1, 0.000867, 0.001926, 0.000857,1,-0.193290,-0.153524, 9.803543,1,1
1778779747341,   782.962,   782.962, 0.023512, 0.011053,-1.013263, 0.000215, 0.000098,-0.010132, 0.038800,-0.046695,-0.133165,1,-0.010292,-0.003884,-0.001162,1,-0.191649,-0.155414, 9.803545,1,1
1778779747362,   782.987,   782.982, 0.017461, 0.016463,-0.983816, 0.000179, 0.000182,-0.009822, 0.074440, 0.108845, 0.129507,1, 0.006366, 0.007781,-0.000115,1,-0.192949,-0.155513, 9.803518,1,1
1778779747384,   783.007,   783.002, 0.015113, 0.007433,-1.004700, 0.000134, 0.000062,-0.010042,-0.086534,-0.073503, 0.045575,1,-0.000245,-0.005917,-0.000114,1,-0.192988,-0.154569, 9.803533,1,1
1778779747411,   783.032,   783.032, 0.022129, 0.022675,-0.984195, 0.000225, 0.000231,-0.009863, 0.023631, 0.066718, 0.151855,1, 0.001931, 0.008834,-0.000135,1,-0.193658,-0.155586, 9.803503,1,1
1778779747432,   783.057,   783.052, 0.019723, 0.012460,-1.013545, 0.000197, 0.000109,-0.010138,-0.037898,-0.059809, 0.012301,1,-0.008496,-0.011662,-0.000448,1,-0.192624,-0.156148, 9.803514,1,1
1778779747454,   783.077,   783.072, 0.023990, 0.025344,-0.984315, 0.000252, 0.000262,-0.009877, 0.049733, 0.055086,-0.057630,1,-0.004789, 0.005041,-0.001001,1,-0.191816,-0.158114, 9.803499,1,1
1778779747481,   783.102,   783.102, 0.008658, 0.009801,-0.996300, 0.000095, 0.000105,-0.009916,-0.107766,-0.060397, 0.033137,1,-0.000435,-0.013769,-0.000280,1,-0.192239,-0.156525, 9.803516,1,1
1778779747502,   783.127,   783.122, 0.028964, 0.022839,-0.988797, 0.000278, 0.000231,-0.009902, 0.023124, 0.028165,-0.100521,1, 0.004243, 0.004283,-0.001037,1,-0.191336,-0.156568, 9.803534,1,1
1778779747524,   783.147,   783.142, 0.022262, 0.010250,-0.992873, 0.000218, 0.000112,-0.009887, 0.054060, 0.025508, 0.199278,1, 0.007897, 0.002006,-0.000279,1,-0.192859,-0.154551, 9.803535,1,1
1778779747551,   783.172,   783.172, 0.021406, 0.015674,-1.003609, 0.000206, 0.000150,-0.010061, 0.018856,-0.001848,-0.038488,1,-0.000676, 0.003628,-0.000207,1,-0.191182,-0.155583, 9.803552,1,1
1778779747572,   783.197,   783.192, 0.010368, 0.011686,-0.999582, 0.000112, 0.000125,-0.009968,-0.048006, 0.008114, 0.184637,1, 0.001700,-0.000496, 0.000545,1,-0.192218,-0.154916, 9.803542,1,1
1778779747594,   783.217,   783.212, 0.023347, 0.016343,-1.005520, 0.000230, 0.000154,-0.010100,-0.048006, 0.008114, 0.184637,1, 0.001700,-0.000496, 0.000545,1,-0.192218,-0.154916, 9.803542,1,1
1778779747621,   783.242,   783.242, 0.019963, 0.018788,-0.977050, 0.000218, 0.000203,-0.009769, 0.003316, 0.030086, 0.221963,1, 0.008799, 0.002546, 0.000895,1,-0.192536,-0.153886, 9.803552,1,1
1778779747642,   783.267,   783.262, 0.021305, 0.015537,-1.003399, 0.000207, 0.000141,-0.010055,-0.037423,-0.063511,-0.077270,1,-0.004031,-0.006541, 0.000392,1,-0.191187,-0.154041, 9.803576,1,1
1778779747664,   783.287,   783.282, 0.018825, 0.018976,-0.984245, 0.000200, 0.000204,-0.009821, 0.041860, 0.069894, 0.114269,1, 0.005547, 0.007291,-0.000164,1,-0.192244,-0.153607, 9.803562,1,1
1778779747691,   783.312,   783.312, 0.017334, 0.008549,-1.014566, 0.000157, 0.000080,-0.010127,-0.021013,-0.069405,-0.145900,1,-0.001874,-0.007547,-0.000261,1,-0.190768,-0.153296, 9.803596,1,1
1778779747713,   783.337,   783.332, 0.021688, 0.018570,-0.978288, 0.000226, 0.000195,-0.009775, 0.080419, 0.074777, 0.117912,1, 0.008133, 0.010564,-0.000825,1,-0.192182,-0.152394, 9.803582,1,1
1778779747734,   783.357,   783.352, 0.013477, 0.008305,-1.009296, 0.000126, 0.000078,-0.010085,-0.052328,-0.042991, 0.067198,1,-0.003816,-0.008741, 0.000198,1,-0.191806,-0.152158, 9.803594,1,1
1778779747761,   783.382,   783.382, 0.022621, 0.025310,-0.988372, 0.000231, 0.000250,-0.009917, 0.030248, 0.094577, 0.110954,1, 0.000577, 0.008090,-0.000594,1,-0.191840,-0.153608, 9.803570,1,1
1778779747783,   783.407,   783.402, 0.014835, 0.008769,-1.012243, 0.000148, 0.000088,-0.010117,-0.056309,-0.026533, 0.039251,1,-0.001339,-0.008187, 0.001404,1,-0.191348,-0.153517, 9.803581,1,1
1778779747805,   783.427,   783.427, 0.026678, 0.021088,-0.987177, 0.000276, 0.000212,-0.009898, 0.069884, 0.054071, 0.122683,1, 0.010198, 0.010657,-0.000426,1,-0.192066,-0.152417, 9.803584,1,1
1778779747831,   783.452,   783.452, 0.013401, 0.011764,-0.991040, 0.000142, 0.000128,-0.009873,-0.060911,-0.036027, 0.084817,1, 0.001286,-0.006446, 0.001022,1,-0.192133,-0.151356, 9.803599,1,1
1778779747853,   783.477,   783.472, 0.025646, 0.022263,-0.992518, 0.000251, 0.000211,-0.009943, 0.011517,-0.018683,-0.092613,1,-0.006641, 0.001247,-0.000378,1,-0.191340,-0.152786, 9.803593,1,1
1778779747876,   783.497,   783.497, 0.016826, 0.014439,-0.993363, 0.000165, 0.000156,-0.009900,-0.027539,-0.010846, 0.062007,1, 0.002953,-0.003985, 0.000871,1,-0.192423,-0.152352, 9.803578,1,1
1778779747901,   783.522,   783.522, 0.022026, 0.012701,-1.004862, 0.000207, 0.000114,-0.010073, 0.024208,-0.027972,-0.050745,1, 0.000255, 0.002954,-0.000719,1,-0.191885,-0.152522, 9.803586,1,1
1778779747923,   783.547,   783.542, 0.012795, 0.010896,-0.989206, 0.000132, 0.000123,-0.009865, 0.012458, 0.038232, 0.219722,1, 0.002800, 0.003420,-0.000126,1,-0.193252,-0.151700, 9.803572,1,1
1778779747946,   783.567,   783.567, 0.018837, 0.012882,-1.011545, 0.000187, 0.000115,-0.010142,-0.006573,-0.027166,-0.116287,1,-0.007032,-0.000522,-0.000735,1,-0.191285,-0.153717, 9.803579,1,1
1778779747971,   783.592,   783.592, 0.023574, 0.023571,-0.980729, 0.000249, 0.000250,-0.009816, 0.038586, 0.077974, 0.185892,1, 0.005472, 0.005526,-0.000352,1,-0.192752,-0.153004, 9.803561,1,1
1778779747993,   783.617,   783.612, 0.017533, 0.013093,-1.009946, 0.000168, 0.000121,-0.010111,-0.062454,-0.069049,-0.072843,1,-0.001794,-0.009579, 0.000355,1,-0.191312,-0.152939, 9.803591,1,1
1778779748016,   783.637,   783.637, 0.023331, 0.019688,-0.981673, 0.000240, 0.000198,-0.009812, 0.036114, 0.041197, 0.176660,1, 0.003851, 0.004883, 0.000227,1,-0.192837,-0.151757, 9.803579,1,1
1778779748041,   783.662,   783.662, 0.016278, 0.009616,-1.007400, 0.000151, 0.000093,-0.010048,-0.032214,-0.057961,-0.075631,1,-0.004909,-0.007211, 0.001045,1,-0.191625,-0.152411, 9.803593,1,1
1778779748063,   783.687,   783.682, 0.024696, 0.020078,-0.982425, 0.000248, 0.000208,-0.009821, 0.072226, 0.043249, 0.072669,1, 0.003318, 0.007981,-0.000190,1,-0.192353,-0.152488, 9.803577,1,1
1778779748086,   783.707,   783.707, 0.013415, 0.008110,-1.006719, 0.000129, 0.000087,-0.010053,-0.060269,-0.072575,-0.068949,1,-0.003188,-0.007135, 0.000439,1,-0.191601,-0.152211, 9.803596,1,1
1778779748112,   783.732,   783.732, 0.024859, 0.022885,-0.994133, 0.000251, 0.000218,-0.009979, 0.052084, 0.071842, 0.054469,1, 0.001935, 0.006379,-0.000184,1,-0.191903,-0.152525, 9.803586,1,1
1778779748133,   783.757,   783.752, 0.012068, 0.008612,-1.000536, 0.000126, 0.000096,-0.009986,-0.041794, 0.009307, 0.155290,1, 0.004026,-0.001949, 0.001016,1,-0.192544,-0.151495, 9.803589,1,1
1778779748156,   783.782,   783.777, 0.022507, 0.021785,-0.999927, 0.000222, 0.000207,-0.010030, 0.029166, 0.061808,-0.002328,1, 0.002896, 0.006394,-0.000792,1,-0.191749,-0.151735, 9.803601,1,1
1778779748182,   783.802,   783.802, 0.017404, 0.016123,-0.984079, 0.000183, 0.000170,-0.009814,-0.021985, 0.007270, 0.153077,1, 0.002927,-0.002316, 0.000545,1,-0.192593,-0.150754, 9.803599,1,1
1778779748203,   783.827,   783.822, 0.023492, 0.020674,-1.000090, 0.000225, 0.000188,-0.010021,-0.006594,-0.051359,-0.107500,1,-0.008035,-0.003110,-0.000131,1,-0.191311,-0.151882, 9.803607,1,1
1778779748226,   783.852,   783.847, 0.018204, 0.016996,-0.983076, 0.000184, 0.000181,-0.009802,-0.014527, 0.015222, 0.162894,1, 0.002379,-0.000809, 0.000387,1,-0.193020,-0.151375, 9.803581,1,1
1778779748252,   783.872,   783.872, 0.018721, 0.009504,-1.013948, 0.000170, 0.000085,-0.010142,-0.008021,-0.058707,-0.139831,1,-0.004073,-0.003536, 0.000050,1,-0.191501,-0.152033, 9.803601,1,1
1778779748273,   783.897,   783.892, 0.017872, 0.014552,-0.979711, 0.000201, 0.000162,-0.009790, 0.073961, 0.067636, 0.175580,1, 0.006304, 0.010892,-0.000515,1,-0.193254,-0.151212, 9.803579,1,1
1778779748296,   783.922,   783.917, 0.013947, 0.007583,-1.013057, 0.000139, 0.000069,-0.010132,-0.055152,-0.077741,-0.131101,1,-0.011203,-0.006049, 0.000036,1,-0.191741,-0.152454, 9.803590,1,1
1778779748322,   783.942,   783.942, 0.020499, 0.023415,-0.986747, 0.000210, 0.000237,-0.009893, 0.008195, 0.076346, 0.126873,1,-0.001606, 0.010233, 0.000027,1,-0.193151,-0.153329, 9.803549,1,1
1778779748343,   783.967,   783.962, 0.017555, 0.011931,-1.016554, 0.000169, 0.000109,-0.010159,-0.043187,-0.045397,-0.032315,1,-0.009705,-0.010422, 0.001042,1,-0.192480,-0.154761, 9.803539,1,1
1778779748366,   783.992,   783.987, 0.025999, 0.024343,-0.981868, 0.000257, 0.000243,-0.009832, 0.061448, 0.083828, 0.174676,1, 0.006482, 0.011280,-0.000115,1,-0.193856,-0.154695, 9.803514,1,1
1778779748392,   784.012,   784.012, 0.014283, 0.009613,-0.995625, 0.000141, 0.000097,-0.009915,-0.053475,-0.060033, 0.039775,1,-0.001693,-0.009601, 0.000770,1,-0.193239,-0.154352, 9.803531,1,1
1778779748413,   784.037,   784.032, 0.025207, 0.021050,-0.984522, 0.000245, 0.000214,-0.009864, 0.025588, 0.009748,-0.022513,1, 0.002697, 0.006110,-0.001093,1,-0.192929,-0.154476, 9.803535,1,1
1778779748436,   784.062,   784.057, 0.017111, 0.011534,-0.996256, 0.000169, 0.000119,-0.009933,-0.025653,-0.040352, 0.033607,1,-0.003996,-0.008029, 0.000463,1,-0.193208,-0.153585, 9.803544,1,1
1778779748462,   784.082,   784.082, 0.023252, 0.017767,-0.997968, 0.000228, 0.000163,-0.010020, 0.035082, 0.020347, 0.016824,1, 0.003011, 0.006792,-0.001037,1,-0.193149,-0.153794, 9.803541,1,1
1778779748484,   784.107,   784.102, 0.012498, 0.008918,-1.001525, 0.000133, 0.000098,-0.009991,-0.022639, 0.005921, 0.167996,1, 0.002926,-0.003387, 0.000517,1,-0.193748,-0.152836, 9.803545,1,1
1778779748510,   784.132,   784.132, 0.025450, 0.018836,-1.004012, 0.000252, 0.000169,-0.010071, 0.056885, 0.030723,-0.042448,1,-0.003617, 0.005947,-0.001191,1,-0.192878,-0.154109, 9.803542,1,1
1778779748532,   784.152,   784.152, 0.020043, 0.018362,-0.983705, 0.000212, 0.000197,-0.009814, 0.002765, 0.026076, 0.156675,1, 0.000536,-0.001758, 0.000516,1,-0.193733,-0.153977, 9.803527,1,1
1778779748554,   784.177,   784.172, 0.024653, 0.020176,-1.004568, 0.000228, 0.000181,-0.010064,-0.028452,-0.055428,-0.143797,1,-0.006096,-0.005985,-0.000865,1,-0.192205,-0.154964, 9.803541,1,1
1778779748581,   784.202,   784.202, 0.021695, 0.019806,-0.983237, 0.000224, 0.000214,-0.009812, 0.019279, 0.039772, 0.161264,1, 0.004186,-0.000683, 0.000745,1,-0.193457,-0.154330, 9.803527,1,1
1778779748602,   784.227,   784.222, 0.017782, 0.016116,-1.002798, 0.000165, 0.000151,-0.010061,-0.075082,-0.064525,-0.116022,1,-0.000212,-0.004694, 0.000400,1,-0.191919,-0.154239, 9.803558,1,1
1778779748624,   784.247,   784.242, 0.019719, 0.017810,-0.982207, 0.000207, 0.000189,-0.009818, 0.029957, 0.044288, 0.142615,1, 0.003126, 0.008333,-0.000223,1,-0.193084,-0.153812, 9.803542,1,1
1778779748651,   784.272,   784.272, 0.018526, 0.010311,-1.006710, 0.000185, 0.000098,-0.010078,-0.010741,-0.052715,-0.068897,1,-0.002308,-0.002421, 0.000536,1,-0.192345,-0.153907, 9.803555,1,1
1778779748672,   784.297,   784.292, 0.017162, 0.016305,-0.982031, 0.000192, 0.000176,-0.009805, 0.037432, 0.054895, 0.158081,1, 0.004514, 0.007513, 0.000280,1,-0.193484,-0.153460, 9.803540,1,1
1778779748694,   784.317,   784.312, 0.014388, 0.006562,-1.010905, 0.000140, 0.000059,-0.010098,-0.077951,-0.065003, 0.014546,1,-0.000307,-0.007563, 0.001005,1,-0.192974,-0.152988, 9.803557,1,1
1778779748721,   784.342,   784.342, 0.025092, 0.022499,-0.989092, 0.000251, 0.000226,-0.009901, 0.052751, 0.067483, 0.103870,1, 0.003307, 0.007911,-0.000312,1,-0.193562,-0.153058, 9.803545,1,1
1778779748742,   784.367,   784.362, 0.019996, 0.009215,-1.007201, 0.000186, 0.000081,-0.010061,-0.017513,-0.064843, 0.030093,1,-0.002011,-0.004082, 0.000810,1,-0.193602,-0.152896, 9.803547,1,1
1778779748764,   784.387,   784.382, 0.023909, 0.023906,-0.985185, 0.000236, 0.000243,-0.009867, 0.051072, 0.019325,-0.010023,1,-0.003202, 0.005003,-0.000850,1,-0.193566,-0.153807, 9.803533,1,1
1778779748791,   784.412,   784.412, 0.013869, 0.010479,-1.001138, 0.000143, 0.000110,-0.009986,-0.057449,-0.051426,-0.014281,1,-0.006549,-0.010567, 0.000729,1,-0.193130,-0.154397, 9.803533,1,1
1778779748812,   784.437,   784.432, 0.025659, 0.025173,-0.984722, 0.000261, 0.000254,-0.009878, 0.036375, 0.035088,-0.034044,1,-0.001239, 0.003487,-0.001389,1,-0.192509,-0.155178, 9.803533,1,1
1778779748834,   784.457,   784.452, 0.014055, 0.010414,-0.997274, 0.000153, 0.000110,-0.009953, 0.013343, 0.014574, 0.177881,1, 0.002983, 0.000126, 0.000257,1,-0.193464,-0.154449, 9.803525,1,1
1778779748861,   784.482,   784.482, 0.020767, 0.018652,-1.002630, 0.000211, 0.000174,-0.010054, 0.011329, 0.027799,-0.028907,1, 0.000733, 0.004463,-0.000837,1,-0.192463,-0.155097, 9.803535,1,1
1778779748883,   784.507,   784.502, 0.015998, 0.011913,-0.997474, 0.000165, 0.000125,-0.009938, 0.001741, 0.027058, 0.163415,1, 0.004480, 0.001282, 0.000094,1,-0.193708,-0.154084, 9.803526,1,1
1778779748904,   784.527,   784.522, 0.024047, 0.019706,-1.001117, 0.000231, 0.000185,-0.010027,-0.006983,-0.043593,-0.092840,1, 0.000483,-0.004410,-0.000514,1,-0.192503,-0.153972, 9.803552,1,1
1778779748931,   784.552,   784.552, 0.020747, 0.015769,-0.984710, 0.000206, 0.000165,-0.009825, 0.009849, 0.002440, 0.146852,1, 0.005515,-0.000819, 0.000666,1,-0.193581,-0.152031, 9.803560,1,1
1778779748953,   784.577,   784.572, 0.021940, 0.018270,-1.002592, 0.000208, 0.000167,-0.010056,-0.027288,-0.061168,-0.118339,1,-0.003521,-0.004372,-0.000415,1,-0.192133,-0.152394, 9.803583,1,1
1778779748974,   784.597,   784.592, 0.017536, 0.014617,-0.985623, 0.000181, 0.000160,-0.009842, 0.026677, 0.046652, 0.144289,1, 0.001264, 0.007842,-0.000147,1,-0.193445,-0.152272, 9.803559,1,1
1778779749001,   784.622,   784.622, 0.018427, 0.009895,-1.011179, 0.000178, 0.000088,-0.010128,-0.011679,-0.056143,-0.112716,1,-0.004196,-0.002032, 0.000261,1,-0.192322,-0.153314, 9.803565,1,1
1778779749023,   784.647,   784.642, 0.017767, 0.015899,-0.981333, 0.000196, 0.000173,-0.009799, 0.046153, 0.066241, 0.181367,1, 0.001564, 0.007684,-0.000374,1,-0.193823,-0.153214, 9.803537,1,1
1778779749045,   784.667,   784.667, 0.014419, 0.011551,-1.008221, 0.000140, 0.000108,-0.010084,-0.051195,-0.040701,-0.083725,1,-0.004164,-0.003477, 0.000316,1,-0.192491,-0.154109, 9.803550,1,1
1778779749071,   784.692,   784.692, 0.025396, 0.021505,-0.985223, 0.000254, 0.000219,-0.009853, 0.055626, 0.056793, 0.141791,1, 0.001609, 0.004576, 0.000072,1,-0.193562,-0.154048, 9.803530,1,1
1778779749093,   784.717,   784.712, 0.018927, 0.011416,-1.008579, 0.000174, 0.000105,-0.010083,-0.029827,-0.032739,-0.041372,1,-0.000248,-0.005678,-0.000147,1,-0.192881,-0.153968, 9.803544,1,1
1778779749116,   784.737,   784.737, 0.022413, 0.022562,-0.982446, 0.000221, 0.000228,-0.009822, 0.026192, 0.067458, 0.169023,1, 0.001243, 0.005589,-0.000524,1,-0.193781,-0.153762, 9.803530,1,1
1778779749141,   784.762,   784.762, 0.013514, 0.008997,-1.004073, 0.000128, 0.000097,-0.010015,-0.060530,-0.065846,-0.043056,1,-0.003694,-0.007611, 0.000896,1,-0.192822,-0.154187, 9.803542,1,1
1778779749163,   784.787,   784.782, 0.025389, 0.024744,-0.985807, 0.000258, 0.000258,-0.009881, 0.049699, 0.044941,-0.015763,1, 0.000080, 0.005342,-0.001456,1,-0.192800,-0.154744, 9.803534,1,1
1778779749186,   784.807,   784.807, 0.013379, 0.008550,-0.997379, 0.000147, 0.000094,-0.009958,-0.061634,-0.070137, 0.022601,1,-0.001111,-0.006841, 0.000975,1,-0.192625,-0.154013, 9.803548,1,1
1778779749211,   784.832,   784.832, 0.021993, 0.017382,-0.996398, 0.000221, 0.000160,-0.009995, 0.023268, 0.016175, 0.032220,1, 0.000361, 0.004417,-0.000667,1,-0.192546,-0.154275, 9.803546,1,1
1778779749233,   784.857,   784.852, 0.016642, 0.011878,-1.002653, 0.000172, 0.000119,-0.009996, 0.022058,-0.004156, 0.106685,1,-0.000466,-0.002715, 0.000728,1,-0.193025,-0.154007, 9.803540,1,1
1778779749256,   784.877,   784.877, 0.026430, 0.017908,-0.997066, 0.000259, 0.000165,-0.009987, 0.066915, 0.020674, 0.025660,1,-0.002748, 0.003484,-0.000655,1,-0.192388,-0.155034, 9.803537,1,1
1778779749281,   784.902,   784.902, 0.017773, 0.017136,-0.987145, 0.000184, 0.000180,-0.009842,-0.018626, 0.012961, 0.122943,1,-0.000706,-0.002275, 0.000915,1,-0.192849,-0.155106, 9.803527,1,1
1778779749303,   784.927,   784.922, 0.024296, 0.020701,-1.004204, 0.000229, 0.000186,-0.010066,-0.031034,-0.064920,-0.121109,1,-0.005358,-0.003615,-0.000703,1,-0.191676,-0.156033, 9.803535,1,1
1778779749326,   784.947,   784.947, 0.020468, 0.017888,-0.982232, 0.000210, 0.000195,-0.009820, 0.007695, 0.019667, 0.171107,1, 0.002972, 0.002375, 0.001101,1,-0.193102,-0.155656, 9.803513,1,1
1778779749352,   784.972,   784.972, 0.014469, 0.007248,-1.007086, 0.000139, 0.000063,-0.010074,-0.050253,-0.085051,-0.072613,1,-0.005124,-0.004600,-0.000714,1,-0.191997,-0.156294, 9.803525,1,1
1778779749373,   784.997,   784.992, 0.017722, 0.015108,-0.981197, 0.000187, 0.000171,-0.009808, 0.005399, 0.055868, 0.132641,1, 0.003893, 0.005820,-0.000451,1,-0.192739,-0.156304, 9.803510,1,1
1778779749396,   785.022,   785.017, 0.017015, 0.007825,-1.011050, 0.000169, 0.000061,-0.010109,-0.024351,-0.079947,-0.111484,1,-0.006479,-0.008956,-0.001179,1,-0.190933,-0.156889, 9.803535,1,1
1778779749422,   785.042,   785.042, 0.024311, 0.022002,-0.985496, 0.000238, 0.000228,-0.009867, 0.046521, 0.058650, 0.139097,1, 0.001823, 0.010287,-0.001081,1,-0.192206,-0.157064, 9.803508,1,1
1778779749443,   785.067,   785.062, 0.012348, 0.013059,-1.017419, 0.000107, 0.000116,-0.010146,-0.059311,-0.051370, 0.010080,1,-0.009915,-0.013936, 0.000495,1,-0.191291,-0.157894, 9.803513,1,1
1778779749466,   785.092,   785.087, 0.028603, 0.025706,-0.988823, 0.000278, 0.000257,-0.009909, 0.089447, 0.093364, 0.106466,1, 0.007333, 0.011377, 0.000177,1,-0.191406,-0.158497, 9.803501,1,1
1778779749492,   785.112,   785.112, 0.017901, 0.013507,-0.991322, 0.000175, 0.000139,-0.009876, 0.025345, 0.022719, 0.214074,1, 0.006569, 0.003123, 0.001444,1,-0.191870,-0.157734, 9.803504,1,1
1778779749513,   785.137,   785.132, 0.021757, 0.021814,-0.984102, 0.000221, 0.000222,-0.009874,-0.009169, 0.010043,-0.050434,1, 0.004607, 0.005536,-0.000251,1,-0.190532,-0.157308, 9.803537,1,1
1778779749536,   785.162,   785.157, 0.015360, 0.009760,-0.997651, 0.000158, 0.000095,-0.009955,-0.040151,-0.060434, 0.019932,1,-0.005722,-0.011324, 0.000853,1,-0.190429,-0.156328, 9.803555,1,1
1778779749562,   785.182,   785.182, 0.023202, 0.020637,-1.007901, 0.000236, 0.000194,-0.010116, 0.037941, 0.044965,-0.080583,1,-0.002213, 0.004373,-0.001455,1,-0.189728,-0.157484, 9.803550,1,1
1778779749583,   785.207,   785.202, 0.011550, 0.011258,-0.993246, 0.000129, 0.000117,-0.009892, 0.024539, 0.014198, 0.203395,1, 0.004789, 0.001690, 0.000480,1,-0.191272,-0.156380, 9.803537,1,1
1778779749606,   785.232,   785.227, 0.018867, 0.015339,-1.006476, 0.000177, 0.000138,-0.010080,-0.004977,-0.006057,-0.066596,1, 0.000329, 0.003655,-0.001577,1,-0.190114,-0.156468, 9.803558,1,1
1778779749632,   785.252,   785.252, 0.022941, 0.019158,-0.984949, 0.000229, 0.000194,-0.009832, 0.033803, 0.031431, 0.144489,1,-0.001399, 0.001310,-0.000655,1,-0.191209,-0.156486, 9.803536,1,1
1778779749653,   785.277,   785.272, 0.025131, 0.018043,-1.000449, 0.000243, 0.000169,-0.010033, 0.020890,-0.041385,-0.086089,1,-0.003533,-0.002634,-0.000160,1,-0.190277,-0.157340, 9.803541,1,1
1778779749676,   785.297,   785.297, 0.014435, 0.015773,-0.979703, 0.000160, 0.000175,-0.009793,-0.050269,-0.001202, 0.195929,1, 0.006541,-0.000924, 0.001078,1,-0.191804,-0.155680, 9.803538,1,1
1778779749702,   785.322,   785.322, 0.015474, 0.007343,-1.014151, 0.000146, 0.000060,-0.010138,-0.038521,-0.083896,-0.141859,1,-0.005226,-0.007759, 0.000134,1,-0.190028,-0.156067, 9.803567,1,1
1778779749724,   785.347,   785.342, 0.020710, 0.017234,-0.977512, 0.000228, 0.000193,-0.009778, 0.067338, 0.077825, 0.111835,1, 0.005215, 0.011023, 0.000554,1,-0.191271,-0.155817, 9.803546,1,1
1778779749751,   785.372,   785.372, 0.013879, 0.010087,-1.009264, 0.000138, 0.000087,-0.010079,-0.054336,-0.057053,-0.093943,1,-0.004059,-0.007431, 0.000452,1,-0.190206,-0.156103, 9.803562,1,1
1778779749772,   785.392,   785.392, 0.020307, 0.021344,-0.986992, 0.000198, 0.000216,-0.009893, 0.007782, 0.054039, 0.124467,1, 0.008378, 0.011553,-0.000140,1,-0.191725,-0.154999, 9.803551,1,1
1778779749794,   785.417,   785.412, 0.019171, 0.013594,-1.014266, 0.000177, 0.000128,-0.010129,-0.028157,-0.028684, 0.011367,1,-0.004282,-0.009986, 0.000770,1,-0.191141,-0.154927, 9.803563,1,1
1778779749821,   785.442,   785.442, 0.026736, 0.022467,-0.982088, 0.000262, 0.000223,-0.009837, 0.070506, 0.065938, 0.172565,1, 0.009027, 0.009972,-0.000390,1,-0.191995,-0.154109, 9.803559,1,1
1778779749842,   785.467,   785.462, 0.017744, 0.012915,-1.016934, 0.000173, 0.000122,-0.010151,-0.065456,-0.040128, 0.034551,1,-0.005298,-0.009331, 0.001225,1,-0.191288,-0.154062, 9.803574,1,1
1778779749864,   785.487,   785.482, 0.025640, 0.021606,-0.985051, 0.000241, 0.000218,-0.009877,-0.011631, 0.010750,-0.078151,1, 0.006294, 0.007684,-0.000102,1,-0.191019,-0.153840, 9.803582,1,1
1778779749891,   785.512,   785.512, 0.015803, 0.010769,-0.997675, 0.000165, 0.000113,-0.009958,-0.037077,-0.047068, 0.019727,1,-0.003951,-0.007180, 0.001256,1,-0.191831,-0.152800, 9.803583,1,1
1778779749912,   785.537,   785.532, 0.020814, 0.022047,-0.983583, 0.000217, 0.000223,-0.009854, 0.010930, 0.013853,-0.005225,1,-0.001150, 0.006011,-0.000885,1,-0.191906,-0.153493, 9.803571,1,1
1778779749934,   785.557,   785.552, 0.014329, 0.010658,-0.999757, 0.000154, 0.000104,-0.009966,-0.019202, 0.002929, 0.153580,1,-0.000747,-0.002389, 0.000581,1,-0.192772,-0.153374, 9.803555,1,1
1778779749961,   785.582,   785.582, 0.024185, 0.022167,-1.005797, 0.000239, 0.000208,-0.010066, 0.045691, 0.063266,-0.059935,1, 0.006353, 0.004750,-0.001240,1,-0.191634,-0.153921, 9.803569,1,1
1778779749982,   785.607,   785.602, 0.016829, 0.008151,-0.999009, 0.000170, 0.000083,-0.009947, 0.020966,-0.009473, 0.204242,1, 0.003388, 0.000787, 0.000909,1,-0.193107,-0.152280, 9.803566,1,1
1778779750004,   785.627,   785.622, 0.022633, 0.018790,-0.999288, 0.000208, 0.000176,-0.010026,-0.033489,-0.041396,-0.131342,1,-0.001904,-0.004044,-0.000208,1,-0.191245,-0.152993, 9.803592,1,1
1778779750031,   785.652,   785.652, 0.018105, 0.015069,-0.982588, 0.000186, 0.000163,-0.009801,-0.015323,-0.004063, 0.167679,1, 0.000889,-0.004926, 0.001183,1,-0.192721,-0.151808, 9.803581,1,1
1778779750052,   785.677,   785.672, 0.021568, 0.016899,-1.000346, 0.000215, 0.000162,-0.010037,-0.017989,-0.050927,-0.118223,1,-0.002031,-0.003688, 0.000451,1,-0.190974,-0.152515, 9.803604,1,1
1778779750074,   785.697,   785.692, 0.017790, 0.012268,-0.985571, 0.000191, 0.000138,-0.009851, 0.023999, 0.029171, 0.134673,1, 0.008015, 0.007388,-0.000021,1,-0.192327,-0.151295, 9.803596,1,1
1778779750101,   785.722,   785.722, 0.021175, 0.011116,-1.008171, 0.000213, 0.000098,-0.010084, 0.016211,-0.042164,-0.083165,1,-0.004019,-0.001725,-0.000462,1,-0.191393,-0.151301, 9.803615,1,1
1778779750123,   785.747,   785.742, 0.014621, 0.013526,-0.987006, 0.000159, 0.000146,-0.009841, 0.008655, 0.061397, 0.164823,1, 0.002554, 0.005551,-0.000152,1,-0.192634,-0.151206, 9.803592,1,1
1778779750144,   785.767,   785.762, 0.021182, 0.011846,-1.015147, 0.000197, 0.000102,-0.010147,-0.065992,-0.066254,-0.057437,1,-0.004213,-0.010632,-0.000216,1,-0.191287,-0.151640, 9.803612,1,1
1778779750171,   785.792,   785.792, 0.027718, 0.025038,-0.984177, 0.000277, 0.000257,-0.009847, 0.080326, 0.094041, 0.152134,1, 0.006243, 0.007097,-0.001005,1,-0.191706,-0.151282, 9.803609,1,1
1778779750193,   785.817,   785.812, 0.016817, 0.010884,-1.006021, 0.000156, 0.000098,-0.010069,-0.040082,-0.068819, 0.010952,1,-0.003172,-0.008012, 0.000354,1,-0.190931,-0.151011, 9.803628,1,1
1778779750214,   785.837,   785.832, 0.019208, 0.022430,-0.981201, 0.000192, 0.000233,-0.009829, 0.003053, 0.048121, 0.052781,1,-0.003215, 0.004318,-0.001055,1,-0.190731,-0.151895, 9.803618,1,1
1778779750241,   785.862,   785.862, 0.015385, 0.011638,-1.007300, 0.000148, 0.000118,-0.010060,-0.039312,-0.038535,-0.074627,1,-0.005599,-0.009498,-0.000341,1,-0.189894,-0.152838, 9.803620,1,1
1778779750263,   785.887,   785.882, 0.026606, 0.024651,-0.977235, 0.000287, 0.000256,-0.009788, 0.098401, 0.081088, 0.059593,1, 0.000557, 0.009330,-0.000551,1,-0.190398,-0.153401, 9.803601,1,1
1778779750285,   785.907,   785.907, 0.009088, 0.008096,-1.000393, 0.000090, 0.000083,-0.009965,-0.101461,-0.073343,-0.006894,1,-0.006933,-0.010015, 0.000745,1,-0.190271,-0.152950, 9.803611,1,1
1778779750311,   785.932,   785.932, 0.016790, 0.019241,-1.004420, 0.000154, 0.000175,-0.010064,-0.025011, 0.033841,-0.046405,1,-0.010532, 0.003974,-0.000884,1,-0.189788,-0.155183, 9.803585,1,1
1778779750333,   785.957,   785.952, 0.024611, 0.013284,-1.001466, 0.000236, 0.000135,-0.009986, 0.051886, 0.018592, 0.112116,1,-0.005120,-0.002373,-0.000004,1,-0.190577,-0.156169, 9.803555,1,1
1778779750356,   785.977,   785.977, 0.022768, 0.020900,-0.995694, 0.000226, 0.000196,-0.009975, 0.033657, 0.048213, 0.039144,1, 0.003970, 0.006126,-0.001383,1,-0.189813,-0.156621, 9.803562,1,1
1778779750381,   786.002,   786.002, 0.009902, 0.010258,-0.987546, 0.000102, 0.000120,-0.009858,-0.093243,-0.055225, 0.119044,1, 0.001573,-0.004753, 0.000302,1,-0.190205,-0.155772, 9.803568,1,1
1778779750403,   786.027,   786.022, 0.023459, 0.020061,-1.000766, 0.000233, 0.000187,-0.010052,-0.031176,-0.059425,-0.140903,1,-0.003063,-0.004397,-0.001085,1,-0.188250,-0.156440, 9.803595,1,1
1778779750426,   786.047,   786.047, 0.022612, 0.013348,-0.980865, 0.000233, 0.000151,-0.009800, 0.031900,-0.024490, 0.184579,1, 0.003377, 0.000088,-0.000040,1,-0.189852,-0.155281, 9.803582,1,1
1778779750451,   786.072,   786.072, 0.021086, 0.012402,-1.002915, 0.000215, 0.000110,-0.010035, 0.018049,-0.034493,-0.031650,1,-0.006382,-0.003847,-0.000825,1,-0.188611,-0.156311, 9.803590,1,1
1778779750473,   786.097,   786.092, 0.012976, 0.012617,-0.987550, 0.000133, 0.000133,-0.009838,-0.023591, 0.041552, 0.193792,1, 0.005762, 0.003744,-0.000385,1,-0.189614,-0.155765, 9.803579,1,1
1778779750496,   786.117,   786.117, 0.020939, 0.015018,-1.021090, 0.000191, 0.000134,-0.010209, 0.019142,-0.009097,-0.209842,1,-0.000721,-0.007373,-0.001817,1,-0.185972,-0.156398, 9.803639,1,1
1778779750521,   786.142,   786.142, 0.027506, 0.022111,-0.981693, 0.000279, 0.000236,-0.009835, 0.082146, 0.062617, 0.176526,1, 0.016915, 0.010426, 0.000071,1,-0.187919,-0.153685, 9.803645,1,1
1778779750543,   786.167,   786.162, 0.015575, 0.012351,-1.010638, 0.000150, 0.000108,-0.010109,-0.034684,-0.071759, 0.015962,1, 0.001268,-0.012597,-0.000375,1,-0.186824,-0.152380, 9.803686,1,1
1778779750566,   786.187,   786.187, 0.018812, 0.021234,-0.982400, 0.000184, 0.000229,-0.009840,-0.002486, 0.057334, 0.169648,1, 0.008848, 0.007267,-0.000336,1,-0.187186,-0.150599, 9.803707,1,1
1778779750592,   786.212,   786.212, 0.019965, 0.012340,-1.008552, 0.000198, 0.000122,-0.010058, 0.010319,-0.029803,-0.086781,1,-0.004154,-0.015822, 0.000129,1,-0.184979,-0.150943, 9.803743,1,1
1778779750613,   786.237,   786.232, 0.022818, 0.019931,-0.977256, 0.000246, 0.000220,-0.009795, 0.069353, 0.081713, 0.011554,1, 0.016429, 0.012553,-0.000749,1,-0.185390,-0.149398, 9.803760,1,1
1778779750636,   786.262,   786.257, 0.009973, 0.009315,-1.000542, 0.000097, 0.000096,-0.009969,-0.087647,-0.055253,-0.008165,1,-0.000890,-0.013260,-0.000052,1,-0.185038,-0.146633, 9.803807,1,1
1778779750662,   786.282,   786.282, 0.019933, 0.020950,-1.000265, 0.000194, 0.000198,-0.010025, 0.010655, 0.058852,-0.005439,1, 0.006169, 0.006915,-0.000338,1,-0.185037,-0.146408, 9.803811,1,1
1778779750683,   786.307,   786.302, 0.021426, 0.008898,-1.005532, 0.000207, 0.000088,-0.010021, 0.017343,-0.010749, 0.119931,1, 0.005187,-0.003388, 0.000838,1,-0.185755,-0.144734, 9.803823,1,1
1778779750706,   786.332,   786.327, 0.022626, 0.020086,-0.995413, 0.000220, 0.000195,-0.009986, 0.037084, 0.052637, 0.042178,1, 0.009475, 0.010894,-0.001195,1,-0.185140,-0.144041, 9.803844,1,1
1778779750732,   786.352,   786.352, 0.010949, 0.007512,-0.981716, 0.000112, 0.000083,-0.009787,-0.078395,-0.069360, 0.176504,1,-0.001873,-0.008132, 0.000765,1,-0.185511,-0.143086, 9.803851,1,1
1778779750753,   786.377,   786.372, 0.022513, 0.023343,-1.003272, 0.000227, 0.000224,-0.010079, 0.002422,-0.018649,-0.195967,1,-0.009587,-0.007249,-0.001095,1,-0.182791,-0.145299, 9.803869,1,1
1778779750776,   786.402,   786.397, 0.020729, 0.009263,-0.978728, 0.000216, 0.000110,-0.009770, 0.018705,-0.052686, 0.205822,1, 0.003159,-0.005626, 0.001004,1,-0.184402,-0.143422, 9.803867,1,1
1778779750802,   786.422,   786.422, 0.017133, 0.010691,-1.010736, 0.000171, 0.000096,-0.010116,-0.014200,-0.039730,-0.108041,1,-0.005738,-0.005894,-0.000710,1,-0.182032,-0.144753, 9.803892,1,1
1778779750823,   786.447,   786.442, 0.015384, 0.010508,-0.980393, 0.000158, 0.000107,-0.009775,-0.013202, 0.016913, 0.219076,1, 0.003176, 0.009179, 0.000035,1,-0.183933,-0.144072, 9.803866,1,1
1778779750846,   786.472,   786.467, 0.020899, 0.016531,-1.018620, 0.000208, 0.000145,-0.010183, 0.024300, 0.014483,-0.185374,1,-0.013367,-0.009835,-0.000293,1,-0.180346,-0.148046, 9.803874,1,1
1778779750872,   786.492,   786.492, 0.022957, 0.019675,-0.982247, 0.000219, 0.000201,-0.009838, 0.043234, 0.045710, 0.171308,1, 0.010473, 0.009960,-0.000741,1,-0.182209,-0.146912, 9.803857,1,1
1778779750893,   786.517,   786.512, 0.019933, 0.016220,-1.011696, 0.000192, 0.000135,-0.010104,-0.016249,-0.081980,-0.003052,1,-0.012216,-0.017452,-0.000610,1,-0.180290,-0.147700, 9.803880,1,1
1778779750916,   786.542,   786.537, 0.016392, 0.019997,-0.982163, 0.000159, 0.000220,-0.009854,-0.019488, 0.048005, 0.172148,1, 0.010530, 0.012895,-0.000323,1,-0.180640,-0.147770, 9.803872,1,1
1778779750942,   786.562,   786.562, 0.016427, 0.008996,-1.000658, 0.000168, 0.000080,-0.009971,-0.017909,-0.060372,-0.009217,1,-0.016027,-0.021930,-0.000124,1,-0.178314,-0.149095, 9.803895,1,1
1778779750964,   786.587,   786.582, 0.018006, 0.017387,-0.980942, 0.000190, 0.000198,-0.009851,-0.004472, 0.103803,-0.083418,1, 0.011226, 0.009227,-0.000708,1,-0.177367,-0.149570, 9.803905,1,1
1778779750991,   786.612,   786.612, 0.013562, 0.007531,-1.000660, 0.000137, 0.000070,-0.009959,-0.044585,-0.073248,-0.009181,1,-0.007187,-0.019865,-0.000398,1,-0.176964,-0.147325, 9.803946,1,1
1778779751012,   786.632,   786.632, 0.019160, 0.020689,-0.997933, 0.000196, 0.000209,-0.010012, 0.011273, 0.055664, 0.017572,1, 0.011822, 0.011872,-0.000374,1,-0.176997,-0.146854, 9.803953,1,1
1778779751034,   786.657,   786.652, 0.016089, 0.008643,-1.006183, 0.000147, 0.000080,-0.010014,-0.048828,-0.061792, 0.200206,1,-0.001181,-0.008711,-0.000489,1,-0.177614,-0.145192, 9.803967,1,1
1778779751061,   786.682,   786.682, 0.026248, 0.023037,-1.000760, 0.000253, 0.000227,-0.010044, 0.081795, 0.079219,-0.010121,1, 0.009165, 0.012703,-0.000046,1,-0.176007,-0.146414, 9.803977,1,1
1778779751082,   786.707,   786.702, 0.016023, 0.007878,-1.001251, 0.000155, 0.000079,-0.009976, 0.001258,-0.036403, 0.221464,1,-0.000679,-0.007760, 0.002194,1,-0.176853,-0.144917, 9.803985,1,1
1778779751104,   786.727,   786.722, 0.019441, 0.019790,-1.000773, 0.000189, 0.000198,-0.010051,-0.003122, 0.005764,-0.111670,1,-0.005677,-0.009692, 0.000413,1,-0.173812,-0.146624, 9.804013,1,1
1778779751131,   786.752,   786.752, 0.014917, 0.010219,-0.985731, 0.000165, 0.000111,-0.009848,-0.028367,-0.045589, 0.137288,1,-0.009775,-0.010528, 0.001603,1,-0.174328,-0.146107, 9.804011,1,1
1778779751152,   786.777,   786.772, 0.023687, 0.027257,-1.007665, 0.000240, 0.000294,-0.010117, 0.024658, 0.034664,-0.228162,1,-0.012784,-0.007995,-0.001235,1,-0.171244,-0.149597, 9.804013,1,1
1778779751174,   786.797,   786.792, 0.016043, 0.010126,-0.974718, 0.000182, 0.000098,-0.009713, 0.034528,-0.005179, 0.214616,1, 0.009517, 0.013974, 0.000914,1,-0.173850,-0.148253, 9.803988,1,1
1778779751201,   786.822,   786.822, 0.014490, 0.015371,-1.013386, 0.000125, 0.000153,-0.010127,-0.028264, 0.001272,-0.133890,1,-0.005984,-0.008584, 0.000102,1,-0.170094,-0.149651, 9.804032,1,1
1778779751222,   786.847,   786.842, 0.018613, 0.016936,-0.978206, 0.000175, 0.000173,-0.009761, 0.019496, 0.032877, 0.169188,1, 0.008179, 0.006347,-0.000201,1,-0.171141,-0.148545, 9.804031,1,1
1778779751244,   786.867,   786.862, 0.017558, 0.015167,-1.010515, 0.000172, 0.000137,-0.010103, 0.015423,-0.040016, 0.031708,1,-0.008690,-0.014293, 0.001211,1,-0.169578,-0.149156, 9.804049,1,1
1778779751271,   786.892,   786.892, 0.014014, 0.018126,-0.979986, 0.000148, 0.000193,-0.009820,-0.032328, 0.029798, 0.193687,1, 0.015231, 0.007540, 0.000905,1,-0.169999,-0.147481, 9.804068,1,1
1778779751292,   786.917,   786.912, 0.016272, 0.013617,-1.020234, 0.000160, 0.000127,-0.010208,-0.073147,-0.074815,-0.048699,1,-0.003753,-0.016989, 0.000516,1,-0.167776,-0.146997, 9.804112,1,1
1778779751314,   786.937,   786.932, 0.019744, 0.020021,-0.984754, 0.000208, 0.000214,-0.009877, 0.034187, 0.061303,-0.085847,1, 0.008929, 0.006812,-0.000467,1,-0.167155,-0.146670, 9.804129,1,1
1778779751341,   786.962,   786.962, 0.009840, 0.007077,-1.003106, 0.000103, 0.000072,-0.009989,-0.070876,-0.076308,-0.032967,1,-0.008973,-0.014385, 0.000671,1,-0.166922,-0.145990, 9.804142,1,1
1778779751363,   786.987,   786.982, 0.019401, 0.022031,-0.987255, 0.000187, 0.000229,-0.009879, 0.015751, 0.046779,-0.074199,1,-0.001242, 0.008191,-0.000805,1,-0.166816,-0.147179, 9.804127,1,1
1778779751384,   787.007,   787.002, 0.016128, 0.011130,-1.001983, 0.000151, 0.000115,-0.009985,-0.009959,-0.005173, 0.151228,1,-0.006931,-0.000858, 0.001236,1,-0.167942,-0.147511, 9.804102,1,1
1778779751411,   787.032,   787.032, 0.022850, 0.018883,-1.000389, 0.000220, 0.000174,-0.010033, 0.056977, 0.034650,-0.006397,1,-0.002818, 0.011888, 0.000438,1,-0.167474,-0.150617, 9.804063,1,1
1778779751433,   787.057,   787.052, 0.011895, 0.009780,-0.993467, 0.000112, 0.000101,-0.009906,-0.026109,-0.021100, 0.223256,1,-0.003432, 0.004313, 0.000955,1,-0.169684,-0.150480, 9.804028,1,1
1778779751454,   787.077,   787.072, 0.021581, 0.020227,-1.004044, 0.000214, 0.000194,-0.010082,-0.015163,-0.036770,-0.107694,1,-0.011490,-0.004858,-0.000488,1,-0.168228,-0.153035, 9.804012,1,1
1778779751481,   787.102,   787.102, 0.018585, 0.015450,-0.972464, 0.000212, 0.000168,-0.009722, 0.010971,-0.000509, 0.267364,1, 0.003411, 0.003321, 0.001676,1,-0.171386,-0.151914, 9.803975,1,1
1778779751503,   787.127,   787.122, 0.019385, 0.017543,-1.008583, 0.000192, 0.000163,-0.010114,-0.043979,-0.058612,-0.139079,1,-0.007649,-0.005680, 0.000482,1,-0.169735,-0.153320, 9.803982,1,1
1778779751525,   787.147,   787.147, 0.018771, 0.016057,-0.976210, 0.000193, 0.000168,-0.009752, 0.011631, 0.005857, 0.230612,1, 0.008052, 0.003749, 0.000453,1,-0.172566,-0.151360, 9.803964,1,1
1778779751551,   787.172,   787.172, 0.016774, 0.007867,-1.015783, 0.000159, 0.000069,-0.010129,-0.006209,-0.074469,-0.157438,1,-0.005405,-0.011110,-0.000045,1,-0.170361,-0.151787, 9.803995,1,1
1778779751573,   787.197,   787.192, 0.018024, 0.017202,-0.978515, 0.000180, 0.000183,-0.009784, 0.019917, 0.073645, 0.075570,1, 0.009561, 0.016464,-0.000292,1,-0.172393,-0.150901, 9.803973,1,1
1778779751596,   787.217,   787.217, 0.014254, 0.011414,-1.014533, 0.000136, 0.000107,-0.010126,-0.031746,-0.038937,-0.145178,1,-0.005474,-0.011289, 0.000971,1,-0.171180,-0.151040, 9.803992,1,1
1778779751621,   787.242,   787.242, 0.018022, 0.023213,-0.990857, 0.000185, 0.000242,-0.009954, 0.004336, 0.077877, 0.086999,1, 0.015270, 0.016326, 0.000130,1,-0.172906,-0.149293, 9.803989,1,1
1778779751643,   787.267,   787.262, 0.018315, 0.004874,-1.014213, 0.000165, 0.000045,-0.010126,-0.075587,-0.017957, 0.116948,1,-0.003725,-0.008951, 0.001471,1,-0.173108,-0.148396, 9.803999,1,1
1778779751666,   787.287,   787.287, 0.016169, 0.018694,-0.990492, 0.000159, 0.000201,-0.009947,-0.015035, 0.034630, 0.090572,1, 0.010007, 0.021618, 0.000193,1,-0.174276,-0.148384, 9.803979,1,1
1778779751691,   787.312,   787.312, 0.012663, 0.009184,-0.989072, 0.000138, 0.000092,-0.009848,-0.051220,-0.058331, 0.104474,1,-0.011613,-0.009128, 0.001646,1,-0.175120,-0.148755, 9.803958,1,1
1778779751713,   787.337,   787.332, 0.024131, 0.023229,-0.986177, 0.000247, 0.000234,-0.009893, 0.046781, 0.019875,-0.105290,1,-0.005037, 0.012140, 0.000830,1,-0.175310,-0.150932, 9.803921,1,1
1778779751736,   787.357,   787.357, 0.016637, 0.010262,-0.984277, 0.000165, 0.000109,-0.009793,-0.014872,-0.049158, 0.151426,1,-0.003562,-0.010743, 0.002270,1,-0.177688,-0.149905, 9.803894,1,1
1778779751762,   787.382,   787.382, 0.018481, 0.011764,-1.017652, 0.000176, 0.000093,-0.010190, 0.005034,-0.036051,-0.175862,1,-0.006338, 0.004029,-0.000448,1,-0.176327,-0.151618, 9.803892,1,1
1778779751783,   787.407,   787.402, 0.015685, 0.013050,-0.989350, 0.000156, 0.000137,-0.009870,-0.026683, 0.012743, 0.161922,1,-0.010781, 0.014732, 0.000985,1,-0.179381,-0.152828, 9.803818,1,1
1778779751806,   787.427,   787.427, 0.021501, 0.019091,-1.009568, 0.000205, 0.000179,-0.010124, 0.031405, 0.029453,-0.096738,1,-0.006607, 0.009951, 0.000494,1,-0.179762,-0.157972, 9.803730,1,1
1778779751832,   787.452,   787.452, 0.015350, 0.013026,-0.977081, 0.000163, 0.000169,-0.009767,-0.032117,-0.028900, 0.221801,1, 0.007468, 0.010736, 0.001805,1,-0.182982,-0.156404, 9.803696,1,1
1778779751853,   787.477,   787.472, 0.029197, 0.021908,-1.013175, 0.000285, 0.000187,-0.010163,-0.033454,-0.023562,-0.119047,1,-0.011199,-0.007645, 0.001145,1,-0.181618,-0.158116, 9.803693,1,1
1778779751876,   787.502,   787.497, 0.024644, 0.017673,-0.969227, 0.000250, 0.000180,-0.009687, 0.056719, 0.016158, 0.298777,1, 0.009171, 0.007358, 0.000492,1,-0.185184,-0.156868, 9.803646,1,1
1778779751902,   787.522,   787.522, 0.011314, 0.005637,-1.010955, 0.000100, 0.000071,-0.010060,-0.071745,-0.101887,-0.110391,1,-0.007094,-0.016642, 0.000999,1,-0.182183,-0.157389, 9.803695,1,1
1778779751923,   787.547,   787.542, 0.018695, 0.016018,-0.983547, 0.000177, 0.000173,-0.009833, 0.035862, 0.063932,-0.024433,1, 0.004151, 0.014041,-0.001292,1,-0.183409,-0.157296, 9.803673,1,1
1778779751946,   787.572,   787.567, 0.013169, 0.006628,-1.006675, 0.000149, 0.000056,-0.010055,-0.054391,-0.093488,-0.068463,1,-0.014958,-0.007129, 0.001368,1,-0.183317,-0.158953, 9.803648,1,1
1778779751972,   787.592,   787.592, 0.008827, 0.024236,-0.988930, 0.000116, 0.000244,-0.009932,-0.098360, 0.077228, 0.105506,1,-0.003758, 0.016306, 0.000932,1,-0.185444,-0.160556, 9.803582,1,1
1778779751993,   787.617,   787.612, 0.022341, 0.009200,-1.010883, 0.000206, 0.000038,-0.010086,-0.067100,-0.065134, 0.166881,1,-0.022591,-0.008845, 0.001683,1,-0.186965,-0.162689, 9.803517,1,1
1778779752016,   787.642,   787.637, 0.018277, 0.030237,-0.989221, 0.000156, 0.000359,-0.009919,-0.008268, 0.131137, 0.102514,1, 0.010604, 0.023497, 0.001282,1,-0.188237,-0.165053, 9.803453,1,1
1778779752042,   787.662,   787.662, 0.013785, 0.008710,-0.979477, 0.000154, 0.000072,-0.009743,-0.053533,-0.079513, 0.198056,1,-0.007364,-0.016212,-0.000882,1,-0.188209,-0.165156, 9.803452,1,1
1778779752063,   787.687,   787.682, 0.030814, 0.036423,-0.996226, 0.000428, 0.000186,-0.010008, 0.108267,-0.314375,-0.140151,1,-0.006361, 0.009903, 0.000164,1,-0.187275,-0.166961, 9.803440,1,1
1778779752086,   787.712,   787.707, 0.023155,-0.006619,-0.985270, 0.000140,-0.000043,-0.009854, 0.039092,-0.234154, 0.141188,1, 0.008041, 0.006476,-0.002198,1,-0.188184,-0.168999, 9.803388,1,1
1778779752112,   787.732,   787.732, 0.010638, 0.054041,-1.024919, 0.000088, 0.000535,-0.010226,-0.079490, 0.359189,-0.247584,1,-0.006701,-0.011728,-0.001421,1,-0.183447,-0.170982, 9.803443,1,1
1778779752134,   787.757,   787.752, 0.009733, 0.007996,-0.983965, 0.000148, 0.000107,-0.009768, 0.133115, 0.031858, 0.437670,1, 0.028835, 0.009195,-0.001411,1,-0.187568,-0.165596, 9.803457,1,1
1778779752156,   787.782,   787.777, 0.017237, 0.017868,-1.019989, 0.000156, 0.000170,-0.010242,-0.012766, 0.010869,-0.199093,1, 0.004787, 0.003577,-0.000954,1,-0.181915,-0.164203, 9.803588,1,1
1778779752182,   787.802,   787.802, 0.010955, 0.006373,-0.980363, 0.000081, 0.000134,-0.009795,-0.075429,-0.100505, 0.189509,1, 0.002339, 0.002315, 0.002363,1,-0.182931,-0.162926, 9.803590,1,1
1778779752204,   787.827,   787.822, 0.021320, 0.024105,-1.018594, 0.000099, 0.000304,-0.010247, 0.167292,-0.244778,-0.020906,1,-0.014570,-0.018067,-0.002368,1,-0.181515,-0.164146, 9.803596,1,1
1778779752231,   787.852,   787.852, 0.024782, 0.027522,-0.962979, 0.000294, 0.000150,-0.009593, 0.058582, 0.107210, 0.359970,1, 0.013898,-0.012924,-0.004735,1,-0.184040,-0.162261, 9.803580,1,1
1778779752252,   787.872,   787.872, 0.014777, 0.013321,-1.005202, 0.000128, 0.000074,-0.010070,-0.036676,-0.031046,-0.054029,1, 0.000514,-0.002212,-0.000630,1,-0.181523,-0.161668, 9.803637,1,1
1778779752274,   787.897,   787.892, 0.001484, 0.047876,-0.989870, 0.000062, 0.000483,-0.009888, 0.198414,-0.118805,-0.000653,1,-0.004473,-0.002483,-0.005770,1,-0.181668,-0.161822, 9.803632,1,1
1778779752301,   787.922,   787.922, 0.034653, 0.014221,-0.984251, 0.000356, 0.000095,-0.009827, 0.157863,-0.024102, 0.151392,1, 0.004830,-0.011553,-0.001283,1,-0.181608,-0.163415, 9.803606,1,1
1778779752322,   787.947,   787.942, 0.012082, 0.014753,-0.984038, 0.000114, 0.000162,-0.009830,-0.092387, 0.039912, 0.091692,1, 0.011263, 0.007505,-0.000051,1,-0.180526,-0.161705, 9.803655,1,1
1778779752344,   787.967,   787.962, 0.010195, 0.011501,-1.020796, 0.000093, 0.000098,-0.010216,-0.088581,-0.093934,-0.054672,1,-0.019368,-0.016186, 0.001589,1,-0.179512,-0.163103, 9.803650,1,1
1778779752371,   787.992,   787.992, 0.019706, 0.029794,-0.988580, 0.000212, 0.000303,-0.009927, 0.013052, 0.125982, 0.108931,1, 0.004129, 0.016291,-0.000024,1,-0.180731,-0.166042, 9.803578,1,1
1778779752392,   788.017,   788.012, 0.023779, 0.018458,-1.015726, 0.000236, 0.000167,-0.010144, 0.029716,-0.031984, 0.023486,1,-0.008221,-0.009293, 0.002200,1,-0.180691,-0.166649, 9.803569,1,1
1778779752414,   788.037,   788.032, 0.023788, 0.019821,-0.978160, 0.000227, 0.000209,-0.009799, 0.024401, 0.079748,-0.033406,1, 0.015022, 0.019464, 0.001027,1,-0.181977,-0.165857, 9.803558,1,1
1778779752441,   788.062,   788.062, 0.032792, 0.010919,-1.011085, 0.000330, 0.000097,-0.010058, 0.138094,-0.056689,-0.111795,1,-0.011486,-0.016336, 0.002034,1,-0.182974,-0.164125, 9.803569,1,1
1778779752462,   788.087,   788.082, 0.031332, 0.013137,-0.966335, 0.000313, 0.000140,-0.009658, 0.120106, 0.028620, 0.106093,1, 0.010949, 0.027132, 0.001332,1,-0.185550,-0.163803, 9.803526,1,1
1778779752484,   788.107,   788.102, 0.019227, 0.016440,-1.019442, 0.000191, 0.000150,-0.010172, 0.055489,-0.065928, 0.103432,1,-0.014245,-0.015043, 0.001322,1,-0.185979,-0.164414, 9.803508,1,1
1778779752511,   788.132,   788.132, 0.024054, 0.013528,-0.975926, 0.000225, 0.000136,-0.009801, 0.048562,-0.031809, 0.232911,1, 0.014205, 0.020722,-0.000793,1,-0.187971,-0.164029, 9.803476,1,1
1778779752532,   788.157,   788.152, 0.010429, 0.015784,-1.016606, 0.000108, 0.000169,-0.010182,-0.025368,-0.021805,-0.033408,1,-0.020192,-0.022337, 0.001686,1,-0.185316,-0.165965, 9.803494,1,1
1778779752554,   788.177,   788.172, 0.005692, 0.013351,-0.977583, 0.000069, 0.000136,-0.009780,-0.092549,-0.022111, 0.036387,1, 0.006847, 0.010785, 0.000346,1,-0.185242,-0.166643, 9.803484,1,1
1778779752581,   788.202,   788.202, 0.004365, 0.010143,-1.014799, 0.000025, 0.000097,-0.010124,-0.140695,-0.068482,-0.148280,1,-0.015436,-0.015142, 0.000803,1,-0.183033,-0.168429, 9.803495,1,1
1778779752603,   788.227,   788.222, 0.018966, 0.024806,-0.972773, 0.000208, 0.000253,-0.009744, 0.065461, 0.061861, 0.052422,1, 0.001405, 0.012881,-0.000886,1,-0.184207,-0.169682, 9.803452,1,1
1778779752624,   788.247,   788.242, 0.005141, 0.011138,-0.999517, 0.000040, 0.000123,-0.009948,-0.094258, 0.013360, 0.241977,1,-0.001202,-0.005355, 0.000760,1,-0.185354,-0.168973, 9.803442,1,1
1778779752651,   788.272,   788.272, 0.015014, 0.019665,-1.008690, 0.000134, 0.000189,-0.010111,-0.035665, 0.022045,-0.088414,1, 0.006307, 0.008303,-0.000148,1,-0.183162,-0.170608, 9.803455,1,1
1778779752673,   788.297,   788.292, 0.023138, 0.014966,-1.011748, 0.000224, 0.000140,-0.010089, 0.017625,-0.015865, 0.063684,1, 0.003648,-0.002791, 0.000068,1,-0.184368,-0.169082, 9.803459,1,1
1778779752694,   788.317,   788.312, 0.016441, 0.026324,-0.988474, 0.000170, 0.000258,-0.009937, 0.031757, 0.034009,-0.145369,1, 0.005951, 0.004319,-0.000272,1,-0.183485,-0.168885, 9.803479,1,1
1778779752721,   788.342,   788.342, 0.013896, 0.004178,-0.977914, 0.000122, 0.000055,-0.009729,-0.050670,-0.124112, 0.213421,1,-0.001290,-0.008363, 0.001003,1,-0.186686,-0.165124, 9.803482,1,1
1778779752743,   788.367,   788.362, 0.043907, 0.034256,-0.998236, 0.000455, 0.000353,-0.010059, 0.190554, 0.109367,-0.292404,1,-0.004649, 0.001835,-0.001654,1,-0.184241,-0.167374, 9.803491,1,1
1778779752765,   788.387,   788.382, 0.036901,-0.000597,-0.959673, 0.000379,-0.000006,-0.009568, 0.204947, 0.019175, 0.384438,1, 0.023179, 0.025100, 0.001926,1,-0.189321,-0.163548, 9.803458,1,1
1778779752791,   788.412,   788.412, 0.023205, 0.026532,-1.001630, 0.000245, 0.000231,-0.010024, 0.039599, 0.094770,-0.019180,1,-0.017390, 0.000734,-0.000881,1,-0.187984,-0.165965, 9.803443,1,1
1778779752813,   788.437,   788.432, 0.021420, 0.011037,-1.013448, 0.000239, 0.000083,-0.010073, 0.089688,-0.074485, 0.155893,1,-0.010179,-0.003801, 0.001009,1,-0.189657,-0.167430, 9.803387,1,1
1778779752836,   788.457,   788.457,-0.001954, 0.030324,-1.014340,-0.000057, 0.000335,-0.010192,-0.203676, 0.128744,-0.143813,1, 0.027553, 0.013234, 0.001516,1,-0.184927,-0.167769, 9.803471,1,1
1778779752861,   788.482,   788.482, 0.054476,-0.003182,-0.995470, 0.000529,-0.000070,-0.009912, 0.348677,-0.196344, 0.041278,1,-0.006248,-0.016547,-0.002423,1,-0.185029,-0.165334, 9.803511,1,1
1778779752883,   788.507,   788.502, 0.042771, 0.008375,-0.959506, 0.000415, 0.000149,-0.009627, 0.161259, 0.260093, 0.086429,1, 0.018141, 0.029122, 0.001595,1,-0.186172,-0.164978, 9.803494,1,1
1778779752906,   788.527,   788.527, 0.003157, 0.021711,-1.004584, 0.000082, 0.000155,-0.010018,-0.154691, 0.044915,-0.048150,1,-0.032003,-0.025945, 0.000612,1,-0.184839,-0.168992, 9.803452,1,1
1778779752931,   788.552,   788.552, 0.041552, 0.013263,-0.997629, 0.000394, 0.000188,-0.010017, 0.220772,-0.039473, 0.020009,1,-0.000372, 0.012912, 0.002620,1,-0.187115,-0.169546, 9.803399,1,1
1778779752953,   788.577,   788.572, 0.050162, 0.037323,-1.023024, 0.000495, 0.000413,-0.010280, 0.228982, 0.188556,-0.268697,1, 0.008281,-0.008977,-0.002674,1,-0.184845,-0.170359, 9.803428,1,1
1778779752976,   788.597,   788.597, 0.060575, 0.009935,-0.961703, 0.000610, 0.000073,-0.009624, 0.402266,-0.064334, 0.372353,1, 0.019457, 0.016875,-0.000597,1,-0.192301,-0.161154, 9.803440,1,1
1778779753002,   788.622,   788.622, 0.085074, 0.022388,-0.987765, 0.000846, 0.000218,-0.009866, 0.640900, 0.057182, 0.116736,1,-0.014001, 0.012065, 0.001417,1,-0.193772,-0.162804, 9.803384,1,1
1778779753023,   788.647,   788.642, 0.104260, 0.015361,-0.980999, 0.001051, 0.000170,-0.009786, 0.836057, 0.156586, 0.233117,1,-0.001431, 0.025270, 0.001943,1,-0.199130,-0.163437, 9.803266,1,1
1778779753046,   788.667,   788.667, 0.124504, 0.047732,-0.984569, 0.001193, 0.000509,-0.009859, 1.017743, 0.303939, 0.147843,1, 0.011753, 0.031114, 0.001102,1,-0.204193,-0.163785, 9.803156,1,1
1778779753072,   788.692,   788.692, 0.132767, 0.032896,-0.959653, 0.001352, 0.000282,-0.009596, 1.093058, 0.160340, 0.392096,1, 0.012731, 0.024790, 0.000827,1,-0.209715,-0.161866, 9.803071,1,1
1778779753093,   788.717,   788.712, 0.119711, 0.032686,-0.985290, 0.001208, 0.000258,-0.009828, 1.113249,-0.005981, 0.223251,1, 0.007298, 0.012613, 0.004106,1,-0.213497,-0.158611, 9.803042,1,1
1778779753116,   788.742,   788.737, 0.144863, 0.016220,-0.985092, 0.001442, 0.000175,-0.009875, 1.202654, 0.002245, 0.142521,1, 0.001929, 0.022865, 0.004487,1,-0.218680,-0.156758, 9.802958,1,1
1778779753142,   788.762,   788.762, 0.154397, 0.047887,-0.987199, 0.001548, 0.000525,-0.009872, 1.292228, 0.313748, 0.121782,1, 0.009278, 0.018021, 0.005263,1,-0.222452,-0.155566, 9.802893,1,1
1778779753163,   788.787,   788.782, 0.148216, 0.038816,-0.996436, 0.001487, 0.000441,-0.009959, 1.233347, 0.237532, 0.074768,1, 0.019943, 0.013446, 0.003447,1,-0.225525,-0.152822, 9.802865,1,1
1778779753186,   788.812,   788.807, 0.154297, 0.038123,-1.002406, 0.001530, 0.000336,-0.010011, 1.283727, 0.224566,-0.027415,1, 0.007496, 0.012921, 0.003539,1,-0.229818,-0.149053, 9.802824,1,1
1778779753212,   788.832,   788.832, 0.163936, 0.022772,-1.011660, 0.001625, 0.000201,-0.010100, 1.375780, 0.074161,-0.118219,1, 0.000491, 0.015703, 0.005668,1,-0.232377,-0.149141, 9.802762,1,1
1778779753233,   788.857,   788.852, 0.163202, 0.024492,-1.007732, 0.001622, 0.000198,-0.010063, 1.407613, 0.113149,-0.071259,1, 0.009945, 0.015640, 0.006921,1,-0.236042,-0.146878, 9.802709,1,1
1778779753256,   788.882,   788.877, 0.171730, 0.020983,-1.006352, 0.001730, 0.000252,-0.010078, 1.443473, 0.060884,-0.066312,1, 0.003666, 0.018831, 0.008746,1,-0.241218,-0.144768, 9.802614,1,1
1778779753282,   788.902,   788.902, 0.181192, 0.041980,-1.003252, 0.001808, 0.000441,-0.010047, 1.531981, 0.268284,-0.036003,1, 0.009101, 0.020400, 0.007061,1,-0.245544,-0.143111, 9.802531,1,1
1778779753303,   788.927,   788.922, 0.187798, 0.034035,-1.005374, 0.001893, 0.000373,-0.010072, 1.512693, 0.150544,-0.078862,1, 0.007142, 0.018049, 0.005964,1,-0.248730,-0.141908, 9.802468,1,1
1778779753326,   788.952,   788.947, 0.178429, 0.026023,-1.002410, 0.001792, 0.000251,-0.010027, 1.563005, 0.212123,-0.042145,1, 0.011899, 0.019822, 0.006923,1,-0.253403,-0.139964, 9.802377,1,1
1778779753352,   788.972,   788.972, 0.174385, 0.021091,-1.000857, 0.001747, 0.000197,-0.009997, 1.454748, 0.068206,-0.012712,1, 0.007345, 0.009768, 0.007723,1,-0.255690,-0.138386, 9.802340,1,1
1778779753374,   788.997,   788.992, 0.189842, 0.021183,-0.996750, 0.001879, 0.000173,-0.009965, 1.588734, 0.076293,-0.024642,1, 0.001361, 0.011510, 0.009825,1,-0.258196,-0.137721, 9.802283,1,1
1778779753396,   789.022,   789.017, 0.183470, 0.019979,-0.981720, 0.001853, 0.000238,-0.009815, 1.537154, 0.059552, 0.174812,1, 0.001746, 0.009190, 0.010878,1,-0.262365,-0.136315, 9.802192,1,1
1778779753422,   789.042,   789.042, 0.197038, 0.031490,-0.992565, 0.001970, 0.000317,-0.009919, 1.668782, 0.171934, 0.068413,1,-0.011751, 0.000064, 0.009676,1,-0.263510,-0.137234, 9.802149,1,1
1778779753444,   789.067,   789.062, 0.198409, 0.032212,-0.987136, 0.001985, 0.000355,-0.009876, 1.584287, 0.184172, 0.070276,1,-0.005678, 0.013039, 0.010523,1,-0.264534,-0.139714, 9.802086,1,1
1778779753471,   789.092,   789.092, 0.184448, 0.047465,-0.994362, 0.001816, 0.000429,-0.009949, 1.543420, 0.325201, 0.050697,1, 0.004377, 0.006007, 0.009488,1,-0.265589,-0.140131, 9.802052,1,1
1778779753492,   789.112,   789.112, 0.189910, 0.022250,-0.978883, 0.001912, 0.000215,-0.009799, 1.595779, 0.078628, 0.202467,1, 0.001155, 0.004458, 0.012930,1,-0.266750,-0.139524, 9.802029,1,1
1778779753514,   789.137,   789.132, 0.180269, 0.021539,-0.985006, 0.001818, 0.000216,-0.009864, 1.613704, 0.275081, 0.100156,1, 0.007927,-0.001384, 0.014072,1,-0.267074,-0.137889, 9.802043,1,1
1778779753541,   789.162,   789.162, 0.198433, 0.035114,-0.979276, 0.002002, 0.000389,-0.009798, 1.677815, 0.209232, 0.198631,1, 0.006256, 0.000760, 0.013838,1,-0.268181,-0.134915, 9.802054,1,1
1778779753562,   789.187,   789.182, 0.199601, 0.032296,-0.977489, 0.001969, 0.000356,-0.009752, 1.550688, 0.242694, 0.254940,1, 0.006972, 0.010804, 0.012812,1,-0.269239,-0.134534, 9.802031,1,1
1778779753584,   789.207,   789.202, 0.183852, 0.036299,-0.987027, 0.001844, 0.000283,-0.009856, 1.640994, 0.030475, 0.202983,1,-0.016287,-0.005221, 0.017554,1,-0.269841,-0.135834, 9.801995,1,1
1778779753611,   789.232,   789.232, 0.201978, 0.025966,-0.986388, 0.002033, 0.000277,-0.009878, 1.709851, 0.117420, 0.128785,1,-0.008339, 0.002209, 0.018515,1,-0.270953,-0.137459, 9.801942,1,1
1778779753632,   789.257,   789.252, 0.201733, 0.032451,-0.981552, 0.001988, 0.000369,-0.009833, 1.487678, 0.372270, 0.135604,1, 0.011400, 0.009137, 0.020499,1,-0.271482,-0.136776, 9.801937,1,1
1778779753654,   789.277,   789.272, 0.170900, 0.048311,-0.982478, 0.001715, 0.000471,-0.009842, 1.631658, 0.153806, 0.168691,1, 0.000741,-0.003152, 0.021297,1,-0.272403,-0.136204, 9.801920,1,1
1778779753681,   789.302,   789.302, 0.203114, 0.019208,-0.961351, 0.002095, 0.000190,-0.009624, 1.716043, 0.053758, 0.374211,1,-0.020062, 0.001715, 0.026782,1,-0.275895,-0.135208, 9.801836,1,1
1778779753702,   789.327,   789.322, 0.211603, 0.026743,-0.995226, 0.002152, 0.000318,-0.009959, 1.719711, 0.351271, 0.084740,1,-0.013941, 0.011425, 0.025315,1,-0.277070,-0.138440, 9.801758,1,1
1778779753724,   789.347,   789.342, 0.181491, 0.048312,-0.992749, 0.001801, 0.000502,-0.009931, 1.601888, 0.221785, 0.043098,1,-0.019082, 0.002677, 0.030245,1,-0.277615,-0.143024, 9.801677,1,1
1778779753751,   789.372,   789.372, 0.203027, 0.031551,-0.995467, 0.002043, 0.000286,-0.009935, 1.710809, 0.166191, 0.039403,1,-0.016207,-0.005029, 0.033990,1,-0.280066,-0.143690, 9.801597,1,1
1778779753772,   789.397,   789.392, 0.210846, 0.022272,-0.989155, 0.002058, 0.000276,-0.009888, 1.500550, 0.413287, 0.054967,1, 0.013191, 0.021702, 0.033891,1,-0.281897,-0.143314, 9.801550,1,1
1778779753794,   789.417,   789.412, 0.165275, 0.055170,-1.012607, 0.001644, 0.000541,-0.010126, 1.603650, 0.171659, 0.019240,1,-0.025848,-0.019006, 0.035523,1,-0.281587,-0.145799, 9.801522,1,1
1778779753821,   789.442,   789.442, 0.200044, 0.042472,-0.999116, 0.001921, 0.000482,-0.010044, 1.843909, 0.085348, 0.148598,1,-0.023743,-0.001258, 0.039244,1,-0.284738,-0.147668, 9.801403,1,1
1778779753843,   789.467,   789.462, 0.220555, 0.028680,-1.000684, 0.002192, 0.000340,-0.010021, 1.512987, 0.362683,-0.037671,1,-0.001184, 0.015679, 0.038416,1,-0.284614,-0.150436, 9.801365,1,1
1778779753864,   789.487,   789.482, 0.174563, 0.059427,-0.991516, 0.001762, 0.000561,-0.009920, 1.699522, 0.076026, 0.043118,1,-0.031221,-0.010520, 0.042444,1,-0.285110,-0.154204, 9.801291,1,1
1778779753891,   789.512,   789.512, 0.215006, 0.026089,-0.979801, 0.002133, 0.000233,-0.009785, 1.820473, 0.098918, 0.192595,1,-0.033621,-0.002673, 0.044974,1,-0.287954,-0.157936, 9.801149,1,1
1778779753913,   789.537,   789.532, 0.205151, 0.036948,-0.974767, 0.001973, 0.000454,-0.009781, 1.482998, 0.499707, 0.068626,1,-0.012332, 0.013825, 0.048205,1,-0.287005,-0.164329, 9.801072,1,1
1778779753934,   789.557,   789.552, 0.194666, 0.046432,-0.978019, 0.002042, 0.000382,-0.009769, 1.877080, 0.065512, 0.360898,1,-0.022535, 0.001604, 0.049953,1,-0.291842,-0.164411, 9.800927,1,1
1778779753961,   789.582,   789.582, 0.183624, 0.036066,-0.966421, 0.001792, 0.000389,-0.009682, 1.508255, 0.183883, 0.323459,1,-0.000760, 0.025546, 0.052327,1,-0.293305,-0.169776, 9.800793,1,1
1778779753983,   789.607,   789.602, 0.144053, 0.078785,-1.014349, 0.001488, 0.000809,-0.010181, 1.402684, 0.320216,-0.143470,1,-0.052870,-0.035727, 0.051319,1,-0.288447,-0.178052, 9.800790,1,1
1778779754006,   789.627,   789.627, 0.154373, 0.004388,-0.967553, 0.001546, 0.000070,-0.009656, 1.222611,-0.133834, 0.312274,1,-0.005490,-0.011320, 0.055703,1,-0.290949,-0.176982, 9.800735,1,1
1778779754031,   789.652,   789.652, 0.108723, 0.068480,-1.015772, 0.001112, 0.000669,-0.010180, 0.781562, 0.488885,-0.160504,1,-0.019958,-0.014012, 0.056620,1,-0.284242,-0.183251, 9.800817,1,1
1778779754053,   789.677,   789.672, 0.118442, 0.019867,-1.001712, 0.001179, 0.000148,-0.009882, 0.766738,-0.062617, 0.510784,1,-0.024761,-0.009452, 0.058664,1,-0.287012,-0.183924, 9.800723,1,1
1778779754076,   789.697,   789.697, 0.069148, 0.107274,-1.057955, 0.000684, 0.001093,-0.010656, 0.406894, 0.854081,-0.574091,1, 0.014095,-0.003651, 0.056823,1,-0.271133,-0.197431, 9.800913,1,1
1778779754101,   789.722,   789.722, 0.093893, 0.021881,-0.959761, 0.000892, 0.000154,-0.009517, 0.648199, 0.024387, 0.388978,1, 0.012432,-0.040543, 0.047534,1,-0.271337,-0.189761, 9.801059,1,1
1778779754123,   789.747,   789.742, 0.058197, 0.048766,-1.026871, 0.000529, 0.000638,-0.010350, 0.245957, 0.654800,-0.658799,1, 0.012824,-0.039731, 0.051051,1,-0.257278,-0.191123, 9.801412,1,1
1778779754146,   789.767,   789.767, 0.055708, 0.048459,-1.005480, 0.000642, 0.000464,-0.010014, 0.292666, 0.298391,-0.058619,1, 0.022894,-0.057498, 0.044030,1,-0.251874,-0.176077, 9.801833,1,1
1778779754171,   789.792,   789.792, 0.080830, 0.031816,-0.976410, 0.000772, 0.000412,-0.009856, 0.542717, 0.140707, 0.226654,1, 0.027323, 0.007889, 0.047638,1,-0.250240,-0.170437, 9.801975,1,1
1778779754193,   789.817,   789.812, 0.039590, 0.055545,-1.005421, 0.000457, 0.000645,-0.010075, 0.546243, 0.362700, 0.028583,1,-0.006679,-0.043825, 0.043748,1,-0.244497,-0.170511, 9.802118,1,1
1778779754216,   789.837,   789.837, 0.069992, 0.003977,-0.988938, 0.000672, 0.000069,-0.009856, 0.443945,-0.124563, 0.104121,1, 0.015539,-0.021281, 0.044051,1,-0.241806,-0.163046, 9.802313,1,1
1778779754242,   789.862,   789.862, 0.054382, 0.055299,-1.001074, 0.000493, 0.000579,-0.010038, 0.295783, 0.379837,-0.014758,1, 0.023269, 0.007440, 0.049860,1,-0.237784,-0.161694, 9.802433,1,1
1778779754263,   789.887,   789.882, 0.053882, 0.024324,-0.993897, 0.000592, 0.000158,-0.009873, 0.609071,-0.317316, 0.390830,1, 0.003676,-0.008519, 0.051640,1,-0.240893,-0.156904, 9.802435,1,1
1778779754286,   789.907,   789.907, 0.064055, 0.007784,-0.992117, 0.000623, 0.000171,-0.009982, 0.388265,-0.079741, 0.073124,1, 0.013254, 0.031907, 0.055860,1,-0.240921,-0.155623, 9.802455,1,1
1778779754312,   789.932,   789.932, 0.064154, 0.038137,-0.984556, 0.000684, 0.000375,-0.009829, 0.386156, 0.218209, 0.147206,1,-0.008523,-0.001695, 0.052766,1,-0.242951,-0.156015, 9.802399,1,1
1778779754333,   789.957,   789.952, 0.079733, 0.002087,-0.982995, 0.000770, 0.000082,-0.009797, 0.480974, 0.036716, 0.104578,1, 0.005329, 0.025369, 0.053500,1,-0.247001,-0.155305, 9.802309,1,1
1778779754356,   789.982,   789.977, 0.058691, 0.043039,-0.993956, 0.000619, 0.000532,-0.009954, 0.324491, 0.268201, 0.054845,1, 0.010094, 0.019840, 0.054016,1,-0.251720,-0.153510, 9.802217,1,1
1778779754382,   790.002,   790.002, 0.089582, 0.004785,-0.976278, 0.000862,-0.000050,-0.009733, 0.622075,-0.106626, 0.228072,1,-0.010034, 0.010821, 0.045501,1,-0.256786,-0.153835, 9.802080,1,1
1778779754403,   790.027,   790.022, 0.077358, 0.009374,-0.966150, 0.000775, 0.000087,-0.009694, 0.350986,-0.014630, 0.089295,1, 0.003206, 0.022679, 0.052052,1,-0.257787,-0.154715, 9.802040,1,1
1778779754426,   790.052,   790.047, 0.049042, 0.020447,-1.002275, 0.000493, 0.000189,-0.009991, 0.223425, 0.046136,-0.026905,1,-0.000401,-0.018559, 0.049464,1,-0.256961,-0.154355, 9.802068,1,1
1778779754452,   790.072,   790.072, 0.067418, 0.000318,-0.989594, 0.000701, 0.000052,-0.009941, 0.403765,-0.148588, 0.097491,1, 0.015728, 0.000768, 0.051800,1,-0.257432,-0.151172, 9.802105,1,1
1778779754473,   790.097,   790.092, 0.042179, 0.012469,-0.999062, 0.000442, 0.000120,-0.009952, 0.303498, 0.145720, 0.158382,1,-0.000839,-0.021097, 0.047851,1,-0.255068,-0.149716, 9.802189,1,1
1778779754496,   790.122,   790.117, 0.038857, 0.026108,-1.027424, 0.000408, 0.000252,-0.010277, 0.133182, 0.104863,-0.273234,1,-0.002483,-0.027506, 0.046935,1,-0.247037,-0.151206, 9.802372,1,1
1778779754522,   790.142,   790.142, 0.030631, 0.004626,-1.015142, 0.000318, 0.000089,-0.010168, 0.056523,-0.105571,-0.152688,1, 0.003035,-0.015456, 0.049298,1,-0.243407,-0.150808, 9.802469,1,1
1778779754543,   790.167,   790.162, 0.022856, 0.046573,-0.991134, 0.000186, 0.000465,-0.009920, 0.096763, 0.068026,-0.068684,1, 0.002406,-0.016144, 0.046865,1,-0.240734,-0.149616, 9.802553,1,1
1778779754566,   790.192,   790.187, 0.030861, 0.003860,-0.978122, 0.000319, 0.000041,-0.009756, 0.061603,-0.111806, 0.210442,1,-0.013964,-0.010463, 0.043431,1,-0.240771,-0.150190, 9.802544,1,1
1778779754592,   790.212,   790.212, 0.022933, 0.036337,-0.996789, 0.000253, 0.000406,-0.009986,-0.014282, 0.204005, 0.027388,1,-0.007657,-0.002111, 0.046540,1,-0.239135,-0.152542, 9.802547,1,1
1778779754613,   790.237,   790.232, 0.029603, 0.023832,-0.979660, 0.000290, 0.000278,-0.009783, 0.038167,-0.016814, 0.247901,1,-0.011805, 0.000479, 0.042279,1,-0.240307,-0.153704, 9.802501,1,1
1778779754636,   790.262,   790.257, 0.027374, 0.021669,-0.989933, 0.000254, 0.000263,-0.009881, 0.028393, 0.054510, 0.094514,1,-0.013855, 0.003449, 0.042200,1,-0.240180,-0.158386, 9.802429,1,1
1778779754662,   790.282,   790.282, 0.022773, 0.035470,-1.006879, 0.000226, 0.000293,-0.010039,-0.016632, 0.187737,-0.071704,1,-0.004020,-0.003518, 0.039815,1,-0.239874,-0.160202, 9.802407,1,1
1778779754684,   790.307,   790.302, 0.042820, 0.030521,-0.969154, 0.000435, 0.000216,-0.009677, 0.017988,-0.189884, 0.182742,1,-0.000420, 0.022777, 0.043739,1,-0.242696,-0.159673, 9.802346,1,1
1778779754711,   790.332,   790.332, 0.014636, 0.029686,-0.981778, 0.000108, 0.000306,-0.009824,-0.100182, 0.127819, 0.174311,1,-0.014195, 0.013152, 0.047836,1,-0.244147,-0.163703, 9.802243,1,1
1778779754732,   790.352,   790.352, 0.032337, 0.031748,-0.988136, 0.000374, 0.000306,-0.009863, 0.072213, 0.146062, 0.111890,1,-0.013412,-0.013597, 0.044059,1,-0.244508,-0.165668, 9.802201,1,1
1778779754754,   790.377,   790.372, 0.042325, 0.018149,-0.977629, 0.000435, 0.000146,-0.009765, 0.029487, 0.250015, 0.196699,1, 0.010399, 0.017109, 0.048979,1,-0.245810,-0.164725, 9.802185,1,1
1778779754781,   790.402,   790.402,-0.004324, 0.042956,-0.999202,-0.000005, 0.000399,-0.010027,-0.287864, 0.257719, 0.003385,1, 0.015076, 0.002156, 0.048012,1,-0.245557,-0.163030, 9.802219,1,1
1778779754802,   790.427,   790.422,-0.008493, 0.025725,-1.018024,-0.000077, 0.000241,-0.010136, 0.028480,-0.028274,-0.054226,1,-0.009185,-0.017678, 0.048490,1,-0.245891,-0.161176, 9.802241,1,1
1778779754824,   790.447,   790.442, 0.030038, 0.022783,-1.043322, 0.000313, 0.000288,-0.010427, 0.035537, 0.238634,-0.421966,1, 0.014858,-0.002918, 0.043221,1,-0.243516,-0.160501, 9.802312,1,1
1778779754851,   790.472,   790.472, 0.020419, 0.032336,-1.032107, 0.000171, 0.000368,-0.010320,-0.042669, 0.161353,-0.319114,1, 0.025851, 0.001387, 0.044211,1,-0.242972,-0.154913, 9.802416,1,1
1778779754872,   790.497,   790.492, 0.012916, 0.020507,-1.037257, 0.000094, 0.000265,-0.010396,-0.307322, 0.165542,-0.423836,1, 0.009030,-0.005936, 0.042358,1,-0.241102,-0.152947, 9.802492,1,1
1778779754894,   790.517,   790.512, 0.019248, 0.034454,-1.007633, 0.000202, 0.000307,-0.010073,-0.057893,-0.010644,-0.092155,1, 0.001520, 0.015639, 0.041586,1,-0.244329,-0.150822, 9.802445,1,1
1778779754921,   790.542,   790.542, 0.026410, 0.033169,-1.006001, 0.000262, 0.000191,-0.010073, 0.013134, 0.170076,-0.063162,1,-0.013789, 0.010813, 0.041104,1,-0.246221,-0.155596, 9.802323,1,1
1778779754942,   790.567,   790.562, 0.022457, 0.037225,-0.998375, 0.000217, 0.000397,-0.009976,-0.079178,-0.107025, 0.029616,1,-0.003908, 0.009130, 0.041012,1,-0.248400,-0.155356, 9.802273,1,1
1778779754964,   790.587,   790.582, 0.028783, 0.033293,-0.991184, 0.000272, 0.000282,-0.009931,-0.074761,-0.224670, 0.028506,1,-0.009974, 0.001306, 0.045378,1,-0.248590,-0.156651, 9.802247,1,1
1778779754991,   790.612,   790.612, 0.037401, 0.011285,-0.973482, 0.000324, 0.000031,-0.009713, 0.117243,-0.048381, 0.255585,1,-0.010788, 0.000699, 0.038239,1,-0.249575,-0.159351, 9.802178,1,1
1778779755012,   790.637,   790.632, 0.040642, 0.021609,-0.959710, 0.000359, 0.000168,-0.009619,-0.015967,-0.043250, 0.213711,1,-0.009369,-0.002316, 0.045877,1,-0.247984,-0.161143, 9.802190,1,1
1778779755034,   790.657,   790.652, 0.021739, 0.025536,-0.965764, 0.000242, 0.000247,-0.009637, 0.141111, 0.104547, 0.426046,1,-0.011626,-0.020816, 0.042856,1,-0.247163,-0.162712, 9.802184,1,1
1778779755061,   790.682,   790.682, 0.048827, 0.035020,-0.956654, 0.000464, 0.000364,-0.009562, 0.235011, 0.179136, 0.420666,1,-0.007957,-0.016184, 0.041386,1,-0.243334,-0.164506, 9.802250,1,1
1778779755083,   790.707,   790.702, 0.075657, 0.023501,-0.971331, 0.000745, 0.000251,-0.009720, 0.279106, 0.376375, 0.246347,1, 0.006576,-0.015124, 0.041443,1,-0.238862,-0.164977, 9.802352,1,1
1778779755104,   790.727,   790.722, 0.051286, 0.031122,-0.980882, 0.000509, 0.000351,-0.009797, 0.401831, 0.385471, 0.277624,1, 0.011290,-0.018888, 0.041529,1,-0.236258,-0.163066, 9.802447,1,1
1778779755131,   790.752,   790.752, 0.080639, 0.032445,-0.989563, 0.000802, 0.000302,-0.009894, 0.474753, 0.172922, 0.129621,1, 0.025739,-0.008532, 0.039238,1,-0.233848,-0.158137, 9.802586,1,1
1778779755153,   790.777,   790.772, 0.111327, 0.033044,-0.971885, 0.001151, 0.000287,-0.009744, 0.850230, 0.173352, 0.164385,1, 0.033952, 0.013049, 0.043587,1,-0.233313,-0.149947, 9.802728,1,1
1778779755174,   790.797,   790.792, 0.129741, 0.038336,-0.996450, 0.001326, 0.000393,-0.009978, 0.938872, 0.253416, 0.155970,1, 0.022217,-0.000614, 0.041144,1,-0.234235,-0.145110, 9.802778,1,1
1778779755201,   790.822,   790.822, 0.123077, 0.048319,-0.981674, 0.001199, 0.000500,-0.009844, 0.970820, 0.335520, 0.175891,1, 0.038378, 0.025651, 0.042711,1,-0.236974,-0.137095, 9.802828,1,1
1778779755223,   790.847,   790.842, 0.127883, 0.046750,-1.002553, 0.001253, 0.000478,-0.010016, 1.017576, 0.141577, 0.124937,1, 0.009904, 0.001003, 0.045492,1,-0.239191,-0.132998, 9.802831,1,1
1778779755246,   790.867,   790.867, 0.141915, 0.032699,-0.991703, 0.001477, 0.000298,-0.009915, 1.146813, 0.192100, 0.077468,1, 0.009235, 0.014220, 0.044659,1,-0.245355,-0.128246, 9.802741,1,1
1778779755271,   790.892,   790.892, 0.127691, 0.033135,-1.002400, 0.001270, 0.000385,-0.010046, 1.003435, 0.199138,-0.027502,1, 0.009378, 0.025533, 0.045224,1,-0.249596,-0.125473, 9.802670,1,1
1778779755293,   790.917,   790.912, 0.124732, 0.036456,-1.020432, 0.001228, 0.000343,-0.010198, 1.141833, 0.111434,-0.184916,1,-0.005451, 0.013791, 0.042089,1,-0.253704,-0.125884, 9.802560,1,1
1778779755316,   790.937,   790.937, 0.134874, 0.009630,-1.006552, 0.001371, 0.000013,-0.010065, 1.061091,-0.031171,-0.068552,1,-0.012520, 0.021305, 0.040757,1,-0.262255,-0.125968, 9.802333,1,1
1778779755341,   790.962,   790.962, 0.126928, 0.000549,-1.013727, 0.001254,-0.000030,-0.010191, 0.979137,-0.123238,-0.139060,1,-0.023871, 0.031061, 0.040741,1,-0.266590,-0.129330, 9.802173,1,1
1778779755363,   790.987,   790.982, 0.124550, 0.016154,-1.000016, 0.001231, 0.000158,-0.009994, 0.841610, 0.008943, 0.104176,1,-0.026995, 0.019713, 0.040414,1,-0.271769,-0.134502, 9.801961,1,1
1778779755386,   791.007,   791.007, 0.103794, 0.026236,-0.993601, 0.001065, 0.000247,-0.009953, 0.742176, 0.114877, 0.057844,1,-0.023689, 0.013413, 0.038877,1,-0.276133,-0.143113, 9.801717,1,1
1778779755412,   791.032,   791.032, 0.119960, 0.028627,-0.982092, 0.001226, 0.000295,-0.009826, 0.897708, 0.135711, 0.170584,1,-0.013660, 0.005178, 0.038521,1,-0.278877,-0.145421, 9.801605,1,1
1778779755433,   791.057,   791.052, 0.099203, 0.025556,-0.982377, 0.001062, 0.000327,-0.009833, 0.869992, 0.215341, 0.023856,1, 0.013440, 0.006988, 0.033016,1,-0.279657,-0.144423, 9.801598,1,1
1778779755456,   791.077,   791.077, 0.095140, 0.027846,-0.995192, 0.000967, 0.000269,-0.009954, 0.654795, 0.132911, 0.042197,1, 0.019848,-0.007309, 0.035125,1,-0.277995,-0.139517, 9.801716,1,1
1778779755482,   791.102,   791.102, 0.116904, 0.026762,-0.980574, 0.001158, 0.000248,-0.009828, 0.868145, 0.126368, 0.185606,1, 0.013094, 0.000972, 0.030893,1,-0.278331,-0.135638, 9.801761,1,1
1778779755503,   791.127,   791.122, 0.125093, 0.012827,-1.000137, 0.001273, 0.000199,-0.009986, 0.969865, 0.413591, 0.107797,1, 0.007249,-0.005833, 0.032521,1,-0.277587,-0.133582, 9.801810,1,1
1778779755526,   791.147,   791.147, 0.129019, 0.046193,-0.992951, 0.001232, 0.000510,-0.009944, 0.988650, 0.323669, 0.064375,1, 0.029850, 0.011002, 0.029219,1,-0.276952,-0.128371, 9.801898,1,1
1778779755552,   791.172,   791.172, 0.131987, 0.054769,-0.972806, 0.001348, 0.000486,-0.009745, 1.017126, 0.411406, 0.261954,1, 0.012158,-0.000827, 0.031077,1,-0.277210,-0.125288, 9.801930,1,1
1778779755573,   791.197,   791.192, 0.149085, 0.051524,-0.992723, 0.001492, 0.000435,-0.009889, 1.404797, 0.062715, 0.207444,1, 0.001337,-0.007357, 0.028746,1,-0.278311,-0.123458, 9.801923,1,1
1778779755596,   791.222,   791.217, 0.162731, 0.018256,-0.999129, 0.001636, 0.000131,-0.010001, 1.318628, 0.059976, 0.003902,1, 0.019684,-0.000008, 0.028525,1,-0.277226,-0.118419, 9.802015,1,1
1778779755622,   791.242,   791.242, 0.175661, 0.038141,-0.998081, 0.001710, 0.000418,-0.009965, 1.445464, 0.259558, 0.014234,1, 0.023071, 0.004666, 0.030117,1,-0.277339,-0.113734, 9.802068,1,1
1778779755643,   791.267,   791.262, 0.185817, 0.029028,-0.987259, 0.001817, 0.000293,-0.009842, 1.489494, 0.266266, 0.158438,1, 0.017864, 0.005729, 0.027967,1,-0.278632,-0.109879, 9.802075,1,1
1778779755666,   791.292,   791.287, 0.183980, 0.035959,-0.995892, 0.001816, 0.000330,-0.009951, 1.526036, 0.244500, 0.035738,1, 0.000118,-0.000803, 0.029924,1,-0.278178,-0.108103, 9.802108,1,1
1778779755692,   791.312,   791.312, 0.195417, 0.038149,-0.995834, 0.001984, 0.000292,-0.009970, 1.638003, 0.266033, 0.036306,1,-0.005933,-0.005349, 0.028774,1,-0.278224,-0.108243, 9.802105,1,1
1778779755713,   791.337,   791.332, 0.172803, 0.016835,-0.987055, 0.001782, 0.000206,-0.009914, 1.388470, 0.259847, 0.031041,1, 0.000871, 0.007255, 0.029275,1,-0.278153,-0.108494, 9.802104,1,1
1778779755736,   791.362,   791.357, 0.168525, 0.026219,-0.999830, 0.001767, 0.000258,-0.010030, 1.373375, 0.146951,-0.002928,1,-0.010779,-0.006512, 0.030203,1,-0.279100,-0.110475, 9.802055,1,1
1778779755762,   791.382,   791.382, 0.149891, 0.017699,-0.990377, 0.001536, 0.000200,-0.009950, 1.189244, 0.062368, 0.089725,1,-0.003178, 0.014659, 0.031387,1,-0.281152,-0.111271, 9.801988,1,1
1778779755783,   791.407,   791.402, 0.136322, 0.030085,-1.016113, 0.001333, 0.000304,-0.010143, 1.131389, 0.208537,-0.045420,1,-0.017578,-0.008715, 0.030083,1,-0.281743,-0.113268, 9.801948,1,1
1778779755806,   791.432,   791.427, 0.131763, 0.010185,-1.004791, 0.001348, 0.000122,-0.010039, 1.007167,-0.013728,-0.051787,1, 0.001772, 0.005764, 0.029180,1,-0.285174,-0.113527, 9.801846,1,1
1778779755832,   791.452,   791.452, 0.131421, 0.009307,-1.015428, 0.001329, 0.000112,-0.010166, 1.002602,-0.022788,-0.156136,1,-0.011264, 0.006745, 0.030552,1,-0.286419,-0.114381, 9.801799,1,1
1778779755853,   791.477,   791.472, 0.122080, 0.004101,-1.010671, 0.001278, 0.000028,-0.010119, 0.990410,-0.216451,-0.173264,1,-0.015526, 0.013548, 0.027355,1,-0.288902,-0.116604, 9.801700,1,1
1778779755876,   791.502,   791.497, 0.129370, 0.004929,-1.007679, 0.001280, 0.000017,-0.010111, 0.978998,-0.077667,-0.080398,1,-0.040374, 0.010658, 0.027684,1,-0.290037,-0.127236, 9.801535,1,1
1778779755902,   791.522,   791.522, 0.131815, 0.000798,-1.002869, 0.001270, 0.000049,-0.010009, 1.002546,-0.126350,-0.033349,1,-0.045662,-0.001696, 0.030511,1,-0.290080,-0.135571, 9.801421,1,1
1778779755924,   791.547,   791.542, 0.136537, 0.032888,-0.974684, 0.001344, 0.000268,-0.009783, 0.909467, 0.158320, 0.061305,1,-0.028421, 0.000558, 0.030788,1,-0.289078,-0.142425, 9.801353,1,1
1778779755951,   791.572,   791.572, 0.130851, 0.058431,-0.964742, 0.001352, 0.000672,-0.009670, 0.995139, 0.425934, 0.340428,1,-0.013779,-0.011237, 0.031293,1,-0.287737,-0.147475, 9.801318,1,1
1778779755972,   791.592,   791.592, 0.145206, 0.076175,-0.959264, 0.001484, 0.000717,-0.009603, 1.136709, 0.599507, 0.394162,1, 0.007605,-0.008908, 0.021840,1,-0.287018,-0.147305, 9.801342,1,1
1778779755994,   791.617,   791.612, 0.156584, 0.061654,-0.985890, 0.001638, 0.000648,-0.009857, 1.212819, 0.385278, 0.251470,1, 0.004883,-0.006874, 0.022384,1,-0.285230,-0.146079, 9.801413,1,1
1778779756021,   791.642,   791.642, 0.171337, 0.060160,-1.022303, 0.001688, 0.000605,-0.010219, 1.398222, 0.448076,-0.223806,1, 0.031365,-0.003083, 0.021199,1,-0.281929,-0.140892, 9.801584,1,1
1778779756042,   791.667,   791.662, 0.182347, 0.033433,-1.007016, 0.001853, 0.000375,-0.010088, 1.442903, 0.398715,-0.070891,1, 0.035490, 0.004922, 0.022953,1,-0.282074,-0.134480, 9.801670,1,1
1778779756064,   791.687,   791.682, 0.189865, 0.042054,-0.986229, 0.001907, 0.000467,-0.009906, 1.410336, 0.288024, 0.040639,1, 0.029356, 0.012073, 0.029558,1,-0.282930,-0.128042, 9.801731,1,1
1778779756091,   791.712,   791.712, 0.189747, 0.052769,-0.958601, 0.001921, 0.000494,-0.009623, 1.573035, 0.393701, 0.400980,1,-0.000287, 0.021968, 0.031947,1,-0.288444,-0.123769, 9.801625,1,1
1778779756112,   791.737,   791.732, 0.191580, 0.023014,-0.932473, 0.001924, 0.000242,-0.009314, 1.819430, 0.165119, 0.612618,1,-0.033000, 0.021830, 0.032364,1,-0.293806,-0.127887, 9.801414,1,1
1778779756134,   791.757,   791.752, 0.188340, 0.026516,-0.921186, 0.001918, 0.000362,-0.009212, 1.776043, 0.392591, 0.638794,1,-0.039199, 0.032685, 0.032048,1,-0.299201,-0.134890, 9.801156,1,1
1778779756161,   791.782,   791.782, 0.188974, 0.039490,-0.949390, 0.001886, 0.000430,-0.009465, 1.548072, 0.241379, 0.490480,1,-0.032335, 0.017012, 0.036779,1,-0.305678,-0.146858, 9.800784,1,1
1778779756182,   791.807,   791.802, 0.183789, 0.065032,-0.988745, 0.001860, 0.000553,-0.009879, 1.356884, 0.344999, 0.248398,1,-0.014586, 0.014878, 0.040778,1,-0.308165,-0.151623, 9.800634,1,1
1778779756204,   791.827,   791.822, 0.136492, 0.069188,-0.994396, 0.001378, 0.000670,-0.009982, 1.265765, 0.643825,-0.005467,1, 0.019243, 0.004063, 0.038760,1,-0.310035,-0.150055, 9.800599,1,1
1778779756231,   791.852,   791.852, 0.146108, 0.081632,-1.005014, 0.001536, 0.000850,-0.010023, 1.119109, 0.661455,-0.055180,1, 0.038128,-0.012341, 0.035551,1,-0.313354,-0.137860, 9.800673,1,1
1778779756253,   791.877,   791.872, 0.128375, 0.059460,-1.008532, 0.001278, 0.000630,-0.010045, 1.085127, 0.614811,-0.156758,1, 0.056916, 0.019199, 0.029825,1,-0.315039,-0.128194, 9.800750,1,1
1778779756274,   791.897,   791.892, 0.113762, 0.047255,-1.047463, 0.001117, 0.000453,-0.010467, 0.976517, 0.289480,-0.342888,1, 0.046448,-0.013688, 0.032561,1,-0.314587,-0.117369, 9.800900,1,1
1778779756301,   791.922,   791.922, 0.111004, 0.020562,-1.058110, 0.001168, 0.000069,-0.010617, 0.776737, 0.094781,-0.575407,1, 0.037748,-0.010325, 0.027713,1,-0.311532,-0.105662, 9.801131,1,1
1778779756323,   791.947,   791.942, 0.115251,-0.007308,-1.048661, 0.001160,-0.000029,-0.010500, 0.674027,-0.362159,-0.501384,1, 0.011984,-0.002962, 0.036752,1,-0.309950,-0.101234, 9.801228,1,1
1778779756344,   791.967,   791.962, 0.117961, 0.000465,-1.015828, 0.001128,-0.000028,-0.010170, 0.718880,-0.293937,-0.346587,1,-0.003610, 0.007312, 0.038753,1,-0.310475,-0.100270, 9.801221,1,1
1778779756371,   791.992,   791.992, 0.139118, 0.011190,-1.001997, 0.001286, 0.000039,-0.009978, 1.050908, 0.000414,-0.025201,1,-0.052267, 0.009816, 0.037692,1,-0.313710,-0.110937, 9.801003,1,1
1778779756393,   792.017,   792.012, 0.139788, 0.022942,-0.972312, 0.001441, 0.000336,-0.009733, 1.051360, 0.362009, 0.212353,1,-0.040358, 0.014158, 0.040374,1,-0.316012,-0.120191, 9.800820,1,1
1778779756414,   792.037,   792.032, 0.154477, 0.060542,-0.997479, 0.001510, 0.000509,-0.009934, 0.951161, 0.038724, 0.260080,1,-0.040395,-0.006203, 0.037065,1,-0.315840,-0.127201, 9.800737,1,1
1778779756441,   792.062,   792.062, 0.116446, 0.032532,-1.018711, 0.001165, 0.000328,-0.010224, 0.831676, 0.187480,-0.189290,1, 0.021918, 0.005728, 0.041686,1,-0.310462,-0.130822, 9.800861,1,1
1778779756463,   792.087,   792.082, 0.138478, 0.040505,-1.004479, 0.001418, 0.000388,-0.010055, 1.138960, 0.205483, 0.108747,1, 0.043679,-0.014216, 0.034444,1,-0.312118,-0.120237, 9.800944,1,1
1778779756486,   792.107,   792.107, 0.177607,-0.002992,-0.934143, 0.001753, 0.000081,-0.009400, 1.423708,-0.138432, 0.640065,1, 0.035509, 0.049626, 0.032102,1,-0.319580,-0.107955, 9.800847,1,1
1778779756511,   792.132,   792.132, 0.170434, 0.027081,-0.928617, 0.001694, 0.000400,-0.009267, 1.348379, 0.156609, 0.694100,1,-0.027215, 0.017104, 0.034608,1,-0.323550,-0.109776, 9.800696,1,1
1778779756533,   792.157,   792.152, 0.154139, 0.015933,-0.898687, 0.001587, 0.000131,-0.009010, 1.456711, 0.348317, 0.824331,1,-0.040681, 0.036055, 0.032489,1,-0.329751,-0.118044, 9.800393,1,1
1778779756556,   792.177,   792.177, 0.140676, 0.059734,-0.946271, 0.001422, 0.000603,-0.009411, 1.049506, 0.452895, 0.520439,1,-0.055122,-0.020746, 0.042510,1,-0.329429,-0.134566, 9.800192,1,1
1778779756581,   792.202,   792.202, 0.110228, 0.091858,-0.990116, 0.001243, 0.000801,-0.009943, 0.754294, 0.763123, 0.090517,1, 0.008107,-0.017625, 0.042581,1,-0.326143,-0.137403, 9.800262,1,1
1778779756603,   792.227,   792.222, 0.102088, 0.068624,-1.056616, 0.000964, 0.000813,-0.010450, 0.801243, 0.546247,-0.182850,1, 0.041576,-0.032586, 0.043037,1,-0.322934,-0.128172, 9.800493,1,1
1778779756626,   792.247,   792.247, 0.097403, 0.077941,-1.056654, 0.000878, 0.000845,-0.010540, 0.638213, 0.654473,-0.561327,1, 0.095288, 0.007417, 0.042478,1,-0.317229,-0.106854, 9.800936,1,1
1778779756651,   792.272,   792.272, 0.087739, 0.005151,-1.033869, 0.000880, 0.000081,-0.010317, 0.542920,-0.044730,-0.337744,1, 0.040856,-0.009175, 0.048450,1,-0.317231,-0.093922, 9.801067,1,1
1778779756673,   792.297,   792.292, 0.084535, 0.018468,-1.006067, 0.000850,-0.000051,-0.010122, 0.437404,-0.244957,-0.316818,1,-0.001064, 0.011124, 0.055609,1,-0.317552,-0.091235, 9.801083,1,1
1778779756696,   792.317,   792.317, 0.081852, 0.024946,-0.982307, 0.000879, 0.000098,-0.009884, 0.484310, 0.143765, 0.167815,1,-0.049536, 0.000170, 0.058711,1,-0.318404,-0.102359, 9.800945,1,1
1778779756722,   792.342,   792.342, 0.075726, 0.036004,-0.965412, 0.000777, 0.000314,-0.009666, 0.423768, 0.246660, 0.333430,1,-0.027843,-0.009628, 0.060554,1,-0.318569,-0.107225, 9.800888,1,1
1778779756743,   792.367,   792.362, 0.080840, 0.052693,-1.027974, 0.000806, 0.000588,-0.010218, 0.385068, 0.318711,-0.019113,1,-0.045712,-0.028567, 0.054991,1,-0.313381,-0.115380, 9.800962,1,1
1778779756766,   792.387,   792.387, 0.045165, 0.052568,-1.026923, 0.000376, 0.000485,-0.010238, 0.137654, 0.392500,-0.269550,1, 0.005161,-0.014394, 0.055561,1,-0.304854,-0.122830, 9.801141,1,1
1778779756792,   792.412,   792.412, 0.033302, 0.014674,-1.063267, 0.000345, 0.000203,-0.010581, 0.029136, 0.023018,-0.625695,1,-0.003776,-0.060579, 0.057438,1,-0.295581,-0.120951, 9.801448,1,1
1778779756813,   792.437,   792.432, 0.040320, 0.045258,-1.017113, 0.000446, 0.000368,-0.010166, 0.084421, 0.077318,-0.293626,1, 0.022842,-0.012061, 0.050555,1,-0.291226,-0.117611, 9.801620,1,1
1778779756836,   792.462,   792.457, 0.010626, 0.014944,-0.995346, 0.000088, 0.000193,-0.009987,-0.181021, 0.031708, 0.040815,1, 0.001092,-0.013938, 0.048845,1,-0.284806,-0.114766, 9.801842,1,1
1778779756862,   792.482,   792.482, 0.008779, 0.031184,-0.983138, 0.000140, 0.000261,-0.009844,-0.194284, 0.188506, 0.160649,1,-0.029584,-0.033630, 0.048391,1,-0.279341,-0.118185, 9.801958,1,1
1778779756883,   792.507,   792.502, 0.036042,-0.002609,-0.952647, 0.000392, 0.000011,-0.009510, 0.070212, 0.262558, 0.445290,1,-0.023860,-0.002475, 0.045088,1,-0.277343,-0.123833, 9.801946,1,0
