Time,GPS_ts,fGPS_ts,scaledAccelX,scaledAccelY,scaledAccelZ,deltaVelX,deltaVelY,deltaVelZ,estLinearAccelX,estLinearAccelY,estLinearAccelZ,estLinearAccel:valid,estAngularRateX,estAngularRateY,estAngularRateZ,estAngularRate:valid,estGravityX,estGravityY,estGravityZ,estGravity:valid,flag
1778779480256,   506.822,   506.822, 0.025162,-0.080163,-1.005874, 0.000246,-0.000793,-0.010061,-0.051960,-0.026629,-0.091620,1,-0.004029, 0.000488,-0.000120,1,-0.298728, 0.759374, 9.772640,1,0
1778779480256,   506.847,   506.842, 0.025841,-0.078239,-0.983963, 0.000281,-0.000774,-0.009798, 0.077916, 0.008233, 0.177842,1, 0.006115, 0.003940, 0.000214,1,-0.300240, 0.760343, 9.772518,1,0
1778779480256,   506.872,   506.872, 0.031030,-0.079210,-1.012507, 0.000272,-0.000793,-0.010117, 0.005873,-0.018387,-0.156579,1,-0.008502,-0.000501,-0.000105,1,-0.298484, 0.758079, 9.772748,1,0
1778779480256,   506.897,   506.892, 0.027475,-0.077759,-0.980196, 0.000284,-0.000775,-0.009782, 0.119632, 0.029862, 0.164604,1, 0.008293, 0.008750, 0.000058,1,-0.300454, 0.758932, 9.772621,1,0
1778779480256,   506.922,   506.917, 0.025642,-0.081890,-1.007393, 0.000219,-0.000829,-0.010085,-0.047417,-0.044842,-0.106428,1,-0.006565, 0.001627,-0.000071,1,-0.298927, 0.758016, 9.772739,1,0
1778779480256,   506.947,   506.942, 0.026587,-0.075316,-0.981595, 0.000298,-0.000753,-0.009806, 0.089895, 0.032646, 0.173623,1, 0.003409, 0.007231,-0.000360,1,-0.300693, 0.758312, 9.772662,1,0
1778779480256,   506.967,   506.967, 0.027594,-0.079769,-1.008235, 0.000276,-0.000795,-0.010099,-0.028492,-0.025278,-0.114599,1,-0.005932, 0.001390, 0.000785,1,-0.299134, 0.756807, 9.772827,1,0
1778779480256,   506.992,   506.992, 0.037477,-0.076233,-0.976672, 0.000408,-0.000751,-0.009780, 0.066793, 0.010122, 0.194826,1, 0.009603, 0.005242,-0.000320,1,-0.300897, 0.758009, 9.772679,1,0
1778779480256,   507.017,   507.012, 0.027961,-0.079980,-1.009971, 0.000257,-0.000791,-0.010091,-0.135903,-0.013386,-0.037149,1,-0.005268,-0.011778, 0.000794,1,-0.299207, 0.757954, 9.772736,1,0
1778779480256,   507.042,   507.042, 0.040381,-0.074459,-0.979926, 0.000406,-0.000736,-0.009801, 0.095609, 0.028113, 0.162878,1, 0.009458, 0.005400,-0.000561,1,-0.300562, 0.758600, 9.772644,1,0
1778779480256,   507.057,   507.052, 0.021894,-0.078144,-0.999965, 0.000196,-0.000782,-0.009959,-0.043290, 0.019900, 0.137169,1, 0.004135,-0.007536, 0.000082,1,-0.300031, 0.759161, 9.772617,1,0
1778779480268,   515.892,   515.892, 0.019631,-0.079739,-1.007902, 0.000172,-0.000795,-0.010053,-0.105314,-0.022537,-0.111479,1,-0.007791,-0.009962, 0.001644,1,-0.297510, 0.759194, 9.772692,1,0
1778779480289,   515.917,   515.912, 0.038936,-0.073390,-0.972416, 0.000403,-0.000740,-0.009737, 0.102964, 0.013250, 0.083208,1, 0.006651, 0.014499,-0.002156,1,-0.299024, 0.759645, 9.772610,1,0
1778779480311,   515.937,   515.932, 0.018521,-0.079187,-1.004196, 0.000192,-0.000788,-0.010028,-0.064049, 0.034696, 0.151874,1,-0.006709,-0.008534, 0.000720,1,-0.298793, 0.759657, 9.772616,1,0
1778779480338,   515.962,   515.962, 0.035442,-0.077052,-0.989238, 0.000372,-0.000776,-0.009938, 0.048938, 0.003231, 0.071574,1, 0.008041, 0.012065,-0.001340,1,-0.299009, 0.759103, 9.772653,1,0
1778779480359,   515.987,   515.982, 0.020047,-0.079361,-1.006885, 0.000214,-0.000779,-0.010040,-0.089006, 0.021683, 0.111712,1,-0.002241,-0.010672, 0.000501,1,-0.298790, 0.759796, 9.772606,1,0
1778779480382,   516.007,   516.007, 0.041475,-0.078438,-0.990485, 0.000417,-0.000782,-0.009928, 0.107698,-0.009780, 0.059284,1, 0.008500, 0.012055,-0.000731,1,-0.299405, 0.759702, 9.772594,1,0
1778779480408,   516.032,   516.032, 0.025197,-0.076070,-0.984932, 0.000266,-0.000751,-0.009804,-0.052529, 0.014120, 0.113674,1,-0.005103,-0.009720, 0.001306,1,-0.299319, 0.759955, 9.772577,1,0
1778779480429,   516.057,   516.052, 0.039287,-0.074377,-0.991082, 0.000365,-0.000757,-0.009937,-0.006929,-0.032845,-0.114802,1,-0.001530, 0.002540,-0.000199,1,-0.298308, 0.758688, 9.772706,1,0
1778779480452,   516.077,   516.077, 0.026684,-0.074756,-0.984859, 0.000262,-0.000749,-0.009819,-0.037455, 0.026820, 0.114420,1,-0.004235,-0.010322, 0.001036,1,-0.298813, 0.759791, 9.772605,1,0
1778779480478,   516.102,   516.102, 0.035891,-0.078725,-1.009401, 0.000333,-0.000802,-0.010124, 0.054202,-0.013367,-0.126119,1,-0.000946, 0.005873,-0.000474,1,-0.297953, 0.758631, 9.772721,1,0
1778779480499,   516.127,   516.122, 0.018034,-0.076994,-0.981781, 0.000216,-0.000765,-0.009795, 0.035603, 0.044197, 0.252528,1, 0.007614, 0.005234,-0.000314,1,-0.299960, 0.760377, 9.772525,1,0
1778779480522,   516.147,   516.147, 0.028395,-0.081997,-1.012077, 0.000278,-0.000826,-0.010149,-0.019084,-0.044924,-0.152391,1,-0.000062, 0.004801, 0.000252,1,-0.297697, 0.759187, 9.772686,1,0
1778779480548,   516.172,   516.172, 0.039013,-0.074731,-0.973651, 0.000425,-0.000740,-0.009735, 0.082964, 0.027758, 0.224258,1, 0.004665, 0.001915,-0.000614,1,-0.299683, 0.760768, 9.772503,1,0
1778779480570,   516.197,   516.192, 0.029249,-0.080135,-1.009537, 0.000272,-0.000795,-0.010106,-0.103259, 0.006505,-0.118700,1,-0.007829,-0.011438, 0.001423,1,-0.297360, 0.759295, 9.772688,1,0
1778779480592,   516.217,   516.217, 0.037672,-0.077277,-0.974588, 0.000381,-0.000770,-0.009728, 0.069790, 0.003064, 0.215051,1, 0.004774, 0.001004,-0.001059,1,-0.299679, 0.761036, 9.772482,1,0
1778779480618,   516.242,   516.242, 0.021594,-0.078137,-1.008203, 0.000189,-0.000777,-0.010052,-0.086087,-0.006283,-0.114475,1,-0.007704,-0.008602, 0.000317,1,-0.297579, 0.759741, 9.772647,1,0
1778779480640,   516.267,   516.262, 0.038709,-0.072904,-0.974476, 0.000392,-0.000734,-0.009749, 0.127640, 0.025535, 0.089473,1, 0.005910, 0.012562,-0.001245,1,-0.299224, 0.760101, 9.772569,1,0
1778779480662,   516.287,   516.287, 0.018154,-0.081525,-1.002711, 0.000172,-0.000815,-0.010016,-0.120241,-0.039556,-0.060621,1,-0.007794,-0.007149, 0.001288,1,-0.298049, 0.759686, 9.772636,1,0
1778779480688,   516.312,   516.312, 0.040496,-0.075490,-0.991900, 0.000407,-0.000770,-0.009961, 0.098257, 0.019026, 0.045422,1, 0.002983, 0.010431,-0.000951,1,-0.299201, 0.759425, 9.772622,1,0
1778779480710,   516.337,   516.332, 0.016134,-0.082128,-1.004322, 0.000177,-0.000808,-0.010023,-0.098175, 0.013784, 0.120212,1,-0.000801,-0.008759, 0.001300,1,-0.299005, 0.760007, 9.772583,1,0
1778779480733,   516.362,   516.357, 0.039695,-0.077383,-0.989922, 0.000410,-0.000780,-0.009933, 0.090020, 0.000606, 0.064796,1, 0.006014, 0.013118,-0.001263,1,-0.299669, 0.759657, 9.772590,1,0
1778779480758,   516.382,   516.382, 0.023520,-0.077599,-0.981390, 0.000269,-0.000760,-0.009765,-0.069329,-0.000788, 0.148392,1,-0.004716,-0.013154, 0.000056,1,-0.299575, 0.760052, 9.772562,1,0
1778779480780,   516.407,   516.402, 0.047844,-0.073959,-0.992588, 0.000451,-0.000744,-0.009955, 0.025282,-0.027985,-0.171566,1,-0.003843, 0.002233,-0.000917,1,-0.298284, 0.758321, 9.772736,1,0
1778779480803,   516.432,   516.427, 0.027382,-0.073532,-0.979515, 0.000286,-0.000733,-0.009756,-0.031510, 0.038573, 0.166813,1,-0.003797,-0.012356, 0.000405,1,-0.299653, 0.759558, 9.772597,1,0
1778779480828,   516.452,   516.452, 0.029088,-0.079897,-1.015280, 0.000249,-0.000812,-0.010173,-0.012498,-0.025118,-0.183752,1,-0.000850, 0.002178,-0.000001,1,-0.297820, 0.758378, 9.772745,1,0
1778779480850,   516.477,   516.472, 0.025374,-0.073113,-0.981668, 0.000276,-0.000733,-0.009794, 0.078896, 0.044592, 0.226190,1, 0.008927, 0.006117,-0.000136,1,-0.299985, 0.760309, 9.772529,1,0
1778779480873,   516.502,   516.497, 0.026117,-0.080636,-1.010680, 0.000255,-0.000813,-0.010135,-0.041492,-0.031655,-0.138690,1, 0.000405, 0.004022, 0.001042,1,-0.297734, 0.759126, 9.772690,1,0
1778779480898,   516.522,   516.522, 0.033212,-0.075512,-0.972876, 0.000369,-0.000747,-0.009744, 0.026021, 0.020113, 0.231860,1, 0.007150, 0.005481,-0.000021,1,-0.299853, 0.760851, 9.772491,1,0
1778779480920,   516.547,   516.542, 0.026331,-0.082408,-1.007565, 0.000254,-0.000820,-0.010084,-0.143781,-0.026879,-0.058081,1,-0.007546,-0.010837, 0.001638,1,-0.297861, 0.759918, 9.772624,1,0
1778779480943,   516.572,   516.567, 0.036472,-0.076400,-0.974489, 0.000383,-0.000755,-0.009734, 0.057968, 0.011559, 0.216029,1, 0.005753, 0.002520,-0.000567,1,-0.299781, 0.760965, 9.772484,1,0
1778779480969,   516.592,   516.592, 0.022083,-0.078825,-1.005267, 0.000204,-0.000779,-0.010014,-0.081589,-0.013098,-0.085689,1,-0.009301,-0.011386, 0.000715,1,-0.297789, 0.759618, 9.772650,1,0
1778779480990,   516.617,   516.612, 0.037023,-0.073757,-0.978186, 0.000368,-0.000739,-0.009784, 0.107445, 0.005496, 0.025643,1, 0.007945, 0.011533,-0.001388,1,-0.299112, 0.759841, 9.772593,1,0
1778779481013,   516.642,   516.637, 0.021951,-0.081117,-1.006374, 0.000192,-0.000816,-0.010045,-0.083002,-0.034951,-0.096594,1,-0.005357,-0.007801, 0.000581,1,-0.298025, 0.760364, 9.772585,1,0
1778779481039,   516.662,   516.662, 0.043869,-0.075759,-0.990507, 0.000431,-0.000776,-0.009954, 0.130949, 0.017509, 0.058987,1, 0.006414, 0.015196,-0.001654,1,-0.299737, 0.760647, 9.772511,1,0
1778779481060,   516.687,   516.682, 0.021774,-0.080005,-1.005728, 0.000225,-0.000802,-0.010041,-0.051011, 0.005342, 0.152021,1,-0.005499,-0.009426, 0.000871,1,-0.299494, 0.761382, 9.772461,1,0
1778779481087,   516.712,   516.712, 0.040733,-0.076124,-0.987445, 0.000425,-0.000769,-0.009919, 0.099928, 0.013817, 0.089009,1, 0.009494, 0.014054,-0.000645,1,-0.299966, 0.760638, 9.772504,1,0
1778779481109,   516.732,   516.732, 0.025867,-0.076320,-0.980401, 0.000296,-0.000754,-0.009769,-0.046415, 0.012677, 0.158008,1,-0.007147,-0.013561, 0.001916,1,-0.299654, 0.760903, 9.772493,1,0
1778779481130,   516.757,   516.752, 0.041290,-0.076084,-0.987706, 0.000419,-0.000763,-0.009905, 0.030430,-0.020396,-0.115992,1, 0.000197, 0.004091,-0.000427,1,-0.298563, 0.759518, 9.772635,1,0
1778779481157,   516.782,   516.782, 0.023630,-0.073820,-0.985263, 0.000250,-0.000739,-0.009807,-0.067559, 0.036637, 0.110395,1,-0.005961,-0.014646, 0.000900,1,-0.298832, 0.760382, 9.772558,1,0
1778779481179,   516.807,   516.802, 0.041322,-0.073521,-0.989203, 0.000389,-0.000747,-0.009921, 0.035634, 0.002598,-0.125266,1,-0.000074, 0.002055,-0.000203,1,-0.297613, 0.759251, 9.772684,1,0
1778779481200,   516.827,   516.822, 0.021449,-0.075413,-0.989316, 0.000214,-0.000760,-0.009861, 0.050143, 0.023050, 0.188970,1, 0.006568, 0.001690,-0.000189,1,-0.298961, 0.760943, 9.772511,1,0
1778779481227,   516.852,   516.852, 0.029383,-0.078146,-1.005479, 0.000277,-0.000797,-0.010091,-0.008865,-0.006300,-0.087743,1, 0.001740, 0.006429, 0.000371,1,-0.297215, 0.760108, 9.772630,1,0
1778779481249,   516.877,   516.872, 0.015061,-0.078050,-0.991223, 0.000176,-0.000779,-0.009886,-0.027807,-0.001100, 0.201389,1, 0.006335, 0.000490, 0.001063,1,-0.298846, 0.761724, 9.772453,1,0
1778779481270,   516.897,   516.892, 0.030215,-0.080154,-1.005571, 0.000306,-0.000804,-0.010087,-0.113813,-0.044626,-0.126813,1,-0.007262,-0.005325, 0.001229,1,-0.297002, 0.760765, 9.772585,1,0
1778779481297,   516.922,   516.922, 0.031555,-0.074490,-0.972753, 0.000351,-0.000736,-0.009718, 0.010025, 0.031240, 0.232990,1, 0.002397, 0.000181, 0.000440,1,-0.299432, 0.761813, 9.772429,1,0
1778779481319,   516.947,   516.942, 0.031033,-0.082155,-1.005646, 0.000288,-0.000821,-0.010066,-0.113773,-0.055458,-0.116433,1,-0.007676,-0.007985, 0.001679,1,-0.297493, 0.760341, 9.772603,1,0
1778779481341,   516.967,   516.962, 0.036677,-0.075619,-0.975775, 0.000362,-0.000752,-0.009737, 0.098061, 0.013766, 0.116119,1, 0.007091, 0.010815,-0.001058,1,-0.299303, 0.760780, 9.772513,1,0
1778779481368,   516.992,   516.992, 0.029923,-0.076959,-1.011099, 0.000264,-0.000774,-0.010092,-0.004267, 0.004567,-0.142818,1,-0.009753,-0.005639, 0.000332,1,-0.297539, 0.758978, 9.772707,1,0
1778779481389,   517.017,   517.012, 0.034072,-0.075679,-0.973854, 0.000347,-0.000763,-0.009733, 0.140492, 0.024256, 0.144295,1, 0.013536, 0.013498,-0.001642,1,-0.299700, 0.760406, 9.772531,1,0
1778779481411,   517.037,   517.032, 0.024184,-0.079687,-1.008980, 0.000224,-0.000803,-0.010093,-0.083006,-0.000590, 0.059162,1,-0.004318,-0.012178, 0.000849,1,-0.298572, 0.761165, 9.772506,1,0
1778779481438,   517.062,   517.062, 0.041778,-0.073710,-0.983964, 0.000429,-0.000747,-0.009880, 0.110683, 0.037996, 0.123121,1, 0.005307, 0.011300,-0.001344,1,-0.299378, 0.761012, 9.772493,1,0
1778779481459,   517.087,   517.082, 0.023402,-0.080257,-1.006385, 0.000238,-0.000795,-0.010062,-0.082103, 0.025022, 0.055925,1,-0.008560,-0.010942, 0.001462,1,-0.298385, 0.760678, 9.772550,1,0
1778779481481,   517.107,   517.102, 0.037159,-0.073537,-0.980638, 0.000387,-0.000734,-0.009827, 0.029298,-0.011714,-0.040079,1, 0.002333, 0.006657,-0.001182,1,-0.298257, 0.759946, 9.772610,1,0
1778779481508,   517.132,   517.132, 0.021253,-0.077379,-0.993816, 0.000215,-0.000763,-0.009893,-0.089746, 0.001831, 0.026549,1,-0.007579,-0.014679, 0.000286,1,-0.297714, 0.760424, 9.772590,1,0
1778779481529,   517.157,   517.152, 0.038931,-0.072124,-0.980178, 0.000381,-0.000715,-0.009815, 0.088490, 0.033783,-0.046854,1, 0.003226, 0.007481,-0.001450,1,-0.297550, 0.759583, 9.772660,1,0
1778779481551,   517.177,   517.172, 0.018095,-0.077312,-0.999700, 0.000156,-0.000775,-0.009957,-0.019020, 0.014520, 0.176801,1, 0.002694,-0.007220, 0.000091,1,-0.298106, 0.761052, 9.772529,1,0
1778779481578,   517.202,   517.202, 0.036238,-0.077523,-0.999719, 0.000335,-0.000788,-0.010040, 0.058381, 0.000048,-0.031276,1, 0.007007, 0.012879,-0.001431,1,-0.297396, 0.760505, 9.772593,1,0
1778779481599,   517.227,   517.222, 0.020611,-0.078424,-0.999024, 0.000203,-0.000781,-0.009970,-0.029329, 0.005883, 0.158527,1,-0.000347,-0.004852, 0.000488,1,-0.298199, 0.761656, 9.772479,1,0
1778779481622,   517.247,   517.247, 0.034501,-0.079704,-0.993026, 0.000353,-0.000803,-0.009971, 0.040572,-0.021434, 0.034351,1, 0.003160, 0.011233,-0.000874,1,-0.298116, 0.760291, 9.772588,1,0
1778779481648,   517.272,   517.272, 0.022296,-0.078822,-0.983164, 0.000267,-0.000780,-0.009809,-0.079884,-0.012317, 0.130998,1,-0.003504,-0.006874, 0.001403,1,-0.298302, 0.760534, 9.772563,1,0
1778779481669,   517.297,   517.292, 0.039033,-0.079795,-0.994008, 0.000396,-0.000798,-0.009967,-0.032569,-0.055116,-0.131730,1,-0.005058, 0.002032,-0.000156,1,-0.297332, 0.759001, 9.772712,1,0
1778779481692,   517.317,   517.317, 0.026984,-0.077542,-0.980294, 0.000290,-0.000761,-0.009766,-0.034915,-0.000354, 0.159164,1,-0.001942,-0.006079, 0.000940,1,-0.299342, 0.760010, 9.772572,1,0
1778779481718,   517.342,   517.342, 0.029123,-0.081136,-1.006523, 0.000263,-0.000810,-0.010064,-0.012771,-0.036915,-0.097923,1,-0.003604, 0.001753,-0.000352,1,-0.298425, 0.758646, 9.772706,1,0
1778779481740,   517.367,   517.362, 0.031997,-0.074100,-0.985141, 0.000315,-0.000744,-0.009824, 0.102253, 0.023758, 0.169595,1, 0.005699, 0.004606,-0.001361,1,-0.300033, 0.759701, 9.772574,1,0
1778779481762,   517.387,   517.387, 0.036210,-0.073791,-1.003431, 0.000334,-0.000748,-0.010057, 0.056694, 0.034624,-0.067564,1,-0.003493, 0.003137,-0.000605,1,-0.298506, 0.758160, 9.772741,1,0
1778779481788,   517.412,   517.412, 0.034750,-0.071657,-0.977102, 0.000367,-0.000716,-0.009786, 0.041314, 0.056420, 0.190537,1, 0.007594, 0.001017, 0.000384,1,-0.299501, 0.759374, 9.772616,1,0
1778779481810,   517.437,   517.432, 0.028263,-0.078935,-1.007978, 0.000277,-0.000795,-0.010106,-0.136784,-0.014032,-0.089274,1,-0.004035,-0.010619, 0.002227,1,-0.297121, 0.759337, 9.772692,1,0
1778779481832,   517.457,   517.457, 0.035055,-0.072909,-0.979489, 0.000386,-0.000714,-0.009797, 0.045350, 0.045642, 0.167043,1, 0.007381, 0.002337, 0.000534,1,-0.298494, 0.760862, 9.772532,1,0
1778779481858,   517.482,   517.482, 0.018942,-0.081300,-1.005153, 0.000185,-0.000796,-0.010019,-0.111663,-0.036670,-0.084603,1,-0.003022,-0.008245, 0.001068,1,-0.297164, 0.760520, 9.772599,1,0
1778779481880,   517.507,   517.502, 0.032339,-0.076145,-0.974459, 0.000330,-0.000747,-0.009727, 0.056788, 0.033486, 0.089947,1, 0.008774, 0.010298,-0.001353,1,-0.298574, 0.761304, 9.772494,1,0
1778779481903,   517.527,   517.527, 0.022054,-0.080908,-1.008246, 0.000182,-0.000812,-0.010054,-0.080967,-0.032316,-0.114966,1,-0.010940,-0.008214, 0.000649,1,-0.296991, 0.760783, 9.772584,1,0
1778779481928,   517.552,   517.552, 0.044397,-0.073573,-0.986567, 0.000426,-0.000748,-0.009906, 0.137037, 0.038812, 0.097663,1, 0.004744, 0.014385,-0.001391,1,-0.298799, 0.760460, 9.772553,1,0
1778779481950,   517.577,   517.572, 0.019251,-0.081196,-1.007571, 0.000185,-0.000816,-0.010070,-0.082076,-0.018910, 0.096678,1,-0.005575,-0.009039, 0.001379,1,-0.298370, 0.760586, 9.772557,1,0
1778779481973,   517.602,   517.597, 0.040683,-0.077900,-0.983583, 0.000420,-0.000788,-0.009871, 0.099940,-0.004366, 0.126959,1, 0.003323, 0.011190,-0.000561,1,-0.299376, 0.759677, 9.772597,1,0
1778779481998,   517.622,   517.622, 0.023702,-0.078376,-0.992481, 0.000272,-0.000775,-0.009901,-0.066496,-0.009252, 0.039719,1,-0.008629,-0.011111, 0.001623,1,-0.298581, 0.759084, 9.772667,1,0
1778779482020,   517.647,   517.642, 0.040982,-0.074744,-0.984197, 0.000431,-0.000751,-0.009862, 0.054309,-0.015522,-0.071051,1,-0.001029, 0.008535,-0.000428,1,-0.298633, 0.757945, 9.772754,1,0
1778779482043,   517.672,   517.667, 0.021861,-0.078462,-0.991410, 0.000235,-0.000773,-0.009875,-0.084991,-0.010333, 0.050224,1,-0.002093,-0.011220, 0.000648,1,-0.299035, 0.759092, 9.772653,1,0
1778779482068,   517.692,   517.692, 0.037417,-0.078321,-1.001142, 0.000341,-0.000789,-0.010021, 0.068266,-0.009569,-0.045143,1, 0.000057, 0.005010,-0.001468,1,-0.298827, 0.758499, 9.772705,1,0
1778779482090,   517.717,   517.712, 0.025589,-0.074507,-0.989342, 0.000244,-0.000747,-0.009860, 0.081223, 0.046984, 0.189960,1, 0.004505,-0.003093,-0.000875,1,-0.299702, 0.759468, 9.772603,1,0
1778779482113,   517.742,   517.737, 0.032314,-0.077995,-0.998876, 0.000302,-0.000796,-0.010018, 0.019257,-0.005815,-0.022930,1, 0.002520, 0.002843,-0.000287,1,-0.297728, 0.759129, 9.772690,1,0
1778779482138,   517.762,   517.762, 0.027676,-0.075211,-0.977591, 0.000297,-0.000754,-0.009777,-0.026775, 0.023113, 0.185660,1, 0.007153,-0.003961, 0.000401,1,-0.298063, 0.760907, 9.772541,1,0
1778779482160,   517.787,   517.782, 0.032717,-0.076854,-1.001238, 0.000330,-0.000774,-0.010051,-0.080562,-0.019723,-0.112686,1,-0.004730,-0.005255, 0.000478,1,-0.296024, 0.760510, 9.772635,1,0
1778779482183,   517.812,   517.807, 0.024595,-0.078100,-0.977779, 0.000290,-0.000772,-0.009766,-0.056513,-0.003844, 0.183725,1, 0.005501,-0.003005, 0.000820,1,-0.297613, 0.762232, 9.772451,1,0
1778779482209,   517.832,   517.832, 0.019081,-0.082654,-1.009155, 0.000190,-0.000819,-0.010085,-0.109166,-0.049163,-0.123870,1,-0.007114,-0.003473, 0.000888,1,-0.296175, 0.761179, 9.772577,1,0
1778779482230,   517.857,   517.852, 0.029648,-0.075775,-0.982018, 0.000315,-0.000749,-0.009784, 0.090472, 0.026458, 0.134978,1, 0.003775, 0.009296,-0.001013,1,-0.298218, 0.761289, 9.772507,1,0
1778779482253,   517.882,   517.877, 0.028501,-0.079496,-1.011531, 0.000247,-0.000801,-0.010107,-0.016863,-0.019830,-0.147044,1,-0.006742,-0.001347, 0.000365,1,-0.296314, 0.759546, 9.772700,1,0
1778779482279,   517.902,   517.902, 0.043469,-0.072785,-0.977918, 0.000422,-0.000731,-0.009790, 0.127989, 0.046264, 0.182503,1, 0.007713, 0.009414,-0.000957,1,-0.298589, 0.760278, 9.772574,1,0
1778779482300,   517.927,   517.922, 0.028401,-0.076977,-1.007996, 0.000258,-0.000782,-0.010100,-0.063796,-0.016843,-0.010360,1,-0.006903,-0.010591, 0.000993,1,-0.297120, 0.759910, 9.772648,1,0
1778779482327,   517.952,   517.952, 0.040877,-0.074233,-0.977063, 0.000420,-0.000747,-0.009793, 0.102521, 0.031670, 0.190919,1, 0.003696, 0.007402,-0.000322,1,-0.298574, 0.759762, 9.772614,1,0
1778779482349,   517.972,   517.972, 0.022099,-0.077809,-1.000229, 0.000237,-0.000782,-0.009985,-0.080579,-0.003820,-0.036197,1,-0.007090,-0.009731, 0.001009,1,-0.296987, 0.759002, 9.772722,1,0
1778779482370,   517.997,   517.992, 0.035514,-0.076900,-0.979567, 0.000382,-0.000760,-0.009801, 0.053406,-0.008210, 0.052278,1, 0.003484, 0.008463,-0.000124,1,-0.297774, 0.758944, 9.772703,1,0
1778779482397,   518.022,   518.022, 0.021900,-0.079585,-0.999631, 0.000227,-0.000785,-0.009973,-0.082351,-0.020961,-0.030353,1,-0.001926,-0.008090, 0.000849,1,-0.296860, 0.759446, 9.772692,1,0
1778779482419,   518.047,   518.042, 0.036699,-0.071588,-0.979373, 0.000369,-0.000706,-0.009784, 0.100543, 0.035086, 0.065977,1, 0.000513, 0.005684,-0.001087,1,-0.297567, 0.759069, 9.772699,1,0
1778779482440,   518.067,   518.062, 0.018466,-0.081289,-1.004136, 0.000152,-0.000814,-0.010012,-0.077339, 0.011659, 0.094508,1, 0.004140,-0.010135, 0.001143,1,-0.296991, 0.759914, 9.772651,1,0
1778779482467,   518.092,   518.092, 0.041489,-0.073429,-0.993132, 0.000388,-0.000752,-0.009962, 0.109956, 0.039815, 0.033354,1, 0.005379, 0.009857,-0.001744,1,-0.297222, 0.760074, 9.772632,1,0
1778779482489,   518.117,   518.112, 0.017721,-0.078575,-1.002583, 0.000174,-0.000793,-0.010015,-0.043408, 0.018760, 0.122044,1,-0.000714,-0.007412, 0.000512,1,-0.297176, 0.760858, 9.772573,1,0
1778779482511,   518.137,   518.132, 0.034149,-0.075641,-0.989649, 0.000345,-0.000766,-0.009946,-0.043900,-0.013811,-0.100561,1,-0.003127, 0.004434,-0.000357,1,-0.296304, 0.759885, 9.772675,1,0
1778779482538,   518.162,   518.162, 0.020736,-0.077582,-0.984903, 0.000245,-0.000775,-0.009832,-0.094077, 0.000405, 0.113937,1,-0.001535,-0.009547, 0.000972,1,-0.297124, 0.761176, 9.772549,1,0
1778779482559,   518.187,   518.182, 0.042206,-0.074940,-0.991105, 0.000434,-0.000750,-0.009946,-0.004203,-0.010691,-0.127934,1,-0.005354, 0.003878, 0.000333,1,-0.296304, 0.759793, 9.772681,1,0
1778779482581,   518.207,   518.202, 0.023218,-0.079074,-0.984074, 0.000262,-0.000774,-0.009807, 0.077000, 0.028414, 0.196061,1, 0.005385, 0.004460, 0.000570,1,-0.298212, 0.760570, 9.772563,1,0
1778779482608,   518.232,   518.232, 0.029668,-0.080271,-1.005523, 0.000264,-0.000804,-0.010061,-0.006028,-0.027460,-0.088147,1,-0.004796, 0.003049,-0.000250,1,-0.297065, 0.759581, 9.772675,1,0
1778779482629,   518.257,   518.252, 0.027386,-0.076278,-0.988432, 0.000266,-0.000760,-0.009852, 0.096492, 0.025772, 0.153951,1, 0.003104, 0.001641,-0.000592,1,-0.298411, 0.760082, 9.772594,1,0
1778779482651,   518.277,   518.272, 0.036533,-0.076948,-1.004177, 0.000323,-0.000784,-0.010064,-0.044589,-0.018075,-0.079105,1,-0.006238,-0.007306, 0.000486,1,-0.296584, 0.759355, 9.772707,1,0
1778779482678,   518.302,   518.302, 0.036046,-0.074565,-0.974476, 0.000372,-0.000745,-0.009755, 0.055191, 0.028545, 0.216272,1, 0.005585, 0.001492,-0.000144,1,-0.298344, 0.759955, 9.772607,1,0
1778779482699,   518.327,   518.322, 0.027647,-0.078997,-1.003796, 0.000263,-0.000795,-0.010072,-0.132716,-0.032995,-0.093012,1,-0.005340,-0.007663, 0.000736,1,-0.296385, 0.759498, 9.772702,1,0
1778779482721,   518.347,   518.342, 0.036676,-0.075742,-0.975725, 0.000401,-0.000754,-0.009759, 0.073578, 0.022667, 0.101146,1, 0.005705, 0.009313,-0.000999,1,-0.297648, 0.759863, 9.772635,1,0
1778779482748,   518.372,   518.372, 0.022940,-0.079222,-1.004862, 0.000242,-0.000786,-0.010034,-0.071518,-0.017156,-0.081651,1,-0.006068,-0.007370, 0.001123,1,-0.296251, 0.759561, 9.772701,1,0
1778779482769,   518.397,   518.392, 0.031514,-0.075199,-0.980324, 0.000332,-0.000743,-0.009785, 0.075039, 0.020340, 0.090968,1, 0.004166, 0.006691,-0.000975,1,-0.297363, 0.759595, 9.772665,1,0
1778779482791,   518.417,   518.412, 0.022175,-0.081065,-1.007941, 0.000195,-0.000808,-0.010055,-0.103458,-0.007042, 0.035450,1, 0.000165,-0.010279, 0.000872,1,-0.296547, 0.760177, 9.772644,1,0
1778779482818,   518.442,   518.442, 0.043055,-0.070660,-0.988839, 0.000409,-0.000719,-0.009910, 0.125488, 0.066402, 0.075503,1, 0.003098, 0.009068,-0.001862,1,-0.297023, 0.759431, 9.772688,1,0
1778779482839,   518.467,   518.462, 0.018955,-0.080241,-1.005642, 0.000171,-0.000813,-0.010054,-0.100581,-0.001470, 0.055107,1, 0.000553,-0.008345, 0.001368,1,-0.296300, 0.760215, 9.772649,1,0
1778779482862,   518.487,   518.487, 0.039770,-0.073162,-0.982359, 0.000404,-0.000741,-0.009862, 0.092886, 0.042602, 0.138982,1, 0.004265, 0.011841,-0.001327,1,-0.297498, 0.760211, 9.772613,1,1
1778779482888,   518.512,   518.512, 0.018686,-0.078599,-0.990784, 0.000212,-0.000778,-0.009883,-0.113690,-0.010530, 0.056357,1,-0.005132,-0.010151, 0.001973,1,-0.296613, 0.760107, 9.772648,1,1
1778779482909,   518.537,   518.532, 0.041377,-0.074185,-0.981373, 0.000435,-0.000739,-0.009839, 0.033474,-0.008363,-0.053542,1,-0.000925, 0.008226,-0.000627,1,-0.296681, 0.759184, 9.772717,1,1
1778779482932,   518.557,   518.557, 0.020129,-0.079952,-0.992281, 0.000220,-0.000786,-0.009878,-0.099858,-0.024066, 0.041688,1,-0.005638,-0.012083, 0.001922,1,-0.296880, 0.759822, 9.772662,1,1
1778779482958,   518.582,   518.582, 0.036809,-0.078084,-1.004260, 0.000338,-0.000780,-0.010057, 0.064561,-0.007189,-0.075656,1,-0.002230, 0.005854,-0.000393,1,-0.296596, 0.758486, 9.772774,1,1
1778779482980,   518.607,   518.602, 0.023541,-0.078678,-0.996562, 0.000223,-0.000784,-0.009929, 0.054091, 0.021905, 0.140822,1, 0.004537,-0.002969,-0.000299,1,-0.297494, 0.759342, 9.772680,1,1
1778779483002,   518.627,   518.627, 0.037656,-0.077463,-0.996965, 0.000341,-0.000788,-0.009997, 0.072408,-0.000818,-0.004145,1,-0.000833, 0.009389,-0.001997,1,-0.297168, 0.758809, 9.772732,1,1
1778779483028,   518.652,   518.652, 0.031241,-0.075494,-0.978894, 0.000331,-0.000758,-0.009779, 0.008471, 0.019104, 0.172990,1, 0.001604,-0.003523, 0.000148,1,-0.297784, 0.759498, 9.772659,1,1
1778779483050,   518.677,   518.672, 0.036523,-0.077069,-0.997769, 0.000361,-0.000778,-0.010017,-0.073575,-0.030997,-0.101817,1,-0.004343,-0.002741, 0.000025,1,-0.296133, 0.758995, 9.772749,1,1
1778779483072,   518.697,   518.697, 0.028743,-0.075582,-0.977858, 0.000338,-0.000746,-0.009770,-0.015677, 0.018541, 0.183133,1, 0.002758,-0.004081, 0.000378,1,-0.297424, 0.759835, 9.772644,1,1
1778779483098,   518.722,   518.722, 0.019976,-0.081861,-1.008472, 0.000202,-0.000813,-0.010081,-0.099925,-0.043397,-0.117006,1,-0.004198,-0.004406, 0.001254,1,-0.295687, 0.759252, 9.772742,1,1
1778779483120,   518.747,   518.742, 0.029336,-0.075604,-0.980554, 0.000323,-0.000746,-0.009776, 0.071158, 0.036258, 0.148611,1, 0.006587, 0.006991,-0.000852,1,-0.297308, 0.759888, 9.772644,1,1
1778779483142,   518.767,   518.767, 0.026798,-0.079740,-1.012417, 0.000234,-0.000799,-0.010110,-0.032760,-0.022749,-0.155675,1,-0.007205,-0.003588, 0.000492,1,-0.295443, 0.759010, 9.772768,1,1
1778779483168,   518.792,   518.792, 0.042130,-0.074010,-0.982697, 0.000409,-0.000742,-0.009839, 0.116070, 0.033668, 0.135722,1, 0.006947, 0.010303,-0.001406,1,-0.297412, 0.759672, 9.772657,1,1
1778779483190,   518.817,   518.812, 0.025061,-0.079235,-1.005774, 0.000214,-0.000800,-0.010064,-0.098100,-0.016381, 0.005081,1,-0.005043,-0.007309, 0.001438,1,-0.296530, 0.759702, 9.772681,1,1
1778779483213,   518.842,   518.837, 0.040936,-0.074483,-0.979776, 0.000410,-0.000747,-0.009820, 0.103798, 0.028878, 0.164355,1, 0.002809, 0.007483,-0.000957,1,-0.297883, 0.759389, 9.772665,1,1
1778779483238,   518.862,   518.862, 0.021599,-0.077250,-0.997663, 0.000232,-0.000769,-0.009968,-0.085055, 0.001657,-0.011028,1,-0.004615,-0.007710, 0.001840,1,-0.296629, 0.759083, 9.772727,1,1
1778779483260,   518.887,   518.882, 0.038492,-0.074135,-0.978533, 0.000414,-0.000732,-0.009803, 0.059790, 0.009024, 0.040253,1, 0.003617, 0.008923,-0.000707,1,-0.297354, 0.758934, 9.772717,1,1
1778779483283,   518.912,   518.907, 0.018313,-0.080635,-0.997778, 0.000199,-0.000796,-0.009950,-0.117387,-0.030980,-0.012197,1,-0.003398,-0.010757, 0.001145,1,-0.296636, 0.759677, 9.772680,1,1
1778779483308,   518.932,   518.932, 0.039194,-0.076717,-0.996060, 0.000381,-0.000776,-0.009973, 0.087487, 0.006671, 0.004710,1,-0.001083, 0.006403,-0.001158,1,-0.297078, 0.758977, 9.772721,1,1
1778779483330,   518.957,   518.952, 0.019047,-0.079098,-0.999402, 0.000175,-0.000790,-0.009960,-0.007573, 0.028099, 0.114426,1, 0.002521,-0.007245, 0.000624,1,-0.297208, 0.759553, 9.772673,1,1
1778779483353,   518.982,   518.977, 0.040938,-0.077415,-0.996711, 0.000374,-0.000792,-0.009989, 0.104877,-0.000109,-0.001670,1,-0.000311, 0.008623,-0.001280,1,-0.296861, 0.759062, 9.772721,1,1
1778779483378,   519.002,   519.002, 0.030062,-0.075335,-0.981175, 0.000316,-0.000757,-0.009800,-0.002615, 0.020845, 0.150624,1, 0.002969,-0.003783, 0.000271,1,-0.297309, 0.759722, 9.772656,1,1
1778779483400,   519.027,   519.022, 0.036959,-0.077929,-0.995726, 0.000359,-0.000794,-0.010000,-0.083177,-0.035264,-0.096932,1,-0.004306, 0.000185, 0.000268,1,-0.296118, 0.759209, 9.772733,1,1
1778779483423,   519.052,   519.047, 0.028108,-0.076739,-0.978835, 0.000329,-0.000761,-0.009781,-0.022154, 0.007369, 0.173531,1, 0.001817,-0.004659, 0.001158,1,-0.297647, 0.759978, 9.772626,1,1
1778779483449,   519.072,   519.072, 0.020533,-0.080711,-1.009575, 0.000208,-0.000805,-0.010100,-0.094856,-0.032158,-0.127833,1,-0.005513,-0.002865, 0.000412,1,-0.296137, 0.759190, 9.772734,1,1
1778779483470,   519.097,   519.092, 0.033144,-0.074157,-0.977184, 0.000360,-0.000732,-0.009749, 0.137832, 0.048870, 0.150665,1, 0.006528, 0.009616,-0.000880,1,-0.298141, 0.759616, 9.772639,1,1
1778779483493,   519.122,   519.117, 0.021752,-0.081317,-1.007833, 0.000185,-0.000811,-0.010061,-0.083366,-0.037739,-0.110794,1,-0.005669,-0.004746, 0.000107,1,-0.296530, 0.759530, 9.772695,1,1
1778779483519,   519.142,   519.142, 0.044067,-0.073119,-0.984016, 0.000421,-0.000738,-0.009862, 0.134386, 0.042308, 0.122765,1, 0.005185, 0.008960,-0.001802,1,-0.298044, 0.759518, 9.772650,1,1
1778779483540,   519.167,   519.162, 0.024044,-0.077403,-1.005804, 0.000208,-0.000782,-0.010057,-0.082904, 0.015717, 0.052559,1,-0.001546,-0.009286, 0.000453,1,-0.297077, 0.760087, 9.772635,1,1
1778779483567,   519.192,   519.192, 0.041374,-0.074506,-0.984177, 0.000423,-0.000751,-0.009878, 0.108335, 0.028718, 0.121196,1, 0.005836, 0.009504,-0.000806,1,-0.297703, 0.759557, 9.772657,1,1
1778779483589,   519.212,   519.212, 0.016059,-0.078444,-0.990527, 0.000189,-0.000780,-0.009887,-0.139475,-0.008927, 0.058870,1,-0.000882,-0.009258, 0.001560,1,-0.296671, 0.760322, 9.772629,1,1
1778779483610,   519.237,   519.232, 0.042573,-0.075586,-0.985993, 0.000440,-0.000754,-0.009889, 0.012439,-0.013415,-0.065528,1,-0.002039, 0.006553,-0.000196,1,-0.296421, 0.759476, 9.772702,1,1
1778779483637,   519.262,   519.262, 0.020910,-0.079655,-0.987302, 0.000231,-0.000785,-0.009834,-0.092361,-0.020365, 0.090445,1,-0.000447,-0.010054, 0.001507,1,-0.297101, 0.760770, 9.772581,1,1
1778779483659,   519.287,   519.282, 0.044219,-0.074990,-0.988524, 0.000427,-0.000758,-0.009907, 0.053868,-0.044144,-0.097447,1,-0.004640, 0.005243,-0.000488,1,-0.296867, 0.759331, 9.772700,1,1
1778779483680,   519.307,   519.302, 0.021272,-0.077049,-0.988228, 0.000207,-0.000769,-0.009838, 0.067631, 0.044177, 0.198958,1, 0.003384, 0.000288, 0.000126,1,-0.298284, 0.759967, 9.772608,1,1
1778779483707,   519.332,   519.332, 0.033722,-0.077515,-1.013324, 0.000288,-0.000789,-0.010160, 0.034641,-0.002027,-0.164500,1,-0.002708, 0.007077,-0.000751,1,-0.296279, 0.758048, 9.772818,1,1
1778779483729,   519.357,   519.352, 0.022345,-0.073827,-0.982579, 0.000245,-0.000739,-0.009802, 0.091120, 0.049164, 0.228136,1, 0.009473, 0.005856,-0.000918,1,-0.298552, 0.759932, 9.772602,1,1
1778779483751,   519.377,   519.372, 0.028135,-0.078896,-1.006411, 0.000272,-0.000788,-0.010099,-0.130733, 0.009412,-0.080874,1,-0.009214,-0.008480, 0.001268,1,-0.296641, 0.758950, 9.772737,1,1
1778779483777,   519.402,   519.402, 0.035841,-0.077398,-0.973959, 0.000391,-0.000771,-0.009747, 0.052570, 0.001184, 0.221297,1, 0.008143, 0.003014,-0.000611,1,-0.299006, 0.760448, 9.772548,1,1
1778779483799,   519.427,   519.422, 0.031914,-0.080794,-1.008023, 0.000307,-0.000811,-0.010090,-0.119043,-0.025692,-0.077080,1,-0.006353,-0.009269, 0.001153,1,-0.297106, 0.759902, 9.772649,1,1
1778779483821,   519.447,   519.442, 0.040643,-0.073606,-0.975436, 0.000422,-0.000732,-0.009744, 0.126462, 0.013543, 0.067942,1, 0.005161, 0.010258,-0.001137,1,-0.298448, 0.759787, 9.772616,1,1
1778779483848,   519.472,   519.472, 0.019210,-0.079481,-1.002343, 0.000172,-0.000787,-0.009988,-0.109126,-0.019254,-0.057015,1,-0.007344,-0.012290, 0.000969,1,-0.297157, 0.759968, 9.772642,1,1
1778779483869,   519.497,   519.492, 0.041542,-0.070913,-0.979494, 0.000409,-0.000715,-0.009805, 0.120954, 0.030966, 0.010277,1, 0.003603, 0.010123,-0.002321,1,-0.297868, 0.759513, 9.772655,1,1
1778779483891,   519.517,   519.512, 0.020538,-0.078511,-1.000497, 0.000189,-0.000784,-0.009986,-0.025021, 0.039145, 0.139695,1,-0.000621,-0.006119, 0.000463,1,-0.298031, 0.760378, 9.772583,1,1
1778779483918,   519.542,   519.542, 0.038024,-0.078882,-0.991887, 0.000377,-0.000800,-0.009965, 0.075077,-0.014019, 0.045569,1, 0.006300, 0.012720,-0.001050,1,-0.298211, 0.759748, 9.772627,1,1
1778779483939,   519.567,   519.562, 0.015161,-0.079993,-1.004464, 0.000166,-0.000797,-0.010022,-0.104177,-0.011453, 0.158540,1,-0.004830,-0.009767, 0.001222,1,-0.298157, 0.760209, 9.772593,1,1
1778779483961,   519.587,   519.582, 0.039051,-0.075088,-0.997082, 0.000400,-0.000753,-0.010010,-0.029027,-0.023901,-0.168563,1,-0.009425, 0.001886, 0.000250,1,-0.296727, 0.757763, 9.772826,1,1
1778779483988,   519.612,   519.612, 0.025700,-0.075649,-0.980687, 0.000292,-0.000744,-0.009773,-0.047004, 0.017728, 0.155362,1, 0.003875,-0.006404, 0.001127,1,-0.298836, 0.759713, 9.772611,1,1
1778779484009,   519.637,   519.632, 0.040701,-0.077436,-0.993390, 0.000390,-0.000785,-0.009955,-0.012937,-0.054336,-0.117974,1,-0.000951, 0.000500,-0.001245,1,-0.297759, 0.759222, 9.772681,1,1
1778779484031,   519.657,   519.652, 0.027782,-0.074429,-0.983170, 0.000279,-0.000741,-0.009791, 0.106803, 0.027912, 0.190924,1, 0.005048, 0.003519,-0.000145,1,-0.299442, 0.760167, 9.772556,1,1
1778779484058,   519.682,   519.682, 0.030065,-0.077990,-1.014057, 0.000255,-0.000786,-0.010149,-0.001943,-0.006921,-0.171693,1,-0.006207, 0.001407,-0.000840,1,-0.296829, 0.757705, 9.772827,1,1
1778779484079,   519.707,   519.702, 0.026055,-0.075405,-0.974930, 0.000281,-0.000754,-0.009735, 0.100556, 0.043814, 0.223534,1, 0.011554, 0.010931,-0.001064,1,-0.299247, 0.759448, 9.772618,1,1
1778779484102,   519.727,   519.727, 0.024844,-0.081087,-1.005727, 0.000233,-0.000816,-0.010079,-0.053444,-0.036397,-0.090074,1,-0.004459,-0.001162, 0.000860,1,-0.297042, 0.758659, 9.772747,1,1
1778779484128,   519.752,   519.752, 0.038757,-0.076025,-0.976380, 0.000414,-0.000762,-0.009787, 0.081534, 0.013934, 0.197624,1, 0.005646, 0.006181,-0.000721,1,-0.298737, 0.759663, 9.772617,1,1
1778779484149,   519.777,   519.772, 0.028273,-0.080734,-1.010608, 0.000280,-0.000804,-0.010107,-0.097593,-0.005098,-0.040467,1,-0.006756,-0.011327, 0.001601,1,-0.297053, 0.759083, 9.772714,1,1
1778779484172,   519.797,   519.797, 0.038159,-0.073836,-0.978915, 0.000403,-0.000733,-0.009794, 0.075475, 0.035588, 0.172742,1, 0.010551, 0.006994,-0.000512,1,-0.298952, 0.760004, 9.772584,1,1
1778779484198,   519.822,   519.822, 0.018458,-0.080418,-1.002333, 0.000168,-0.000794,-0.009971,-0.116621,-0.028733,-0.056901,1,-0.007965,-0.012821, 0.001804,1,-0.297231, 0.759651, 9.772664,1,1
1778779484220,   519.847,   519.842, 0.044457,-0.072903,-0.978226, 0.000431,-0.000731,-0.009798, 0.125130, 0.014450,-0.040573,1, 0.003283, 0.012006,-0.000904,1,-0.297934, 0.758968, 9.772696,1,1
1778779484242,   519.867,   519.867, 0.020065,-0.078855,-1.000073, 0.000185,-0.000789,-0.009967,-0.101151,-0.014035,-0.034697,1,-0.009785,-0.012755, 0.001201,1,-0.297542, 0.758955, 9.772709,1,1
1778779484268,   519.892,   519.892, 0.036883,-0.075845,-0.995142, 0.000358,-0.000778,-0.010006, 0.063724, 0.014610, 0.013728,1, 0.004580, 0.014206,-0.001230,1,-0.298422, 0.758533, 9.772715,1,1
1778779484290,   519.917,   519.912, 0.015817,-0.075965,-1.001577, 0.000175,-0.000755,-0.009989,-0.054454, 0.037825, 0.205037,1,-0.004589,-0.009216, 0.001023,1,-0.298711, 0.759162, 9.772657,1,1
1778779484312,   519.937,   519.937, 0.036615,-0.078105,-0.996646, 0.000373,-0.000783,-0.010018, 0.061241,-0.007614,-0.001008,1, 0.011811, 0.016606,-0.000977,1,-0.298349, 0.758698, 9.772704,1,1
1778779484338,   519.962,   519.962, 0.027951,-0.075294,-0.972443, 0.000326,-0.000749,-0.009700,-0.025367, 0.021967, 0.236136,1,-0.000450,-0.008568, 0.000276,1,-0.299205, 0.760332, 9.772552,1,1
1778779484360,   519.987,   519.982, 0.035874,-0.080836,-0.997811, 0.000343,-0.000809,-0.010000,-0.065947,-0.043026,-0.142389,1,-0.005925,-0.001795, 0.000390,1,-0.297404, 0.758563, 9.772743,1,1
1778779484383,   520.007,   520.007, 0.031195,-0.073727,-0.980520, 0.000320,-0.000739,-0.009773, 0.006710, 0.036593, 0.156992,1,-0.002512,-0.006453,-0.000437,1,-0.299011, 0.759530, 9.772619,1,1
1778779484408,   520.032,   520.032, 0.030635,-0.078391,-1.007801, 0.000266,-0.000786,-0.010074, 0.002612,-0.010558,-0.110392,1,-0.005170, 0.000327,-0.000382,1,-0.297825, 0.758035, 9.772772,1,1
1778779484430,   520.057,   520.052, 0.024768,-0.072931,-0.980422, 0.000259,-0.000728,-0.009791, 0.081535, 0.062106, 0.171028,1, 0.006092, 0.007011,-0.001612,1,-0.299513, 0.758871, 9.772655,1,1
1778779484453,   520.082,   520.077, 0.025498,-0.082759,-1.013672, 0.000227,-0.000833,-0.010150,-0.047073,-0.053220,-0.167958,1,-0.002870,-0.000126,-0.000025,1,-0.297117, 0.758278, 9.772775,1,1
1778779484478,   520.102,   520.102, 0.042520,-0.072676,-0.979333, 0.000446,-0.000728,-0.009827, 0.118097, 0.046480, 0.168668,1, 0.007300, 0.010818,-0.001585,1,-0.299226, 0.759411, 9.772622,1,1
1778779484500,   520.127,   520.122, 0.019988,-0.082935,-1.011514, 0.000200,-0.000823,-0.010119,-0.137960,-0.008163,-0.008619,1,-0.007554,-0.012896, 0.002201,1,-0.297612, 0.758744, 9.772723,1,1
1778779484523,   520.152,   520.147, 0.039813,-0.077999,-0.973529, 0.000415,-0.000774,-0.009753, 0.090959,-0.005017, 0.225514,1, 0.009768, 0.009174,-0.000910,1,-0.299765, 0.760199, 9.772544,1,1
1778779484548,   520.172,   520.172, 0.022745,-0.077808,-0.998363, 0.000228,-0.000768,-0.009930,-0.075285,-0.003944,-0.017923,1,-0.014319,-0.015204, 0.001815,1,-0.297855, 0.758646, 9.772723,1,1
1778779484570,   520.197,   520.192, 0.042181,-0.072387,-0.976376, 0.000414,-0.000725,-0.009780, 0.124260, 0.014560,-0.046049,1, 0.003876, 0.012705,-0.000440,1,-0.298528, 0.757675, 9.772779,1,1
1778779484593,   520.222,   520.217, 0.015248,-0.080412,-0.997375, 0.000134,-0.000805,-0.009933,-0.148755,-0.029298,-0.008248,1,-0.005054,-0.014755, 0.001658,1,-0.297820, 0.759115, 9.772688,1,1
1778779484619,   520.242,   520.242, 0.039422,-0.080149,-1.002907, 0.000367,-0.000822,-0.010073, 0.088962,-0.027329,-0.062431,1, 0.001647, 0.011363,-0.001428,1,-0.297997, 0.758715, 9.772714,1,1
1778779484640,   520.267,   520.262, 0.018929,-0.075130,-0.995404, 0.000206,-0.000744,-0.009929, 0.029380, 0.063910, 0.208611,1,-0.005139,-0.004501, 0.000697,1,-0.298957, 0.758875, 9.772672,1,1
1778779484663,   520.292,   520.287, 0.030641,-0.079294,-0.997684, 0.000313,-0.000795,-0.010028, 0.002369,-0.020108,-0.011138,1, 0.006989, 0.012229,-0.001222,1,-0.298503, 0.757721, 9.772776,1,1
1778779484689,   520.312,   520.312, 0.025401,-0.075049,-0.973859, 0.000294,-0.000745,-0.009721,-0.050470, 0.023218, 0.222331,1, 0.001422,-0.007252, 0.000910,1,-0.299344, 0.759240, 9.772632,1,1
1778779484710,   520.337,   520.332, 0.039786,-0.077146,-1.003129, 0.000388,-0.000771,-0.010059,-0.070448,-0.018626,-0.174596,1,-0.004628,-0.004199, 0.000640,1,-0.297081, 0.757963, 9.772800,1,1
1778779484733,   520.362,   520.357, 0.033602,-0.073548,-0.973226, 0.000356,-0.000726,-0.009703, 0.029716, 0.038774, 0.228465,1, 0.005460,-0.004086,-0.000019,1,-0.299676, 0.760205, 9.772547,1,1
1778779484759,   520.382,   520.382, 0.022584,-0.082716,-1.011703, 0.000192,-0.000826,-0.010103,-0.076359,-0.051615,-0.148767,1,-0.002567,-0.004063, 0.000038,1,-0.297701, 0.759477, 9.772663,1,1
1778779484780,   520.407,   520.402, 0.036879,-0.072333,-0.978058, 0.000365,-0.000735,-0.009764, 0.106306, 0.021202, 0.144688,1, 0.008100, 0.009543,-0.001563,1,-0.299553, 0.760907, 9.772495,1,1
1778779484807,   520.432,   520.432, 0.027860,-0.079053,-1.010252, 0.000253,-0.000794,-0.010104,-0.024313,-0.016043,-0.134502,1,-0.008171,-0.002280, 0.001339,1,-0.297457, 0.758945, 9.772713,1,1
1778779484829,   520.452,   520.452, 0.037531,-0.072755,-0.979604, 0.000389,-0.000735,-0.009835, 0.069154, 0.046274, 0.165975,1, 0.009725, 0.010564,-0.001358,1,-0.299234, 0.760055, 9.772572,1,1
1778779484850,   520.477,   520.472, 0.021111,-0.083572,-1.012736, 0.000210,-0.000831,-0.010129,-0.154430,-0.013869, 0.013377,1,-0.006900,-0.012993, 0.002086,1,-0.297574, 0.759773, 9.772644,1,1
1778779484877,   520.502,   520.502, 0.042003,-0.072914,-0.978467, 0.000437,-0.000724,-0.009816, 0.112885, 0.044786, 0.177113,1, 0.008035, 0.011945,-0.000185,1,-0.299398, 0.760077, 9.772565,1,1
1778779484899,   520.527,   520.522, 0.025282,-0.082539,-1.014927, 0.000234,-0.000822,-0.010132,-0.094075,-0.022532, 0.010316,1,-0.008318,-0.015327, 0.002725,1,-0.297865, 0.759406, 9.772664,1,1
1778779484920,   520.547,   520.542, 0.042877,-0.075561,-0.973929, 0.000417,-0.000754,-0.009757, 0.072279,-0.026805,-0.044917,1, 0.010211, 0.012481,-0.000859,1,-0.298346, 0.759662, 9.772630,1,1
1778779484947,   520.572,   520.572, 0.021505,-0.077717,-0.997427, 0.000196,-0.000776,-0.009916,-0.087027,-0.001610,-0.008847,1,-0.013027,-0.017818, 0.001101,1,-0.297360, 0.760134, 9.772623,1,1
1778779484969,   520.597,   520.592, 0.041932,-0.074424,-0.976860, 0.000406,-0.000753,-0.009800, 0.088682,-0.004033,-0.064258,1, 0.003936, 0.011950,-0.001087,1,-0.297503, 0.759322, 9.772681,1,1
1778779484991,   520.617,   520.612, 0.016167,-0.076700,-0.999569, 0.000165,-0.000767,-0.009966,-0.012817, 0.041017, 0.203320,1,-0.002845,-0.005994, 0.000153,1,-0.298343, 0.760032, 9.772601,1,1
1778779485017,   520.642,   520.642, 0.031917,-0.078800,-0.998628, 0.000320,-0.000801,-0.010040, 0.015373,-0.013620,-0.020507,1, 0.007444, 0.015372,-0.001694,1,-0.298111, 0.759378, 9.772658,1,1
1778779485039,   520.667,   520.662, 0.020181,-0.078209,-0.997134, 0.000220,-0.000772,-0.009938,-0.028499, 0.028433, 0.213830,1,-0.001424,-0.005728, 0.000550,1,-0.299126, 0.760450, 9.772544,1,1
1778779485061,   520.687,   520.682, 0.038331,-0.076220,-0.997591, 0.000389,-0.000765,-0.010007,-0.017925,-0.031712,-0.137370,1,-0.005723,-0.001391, 0.000524,1,-0.297416, 0.758976, 9.772711,1,1
1778779485088,   520.712,   520.712, 0.027358,-0.074116,-0.980334, 0.000302,-0.000729,-0.009768,-0.030842, 0.033579, 0.158750,1, 0.000655,-0.008871, 0.001016,1,-0.298858, 0.760430, 9.772554,1,1
1778779485109,   520.737,   520.732, 0.038727,-0.078052,-0.998006, 0.000361,-0.000787,-0.010004,-0.025886,-0.031844,-0.166990,1,-0.001452,-0.001635, 0.000345,1,-0.297139, 0.759437, 9.772684,1,1
1778779485131,   520.757,   520.752, 0.030792,-0.074207,-0.980756, 0.000304,-0.000749,-0.009778, 0.104106, 0.019820, 0.181515,1, 0.009161, 0.006742,-0.000531,1,-0.299179, 0.761221, 9.772483,1,1
1778779485158,   520.782,   520.782, 0.031719,-0.078125,-1.009090, 0.000279,-0.000790,-0.010108, 0.013738,-0.006494,-0.123130,1,-0.002590, 0.003928,-0.000400,1,-0.297440, 0.759575, 9.772664,1,1
1778779485179,   520.807,   520.802, 0.024317,-0.076126,-0.979164, 0.000267,-0.000764,-0.009780, 0.065520, 0.014874, 0.226994,1, 0.006548, 0.007452,-0.001276,1,-0.299589, 0.761111, 9.772479,1,1
1778779485201,   520.827,   520.822, 0.028875,-0.080407,-1.007708, 0.000283,-0.000812,-0.010102,-0.101048,-0.015658,-0.038958,1,-0.012734,-0.009173, 0.000994,1,-0.297837, 0.759608, 9.772649,1,1
1778779485228,   520.852,   520.852, 0.034201,-0.074673,-0.976334, 0.000378,-0.000739,-0.009779, 0.035986, 0.027403, 0.198032,1, 0.003873, 0.004481,-0.000394,1,-0.299551, 0.759817, 9.772580,1,1
1778779485249,   520.877,   520.872, 0.029668,-0.081243,-1.011018, 0.000287,-0.000812,-0.010120,-0.109436,-0.040232,-0.099364,1,-0.008902,-0.010917, 0.001588,1,-0.297680, 0.758471, 9.772742,1,1
1778779485271,   520.897,   520.892, 0.037532,-0.075212,-0.974264, 0.000387,-0.000743,-0.009736, 0.088314, 0.008499, 0.052652,1, 0.010221, 0.011326,-0.001433,1,-0.299055, 0.758977, 9.772661,1,1
1778779485298,   520.922,   520.922, 0.022449,-0.079043,-1.005743, 0.000200,-0.000788,-0.010018,-0.077823,-0.016379,-0.090263,1,-0.010842,-0.011196, 0.000682,1,-0.297623, 0.758432, 9.772747,1,1
1778779485319,   520.947,   520.942, 0.033754,-0.073237,-0.975705, 0.000332,-0.000736,-0.009757, 0.084925, 0.035488, 0.070333,1, 0.006936, 0.011402,-0.001302,1,-0.298866, 0.758527, 9.772702,1,1
1778779485342,   520.967,   520.967, 0.021753,-0.078459,-1.008098, 0.000191,-0.000791,-0.010071,-0.084244,-0.010853,-0.113325,1,-0.005260,-0.005914, 0.000693,1,-0.297379, 0.758407, 9.772757,1,1
1778779485368,   520.992,   520.992, 0.044304,-0.072723,-0.982326, 0.000445,-0.000742,-0.009873, 0.135409, 0.045822, 0.139333,1, 0.008816, 0.016459,-0.001126,1,-0.299577, 0.759260, 9.772623,1,1
1778779485389,   521.017,   521.012, 0.019108,-0.079790,-1.004608, 0.000203,-0.000794,-0.010036,-0.068093, 0.009477, 0.139036,1,-0.004017,-0.010170, 0.001655,1,-0.299120, 0.759790, 9.772596,1,1
1778779485412,   521.037,   521.037, 0.037201,-0.076266,-0.987563, 0.000387,-0.000764,-0.009906, 0.066032, 0.011635, 0.087940,1, 0.007245, 0.007214,-0.000536,1,-0.299006, 0.759771, 9.772601,1,1
1778779485438,   521.062,   521.062, 0.021026,-0.077024,-0.995862, 0.000235,-0.000761,-0.009917,-0.091823, 0.004185, 0.006580,1,-0.009844,-0.015330, 0.001531,1,-0.297534, 0.759231, 9.772688,1,1
1778779485460,   521.087,   521.082, 0.040967,-0.074088,-0.987255, 0.000403,-0.000743,-0.009891, 0.056379,-0.005099,-0.136499,1, 0.000287, 0.006951,-0.000471,1,-0.297026, 0.757862, 9.772810,1,1
1778779485482,   521.107,   521.107, 0.022313,-0.079065,-0.988994, 0.000215,-0.000787,-0.009849,-0.079328,-0.016078, 0.073950,1,-0.004058,-0.009844, 0.000923,1,-0.297834, 0.759164, 9.772684,1,1
1778779485508,   521.132,   521.132, 0.035975,-0.080198,-1.003021, 0.000321,-0.000814,-0.010053, 0.055362,-0.028502,-0.063483,1,-0.000753, 0.007475,-0.001017,1,-0.297668, 0.757947, 9.772783,1,1
1778779485530,   521.157,   521.152, 0.023407,-0.076732,-0.990623, 0.000234,-0.000769,-0.009881, 0.042982, 0.027675, 0.204077,1, 0.001692,-0.000284,-0.000489,1,-0.298879, 0.758843, 9.772676,1,1
1778779485552,   521.177,   521.177, 0.034952,-0.080368,-0.998412, 0.000341,-0.000804,-0.010026, 0.044911,-0.030754,-0.018258,1, 0.001409, 0.010515,-0.000630,1,-0.298183, 0.757433, 9.772807,1,1
1778779485578,   521.202,   521.202, 0.028449,-0.076055,-0.972802, 0.000333,-0.000760,-0.009729,-0.020507, 0.012611, 0.232764,1, 0.001319,-0.001817,-0.000283,1,-0.299443, 0.758493, 9.772687,1,1
1778779485600,   521.227,   521.222, 0.032239,-0.077813,-1.003266, 0.000324,-0.000781,-0.010058,-0.116551,-0.041698,-0.112558,1,-0.012384,-0.005371, 0.000159,1,-0.297678, 0.756518, 9.772894,1,1
1778779485623,   521.247,   521.247, 0.031158,-0.073013,-0.980939, 0.000342,-0.000718,-0.009788, 0.005904, 0.040589, 0.153103,1, 0.003770,-0.002782, 0.001073,1,-0.299559, 0.756722, 9.772820,1,1
1778779485648,   521.272,   521.272, 0.024159,-0.078821,-1.011092, 0.000215,-0.000793,-0.010100,-0.061305,-0.016526,-0.142547,1,-0.000699,-0.002318, 0.000047,1,-0.298133, 0.756441, 9.772886,1,1
1778779485670,   521.297,   521.292, 0.033792,-0.072701,-0.973567, 0.000344,-0.000729,-0.009714, 0.132045, 0.046668, 0.165111,1, 0.012607, 0.012684,-0.001623,1,-0.300565, 0.758284, 9.772669,1,1
1778779485693,   521.322,   521.317, 0.024260,-0.080208,-1.010752, 0.000209,-0.000806,-0.010102,-0.060853,-0.028524,-0.139346,1,-0.006460,-0.005385, 0.000368,1,-0.298592, 0.757846, 9.772763,1,1
1778779485718,   521.342,   521.342, 0.039334,-0.072572,-0.983602, 0.000398,-0.000736,-0.009879, 0.085768, 0.046974, 0.126819,1, 0.011241, 0.011252,-0.001382,1,-0.300317, 0.759011, 9.772619,1,1
1778779485740,   521.367,   521.362, 0.024545,-0.079849,-1.005710, 0.000249,-0.000801,-0.010067, 0.006671, 0.043591, 0.195967,1, 0.007194,-0.000785,-0.000092,1,-0.300437, 0.759853, 9.772551,1,1
1778779485763,   521.392,   521.387, 0.040202,-0.074821,-0.977911, 0.000425,-0.000742,-0.009805, 0.093681, 0.026107, 0.182513,1, 0.005448, 0.008327,-0.000893,1,-0.300822, 0.760019, 9.772526,1,1
1778779485788,   521.412,   521.412, 0.016680,-0.080054,-0.997616, 0.000184,-0.000792,-0.009938,-0.135868,-0.025476,-0.010666,1,-0.009171,-0.013813, 0.001539,1,-0.299006, 0.759306, 9.772637,1,1
1778779485810,   521.437,   521.432, 0.042217,-0.074546,-0.982071, 0.000425,-0.000735,-0.009832, 0.048421,-0.002036,-0.067278,1, 0.001380, 0.008208,-0.001077,1,-0.299098, 0.758464, 9.772699,1,1
1778779485833,   521.462,   521.457, 0.022604,-0.078726,-0.996526, 0.000214,-0.000779,-0.009918,-0.077584,-0.013084, 0.000072,1,-0.007334,-0.012932, 0.001372,1,-0.298849, 0.758725, 9.772687,1,1
1778779485859,   521.482,   521.482, 0.037684,-0.077548,-0.999492, 0.000344,-0.000789,-0.010022, 0.070410,-0.002681,-0.028922,1, 0.001920, 0.009833,-0.000745,1,-0.299451, 0.757866, 9.772736,1,1
1778779485880,   521.507,   521.502, 0.020300,-0.079201,-0.997819, 0.000185,-0.000795,-0.009953,-0.029964, 0.019511, 0.179907,1, 0.000815,-0.004032, 0.000774,1,-0.300205, 0.758764, 9.772642,1,1
1778779485903,   521.532,   521.527, 0.038915,-0.076186,-0.994746, 0.000374,-0.000776,-0.009998, 0.082186, 0.010609, 0.017622,1, 0.004803, 0.011904,-0.001633,1,-0.299818, 0.757891, 9.772722,1,1
1778779485929,   521.552,   521.552, 0.027467,-0.075371,-0.975333, 0.000308,-0.000752,-0.009743,-0.031389, 0.019886, 0.207858,1, 0.000360,-0.005943, 0.001054,1,-0.300558, 0.759036, 9.772611,1,1
1778779485950,   521.577,   521.572, 0.037063,-0.076241,-0.996106, 0.000379,-0.000763,-0.009997,-0.061659,-0.019686,-0.114754,1,-0.006395,-0.001595, 0.001037,1,-0.298906, 0.757631, 9.772770,1,1
1778779485973,   521.602,   521.597, 0.025882,-0.076095,-0.984918, 0.000299,-0.000753,-0.009816,-0.046313, 0.013105, 0.113849,1, 0.005621,-0.008126, 0.001782,1,-0.299870, 0.759518, 9.772594,1,1
1778779485999,   521.622,   521.622, 0.026739,-0.082820,-1.009017, 0.000245,-0.000822,-0.010089,-0.036551,-0.052541,-0.122464,1, 0.002724, 0.000786, 0.000301,1,-0.298795, 0.759728, 9.772611,1,1
1778779486020,   521.647,   521.642, 0.029119,-0.076040,-0.980871, 0.000299,-0.000753,-0.009772, 0.112806, 0.019112, 0.179092,1, 0.007884, 0.006762,-0.000955,1,-0.300697, 0.761133, 9.772443,1,1
1778779486047,   521.672,   521.672, 0.029546,-0.079333,-1.009556, 0.000253,-0.000800,-0.010099,-0.008870,-0.017787,-0.127787,1,-0.006150,-0.001133,-0.000885,1,-0.298564, 0.760040, 9.772593,1,1
1778779486069,   521.692,   521.692, 0.039182,-0.071339,-0.981465, 0.000388,-0.000715,-0.009832, 0.084375, 0.061082, 0.147621,1, 0.007084, 0.006725,-0.001039,1,-0.300079, 0.760898, 9.772480,1,1
1778779486090,   521.717,   521.712, 0.028952,-0.080342,-1.007112, 0.000277,-0.000810,-0.010097,-0.100402,-0.007701,-0.042703,1,-0.005474,-0.007827, 0.001513,1,-0.298575, 0.760658, 9.772545,1,1
1778779486117,   521.742,   521.742, 0.035905,-0.076197,-0.973872, 0.000390,-0.000752,-0.009761, 0.051806, 0.014192, 0.222009,1, 0.008072, 0.006789, 0.000018,1,-0.300511, 0.761683, 9.772406,1,1
1778779486139,   521.767,   521.762, 0.030377,-0.080927,-1.006060, 0.000303,-0.000804,-0.010072,-0.105614,-0.036281,-0.032095,1,-0.010744,-0.011232, 0.001055,1,-0.298682, 0.760713, 9.772537,1,1
1778779486160,   521.787,   521.782, 0.036569,-0.077082,-0.978061, 0.000391,-0.000754,-0.009774, 0.087069, 0.010820, 0.048693,1, 0.001532, 0.008852,-0.001137,1,-0.299603, 0.759802, 9.772580,1,1
1778779486187,   521.812,   521.812, 0.020055,-0.078869,-1.006920, 0.000192,-0.000782,-0.010032,-0.101738,-0.014291,-0.101849,1,-0.009820,-0.010779, 0.000982,1,-0.298070, 0.758844, 9.772701,1,1
1778779486209,   521.837,   521.832, 0.033049,-0.074701,-0.981419, 0.000328,-0.000742,-0.009802, 0.068199, 0.027497, 0.043016,1, 0.004569, 0.008540,-0.001592,1,-0.299042, 0.758702, 9.772683,1,1
1778779486231,   521.857,   521.852, 0.019627,-0.081232,-1.011182, 0.000169,-0.000820,-0.010092,-0.089505,-0.015172, 0.030767,1,-0.002415,-0.009476, 0.000738,1,-0.298417, 0.759192, 9.772664,1,1
1778779486257,   521.882,   521.882, 0.036833,-0.073110,-0.989226, 0.000357,-0.000745,-0.009934, 0.062838, 0.041717, 0.071715,1, 0.007509, 0.013391,-0.003175,1,-0.298793, 0.758912, 9.772675,1,1
1778779486279,   521.907,   521.902, 0.020050,-0.079366,-1.006046, 0.000197,-0.000801,-0.010056,-0.117882,-0.021533, 0.093548,1,-0.003830,-0.007482, 0.000346,1,-0.298588, 0.759519, 9.772634,1,1
1778779486301,   521.927,   521.922, 0.036275,-0.073415,-0.982262, 0.000389,-0.000737,-0.009860, 0.007313, 0.004427,-0.063437,1,-0.003152, 0.009507,-0.000611,1,-0.298582, 0.758229, 9.772734,1,1
1778779486328,   521.952,   521.952, 0.023838,-0.077887,-0.993785, 0.000264,-0.000773,-0.009906,-0.065819,-0.004599, 0.026924,1,-0.004133,-0.010092, 0.001258,1,-0.299269, 0.759084, 9.772646,1,1
1778779486349,   521.977,   521.972, 0.045696,-0.075397,-0.971962, 0.000468,-0.000748,-0.009731, 0.125882, 0.002086, 0.017136,1, 0.006859, 0.013342,-0.000768,1,-0.300370, 0.759175, 9.772605,1,1
1778779486371,   521.997,   521.992, 0.030920,-0.076493,-0.990591, 0.000307,-0.000763,-0.009857, 0.097179,-0.003987, 0.245288,1, 0.002828,-0.003551, 0.001127,1,-0.301713, 0.760728, 9.772443,1,1
1778779486398,   522.022,   522.022, 0.046253,-0.075723,-0.991824, 0.000431,-0.000763,-0.009934, 0.153044, 0.016946, 0.046101,1, 0.003209, 0.007169,-0.000268,1,-0.300768, 0.759632, 9.772557,1,1
1778779486419,   522.047,   522.042, 0.028146,-0.077601,-0.992579, 0.000273,-0.000773,-0.009898, 0.106176, 0.037288, 0.206877,1, 0.000507,-0.008014, 0.001197,1,-0.300733, 0.760440, 9.772496,1,1
1778779486441,   522.067,   522.062, 0.038129,-0.076480,-0.997492, 0.000368,-0.000784,-0.010012, 0.002660,-0.033997,-0.079660,1,-0.005890,-0.007562, 0.000564,1,-0.298169, 0.759348, 9.772659,1,1
1778779486468,   522.092,   522.092, 0.023683,-0.077125,-0.986963, 0.000265,-0.000769,-0.009855,-0.066777, 0.002434, 0.093881,1,-0.003452,-0.010293, 0.000136,1,-0.298704, 0.758665, 9.772696,1,1
1778779486489,   522.117,   522.112, 0.023925,-0.077006,-1.005450, 0.000257,-0.000774,-0.010098,-0.123387,-0.032188,-0.216985,1,-0.007655,-0.003203, 0.000103,1,-0.296547, 0.757049, 9.772887,1,1
1778779486511,   522.137,   522.132, 0.014940,-0.079810,-0.991562, 0.000187,-0.000794,-0.009893,-0.048361,-0.015406, 0.069181,1, 0.009046, 0.007451,-0.001594,1,-0.298244, 0.758018, 9.772760,1,1
1778779486538,   522.162,   522.162, 0.018046,-0.079528,-1.014108, 0.000168,-0.000787,-0.010150,-0.120541,-0.022346,-0.172184,1,-0.001214, 0.005467,-0.000469,1,-0.297680, 0.757515, 9.772817,1,1
1778779486559,   522.187,   522.182, 0.022691,-0.079290,-0.984656, 0.000239,-0.000785,-0.009809, 0.048113,-0.003852, 0.154325,1, 0.008314, 0.006935,-0.001811,1,-0.300139, 0.759213, 9.772610,1,1
1778779486582,   522.207,   522.207, 0.023942,-0.082898,-1.003273, 0.000194,-0.000838,-0.010038,-0.064522,-0.053840,-0.066108,1,-0.000798, 0.004435,-0.000649,1,-0.299455, 0.759090, 9.772640,1,1
1778779486608,   522.232,   522.232, 0.036162,-0.073321,-0.974196, 0.000351,-0.000733,-0.009746, 0.053716, 0.040141, 0.218990,1,-0.000159, 0.004897,-0.000861,1,-0.301063, 0.759167, 9.772585,1,1
1778779486629,   522.257,   522.252, 0.034580,-0.074548,-1.000676, 0.000318,-0.000761,-0.010040,-0.064134, 0.004729,-0.023656,1,-0.008330,-0.005377, 0.001811,1,-0.299713, 0.758067, 9.772712,1,1
1778779486652,   522.277,   522.277, 0.044349,-0.071435,-0.968148, 0.000465,-0.000709,-0.009700, 0.134912, 0.058651, 0.278328,1, 0.009720, 0.006691, 0.000230,1,-0.300193, 0.759497, 9.772586,1,1
1778779486678,   522.302,   522.302, 0.024725,-0.077246,-0.996854, 0.000260,-0.000778,-0.009956,-0.056448, 0.002022,-0.003180,1,-0.007517,-0.007930, 0.002320,1,-0.298666, 0.759312, 9.772647,1,1
1778779486700,   522.327,   522.322, 0.046249,-0.073008,-0.978505, 0.000483,-0.000715,-0.009783, 0.154549, 0.031547, 0.088549,1, 0.000547, 0.008248, 0.000240,1,-0.299707, 0.758489, 9.772679,1,1
1778779486722,   522.347,   522.347, 0.029556,-0.079195,-1.002476, 0.000293,-0.000783,-0.009999,-0.009021,-0.016705,-0.058340,1, 0.002238,-0.006869, 0.001193,1,-0.298648, 0.760004, 9.772593,1,1
1778779486748,   522.372,   522.372, 0.048256,-0.077006,-0.989195, 0.000469,-0.000777,-0.009900, 0.173986, 0.004737, 0.071892,1, 0.000108, 0.004895,-0.000538,1,-0.299402, 0.759910, 9.772578,1,1
1778779486770,   522.397,   522.392, 0.020285,-0.083040,-1.007612, 0.000180,-0.000832,-0.010045,-0.010822,-0.012022, 0.063513,1,-0.002021,-0.013467, 0.001440,1,-0.298221, 0.759643, 9.772635,1,1
1778779486792,   522.417,   522.417, 0.034811,-0.076891,-0.999435, 0.000331,-0.000792,-0.010026, 0.044802, 0.004426,-0.028332,1,-0.000992, 0.004926,-0.001776,1,-0.296738, 0.758435, 9.772774,1,1
1778779486818,   522.442,   522.442, 0.020052,-0.078733,-0.994294, 0.000221,-0.000790,-0.009925,-0.099666,-0.013804, 0.022103,1,-0.005252,-0.009598, 0.000807,1,-0.296012, 0.758137, 9.772819,1,1
1778779486840,   522.467,   522.462, 0.024279,-0.075245,-0.992077, 0.000263,-0.000759,-0.009970,-0.097254,-0.008501,-0.140314,1,-0.003761, 0.004135,-0.000961,1,-0.294994, 0.756648, 9.772965,1,1
1778779486863,   522.487,   522.487, 0.011351,-0.077135,-0.988749, 0.000150,-0.000771,-0.009866,-0.186034, 0.001538, 0.076479,1,-0.000549,-0.007095, 0.001067,1,-0.297123, 0.757960, 9.772799,1,1
1778779486888,   522.512,   522.512, 0.022425,-0.079707,-0.999491, 0.000217,-0.000799,-0.010015,-0.077225,-0.024173,-0.028825,1, 0.001406, 0.007540,-0.000602,1,-0.297376, 0.757526, 9.772825,1,1
1778779486910,   522.537,   522.532, 0.021414,-0.079139,-0.982588, 0.000235,-0.000782,-0.009795,-0.001364,-0.010271, 0.219422,1, 0.006783, 0.002550,-0.000664,1,-0.299136, 0.758855, 9.772668,1,1
1778779486933,   522.562,   522.557, 0.034181,-0.079375,-0.988991, 0.000303,-0.000798,-0.009903, 0.036092,-0.020019, 0.074013,1,-0.003585, 0.008309,-0.000720,1,-0.299365, 0.758270, 9.772706,1,1
1778779486958,   522.582,   522.582, 0.044703,-0.073658,-0.974712, 0.000437,-0.000733,-0.009729, 0.138122, 0.035330, 0.214067,1,-0.004174,-0.000424,-0.000114,1,-0.300255, 0.757541, 9.772736,1,1
1778779486980,   522.607,   522.602, 0.039495,-0.073236,-0.993778, 0.000353,-0.000749,-0.009958,-0.056839, 0.026365, 0.015586,1,-0.005031,-0.002864, 0.000657,1,-0.299064, 0.756456, 9.772857,1,1
1778779487003,   522.632,   522.627, 0.042481,-0.067445,-0.982932, 0.000439,-0.000669,-0.009828, 0.117041, 0.093965, 0.133652,1, 0.002837,-0.003961, 0.000221,1,-0.299435, 0.755467, 9.772922,1,1
1778779487028,   522.652,   522.652, 0.021926,-0.076287,-1.012105, 0.000227,-0.000766,-0.010119,-0.082434, 0.007986,-0.152424,1, 0.000579,-0.009242, 0.001797,1,-0.297160, 0.756126, 9.772940,1,1
1778779487050,   522.677,   522.672, 0.045136,-0.062249,-0.999116, 0.000477,-0.000627,-0.009993, 0.101726, 0.084944,-0.061152,1, 0.001213, 0.004538,-0.000402,1,-0.297182, 0.755868, 9.772959,1,1
1778779487073,   522.702,   522.697, 0.019599,-0.073561,-1.004267, 0.000229,-0.000720,-0.010039,-0.105171, 0.036370,-0.075688,1, 0.017428, 0.001668, 0.001525,1,-0.297422, 0.758300, 9.772763,1,1
1778779487099,   522.722,   522.722, 0.042741,-0.072901,-0.991936, 0.000418,-0.000735,-0.009929, 0.120154, 0.045959, 0.044950,1, 0.009317, 0.008615,-0.002143,1,-0.299262, 0.761161, 9.772485,1,1
1778779487120,   522.747,   522.742, 0.026361,-0.082165,-0.993503, 0.000257,-0.000817,-0.009912, 0.069602,-0.019076, 0.104527,1, 0.010381,-0.000509, 0.000926,1,-0.300001, 0.762783, 9.772336,1,1
1778779487143,   522.772,   522.767, 0.035668,-0.083003,-0.985390, 0.000330,-0.000839,-0.009851, 0.049262,-0.049913, 0.108846,1, 0.000844, 0.005152,-0.000996,1,-0.300680, 0.764093, 9.772213,1,1
1778779487169,   522.792,   522.792, 0.006232,-0.087592,-0.973622, 0.000074,-0.000865,-0.009734,-0.239653,-0.094167, 0.224184,1, 0.006807,-0.002026, 0.001539,1,-0.300696, 0.765031, 9.772139,1,1
1778779487190,   522.817,   522.812, 0.033201,-0.071386,-1.002298, 0.000334,-0.000740,-0.010047,-0.147385,-0.101171,-0.026447,1,-0.024075,-0.011861,-0.001729,1,-0.298515, 0.762985, 9.772366,1,1
1778779487213,   522.842,   522.837,-0.006161,-0.087646,-0.985294,-0.000016,-0.000851,-0.009852,-0.358222,-0.099401, 0.110177,1, 0.016126,-0.005135, 0.003276,1,-0.297635, 0.760617, 9.772577,1,1
1778779487239,   522.862,   522.862, 0.013213,-0.089802,-1.020046, 0.000094,-0.000915,-0.010188,-0.166260,-0.120759,-0.230542,1,-0.018087,-0.004887,-0.000458,1,-0.295685, 0.759333, 9.772736,1,1
1778779487260,   522.887,   522.882, 0.028552,-0.087235,-0.980746, 0.000326,-0.000855,-0.009777, 0.117221, 0.035242, 0.145158,1, 0.007356, 0.019730, 0.000162,1,-0.297386, 0.759125, 9.772700,1,1
1778779487287,   522.912,   522.912, 0.037159,-0.073489,-1.025595, 0.000342,-0.000744,-0.010254, 0.067274, 0.036849,-0.284819,1,-0.014140, 0.007397,-0.001733,1,-0.297366, 0.757094, 9.772859,1,1
1778779487309,   522.932,   522.932, 0.052197,-0.075993,-0.968783, 0.000519,-0.000750,-0.009702, 0.209877, 0.014306, 0.272011,1, 0.026454, 0.021499,-0.001120,1,-0.302672, 0.760368, 9.772442,1,1
1778779487330,   522.957,   522.952, 0.053141,-0.070007,-1.017949, 0.000485,-0.000712,-0.010204, 0.138997, 0.021118,-0.089127,1,-0.012475,-0.012340,-0.000794,1,-0.301467, 0.760773, 9.772448,1,1
1778779487357,   522.982,   522.982, 0.056385,-0.067055,-0.965199, 0.000563,-0.000669,-0.009679, 0.247884, 0.104317, 0.306874,1, 0.020379, 0.015358,-0.002347,1,-0.305549, 0.762530, 9.772183,1,1
1778779487379,   523.007,   523.002, 0.028325,-0.072596,-1.001400, 0.000297,-0.000736,-0.010043,-0.018475, 0.051836, 0.047128,1,-0.005774,-0.016374, 0.000634,1,-0.303145, 0.762973, 9.772223,1,1
1778779487400,   523.027,   523.022, 0.030035,-0.070905,-0.974650, 0.000322,-0.000707,-0.009747,-0.001160, 0.075391, 0.098923,1, 0.012501, 0.001410,-0.001019,1,-0.302294, 0.763809, 9.772185,1,1
1778779487427,   523.052,   523.052, 0.026121,-0.071071,-1.006290, 0.000272,-0.000708,-0.010047,-0.042326, 0.067767,-0.096109,1,-0.008975,-0.018065, 0.000523,1,-0.297924, 0.764454, 9.772268,1,1
1778779487449,   523.077,   523.072, 0.021953,-0.077905,-0.973481, 0.000252,-0.000769,-0.009715, 0.032055, 0.049971, 0.125758,1, 0.013178, 0.004574,-0.000690,1,-0.299466, 0.764155, 9.772245,1,1
1778779487471,   523.097,   523.092, 0.006860,-0.087709,-1.010451, 0.000050,-0.000877,-0.010071,-0.235361,-0.049928, 0.071886,1, 0.000799,-0.017049, 0.001210,1,-0.297586, 0.765588, 9.772190,1,1
1778779487498,   523.122,   523.122, 0.033409,-0.079596,-0.990693, 0.000308,-0.000801,-0.009920, 0.029945,-0.015466, 0.056846,1, 0.002966, 0.013552,-0.001042,1,-0.298110, 0.765195, 9.772205,1,1
1778779487519,   523.147,   523.142, 0.025915,-0.084890,-1.005943, 0.000244,-0.000853,-0.010054,-0.030168,-0.006299, 0.032352,1,-0.008292,-0.001314, 0.001693,1,-0.298625, 0.764445, 9.772248,1,1
1778779487541,   523.167,   523.162, 0.030374,-0.082612,-0.984914, 0.000308,-0.000839,-0.009885,-0.013958,-0.087642,-0.050438,1,-0.000786, 0.014532,-0.000390,1,-0.299937, 0.763435, 9.772286,1,1
1778779487568,   523.192,   523.192, 0.016040,-0.086017,-0.991562, 0.000150,-0.000862,-0.009886,-0.145396,-0.079870, 0.048282,1,-0.011174,-0.001405, 0.002197,1,-0.302647, 0.763320, 9.772212,1,1
1778779487589,   523.217,   523.212, 0.042483,-0.077645,-0.989385, 0.000450,-0.000779,-0.009938, 0.060554,-0.039792,-0.120774,1,-0.014539, 0.014373,-0.000935,1,-0.303759, 0.760021, 9.772435,1,1
1778779487611,   523.237,   523.232, 0.028886,-0.084270,-0.987022, 0.000319,-0.000812,-0.009847, 0.060051, 0.018924, 0.197080,1,-0.003138, 0.010782,-0.000154,1,-0.307041, 0.759140, 9.772401,1,1
1778779487638,   523.262,   523.262, 0.035873,-0.080161,-1.001766, 0.000368,-0.000787,-0.010011, 0.045065,-0.030630,-0.051271,1,-0.011740, 0.001991,-0.002463,1,-0.306794, 0.755110, 9.772720,1,1
1778779487659,   523.287,   523.282, 0.025502,-0.082928,-0.992105, 0.000261,-0.000799,-0.009887, 0.061455, 0.011499, 0.119273,1, 0.003146, 0.001315,-0.000180,1,-0.306694, 0.756901, 9.772585,1,1
1778779487681,   523.307,   523.302, 0.051557,-0.070290,-1.012970, 0.000462,-0.000661,-0.010155, 0.025457, 0.129762,-0.183972,1, 0.002624,-0.011800,-0.008057,1,-0.304348, 0.756876, 9.772660,1,1
1778779487708,   523.332,   523.332, 0.042125,-0.071869,-0.974135, 0.000432,-0.000711,-0.009727, 0.106130, 0.056229, 0.219254,1, 0.018214,-0.000805,-0.001372,1,-0.306957, 0.761590, 9.772213,1,1
1778779487729,   523.357,   523.352, 0.032275,-0.078396,-0.982314, 0.000333,-0.000785,-0.009835,-0.014697,-0.001242,-0.051943,1, 0.007512,-0.004694,-0.000878,1,-0.305223, 0.763271, 9.772136,1,1
1778779487751,   523.377,   523.372, 0.027119,-0.072247,-0.987372, 0.000289,-0.000731,-0.009853, 0.018262, 0.026502, 0.144581,1,-0.004057,-0.002736,-0.000619,1,-0.304799, 0.762928, 9.772176,1,1
1778779487778,   523.402,   523.402, 0.024616,-0.076092,-1.011945, 0.000252,-0.000754,-0.010124,-0.061065, 0.015572,-0.151453,1,-0.001257,-0.001725, 0.000525,1,-0.302409, 0.761739, 9.772343,1,1
1778779487799,   523.427,   523.422, 0.020328,-0.076893,-0.981066, 0.000235,-0.000754,-0.009800,-0.017432, 0.041615, 0.074965,1, 0.020982, 0.013883,-0.000695,1,-0.304761, 0.764602, 9.772046,1,1
1778779487822,   523.447,   523.447, 0.020325,-0.085971,-0.994794, 0.000203,-0.000859,-0.009946,-0.106722,-0.075073, 0.016142,1,-0.003262, 0.000887, 0.000126,1,-0.306066, 0.767917, 9.771746,1,1
1778779487848,   523.472,   523.472, 0.029598,-0.082806,-0.995953, 0.000293,-0.000840,-0.009965, 0.002193,-0.027126, 0.083553,1, 0.000277, 0.012066,-0.000385,1,-0.308038, 0.766486, 9.771796,1,1
1778779487870,   523.497,   523.492, 0.031460,-0.080517,-1.007174, 0.000280,-0.000819,-0.010062,-0.054964,-0.035684, 0.000961,1,-0.015051,-0.003492, 0.000898,1,-0.308105, 0.764750, 9.771930,1,1
1778779487892,   523.512,   523.517, 0.036546,-0.077465,-1.004667, 0.000343,-0.000785,-0.010064, 0.027191,-0.015053, 0.051689,1, 0.003518, 0.015681, 0.000135,1,-0.310842, 0.762633, 9.772009,1,1
1778779487918,   523.542,   523.542, 0.029196,-0.080488,-0.988140, 0.000290,-0.000813,-0.009868,-0.025752,-0.027292, 0.081670,1,-0.013379, 0.000986, 0.000721,1,-0.312098, 0.761607, 9.772049,1,1
1778779487940,   523.567,   523.562, 0.039400,-0.075410,-0.988338, 0.000399,-0.000760,-0.009910, 0.048747,-0.008495,-0.012792,1,-0.011979, 0.010193, 0.000881,1,-0.313039, 0.758370, 9.772270,1,1
1778779487962,   523.587,   523.587, 0.038065,-0.078336,-0.992012, 0.000391,-0.000790,-0.009908, 0.058033,-0.010724, 0.043953,1,-0.006456, 0.000293, 0.000354,1,-0.315270, 0.757288, 9.772283,1,1
1778779487988,   523.612,   523.612, 0.042006,-0.071575,-0.990396, 0.000442,-0.000715,-0.009929, 0.095828, 0.054912, 0.059827,1, 0.005383, 0.008727,-0.000211,1,-0.316386, 0.756987, 9.772269,1,1
1778779488010,   523.637,   523.632, 0.027167,-0.083676,-0.995514, 0.000264,-0.000829,-0.009920,-0.040957,-0.006963, 0.154391,1, 0.010067,-0.005512, 0.000056,1,-0.316923, 0.759548, 9.772054,1,1
1778779488032,   523.657,   523.657, 0.043821,-0.070629,-1.001182, 0.000412,-0.000721,-0.010019, 0.114355, 0.066549,-0.046113,1, 0.003699, 0.004265,-0.002562,1,-0.315517, 0.759291, 9.772119,1,1
1778779488058,   523.682,   523.682, 0.028902,-0.056404,-0.986650, 0.000292,-0.000528,-0.009866,-0.033469, 0.208441, 0.096165,1, 0.013545,-0.001146,-0.001822,1,-0.316875, 0.761997, 9.771865,1,1
1778779488080,   523.707,   523.702, 0.030540,-0.072513,-0.996051, 0.000287,-0.000734,-0.009980,-0.032770, 0.009593,-0.023637,1, 0.001850,-0.001639,-0.001613,1,-0.316391, 0.762854, 9.771813,1,1
1778779488103,   523.727,   523.727, 0.023443,-0.078874,-0.983940, 0.000242,-0.000779,-0.009832,-0.087659,-0.007144, 0.122347,1, 0.010926,-0.001646, 0.000582,1,-0.317502, 0.766682, 9.771478,1,1
1778779488128,   523.752,   523.752, 0.031105,-0.076029,-1.002534, 0.000315,-0.000762,-0.010039,-0.011828, 0.020822,-0.059984,1,-0.003982, 0.001457, 0.000235,1,-0.316906, 0.766287, 9.771528,1,1
1778779488150,   523.777,   523.772, 0.024233,-0.078300,-0.981475, 0.000278,-0.000775,-0.009819, 0.021786, 0.028863, 0.122999,1, 0.011739, 0.010067, 0.000158,1,-0.318968, 0.767635, 9.771355,1,1
1778779488173,   523.802,   523.797, 0.028175,-0.082234,-1.001062, 0.000272,-0.000821,-0.010005,-0.042540,-0.038280,-0.045749,1,-0.004809, 0.000796, 0.000146,1,-0.318864, 0.768015, 9.771329,1,1
1778779488198,   523.822,   523.822, 0.035767,-0.074850,-0.990130, 0.000365,-0.000739,-0.009888, 0.030667, 0.033302, 0.061483,1,-0.003140, 0.004849, 0.000919,1,-0.320237, 0.767232, 9.771345,1,1
1778779488220,   523.847,   523.842, 0.038157,-0.078209,-1.000565, 0.000300,-0.000836,-0.010002,-0.005180,-0.055528,-0.059370,1,-0.004729,-0.002195, 0.001089,1,-0.320307, 0.766249, 9.771420,1,1
1778779488243,   523.872,   523.867, 0.039704,-0.075749,-0.979202, 0.000394,-0.000755,-0.009815, 0.066487, 0.023257, 0.168656,1, 0.004277, 0.012958,-0.000530,1,-0.323212, 0.766199, 9.771328,1,1
1778779488268,   523.892,   523.892, 0.030581,-0.083352,-0.994166, 0.000292,-0.000843,-0.009917,-0.023104,-0.051800, 0.021945,1,-0.014446,-0.005384, 0.000030,1,-0.322837, 0.765157, 9.771422,1,1
1778779488290,   523.917,   523.912, 0.041961,-0.072559,-0.981466, 0.000438,-0.000721,-0.009830, 0.099097,-0.000873, 0.026970,1,-0.011840, 0.007241,-0.001483,1,-0.323372, 0.762166, 9.771639,1,1
1778779488313,   523.942,   523.937, 0.026684,-0.078698,-0.998464, 0.000304,-0.000787,-0.009990,-0.061215,-0.011914,-0.019750,1,-0.011965,-0.010183, 0.001654,1,-0.322574, 0.759481, 9.771873,1,1
1778779488339,   523.962,   523.962, 0.038146,-0.074328,-0.995288, 0.000389,-0.000756,-0.009982, 0.051227, 0.030441, 0.011428,1, 0.009081, 0.007617,-0.001788,1,-0.323103, 0.759630, 9.771845,1,1
1778779488360,   523.987,   523.982, 0.026465,-0.082479,-0.996238, 0.000258,-0.000817,-0.009930,-0.050202,-0.015221, 0.145139,1, 0.006410,-0.009399, 0.000450,1,-0.323099, 0.761964, 9.771663,1,1
1778779488383,   524.012,   524.007, 0.039870,-0.075103,-0.989853, 0.000412,-0.000756,-0.009911, 0.069555, 0.024574, 0.064642,1, 0.000223,-0.000162,-0.002079,1,-0.321437, 0.761086, 9.771787,1,1
1778779488409,   524.032,   524.032, 0.027481,-0.073215,-0.986363, 0.000268,-0.000710,-0.009834,-0.051148, 0.043495, 0.098868,1,-0.001200,-0.011849,-0.000029,1,-0.320280, 0.761455, 9.771795,1,1
1778779488430,   524.057,   524.052, 0.040921,-0.073251,-0.984231, 0.000382,-0.000744,-0.009862, 0.029817,-0.033012,-0.023326,1,-0.001660,-0.002651,-0.002408,1,-0.318697, 0.760760, 9.771901,1,1
1778779488453,   524.082,   524.077, 0.026717,-0.073858,-0.982041, 0.000275,-0.000742,-0.009794,-0.056077, 0.035743, 0.141450,1,-0.015192,-0.018433, 0.000090,1,-0.317512, 0.759568, 9.772033,1,1
1778779488479,   524.102,   524.102, 0.032536,-0.078674,-1.011519, 0.000297,-0.000802,-0.010131, 0.004465,-0.014615,-0.147283,1,-0.008983,-0.007158,-0.000458,1,-0.314382, 0.756631, 9.772362,1,1
1778779488500,   524.127,   524.122, 0.030368,-0.078838,-0.991505, 0.000330,-0.000769,-0.009914, 0.009426, 0.044021, 0.002986,1, 0.017887, 0.004941,-0.000199,1,-0.314920, 0.758824, 9.772175,1,1
1778779488527,   524.152,   524.152, 0.034562,-0.083541,-0.998657, 0.000353,-0.000839,-0.009992, 0.024905,-0.058415,-0.021434,1, 0.000391, 0.000116,-0.000298,1,-0.314036, 0.760855, 9.772045,1,1
1778779488549,   524.172,   524.172, 0.036741,-0.079033,-0.979167, 0.000391,-0.000789,-0.009781, 0.046093,-0.014664, 0.169725,1,-0.006609,-0.006634, 0.000972,1,-0.314003, 0.760177, 9.772099,1,1
1778779488570,   524.197,   524.192, 0.035159,-0.079853,-1.002186, 0.000349,-0.000817,-0.010039,-0.023436,-0.068100,-0.065408,1,-0.016003,-0.013967,-0.000803,1,-0.311006, 0.757246, 9.772422,1,1
1778779488597,   524.222,   524.222, 0.041999,-0.068922,-0.975875, 0.000413,-0.000696,-0.009757, 0.101653, 0.078879, 0.202570,1,-0.006520,-0.006684,-0.001830,1,-0.310011, 0.754571, 9.772661,1,1
1778779488619,   524.247,   524.242, 0.031299,-0.077012,-0.996752, 0.000307,-0.000791,-0.009993,-0.008825,-0.010084, 0.033045,1,-0.013567,-0.021211,-0.000468,1,-0.306329, 0.752250, 9.772956,1,1
1778779488640,   524.267,   524.262, 0.031486,-0.068938,-0.979892, 0.000324,-0.000693,-0.009823, 0.050463, 0.051982, 0.054141,1, 0.000984,-0.007584,-0.003836,1,-0.303974, 0.751062, 9.773121,1,1
1778779488667,   524.292,   524.292, 0.019895,-0.075523,-0.987955, 0.000255,-0.000756,-0.009882,-0.105310, 0.009849, 0.084747,1,-0.014990,-0.027675,-0.002260,1,-0.299560, 0.750012, 9.773337,1,1
1778779488689,   524.317,   524.312, 0.028425,-0.071971,-0.982268, 0.000305,-0.000714,-0.009831,-0.029320, 0.010347,-0.033096,1, 0.002140,-0.011027,-0.005134,1,-0.296304, 0.749431, 9.773481,1,1
1778779488711,   524.337,   524.332, 0.017552,-0.082969,-0.994558, 0.000204,-0.000828,-0.009916,-0.107311,-0.006705, 0.215793,1,-0.003882,-0.021822,-0.003090,1,-0.293407, 0.749581, 9.773558,1,1
1778779488738,   524.362,   524.362, 0.030763,-0.073684,-0.999353, 0.000293,-0.000729,-0.010019, 0.014743, 0.021650,-0.026146,1,-0.018918,-0.009822,-0.005984,1,-0.286651, 0.743648, 9.774211,1,1
1778779488759,   524.387,   524.382, 0.020622,-0.078557,-1.007147, 0.000191,-0.000761,-0.010032,-0.008592, 0.029254, 0.025394,1,-0.019920,-0.022147,-0.003932,1,-0.283469, 0.740093, 9.774573,1,1
1778779488781,   524.407,   524.402, 0.028741,-0.072596,-0.999636, 0.000280,-0.000712,-0.010024,-0.051068,-0.001587,-0.137612,1,-0.017229,-0.011276,-0.003839,1,-0.279822, 0.736062, 9.774983,1,1
1778779488808,   524.432,   524.432, 0.024373,-0.077877,-0.986257, 0.000256,-0.000785,-0.009863,-0.039905,-0.029312, 0.103258,1,-0.011413,-0.011659,-0.002150,1,-0.278569, 0.734040, 9.775171,1,1
1778779488829,   524.457,   524.452, 0.042033,-0.076722,-0.985156, 0.000456,-0.000752,-0.009883, 0.037835,-0.050941, 0.047409,1,-0.021453,-0.001309,-0.003008,1,-0.277091, 0.730001, 9.775516,1,1
1778779488851,   524.477,   524.472, 0.024811,-0.075711,-0.973437, 0.000309,-0.000774,-0.009731, 0.098658, 0.005321, 0.267642,1,-0.023267,-0.002841,-0.000848,1,-0.276400, 0.726011, 9.775832,1,1
1778779488878,   524.502,   524.502, 0.033137,-0.082913,-0.999690, 0.000338,-0.000790,-0.009955, 0.053688,-0.095835,-0.026990,1,-0.039443,-0.017325,-0.002557,1,-0.270745, 0.716036, 9.776726,1,1
1778779488899,   524.527,   524.522, 0.022276,-0.073351,-0.992107, 0.000247,-0.000726,-0.009895, 0.016382, 0.032305, 0.023792,1,-0.023388,-0.009961,-0.003302,1,-0.268047, 0.710033, 9.777238,1,1
1778779488921,   524.547,   524.542, 0.036373,-0.068268,-1.004409, 0.000354,-0.000672,-0.010041, 0.021943, 0.026025, 0.005819,1,-0.027529,-0.020628,-0.005062,1,-0.264606, 0.705332, 9.777672,1,1
1778779488948,   524.572,   524.572, 0.031970,-0.067664,-1.011945, 0.000294,-0.000665,-0.010109, 0.053543, 0.034272,-0.145458,1,-0.005422,-0.011676,-0.003478,1,-0.259625, 0.697660, 9.778357,1,1
1778779488969,   524.597,   524.592, 0.025740,-0.072069,-0.999604, 0.000066,-0.000764,-0.009957,-0.201213, 0.008663,-0.118416,1, 0.008043,-0.008810,-0.003421,1,-0.257225, 0.698612, 9.778352,1,1
1778779488991,   524.617,   524.612, 0.017300,-0.053754,-0.987794, 0.000143,-0.000539,-0.009893, 0.055550, 0.123356,-0.045604,1,-0.013362,-0.012107,-0.000659,1,-0.256454, 0.698331, 9.778392,1,1
1778779489018,   524.642,   524.642, 0.013524,-0.074470,-1.002323, 0.000178,-0.000752,-0.010013,-0.122957,-0.031383,-0.051061,1, 0.003713,-0.012945,-0.000477,1,-0.255181, 0.699034, 9.778375,1,1
1778779489040,   524.667,   524.662, 0.018830,-0.070200,-0.974639, 0.000202,-0.000688,-0.009780,-0.076924, 0.021944,-0.002776,1, 0.017851, 0.013596,-0.004123,1,-0.256156, 0.700778, 9.778225,1,1
1778779489062,   524.687,   524.687, 0.022832,-0.079102,-0.991054, 0.000208,-0.000795,-0.009876,-0.033270,-0.073131, 0.059146,1,-0.011873,-0.003714,-0.003981,1,-0.257066, 0.702220, 9.778097,1,1
1778779489088,   524.712,   524.712, 0.042581,-0.069363,-0.983263, 0.000415,-0.000687,-0.009845, 0.158976, 0.019973, 0.135682,1,-0.007843, 0.013997,-0.003283,1,-0.259046, 0.699947, 9.778208,1,1
1778779489110,   524.737,   524.732, 0.028798,-0.075830,-1.004425, 0.000257,-0.000766,-0.010024, 0.015299,-0.040076, 0.099548,1,-0.016355,-0.010387,-0.001200,1,-0.258775, 0.697850, 9.778365,1,1
1778779489132,   524.757,   524.757, 0.052093,-0.075156,-0.985649, 0.000550,-0.000797,-0.009842, 0.251050,-0.044509, 0.112803,1,-0.020143,-0.002436,-0.003177,1,-0.259740, 0.691894, 9.778763,1,1
1778779489158,   524.782,   524.782, 0.023953,-0.067227,-0.992292, 0.000255,-0.000665,-0.009929,-0.023793, 0.028823, 0.047995,1,-0.022567,-0.007609, 0.000676,1,-0.258451, 0.687392, 9.779115,1,1
1778779489180,   524.807,   524.802, 0.016135,-0.053094,-1.015038, 0.000147,-0.000570,-0.010186, 0.252650,-0.161150,-0.132484,1,-0.033263,-0.013094,-0.001450,1,-0.257464, 0.681681, 9.779540,1,1
1778779489202,   524.827,   524.827, 0.026824,-0.072630,-0.986266, 0.000288,-0.000739,-0.009862, 0.003961,-0.031229, 0.107577,1, 0.004627, 0.002523, 0.002245,1,-0.259166, 0.681174, 9.779531,1,1
1778779489228,   524.852,   524.852, 0.024694,-0.071838,-1.012435, 0.000268,-0.000716,-0.010123,-0.015835,-0.024126,-0.148981,1, 0.001011,-0.001890, 0.000652,1,-0.257938, 0.680397, 9.779617,1,1
1778779489250,   524.877,   524.872, 0.018851,-0.074511,-0.985149, 0.000171,-0.000728,-0.009781,-0.123569, 0.006333, 0.219799,1, 0.019413, 0.003308, 0.001092,1,-0.260801, 0.684466, 9.779257,1,1
1778779489273,   524.897,   524.897, 0.031444,-0.061485,-1.009754, 0.000291,-0.000615,-0.010121, 0.050057, 0.080728,-0.122929,1, 0.003351, 0.003437, 0.001269,1,-0.258410, 0.683798, 9.779367,1,1
1778779489298,   524.922,   524.922, 0.031602,-0.064252,-0.978395, 0.000319,-0.000632,-0.009768, 0.050128, 0.057459, 0.184292,1, 0.024982,-0.000914, 0.001184,1,-0.259750, 0.688332, 9.779014,1,1
1778779489320,   524.947,   524.942, 0.029949,-0.076548,-0.990222, 0.000247,-0.000761,-0.009912,-0.136373, 0.046458,-0.005831,1, 0.011539,-0.002272, 0.001695,1,-0.258191, 0.691036, 9.778865,1,1
1778779489343,   524.967,   524.967, 0.041977,-0.062489,-0.984222, 0.000290,-0.000701,-0.009791, 0.151874, 0.082386, 0.126602,1, 0.013297, 0.004506,-0.004762,1,-0.259933, 0.695602, 9.778495,1,1
1778779489368,   524.992,   524.992, 0.028914,-0.065002,-0.996268, 0.000310,-0.000638,-0.009944, 0.025096, 0.057501, 0.008526,1, 0.002593,-0.005459, 0.001132,1,-0.258284, 0.695037, 9.778579,1,1
1778779489390,   525.017,   525.012, 0.016739,-0.068948,-0.985560, 0.000165,-0.000672,-0.009851,-0.038989, 0.019680, 0.043054,1, 0.016688,-0.006057,-0.000221,1,-0.258204, 0.698528, 9.778332,1,1
1778779489413,   525.042,   525.037, 0.022202,-0.085317,-0.994499, 0.000221,-0.000854,-0.009926,-0.040052,-0.136114, 0.025497,1,-0.008807,-0.008377,-0.001702,1,-0.257519, 0.700281, 9.778225,1,1
1778779489438,   525.062,   525.062, 0.036244,-0.067929,-0.988520, 0.000425,-0.000664,-0.009900, 0.098021, 0.032202, 0.084291,1,-0.011377,-0.003144,-0.000045,1,-0.257318, 0.698002, 9.778393,1,1
1778779489460,   525.087,   525.082, 0.014994,-0.068127,-1.014528, 0.000129,-0.000692,-0.010131,-0.054121,-0.043491,-0.019363,1,-0.029832,-0.024704, 0.001268,1,-0.255400, 0.693916, 9.778734,1,1
1778779489483,   525.112,   525.107, 0.051104,-0.077546,-0.990909, 0.000628,-0.000739,-0.009911, 0.245828,-0.072428, 0.061652,1,-0.027722,-0.013727, 0.001496,1,-0.254903, 0.687178, 9.779222,1,1
1778779489509,   525.132,   525.132, 0.011340,-0.068734,-0.987860, 0.000084,-0.000654,-0.009903,-0.142276, 0.008449, 0.091988,1,-0.011370, 0.002859, 0.000365,1,-0.253569, 0.682147, 9.779610,1,1
1778779489530,   525.157,   525.152, 0.021095,-0.067861,-0.994678, 0.000199,-0.000672,-0.009959,-0.059829,-0.046638,-0.068702,1,-0.021563,-0.001729,-0.003864,1,-0.252559, 0.679137, 9.779845,1,1
1778779489553,   525.182,   525.177, 0.023367,-0.067424,-0.981614, 0.000249,-0.000672,-0.009804,-0.024712, 0.015110, 0.153662,1,-0.015576,-0.004256,-0.002446,1,-0.253732, 0.675831, 9.780044,1,1
1778779489579,   525.202,   525.202, 0.025133,-0.073833,-0.997047, 0.000241,-0.000446,-0.010007,-0.006042,-0.052271, 0.002667,1,-0.025965, 0.001775, 0.002206,1,-0.252565, 0.670976, 9.780408,1,1
1778779489600,   525.227,   525.222, 0.013157,-0.072301,-0.991336, 0.000135,-0.000687,-0.009980,-0.158808, 0.124225,-0.251274,1, 0.023645, 0.002446, 0.000497,1,-0.250901, 0.670766, 9.780465,1,1
1778779489623,   525.252,   525.247, 0.038218,-0.071513,-0.977555, 0.000360,-0.000735,-0.009723, 0.121436,-0.025619, 0.193526,1,-0.013525,-0.012235,-0.004178,1,-0.252979, 0.675258, 9.780103,1,1
1778779489649,   525.272,   525.272, 0.033592,-0.066400,-0.984913, 0.000331,-0.000651,-0.009870, 0.077225, 0.023498, 0.121462,1, 0.000369, 0.001781,-0.002221,1,-0.252210, 0.674751, 9.780158,1,1
1778779489670,   525.297,   525.292, 0.032192,-0.058735,-1.015332, 0.000306,-0.000596,-0.010165,-0.002966, 0.064650,-0.060040,1,-0.027303,-0.017255,-0.001241,1,-0.249580, 0.671220, 9.780468,1,1
1778779489693,   525.322,   525.317, 0.026963,-0.062954,-0.983536, 0.000288,-0.000628,-0.009860, 0.014738, 0.054130, 0.135250,1, 0.015098, 0.004200, 0.000997,1,-0.249808, 0.671966, 9.780411,1,1
1778779489719,   525.342,   525.342, 0.019435,-0.069284,-1.010807, 0.000188,-0.000702,-0.010102,-0.057525,-0.007571,-0.132169,1,-0.007202,-0.008178, 0.000916,1,-0.247860, 0.671647, 9.780482,1,1
1778779489740,   525.367,   525.362, 0.021428,-0.065919,-0.979419, 0.000252,-0.000651,-0.009789, 0.052917, 0.051829, 0.111557,1, 0.007592, 0.009930, 0.000225,1,-0.249031, 0.672100, 9.780421,1,1
1778779489767,   525.392,   525.392, 0.013581,-0.073113,-1.008583, 0.000125,-0.000717,-0.010070,-0.114246,-0.045333,-0.110330,1,-0.010546,-0.005855, 0.002154,1,-0.247242, 0.671330, 9.780520,1,1
1778779489789,   525.412,   525.412, 0.032036,-0.063968,-0.991102, 0.000319,-0.000632,-0.009910, 0.066104, 0.043326, 0.061154,1, 0.001768, 0.005613, 0.000725,1,-0.248235, 0.670690, 9.780539,1,1
1778779489810,   525.437,   525.432, 0.025509,-0.063269,-0.992308, 0.000070,-0.000795,-0.009843,-0.126750,-0.030393,-0.042348,1,-0.003428,-0.009775, 0.003312,1,-0.247330, 0.670541, 9.780572,1,1
1778779489837,   525.462,   525.462, 0.043886,-0.062752,-0.986436, 0.000527,-0.000685,-0.009866, 0.182657, 0.051571, 0.107173,1,-0.023150,-0.008941, 0.003597,1,-0.247434, 0.666241, 9.780863,1,1
1778779489859,   525.487,   525.482, 0.016328,-0.071937,-1.001987, 0.000138,-0.000753,-0.010025,-0.020757,-0.028510, 0.037721,1, 0.001176,-0.011820, 0.003130,1,-0.246674, 0.664872, 9.780975,1,1
1778779489880,   525.507,   525.502, 0.021430,-0.068762,-0.997751, 0.000257,-0.000685,-0.010036,-0.078271,-0.010257,-0.145132,1,-0.005900,-0.001624, 0.001098,1,-0.244489, 0.662907, 9.781164,1,1
1778779489907,   525.532,   525.532, 0.030448,-0.073276,-0.982229, 0.000409,-0.000699,-0.009804, 0.051571,-0.053687, 0.148591,1,-0.016139,-0.011878, 0.005410,1,-0.246640, 0.664407, 9.781008,1,1
1778779489929,   525.557,   525.552, 0.019600,-0.080951,-0.988810, 0.000298,-0.000789,-0.009902,-0.013032,-0.062732, 0.066717,1,-0.000718, 0.007691,-0.001351,1,-0.245723, 0.662071, 9.781189,1,1
1778779489951,   525.577,   525.572, 0.013507,-0.075023,-0.997357, 0.000118,-0.000730,-0.009959,-0.096124,-0.026638, 0.067396,1,-0.012120,-0.010803,-0.001821,1,-0.244523, 0.661082, 9.781286,1,1
1778779489978,   525.602,   525.602, 0.029351,-0.075453,-0.995378, 0.000293,-0.000767,-0.009950, 0.044473,-0.083011, 0.020270,1,-0.007520,-0.001618,-0.006909,1,-0.243327, 0.656694, 9.781611,1,1
1778779489999,   525.627,   525.622, 0.004477,-0.036483,-0.988235, 0.000078,-0.000448,-0.009859,-0.004808,-0.016262, 0.177228,1,-0.012627,-0.004962,-0.004244,1,-0.243602, 0.655346, 9.781695,1,1
1778779490021,   525.647,   525.642, 0.017976,-0.048482,-1.018594, 0.000181,-0.000568,-0.010210, 0.319336,-0.163827,-0.025096,1,-0.034127,-0.008476,-0.005592,1,-0.242470, 0.649364, 9.782123,1,1
1778779490048,   525.672,   525.672, 0.027562,-0.063132,-0.971477, 0.000296,-0.000652,-0.009722, 0.028303, 0.030414, 0.255192,1, 0.006910,-0.000188, 0.001215,1,-0.241930, 0.649854, 9.782104,1,1
1778779490069,   525.697,   525.692, 0.023814,-0.058235,-1.011688, 0.000239,-0.000601,-0.010183,-0.128455, 0.025580, 0.040540,1,-0.011782,-0.018257, 0.001738,1,-0.240077, 0.648930, 9.782210,1,1
1778779490091,   525.717,   525.712, 0.022178,-0.061857,-0.981031, 0.000248,-0.000599,-0.009809, 0.044565, 0.097545, 0.055084,1, 0.022587, 0.019513,-0.000228,1,-0.242084, 0.650789, 9.782038,1,1
1778779490118,   525.742,   525.742, 0.024437,-0.065849,-1.016421, 0.000183,-0.000654,-0.010143,-0.002339, 0.008754,-0.185898,1, 0.010784, 0.007480, 0.000468,1,-0.242220, 0.654847, 9.781763,1,1
1778779490139,   525.767,   525.762, 0.027650,-0.056819,-0.986148, 0.000255,-0.000551,-0.009822, 0.141213, 0.025546, 0.146638,1, 0.010154, 0.006940, 0.000840,1,-0.245057, 0.657513, 9.781513,1,1
1778779490161,   525.787,   525.782, 0.024690,-0.070456,-1.007418, 0.000223,-0.000698,-0.010068, 0.000996, 0.040363,-0.030359,1,-0.002282,-0.006376, 0.002454,1,-0.244431, 0.657688, 9.781517,1,1
1778779490188,   525.812,   525.812, 0.028134,-0.061212,-0.991912, 0.000269,-0.000617,-0.009919, 0.030298, 0.057452, 0.054153,1, 0.008742, 0.009216,-0.001098,1,-0.245894, 0.658008, 9.781459,1,1
1778779490209,   525.837,   525.832, 0.027604,-0.069660,-0.992488, 0.000256,-0.000707,-0.009930,-0.018986,-0.014021, 0.082698,1, 0.005863,-0.000214, 0.000378,1,-0.246511, 0.659755, 9.781326,1,1
1778779490231,   525.857,   525.852, 0.033280,-0.071749,-0.975603, 0.000319,-0.000727,-0.009771, 0.047052, 0.054072, 0.106395,1,-0.001626, 0.006687, 0.000229,1,-0.247108, 0.659520, 9.781327,1,1
1778779490258,   525.882,   525.882, 0.017224,-0.074981,-0.983443, 0.000207,-0.000741,-0.009847,-0.078893,-0.076389, 0.137068,1,-0.008379,-0.005550, 0.002252,1,-0.247626, 0.658658, 9.781372,1,1
1778779490279,   525.907,   525.902, 0.016493,-0.069807,-0.990220, 0.000242,-0.000692,-0.009908, 0.033744,-0.030889, 0.093798,1,-0.017959, 0.003430,-0.001560,1,-0.247309, 0.655203, 9.781611,1,1
1778779490302,   525.927,   525.927, 0.015586,-0.077272,-0.993929, 0.000149,-0.000763,-0.009908,-0.094187,-0.103598, 0.034570,1,-0.005649,-0.002657, 0.000428,1,-0.246947, 0.654008, 9.781701,1,1
1778779490328,   525.952,   525.952, 0.032285,-0.069112,-1.002306, 0.000311,-0.000693,-0.010014, 0.069804,-0.026555,-0.047374,1,-0.014239, 0.002308,-0.001800,1,-0.246877, 0.650759, 9.781919,1,1
1778779490350,   525.977,   525.972, 0.016785,-0.069990,-0.996423, 0.000157,-0.000688,-0.009918, 0.002078, 0.011451, 0.127089,1,-0.006882,-0.001488, 0.000318,1,-0.247791, 0.649565, 9.781976,1,1
1778779490372,   525.997,   525.997, 0.024719,-0.064647,-1.010127, 0.000234,-0.000657,-0.010119,-0.003681, 0.011050,-0.123644,1,-0.009555, 0.004285,-0.001179,1,-0.246232, 0.644722, 9.782335,1,1
1778779490398,   526.022,   526.022, 0.025368,-0.064280,-0.990153, 0.000258,-0.000653,-0.009890, 0.001281, 0.014316, 0.072223,1,-0.002316, 0.001717,-0.000815,1,-0.247547, 0.644618, 9.782310,1,1
1778779490420,   526.047,   526.042, 0.031238,-0.056559,-0.993249, 0.000322,-0.000587,-0.009982, 0.018804, 0.012688,-0.087052,1,-0.002588, 0.007444,-0.003010,1,-0.247906, 0.643379, 9.782382,1,1
1778779490442,   526.067,   526.067, 0.023969,-0.056691,-0.981930, 0.000268,-0.000557,-0.009812,-0.014634, 0.089915, 0.152726,1, 0.002494,-0.003405, 0.001012,1,-0.249510, 0.646017, 9.782167,1,1
1778779490468,   526.092,   526.092, 0.030804,-0.062227,-1.008989, 0.000312,-0.000620,-0.010101, 0.053507, 0.035328,-0.112579,1, 0.000706, 0.000099, 0.000457,1,-0.248580, 0.645588, 9.782219,1,1
1778779490490,   526.117,   526.112, 0.019547,-0.064334,-0.981791, 0.000215,-0.000628,-0.009786, 0.066357, 0.036208, 0.184018,1, 0.019162, 0.004912,-0.001005,1,-0.250123, 0.648945, 9.781958,1,1
1778779490512,   526.137,   526.137, 0.024931,-0.068332,-0.998399, 0.000223,-0.000679,-0.009973,-0.004854,-0.019881,-0.009054,1, 0.000353, 0.000413,-0.001828,1,-0.249360, 0.650237, 9.781891,1,1
1778779490538,   526.162,   526.162, 0.031970,-0.061350,-0.988834, 0.000315,-0.000620,-0.009877, 0.063703, 0.049443, 0.084672,1, 0.007745, 0.000780,-0.001556,1,-0.249839, 0.651319, 9.781807,1,1
1778779490560,   526.187,   526.182, 0.030922,-0.070713,-0.996935, 0.000284,-0.000711,-0.009984,-0.010437,-0.009691,-0.023460,1, 0.004068,-0.001170, 0.000172,1,-0.249351, 0.652519, 9.781739,1,1
1778779490583,   526.207,   526.207, 0.023644,-0.070042,-0.974162, 0.000257,-0.000703,-0.009767,-0.018547,-0.031713, 0.228267,1, 0.015965, 0.004164,-0.000602,1,-0.250544, 0.655664, 9.781499,1,1
1778779490608,   526.232,   526.232, 0.008582,-0.077916,-0.992323, 0.000097,-0.000786,-0.009907,-0.165097,-0.108450, 0.050166,1,-0.014946,-0.012097,-0.000536,1,-0.248879, 0.655182, 9.781573,1,1
1778779490630,   526.257,   526.252, 0.031028,-0.058690,-0.997880, 0.000330,-0.000582,-0.009992, 0.045938, 0.015171,-0.063454,1,-0.021979,-0.001747,-0.002046,1,-0.247755, 0.650395, 9.781921,1,1
1778779490653,   526.282,   526.277, 0.021074,-0.068390,-0.999592, 0.000215,-0.000672,-0.009980,-0.041236,-0.021021,-0.020680,1,-0.000514,-0.004748, 0.000624,1,-0.247754, 0.649644, 9.781971,1,1
1778779490678,   526.302,   526.302, 0.032413,-0.069333,-0.990582, 0.000315,-0.000691,-0.009908, 0.069891,-0.030067, 0.067656,1, 0.005654, 0.003301, 0.000254,1,-0.248069, 0.650036, 9.781938,1,1
1778779490700,   526.327,   526.322, 0.018361,-0.069660,-1.001024, 0.000166,-0.000707,-0.009981,-0.064636,-0.033690, 0.113903,1,-0.003285,-0.010738, 0.001570,1,-0.247318, 0.650631, 9.781917,1,1
1778779490723,   526.352,   526.347, 0.041492,-0.057702,-1.002186, 0.000392,-0.000596,-0.010047, 0.161712, 0.081049,-0.045871,1,-0.002730, 0.007001,-0.002484,1,-0.245412, 0.646826, 9.782217,1,1
1778779490749,   526.372,   526.372, 0.024297,-0.061248,-0.982442, 0.000264,-0.000608,-0.009816,-0.007497, 0.048065, 0.147615,1, 0.011055,-0.006151, 0.000535,1,-0.245581, 0.649046, 9.782066,1,1
1778779490770,   526.397,   526.392, 0.027501,-0.065692,-0.986819, 0.000274,-0.000664,-0.009906,-0.064664,-0.020652,-0.038315,1, 0.003942,-0.003245, 0.000261,1,-0.243833, 0.650088, 9.782041,1,1
1778779490793,   526.422,   526.417, 0.019392,-0.062525,-0.980851, 0.000229,-0.000617,-0.009798,-0.053020, 0.039059, 0.163047,1,-0.000645,-0.013037, 0.000916,1,-0.242785, 0.652204, 9.781925,1,1
1778779490819,   526.442,   526.442, 0.025640,-0.065623,-1.008717, 0.000254,-0.000660,-0.010088, 0.010728, 0.006836,-0.110034,1,-0.010245,-0.007741,-0.000829,1,-0.240471, 0.650057, 9.782125,1,1
1778779490840,   526.467,   526.462, 0.015922,-0.063745,-0.989013, 0.000167,-0.000619,-0.009855, 0.023846, 0.058754, 0.104987,1, 0.010813,-0.000203,-0.000119,1,-0.240818, 0.651146, 9.782044,1,1
1778779490863,   526.492,   526.487, 0.021069,-0.074148,-1.006598, 0.000170,-0.000742,-0.010055,-0.032090,-0.075994,-0.089255,1, 0.001007,-0.004493, 0.000682,1,-0.238562, 0.651181, 9.782098,1,1
1778779490889,   526.512,   526.512, 0.038171,-0.066267,-0.977964, 0.000369,-0.000671,-0.009788, 0.135057, 0.002256, 0.191470,1, 0.002643, 0.002285,-0.000211,1,-0.239347, 0.652192, 9.782011,1,1
1778779490910,   526.537,   526.532, 0.023716,-0.066853,-0.999503, 0.000222,-0.000668,-0.010013,-0.022463, 0.020271, 0.015448,1,-0.017004,-0.011352, 0.001868,1,-0.237286, 0.649770, 9.782223,1,1
1778779490933,   526.562,   526.557, 0.020291,-0.063741,-0.990943, 0.000225,-0.000651,-0.009925,-0.037242, 0.021827, 0.064603,1,-0.005357,-0.003878, 0.001075,1,-0.236109, 0.646746, 9.782452,1,1
1778779490959,   526.582,   526.582, 0.011634,-0.065180,-1.000894, 0.000118,-0.000664,-0.010033,-0.120749, 0.006882,-0.032888,1,-0.006558,-0.006060, 0.001623,1,-0.234651, 0.645877, 9.782544,1,1
1778779490980,   526.607,   526.602, 0.026177,-0.054914,-1.011504, 0.000404,-0.000615,-0.010098, 0.785175,-0.036370,-0.117595,1,-0.021487, 0.008282,-0.013955,1,-0.236596, 0.643585, 9.782648,1,1
1778779491007,   526.632,   526.632, 0.045547,-0.076963,-0.985878, 0.000394,-0.000761,-0.009780, 0.210689,-0.115925, 0.114810,1, 0.006985,-0.005720, 0.001550,1,-0.235792, 0.639043, 9.782966,1,1
1778779491029,   526.652,   526.652, 0.012811,-0.063955,-1.027037, 0.000113,-0.000599,-0.010244,-0.107344, 0.009601,-0.288610,1,-0.003609,-0.002635, 0.000476,1,-0.232896, 0.636675, 9.783189,1,1
1778779491050,   526.677,   526.672, 0.025171,-0.069090,-0.982734, 0.000252,-0.000692,-0.009802,-0.013723, 0.006393, 0.150176,1, 0.018706, 0.017781,-0.000497,1,-0.235994, 0.640245, 9.782882,1,1
1778779491077,   526.702,   526.702, 0.030827,-0.062776,-0.993600, 0.000282,-0.000637,-0.009974, 0.065459, 0.024116, 0.039002,1, 0.002290, 0.016429,-0.001358,1,-0.237367, 0.639812, 9.782877,1,1
1778779491099,   526.727,   526.722, 0.015363,-0.063545,-0.999769, 0.000152,-0.000644,-0.009968,-0.031553, 0.042407, 0.260898,1,-0.007207,-0.001725, 0.000151,1,-0.239115, 0.640079, 9.782817,1,1
1778779491121,   526.747,   526.742, 0.029685,-0.064047,-0.996032, 0.000299,-0.000647,-0.010032,-0.039645, 0.017917,-0.179956,1,-0.004520, 0.001482, 0.000546,1,-0.237622, 0.637680, 9.783010,1,1
1778779491147,   526.772,   526.772, 0.029709,-0.065033,-0.973309, 0.000308,-0.000650,-0.009762, 0.050491, 0.004454, 0.237731,1, 0.011354, 0.001513, 0.000450,1,-0.240896, 0.642561, 9.782611,1,1
1778779491169,   526.797,   526.792, 0.024985,-0.059838,-0.995946, 0.000279,-0.000608,-0.009957, 0.019892,-0.007071, 0.045786,1,-0.010649,-0.005065, 0.000424,1,-0.239889, 0.641250, 9.782722,1,1
1778779491191,   526.817,   526.812, 0.009440,-0.064588,-0.999214, 0.000172,-0.000639,-0.009973,-0.042899, 0.005611, 0.055455,1, 0.009630, 0.004021,-0.001526,1,-0.240068, 0.641614, 9.782693,1,1
1778779491218,   526.842,   526.842, 0.024260,-0.067304,-1.007641, 0.000218,-0.000683,-0.010075,-0.000712,-0.017030,-0.098945,1, 0.002097, 0.002406,-0.000735,1,-0.238696, 0.643059, 9.782632,1,1
1778779491239,   526.867,   526.862, 0.023229,-0.065676,-0.985609, 0.000219,-0.000652,-0.009849, 0.101849, 0.049915, 0.092384,1, 0.015868, 0.008975,-0.001511,1,-0.240475, 0.645456, 9.782431,1,1
1778779491261,   526.887,   526.882, 0.024106,-0.071856,-1.003912, 0.000217,-0.000732,-0.010048,-0.072098,-0.038971, 0.002997,1, 0.001151,-0.004237,-0.000044,1,-0.240483, 0.646856, 9.782337,1,1
1778779491288,   526.912,   526.912, 0.028598,-0.063894,-0.987137, 0.000293,-0.000647,-0.009905, 0.038651, 0.020418, 0.101784,1, 0.004297, 0.007967,-0.001242,1,-0.242050, 0.647141, 9.782280,1,1
1778779491309,   526.937,   526.932, 0.027412,-0.068690,-0.991731, 0.000290,-0.000688,-0.009948,-0.023909,-0.003748, 0.041307,1,-0.011014,-0.000470,-0.001349,1,-0.242088, 0.646035, 9.782352,1,1
1778779491331,   526.957,   526.952, 0.024184,-0.063471,-0.974354, 0.000279,-0.000633,-0.009750, 0.043576, 0.018562, 0.171303,1,-0.008068, 0.008828,-0.002219,1,-0.243274, 0.644156, 9.782447,1,1
1778779491358,   526.982,   526.982, 0.016690,-0.067461,-0.997974, 0.000159,-0.000666,-0.009955,-0.078955,-0.021586,-0.004045,1,-0.022422,-0.006834,-0.001924,1,-0.242414, 0.639283, 9.782787,1,1
1778779491379,   527.007,   527.002, 0.027241,-0.055588,-0.982135, 0.000280,-0.000543,-0.009810, 0.060803, 0.076911, 0.071681,1,-0.010732, 0.002340,-0.002229,1,-0.242703, 0.636008, 9.782994,1,1
1778779491401,   527.027,   527.022, 0.021654,-0.067573,-1.001921, 0.000180,-0.000675,-0.009989,-0.044495, 0.005597, 0.089368,1,-0.007110,-0.010486, 0.001779,1,-0.241761, 0.634906, 9.783089,1,1
1778779491428,   527.052,   527.052, 0.037581,-0.057198,-0.990425, 0.000345,-0.000580,-0.009906, 0.128734, 0.071570, 0.070538,1,-0.000369, 0.000752,-0.000967,1,-0.239836, 0.632478, 9.783294,1,1
1778779491449,   527.077,   527.072, 0.017051,-0.066407,-1.008798, 0.000148,-0.000664,-0.010068,-0.037046, 0.040386, 0.085294,1,-0.005305,-0.016561, 0.001931,1,-0.238178, 0.632208, 9.783352,1,1
1778779491471,   527.097,   527.092, 0.024870,-0.063717,-0.998707, 0.000261,-0.000648,-0.010052, 0.009127,-0.028230,-0.155129,1,-0.000662,-0.005226,-0.000521,1,-0.235449, 0.630786, 9.783509,1,1
1778779491498,   527.122,   527.122, 0.016612,-0.074165,-0.986165, 0.000187,-0.000756,-0.009880,-0.073255,-0.091346, 0.112183,1, 0.015519,-0.006920,-0.004213,1,-0.235955, 0.636448, 9.783131,1,1
1778779491519,   527.147,   527.142, 0.041108,-0.063553,-0.978838, 0.000432,-0.000646,-0.009813, 0.106347,-0.068276, 0.064762,1,-0.010808, 0.000064,-0.004843,1,-0.235271, 0.635723, 9.783195,1,1
1778779491542,   527.167,   527.167, 0.023367,-0.057261,-0.990315, 0.000260,-0.000569,-0.009880,-0.003641, 0.070595, 0.071815,1,-0.014656,-0.021793, 0.001247,1,-0.232110, 0.631676, 9.783532,1,1
1778779491568,   527.192,   527.192, 0.024113,-0.066540,-1.007401, 0.000219,-0.000686,-0.010068, 0.007649,-0.021859,-0.095557,1,-0.003421,-0.018247, 0.000698,1,-0.228246, 0.630566, 9.783694,1,1
1778779491590,   527.217,   527.212, 0.024458,-0.064513,-0.988791, 0.000226,-0.000652,-0.009906,-0.043757, 0.015328, 0.033524,1, 0.017848,-0.007168, 0.000632,1,-0.226505, 0.632787, 9.783591,1,1
1778779491612,   527.237,   527.237, 0.026581,-0.064858,-0.988756, 0.000268,-0.000672,-0.009903, 0.036493, 0.000146, 0.087038,1,-0.003470,-0.014530,-0.001369,1,-0.223732, 0.636080, 9.783442,1,1
1778779491638,   527.262,   527.262, 0.017661,-0.059932,-0.984122, 0.000182,-0.000602,-0.009851,-0.048770, 0.048623, 0.132527,1, 0.004480,-0.011749,-0.000134,1,-0.221595, 0.636499, 9.783463,1,1
1778779491660,   527.287,   527.282, 0.013378,-0.064885,-1.024394, 0.000131,-0.000670,-0.010257,-0.109229,-0.027807,-0.120394,1,-0.014012,-0.021992, 0.000487,1,-0.217964, 0.635525, 9.783607,1,1
1778779491682,   527.307,   527.307, 0.019443,-0.057723,-0.994273, 0.000201,-0.000572,-0.009977,-0.027223, 0.070265, 0.033070,1, 0.021358, 0.011276,-0.001148,1,-0.218248, 0.637002, 9.783505,1,1
1778779491708,   527.332,   527.332, 0.021540,-0.071136,-0.993026, 0.000221,-0.000706,-0.009915,-0.007117,-0.058832, 0.045133,1, 0.001920,-0.003994,-0.001723,1,-0.218234, 0.638836, 9.783386,1,1
1778779491730,   527.357,   527.352, 0.012891,-0.064988,-0.977351, 0.000140,-0.000630,-0.009741, 0.005748, 0.024423, 0.150063,1, 0.005330, 0.006222,-0.001312,1,-0.219059, 0.639431, 9.783329,1,1
1778779491753,   527.377,   527.377, 0.018235,-0.067346,-1.023275, 0.000152,-0.000664,-0.010212,-0.038379,-0.022580,-0.251428,1,-0.006773,-0.004973,-0.001034,1,-0.217050, 0.637647, 9.783490,1,1
1778779491778,   527.402,   527.402, 0.037751,-0.064099,-0.980367, 0.000362,-0.000637,-0.009830, 0.150720, 0.011085, 0.169189,1, 0.019304, 0.016393,-0.002223,1,-0.220003, 0.640284, 9.783252,1,1
1778779491800,   527.427,   527.422, 0.017972,-0.066607,-0.999582, 0.000152,-0.000675,-0.009997,-0.037586,-0.013693, 0.143310,1,-0.010036,-0.008953, 0.000173,1,-0.219649, 0.640123, 9.783271,1,1
1778779491823,   527.447,   527.447, 0.026255,-0.062015,-0.985246, 0.000257,-0.000633,-0.009871, 0.038213, 0.029593, 0.121468,1,-0.002993, 0.001523,-0.001570,1,-0.219311, 0.637659, 9.783439,1,1
1778779491848,   527.472,   527.472, 0.016569,-0.062598,-1.004585, 0.000174,-0.000635,-0.010051,-0.055202, 0.022893,-0.068079,1,-0.004990,-0.004209, 0.000544,1,-0.217444, 0.636612, 9.783548,1,1
1778779491870,   527.497,   527.492, 0.030297,-0.064146,-0.979709, 0.000330,-0.000638,-0.009817, 0.089505, 0.010022, 0.049341,1, 0.004646, 0.009838,-0.001991,1,-0.218718, 0.637008, 9.783495,1,1
1778779491893,   527.522,   527.517, 0.012713,-0.070258,-0.992102, 0.000142,-0.000688,-0.009897,-0.094254,-0.051036, 0.054226,1,-0.004506,-0.008201, 0.001938,1,-0.218666, 0.637825, 9.783442,1,1
1778779491918,   527.542,   527.542, 0.024619,-0.069365,-1.008180, 0.000241,-0.000694,-0.010072, 0.023408,-0.043996,-0.103304,1,-0.007415,-0.000290,-0.000587,1,-0.218016, 0.636008, 9.783575,1,1
1778779491940,   527.567,   527.562, 0.017751,-0.066602,-0.997600, 0.000167,-0.000652,-0.009949,-0.005117, 0.024742, 0.011840,1, 0.005954, 0.002655,-0.000111,1,-0.218870, 0.636521, 9.783523,1,1
1778779491963,   527.592,   527.587, 0.027693,-0.065192,-0.991810, 0.000258,-0.000664,-0.009929, 0.052097,-0.001925, 0.057122,1, 0.005625, 0.006228,-0.002595,1,-0.219675, 0.637566, 9.783437,1,1
1778779491989,   527.612,   527.612, 0.018541,-0.061888,-0.975534, 0.000185,-0.000618,-0.009740,-0.038065, 0.031574, 0.216654,1, 0.000251,-0.007248,-0.000085,1,-0.219665, 0.638493, 9.783377,1,1
1778779492010,   527.637,   527.632, 0.028457,-0.056139,-1.003339, 0.000275,-0.000579,-0.010083,-0.031871, 0.046014,-0.141137,1,-0.011464,-0.008154,-0.000552,1,-0.216930, 0.636267, 9.783583,1,1
1778779492033,   527.662,   527.657, 0.021862,-0.058748,-0.983050, 0.000247,-0.000585,-0.009835,-0.003164, 0.061449, 0.143052,1, 0.007399,-0.002896, 0.001872,1,-0.217460, 0.637806, 9.783471,1,1
1778779492059,   527.682,   527.682, 0.017149,-0.071034,-1.002353, 0.000168,-0.000709,-0.010036,-0.048611,-0.058290,-0.046272,1, 0.004274, 0.000986, 0.001529,1,-0.216811, 0.638451, 9.783443,1,1
1778779492080,   527.707,   527.702, 0.017312,-0.067061,-0.987199, 0.000184,-0.000647,-0.009834, 0.017446,-0.013728, 0.149114,1, 0.011234, 0.002526,-0.000749,1,-0.217923, 0.640476, 9.783286,1,1
1778779492103,   527.732,   527.727, 0.024499,-0.068843,-1.007378, 0.000230,-0.000677,-0.010057, 0.023067,-0.034138,-0.095732,1,-0.002412, 0.001174,-0.001458,1,-0.217225, 0.640905, 9.783274,1,1
1778779492129,   527.752,   527.752, 0.031258,-0.065624,-0.986895, 0.000315,-0.000638,-0.009854, 0.088062,-0.001818, 0.105053,1, 0.009499, 0.004950,-0.003043,1,-0.218636, 0.642029, 9.783168,1,1
1778779492150,   527.777,   527.772, 0.020353,-0.069359,-1.000151, 0.000171,-0.000694,-0.009992,-0.067004,-0.027514, 0.028052,1,-0.002574,-0.003863,-0.001174,1,-0.218327, 0.642370, 9.783153,1,1
1778779492173,   527.802,   527.797, 0.026820,-0.064433,-0.991899, 0.000266,-0.000651,-0.009928, 0.044225, 0.008978, 0.056035,1,-0.002418, 0.004199,-0.000715,1,-0.218918, 0.640772, 9.783244,1,1
1778779492199,   527.822,   527.822, 0.016972,-0.068146,-0.997989, 0.000168,-0.000689,-0.009988,-0.052356,-0.028105,-0.003645,1,-0.006081,-0.001898, 0.000350,1,-0.218737, 0.639994, 9.783299,1,1
1778779492220,   527.847,   527.842, 0.027047,-0.059043,-0.980349, 0.000298,-0.000594,-0.009827, 0.068504, 0.024508, 0.071684,1,-0.006080, 0.006493,-0.001322,1,-0.219365, 0.638509, 9.783382,1,1
1778779492247,   527.872,   527.872, 0.008125,-0.065622,-1.002533, 0.000102,-0.000652,-0.010000,-0.139068,-0.005576,-0.048058,1,-0.007057,-0.009438, 0.002154,1,-0.218451, 0.637804, 9.783449,1,1
1778779492269,   527.892,   527.892, 0.020463,-0.063098,-1.006922, 0.000211,-0.000627,-0.010087,-0.018074, 0.018993,-0.091087,1, 0.007289, 0.008754,-0.000408,1,-0.219017, 0.637999, 9.783423,1,1
1778779492290,   527.917,   527.912, 0.020878,-0.066546,-0.994790, 0.000197,-0.000651,-0.009912,-0.018794, 0.022094, 0.108053,1, 0.010827, 0.001614, 0.000065,1,-0.220547, 0.640645, 9.783216,1,1
1778779492317,   527.942,   527.942, 0.034194,-0.063625,-0.987860, 0.000329,-0.000633,-0.009880, 0.114316, 0.016557, 0.095617,1, 0.000124, 0.005340,-0.001130,1,-0.221178, 0.640504, 9.783211,1,1
1778779492339,   527.967,   527.962, 0.008766,-0.065788,-1.004884, 0.000070,-0.000665,-0.010022,-0.073011, 0.029287, 0.108102,1,-0.003082,-0.007885, 0.001511,1,-0.220676, 0.640424, 9.783228,1,1
1778779492361,   527.987,   527.982, 0.030012,-0.062251,-1.000232, 0.000283,-0.000638,-0.010041,-0.033351,-0.019876,-0.160591,1,-0.003371, 0.002376,-0.000968,1,-0.219708, 0.639272, 9.783325,1,1
1778779492387,   528.012,   528.012, 0.025963,-0.063163,-0.979349, 0.000279,-0.000630,-0.009799, 0.032409, 0.022184, 0.178979,1, 0.008500, 0.002260, 0.000977,1,-0.222265, 0.641869, 9.783097,1,1
1778779492409,   528.037,   528.032, 0.025483,-0.068756,-0.982976, 0.000268,-0.000691,-0.009862,-0.017387,-0.043615, 0.046458,1,-0.000872, 0.002733,-0.000351,1,-0.222033, 0.642284, 9.783075,1,1
1778779492431,   528.057,   528.052, 0.016136,-0.064118,-0.992383, 0.000192,-0.000634,-0.009893, 0.020566,-0.009716, 0.182810,1,-0.006852,-0.001505, 0.001039,1,-0.222498, 0.641646, 9.783106,1,1
1778779492458,   528.082,   528.082, 0.022491,-0.068205,-1.015516, 0.000214,-0.000676,-0.010149,-0.000015,-0.031121,-0.175400,1,-0.012400,-0.000797, 0.000965,1,-0.220546, 0.637351, 9.783431,1,1
1778779492479,   528.107,   528.102, 0.022509,-0.064965,-0.981597, 0.000237,-0.000627,-0.009783, 0.089141, 0.042427, 0.132965,1, 0.005960, 0.006092, 0.000715,1,-0.222029, 0.637381, 9.783396,1,1
1778779492501,   528.127,   528.122, 0.018823,-0.071977,-1.002196, 0.000155,-0.000717,-0.010003,-0.081579,-0.054263, 0.046606,1,-0.002596,-0.008574, 0.001629,1,-0.221122, 0.637753, 9.783392,1,1
1778779492528,   528.152,   528.152, 0.026915,-0.062320,-0.992685, 0.000259,-0.000631,-0.009928, 0.043256, 0.024844, 0.048601,1,-0.002996, 0.000408, 0.000199,1,-0.220703, 0.635905, 9.783522,1,1
1778779492549,   528.177,   528.172, 0.023895,-0.066477,-1.000483, 0.000224,-0.000678,-0.010031,-0.044431,-0.003945,-0.031636,1,-0.002808,-0.005151, 0.000705,1,-0.219593, 0.635436, 9.783577,1,1
1778779492571,   528.197,   528.192, 0.024277,-0.059669,-0.975267, 0.000270,-0.000606,-0.009774, 0.054046, 0.024519, 0.111860,1, 0.000182, 0.008104,-0.001777,1,-0.220412, 0.635216, 9.783573,1,1
1778779492598,   528.222,   528.222, 0.010398,-0.068626,-1.000507, 0.000116,-0.000685,-0.009991,-0.117218,-0.038206,-0.027997,1,-0.007477,-0.011887, 0.000553,1,-0.218818, 0.634550, 9.783652,1,1
1778779492619,   528.247,   528.242, 0.029565,-0.062224,-0.979116, 0.000321,-0.000613,-0.009799, 0.068031, 0.019801, 0.015477,1, 0.006709, 0.007224,-0.001968,1,-0.219049, 0.634637, 9.783641,1,1
1778779492641,   528.267,   528.262, 0.017368,-0.069060,-0.995933, 0.000167,-0.000679,-0.009916,-0.029807, 0.000555, 0.176060,1, 0.001065,-0.006471, 0.000137,1,-0.219318, 0.635857, 9.783556,1,1
1778779492668,   528.292,   528.292, 0.030278,-0.062638,-0.990203, 0.000289,-0.000621,-0.009905, 0.078420, 0.019272, 0.073147,1,-0.003590, 0.002462,-0.001160,1,-0.218582, 0.633430, 9.783730,1,1
1778779492689,   528.317,   528.312, 0.011553,-0.064859,-1.011100, 0.000089,-0.000648,-0.010102,-0.076505, 0.017794,-0.010469,1,-0.002177,-0.010286, 0.001083,1,-0.217381, 0.633165, 9.783774,1,1
1778779492711,   528.337,   528.332, 0.034766,-0.063317,-0.988037, 0.000334,-0.000644,-0.009915, 0.031798,-0.003955,-0.088244,1, 0.001268, 0.005917,-0.001484,1,-0.217070, 0.632998, 9.783792,1,1
1778779492738,   528.362,   528.362, 0.020904,-0.060892,-0.989402, 0.000234,-0.000615,-0.009889,-0.012998, 0.035813, 0.081051,1,-0.005183,-0.004189, 0.001252,1,-0.217862, 0.632801, 9.783787,1,1
1778779492759,   528.387,   528.382, 0.020129,-0.065064,-0.994561, 0.000210,-0.000655,-0.009972,-0.058497,-0.010173,-0.038374,1,-0.001980, 0.001984, 0.000181,1,-0.217429, 0.632117, 9.783840,1,1
1778779492782,   528.407,   528.407, 0.018078,-0.066997,-0.989920, 0.000199,-0.000666,-0.009895,-0.040839,-0.023915, 0.075964,1, 0.001262,-0.001485, 0.000756,1,-0.218077, 0.633143, 9.783760,1,1
1778779492808,   528.432,   528.432, 0.029414,-0.066136,-0.995579, 0.000296,-0.000660,-0.009950, 0.070682,-0.016853, 0.020561,1,-0.011834,-0.001731,-0.000088,1,-0.217716, 0.631346, 9.783884,1,1
1778779492830,   528.457,   528.452, 0.013356,-0.064569,-0.993979, 0.000140,-0.000625,-0.009906, 0.012024, 0.040385, 0.095649,1, 0.000106,-0.002390, 0.000653,1,-0.217687, 0.630564, 9.783935,1,1
1778779492852,   528.477,   528.477, 0.019243,-0.065949,-1.009014, 0.000163,-0.000661,-0.010081,-0.028024,-0.017016,-0.111039,1,-0.001410, 0.002076,-0.000263,1,-0.216798, 0.629680, 9.784012,1,1
1778779492878,   528.502,   528.502, 0.027821,-0.060786,-0.988223, 0.000269,-0.000616,-0.009890, 0.054492, 0.035184, 0.092717,1, 0.014247, 0.007723,-0.000768,1,-0.218577, 0.631737, 9.783839,1,1
1778779492900,   528.527,   528.522, 0.028792,-0.068726,-0.990201, 0.000272,-0.000698,-0.009936,-0.013358,-0.025025, 0.044135,1, 0.002538,-0.000207, 0.000471,1,-0.218665, 0.632931, 9.783760,1,1
1778779492922,   528.547,   528.547, 0.026683,-0.062591,-0.969474, 0.000294,-0.000643,-0.009709, 0.042229, 0.019554, 0.276418,1,-0.004150,-0.002675,-0.000152,1,-0.219355, 0.633235, 9.783726,1,1
1778779492948,   528.572,   528.572, 0.010193,-0.062549,-1.009746, 0.000112,-0.000634,-0.010083,-0.117168, 0.017192,-0.118278,1,-0.018851,-0.012237, 0.001610,1,-0.216741, 0.630000, 9.783993,1,1
1778779492970,   528.597,   528.592, 0.024806,-0.059650,-0.988006, 0.000278,-0.000589,-0.009895, 0.039210, 0.057111,-0.055837,1, 0.005209, 0.008683,-0.000420,1,-0.217341, 0.629481, 9.784013,1,1
1778779492993,   528.617,   528.617, 0.015749,-0.069377,-1.000761, 0.000160,-0.000684,-0.009982,-0.063643,-0.048748,-0.030255,1, 0.000311,-0.001646, 0.001527,1,-0.218030, 0.631615, 9.783859,1,1
1778779493018,   528.642,   528.642, 0.033021,-0.062970,-0.986907, 0.000324,-0.000632,-0.009868, 0.104825, 0.013735, 0.105613,1,-0.001201, 0.006114,-0.000077,1,-0.219196, 0.631225, 9.783858,1,1
1778779493040,   528.667,   528.662, 0.011694,-0.066260,-1.007331, 0.000101,-0.000649,-0.010042,-0.043938, 0.030939, 0.061167,1,-0.004380,-0.009910, 0.001828,1,-0.218389, 0.630583, 9.783918,1,1
1778779493063,   528.687,   528.687, 0.028622,-0.062057,-0.997096, 0.000269,-0.000631,-0.009996, 0.062954, 0.021095, 0.005818,1, 0.003169, 0.006683,-0.000833,1,-0.217939, 0.629761, 9.783981,1,1
1778779493088,   528.712,   528.712, 0.017854,-0.062094,-0.985692, 0.000192,-0.000630,-0.009858,-0.043323, 0.021968, 0.117562,1, 0.005452,-0.001362, 0.000047,1,-0.218371, 0.631070, 9.783887,1,1
1778779493110,   528.737,   528.732, 0.025488,-0.065141,-0.990631, 0.000263,-0.000666,-0.009940,-0.043376,-0.030189, 0.008344,1,-0.004277, 0.002353,-0.000753,1,-0.218071, 0.630821, 9.783910,1,1
1778779493133,   528.762,   528.757, 0.016807,-0.061695,-0.986551, 0.000202,-0.000615,-0.009865,-0.054462, 0.025902, 0.109111,1,-0.000240,-0.000336,-0.000109,1,-0.219268, 0.630917, 9.783877,1,1
1778779493158,   528.782,   528.782, 0.015004,-0.070706,-1.008050, 0.000147,-0.000696,-0.010076,-0.071875,-0.062876,-0.101688,1,-0.002631, 0.002839,-0.000721,1,-0.219105, 0.630433, 9.783912,1,1
1778779493180,   528.807,   528.802, 0.023376,-0.062558,-0.976659, 0.000248,-0.000605,-0.009740, 0.066988, 0.019374, 0.136661,1, 0.008270, 0.012641,-0.002433,1,-0.221558, 0.631605, 9.783781,1,1
1778779493203,   528.832,   528.827, 0.018420,-0.070219,-1.011624, 0.000154,-0.000695,-0.010086,-0.040669,-0.057453,-0.136824,1,-0.005236,-0.002348,-0.002068,1,-0.221238, 0.630998, 9.783828,1,1
1778779493229,   528.852,   528.852, 0.034424,-0.059948,-0.985753, 0.000327,-0.000609,-0.009876, 0.114430, 0.044091, 0.116788,1, 0.011192, 0.014193,-0.003071,1,-0.223598, 0.632323, 9.783689,1,1
1778779493250,   528.877,   528.872, 0.021691,-0.069020,-1.007776, 0.000187,-0.000689,-0.010082,-0.040771, 0.031723, 0.054529,1,-0.005368,-0.008019,-0.000258,1,-0.222954, 0.632547, 9.783689,1,1
1778779493273,   528.902,   528.897, 0.034083,-0.062678,-0.985922, 0.000344,-0.000643,-0.009899, 0.110823, 0.017613, 0.115102,1, 0.006760, 0.009695,-0.001211,1,-0.223723, 0.632487, 9.783675,1,1
1778779493299,   528.922,   528.922, 0.014072,-0.062354,-0.992571, 0.000160,-0.000626,-0.009908,-0.085174, 0.021436, 0.049860,1,-0.003283,-0.010631, 0.001923,1,-0.222834, 0.632819, 9.783673,1,1
1778779493320,   528.947,   528.942, 0.031774,-0.063012,-0.984890, 0.000330,-0.000635,-0.009882, 0.028717,-0.024847,-0.079000,1, 0.007886, 0.008893,-0.000091,1,-0.222757, 0.633202, 9.783650,1,1
1778779493343,   528.972,   528.967, 0.014136,-0.061723,-0.993664, 0.000169,-0.000606,-0.009898,-0.084841, 0.030087, 0.038980,1,-0.002390,-0.011433, 0.001654,1,-0.223112, 0.635308, 9.783506,1,1
1778779493369,   528.992,   528.992, 0.023649,-0.067486,-1.011856, 0.000222,-0.000672,-0.010133, 0.009083,-0.026080,-0.139435,1, 0.009904, 0.007530, 0.000713,1,-0.223068, 0.636041, 9.783460,1,1
1778779493390,   529.017,   529.012, 0.019015,-0.061054,-0.983645, 0.000183,-0.000597,-0.009794, 0.045035, 0.067040, 0.211345,1, 0.012939, 0.004017,-0.000460,1,-0.225217, 0.639067, 9.783213,1,1
1778779493413,   529.042,   529.037, 0.025494,-0.067106,-1.005760, 0.000225,-0.000687,-0.010071, 0.025999,-0.019147,-0.079888,1, 0.003592, 0.003892, 0.000353,1,-0.224135, 0.639054, 9.783238,1,1
1778779493439,   529.062,   529.062, 0.027792,-0.055870,-0.972167, 0.000287,-0.000573,-0.009737, 0.047010, 0.092771, 0.249396,1, 0.006070, 0.002242, 0.000624,1,-0.225603, 0.640859, 9.783087,1,1
1778779493460,   529.087,   529.082, 0.021360,-0.069800,-1.009578, 0.000208,-0.000716,-0.010140,-0.094286,-0.017152,-0.081451,1,-0.005276,-0.008808, 0.002900,1,-0.223673, 0.639782, 9.783201,1,1
1778779493487,   529.112,   529.112, 0.024535,-0.061558,-0.972828, 0.000282,-0.000626,-0.009752, 0.015144, 0.038224, 0.242841,1, 0.005601, 0.004538, 0.000180,1,-0.225600, 0.642079, 9.783007,1,1
1778779493509,   529.132,   529.132, 0.007235,-0.070063,-1.008368, 0.000084,-0.000693,-0.010063,-0.153364,-0.045760,-0.105631,1,-0.006837,-0.005761, 0.001156,1,-0.224132, 0.641114, 9.783104,1,1
1778779493530,   529.157,   529.152, 0.031629,-0.063492,-0.979208, 0.000337,-0.000632,-0.009785, 0.068740,-0.038227, 0.051031,1, 0.006202, 0.015507,-0.001955,1,-0.226417, 0.641783, 9.783008,1,1
1778779493557,   529.182,   529.182, 0.019392,-0.069698,-0.998173, 0.000194,-0.000694,-0.009970,-0.036370,-0.043014,-0.005642,1,-0.012720,-0.008033, 0.000214,1,-0.226289, 0.640091, 9.783121,1,1
1778779493579,   529.207,   529.202, 0.031241,-0.058558,-0.976585, 0.000320,-0.000596,-0.009772, 0.108920,-0.002694, 0.065579,1,-0.004090, 0.009769,-0.002189,1,-0.227522, 0.638494, 9.783197,1,1
1778779493601,   529.227,   529.222, 0.012202,-0.067775,-1.001086, 0.000111,-0.000671,-0.009985,-0.035988, 0.075824, 0.185509,1,-0.012414,-0.009895,-0.000040,1,-0.227303, 0.637179, 9.783288,1,1
1778779493627,   529.252,   529.252, 0.025156,-0.063094,-1.005479, 0.000239,-0.000656,-0.010108, 0.021171, 0.014963,-0.076824,1, 0.001974, 0.014456,-0.002691,1,-0.225983, 0.633761, 9.783541,1,1
1778779493649,   529.277,   529.272, 0.012857,-0.060692,-0.993988, 0.000150,-0.000595,-0.009915,-0.008865, 0.048537, 0.244120,1,-0.000080,-0.001559,-0.002432,1,-0.227502, 0.635254, 9.783408,1,1
1778779493671,   529.297,   529.292, 0.023830,-0.068057,-0.997790, 0.000251,-0.000699,-0.010019,-0.053286,-0.071934,-0.108815,1,-0.005022,-0.000076, 0.000642,1,-0.225982, 0.633891, 9.783532,1,1
1778779493698,   529.322,   529.322, 0.022832,-0.062462,-0.975030, 0.000259,-0.000610,-0.009723,-0.004593, 0.023298, 0.221570,1,-0.002714,-0.005794, 0.000254,1,-0.228317, 0.635757, 9.783357,1,1
1778779493719,   529.347,   529.342, 0.037640,-0.070229,-1.014755, 0.000393,-0.000686,-0.010125,-0.076695,-0.049408,-0.225319,1,-0.009301,-0.002246,-0.000315,1,-0.226152, 0.633415, 9.783559,1,1
1778779493741,   529.367,   529.362, 0.026620,-0.060558,-0.982957, 0.000292,-0.000568,-0.009803, 0.058965, 0.066735, 0.089046,1, 0.016667, 0.017435,-0.001982,1,-0.228768, 0.635183, 9.783383,1,1
1778779493768,   529.392,   529.392, 0.015711,-0.072612,-1.010007, 0.000130,-0.000712,-0.010084,-0.074048,-0.075375,-0.121483,1,-0.001861,-0.003380, 0.001113,1,-0.228014, 0.636651, 9.783305,1,1
1778779493789,   529.417,   529.412, 0.038209,-0.061182,-0.971699, 0.000314,-0.000589,-0.009719, 0.035513, 0.073601, 0.096344,1, 0.013460, 0.018673,-0.002005,1,-0.230600, 0.638626, 9.783116,1,1
1778779493811,   529.437,   529.432, 0.021387,-0.064837,-1.010903, 0.000187,-0.000638,-0.010111,-0.034914, 0.015875, 0.053172,1,-0.014395,-0.015936, 0.002208,1,-0.230217, 0.637850, 9.783175,1,1
1778779493838,   529.462,   529.462, 0.028751,-0.059507,-0.973153, 0.000310,-0.000608,-0.009783, 0.049788, 0.055322, 0.239689,1, 0.013368, 0.014137,-0.000277,1,-0.232604, 0.639298, 9.783025,1,1
1778779493859,   529.487,   529.482, 0.003708,-0.065031,-1.005206, 0.000064,-0.000629,-0.010053,-0.128204,-0.015761, 0.095214,1,-0.010899,-0.016087, 0.001785,1,-0.231171, 0.638640, 9.783102,1,1
1778779493881,   529.507,   529.502, 0.024541,-0.051246,-0.986057, 0.000248,-0.000546,-0.009912, 0.204580,-0.151806,-0.058583,1,-0.009182,-0.000165,-0.000171,1,-0.230959, 0.636359, 9.783256,1,1
1778779493908,   529.532,   529.532, 0.021350,-0.065642,-0.987845, 0.000222,-0.000653,-0.009823,-0.021884,-0.008486, 0.095867,1,-0.011764,-0.017861, 0.001959,1,-0.230698, 0.634879, 9.783358,1,1
1778779493929,   529.557,   529.552, 0.033366,-0.063207,-0.984052, 0.000312,-0.000638,-0.009882, 0.013618,-0.046975,-0.168752,1, 0.001648, 0.004879,-0.000388,1,-0.229362, 0.633312, 9.783491,1,1
1778779493951,   529.577,   529.572, 0.018339,-0.064869,-0.989590, 0.000182,-0.000649,-0.009838, 0.064330, 0.034139, 0.304362,1,-0.000339,-0.001527,-0.000369,1,-0.231082, 0.634361, 9.783382,1,1
1778779493978,   529.602,   529.602, 0.027649,-0.066808,-1.005888, 0.000254,-0.000688,-0.010111, 0.042868,-0.023619,-0.080761,1,-0.002136, 0.008304,-0.000674,1,-0.228540, 0.631478, 9.783628,1,1
1778779494000,   529.627,   529.622, 0.013353,-0.064191,-1.001962, 0.000156,-0.000640,-0.010003, 0.024577, 0.051522, 0.177752,1,-0.004430,-0.005910, 0.000128,1,-0.229114, 0.631141, 9.783637,1,1
1778779494022,   529.647,   529.647, 0.029676,-0.072859,-0.998979, 0.000293,-0.000743,-0.010043, 0.063676,-0.082686,-0.013002,1, 0.008325, 0.006478, 0.001000,1,-0.227547, 0.632073, 9.783613,1,1
1778779494048,   529.672,   529.672, 0.028793,-0.060096,-0.978965, 0.000323,-0.000591,-0.009765, 0.054708, 0.043734, 0.183177,1,-0.000305,-0.009020, 0.001581,1,-0.227389, 0.633109, 9.783550,1,1
1778779494070,   529.697,   529.692, 0.027845,-0.070418,-1.006199, 0.000269,-0.000708,-0.010070,-0.053659,-0.078599,-0.099161,1,-0.003543,-0.011444, 0.003732,1,-0.224571, 0.632488, 9.783655,1,1
1778779494092,   529.717,   529.717, 0.030721,-0.056751,-0.979418, 0.000312,-0.000556,-0.009787, 0.076466, 0.077541, 0.178741,1, 0.011604,-0.003338,-0.000574,1,-0.224705, 0.634444, 9.783525,1,1
1778779494118,   529.742,   529.742, 0.014445,-0.068468,-1.002920, 0.000124,-0.000677,-0.009988,-0.080488,-0.036391,-0.051741,1,-0.000266,-0.017290, 0.000886,1,-0.221607, 0.635044, 9.783557,1,1
1778779494140,   529.767,   529.762, 0.031320,-0.055211,-0.976448, 0.000306,-0.000564,-0.009773, 0.066330, 0.044187, 0.059583,1, 0.007145, 0.005738,-0.002283,1,-0.221432, 0.635689, 9.783520,1,1
1778779494162,   529.787,   529.787, 0.013086,-0.062910,-1.003921, 0.000128,-0.000624,-0.010029,-0.090172, 0.019058,-0.061535,1,-0.001000,-0.015813, 0.001549,1,-0.218008, 0.635961, 9.783579,1,1
1778779494188,   529.812,   529.812, 0.017591,-0.061946,-0.987833, 0.000171,-0.000625,-0.009931,-0.045463, 0.030230, 0.096135,1, 0.016039, 0.008618,-0.002068,1,-0.218249, 0.638209, 9.783427,1,1
1778779494210,   529.837,   529.832, 0.006184,-0.071550,-1.004625, 0.000076,-0.000706,-0.010018,-0.107100, 0.018770, 0.134022,1,-0.002280,-0.014153, 0.001237,1,-0.217110, 0.639478, 9.783369,1,1
1778779494233,   529.857,   529.857, 0.023662,-0.063832,-0.996713, 0.000232,-0.000644,-0.009997, 0.016597, 0.013092, 0.009014,1, 0.008633, 0.010276,-0.002249,1,-0.215777, 0.639335, 9.783408,1,1
1778779494258,   529.882,   529.882, 0.017551,-0.067245,-0.981225, 0.000197,-0.000650,-0.009777,-0.043857,-0.020028, 0.160867,1,-0.005720,-0.009015,-0.000157,1,-0.215688, 0.639235, 9.783417,1,1
1778779494280,   529.907,   529.902, 0.026096,-0.065656,-0.991164, 0.000238,-0.000660,-0.009913,-0.026948,-0.078007,-0.081896,1,-0.012427, 0.003261,-0.000948,1,-0.214969, 0.636720, 9.783596,1,1
1778779494303,   529.927,   529.927, 0.014888,-0.062373,-1.006513, 0.000139,-0.000609,-0.010019,-0.070008, 0.021859,-0.086746,1,-0.010681,-0.005017,-0.000724,1,-0.215856, 0.633193, 9.783806,1,1
1778779494328,   529.952,   529.952, 0.030144,-0.071945,-1.010877, 0.000264,-0.000730,-0.010155, 0.078491,-0.072269,-0.129545,1, 0.008490, 0.020244,-0.002480,1,-0.217759, 0.633535, 9.783742,1,1
1778779494350,   529.977,   529.972, 0.021989,-0.066498,-0.976249, 0.000245,-0.000662,-0.009736, 0.131512, 0.037988, 0.336438,1,-0.001926, 0.011427,-0.002563,1,-0.221345, 0.634394, 9.783606,1,1
1778779494373,   530.002,   529.997, 0.021322,-0.072439,-1.004105, 0.000202,-0.000739,-0.010068,-0.010782,-0.079485,-0.063045,1,-0.013611, 0.002627,-0.001903,1,-0.219968, 0.630470, 9.783890,1,1
1778779494398,   530.022,   530.022, 0.031758,-0.056400,-0.979707, 0.000343,-0.000566,-0.009806, 0.090950, 0.075506, 0.176351,1,-0.013142,-0.004333,-0.001193,1,-0.220359, 0.628191, 9.784028,1,1
1778779494420,   530.047,   530.042, 0.025231,-0.066805,-1.002776, 0.000248,-0.000670,-0.010046,-0.039246,-0.038436,-0.080784,1,-0.010222,-0.012671, 0.001207,1,-0.217856, 0.625804, 9.784237,1,1
