Time,GPS_ts,fGPS_ts,scaledAccelX,scaledAccelY,scaledAccelZ,deltaVelX,deltaVelY,deltaVelZ,estLinearAccelX,estLinearAccelY,estLinearAccelZ,estLinearAccel:valid,estAngularRateX,estAngularRateY,estAngularRateZ,estAngularRate:valid,estGravityX,estGravityY,estGravityZ,estGravity:valid,flag
1778780240063,  1256.678,  1256.678, 0.036399, 0.009925,-0.988558, 0.000320, 0.000067,-0.009917, 0.109571,-0.074753, 0.107580,1, 0.004434, 0.016870,-0.002092,1,-0.247907,-0.171942, 9.802008,1,0
1778780240063,  1256.703,  1256.698, 0.019378, 0.020253,-1.010413, 0.000170, 0.000205,-0.010076,-0.067854, 0.050510, 0.077991,1,-0.007718,-0.011777, 0.000913,1,-0.246730,-0.172993, 9.802019,1,0
1778780240063,  1256.723,  1256.723, 0.034802, 0.015320,-0.989861, 0.000338, 0.000134,-0.009921, 0.093382,-0.022224, 0.094775,1, 0.004322, 0.008096, 0.000773,1,-0.248165,-0.172328, 9.801994,1,0
1778780240063,  1256.748,  1256.748, 0.021303, 0.020640,-0.991904, 0.000212, 0.000208,-0.009884,-0.038602, 0.030066, 0.074757,1,-0.003159,-0.010412, 0.001066,1,-0.247190,-0.172445, 9.802017,1,0
1778780240063,  1256.773,  1256.768, 0.037205, 0.014252,-0.990773, 0.000363, 0.000136,-0.009957, 0.013045,-0.033264,-0.146080,1, 0.009923, 0.006352, 0.000732,1,-0.246579,-0.171706, 9.802046,1,0
1778780240064,  1256.798,  1256.798, 0.019958, 0.020367,-0.983946, 0.000218, 0.000211,-0.009812,-0.051623, 0.029273, 0.152836,1,-0.007561,-0.010451,-0.000539,1,-0.247017,-0.170692, 9.802052,1,0
1778780240064,  1256.823,  1256.818, 0.029447, 0.016308,-0.987824, 0.000297, 0.000160,-0.009918,-0.022068,-0.028285,-0.091661,1, 0.002356, 0.005255,-0.001101,1,-0.246352,-0.171193, 9.802060,1,0
1778780240064,  1256.848,  1256.843, 0.028373, 0.019810,-0.976363, 0.000310, 0.000196,-0.009766,-0.068817, 0.040030, 0.080083,1,-0.008848,-0.014670,-0.000759,1,-0.246194,-0.171559, 9.802058,1,0
1778780240064,  1256.873,  1256.868, 0.035505, 0.017932,-0.985486, 0.000347, 0.000165,-0.009885, 0.025941,-0.021653,-0.113810,1, 0.011610, 0.007001,-0.000881,1,-0.245745,-0.170870, 9.802081,1,0
1778780240064,  1256.893,  1256.888, 0.019772, 0.019728,-0.988599, 0.000207, 0.000199,-0.009836, 0.072426, 0.027503, 0.265617,1, 0.002855,-0.001970,-0.001018,1,-0.247112,-0.169046, 9.802078,1,0
1778780240064,  1256.913,  1256.908, 0.022207, 0.012040,-1.010984, 0.000194, 0.000125,-0.010127,-0.109200,-0.007350,-0.112226,1,-0.000535,-0.008324, 0.000952,1,-0.244861,-0.169714, 9.802123,1,0
1778780240074,  1275.693,  1275.688, 0.012576, 0.021693,-0.984511, 0.000141, 0.000221,-0.009812,-0.006495, 0.006243, 0.218347,1, 0.009975, 0.009172, 0.000287,1,-0.151691,-0.254951, 9.802162,1,0
1778780240096,  1275.713,  1275.708, 0.014883, 0.028184,-1.017173, 0.000145, 0.000273,-0.010190,-0.042103,-0.022456,-0.101371,1,-0.010621,-0.016828, 0.000000,1,-0.149028,-0.255980, 9.802176,1,0
1778780240123,  1275.738,  1275.738, 0.017445, 0.025563,-0.975035, 0.000181, 0.000259,-0.009758, 0.019676,-0.003943, 0.240347,1, 0.009305, 0.009216,-0.000009,1,-0.151691,-0.254336, 9.802177,1,0
1778780240145,  1275.763,  1275.758, 0.015297, 0.029919,-1.016199, 0.000138, 0.000286,-0.010174,-0.037737,-0.023973,-0.102251,1,-0.011960,-0.014642, 0.000279,1,-0.149359,-0.255681, 9.802178,1,0
1778780240166,  1275.783,  1275.778, 0.017785, 0.027179,-0.975588, 0.000180, 0.000282,-0.009759, 0.041524, 0.066088, 0.044922,1, 0.009142, 0.017608,-0.000269,1,-0.150906,-0.255545, 9.802158,1,0
1778780240193,  1275.808,  1275.808, 0.009891, 0.021964,-1.012162, 0.000093, 0.000214,-0.010089,-0.052699,-0.039901,-0.123739,1,-0.009747,-0.015413,-0.000011,1,-0.149218,-0.255597, 9.802183,1,0
1778780240215,  1275.833,  1275.828, 0.019252, 0.026100,-0.970868, 0.000205, 0.000271,-0.009734, 0.049887, 0.039303, 0.051556,1, 0.011887, 0.019489,-0.000897,1,-0.150937,-0.254893, 9.802175,1,0
1778780240237,  1275.853,  1275.848, 0.010892, 0.020934,-1.004754, 0.000111, 0.000200,-0.010017,-0.021119,-0.058168, 0.211271,1,-0.003709,-0.009985, 0.001101,1,-0.151623,-0.253759, 9.802194,1,0
1778780240263,  1275.878,  1275.878, 0.015745, 0.030824,-0.994624, 0.000160, 0.000315,-0.009988, 0.003824, 0.046475, 0.048223,1, 0.005687, 0.015579, 0.000069,1,-0.151063,-0.255624, 9.802154,1,0
1778780240285,  1275.903,  1275.898, 0.011569, 0.024562,-1.014894, 0.000111, 0.000239,-0.010107,-0.026838,-0.036618, 0.122949,1,-0.005307,-0.013644, 0.000527,1,-0.150991,-0.255187, 9.802166,1,0
1778780240308,  1275.923,  1275.923, 0.023095, 0.031735,-0.995383, 0.000222, 0.000323,-0.009994, 0.075838, 0.055535, 0.040786,1, 0.014918, 0.021359,-0.000120,1,-0.151316,-0.255212, 9.802160,1,0
1778780240333,  1275.948,  1275.948, 0.020384, 0.026122,-0.970719, 0.000209, 0.000269,-0.009716, 0.047448, 0.002068, 0.282672,1, 0.014836, 0.012153, 0.000291,1,-0.152832,-0.253636, 9.802178,1,0
1778780240355,  1275.973,  1275.968, 0.018082, 0.030094,-0.998229, 0.000171, 0.000305,-0.010027,-0.035712,-0.001182,-0.186590,1,-0.006746,-0.000369,-0.000886,1,-0.149515,-0.255414, 9.802183,1,0
1778780240378,  1275.993,  1275.993, 0.016168, 0.022198,-0.984269, 0.000174, 0.000229,-0.009812, 0.006734,-0.036676, 0.149794,1,-0.004110,-0.010102, 0.000948,1,-0.151508,-0.254495, 9.802176,1,0
1778780240403,  1276.018,  1276.018, 0.015027, 0.028435,-1.016291, 0.000153, 0.000274,-0.010192,-0.002219, 0.022936,-0.164247,1,-0.001551, 0.003111,-0.000958,1,-0.149678,-0.255970, 9.802166,1,0
1778780240425,  1276.043,  1276.038, 0.009459, 0.019704,-0.979877, 0.000110, 0.000205,-0.009759, 0.005203, 0.001294, 0.296126,1, 0.010205, 0.010043, 0.000498,1,-0.152833,-0.253722, 9.802176,1,0
1778780240448,  1276.063,  1276.063, 0.013169, 0.026944,-1.021732, 0.000123, 0.000261,-0.010231,-0.019917, 0.008076,-0.217600,1,-0.006093,-0.001358,-0.000201,1,-0.149019,-0.256348, 9.802166,1,0
1778780240473,  1276.088,  1276.088, 0.023875, 0.029041,-0.975706, 0.000240, 0.000293,-0.009768, 0.082264, 0.029938, 0.233758,1, 0.009428, 0.012057, 0.000357,1,-0.152242,-0.254561, 9.802163,1,0
1778780240495,  1276.113,  1276.108, 0.013635, 0.027109,-1.013589, 0.000129, 0.000264,-0.010143,-0.016561,-0.010355,-0.048695,1,-0.011153,-0.014681, 0.000848,1,-0.150059,-0.255715, 9.802167,1,0
1778780240518,  1276.133,  1276.133, 0.013939, 0.026602,-0.977050, 0.000136, 0.000272,-0.009770,-0.015417, 0.006219, 0.220578,1, 0.008859, 0.007245, 0.000659,1,-0.152339,-0.254381, 9.802166,1,0
1778780240544,  1276.158,  1276.158, 0.011962, 0.023733,-1.014785, 0.000111, 0.000231,-0.010114,-0.032580,-0.022724,-0.149463,1,-0.011671,-0.016985,-0.000777,1,-0.149361,-0.255828, 9.802175,1,0
1778780240565,  1276.183,  1276.178, 0.021247, 0.028081,-0.970226, 0.000228, 0.000292,-0.009727, 0.091207, 0.058240, 0.040979,1, 0.012090, 0.021372,-0.000011,1,-0.151188,-0.255314, 9.802160,1,0
1778780240588,  1276.208,  1276.203, 0.003986, 0.020517,-1.004981, 0.000049, 0.000196,-0.010017,-0.111546,-0.053781,-0.053316,1,-0.013740,-0.018706, 0.000062,1,-0.150048,-0.255417, 9.802175,1,0
1778780240614,  1276.228,  1276.228, 0.014334, 0.029913,-0.999767, 0.000139, 0.000299,-0.010041,-0.009863, 0.037454,-0.002213,1, 0.006872, 0.014882,-0.000968,1,-0.150892,-0.255677, 9.802155,1,0
1778780240635,  1276.253,  1276.248, 0.016469, 0.024974,-1.008642, 0.000165, 0.000240,-0.010049, 0.028954,-0.025091, 0.145037,1,-0.003272,-0.012076, 0.000135,1,-0.151051,-0.254897, 9.802173,1,0
1778780240658,  1276.278,  1276.273, 0.020367, 0.029823,-0.992164, 0.000200, 0.000301,-0.009958, 0.049077, 0.036851, 0.072350,1, 0.011248, 0.019005,-0.000691,1,-0.151252,-0.255260, 9.802160,1,0
1778780240684,  1276.298,  1276.298, 0.009062, 0.021837,-0.980856, 0.000090, 0.000220,-0.009762,-0.063045,-0.039920, 0.183266,1,-0.002907,-0.013095, 0.000409,1,-0.151509,-0.254162, 9.802185,1,0
1778780240705,  1276.323,  1276.318, 0.022227, 0.031603,-1.002777, 0.000211, 0.000314,-0.010072,-0.003828, 0.000854,-0.224490,1,-0.007067,-0.001050,-0.000446,1,-0.149053,-0.256387, 9.802165,1,0
1778780240728,  1276.348,  1276.343, 0.016185, 0.023749,-0.978962, 0.000173, 0.000245,-0.009764, 0.006906,-0.021333, 0.201838,1, 0.000911,-0.007759, 0.000482,1,-0.151572,-0.254198, 9.802183,1,0
1778780240754,  1276.368,  1276.368, 0.011921, 0.025433,-1.014445, 0.000119, 0.000247,-0.010158,-0.032625,-0.006280,-0.146133,1,-0.004236,-0.000513, 0.000045,1,-0.149515,-0.255827, 9.802173,1,0
1778780240775,  1276.393,  1276.388, 0.011249, 0.021948,-0.982634, 0.000124, 0.000226,-0.009792,-0.007702, 0.015632, 0.234358,1, 0.010436, 0.011109,-0.000056,1,-0.152426,-0.254021, 9.802175,1,0
1778780240798,  1276.418,  1276.413, 0.015846, 0.027870,-1.022107, 0.000148, 0.000266,-0.010231, 0.006270, 0.017432,-0.221270,1,-0.004889,-0.000475,-0.000508,1,-0.149116,-0.256035, 9.802173,1,0
1778780240824,  1276.438,  1276.438, 0.022869, 0.027812,-0.971358, 0.000234, 0.000286,-0.009730, 0.071884, 0.018566, 0.276399,1, 0.012277, 0.015052,-0.000066,1,-0.152853,-0.253790, 9.802174,1,0
1778780240845,  1276.463,  1276.458, 0.010498, 0.024631,-1.021068, 0.000093, 0.000238,-0.010209,-0.067096,-0.048053,-0.045528,1,-0.013190,-0.020295, 0.000068,1,-0.150381,-0.255038, 9.802179,1,0
1778780240868,  1276.488,  1276.483, 0.020163, 0.028971,-0.978045, 0.000197, 0.000296,-0.009800, 0.045529, 0.029433, 0.210811,1, 0.010006, 0.014324, 0.000016,1,-0.152647,-0.254362, 9.802162,1,0
1778780240894,  1276.508,  1276.508, 0.014505, 0.023306,-1.004778, 0.000145, 0.000232,-0.010008,-0.008527,-0.026706,-0.051341,1,-0.012351,-0.018362, 0.000331,1,-0.150204,-0.255648, 9.802166,1,0
1778780240916,  1276.533,  1276.528, 0.016762, 0.027584,-0.974140, 0.000179, 0.000284,-0.009770, 0.034350, 0.044638,-0.011924,1, 0.012008, 0.017638,-0.000240,1,-0.151196,-0.255386, 9.802158,1,0
1778780240942,  1276.558,  1276.558, 0.006925, 0.020427,-1.003167, 0.000079, 0.000199,-0.009993,-0.082961,-0.053990,-0.035516,1,-0.013971,-0.020579, 0.000238,1,-0.150234,-0.254745, 9.802190,1,0
1778780240964,  1276.578,  1276.578, 0.018808, 0.031425,-1.002856, 0.000182, 0.000311,-0.010077, 0.034193, 0.052526,-0.032489,1, 0.006706, 0.016370,-0.001002,1,-0.150757,-0.255440, 9.802163,1,0
1778780240986,  1276.603,  1276.598, 0.009485, 0.020966,-1.004481, 0.000103, 0.000202,-0.009992,-0.003197,-0.029013, 0.224570,1,-0.002039,-0.008713,-0.000086,1,-0.152018,-0.254384, 9.802172,1,0
1778780241013,  1276.628,  1276.628, 0.016040, 0.031435,-1.004637, 0.000151, 0.000307,-0.010086, 0.007299, 0.052384,-0.049962,1, 0.010649, 0.017007,-0.000938,1,-0.150530,-0.255552, 9.802164,1,0
1778780241034,  1276.653,  1276.648, 0.011981, 0.021273,-1.002902, 0.000120, 0.000207,-0.009976, 0.006805,-0.024903, 0.250081,1,-0.000414,-0.007803, 0.000538,1,-0.151819,-0.253872, 9.802188,1,0
1778780241056,  1276.673,  1276.668, 0.018181, 0.031612,-1.005768, 0.000172, 0.000315,-0.010108,-0.014559,-0.001426,-0.223835,1,-0.007273,-0.006091,-0.000473,1,-0.148542,-0.256216, 9.802176,1,0
1778780241083,  1276.698,  1276.698, 0.015012, 0.022201,-0.973641, 0.000161, 0.000232,-0.009712,-0.004681,-0.035635, 0.254046,1,-0.000623,-0.007310, 0.000106,1,-0.151673,-0.253371, 9.802203,1,0
1778780241104,  1276.723,  1276.718, 0.017764, 0.029277,-1.005130, 0.000178, 0.000293,-0.010106,-0.020510,-0.011587,-0.200312,1,-0.007092,-0.005375, 0.000298,1,-0.148734,-0.255678, 9.802188,1,0
1778780241126,  1276.743,  1276.738, 0.014279, 0.021575,-0.976286, 0.000154, 0.000227,-0.009737, 0.028110, 0.010639, 0.211748,1, 0.013718, 0.014807, 0.000287,1,-0.151917,-0.253603, 9.802194,1,0
1778780241153,  1276.768,  1276.768, 0.015448, 0.025846,-1.020370, 0.000150, 0.000246,-0.010203, 0.002614,-0.002202,-0.204224,1,-0.010576,-0.006031,-0.000476,1,-0.148689,-0.255994, 9.802180,1,0
1778780241174,  1276.793,  1276.788, 0.014731, 0.022198,-0.974382, 0.000153, 0.000229,-0.009705, 0.041389, 0.027971, 0.236747,1, 0.012475, 0.015432, 0.000433,1,-0.152040,-0.254330, 9.802173,1,0
1778780241196,  1276.813,  1276.808, 0.014148, 0.026864,-1.023167, 0.000129, 0.000254,-0.010227,-0.042018,-0.052705,-0.038948,1,-0.016782,-0.022812, 0.000172,1,-0.149303,-0.255890, 9.802174,1,0
1778780241223,  1276.838,  1276.838, 0.019406, 0.029263,-0.973462, 0.000195, 0.000303,-0.009765, 0.038962, 0.032055, 0.255768,1, 0.017490, 0.017218,-0.000156,1,-0.151881,-0.254370, 9.802174,1,0
1778780241244,  1276.863,  1276.858, 0.011448, 0.026013,-1.021073, 0.000111, 0.000248,-0.010217,-0.047004,-0.055943,-0.017475,1,-0.014524,-0.023385,-0.000184,1,-0.149274,-0.255343, 9.802189,1,0
1778780241266,  1276.883,  1276.878, 0.017530, 0.027148,-0.974627, 0.000181, 0.000286,-0.009786,-0.006762, 0.045866,-0.033008,1, 0.011814, 0.018340,-0.000243,1,-0.149748,-0.255373, 9.802180,1,0
1778780241293,  1276.908,  1276.908, 0.009085, 0.023219,-1.005478, 0.000100, 0.000223,-0.010012,-0.060188,-0.027402,-0.058177,1,-0.017190,-0.021665, 0.000701,1,-0.148610,-0.255635, 9.802191,1,0
1778780241314,  1276.933,  1276.928, 0.016951, 0.027683,-0.977822, 0.000176, 0.000284,-0.009801, 0.007552, 0.037799,-0.044785,1, 0.010865, 0.018238, 0.000041,1,-0.149572,-0.255758, 9.802174,1,0
1778780241336,  1276.953,  1276.948, 0.010966, 0.023095,-1.006553, 0.000113, 0.000224,-0.010020,-0.006304,-0.026232, 0.188118,1,-0.002360,-0.007920, 0.000588,1,-0.150857,-0.254258, 9.802193,1,0
1778780241363,  1276.978,  1276.978, 0.019266, 0.030512,-0.999663, 0.000183, 0.000306,-0.010037, 0.039160, 0.043781,-0.001164,1, 0.011907, 0.018304,-0.000560,1,-0.150344,-0.255070, 9.802179,1,0
1778780241385,  1277.003,  1276.998, 0.013125, 0.020037,-1.007123, 0.000127, 0.000194,-0.010027,-0.009554,-0.043966, 0.197238,1,-0.004043,-0.010166, 0.001332,1,-0.151214,-0.253887, 9.802197,1,0
1778780241406,  1277.023,  1277.018, 0.019215, 0.032871,-0.999035, 0.000187, 0.000329,-0.010041, 0.012118, 0.007256,-0.201004,1,-0.005675,-0.000984,-0.000374,1,-0.148792,-0.256167, 9.802175,1,0
1778780241433,  1277.048,  1277.048, 0.013133, 0.021066,-0.976583, 0.000142, 0.000220,-0.009733,-0.022774,-0.047245, 0.225185,1,-0.004453,-0.011730, 0.000736,1,-0.151152,-0.253977, 9.802196,1,0
1778780241455,  1277.073,  1277.068, 0.018374, 0.031539,-0.998375, 0.000186, 0.000314,-0.010035,-0.011457,-0.005687,-0.185332,1,-0.006537,-0.001781,-0.000160,1,-0.148502,-0.256236, 9.802177,1,0
1778780241478,  1277.093,  1277.093, 0.014243, 0.020954,-0.978065, 0.000157, 0.000217,-0.009747,-0.011450,-0.048577, 0.210655,1,-0.003395,-0.011924, 0.001261,1,-0.150758,-0.254169, 9.802197,1,0
1778780241503,  1277.118,  1277.118, 0.014756, 0.026395,-1.019164, 0.000142, 0.000256,-0.010199,-0.003544, 0.002766,-0.192403,1,-0.005538,-0.000698,-0.000385,1,-0.148227,-0.256257, 9.802180,1,0
1778780241525,  1277.143,  1277.138, 0.012418, 0.021046,-0.979551, 0.000127, 0.000217,-0.009749, 0.022199, 0.010348, 0.263605,1, 0.010405, 0.011852, 0.000350,1,-0.151458,-0.254303, 9.802182,1,0
1778780241548,  1277.163,  1277.163, 0.013336, 0.027367,-1.025693, 0.000119, 0.000261,-0.010261,-0.016881, 0.011664,-0.256432,1,-0.007165,-0.002643,-0.000599,1,-0.147579,-0.256943, 9.802173,1,0
1778780241573,  1277.188,  1277.188, 0.019722, 0.028555,-0.974429, 0.000201, 0.000297,-0.009767, 0.042715, 0.025014, 0.246294,1, 0.012957, 0.015182, 0.000098,1,-0.151169,-0.254607, 9.802178,1,0
1778780241595,  1277.213,  1277.208, 0.011743, 0.026223,-1.019590, 0.000111, 0.000254,-0.010211,-0.056174,-0.059021,-0.060549,1,-0.012160,-0.019867,-0.000051,1,-0.148539,-0.255753, 9.802189,1,0
1778780241618,  1277.233,  1277.233, 0.015900, 0.027994,-0.972783, 0.000168, 0.000295,-0.009754, 0.005018, 0.019999, 0.262445,1, 0.012408, 0.013403, 0.000539,1,-0.151330,-0.254144, 9.802188,1,0
1778780241643,  1277.258,  1277.258, 0.012156, 0.021994,-1.008163, 0.000127, 0.000211,-0.010044,-0.029623,-0.039659,-0.084507,1,-0.016781,-0.020872,-0.000369,1,-0.148175,-0.255871, 9.802192,1,0
1778780241665,  1277.283,  1277.278, 0.017362, 0.026979,-0.970707, 0.000185, 0.000283,-0.009728, 0.031875, 0.059779, 0.020322,1, 0.014392, 0.021408,-0.000703,1,-0.149590,-0.255627, 9.802176,1,0
1778780241688,  1277.303,  1277.303, 0.009788, 0.021743,-1.010939, 0.000098, 0.000209,-0.010059,-0.052829,-0.041830,-0.111725,1,-0.015995,-0.021631, 0.000513,1,-0.148141,-0.255558, 9.802200,1,0
1778780241714,  1277.328,  1277.328, 0.020148, 0.031718,-0.998603, 0.000192, 0.000318,-0.010028, 0.048461, 0.055358, 0.009231,1, 0.013301, 0.021814,-0.000048,1,-0.149806,-0.255271, 9.802182,1,0
1778780241735,  1277.353,  1277.348, 0.010605, 0.022923,-1.009674, 0.000105, 0.000221,-0.010055, 0.002992,-0.040691, 0.201435,1,-0.006981,-0.013561,-0.000310,1,-0.150480,-0.254228, 9.802199,1,0
1778780241758,  1277.373,  1277.373, 0.016717, 0.030865,-0.995012, 0.000161, 0.000313,-0.010004, 0.014514, 0.046896, 0.044436,1, 0.012799, 0.021422,-0.000427,1,-0.150094,-0.255388, 9.802175,1,0
1778780241784,  1277.398,  1277.398, 0.015758, 0.020446,-0.981804, 0.000166, 0.000208,-0.009781, 0.003734,-0.053813, 0.173984,1,-0.007435,-0.014445, 0.001120,1,-0.150352,-0.254553, 9.802193,1,0
1778780241805,  1277.423,  1277.418, 0.017731, 0.031369,-0.991934, 0.000181, 0.000323,-0.009978, 0.009333, 0.020606,-0.190198,1, 0.000002, 0.004421,-0.001138,1,-0.148303,-0.256347, 9.802177,1,0
1778780241828,  1277.448,  1277.443, 0.012249, 0.018692,-0.982180, 0.000135, 0.000189,-0.009778,-0.030609,-0.070807, 0.170298,1,-0.009911,-0.018050, 0.000691,1,-0.150217,-0.254450, 9.802197,1,0
1778780241854,  1277.468,  1277.468, 0.013852, 0.029591,-1.021310, 0.000136, 0.000286,-0.010236,-0.012052, 0.033563,-0.213455,1,-0.001256, 0.003180,-0.000925,1,-0.147998,-0.256666, 9.802174,1,0
1778780241875,  1277.493,  1277.488, 0.014579, 0.020934,-0.986482, 0.000148, 0.000209,-0.009814, 0.026972,-0.006115, 0.253371,1, 0.009162, 0.006810, 0.000467,1,-0.151150,-0.254067, 9.802193,1,0
1778780241898,  1277.518,  1277.513, 0.016807, 0.029321,-1.014417, 0.000158, 0.000286,-0.010166, 0.016493, 0.030966,-0.145860,1,-0.000241, 0.008069,-0.000527,1,-0.148583,-0.256584, 9.802167,1,0
1778780241924,  1277.538,  1277.538, 0.015988, 0.024270,-0.971202, 0.000163, 0.000254,-0.009704, 0.005497,-0.016598, 0.277937,1, 0.006984, 0.003353, 0.000910,1,-0.151401,-0.254384, 9.802181,1,0
1778780241945,  1277.563,  1277.558, 0.015493, 0.030725,-1.014727, 0.000148, 0.000300,-0.010187,-0.058946,-0.022871,-0.165592,1,-0.013440,-0.014305,-0.000591,1,-0.148011,-0.256639, 9.802174,1,0
1778780241968,  1277.588,  1277.583, 0.018073, 0.025073,-0.968818, 0.000194, 0.000261,-0.009691, 0.026027,-0.008692, 0.301317,1, 0.007181, 0.003113, 0.000673,1,-0.151302,-0.254354, 9.802183,1,0
1778780241994,  1277.608,  1277.608, 0.010415, 0.023831,-1.014905, 0.000107, 0.000226,-0.010132,-0.046481,-0.022121,-0.150634,1,-0.010672,-0.013906,-0.000544,1,-0.148183,-0.256160, 9.802184,1,0
1778780242015,  1277.633,  1277.628, 0.015269, 0.023597,-0.974277, 0.000161, 0.000247,-0.009730, 0.005344, 0.038271, 0.131837,1, 0.012890, 0.017590, 0.000076,1,-0.150604,-0.254844, 9.802181,1,0
1778780242038,  1277.658,  1277.653, 0.013687, 0.025714,-1.021162, 0.000130, 0.000249,-0.010190,-0.013870,-0.004203,-0.212000,1,-0.012895,-0.011506, 0.000283,1,-0.147730,-0.256776, 9.802175,1,0
1778780242064,  1277.678,  1277.678, 0.020585, 0.030283,-0.983393, 0.000199, 0.000313,-0.009867, 0.051691, 0.041431, 0.158383,1, 0.016514, 0.020648, 0.000411,1,-0.150823,-0.255031, 9.802173,1,0
1778780242085,  1277.703,  1277.698, 0.013186, 0.025000,-1.017306, 0.000118, 0.000240,-0.010161,-0.024640,-0.048249, 0.050996,1,-0.010586,-0.018614, 0.000438,1,-0.149576,-0.254903, 9.802196,1,0
1778780242108,  1277.728,  1277.723, 0.020991, 0.028284,-0.980438, 0.000209, 0.000295,-0.009840, 0.054937, 0.022413, 0.187358,1, 0.013402, 0.018264, 0.000431,1,-0.151482,-0.254542, 9.802176,1,0
1778780242134,  1277.748,  1277.748, 0.011035, 0.020519,-0.998193, 0.000120, 0.000202,-0.009939,-0.041937,-0.053591, 0.013261,1,-0.012059,-0.020560, 0.000699,1,-0.149515,-0.255190, 9.802189,1,0
1778780242156,  1277.773,  1277.768, 0.020122, 0.028673,-0.978366, 0.000206, 0.000301,-0.009826, 0.019987, 0.053286,-0.074222,1, 0.005563, 0.014383,-0.000827,1,-0.149416,-0.256010, 9.802169,1,0
1778780242183,  1277.798,  1277.798, 0.009741, 0.020221,-0.998164, 0.000115, 0.000197,-0.009939,-0.054493,-0.056754, 0.013543,1,-0.012289,-0.020614, 0.000337,1,-0.149375,-0.255439, 9.802184,1,0
1778780242204,  1277.818,  1277.818, 0.013882, 0.030936,-1.006581, 0.000138, 0.000305,-0.010108,-0.012914, 0.047323,-0.069013,1, 0.008603, 0.014193,-0.001181,1,-0.149495,-0.255788, 9.802174,1,0
1778780242226,  1277.843,  1277.838, 0.013633, 0.022442,-1.001289, 0.000138, 0.000214,-0.009962, 0.012736,-0.035434, 0.230497,1,-0.000875,-0.006212,-0.000133,1,-0.151126,-0.254362, 9.802186,1,0
1778780242253,  1277.868,  1277.868, 0.017923, 0.032396,-1.003446, 0.000170, 0.000320,-0.010074, 0.026545, 0.061350,-0.038278,1, 0.008684, 0.015876,-0.000406,1,-0.149716,-0.256072, 9.802163,1,0
1778780242274,  1277.893,  1277.888, 0.008575, 0.021105,-1.004092, 0.000084, 0.000206,-0.009996,-0.021432,-0.036190, 0.220023,1,-0.000561,-0.008438, 0.000743,1,-0.150923,-0.254433, 9.802187,1,0
1778780242296,  1277.913,  1277.908, 0.018691, 0.030732,-1.003100, 0.000181, 0.000307,-0.010080,-0.026349,-0.008793,-0.202270,1,-0.007549,-0.003353, 0.000582,1,-0.148150,-0.256644, 9.802172,1,0
1778780242323,  1277.938,  1277.938, 0.015953, 0.022532,-0.977262, 0.000169, 0.000236,-0.009748, 0.005357,-0.033753, 0.218514,1,-0.001353,-0.007140, 0.001062,1,-0.150871,-0.254759, 9.802179,1,0
1778780242344,  1277.963,  1277.958, 0.016955, 0.032514,-0.997671, 0.000170, 0.000325,-0.010028,-0.015685, 0.006622,-0.175865,1,-0.006307,-0.000990,-0.001014,1,-0.148727,-0.256616, 9.802164,1,0
1778780242366,  1277.983,  1277.978, 0.013252, 0.021208,-0.979473, 0.000145, 0.000223,-0.009756, 0.022772, 0.023881, 0.256979,1, 0.011178, 0.012891, 0.001118,1,-0.151900,-0.254846, 9.802161,1,0
1778780242393,  1278.008,  1278.008, 0.014065, 0.027271,-1.025248, 0.000132, 0.000262,-0.010260,-0.010391, 0.011123,-0.252069,1,-0.003571,-0.003013,-0.000743,1,-0.148231,-0.256427, 9.802176,1,0
1778780242414,  1278.033,  1278.028, 0.017028, 0.020862,-0.974956, 0.000174, 0.000217,-0.009710, 0.064879, 0.020437, 0.254859,1, 0.012504, 0.015049, 0.000353,1,-0.151768,-0.254042, 9.802184,1,0
1778780242436,  1278.053,  1278.048, 0.010252, 0.025364,-1.018165, 0.000091, 0.000245,-0.010183,-0.058405,-0.047611,-0.032416,1,-0.012983,-0.019313,-0.000189,1,-0.149335,-0.255224, 9.802191,1,0
1778780242463,  1278.078,  1278.078, 0.018127, 0.026873,-0.976704, 0.000180, 0.000277,-0.009787, 0.026483, 0.008474, 0.223974,1, 0.007009, 0.012119, 0.000523,1,-0.151659,-0.254842, 9.802165,1,0
1778780242484,  1278.103,  1278.098, 0.017548, 0.028592,-1.017398, 0.000169, 0.000279,-0.010199,-0.012674,-0.014463,-0.086994,1,-0.011790,-0.015939, 0.000356,1,-0.149207,-0.256227, 9.802167,1,0
1778780242506,  1278.123,  1278.118, 0.017300, 0.025936,-0.969580, 0.000187, 0.000270,-0.009721, 0.044068, 0.053666, 0.051270,1, 0.010910, 0.019758,-0.000668,1,-0.150726,-0.255836, 9.802154,1,0
1778780242533,  1278.148,  1278.148, 0.007287, 0.020593,-1.008771, 0.000078, 0.000200,-0.010050,-0.078518,-0.052985,-0.090475,1,-0.010692,-0.019834, 0.000389,1,-0.149360,-0.255263, 9.802190,1,0
1778780242555,  1278.173,  1278.168, 0.020256, 0.027159,-0.975926, 0.000207, 0.000280,-0.009778, 0.026634, 0.054523,-0.004729,1, 0.010208, 0.017550,-0.000317,1,-0.150409,-0.255065, 9.802178,1,0
1778780242576,  1278.193,  1278.188, 0.012787, 0.022695,-1.008901, 0.000126, 0.000215,-0.010048, 0.014022,-0.044149, 0.166890,1,-0.003845,-0.010688, 0.001021,1,-0.151256,-0.254192, 9.802188,1,0
1778780242603,  1278.218,  1278.218, 0.016701, 0.031257,-0.995793, 0.000156, 0.000312,-0.009998, 0.013405, 0.051010, 0.036771,1, 0.010618, 0.018927,-0.000960,1,-0.150967,-0.255190, 9.802167,1,0
1778780242625,  1278.243,  1278.238, 0.010486, 0.023341,-1.011862, 0.000095, 0.000222,-0.010078,-0.028008,-0.049306, 0.165345,1,-0.006354,-0.014106, 0.000466,1,-0.151122,-0.254556, 9.802180,1,0
1778780242646,  1278.263,  1278.258, 0.020981, 0.030803,-0.994174, 0.000199, 0.000313,-0.009994, 0.003150, 0.013637,-0.190587,1,-0.003900, 0.001782,-0.000104,1,-0.148856,-0.256553, 9.802163,1,0
1778780242673,  1278.288,  1278.288, 0.015442, 0.021499,-0.980712, 0.000168, 0.000221,-0.009773,-0.000047,-0.043837, 0.184668,1,-0.004638,-0.012263, 0.000618,1,-0.151099,-0.254817, 9.802175,1,0
1778780242695,  1278.313,  1278.308, 0.016334, 0.029150,-0.992430, 0.000159, 0.000302,-0.009974,-0.032975, 0.010656,-0.151318,1,-0.001623, 0.004002,-0.000398,1,-0.149313,-0.256267, 9.802164,1,0
1778780242718,  1278.333,  1278.333, 0.013473, 0.021932,-0.987150, 0.000151, 0.000222,-0.009832,-0.019202,-0.039483, 0.121545,1,-0.005678,-0.014587, 0.000107,1,-0.150870,-0.254742, 9.802179,1,0
1778780242743,  1278.358,  1278.358, 0.017001, 0.028535,-1.016190, 0.000165, 0.000277,-0.010181, 0.017605, 0.023706,-0.163252,1,-0.000945, 0.003443,-0.000667,1,-0.149225,-0.256161, 9.802168,1,0
1778780242765,  1278.383,  1278.378, 0.012505, 0.020565,-0.987035, 0.000129, 0.000206,-0.009822, 0.030502,-0.005499, 0.245373,1, 0.006188, 0.006449,-0.000243,1,-0.151924,-0.254436, 9.802172,1,0
1778780242788,  1278.403,  1278.403, 0.014062, 0.027882,-1.015952, 0.000124, 0.000267,-0.010179,-0.011270, 0.016526,-0.160933,1,-0.003549, 0.004659,-0.000920,1,-0.149319,-0.257011, 9.802144,1,0
1778780242813,  1278.428,  1278.428, 0.017585, 0.026631,-0.974336, 0.000174, 0.000276,-0.009748, 0.020917, 0.005426, 0.247175,1, 0.006297, 0.005288, 0.000470,1,-0.151696,-0.255537, 9.802146,1,0
1778780242835,  1278.453,  1278.448, 0.016273, 0.030096,-1.013428, 0.000160, 0.000290,-0.010167,-0.022079,-0.017896,-0.129164,1,-0.010493,-0.011842, 0.000638,1,-0.149017,-0.256951, 9.802151,1,0
1778780242858,  1278.473,  1278.473, 0.015608, 0.024990,-0.971169, 0.000171, 0.000258,-0.009720, 0.001248,-0.010085, 0.278242,1, 0.008605, 0.004621, 0.001119,1,-0.151959,-0.254883, 9.802159,1,0
1778780242883,  1278.498,  1278.498, 0.008637, 0.022902,-1.014140, 0.000087, 0.000224,-0.010116,-0.064610,-0.031553,-0.143149,1,-0.011438,-0.014810,-0.000372,1,-0.148851,-0.256501, 9.802165,1,0
1778780242905,  1278.523,  1278.518, 0.019545, 0.026345,-0.974595, 0.000205, 0.000267,-0.009745, 0.059562, 0.041212, 0.081727,1, 0.010142, 0.018185,-0.000196,1,-0.150939,-0.255929, 9.802148,1,0
1778780242928,  1278.543,  1278.543, 0.011815, 0.024860,-1.013702, 0.000114, 0.000241,-0.010107,-0.033690,-0.012325,-0.138854,1,-0.009582,-0.012420,-0.000624,1,-0.149168,-0.256422, 9.802162,1,0
1778780242953,  1278.568,  1278.568, 0.018692, 0.030897,-0.987530, 0.000175, 0.000312,-0.009909, 0.032453, 0.046877, 0.117779,1, 0.009911, 0.018680, 0.000107,1,-0.151432,-0.255810, 9.802143,1,0
1778780242975,  1278.593,  1278.588, 0.008796, 0.023758,-1.016906, 0.000076, 0.000232,-0.010143,-0.044623,-0.044362, 0.093156,1,-0.007820,-0.017923, 0.000924,1,-0.150563,-0.255592, 9.802162,1,0
1778780242998,  1278.613,  1278.613, 0.022247, 0.029822,-0.990349, 0.000213, 0.000305,-0.009947, 0.067692, 0.036729, 0.090158,1, 0.012730, 0.018314,-0.000743,1,-0.151051,-0.255324, 9.802162,1,0
1778780243024,  1278.638,  1278.638, 0.014407, 0.021897,-0.984009, 0.000158, 0.000224,-0.009807,-0.009908,-0.039784, 0.152349,1,-0.004934,-0.012746, 0.000935,1,-0.150791,-0.254676, 9.802183,1,0
1778780243045,  1278.663,  1278.658, 0.016391, 0.028229,-0.989882, 0.000163, 0.000287,-0.009940,-0.027811,-0.003019,-0.112748,1,-0.002102, 0.004912,-0.000445,1,-0.149564,-0.255928, 9.802169,1,0
1778780243068,  1278.688,  1278.683, 0.012883, 0.023805,-0.991167, 0.000137, 0.000237,-0.009873,-0.024587,-0.021691, 0.082141,1,-0.006839,-0.014601,-0.000133,1,-0.150466,-0.255355, 9.802170,1,0
1778780243094,  1278.708,  1278.708, 0.019401, 0.028213,-1.014025, 0.000189, 0.000272,-0.010162, 0.040972, 0.019913,-0.142041,1,-0.000709, 0.007009,-0.000827,1,-0.149505,-0.256780, 9.802148,1,0
1778780243115,  1278.733,  1278.728, 0.009809, 0.021160,-0.985421, 0.000098, 0.000210,-0.009806, 0.021667, 0.006189, 0.264575,1, 0.009977, 0.006299, 0.000122,1,-0.152283,-0.254676, 9.802159,1,0
1778780243138,  1278.758,  1278.753, 0.013453, 0.026925,-1.016832, 0.000120, 0.000254,-0.010187,-0.017207, 0.007747,-0.169556,1,-0.004444, 0.001415,-0.001077,1,-0.149177,-0.256437, 9.802161,1,0
1778780243164,  1278.778,  1278.778, 0.019871, 0.028185,-0.976496, 0.000198, 0.000294,-0.009770, 0.043488, 0.021171, 0.226001,1, 0.006812, 0.006071,-0.000355,1,-0.151564,-0.255017, 9.802162,1,0
1778780243185,  1278.803,  1278.798, 0.014738, 0.027640,-1.016263, 0.000144, 0.000266,-0.010195,-0.046494,-0.035545,-0.131581,1,-0.009436,-0.015068,-0.000355,1,-0.148643,-0.256278, 9.802174,1,1
1778780243208,  1278.828,  1278.823, 0.016656, 0.026665,-0.970316, 0.000179, 0.000277,-0.009719, 0.011696, 0.006701, 0.286617,1, 0.008445, 0.008912, 0.000603,1,-0.151922,-0.254526, 9.802169,1,1
1778780243234,  1278.848,  1278.848, 0.009751, 0.022186,-1.012059, 0.000097, 0.000211,-0.010086,-0.053654,-0.038200,-0.122732,1,-0.015209,-0.018615,-0.000354,1,-0.148654,-0.256218, 9.802176,1,1
1778780243255,  1278.873,  1278.868, 0.020734, 0.027747,-0.971096, 0.000217, 0.000285,-0.009717,-0.013195, 0.023532,-0.195049,1,-0.005170, 0.001122,-0.000453,1,-0.148414,-0.257009, 9.802158,1,1
1778780243278,  1278.898,  1278.893, 0.011876, 0.023381,-1.010601, 0.000114, 0.000232,-0.010061,-0.032822,-0.026603,-0.108434,1,-0.010472,-0.017671, 0.000361,1,-0.148738,-0.256215, 9.802174,1,1
1778780243304,  1278.918,  1278.918, 0.019034, 0.029395,-0.995298, 0.000182, 0.000299,-0.009990, 0.036768, 0.032397, 0.041624,1, 0.013097, 0.019242,-0.000531,1,-0.150496,-0.255463, 9.802167,1,1
1778780243325,  1278.943,  1278.938, 0.008749, 0.022784,-1.011069, 0.000082, 0.000217,-0.010075,-0.033249,-0.045395, 0.161277,1,-0.004749,-0.014108, 0.000494,1,-0.150662,-0.254396, 9.802192,1,1
1778780243348,  1278.968,  1278.963, 0.019931, 0.030212,-0.994905, 0.000191, 0.000308,-0.009999, 0.045766, 0.040291, 0.045480,1, 0.009865, 0.019793,-0.000294,1,-0.150305,-0.255684, 9.802164,1,1
1778780243374,  1278.988,  1278.988, 0.013985, 0.021142,-0.983645, 0.000155, 0.000219,-0.009802,-0.013837,-0.047585, 0.155915,1,-0.006269,-0.013495, 0.000500,1,-0.150558,-0.255109, 9.802176,1,1
1778780243396,  1279.013,  1279.008, 0.017195, 0.029539,-0.991635, 0.000173, 0.000303,-0.009970,-0.017023, 0.010973,-0.175293,1,-0.001524, 0.003634,-0.000268,1,-0.148615,-0.256812, 9.802160,1,1
1778780243423,  1279.038,  1279.038, 0.013478, 0.021669,-0.982340, 0.000146, 0.000224,-0.009775,-0.018803,-0.042597, 0.168699,1,-0.007242,-0.014834, 0.000436,1,-0.150518,-0.255324, 9.802170,1,1
1778780243444,  1279.058,  1279.058, 0.014321, 0.027941,-1.020482, 0.000137, 0.000267,-0.010219,-0.007869, 0.016790,-0.205355,1,-0.001996, 0.002287,-0.000577,1,-0.148381,-0.257275, 9.802152,1,1
1778780243466,  1279.083,  1279.078, 0.014427, 0.022968,-0.983090, 0.000145, 0.000228,-0.009785, 0.028837, 0.014939, 0.249507,1, 0.010980, 0.008948, 0.000150,1,-0.151480,-0.254797, 9.802169,1,1
1778780243493,  1279.108,  1279.108, 0.015893, 0.026956,-1.013386, 0.000148, 0.000260,-0.010153, 0.007264, 0.007661,-0.135757,1,-0.003714, 0.002758,-0.000497,1,-0.148679,-0.256807, 9.802159,1,1
1778780243514,  1279.133,  1279.128, 0.012052, 0.022528,-0.987042, 0.000128, 0.000228,-0.009839, 0.012932, 0.009501, 0.219669,1, 0.007077, 0.006583, 0.000533,1,-0.151213,-0.255128, 9.802164,1,1
1778780243536,  1279.153,  1279.148, 0.016047, 0.028381,-1.013437, 0.000159, 0.000272,-0.010163,-0.033075,-0.024329,-0.097307,1,-0.011547,-0.013407,-0.000287,1,-0.148608,-0.256745, 9.802162,1,1
1778780243563,  1279.178,  1279.178, 0.016363, 0.027324,-0.973237, 0.000173, 0.000284,-0.009745, 0.009459, 0.012312, 0.257959,1, 0.010147, 0.008774, 0.000513,1,-0.151282,-0.255327, 9.802158,1,1
1778780243584,  1279.203,  1279.198, 0.015716, 0.029203,-1.017292, 0.000151, 0.000279,-0.010187,-0.034305,-0.043165,-0.095129,1,-0.011985,-0.016496,-0.000001,1,-0.148707,-0.256656, 9.802163,1,1
1778780243606,  1279.223,  1279.218, 0.017933, 0.026482,-0.974866, 0.000183, 0.000278,-0.009752, 0.039825, 0.062966, 0.039589,1, 0.012979, 0.016018, 0.000324,1,-0.150036,-0.256041, 9.802158,1,1
1778780243633,  1279.248,  1279.248, 0.011468, 0.021133,-1.010016, 0.000106, 0.000201,-0.010057,-0.036386,-0.048430,-0.102683,1,-0.014109,-0.017900, 0.000143,1,-0.148303,-0.256125, 9.802183,1,1
1778780243654,  1279.273,  1279.268, 0.018277, 0.026605,-0.974392, 0.000184, 0.000277,-0.009752, 0.046540, 0.047961, 0.040218,1, 0.011452, 0.017554,-0.000224,1,-0.149731,-0.255897, 9.802167,1,1
1778780243676,  1279.293,  1279.288, 0.008943, 0.023276,-1.009986, 0.000086, 0.000228,-0.010070,-0.035528,-0.048013, 0.150907,1,-0.006093,-0.014137,-0.000167,1,-0.149835,-0.254948, 9.802191,1,1
1778780243703,  1279.318,  1279.318, 0.019853, 0.029238,-0.992819, 0.000197, 0.000299,-0.009978, 0.045395, 0.030188, 0.065923,1, 0.009561, 0.020159,-0.000245,1,-0.149924,-0.256238, 9.802155,1,1
1778780243724,  1279.343,  1279.338, 0.008637, 0.022354,-1.010719, 0.000095, 0.000220,-0.010083,-0.030060,-0.043567, 0.152336,1,-0.004507,-0.013712,-0.000249,1,-0.150017,-0.255487, 9.802174,1,1
1778780243746,  1279.363,  1279.358, 0.018337, 0.030357,-0.993054, 0.000185, 0.000310,-0.009980,-0.017012, 0.008382,-0.172794,1,-0.001892, 0.003141,-0.000300,1,-0.148147,-0.257051, 9.802161,1,1
1778780243773,  1279.388,  1279.388, 0.013376, 0.021954,-0.983591, 0.000142, 0.000225,-0.009791,-0.019275,-0.039701, 0.156445,1,-0.004503,-0.013988, 0.000614,1,-0.150015,-0.255140, 9.802182,1,1
1778780243795,  1279.413,  1279.408, 0.020479, 0.031141,-0.995902, 0.000200, 0.000313,-0.010002, 0.007643, 0.004999,-0.200647,1,-0.000614, 0.002171,-0.001326,1,-0.147877,-0.256673, 9.802175,1,1
1778780243816,  1279.433,  1279.428, 0.014815, 0.021151,-0.980696, 0.000147, 0.000222,-0.009763, 0.039276, 0.017618, 0.261779,1, 0.011480, 0.008839, 0.000466,1,-0.150861,-0.254246, 9.802193,1,1
1778780243843,  1279.458,  1279.458, 0.015136, 0.026726,-1.018151, 0.000142, 0.000256,-0.010197, 0.000961, 0.005451,-0.182470,1,-0.006585, 0.000161,-0.000949,1,-0.147476,-0.256846, 9.802176,1,1
1778780243865,  1279.483,  1279.478, 0.010986, 0.021357,-0.981542, 0.000120, 0.000222,-0.009783, 0.013189, 0.012924, 0.252042,1, 0.010907, 0.009349, 0.000050,1,-0.150311,-0.254812, 9.802187,1,1
1778780243886,  1279.503,  1279.498, 0.016136, 0.027524,-1.018538, 0.000160, 0.000266,-0.010207,-0.046362,-0.039838,-0.096393,1,-0.012641,-0.018190, 0.000055,1,-0.147321,-0.256096, 9.802198,1,1
1778780243913,  1279.528,  1279.528, 0.018580, 0.027745,-0.969643, 0.000203, 0.000290,-0.009719, 0.032136, 0.017454, 0.293247,1, 0.012806, 0.011712, 0.000490,1,-0.150441,-0.254232, 9.802199,1,1
1778780243935,  1279.553,  1279.548, 0.012662, 0.027377,-1.023322, 0.000121, 0.000262,-0.010245,-0.066131,-0.049256,-0.096412,1,-0.014677,-0.021772, 0.000028,1,-0.147171,-0.255665, 9.802212,1,1
1778780243958,  1279.573,  1279.573, 0.019032, 0.027418,-0.974632, 0.000194, 0.000285,-0.009762, 0.037176, 0.014289, 0.244331,1, 0.012549, 0.012849, 0.000341,1,-0.149869,-0.254197, 9.802209,1,1
1778780243983,  1279.598,  1279.598, 0.010225, 0.021515,-1.009340, 0.000101, 0.000206,-0.010044,-0.047073,-0.044280,-0.096030,1,-0.014413,-0.021816, 0.000195,1,-0.146661,-0.255720, 9.802218,1,1
1778780244005,  1279.623,  1279.618, 0.016846, 0.027584,-0.972836, 0.000171, 0.000285,-0.009748, 0.015097, 0.053290, 0.001289,1, 0.011067, 0.020109,-0.000624,1,-0.147912,-0.255478, 9.802206,1,1
1778780244028,  1279.643,  1279.643, 0.011666, 0.020915,-1.006727, 0.000115, 0.000203,-0.010029,-0.032855,-0.050405,-0.070403,1,-0.017845,-0.019688, 0.000436,1,-0.146611,-0.256064, 9.802210,1,1
1778780244053,  1279.668,  1279.668, 0.017629, 0.031141,-0.997789, 0.000174, 0.000318,-0.010033, 0.025586, 0.049151, 0.017229,1, 0.013411, 0.020109, 0.000110,1,-0.147926,-0.255823, 9.802197,1,1
1778780244075,  1279.693,  1279.688, 0.011518, 0.021862,-1.005300, 0.000121, 0.000213,-0.010015,-0.019267,-0.051870, 0.240978,1,-0.003105,-0.011000, 0.000421,1,-0.148808,-0.254236, 9.802224,1,1
1778780244098,  1279.713,  1279.713, 0.019958, 0.030993,-0.999286, 0.000196, 0.000317,-0.010042, 0.048372, 0.047622, 0.002539,1, 0.011220, 0.019584,-0.000686,1,-0.147958,-0.255965, 9.802193,1,1
1778780244123,  1279.738,  1279.738, 0.014475, 0.021596,-0.979973, 0.000151, 0.000221,-0.009756,-0.007197,-0.042881, 0.191959,1,-0.005088,-0.012396, 0.000692,1,-0.148762,-0.254821, 9.802210,1,1
1778780244145,  1279.763,  1279.758, 0.018212, 0.031838,-0.999395, 0.000172, 0.000318,-0.010036,-0.003596, 0.012130,-0.213193,1,-0.004419,-0.000458,-0.001227,1,-0.146164,-0.257233, 9.802186,1,1
1778780244168,  1279.783,  1279.783, 0.014010, 0.021140,-0.980641, 0.000146, 0.000214,-0.009765,-0.011594,-0.047202, 0.185406,1,-0.006121,-0.013506,-0.000075,1,-0.148564,-0.254702, 9.802217,1,1
1778780244194,  1279.808,  1279.808, 0.014346, 0.027405,-1.020837, 0.000129, 0.000266,-0.010221,-0.005152, 0.012076,-0.208789,1,-0.002820, 0.000725,-0.000493,1,-0.145864,-0.256766, 9.802203,1,1
1778780244215,  1279.833,  1279.828, 0.015083, 0.021404,-0.977732, 0.000159, 0.000222,-0.009744, 0.026822, 0.013234, 0.268117,1, 0.009887, 0.011377,-0.000243,1,-0.149096,-0.254365, 9.802217,1,1
1778780244238,  1279.853,  1279.853, 0.012419, 0.028323,-1.015205, 0.000131, 0.000276,-0.010177,-0.024446, 0.021173,-0.153557,1,-0.003478, 0.001306,-0.000338,1,-0.146273,-0.256686, 9.802198,1,1
1778780244264,  1279.878,  1279.878, 0.011892, 0.026551,-0.972661, 0.000131, 0.000278,-0.009743,-0.032338, 0.005695, 0.263668,1, 0.010590, 0.008431, 0.000068,1,-0.149226,-0.254349, 9.802216,1,1
1778780244285,  1279.903,  1279.898, 0.018019, 0.027506,-1.022855, 0.000171, 0.000267,-0.010240,-0.056038,-0.037761,-0.125052,1,-0.016672,-0.018249, 0.000560,1,-0.146097,-0.256446, 9.802208,1,1
1778780244308,  1279.928,  1279.923, 0.019036, 0.028406,-0.973606, 0.000199, 0.000290,-0.009748, 0.037393, 0.023406, 0.254379,1, 0.014103, 0.012522, 0.000676,1,-0.149677,-0.254717, 9.802198,1,1
1778780244334,  1279.948,  1279.948, 0.008455, 0.020716,-1.006456, 0.000081, 0.000198,-0.010023,-0.064762,-0.052330,-0.067751,1,-0.013377,-0.017385,-0.000447,1,-0.147131,-0.255904, 9.802206,1,1
1778780244355,  1279.973,  1279.968, 0.019398, 0.027168,-0.974017, 0.000193, 0.000288,-0.009751, 0.025003, 0.055003, 0.037815,1, 0.009746, 0.019842, 0.000024,1,-0.148711,-0.255890, 9.802183,1,1
1778780244378,  1279.998,  1279.993, 0.015549, 0.022116,-1.013280, 0.000154, 0.000214,-0.010099, 0.004844,-0.039150,-0.134687,1,-0.013297,-0.018552,-0.000202,1,-0.147064,-0.256445, 9.802194,1,1
1778780244404,  1280.018,  1280.018, 0.022813, 0.031254,-0.993080, 0.000229, 0.000321,-0.009992, 0.075394, 0.050879, 0.063410,1, 0.018176, 0.022889,-0.000543,1,-0.149041,-0.255053, 9.802199,1,1
1778780244425,  1280.043,  1280.038, 0.007089, 0.018622,-1.007662, 0.000077, 0.000181,-0.010029,-0.039923,-0.075114, 0.276564,1,-0.005912,-0.016081, 0.000084,1,-0.149507,-0.253609, 9.802230,1,1
1778780244448,  1280.068,  1280.058, 0.015498, 0.031001,-1.004457, 0.000152, 0.000314,-0.010095,-0.048479,-0.005663,-0.243860,1,-0.010363,-0.005449,-0.000246,1,-0.146048,-0.256695, 9.802202,1,1
1778780244474,  1280.088,  1280.088, 0.017069, 0.023810,-0.981942, 0.000173, 0.000241,-0.009781, 0.018579,-0.021889, 0.172635,1,-0.006797,-0.010305,-0.000369,1,-0.148490,-0.255599, 9.802194,1,1
1778780244495,  1280.113,  1280.108, 0.014381, 0.032351,-0.996009, 0.000144, 0.000329,-0.010001, 0.016658, 0.031104,-0.177151,1,-0.004916, 0.000494,-0.000606,1,-0.146274,-0.258113, 9.802161,1,1
1778780244518,  1280.138,  1280.133, 0.007765, 0.019290,-0.980927, 0.000075, 0.000197,-0.009759,-0.072965,-0.065457, 0.182600,1,-0.001389,-0.015395, 0.000393,1,-0.148633,-0.254673, 9.802216,1,1
1778780244544,  1280.158,  1280.158, 0.017315, 0.028200,-1.025373, 0.000157, 0.000269,-0.010276, 0.023971, 0.019883,-0.253268,1,-0.003936, 0.001148,-0.000379,1,-0.145871,-0.256785, 9.802202,1,1
1778780244565,  1280.183,  1280.178, 0.016697, 0.018811,-0.972576, 0.000184, 0.000197,-0.009688, 0.083626, 0.005139, 0.325743,1, 0.014391, 0.016483, 0.000700,1,-0.149972,-0.253753, 9.802219,1,1
1778780244588,  1280.208,  1280.203, 0.007943, 0.028819,-1.022386, 0.000082, 0.000277,-0.010243,-0.068208, 0.025345,-0.223996,1,-0.008007, 0.000243,-0.000781,1,-0.146107,-0.257521, 9.802179,1,1
1778780244614,  1280.228,  1280.228, 0.014184, 0.027128,-0.972332, 0.000147, 0.000286,-0.009744,-0.010232, 0.010472, 0.266867,1, 0.011011, 0.012671, 0.000089,1,-0.149725,-0.255220, 9.802185,1,1
1778780244636,  1280.253,  1280.248, 0.018802, 0.031023,-1.020282, 0.000190, 0.000303,-0.010225, 0.005438,-0.020017,-0.134786,1,-0.017344,-0.019547, 0.000019,1,-0.146139,-0.257505, 9.802179,1,1
1778780244663,  1280.278,  1280.278, 0.017705, 0.025278,-0.964509, 0.000185, 0.000264,-0.009652, 0.023780,-0.006648, 0.343597,1, 0.013739, 0.010012, 0.000700,1,-0.150161,-0.254109, 9.802207,1,1
1778780244684,  1280.298,  1280.298, 0.009534, 0.021231,-1.013759, 0.000088, 0.000198,-0.010084,-0.053512,-0.047910,-0.139373,1,-0.019555,-0.022398,-0.000134,1,-0.146306,-0.256729, 9.802197,1,1
1778780244706,  1280.323,  1280.318, 0.017438, 0.024726,-0.974558, 0.000172, 0.000261,-0.009752, 0.025233, 0.053539, 0.017706,1, 0.015876, 0.021318, 0.000175,1,-0.148136,-0.256120, 9.802186,1,1
1778780244733,  1280.348,  1280.348, 0.014779, 0.024399,-1.015589, 0.000145, 0.000232,-0.010131,-0.001579,-0.017086,-0.157317,1,-0.013920,-0.016033,-0.000383,1,-0.146007,-0.256789, 9.802200,1,1
1778780244754,  1280.373,  1280.368, 0.014286, 0.022456,-0.965914, 0.000155, 0.000241,-0.009662, 0.019082, 0.043540, 0.139801,1, 0.018716, 0.024134, 0.000487,1,-0.148952,-0.254897, 9.802205,1,1
1778780244776,  1280.393,  1280.388, 0.010061, 0.024088,-1.018679, 0.000097, 0.000226,-0.010167,-0.058763,-0.080004, 0.120200,1,-0.013825,-0.021514, 0.000066,1,-0.147928,-0.254953, 9.802219,1,1
1778780244803,  1280.418,  1280.418, 0.020958, 0.030294,-0.985605, 0.000211, 0.000318,-0.009906, 0.057276, 0.041808, 0.136723,1, 0.018485, 0.022738,-0.000192,1,-0.148963,-0.254695, 9.802210,1,1
1778780244824,  1280.443,  1280.438, 0.011075, 0.024280,-1.017936, 0.000109, 0.000227,-0.010153,-0.014065,-0.068263, 0.098058,1,-0.012474,-0.021361, 0.000178,1,-0.147842,-0.254600, 9.802230,1,1
1778780244846,  1280.463,  1280.458, 0.015105, 0.030056,-0.985649, 0.000139, 0.000311,-0.009894,-0.028535, 0.056767,-0.131634,1, 0.001879, 0.010636,-0.000542,1,-0.147043,-0.256538, 9.802191,1,1
1778780244873,  1280.488,  1280.488, 0.013417, 0.022023,-0.997481, 0.000132, 0.000213,-0.009922,-0.016717,-0.039617, 0.020247,1,-0.013631,-0.020144, 0.000726,1,-0.147666,-0.256013, 9.802196,1,1
1778780244894,  1280.513,  1280.508, 0.020650, 0.027472,-0.979278, 0.000206, 0.000291,-0.009832, 0.038961, 0.061548,-0.096417,1, 0.010750, 0.017061,-0.000144,1,-0.147801,-0.256497, 9.802181,1,1
1778780244916,  1280.533,  1280.528, 0.010296, 0.018667,-0.995868, 0.000110, 0.000182,-0.009917, 0.003985,-0.053129, 0.281390,1, 0.004905,-0.001964, 0.000866,1,-0.150142,-0.253707, 9.802217,1,1
1778780244943,  1280.558,  1280.558, 0.015178, 0.031610,-1.005217, 0.000153, 0.000312,-0.010100, 0.001200, 0.053689,-0.055628,1, 0.003573, 0.014332,-0.000468,1,-0.148088,-0.256192, 9.802184,1,1
1778780244964,  1280.583,  1280.578, 0.013558, 0.021320,-1.003949, 0.000145, 0.000204,-0.009996, 0.003871,-0.035643, 0.224470,1,-0.002547,-0.005692, 0.000610,1,-0.149738,-0.255104, 9.802188,1,1
1778780244986,  1280.603,  1280.598, 0.018433, 0.033408,-1.003306, 0.000183, 0.000337,-0.010082, 0.003817, 0.015270,-0.219068,1,-0.005404,-0.004053,-0.000973,1,-0.146954,-0.257402, 9.802170,1,1
1778780245013,  1280.628,  1280.628, 0.014543, 0.019752,-0.972476, 0.000151, 0.000206,-0.009682,-0.007792,-0.060382, 0.265474,1,-0.000299,-0.009211, 0.001080,1,-0.150119,-0.254089, 9.802208,1,1
1778780245035,  1280.653,  1280.648, 0.016460, 0.032006,-1.003602, 0.000150, 0.000322,-0.010078,-0.033458, 0.004814,-0.207225,1,-0.010049,-0.005876,-0.001010,1,-0.146805,-0.256836, 9.802187,1,1
1778780245056,  1280.673,  1280.668, 0.014621, 0.022027,-0.981809, 0.000148, 0.000224,-0.009779, 0.021916, 0.022910, 0.215160,1, 0.008107, 0.012758, 0.000277,1,-0.149873,-0.255312, 9.802180,1,1
1778780245083,  1280.698,  1280.698, 0.013947, 0.029340,-1.020151, 0.000133, 0.000286,-0.010218,-0.010148, 0.030037,-0.202100,1,-0.003506, 0.002394,-0.000257,1,-0.146999,-0.257796, 9.802158,1,1
1778780245105,  1280.723,  1280.718, 0.012944, 0.019808,-0.980268, 0.000139, 0.000205,-0.009768, 0.008399,-0.000512, 0.265206,1, 0.014197, 0.014305, 0.000862,1,-0.150656,-0.255005, 9.802176,1,1
1778780245126,  1280.743,  1280.738, 0.014281, 0.028620,-1.019238, 0.000141, 0.000279,-0.010220,-0.047105,-0.039060,-0.103124,1,-0.010724,-0.018368, 0.000711,1,-0.147883,-0.256064, 9.802191,1,1
1778780245153,  1280.768,  1280.768, 0.018719, 0.026197,-0.971559, 0.000201, 0.000273,-0.009729, 0.032878, 0.002438, 0.274451,1, 0.009928, 0.010784, 0.000548,1,-0.151033,-0.254162, 9.802193,1,1
1778780245175,  1280.793,  1280.788, 0.014375, 0.029395,-1.019130, 0.000138, 0.000283,-0.010207,-0.034681,-0.040855,-0.112094,1,-0.014486,-0.019397,-0.000186,1,-0.147950,-0.255916, 9.802194,1,1
1778780245198,  1280.813,  1280.813, 0.018646, 0.025736,-0.971842, 0.000185, 0.000264,-0.009725, 0.032194,-0.002191, 0.271676,1, 0.008773, 0.009771, 0.000618,1,-0.150969,-0.254302, 9.802190,1,1
1778780245223,  1280.838,  1280.838, 0.012961, 0.023224,-1.011450, 0.000119, 0.000216,-0.010076,-0.021319,-0.028181,-0.116750,1,-0.014840,-0.017844,-0.000434,1,-0.147862,-0.256396, 9.802182,1,1
1778780245245,  1280.863,  1280.858, 0.016629, 0.024849,-0.970195, 0.000169, 0.000259,-0.009709, 0.027600, 0.053006, 0.082915,1, 0.012076, 0.020169,-0.000373,1,-0.149617,-0.255858, 9.802170,1,1
1778780245268,  1280.883,  1280.883, 0.010728, 0.024598,-1.014981, 0.000105, 0.000232,-0.010126,-0.042614,-0.015182,-0.151377,1,-0.013362,-0.016405, 0.000300,1,-0.147305,-0.256822, 9.802179,1,1
1778780245293,  1280.908,  1280.908, 0.019421, 0.030525,-0.988588, 0.000198, 0.000320,-0.009939, 0.041442, 0.043132, 0.107430,1, 0.013871, 0.021482,-0.000201,1,-0.149687,-0.255779, 9.802171,1,1
1778780245315,  1280.933,  1280.928, 0.008619, 0.024154,-1.016858, 0.000084, 0.000233,-0.010145,-0.045228,-0.061107, 0.111181,1,-0.008069,-0.018410, 0.000196,1,-0.149038,-0.255451, 9.802190,1,1
1778780245338,  1280.953,  1280.953, 0.019260, 0.030147,-0.988708, 0.000186, 0.000313,-0.009928, 0.039689, 0.039539, 0.106256,1, 0.011965, 0.020058, 0.000247,1,-0.149810,-0.255724, 9.802171,1,1
1778780245363,  1280.978,  1280.978, 0.014726, 0.021151,-0.990595, 0.000153, 0.000208,-0.009852,-0.005275,-0.048064, 0.087761,1,-0.009700,-0.016813, 0.000559,1,-0.149167,-0.255790, 9.802178,1,1
1778780245385,  1281.003,  1280.998, 0.019578, 0.030742,-0.985637, 0.000185, 0.000320,-0.009893, 0.007211, 0.055115,-0.137790,1, 0.002160, 0.009302,-0.001671,1,-0.148177,-0.257100, 9.802159,1,1
1778780245408,  1281.023,  1281.023, 0.012385, 0.019822,-0.990920, 0.000128, 0.000197,-0.009856,-0.028143,-0.061369, 0.084570,1,-0.010802,-0.019291, 0.000636,1,-0.148996,-0.256095, 9.802174,1,1
1778780245433,  1281.048,  1281.048, 0.015415, 0.031285,-1.013721, 0.000141, 0.000305,-0.010179, 0.003546, 0.049516,-0.139047,1, 0.004420, 0.010411,-0.001174,1,-0.147918,-0.257141, 9.802162,1,1
1778780245455,  1281.073,  1281.068, 0.013458, 0.020795,-0.990869, 0.000148, 0.000205,-0.009872, 0.031119,-0.024711, 0.270535,1, 0.005760, 0.002400, 0.000915,1,-0.150518,-0.254931, 9.802180,1,1
1778780245478,  1281.093,  1281.093, 0.014686, 0.029754,-1.005534, 0.000150, 0.000288,-0.010096,-0.004393, 0.035235,-0.058747,1, 0.004785, 0.011818,-0.000721,1,-0.148779,-0.256406, 9.802169,1,1
1778780245504,  1281.118,  1281.118, 0.014072, 0.022111,-0.975542, 0.000153, 0.000226,-0.009737,-0.012696,-0.038345, 0.235372,1,-0.000635,-0.003758, 0.000404,1,-0.150583,-0.255202, 9.802173,1,1
1778780245525,  1281.143,  1281.138, 0.018369, 0.032274,-1.010886, 0.000176, 0.000312,-0.010147,-0.024873,-0.005616,-0.220119,1,-0.008227,-0.008255,-0.000946,1,-0.147644,-0.257203, 9.802165,1,1
1778780245548,  1281.168,  1281.163, 0.018042, 0.023773,-0.973808, 0.000181, 0.000246,-0.009712, 0.026114,-0.021960, 0.252373,1, 0.004705,-0.001237, 0.001387,1,-0.150781,-0.254944, 9.802176,1,1
1778780245574,  1281.188,  1281.188, 0.011365, 0.024085,-1.017888, 0.000098, 0.000233,-0.010160,-0.036693,-0.019921,-0.179891,1,-0.006000,-0.008627,-0.000452,1,-0.147878,-0.256303, 9.802185,1,1
1778780245595,  1281.213,  1281.208, 0.016676, 0.023389,-0.975243, 0.000168, 0.000244,-0.009732, 0.004585, 0.045890,-0.083405,1, 0.005881, 0.012066,-0.000955,1,-0.148811,-0.255913, 9.802181,1,1
1778780245618,  1281.238,  1281.233, 0.013246, 0.026243,-1.018604, 0.000127, 0.000254,-0.010184,-0.017643, 0.000616,-0.186917,1,-0.009371,-0.008774, 0.000081,1,-0.147272,-0.257032, 9.802175,1,1
1778780245644,  1281.258,  1281.258, 0.018384, 0.028464,-0.980192, 0.000191, 0.000295,-0.009842, 0.030680, 0.023409, 0.189774,1, 0.012146, 0.015754, 0.000527,1,-0.150101,-0.255347, 9.802176,1,1
1778780245665,  1281.283,  1281.278, 0.010365, 0.025298,-1.018397, 0.000101, 0.000249,-0.010181,-0.075719,-0.041966, 0.008165,1,-0.009700,-0.018342, 0.000418,1,-0.148288,-0.255828, 9.802191,1,1
1778780245688,  1281.308,  1281.303, 0.021830, 0.029056,-0.978507, 0.000216, 0.000300,-0.009814, 0.064301, 0.029186, 0.206295,1, 0.010437, 0.015724, 0.000454,1,-0.150272,-0.255426, 9.802171,1,1
1778780245714,  1281.328,  1281.328, 0.013071, 0.023203,-0.998789, 0.000133, 0.000224,-0.009936,-0.020930,-0.028305, 0.007406,1,-0.010490,-0.017296,-0.000200,1,-0.148568,-0.256177, 9.802177,1,1
1778780245735,  1281.353,  1281.348, 0.018724, 0.029116,-0.979888, 0.000183, 0.000304,-0.009816, 0.022002, 0.059201,-0.052932,1, 0.005922, 0.014004,-0.000813,1,-0.148732,-0.256699, 9.802161,1,1
1778780245758,  1281.378,  1281.373, 0.010142, 0.019885,-1.002724, 0.000102, 0.000193,-0.009980,-0.049329,-0.060726,-0.031176,1,-0.009815,-0.020814, 0.000043,1,-0.148142,-0.256035, 9.802188,1,1
1778780245784,  1281.398,  1281.398, 0.018766, 0.031582,-1.005611, 0.000178, 0.000311,-0.010109, 0.036141, 0.053228,-0.059495,1, 0.007273, 0.015754,-0.001040,1,-0.148379,-0.256259, 9.802178,1,1
1778780245806,  1281.423,  1281.418, 0.011459, 0.020309,-0.998862, 0.000126, 0.000196,-0.009952, 0.022374,-0.046109, 0.253953,1,-0.000699,-0.003940, 0.001035,1,-0.150205,-0.254885, 9.802186,1,1
1778780245828,  1281.448,  1281.443, 0.011868, 0.031016,-1.003387, 0.000119, 0.000309,-0.010081,-0.031882, 0.046899,-0.037712,1, 0.005029, 0.014821,-0.000582,1,-0.148753,-0.257103, 9.802151,1,1
1778780245854,  1281.468,  1281.468, 0.013825, 0.021904,-0.981023, 0.000144, 0.000226,-0.009779,-0.014612,-0.041263, 0.181603,1,-0.002784,-0.007947, 0.001257,1,-0.149941,-0.256155, 9.802157,1,1
1778780245876,  1281.493,  1281.488, 0.021788, 0.032390,-1.000815, 0.000209, 0.000323,-0.010049, 0.016395, 0.015446,-0.208915,1,-0.004093,-0.002274,-0.000289,1,-0.147439,-0.257905, 9.802150,1,1
1778780245903,  1281.518,  1281.518, 0.015019, 0.022236,-0.974601, 0.000155, 0.000227,-0.009709,-0.003399,-0.037412, 0.244596,1,-0.001404,-0.007521, 0.000799,1,-0.150450,-0.255517, 9.802166,1,1
1778780245924,  1281.538,  1281.538, 0.009115, 0.025748,-1.016723, 0.000081, 0.000251,-0.010166,-0.058507,-0.004479,-0.168479,1,-0.004537,-0.004519,-0.000401,1,-0.147754,-0.257119, 9.802165,1,1
1778780245946,  1281.563,  1281.558, 0.018393, 0.020670,-0.983454, 0.000182, 0.000216,-0.009804, 0.029966, 0.003239, 0.205006,1, 0.009286, 0.010460, 0.000415,1,-0.150190,-0.255436, 9.802173,1,1
1778780245973,  1281.588,  1281.588, 0.016576, 0.028358,-1.014992, 0.000166, 0.000279,-0.010175, 0.014755, 0.021339,-0.151493,1,-0.001186, 0.001115,-0.001059,1,-0.147838,-0.256791, 9.802173,1,1
1778780245994,  1281.613,  1281.608, 0.007849, 0.018762,-0.980534, 0.000096, 0.000195,-0.009772,-0.013285,-0.009476, 0.264492,1, 0.010159, 0.008971, 0.000938,1,-0.150684,-0.254691, 9.802184,1,1
1778780246016,  1281.633,  1281.628, 0.012719, 0.027613,-1.022600, 0.000123, 0.000271,-0.010246,-0.094270,-0.041412,-0.110287,1,-0.013696,-0.020339,-0.000306,1,-0.147494,-0.256299, 9.802191,1,1
1778780246043,  1281.658,  1281.658, 0.022367, 0.028228,-0.976503, 0.000231, 0.000293,-0.009781, 0.069880, 0.021557, 0.225966,1, 0.011992, 0.011555,-0.000076,1,-0.149821,-0.254890, 9.802192,1,1
1778780246064,  1281.683,  1281.678, 0.014686, 0.027514,-1.013585, 0.000140, 0.000267,-0.010145,-0.017883,-0.030682,-0.064397,1,-0.010455,-0.015625,-0.000308,1,-0.147566,-0.255836, 9.802201,1,1
1778780246086,  1281.703,  1281.698, 0.014964, 0.025147,-0.973719, 0.000151, 0.000259,-0.009742, 0.020504, 0.046013, 0.066522,1, 0.007479, 0.017688,-0.000408,1,-0.149031,-0.255744, 9.802182,1,1
1778780246113,  1281.728,  1281.728, 0.011324, 0.023809,-1.016850, 0.000099, 0.000223,-0.010130,-0.036253,-0.022840,-0.169703,1,-0.013910,-0.018584,-0.000301,1,-0.146727,-0.256764, 9.802190,1,1
1778780246134,  1281.753,  1281.748, 0.022462, 0.026537,-0.967612, 0.000236, 0.000281,-0.009697, 0.081746, 0.068759, 0.058492,1, 0.012550, 0.022101, 0.000026,1,-0.148663,-0.256203, 9.802176,1,1
1778780246156,  1281.773,  1281.768, 0.006482, 0.022401,-1.008264, 0.000072, 0.000212,-0.010052,-0.010708,-0.063433, 0.212725,1,-0.003861,-0.013875, 0.000940,1,-0.149071,-0.255197, 9.802196,1,1
1778780246183,  1281.798,  1281.798, 0.013945, 0.028867,-0.994570, 0.000135, 0.000299,-0.009995,-0.011275, 0.027049, 0.048787,1, 0.009531, 0.017231,-0.000617,1,-0.148566,-0.255745, 9.802189,1,1
1778780246204,  1281.823,  1281.818, 0.014215, 0.025013,-1.011672, 0.000141, 0.000239,-0.010089, 0.006422,-0.039013, 0.118826,1,-0.007457,-0.015069, 0.000348,1,-0.148264,-0.255565, 9.802198,1,1
1778780246226,  1281.843,  1281.838, 0.018296, 0.029894,-0.989773, 0.000177, 0.000309,-0.009931, 0.018988, 0.031376,-0.136654,1,-0.000275, 0.004701,-0.000711,1,-0.146973,-0.257005, 9.802180,1,1
1778780246253,  1281.868,  1281.868, 0.009636, 0.020075,-0.988760, 0.000103, 0.000202,-0.009840,-0.054450,-0.058577, 0.105768,1,-0.007940,-0.015355, 0.000443,1,-0.148468,-0.255689, 9.802192,1,1
1778780246275,  1281.893,  1281.888, 0.021602, 0.030918,-0.990744, 0.000201, 0.000316,-0.009945, 0.000818, 0.025483,-0.158278,1,-0.000694, 0.006069,-0.000498,1,-0.147139,-0.257241, 9.802172,1,1
1778780246296,  1281.913,  1281.908, 0.015484, 0.021337,-0.986989, 0.000159, 0.000219,-0.009835, 0.047874,-0.008079, 0.251709,1, 0.006074, 0.006071, 0.000776,1,-0.149872,-0.255537, 9.802175,1,1
1778780246323,  1281.938,  1281.938, 0.014925, 0.028577,-1.009724, 0.000151, 0.000278,-0.010134,-0.023806,-0.025810,-0.103336,1,-0.009304,-0.011315,-0.000302,1,-0.147357,-0.256918, 9.802176,1,1
1778780246345,  1281.963,  1281.958, 0.010032, 0.019421,-0.993293, 0.000116, 0.000194,-0.009894,-0.012257,-0.017946, 0.244992,1, 0.004239, 0.001763, 0.001215,1,-0.150000,-0.255318, 9.802178,1,1
1778780246366,  1281.983,  1281.978, 0.015797, 0.030502,-1.013691, 0.000154, 0.000296,-0.010174,-0.043521,-0.028005,-0.184678,1,-0.011261,-0.013452,-0.000610,1,-0.146872,-0.257420, 9.802171,1,1
1778780246393,  1282.008,  1282.008, 0.017562, 0.025535,-0.971875, 0.000184, 0.000264,-0.009706, 0.022387,-0.005602, 0.271327,1, 0.003714, 0.002419,-0.000040,1,-0.149915,-0.255894, 9.802164,1,1
1778780246415,  1282.033,  1282.028, 0.010831, 0.030131,-1.016000, 0.000096, 0.000292,-0.010185,-0.080105,-0.013101,-0.185288,1,-0.011169,-0.014108,-0.000664,1,-0.146710,-0.257969, 9.802158,1,1
1778780246438,  1282.053,  1282.053, 0.016327, 0.026406,-0.975714, 0.000160, 0.000267,-0.009746, 0.010835, 0.002642, 0.233675,1, 0.004133, 0.001179, 0.000629,1,-0.149313,-0.256180, 9.802166,1,1
1778780246463,  1282.078,  1282.078, 0.013031, 0.026296,-1.016267, 0.000118, 0.000253,-0.010145,-0.019149, 0.000626,-0.164003,1,-0.006344,-0.009240,-0.000580,1,-0.146649,-0.257446, 9.802174,1,1
1778780246485,  1282.103,  1282.098, 0.016350, 0.022760,-0.971703, 0.000176, 0.000233,-0.009714, 0.047781, 0.016430, 0.154125,1, 0.012594, 0.019810,-0.000005,1,-0.149465,-0.255906, 9.802171,1,1
1778780246508,  1282.123,  1282.123, 0.011981, 0.022131,-1.012908, 0.000115, 0.000215,-0.010121,-0.030510,-0.039185,-0.131049,1,-0.008785,-0.008834, 0.000473,1,-0.147724,-0.256492, 9.802182,1,1
1778780246533,  1282.148,  1282.148, 0.025977, 0.028897,-0.980750, 0.000259, 0.000301,-0.009846, 0.104833, 0.027172, 0.184282,1, 0.005198, 0.018031, 0.000321,1,-0.150474,-0.256051, 9.802152,1,1
1778780246555,  1282.173,  1282.168, 0.011483, 0.025203,-1.015668, 0.000112, 0.000243,-0.010134,-0.006827,-0.035772, 0.079939,1,-0.013308,-0.017259, 0.000954,1,-0.149392,-0.257297, 9.802135,1,1
1778780246578,  1282.193,  1282.193, 0.019189, 0.031076,-0.988619, 0.000180, 0.000312,-0.009915, 0.038802, 0.046876, 0.107082,1, 0.009411, 0.014478,-0.000529,1,-0.149834,-0.257584, 9.802121,1,1
1778780246603,  1282.218,  1282.218, 0.014716, 0.024338,-0.992899, 0.000149, 0.000240,-0.009883,-0.004886,-0.018611, 0.065127,1,-0.005360,-0.016641, 0.001348,1,-0.148681,-0.257457, 9.802142,1,1
1778780246625,  1282.243,  1282.238, 0.017182, 0.030864,-0.987686, 0.000166, 0.000317,-0.009910, 0.009466, 0.036620,-0.128987,1, 0.005545, 0.006269,-0.001287,1,-0.147564,-0.257673, 9.802154,1,1
1778780246648,  1282.263,  1282.263, 0.007750, 0.022527,-0.993656, 0.000084, 0.000222,-0.009896,-0.072631,-0.035061, 0.057749,1,-0.006404,-0.016318, 0.000324,1,-0.148125,-0.256178, 9.802184,1,1
1778780246674,  1282.288,  1282.288, 0.014926, 0.027043,-1.015975, 0.000143, 0.000263,-0.010197,-0.000409, 0.008099,-0.161135,1, 0.001391, 0.007664,-0.000971,1,-0.147025,-0.257060, 9.802177,1,1
1778780246695,  1282.313,  1282.308, 0.007915, 0.019627,-0.989502, 0.000093, 0.000199,-0.009857,-0.016120,-0.000360, 0.242186,1, 0.007402, 0.004103, 0.000694,1,-0.149545,-0.255258, 9.802187,1,1
1778780246718,  1282.333,  1282.333, 0.012951, 0.025263,-1.011473, 0.000123, 0.000243,-0.010136,-0.020394,-0.009208,-0.116989,1,-0.002115, 0.008573,-0.000359,1,-0.147664,-0.257015, 9.802169,1,1
1778780246744,  1282.358,  1282.358, 0.018597, 0.024926,-0.970758, 0.000191, 0.000259,-0.009697, 0.031969,-0.011617, 0.282270,1, 0.003137, 0.005363, 0.000736,1,-0.150571,-0.255956, 9.802153,1,1
1778780246765,  1282.383,  1282.378, 0.015457, 0.028069,-1.014172, 0.000139, 0.000271,-0.010164,-0.060027,-0.027919,-0.142701,1,-0.012189,-0.013507, 0.000038,1,-0.147806,-0.257822, 9.802146,1,1
1778780246788,  1282.408,  1282.403, 0.020631, 0.027193,-0.967955, 0.000210, 0.000280,-0.009682, 0.051533, 0.009784, 0.309732,1, 0.005841, 0.006413, 0.000690,1,-0.150990,-0.256707, 9.802127,1,1
1778780246814,  1282.428,  1282.428, 0.009598, 0.022091,-1.012900, 0.000093, 0.000215,-0.010094,-0.054207,-0.041416,-0.131025,1,-0.011570,-0.017331, 0.000460,1,-0.147794,-0.258415, 9.802131,1,1
1778780246835,  1282.453,  1282.448, 0.016944, 0.028288,-0.974303, 0.000177, 0.000290,-0.009760, 0.024622, 0.045529, 0.048328,1, 0.010349, 0.017882, 0.000626,1,-0.149037,-0.257692, 9.802131,1,1
1778780246858,  1282.478,  1282.473, 0.012997, 0.023725,-1.012931, 0.000133, 0.000230,-0.010095,-0.020214,-0.025396,-0.131321,1,-0.013969,-0.017603, 0.000624,1,-0.147126,-0.258499, 9.802138,1,1
1778780246884,  1282.498,  1282.498, 0.020846, 0.031720,-0.997735, 0.000211, 0.000319,-0.010021, 0.056079, 0.052401, 0.017674,1, 0.010974, 0.019590,-0.000230,1,-0.148960,-0.258321, 9.802115,1,1
1778780246905,  1282.523,  1282.518, 0.009319, 0.021800,-1.011821, 0.000091, 0.000207,-0.010076,-0.041406,-0.046369, 0.145847,1,-0.002569,-0.011472, 0.000385,1,-0.149499,-0.257069, 9.802140,1,1
1778780246928,  1282.548,  1282.543, 0.020445, 0.032570,-0.996360, 0.000191, 0.000324,-0.010002, 0.051394, 0.060476, 0.031141,1, 0.007930, 0.021224,-0.000472,1,-0.149769,-0.258683, 9.802094,1,1
1778780246954,  1282.568,  1282.568, 0.016398, 0.021940,-0.983346, 0.000167, 0.000222,-0.009789, 0.009964,-0.042706, 0.158769,1,-0.006297,-0.011345, 0.000120,1,-0.150496,-0.258063, 9.802098,1,1
1778780246975,  1282.593,  1282.588, 0.017840, 0.032510,-0.993247, 0.000181, 0.000332,-0.009986, 0.007321, 0.028819,-0.191384,1,-0.003652, 0.004755,-0.000564,1,-0.148635,-0.260169, 9.802072,1,1
1778780246998,  1282.618,  1282.613, 0.013061, 0.017848,-0.979350, 0.000139, 0.000183,-0.009756,-0.023838,-0.083012, 0.197934,1,-0.009067,-0.011937, 0.000880,1,-0.151553,-0.258328, 9.802075,1,1
1778780247024,  1282.638,  1282.638, 0.012805, 0.028501,-1.021154, 0.000130, 0.000273,-0.010242,-0.023904, 0.017901,-0.212080,1,-0.009192, 0.005348, 0.000410,1,-0.149646,-0.261884, 9.802011,1,1
1778780247046,  1282.663,  1282.658, 0.015263, 0.021990,-0.976249, 0.000164, 0.000218,-0.009728, 0.019565, 0.045518, 0.034960,1, 0.013246, 0.025135,-0.000264,1,-0.152154,-0.260754, 9.802002,1,1
1778780247068,  1282.688,  1282.683, 0.016878, 0.029012,-1.009708, 0.000155, 0.000278,-0.010113, 0.014379, 0.022699,-0.099868,1,-0.004587, 0.004522, 0.000225,1,-0.151281,-0.261956, 9.801983,1,1
1778780247094,  1282.708,  1282.708, 0.014196, 0.026382,-0.975914, 0.000145, 0.000270,-0.009753,-0.014186,-0.001531, 0.231547,1, 0.008608, 0.003005, 0.000294,1,-0.153497,-0.259985, 9.802001,1,1
1778780247116,  1282.733,  1282.728, 0.013956, 0.030253,-1.016841, 0.000127, 0.000288,-0.010191,-0.054909,-0.022829,-0.165450,1,-0.011904,-0.016234,-0.000069,1,-0.150286,-0.261648, 9.802007,1,1
1778780247143,  1282.758,  1282.758, 0.016573, 0.024463,-0.977908, 0.000163, 0.000261,-0.009779, 0.009458,-0.019990, 0.212008,1, 0.009482, 0.007068, 0.000967,1,-0.153290,-0.259590, 9.802015,1,1
1778780247164,  1282.778,  1282.778, 0.014558, 0.023313,-1.014775, 0.000146, 0.000221,-0.010128,-0.008419,-0.032153,-0.149524,1,-0.010109,-0.011873,-0.000842,1,-0.150811,-0.261086, 9.802013,1,1
1778780247186,  1282.803,  1282.798, 0.015413, 0.023122,-0.968806, 0.000168, 0.000252,-0.009693, 0.036154, 0.051066, 0.126658,1, 0.017611, 0.021091,-0.000045,1,-0.153544,-0.259413, 9.802015,1,1
1778780247213,  1282.828,  1282.828, 0.017515, 0.022190,-1.011204, 0.000179, 0.000209,-0.010087, 0.019698,-0.042263,-0.114496,1,-0.018047,-0.016333,-0.000069,1,-0.151558,-0.260430, 9.802020,1,1
1778780247234,  1282.853,  1282.848, 0.014153, 0.020532,-0.973221, 0.000142, 0.000233,-0.009729, 0.004697, 0.083463, 0.082297,1, 0.018528, 0.019004,-0.000662,1,-0.153625,-0.259460, 9.802013,1,1
1778780247256,  1282.873,  1282.868, 0.012522, 0.024580,-1.015512, 0.000122, 0.000236,-0.010115,-0.009820,-0.071964, 0.128291,1,-0.011334,-0.019064,-0.000673,1,-0.153142,-0.258415, 9.802049,1,1
1778780247283,  1282.898,  1282.898, 0.018685, 0.032207,-0.986268, 0.000182, 0.000340,-0.009905, 0.030293, 0.055866, 0.130027,1, 0.014837, 0.022308,-0.000023,1,-0.153642,-0.259511, 9.802011,1,1
1778780247304,  1282.923,  1282.918, 0.009162, 0.026104,-1.024196, 0.000080, 0.000248,-0.010217,-0.074846,-0.074102, 0.050336,1,-0.012552,-0.024506,-0.000546,1,-0.151982,-0.259228, 9.802045,1,1
1778780247326,  1282.943,  1282.938, 0.020378, 0.033057,-0.984118, 0.000203, 0.000348,-0.009897, 0.001287, 0.081621,-0.181377,1, 0.002255, 0.012587,-0.000679,1,-0.150673,-0.261125, 9.802015,1,1
1778780247353,  1282.968,  1282.968, 0.013597, 0.019414,-0.990527, 0.000145, 0.000190,-0.009857,-0.019595,-0.067843, 0.088304,1,-0.008984,-0.018419,-0.000013,1,-0.152357,-0.258508, 9.802058,1,1
1778780247374,  1282.993,  1282.988, 0.022126, 0.029596,-0.970148, 0.000220, 0.000323,-0.009741, 0.007407, 0.085879,-0.017084,1, 0.010372, 0.012790,-0.001005,1,-0.151886,-0.259340, 9.802044,1,1
1778780247396,  1283.013,  1283.008, 0.009666, 0.014190,-1.001918, 0.000107, 0.000133,-0.009953, 0.013522,-0.075696, 0.325322,1, 0.015029,-0.011244, 0.000298,1,-0.153166,-0.254603, 9.802148,1,1
1778780247423,  1283.038,  1283.038, 0.011840, 0.032842,-1.017591, 0.000121, 0.000313,-0.010224,-0.033911, 0.062299,-0.177104,1,-0.006714, 0.018776,-0.000424,1,-0.150603,-0.259983, 9.802047,1,1
1778780247444,  1283.063,  1283.058, 0.012187, 0.022806,-0.999443, 0.000124, 0.000220,-0.009947,-0.005756,-0.022936, 0.225649,1,-0.002610,-0.003594, 0.000427,1,-0.153086,-0.259071, 9.802032,1,1
1778780247466,  1283.083,  1283.078, 0.018150, 0.038224,-1.001973, 0.000174, 0.000381,-0.010060, 0.000901, 0.048657,-0.175795,1,-0.013351,-0.005313,-0.001562,1,-0.150022,-0.262466, 9.801989,1,1
1778780247493,  1283.108,  1283.108, 0.015762, 0.025275,-0.972687, 0.000162, 0.000262,-0.009696, 0.001111,-0.011753, 0.263213,1, 0.007572,-0.008966, 0.000529,1,-0.153179,-0.259378, 9.802022,1,1
1778780247515,  1283.133,  1283.128, 0.015041, 0.030416,-1.000083, 0.000152, 0.000308,-0.010050,-0.023415, 0.023815,-0.170302,1, 0.007379,-0.008043,-0.000365,1,-0.149583,-0.259043, 9.802087,1,1
1778780247536,  1283.153,  1283.148, 0.013827, 0.017452,-0.979966, 0.000143, 0.000184,-0.009765,-0.015714,-0.018389, 0.233698,1, 0.017423, 0.009931, 0.000578,1,-0.151858,-0.254955, 9.802159,1,1
1778780247563,  1283.178,  1283.178, 0.017150, 0.028548,-1.024822, 0.000171, 0.000273,-0.010260, 0.019788, 0.021692,-0.247945,1,-0.010304,-0.001941,-0.000497,1,-0.148340,-0.258593, 9.802117,1,1
1778780247585,  1283.203,  1283.198, 0.014082, 0.016869,-0.979492, 0.000149, 0.000176,-0.009756, 0.023492,-0.004762, 0.234205,1, 0.014524, 0.015783, 0.000470,1,-0.152110,-0.256132, 9.802124,1,1
1778780247606,  1283.223,  1283.218, 0.017464, 0.027179,-1.019030, 0.000162, 0.000258,-0.010199,-0.026131,-0.065110,-0.084111,1,-0.019721,-0.018423,-0.000163,1,-0.149631,-0.258134, 9.802110,1,1
1778780247633,  1283.248,  1283.248, 0.018467, 0.026939,-0.972984, 0.000187, 0.000281,-0.009735, 0.028655, 0.006404, 0.260361,1, 0.010979, 0.010504, 0.001366,1,-0.152762,-0.257489, 9.802079,1,1
1778780247655,  1283.273,  1283.268, 0.019216, 0.030659,-1.020660, 0.000166, 0.000295,-0.010236,-0.047732,-0.065582,-0.177822,1,-0.029507,-0.012480, 0.000165,1,-0.150293,-0.260905, 9.802027,1,1
1778780247678,  1283.293,  1283.293, 0.041897, 0.031593,-0.954980, 0.000412, 0.000350,-0.009566, 0.255942, 0.048559, 0.436785,1, 0.024512, 0.007039, 0.000554,1,-0.155144,-0.260495, 9.801962,1,1
1778780247703,  1283.318,  1283.318, 0.007458, 0.020314,-0.998786, 0.000090, 0.000205,-0.009942,-0.077682,-0.057370, 0.007383,1, 0.015264,-0.024589, 0.000409,1,-0.150056,-0.256105, 9.802156,1,1
1778780247725,  1283.343,  1283.338, 0.027083, 0.032528,-1.000946, 0.000271, 0.000315,-0.010028, 0.087152,-0.024867,-0.123336,1,-0.016277, 0.011778, 0.000753,1,-0.150779,-0.257695, 9.802104,1,1
1778780247748,  1283.363,  1283.363, 0.020673, 0.022696,-0.996161, 0.000199, 0.000230,-0.009936, 0.050110,-0.035179, 0.033066,1, 0.010672,-0.003354,-0.001546,1,-0.152514,-0.257421, 9.802084,1,1
1778780247773,  1283.388,  1283.388, 0.005907, 0.029738,-0.999444, 0.000057, 0.000294,-0.009994,-0.093407, 0.033992, 0.000901,1,-0.006673,-0.001884,-0.001052,1,-0.151279,-0.257846, 9.802093,1,1
1778780247795,  1283.413,  1283.408, 0.022151, 0.025406,-0.996729, 0.000216, 0.000231,-0.009935, 0.028602, 0.004967, 0.138085,1,-0.004114,-0.002996, 0.000861,1,-0.151636,-0.258806, 9.802061,1,1
1778780247818,  1283.433,  1283.433, 0.004543, 0.031156,-1.001832, 0.000046, 0.000322,-0.010027,-0.103895, 0.048147,-0.022470,1, 0.017987,-0.001795,-0.000747,1,-0.148387,-0.256831, 9.802163,1,1
1778780247843,  1283.458,  1283.458, 0.004281, 0.018787,-0.992627, 0.000029, 0.000187,-0.009916,-0.107072,-0.070781, 0.067852,1,-0.002658,-0.006384, 0.000363,1,-0.148880,-0.255103, 9.802201,1,1
1778780247865,  1283.483,  1283.478, 0.015278, 0.033161,-0.992192, 0.000158, 0.000346,-0.009943, 0.011070, 0.049712,-0.030572,1,-0.013617, 0.004566,-0.000061,1,-0.148230,-0.258461, 9.802123,1,1
1778780247888,  1283.503,  1283.503, 0.005376, 0.020883,-0.996129, 0.000056, 0.000206,-0.009942,-0.097118,-0.052732, 0.033432,1,-0.004693,-0.006808, 0.000101,1,-0.149631,-0.257669, 9.802122,1,1
1778780247914,  1283.528,  1283.528, 0.020197, 0.031836,-1.003145, 0.000192, 0.000307,-0.010072, 0.048386, 0.052808,-0.035419,1,-0.003553, 0.013737,-0.000009,1,-0.150103,-0.259511, 9.802067,1,1
1778780247935,  1283.553,  1283.548, 0.011581, 0.015049,-0.986769, 0.000122, 0.000149,-0.009825, 0.011940,-0.015879, 0.318056,1, 0.010769, 0.003543, 0.001257,1,-0.152869,-0.257356, 9.802080,1,1
1778780247958,  1283.573,  1283.573, 0.011978, 0.030821,-1.010039, 0.000110, 0.000298,-0.010125,-0.032599, 0.042776,-0.103034,1,-0.003896, 0.008153,-0.000161,1,-0.150317,-0.259591, 9.802061,1,1
1778780247984,  1283.598,  1283.598, 0.014891, 0.022457,-0.975487, 0.000139, 0.000234,-0.009731,-0.006678,-0.038059, 0.235799,1, 0.003971, 0.000886, 0.000939,1,-0.152733,-0.258167, 9.802061,1,1
1778780248005,  1283.623,  1283.618, 0.013142, 0.033247,-1.010775, 0.000120, 0.000327,-0.010144,-0.032698,-0.001164,-0.188013,1,-0.015889,-0.012339,-0.000156,1,-0.149389,-0.261054, 9.802036,1,1
1778780248028,  1283.648,  1283.643, 0.015052, 0.021952,-0.978019, 0.000151, 0.000215,-0.009760,-0.004315,-0.043655, 0.210966,1, 0.000285,-0.003356,-0.000703,1,-0.151451,-0.258827, 9.802064,1,1
1778780248054,  1283.668,  1283.668, 0.010305, 0.021032,-0.999733, 0.000108, 0.000207,-0.009962,-0.027675, 0.019551,-0.173872,1,-0.009324,-0.005978,-0.000633,1,-0.148511,-0.261344, 9.802042,1,1
1778780248075,  1283.693,  1283.688, 0.011170, 0.020741,-0.980191, 0.000116, 0.000215,-0.009772,-0.016508, 0.009843, 0.219786,1, 0.013617, 0.011315, 0.000723,1,-0.150962,-0.259379, 9.802056,1,1
1778780248098,  1283.718,  1283.713, 0.014260, 0.031076,-1.022671, 0.000137, 0.000295,-0.010237,-0.007657, 0.044200,-0.226903,1,-0.002177,-0.002409,-0.000863,1,-0.147419,-0.260617, 9.802078,1,1
1778780248124,  1283.738,  1283.738, 0.017217, 0.029380,-0.972320, 0.000177, 0.000313,-0.009741, 0.018403, 0.030200, 0.266904,1, 0.016799, 0.013233, 0.000715,1,-0.150856,-0.257396, 9.802111,1,1
1778780248145,  1283.763,  1283.758, 0.008293, 0.030246,-1.021153, 0.000070, 0.000285,-0.010226,-0.073799,-0.063836,-0.109601,1,-0.011901,-0.022626, 0.000177,1,-0.147566,-0.258198, 9.802139,1,1
1778780248168,  1283.788,  1283.783, 0.020586, 0.024901,-0.970839, 0.000199, 0.000261,-0.009719, 0.051229,-0.012190, 0.281458,1, 0.010554, 0.013212,-0.000389,1,-0.151066,-0.256057, 9.802142,1,1
1778780248194,  1283.808,  1283.808, 0.014959, 0.023841,-1.008587, 0.000147, 0.000227,-0.010046,-0.002018,-0.023883,-0.088726,1,-0.014900,-0.016533,-0.000564,1,-0.148199,-0.258152, 9.802132,1,1
1778780248215,  1283.833,  1283.828, 0.012673, 0.023639,-0.970278, 0.000135, 0.000249,-0.009710,-0.005725, 0.058813, 0.101838,1, 0.013852, 0.020125,-0.000133,1,-0.150192,-0.257214, 9.802126,1,1
1778780248238,  1283.858,  1283.853, 0.013385, 0.025571,-1.017838, 0.000128, 0.000241,-0.010155,-0.016412,-0.007852,-0.179453,1,-0.015154,-0.015344,-0.000416,1,-0.147188,-0.259088, 9.802122,1,1
1778780248264,  1283.878,  1283.878, 0.022729, 0.032556,-0.988032, 0.000227, 0.000340,-0.009936, 0.073570, 0.061172, 0.112830,1, 0.015619, 0.022583,-0.000071,1,-0.150026,-0.257603, 9.802118,1,1
1778780248286,  1283.903,  1283.898, 0.011183, 0.022968,-1.016461, 0.000109, 0.000216,-0.010139,-0.022697,-0.080936, 0.108741,1,-0.009451,-0.018854, 0.001500,1,-0.149296,-0.257358, 9.802135,1,1
1778780248308,  1283.928,  1283.923, 0.019121, 0.029163,-0.982741, 0.000182, 0.000304,-0.009864, 0.037605, 0.028253, 0.164718,1, 0.011282, 0.019210, 0.000245,1,-0.150503,-0.257381, 9.802116,1,1
1778780248334,  1283.948,  1283.948, 0.016400, 0.018194,-0.997028, 0.000166, 0.000176,-0.009912, 0.011308,-0.079672, 0.024605,1,-0.015962,-0.021679, 0.000378,1,-0.148846,-0.258593, 9.802110,1,1
1778780248356,  1283.973,  1283.968, 0.021526, 0.032615,-0.978810, 0.000210, 0.000342,-0.009828, 0.051142, 0.080266,-0.127719,1, 0.007296, 0.013966,-0.001566,1,-0.148377,-0.259742, 9.802087,1,1
1778780248383,  1283.998,  1283.998, 0.011771, 0.017178,-0.996142, 0.000128, 0.000171,-0.009903,-0.034029,-0.089763, 0.033290,1,-0.011694,-0.022657, 0.000894,1,-0.148752,-0.258581, 9.802112,1,1
1778780248404,  1284.018,  1284.018, 0.013964, 0.032996,-1.012197, 0.000136, 0.000328,-0.010174,-0.010818, 0.064500,-0.124148,1, 0.011117, 0.014260,-0.000694,1,-0.148199,-0.258738, 9.802115,1,1
1778780248426,  1284.043,  1284.038, 0.012985, 0.018309,-1.001074, 0.000140, 0.000172,-0.009963, 0.003660,-0.064864, 0.263353,1, 0.002343,-0.004107, 0.000425,1,-0.150205,-0.256341, 9.802148,1,1
1778780248453,  1284.068,  1284.068, 0.015329, 0.035949,-1.003372, 0.000152, 0.000355,-0.010090, 0.002118, 0.093940,-0.037596,1, 0.010192, 0.019908,-0.001248,1,-0.148833,-0.258278, 9.802118,1,1
1778780248474,  1284.093,  1284.088, 0.005896, 0.019391,-1.010117, 0.000060, 0.000175,-0.010037,-0.054929,-0.082909, 0.258605,1,-0.002819,-0.011522, 0.000842,1,-0.150311,-0.256704, 9.802137,1,1
1778780248496,  1284.113,  1284.108, 0.018443, 0.036650,-1.006485, 0.000164, 0.000365,-0.010122,-0.056009, 0.035941,-0.313299,1,-0.006433,-0.005397,-0.001147,1,-0.146479,-0.259393, 9.802124,1,1
1778780248523,  1284.138,  1284.138, 0.019754, 0.019079,-0.967203, 0.000202, 0.000196,-0.009623, 0.042962,-0.068910, 0.317131,1,-0.001593,-0.009254, 0.001093,1,-0.150466,-0.256060, 9.802152,1,1
1778780248544,  1284.163,  1284.158, 0.009884, 0.034125,-0.995909, 0.000081, 0.000347,-0.010013,-0.020434,-0.065661,-0.017232,1,-0.014575,-0.023153, 0.000843,1,-0.148055,-0.257455, 9.802152,1,1
1778780248566,  1284.183,  1284.178, 0.016549, 0.018859,-0.979810, 0.000169, 0.000187,-0.009749, 0.004990,-0.017759, 0.299834,1, 0.009054, 0.011564, 0.001416,1,-0.150771,-0.255624, 9.802158,1,1
1778780248593,  1284.208,  1284.208, 0.014934, 0.033396,-1.023887, 0.000158, 0.000321,-0.010274,-0.000059, 0.068126,-0.238774,1, 0.000113, 0.004129, 0.000130,1,-0.146645,-0.259369, 9.802122,1,1
1778780248614,  1284.233,  1284.228, 0.011630, 0.015874,-0.984127, 0.000130, 0.000157,-0.009789,-0.006048,-0.041916, 0.304643,1, 0.013178, 0.009708, 0.000997,1,-0.150482,-0.255764, 9.802159,1,1
1778780248636,  1284.253,  1284.248, 0.012003, 0.032138,-1.018492, 0.000125, 0.000312,-0.010225,-0.041029,-0.035366,-0.174473,1,-0.015741,-0.017720,-0.000231,1,-0.146666,-0.258274, 9.802151,1,1
1778780248663,  1284.278,  1284.278, 0.018058, 0.020609,-0.970328, 0.000180, 0.000221,-0.009687, 0.026543,-0.053936, 0.286479,1, 0.003150, 0.002859,-0.000459,1,-0.150636,-0.255944, 9.802152,1,1
1778780248684,  1284.303,  1284.298, 0.017926, 0.038053,-1.014580, 0.000173, 0.000373,-0.010189, 0.023396, 0.014433,-0.248095,1,-0.017616,-0.013284,-0.000676,1,-0.146790,-0.259806, 9.802109,1,1
1778780248706,  1284.323,  1284.318, 0.018066, 0.018749,-0.967358, 0.000174, 0.000202,-0.009642, 0.030101, 0.058427, 0.210421,1, 0.021341, 0.024191,-0.000281,1,-0.150712,-0.257094, 9.802121,1,1
1778780248733,  1284.348,  1284.348, 0.012033, 0.026908,-1.025340, 0.000111, 0.000247,-0.010247,-0.028893, 0.005038,-0.253023,1,-0.008686,-0.010627,-0.001104,1,-0.146560,-0.259110, 9.802131,1,1
1778780248755,  1284.373,  1284.368, 0.020447, 0.017042,-0.968249, 0.000210, 0.000182,-0.009651, 0.043435, 0.008287, 0.272447,1, 0.017855, 0.020337,-0.000096,1,-0.150584,-0.255724, 9.802158,1,1
1778780248776,  1284.393,  1284.388, 0.012813, 0.032172,-1.019944, 0.000141, 0.000304,-0.010220, 0.023070,-0.075503,-0.024957,1,-0.024796,-0.026173, 0.000542,1,-0.147330,-0.258421, 9.802137,1,1
1778780248803,  1284.418,  1284.418, 0.012498, 0.026262,-0.970199, 0.000126, 0.000281,-0.009726,-0.027229, 0.000448, 0.287734,1, 0.013049, 0.013233, 0.000735,1,-0.150209,-0.256682, 9.802139,1,1
1778780248825,  1284.443,  1284.438, 0.014575, 0.035944,-1.023901, 0.000148, 0.000341,-0.010271,-0.029688,-0.038633,-0.180389,1,-0.019317,-0.022670, 0.000292,1,-0.146225,-0.259624, 9.802122,1,1
1778780248846,  1284.463,  1284.458, 0.018725, 0.022243,-0.964275, 0.000183, 0.000238,-0.009639, 0.031006, 0.091010, 0.088649,1, 0.025136, 0.027479,-0.000868,1,-0.149077,-0.257023, 9.802148,1,1
1778780248873,  1284.488,  1284.488, 0.010304, 0.023430,-1.020475, 0.000103, 0.000209,-0.010159,-0.045729,-0.028486,-0.205296,1,-0.019163,-0.020725, 0.000118,1,-0.146129,-0.258858, 9.802144,1,1
1778780248895,  1284.513,  1284.508, 0.016132, 0.019953,-0.969759, 0.000153, 0.000210,-0.009680,-0.020021, 0.059074, 0.132017,1, 0.021024, 0.025615, 0.000046,1,-0.149443,-0.256566, 9.802155,1,1
1778780248918,  1284.533,  1284.533, 0.015603, 0.027870,-1.024965, 0.000149, 0.000256,-0.010239, 0.006740, 0.014344,-0.249334,1,-0.013310,-0.011141,-0.000120,1,-0.145924,-0.259386, 9.802133,1,1
1778780248943,  1284.558,  1284.558, 0.016295, 0.029478,-0.972377, 0.000169, 0.000318,-0.009778, 0.010222, 0.032613, 0.266393,1, 0.022130, 0.024915,-0.000345,1,-0.150356,-0.255781, 9.802160,1,1
1778780248965,  1284.583,  1284.578, 0.011917, 0.030602,-1.025227, 0.000128, 0.000288,-0.010259,-0.018787,-0.092775,-0.021573,1,-0.025412,-0.026666, 0.000219,1,-0.147412,-0.258134, 9.802144,1,1
1778780248988,  1284.603,  1284.603, 0.015582, 0.026191,-0.968194, 0.000159, 0.000290,-0.009717, 0.002663, 0.000057, 0.307393,1, 0.016373, 0.017594, 0.000778,1,-0.150690,-0.256277, 9.802142,1,1
1778780249013,  1284.628,  1284.628, 0.015084, 0.021304,-1.014601, 0.000152, 0.000186,-0.010089, 0.000364,-0.049788,-0.147708,1,-0.023839,-0.026443, 0.000119,1,-0.146738,-0.259453, 9.802119,1,1
1778780249035,  1284.653,  1284.648, 0.016932, 0.023760,-0.963537, 0.000169, 0.000259,-0.009639, 0.030475, 0.108710, 0.045809,1, 0.024858, 0.029321,-0.000950,1,-0.149339,-0.257836, 9.802122,1,1
1778780249058,  1284.673,  1284.673, 0.011406, 0.023278,-1.023127, 0.000104, 0.000208,-0.010178,-0.035282,-0.030383,-0.231314,1,-0.020676,-0.024396,-0.000365,1,-0.146379,-0.259307, 9.802128,1,1
1778780249083,  1284.698,  1284.698, 0.018839, 0.034314,-0.987051, 0.000175, 0.000363,-0.009934, 0.035721, 0.079087, 0.122473,1, 0.026780, 0.031221,-0.000499,1,-0.150002,-0.256585, 9.802145,1,1
1778780249105,  1284.723,  1284.718, 0.013324, 0.025789,-1.021746, 0.000136, 0.000237,-0.010194, 0.027579,-0.107705, 0.135421,1,-0.019245,-0.026120, 0.001125,1,-0.148776,-0.256804, 9.802158,1,1
1778780249128,  1284.743,  1284.743, 0.013446, 0.029134,-0.976791, 0.000131, 0.000316,-0.009831,-0.017778, 0.029241, 0.223104,1, 0.022143, 0.025219, 0.000032,1,-0.150429,-0.255775, 9.802159,1,1
1778780249154,  1284.768,  1284.768, 0.015286, 0.017141,-0.999753, 0.000170, 0.000157,-0.009939, 0.001345,-0.089178,-0.002077,1,-0.027285,-0.029546, 0.000108,1,-0.147634,-0.258128, 9.802140,1,1
1778780249175,  1284.793,  1284.788, 0.012746, 0.026228,-0.971943, 0.000133, 0.000287,-0.009760,-0.017105, 0.119418,-0.093967,1, 0.019578, 0.022787,-0.000879,1,-0.148141,-0.258423, 9.802125,1,1
1778780249198,  1284.813,  1284.813, 0.011575, 0.019137,-1.009609, 0.000115, 0.000171,-0.010034,-0.034195,-0.069947,-0.098726,1,-0.024896,-0.028097, 0.000385,1,-0.146828,-0.258393, 9.802146,1,1
1778780249224,  1284.838,  1284.838, 0.018339, 0.034886,-0.999427, 0.000169, 0.000361,-0.010046, 0.031811, 0.083874, 0.001101,1, 0.021524, 0.027172,-0.000398,1,-0.148880,-0.257569, 9.802136,1,1
1778780249245,  1284.863,  1284.858, 0.013504, 0.024160,-1.016857, 0.000135, 0.000217,-0.010120, 0.018501,-0.083951, 0.196224,1,-0.015437,-0.020232, 0.000236,1,-0.149077,-0.256914, 9.802151,1,1
1778780249268,  1284.888,  1284.883, 0.014331, 0.033798,-0.988168, 0.000136, 0.000356,-0.009942,-0.008057, 0.073363, 0.111509,1, 0.023979, 0.028809,-0.000296,1,-0.149492,-0.257333, 9.802134,1,1
1778780249294,  1284.908,  1284.908, 0.014653, 0.015900,-0.989333, 0.000150, 0.000156,-0.009831,-0.005402,-0.100855, 0.100114,1,-0.017678,-0.024933, 0.001136,1,-0.148322,-0.257332, 9.802151,1,1
1778780249315,  1284.933,  1284.928, 0.017803, 0.031378,-0.978599, 0.000180, 0.000336,-0.009852,-0.005916, 0.098930,-0.173953,1, 0.012136, 0.016230,-0.000125,1,-0.147300,-0.258692, 9.802131,1,1
1778780249338,  1284.958,  1284.953, 0.014397, 0.017737,-0.992753, 0.000161, 0.000164,-0.009869,-0.007682,-0.082914, 0.066572,1,-0.023043,-0.026837, 0.000360,1,-0.148027,-0.257570, 9.802149,1,1
1778780249364,  1284.978,  1284.978, 0.010564, 0.035918,-1.009305, 0.000110, 0.000360,-0.010149,-0.043794, 0.093535,-0.095769,1, 0.015361, 0.019786,-0.000164,1,-0.148006,-0.258224, 9.802133,1,1
1778780249385,  1285.003,  1284.998, 0.016317, 0.020482,-1.011176, 0.000162, 0.000186,-0.010050, 0.010378,-0.088949, 0.231924,1,-0.005994,-0.012826, 0.000001,1,-0.149648,-0.256063, 9.802164,1,1
1778780249408,  1285.028,  1285.023, 0.020559, 0.036480,-0.998245, 0.000199, 0.000371,-0.010038, 0.053578, 0.099393, 0.012684,1, 0.021455, 0.027638,-0.000197,1,-0.148898,-0.257681, 9.802134,1,1
1778780249434,  1285.048,  1285.048, 0.013940, 0.014556,-0.975882, 0.000142, 0.000147,-0.009692,-0.013437,-0.113185, 0.232024,1,-0.011542,-0.019571, 0.001068,1,-0.149578,-0.256336, 9.802158,1,1
1778780249455,  1285.073,  1285.068, 0.016116, 0.034541,-0.993834, 0.000146, 0.000359,-0.010003,-0.033922, 0.057896,-0.271033,1,-0.000723, 0.004732,-0.000725,1,-0.146578,-0.259309, 9.802125,1,1
1778780249478,  1285.098,  1285.093, 0.018764, 0.016075,-0.982722, 0.000202, 0.000162,-0.009777, 0.034390,-0.099114, 0.164939,1,-0.018784,-0.022189, 0.001367,1,-0.148931,-0.257345, 9.802141,1,1
1778780249504,  1285.118,  1285.118, 0.012053, 0.035117,-1.017047, 0.000127, 0.000346,-0.010221,-0.028746, 0.084739,-0.171712,1, 0.006164, 0.012581,-0.000697,1,-0.147342,-0.259453, 9.802110,1,1
1778780249526,  1285.138,  1285.138, 0.013513, 0.018488,-0.965191, 0.000139, 0.000196,-0.009642,-0.018148,-0.075107, 0.336851,1, 0.003218, 0.000205, 0.000284,1,-0.150676,-0.256310, 9.802142,1,1
1778780249548,  1285.168,  1285.163, 0.013804, 0.038687,-1.014293, 0.000140, 0.000383,-0.010201,-0.011848, 0.119517,-0.144715,1, 0.013956, 0.019256,-0.000574,1,-0.147823,-0.259436, 9.802103,1,1
1778780249574,  1285.188,  1285.188, 0.016506, 0.018324,-0.967550, 0.000163, 0.000190,-0.009638, 0.011101,-0.076958, 0.313706,1,-0.001266,-0.006594, 0.000107,1,-0.150561,-0.256696, 9.802134,1,1
1778780249596,  1285.213,  1285.208, 0.016082, 0.036959,-1.006068, 0.000145, 0.000373,-0.010114,-0.021420, 0.034649,-0.267846,1,-0.008862,-0.006206,-0.000246,1,-0.146741,-0.260136, 9.802101,1,1
1778780249623,  1285.238,  1285.238, 0.015067, 0.018502,-0.973459, 0.000150, 0.000190,-0.009681,-0.003004,-0.075080, 0.255767,1,-0.007291,-0.015512, 0.000245,1,-0.150277,-0.256751, 9.802136,1,1
1778780249644,  1285.258,  1285.258, 0.012954, 0.032965,-1.025506, 0.000124, 0.000315,-0.010274,-0.019744, 0.063800,-0.254666,1,-0.003037, 0.000487,-0.000327,1,-0.146794,-0.259569, 9.802115,1,1
1778780249666,  1285.283,  1285.278, 0.017641, 0.017512,-0.977551, 0.000185, 0.000178,-0.009724, 0.020352, 0.095448, 0.027833,1, 0.020685, 0.027552,-0.000444,1,-0.149304,-0.257714, 9.802126,1,1
1778780249693,  1285.308,  1285.308, 0.011144, 0.034523,-1.021693, 0.000122, 0.000334,-0.010259,-0.037803, 0.079089,-0.217276,1, 0.002554, 0.006977,-0.000661,1,-0.147307,-0.259382, 9.802113,1,1
1778780249714,  1285.333,  1285.328, 0.013118, 0.016302,-0.984811, 0.000144, 0.000159,-0.009783,-0.003600,-0.048700, 0.362399,1, 0.009320, 0.005901,-0.000018,1,-0.151227,-0.255740, 9.802148,1,1
1778780249736,  1285.353,  1285.348, 0.014814, 0.033798,-1.021077, 0.000151, 0.000329,-0.010254,-0.018869,-0.015595,-0.225200,1,-0.018027,-0.020759,-0.000383,1,-0.146605,-0.259236, 9.802127,1,1
1778780249763,  1285.378,  1285.378, 0.018991, 0.020930,-0.968147, 0.000192, 0.000222,-0.009664, 0.035512,-0.050684, 0.307875,1, 0.004633, 0.001551, 0.000205,1,-0.150771,-0.255794, 9.802154,1,1
1778780249784,  1285.403,  1285.398, 0.015645, 0.033442,-1.010982, 0.000146, 0.000331,-0.010154,-0.013332, 0.009232,-0.225564,1,-0.015217,-0.011682, 0.000237,1,-0.146844,-0.259318, 9.802121,1,1
1778780249806,  1285.423,  1285.418, 0.015955, 0.018875,-0.971944, 0.000156, 0.000199,-0.009678, 0.012483, 0.018461, 0.230236,1, 0.016702, 0.021554, 0.000000,1,-0.150660,-0.256870, 9.802128,1,1
1778780249833,  1285.448,  1285.448, 0.014199, 0.028772,-1.029255, 0.000131, 0.000273,-0.010293,-0.007526, 0.022361,-0.291435,1,-0.008879,-0.006237,-0.000665,1,-0.146572,-0.260026, 9.802106,1,1
1778780249854,  1285.473,  1285.468, 0.016441, 0.018626,-0.966861, 0.000175, 0.000195,-0.009640, 0.038497, 0.013265, 0.291387,1, 0.019615, 0.021212, 0.000882,1,-0.150973,-0.256569, 9.802131,1,1
1778780249876,  1285.493,  1285.488, 0.008728, 0.027543,-1.023215, 0.000093, 0.000261,-0.010242,-0.042795,-0.083986,-0.026129,1,-0.018848,-0.026164, 0.000897,1,-0.147827,-0.258265, 9.802134,1,1
1778780249903,  1285.518,  1285.518, 0.014725, 0.025312,-0.970859, 0.000152, 0.000274,-0.009739,-0.005803,-0.008444, 0.281269,1, 0.012327, 0.015203,-0.000040,1,-0.150676,-0.256285, 9.802142,1,1
1778780249925,  1285.543,  1285.538, 0.017695, 0.032565,-1.022168, 0.000177, 0.000308,-0.010243,-0.005508,-0.036026,-0.125403,1,-0.021336,-0.022668, 0.000241,1,-0.147172,-0.259347, 9.802115,1,1
1778780249946,  1285.563,  1285.558, 0.015810, 0.026006,-0.963711, 0.000168, 0.000279,-0.009643, 0.054247, 0.100470, 0.063254,1, 0.018563, 0.025304,-0.000906,1,-0.149522,-0.258401, 9.802105,1,1
1778780249973,  1285.588,  1285.588, 0.009074, 0.023132,-1.019240, 0.000083, 0.000212,-0.010141,-0.058486,-0.032155,-0.193211,1,-0.018722,-0.024810, 0.000612,1,-0.146702,-0.259584, 9.802116,1,1
1778780249995,  1285.613,  1285.608, 0.021194, 0.024685,-0.965489, 0.000215, 0.000261,-0.009663, 0.053876, 0.085531, 0.053932,1, 0.020343, 0.026211,-0.000101,1,-0.149292,-0.257935, 9.802120,1,1
1778780250016,  1285.633,  1285.628, 0.012086, 0.023079,-1.018551, 0.000123, 0.000214,-0.010150, 0.012933,-0.080639, 0.174048,1,-0.011222,-0.020549, 0.001475,1,-0.148925,-0.257315, 9.802142,1,1
1778780250043,  1285.658,  1285.658, 0.016103, 0.031451,-0.985166, 0.000160, 0.000333,-0.009914, 0.008936, 0.051178, 0.140966,1, 0.019489, 0.025450,-0.000476,1,-0.149777,-0.256643, 9.802147,1,0
1778780250065,  1285.683,  1285.678, 0.012311, 0.024451,-1.024722, 0.000120, 0.000229,-0.010222,-0.027386,-0.088053, 0.095734,1,-0.019194,-0.024981, 0.000431,1,-0.148421,-0.257580, 9.802143,1,0
1778780250086,  1285.703,  1285.698, 0.017381, 0.032644,-0.983724, 0.000174, 0.000345,-0.009891,-0.004670, 0.069548,-0.210725,1, 0.006256, 0.013197,-0.000930,1,-0.147180,-0.259386, 9.802114,1,0
1778780250113,  1285.728,  1285.728, 0.013210, 0.016320,-0.992177, 0.000142, 0.000155,-0.009854,-0.019411,-0.097749, 0.072198,1,-0.018277,-0.024476, 0.000362,1,-0.148194,-0.258362, 9.802126,1,0
1778780250135,  1285.753,  1285.748, 0.017697, 0.028208,-0.977854, 0.000169, 0.000302,-0.009818,-0.011952, 0.059667,-0.138173,1, 0.010849, 0.017244,-0.000710,1,-0.147888,-0.259197, 9.802109,1,0
1778780250158,  1285.773,  1285.773, 0.012257, 0.018883,-1.000044, 0.000126, 0.000176,-0.009935,-0.028292,-0.073419,-0.004964,1,-0.022400,-0.026924, 0.000478,1,-0.147651,-0.259297, 9.802110,1,0
1778780250183,  1285.798,  1285.798, 0.018834, 0.034233,-1.008661, 0.000175, 0.000342,-0.010148, 0.037415, 0.075270,-0.089502,1, 0.012163, 0.021683,-0.000708,1,-0.147964,-0.260065, 9.802084,1,0
1778780250205,  1285.823,  1285.818, 0.010079, 0.019407,-0.999914, 0.000113, 0.000185,-0.009947, 0.014864,-0.056704, 0.327062,1,-0.001205,-0.007797, 0.000895,1,-0.150154,-0.257945, 9.802107,1,0
1778780250228,  1285.843,  1285.843, 0.014064, 0.033627,-1.002413, 0.000137, 0.000333,-0.010087,-0.009807, 0.070400,-0.028206,1, 0.014880, 0.021781, 0.000148,1,-0.148394,-0.258828, 9.802111,1,0
1778780250253,  1285.868,  1285.868, 0.017148, 0.021111,-0.973399, 0.000179, 0.000215,-0.009688, 0.018193,-0.050587, 0.256333,1,-0.009159,-0.013240, 0.001150,1,-0.149559,-0.257901, 9.802117,1,0
1778780250275,  1285.893,  1285.888, 0.016021, 0.036850,-1.003425, 0.000153, 0.000368,-0.010088,-0.006847, 0.031533,-0.269468,1,-0.005393,-0.002374,-0.001312,1,-0.146392,-0.260905, 9.802086,1,0
1778780250298,  1285.913,  1285.913, 0.014477, 0.021645,-0.977324, 0.000147, 0.000221,-0.009720,-0.007859,-0.045495, 0.217840,1,-0.005721,-0.013500, 0.000496,1,-0.149408,-0.257937, 9.802118,1,0
1778780250323,  1285.938,  1285.938, 0.013227, 0.029414,-1.024060, 0.000119, 0.000280,-0.010256,-0.016912, 0.028702,-0.240483,1, 0.000445, 0.001340,-0.001298,1,-0.146664,-0.259742, 9.802113,1,0
1778780250345,  1285.963,  1285.958, 0.014871, 0.019338,-0.981185, 0.000149, 0.000199,-0.009761, 0.016631,-0.012064, 0.287087,1, 0.012703, 0.008879,-0.000348,1,-0.150006,-0.256459, 9.802148,1,0
1778780250368,  1285.983,  1285.983, 0.013527, 0.029876,-1.020806, 0.000131, 0.000288,-0.010242,-0.013454, 0.033685,-0.208554,1,-0.002017, 0.006304,-0.000639,1,-0.146302,-0.259362, 9.802128,1,0
1778780250394,  1286.008,  1286.008, 0.016439, 0.024261,-0.965800, 0.000178, 0.000256,-0.009674, 0.011345,-0.019611, 0.330863,1, 0.006170, 0.009236, 0.000729,1,-0.150155,-0.257334, 9.802123,1,0
1778780250415,  1286.033,  1286.028, 0.013692, 0.030188,-1.021227, 0.000139, 0.000290,-0.010247,-0.048222,-0.038695,-0.173636,1,-0.014716,-0.018419,-0.000839,1,-0.146631,-0.259848, 9.802110,1,0
1778780250438,  1286.053,  1286.053, 0.018659, 0.025096,-0.964810, 0.000198, 0.000272,-0.009652, 0.032893,-0.011783, 0.340559,1, 0.007040, 0.007082, 0.001192,1,-0.150309,-0.257668, 9.802112,1,0
1778780250464,  1286.078,  1286.078, 0.011463, 0.022037,-1.017358, 0.000108, 0.000206,-0.010130,-0.034697,-0.043866,-0.174773,1,-0.016360,-0.019998, 0.000041,1,-0.146485,-0.260483, 9.802095,1,0
1778780250485,  1286.103,  1286.098, 0.018077, 0.024727,-0.969036, 0.000182, 0.000263,-0.009688, 0.039289, 0.069992, 0.070292,1, 0.017128, 0.022712,-0.001102,1,-0.149085,-0.259079, 9.802094,1,0
1778780250508,  1286.128,  1286.123, 0.012852, 0.024163,-1.016750, 0.000118, 0.000229,-0.010138,-0.021170,-0.022871,-0.168809,1,-0.012958,-0.016007,-0.000706,1,-0.146707,-0.260232, 9.802099,1,0
1778780250534,  1286.148,  1286.148, 0.019249, 0.032016,-0.984558, 0.000188, 0.000335,-0.009900, 0.039950, 0.055107, 0.146892,1, 0.018043, 0.023283,-0.000248,1,-0.149549,-0.258304, 9.802107,1,0
1778780250555,  1286.173,  1286.168, 0.011239, 0.025472,-1.021842, 0.000110, 0.000244,-0.010202,-0.030406,-0.056724, 0.098216,1,-0.011730,-0.022361, 0.001138,1,-0.148177,-0.258362, 9.802126,1,0
1778780250578,  1286.198,  1286.193, 0.019882, 0.030668,-0.985782, 0.000201, 0.000318,-0.009912, 0.046450, 0.042385, 0.134903,1, 0.016695, 0.023385,-0.000044,1,-0.149255,-0.257845, 9.802123,1,0
1778780250604,  1286.218,  1286.218, 0.011817, 0.021544,-0.987738, 0.000134, 0.000215,-0.009824,-0.032912,-0.046370, 0.115736,1,-0.010708,-0.020890, 0.000854,1,-0.148147,-0.257981, 9.802136,1,0
1778780250625,  1286.243,  1286.238, 0.018796, 0.030465,-0.984949, 0.000179, 0.000315,-0.009887,-0.007534, 0.031147,-0.141236,1, 0.005019, 0.009945,-0.001617,1,-0.147148,-0.258821, 9.802130,1,0
1778780250648,  1286.268,  1286.263, 0.014375, 0.020458,-0.990914, 0.000146, 0.000204,-0.009854,-0.007603,-0.057026, 0.084591,1,-0.012288,-0.018994, 0.000268,1,-0.147984,-0.258031, 9.802137,1,0
1778780250674,  1286.288,  1286.288, 0.016962, 0.032924,-1.012868, 0.000164, 0.000314,-0.010171, 0.019599, 0.063500,-0.130720,1, 0.003636, 0.010464,-0.001846,1,-0.147066,-0.259259, 9.802119,1,0
1778780250696,  1286.313,  1286.308, 0.006656, 0.018454,-0.992097, 0.000083, 0.000187,-0.009872,-0.013583,-0.026839, 0.311117,1, 0.004269, 0.001148, 0.000730,1,-0.149676,-0.257220, 9.802134,1,0
1778780250718,  1286.338,  1286.333, 0.014415, 0.031838,-1.019195, 0.000136, 0.000305,-0.010244,-0.004597, 0.052549,-0.192764,1, 0.004293, 0.011631,-0.000928,1,-0.146326,-0.259544, 9.802123,1,0
1778780250744,  1286.358,  1286.358, 0.017562, 0.025718,-0.969182, 0.000192, 0.000273,-0.009686, 0.022877,-0.005282, 0.297703,1, 0.004121, 0.003832, 0.001009,1,-0.149463,-0.257359, 9.802133,1,0
1778780250766,  1286.383,  1286.378, 0.014492, 0.030950,-1.015123, 0.000133, 0.000299,-0.010189,-0.047811,-0.015374,-0.200724,1,-0.012702,-0.014276, 0.000195,1,-0.145981,-0.259815, 9.802121,1,0
1778780250788,  1286.408,  1286.403, 0.017717, 0.023482,-0.969110, 0.000179, 0.000246,-0.009669, 0.023888,-0.027124, 0.298405,1, 0.004182, 0.001565, 0.000509,1,-0.149904,-0.257273, 9.802129,1,0
1778780250814,  1286.428,  1286.428, 0.011327, 0.023557,-1.023077, 0.000102, 0.000227,-0.010203,-0.035555,-0.028148,-0.230834,1,-0.011114,-0.013194, 0.000160,1,-0.146224,-0.259511, 9.802125,1,0
1778780250836,  1286.453,  1286.448, 0.019841, 0.023371,-0.963462, 0.000202, 0.000248,-0.009630, 0.074104, 0.050984, 0.182310,1, 0.014498, 0.024342, 0.000627,1,-0.149673,-0.257904, 9.802115,1,0
1778780250863,  1286.478,  1286.478, 0.007513, 0.021283,-1.018019, 0.000075, 0.000205,-0.010161,-0.073561,-0.050437,-0.181235,1,-0.009900,-0.015014, 0.000048,1,-0.146773,-0.259463, 9.802118,1,0
1778780250884,  1286.498,  1286.498, 0.018625, 0.029000,-0.985854, 0.000183, 0.000300,-0.009913, 0.033768, 0.026315, 0.134201,1, 0.014463, 0.020601,-0.000365,1,-0.149520,-0.257629, 9.802125,1,0
1778780250906,  1286.523,  1286.518, 0.014268, 0.024591,-1.014183, 0.000144, 0.000241,-0.010122, 0.000882,-0.046417, 0.108600,1,-0.013256,-0.019061, 0.001529,1,-0.148473,-0.258366, 9.802121,1,0
1778780250933,  1286.548,  1286.548, 0.018329, 0.029484,-0.983856, 0.000186, 0.000308,-0.009876, 0.031142, 0.030562, 0.153782,1, 0.014207, 0.015824,-0.000156,1,-0.149095,-0.258138, 9.802118,1,0
1778780250954,  1286.573,  1286.568, 0.015654, 0.025053,-1.019760, 0.000144, 0.000238,-0.010170,-0.014605,-0.042167, 0.058369,1,-0.011191,-0.020267,-0.000514,1,-0.147538,-0.258403, 9.802135,1,0
1778780250976,  1286.593,  1286.588, 0.017891, 0.034832,-0.986423, 0.000176, 0.000356,-0.009899, 0.036925, 0.064508,-0.154046,1, 0.000217, 0.009679,-0.001385,1,-0.146606,-0.260062, 9.802105,1,0
1778780251003,  1286.618,  1286.618, 0.005890, 0.020352,-0.995312, 0.000061, 0.000202,-0.009903,-0.089606,-0.059864, 0.041428,1,-0.013777,-0.021339,-0.000565,1,-0.146705,-0.259875, 9.802108,1,0
1778780251024,  1286.643,  1286.638, 0.017310, 0.038163,-0.990479, 0.000175, 0.000397,-0.009963,-0.007637, 0.091768,-0.216879,1, 0.002302, 0.011112,-0.001485,1,-0.145503,-0.261574, 9.802081,1,0
1778780251046,  1286.663,  1286.658, 0.010644, 0.018944,-0.987695, 0.000121, 0.000198,-0.009831, 0.001109, 0.008100, 0.290438,1, 0.011269, 0.008092, 0.000604,1,-0.149025,-0.258582, 9.802108,1,0
1778780251073,  1286.688,  1286.688, 0.014117, 0.031021,-1.010484, 0.000135, 0.000300,-0.010151,-0.008065, 0.044686,-0.107345,1, 0.008243, 0.013809, 0.000459,1,-0.146938,-0.259273, 9.802121,1,0
1778780251094,  1286.713,  1286.708, 0.013169, 0.016147,-0.989180, 0.000139, 0.000159,-0.009829, 0.031508,-0.050477, 0.343258,1, 0.004195, 0.001756, 0.001016,1,-0.150163,-0.256593, 9.802142,1,0
1778780251116,  1286.733,  1286.728, 0.017647, 0.031381,-1.017015, 0.000167, 0.000304,-0.010202,-0.015808,-0.031626,-0.216973,1,-0.019941,-0.015751,-0.000443,1,-0.146154,-0.260175, 9.802109,1,0
1778780251143,  1286.758,  1286.758, 0.021005, 0.024339,-0.964515, 0.000214, 0.000256,-0.009629, 0.055804,-0.020395, 0.343415,1, 0.001530, 0.002149, 0.000192,1,-0.150249,-0.259034, 9.802077,1,0
1778780251165,  1286.783,  1286.778, 0.013356, 0.027867,-1.017020, 0.000119, 0.000273,-0.010206,-0.053449,-0.033046,-0.191658,1,-0.011720,-0.015392,-0.000198,1,-0.146287,-0.261531, 9.802071,1,0
1778780251186,  1286.803,  1286.798, 0.019345, 0.021628,-0.971052, 0.000198, 0.000227,-0.009707,-0.053449,-0.033046,-0.191658,1,-0.011720,-0.015392,-0.000198,1,-0.146287,-0.261531, 9.802071,1,0
1778780251213,  1286.828,  1286.828, 0.014994, 0.024957,-1.013824, 0.000152, 0.000238,-0.010128,-0.000235,-0.016498,-0.140150,1,-0.014351,-0.011520,-0.000489,1,-0.146921,-0.261694, 9.802056,1,0
1778780251235,  1286.853,  1286.848, 0.010230, 0.023803,-0.975392, 0.000112, 0.000247,-0.009741,-0.011528, 0.034226, 0.153983,1, 0.012032, 0.017650, 0.000507,1,-0.149589,-0.260498, 9.802048,1,0
1778780251256,  1286.873,  1286.868, 0.010267, 0.024427,-1.025136, 0.000094, 0.000233,-0.010237,-0.079091,-0.061056, 0.004888,1,-0.011090,-0.020067, 0.000728,1,-0.147954,-0.260937, 9.802061,1,0
1778780251283,  1286.898,  1286.898, 0.021630, 0.031961,-0.985870, 0.000226, 0.000338,-0.009900, 0.063002, 0.053546, 0.133984,1, 0.020763, 0.021215, 0.000415,1,-0.149780,-0.259238, 9.802078,1,0
1778780251305,  1286.923,  1286.918, 0.012018, 0.021875,-1.013470, 0.000113, 0.000202,-0.010102,-0.009266,-0.082768, 0.125497,1,-0.008135,-0.017954, 0.000514,1,-0.149063,-0.258666, 9.802105,1,0
1778780251326,  1286.943,  1286.938, 0.013825, 0.033711,-0.985964, 0.000135, 0.000347,-0.009896,-0.016727, 0.059368,-0.123158,1, 0.001960, 0.007733,-0.000984,1,-0.147769,-0.260283, 9.802081,1,0
1778780251353,  1286.968,  1286.968, 0.012234, 0.020642,-0.993897, 0.000113, 0.000201,-0.009887,-0.028687,-0.056305, 0.055304,1,-0.010939,-0.021181,-0.000172,1,-0.147998,-0.259075, 9.802110,1,0
1778780251375,  1286.993,  1286.988, 0.020395, 0.035507,-0.980987, 0.000212, 0.000374,-0.009868, 0.065227, 0.098339,-0.152250,1, 0.006297, 0.012248,-0.000600,1,-0.146900,-0.260306, 9.802094,1,0
1778780251398,  1287.013,  1287.013, 0.006609, 0.016961,-0.985517, 0.000081, 0.000168,-0.009799,-0.084352,-0.090933, 0.137523,1,-0.011977,-0.023854, 0.000679,1,-0.148418,-0.257637, 9.802141,1,0
1778780251423,  1287.038,  1287.038, 0.012870, 0.035225,-1.018563, 0.000125, 0.000341,-0.010227,-0.020257, 0.085534,-0.186582,1, 0.000429, 0.010421,-0.000489,1,-0.146794,-0.259888, 9.802107,1,0
1778780251445,  1287.063,  1287.058, 0.013884, 0.020177,-0.996119, 0.000148, 0.000197,-0.009901, 0.045800,-0.026481, 0.266993,1, 0.003753, 0.002347, 0.000813,1,-0.149746,-0.257854, 9.802115,1,0
1778780251468,  1287.083,  1287.083, 0.017461, 0.033657,-1.013644, 0.000164, 0.000325,-0.010174, 0.024009, 0.069839,-0.138359,1, 0.009677, 0.017928,-0.000418,1,-0.147782,-0.259927, 9.802091,1,0
1778780251493,  1287.108,  1287.108, 0.017404, 0.020152,-0.967123, 0.000176, 0.000206,-0.009645, 0.019667,-0.059796, 0.317870,1, 0.002807, 0.000466, 0.000606,1,-0.151025,-0.257332, 9.802110,1,0
1778780251515,  1287.133,  1287.128, 0.013654, 0.030440,-1.011509, 0.000128, 0.000297,-0.010161,-0.046793,-0.023807,-0.222129,1,-0.014254,-0.010705,-0.000256,1,-0.147434,-0.260501, 9.802081,1,0
1778780251538,  1287.153,  1287.153, 0.018813, 0.021364,-0.971446, 0.000189, 0.000226,-0.009699, 0.033387,-0.049147, 0.275437,1, 0.000666,-0.001059, 0.000255,1,-0.151071,-0.258632, 9.802074,1,0
1778780251563,  1287.178,  1287.178, 0.017725, 0.026592,-1.017313, 0.000180, 0.000262,-0.010176, 0.025345,-0.000086,-0.174379,1,-0.009674,-0.006437, 0.000702,1,-0.148276,-0.261164, 9.802051,1,0
1778780251585,  1287.203,  1287.198, 0.009907, 0.019224,-0.973817, 0.000111, 0.000209,-0.009711,-0.009157, 0.010114, 0.230306,1, 0.017381, 0.017265, 0.000154,1,-0.151545,-0.258459, 9.802073,1,0
1778780251608,  1287.223,  1287.223, 0.012868, 0.027385,-1.022600, 0.000118, 0.000259,-0.010223,-0.021848, 0.007716,-0.226216,1,-0.010948,-0.007242,-0.000275,1,-0.147812,-0.261184, 9.802057,1,0
1778780251634,  1287.248,  1287.248, 0.020989, 0.030090,-0.978184, 0.000217, 0.000305,-0.009809, 0.055124, 0.035611, 0.209344,1, 0.013258, 0.015812,-0.000255,1,-0.151216,-0.258994, 9.802063,1,0
1778780251655,  1287.273,  1287.268, 0.011213, 0.027366,-1.020038, 0.000101, 0.000256,-0.010199,-0.041934,-0.054225,-0.038076,1,-0.012868,-0.020131, 0.000515,1,-0.148918,-0.259928, 9.802073,1,0
1778780251678,  1287.293,  1287.293, 0.015381, 0.030347,-0.971768, 0.000157, 0.000318,-0.009738,-0.000305, 0.038977, 0.272289,1, 0.013509, 0.014406, 0.000656,1,-0.151590,-0.258204, 9.802078,1,0
1778780251704,  1287.318,  1287.318, 0.011580, 0.021140,-1.007173, 0.000111, 0.000206,-0.010019,-0.035719,-0.051906,-0.074903,1,-0.016404,-0.023336,-0.000297,1,-0.148554,-0.259734, 9.802084,1,0
1778780251725,  1287.343,  1287.338, 0.021301, 0.030413,-0.971581, 0.000225, 0.000322,-0.009756, 0.060405, 0.090113,-0.048093,1, 0.013656, 0.021368,-0.001196,1,-0.149439,-0.259680, 9.802073,1,0
1778780251748,  1287.368,  1287.363, 0.009841, 0.018676,-1.000052, 0.000107, 0.000185,-0.009950,-0.053238,-0.074576,-0.005040,1,-0.010842,-0.022133, 0.000819,1,-0.149050,-0.258059, 9.802121,1,0
1778780251774,  1287.388,  1287.388, 0.016702, 0.030608,-1.005602, 0.000161, 0.000302,-0.010107, 0.014949, 0.041511,-0.059482,1, 0.008477, 0.015589,-0.000695,1,-0.149324,-0.258385, 9.802108,1,0
1778780251795,  1287.413,  1287.408, 0.011096, 0.021821,-1.007217, 0.000113, 0.000208,-0.010024, 0.000771,-0.034070, 0.189948,1,-0.003567,-0.009246, 0.000384,1,-0.150513,-0.257255, 9.802119,1,0
1778780251818,  1287.438,  1287.433, 0.021642, 0.035838,-1.001448, 0.000206, 0.000328,-0.010060, 0.063249, 0.092268,-0.018760,1, 0.007812, 0.018855,-0.000647,1,-0.149576,-0.258943, 9.802090,1,0
1778780251844,  1287.458,  1287.458, 0.030643, 0.018775,-0.980075, 0.000294, 0.000211,-0.009750, 0.149063,-0.073704, 0.190842,1,-0.003639,-0.007071, 0.000249,1,-0.151222,-0.257935, 9.802091,1,0
1778780251865,  1287.483,  1287.478, 0.025215, 0.035283,-0.983636, 0.000245, 0.000352,-0.009892, 0.113734, 0.048906,-0.154095,1, 0.000509, 0.007511,-0.000076,1,-0.149793,-0.259503, 9.802072,1,0
1778780251888,  1287.508,  1287.503, 0.025784, 0.019961,-0.974686, 0.000259, 0.000178,-0.009690, 0.099148,-0.060854, 0.243680,1,-0.015305,-0.018648, 0.001195,1,-0.153129,-0.257086, 9.802084,1,0
1778780251914,  1287.528,  1287.528, 0.034046, 0.039871,-1.027602, 0.000340, 0.000378,-0.010308, 0.183885, 0.130384,-0.275298,1,-0.004838, 0.001950, 0.000635,1,-0.150051,-0.260771, 9.802033,1,0
1778780251935,  1287.553,  1287.548, 0.013440, 0.011880,-0.982686, 0.000135, 0.000121,-0.009777, 0.026284,-0.025427, 0.297243,1, 0.030641, 0.010057, 0.001783,1,-0.153633,-0.255228, 9.802124,1,0
1778780251958,  1287.578,  1287.573, 0.043192, 0.036837,-1.031962, 0.000412, 0.000349,-0.010356, 0.274619, 0.103834,-0.317953,1,-0.011068, 0.006862,-0.000711,1,-0.149163,-0.257759, 9.802127,1,0
1778780251984,  1287.598,  1287.598, 0.043374, 0.022607,-0.952613, 0.000447, 0.000265,-0.009545, 0.270735,-0.033084, 0.460180,1, 0.021856, 0.022912, 0.001270,1,-0.155335,-0.254104, 9.802127,1,0
1778780252006,  1287.623,  1287.618, 0.034342, 0.047162,-1.030316, 0.000325, 0.000443,-0.010323, 0.124011,-0.053762,-0.141026,1,-0.032634,-0.032070,-0.002109,1,-0.150857,-0.257256, 9.802114,1,0
1778780252028,  1287.648,  1287.643, 0.047426, 0.025249,-0.957093, 0.000469, 0.000278,-0.009577, 0.309233,-0.011156, 0.416116,1, 0.014423, 0.020024, 0.001541,1,-0.156667,-0.258513, 9.801991,1,0
1778780252054,  1287.668,  1287.668, 0.046901, 0.030714,-1.033257, 0.000463, 0.000259,-0.010268, 0.307704, 0.039693,-0.330805,1,-0.031107,-0.033728,-0.001321,1,-0.151182,-0.262479, 9.801970,1,0
1778780252076,  1287.693,  1287.688, 0.048276, 0.012456,-0.935743, 0.000473, 0.000167,-0.009381, 0.296835, 0.133125, 0.145016,1, 0.039141, 0.047604, 0.003042,1,-0.155873,-0.259824, 9.801969,1,0
1778780252103,  1287.718,  1287.718, 0.055031, 0.040425,-1.021270, 0.000563, 0.000337,-0.010159, 0.384992, 0.136073,-0.213265,1,-0.046075,-0.034440,-0.000034,1,-0.153598,-0.261801, 9.801951,1,0
1778780252124,  1287.738,  1287.738, 0.050553, 0.039762,-0.966470, 0.000504, 0.000432,-0.009785, 0.337991, 0.128377, 0.324056,1, 0.030498, 0.049075, 0.005557,1,-0.159297,-0.260602, 9.801892,1,0
1778780252146,  1287.763,  1287.758, 0.065888, 0.058967,-1.040958, 0.000657, 0.000519,-0.010386, 0.452958,-0.079829, 0.060454,1,-0.036512,-0.042507, 0.000936,1,-0.157227,-0.261810, 9.801893,1,0
1778780252173,  1287.788,  1287.788, 0.079840, 0.025610,-0.955411, 0.000761, 0.000316,-0.009626, 0.621552,-0.010239, 0.432455,1, 0.052737, 0.054327, 0.007048,1,-0.163110,-0.259740, 9.801852,1,0
1778780252194,  1287.813,  1287.808, 0.075488, 0.060773,-1.039201, 0.000733, 0.000612,-0.010380, 0.603621, 0.024839,-0.065897,1,-0.029564,-0.039966, 0.002031,1,-0.159472,-0.260283, 9.801898,1,0
1778780252216,  1287.833,  1287.828, 0.121464, 0.013805,-0.945089, 0.001161, 0.000170,-0.009458, 0.713599, 0.170368, 0.035429,1, 0.039953, 0.056987, 0.008601,1,-0.164175,-0.258006, 9.801881,1,0
1778780252243,  1287.858,  1287.858, 0.114056, 0.063467,-1.015530, 0.001178, 0.000564,-0.010133, 0.951955, 0.361858,-0.157175,1,-0.024331,-0.009436, 0.006315,1,-0.166266,-0.261316, 9.801758,1,0
1778780252264,  1287.883,  1287.878, 0.147008, 0.010653,-0.954900, 0.001471, 0.000076,-0.009491, 1.075768, 0.005363, 0.432151,1, 0.031285, 0.056211, 0.010558,1,-0.176113,-0.255924, 9.801728,1,0
1778780252286,  1287.903,  1287.898, 0.127624, 0.072973,-1.016918, 0.001225, 0.000785,-0.010164, 1.121472, 0.260890,-0.002968,1,-0.029245,-0.013979, 0.006028,1,-0.175991,-0.259580, 9.801634,1,0
1778780252313,  1287.928,  1287.928, 0.173864, 0.022345,-0.963933, 0.001686, 0.000205,-0.009590, 1.518640,-0.036938, 0.348579,1, 0.003390, 0.023566, 0.008418,1,-0.187122,-0.255961, 9.801523,1,0
1778780252334,  1287.953,  1287.948, 0.151300, 0.037690,-0.983248, 0.001478, 0.000438,-0.009896, 1.086210, 0.510842,-0.065693,1, 0.010522, 0.026677, 0.014124,1,-0.187887,-0.256604, 9.801492,1,0
1778780252356,  1287.973,  1287.968, 0.147914, 0.055811,-1.000182, 0.001543, 0.000489,-0.009948, 1.498590,-0.090429, 0.246888,1, 0.003686, 0.016658, 0.008828,1,-0.195778,-0.251916, 9.801458,1,0
1778780252383,  1287.998,  1287.998, 0.147965, 0.035695,-1.002677, 0.001427, 0.000415,-0.010069, 1.252717, 0.098289,-0.031495,1, 0.028513, 0.039816, 0.014419,1,-0.199579,-0.250859, 9.801409,1,0
1778780252405,  1288.023,  1288.018, 0.128174, 0.068487,-1.011525, 0.001274, 0.000718,-0.010147, 1.316228, 0.356054,-0.177264,1,-0.014479,-0.008758, 0.011272,1,-0.200199,-0.252063, 9.801366,1,0
1778780252426,  1288.043,  1288.038, 0.178377, 0.018341,-0.997572, 0.001768, 0.000139,-0.009932, 1.267691, 0.077709, 0.097663,1, 0.039527, 0.045971, 0.014250,1,-0.207100,-0.246389, 9.801367,1,0
1778780252453,  1288.068,  1288.068, 0.131529, 0.070990,-1.025903, 0.001333, 0.000761,-0.010327, 1.082763, 0.446396,-0.259394,1, 0.021721, 0.032295, 0.019148,1,-0.208120,-0.249092, 9.801276,1,0
1778780252475,  1288.093,  1288.088, 0.162938, 0.059897,-1.036685, 0.001698, 0.000480,-0.010314, 1.549912,-0.171304, 0.139154,1, 0.000782,-0.005858, 0.014012,1,-0.214856,-0.242613, 9.801293,1,0
1778780252496,  1288.113,  1288.108, 0.149994, 0.042374,-0.977448, 0.001450, 0.000498,-0.009914, 1.186793, 0.539895,-0.508982,1, 0.015939, 0.027640, 0.022281,1,-0.211930,-0.246468, 9.801261,1,0
1778780252523,  1288.138,  1288.138, 0.169096, 0.045601,-1.020823, 0.001797, 0.000311,-0.010103, 1.439846, 0.207318,-0.209573,1,-0.042375,-0.058482, 0.016882,1,-0.216608,-0.241186, 9.801291,1,0
1778780252545,  1288.163,  1288.158, 0.190125,-0.003415,-0.925680, 0.001821, 0.000013,-0.009222, 1.157721, 0.193480, 0.155521,1, 0.066023, 0.083747, 0.026369,1,-0.223560,-0.235383, 9.801275,1,0
1778780252566,  1288.183,  1288.178, 0.156219, 0.073315,-1.047128, 0.001573, 0.000735,-0.010405, 1.642750,-0.028525, 0.123407,1,-0.054354,-0.055675, 0.017188,1,-0.223742,-0.237074, 9.801230,1,0
1778780252593,  1288.208,  1288.208, 0.181956, 0.004373,-0.906847, 0.001698, 0.000109,-0.009105, 1.551542,-0.188922, 0.908012,1, 0.033095, 0.055127, 0.027116,1,-0.234581,-0.230755, 9.801127,1,0
1778780252615,  1288.233,  1288.228, 0.144563, 0.065502,-1.028125, 0.001437, 0.000728,-0.010449, 1.237649, 0.502412,-0.472183,1,-0.046273,-0.049904, 0.022679,1,-0.223423,-0.240132, 9.801164,1,0
1778780252638,  1288.253,  1288.253, 0.205448,-0.003883,-0.933511, 0.002096,-0.000091,-0.009183, 1.777996,-0.266823, 0.646505,1,-0.023044,-0.042432, 0.023327,1,-0.235456,-0.229456, 9.801137,1,0
1778780252663,  1288.278,  1288.278, 0.144272, 0.067481,-1.046214, 0.001444, 0.000719,-0.010579, 1.186989, 0.426673,-0.458669,1, 0.028632, 0.034468, 0.031939,1,-0.228932,-0.234169, 9.801181,1,0
1778780252685,  1288.303,  1288.298, 0.172924, 0.053997,-1.009790, 0.001835, 0.000377,-0.009969, 1.754441,-0.306905, 0.816390,1,-0.017082,-0.018458, 0.026765,1,-0.238253,-0.227218, 9.801122,1,0
1778780252708,  1288.318,  1288.323, 0.147770, 0.078165,-1.060139, 0.001466, 0.000821,-0.010628, 1.216115, 0.188603, 0.368084,1, 0.065228, 0.090153, 0.035515,1,-0.236756,-0.230955, 9.801071,1,0
1778780252733,  1288.348,  1288.348, 0.187009, 0.033312,-0.990207, 0.001951, 0.000195,-0.009732, 1.597977, 0.094521, 0.090452,1,-0.071086,-0.079565, 0.024998,1,-0.233491,-0.234356, 9.801068,1,0
1778780252755,  1288.373,  1288.368, 0.184875, 0.021305,-0.902794, 0.001726, 0.000289,-0.009024, 1.204673, 0.406142, 0.125728,1, 0.056845, 0.077808, 0.035569,1,-0.236793,-0.234814, 9.800979,1,0
1778780252778,  1288.393,  1288.393, 0.163218, 0.083524,-1.057316, 0.001697, 0.000734,-0.010529, 1.368295, 0.580322,-0.567743,1,-0.072807,-0.065321, 0.027171,1,-0.230311,-0.241018, 9.800982,1,0
1778780252803,  1288.418,  1288.418, 0.162437, 0.028556,-0.925237, 0.001524, 0.000413,-0.009410, 1.351339, 0.049160, 0.727477,1, 0.099000, 0.098914, 0.037724,1,-0.244739,-0.227760, 9.800949,1,0
1778780252825,  1288.443,  1288.438, 0.178392, 0.074967,-1.082959, 0.001737, 0.000807,-0.010843, 1.481045, 0.238409,-0.288287,1,-0.074897,-0.090211, 0.026516,1,-0.235624,-0.232104, 9.801071,1,0
1778780252848,  1288.463,  1288.463, 0.183633, 0.000087,-0.883420, 0.001778, 0.000071,-0.008782, 1.550593,-0.223401, 1.137499,1, 0.039383, 0.041814, 0.037534,1,-0.251559,-0.222994, 9.800886,1,0
1778780252874,  1288.488,  1288.488, 0.175835, 0.079429,-1.093078, 0.001756, 0.000657,-0.010858, 1.486582, 0.544434,-0.918477,1,-0.093641,-0.065574, 0.029832,1,-0.235744,-0.237394, 9.800941,1,0
1778780252895,  1288.513,  1288.508, 0.185232,-0.009574,-0.897021, 0.001894,-0.000062,-0.008822, 1.255051, 0.181479, 0.903568,1, 0.079423, 0.114214, 0.046557,1,-0.252197,-0.228930, 9.800734,1,0
1778780252918,  1288.533,  1288.533, 0.176904, 0.111261,-1.118045, 0.001699, 0.001039,-0.011167, 1.496726, 0.853478,-1.163401,1,-0.051139,-0.018461, 0.033794,1,-0.237558,-0.239191, 9.800854,1,0
1778780252944,  1288.558,  1288.558, 0.164500, 0.014053,-0.853952, 0.001508, 0.000218,-0.008607, 1.358144,-0.090087, 1.426268,1, 0.072929, 0.097893, 0.047033,1,-0.258138,-0.225585, 9.800656,1,0
1778780252965,  1288.583,  1288.578, 0.183326, 0.096786,-1.172817, 0.001713, 0.000995,-0.011719, 0.965000, 0.088961,-0.788635,1,-0.106268,-0.133686, 0.029701,1,-0.238945,-0.235610, 9.800907,1,0
1778780252988,  1288.608,  1288.603, 0.147936, 0.014508,-0.867165, 0.001417, 0.000268,-0.008701, 1.198519,-0.089089, 1.296693,1, 0.076488, 0.078360, 0.045379,1,-0.254721,-0.228938, 9.800668,1,0
1778780253014,  1288.628,  1288.628, 0.094078, 0.034429,-1.074184, 0.000895, 0.000164,-0.010507, 0.682309, 0.106855,-0.733161,1,-0.080186,-0.119990, 0.029496,1,-0.236562,-0.233255, 9.801022,1,0
1778780253035,  1288.653,  1288.648, 0.147622, 0.043176,-0.847712, 0.001461, 0.000524,-0.008558, 1.331275, 0.352024,-0.130316,1, 0.031618, 0.101379, 0.043263,1,-0.243112,-0.236967, 9.800772,1,0
1778780253058,  1288.678,  1288.673, 0.071588,-0.001461,-1.045719, 0.000711,-0.000162,-0.010214, 0.462807,-0.248788,-0.454072,1,-0.077490,-0.129585, 0.029220,1,-0.235209,-0.236859, 9.800967,1,0
1778780253084,  1288.698,  1288.698, 0.134678, 0.039242,-1.071832, 0.001452, 0.000410,-0.011090, 1.087693, 0.142412,-0.710198,1, 0.028309, 0.081824, 0.041594,1,-0.235628,-0.241504, 9.800844,1,0
1778780253105,  1288.723,  1288.718, 0.079865,-0.025382,-0.985412, 0.000832,-0.000338,-0.009596, 0.964042,-0.336543, 1.542990,1, 0.012816,-0.031192, 0.040070,1,-0.247330,-0.234680, 9.800721,1,0
1778780253128,  1288.748,  1288.743, 0.114049, 0.046386,-1.093511, 0.001240, 0.000528,-0.011226, 0.889587, 0.205663,-0.922871,1, 0.017766, 0.060093, 0.042818,1,-0.230761,-0.248647, 9.800781,1,0
1778780253154,  1288.768,  1288.768, 0.134445, 0.005282,-0.832280, 0.001355, 0.000117,-0.008175, 1.072976,-0.193011, 1.638637,1,-0.014115,-0.006794, 0.038891,1,-0.245297,-0.245222, 9.800514,1,0
1778780253175,  1288.793,  1288.788, 0.113567, 0.062351,-1.081258, 0.001175, 0.000712,-0.010991, 0.831215, 0.566898,-0.874363,1,-0.101015,-0.076879, 0.032593,1,-0.225141,-0.263276, 9.800529,1,0
1778780253198,  1288.818,  1288.813, 0.128012, 0.004545,-0.866092, 0.001273, 0.000062,-0.008559, 1.014512,-0.210153, 1.306917,1, 0.004944,-0.006138, 0.036618,1,-0.240692,-0.254543, 9.800391,1,0
1778780253224,  1288.838,  1288.838, 0.091745, 0.084561,-1.064033, 0.000942, 0.000711,-0.010610, 0.674527, 0.561430,-0.634193,1,-0.073030,-0.056758, 0.033318,1,-0.223443,-0.270085, 9.800384,1,0
1778780253246,  1288.863,  1288.858, 0.132797, 0.018077,-0.916313, 0.001381, 0.000136,-0.009030, 0.887316,-0.119151, 0.810625,1, 0.051326, 0.070956, 0.037147,1,-0.235994,-0.262007, 9.800308,1,0
1778780253268,  1288.888,  1288.883, 0.082880, 0.087965,-1.062792, 0.000770, 0.000885,-0.010640, 0.591688, 0.589849,-0.622070,1,-0.019355,-0.018898, 0.032818,1,-0.220529,-0.273375, 9.800358,1,0
1778780253294,  1288.908,  1288.908, 0.113687, 0.020795,-0.960198, 0.001128, 0.000191,-0.009660, 0.887854,-0.061775, 0.384092,1, 0.036753, 0.026289, 0.030134,1,-0.227878,-0.264533, 9.800432,1,0
1778780253316,  1288.933,  1288.928, 0.100305, 0.069603,-1.004541, 0.000998, 0.000758,-0.010058, 0.744845, 0.547200, 0.091846,1,-0.023589,-0.029064, 0.029752,1,-0.222942,-0.268311, 9.800444,1,0
1778780253343,  1288.958,  1288.958, 0.134724, 0.044255,-0.991246, 0.001392, 0.000415,-0.009903, 1.096442, 0.169373, 0.079701,1,-0.014935,-0.017645, 0.025591,1,-0.224221,-0.265072, 9.800503,1,0
1778780253364,  1288.978,  1288.978, 0.110491, 0.067203,-0.997179, 0.001038, 0.000748,-0.009985, 0.859917, 0.394097, 0.021530,1, 0.032497, 0.021725, 0.028009,1,-0.224329,-0.263906, 9.800531,1,0
1778780253386,  1289.003,  1288.998, 0.123620, 0.063376,-1.010501, 0.001200, 0.000682,-0.010120, 0.993809, 0.249837,-0.041609,1, 0.006554,-0.012685, 0.025929,1,-0.224586,-0.259867, 9.800633,1,0
1778780253413,  1289.028,  1289.028, 0.146061, 0.042611,-0.971912, 0.001484, 0.000448,-0.009726, 1.201243, 0.165701, 0.269477,1, 0.027384, 0.020916, 0.028677,1,-0.231797,-0.251291, 9.800689,1,0
1778780253434,  1289.053,  1289.048, 0.128475, 0.048801,-1.016040, 0.001251, 0.000563,-0.010162, 0.960801, 0.302157,-0.071187,1, 0.004239, 0.003195, 0.025094,1,-0.231932,-0.250915, 9.800695,1,0
1778780253456,  1289.073,  1289.068, 0.154065, 0.050885,-1.005635, 0.001529, 0.000460,-0.010036, 1.288106,-0.093084,-0.102009,1, 0.006156, 0.022273, 0.027766,1,-0.236618,-0.248237, 9.800652,1,0
1778780253483,  1289.098,  1289.098, 0.152791, 0.033908,-0.999555, 0.001525, 0.000361,-0.009997, 1.255541, 0.089125,-0.001666,1, 0.028722, 0.025140, 0.025131,1,-0.243634,-0.242484, 9.800624,1,0
1778780253504,  1289.123,  1289.118, 0.143290, 0.048888,-0.996907, 0.001406, 0.000438,-0.009987, 1.094426,-0.002617,-0.018910,1,-0.002096, 0.013950, 0.025601,1,-0.246428,-0.242184, 9.800562,1,0
1778780253526,  1289.143,  1289.138, 0.159371, 0.010238,-0.999321, 0.001632,-0.000005,-0.009939, 1.158816,-0.071915, 0.232925,1, 0.000588, 0.027290, 0.027121,1,-0.252668,-0.240196, 9.800451,1,0
1778780253553,  1289.168,  1289.168, 0.114617, 0.039052,-1.020788, 0.001132, 0.000426,-0.010293, 0.872169, 0.139428,-0.210118,1, 0.036699, 0.039494, 0.026438,1,-0.253095,-0.242372, 9.800386,1,0
1778780253574,  1289.193,  1289.188, 0.123334, 0.036944,-1.004754, 0.001334, 0.000279,-0.010034, 1.214882,-0.157130, 0.323640,1,-0.009474,-0.008362, 0.022111,1,-0.258091,-0.238226, 9.800358,1,0
1778780253596,  1289.213,  1289.208, 0.123892, 0.018906,-0.967390, 0.001203, 0.000304,-0.009770, 0.914241, 0.379602,-0.192383,1, 0.024129, 0.023186, 0.023190,1,-0.256631,-0.239616, 9.800363,1,0
1778780253623,  1289.238,  1289.238, 0.097542, 0.050602,-1.017705, 0.001053, 0.000374,-0.010102, 0.701348, 0.257696,-0.179853,1,-0.018117,-0.051849, 0.019439,1,-0.253611,-0.239088, 9.800454,1,0
1778780253645,  1289.263,  1289.258, 0.115687, 0.011483,-0.963954, 0.001241, 0.000168,-0.009645, 1.016513,-0.027343, 0.096233,1, 0.040411, 0.025272, 0.023186,1,-0.256465,-0.233418, 9.800517,1,0
1778780253666,  1289.283,  1289.278, 0.106564, 0.052431,-1.015092, 0.001033, 0.000556,-0.010114, 0.761292, 0.115157, 0.114028,1,-0.002070,-0.038549, 0.019026,1,-0.251429,-0.232310, 9.800673,1,0
1778780253693,  1289.308,  1289.308, 0.112175, 0.010409,-0.990539, 0.001120,-0.000016,-0.009887, 0.852181,-0.127243, 0.086965,1,-0.000876,-0.020124, 0.019114,1,-0.247268,-0.229330, 9.800850,1,0
1778780253715,  1289.333,  1289.328, 0.125357, 0.021319,-0.990589, 0.001222, 0.000226,-0.009922, 0.823769, 0.015724,-0.084363,1,-0.005527,-0.009346, 0.023037,1,-0.243190,-0.230186, 9.800932,1,0
1778780253736,  1289.353,  1289.348, 0.113806, 0.041216,-0.993819, 0.001101, 0.000387,-0.009911, 0.912460,-0.078395, 0.152672,1,-0.013613,-0.014087, 0.022311,1,-0.241746,-0.232605, 9.800910,1,0
1778780253763,  1289.378,  1289.378, 0.130808, 0.001894,-0.963949, 0.001264, 0.000073,-0.009637, 1.040979,-0.217358, 0.347715,1,-0.028181, 0.002437, 0.025032,1,-0.241907,-0.236792, 9.800806,1,0
1778780253785,  1289.403,  1289.398, 0.141580, 0.018199,-0.960468, 0.001435, 0.000204,-0.009686, 1.151658, 0.182572, 0.081543,1,-0.018205, 0.006464, 0.023495,1,-0.241404,-0.241588, 9.800701,1,0
1778780253806,  1289.423,  1289.418, 0.161367, 0.040475,-0.968435, 0.001622, 0.000412,-0.009658, 1.208457, 0.113854, 0.549802,1,-0.033049, 0.013964, 0.020640,1,-0.245023,-0.247710, 9.800459,1,0
1778780253833,  1289.448,  1289.448, 0.142231, 0.050288,-0.960315, 0.001405, 0.000528,-0.009631, 1.147016, 0.234423, 0.382628,1,-0.019595, 0.033783, 0.023304,1,-0.248914,-0.259622, 9.800052,1,0
1778780253855,  1289.473,  1289.468, 0.150543, 0.067792,-0.985813, 0.001539, 0.000653,-0.009849, 1.471988, 0.302168, 0.255974,1,-0.043211,-0.000171, 0.018997,1,-0.252618,-0.264317, 9.799832,1,0
1778780253878,  1289.493,  1289.493, 0.204158, 0.079992,-0.970653, 0.002002, 0.000889,-0.009715, 1.742892, 0.516996, 0.280716,1, 0.014623, 0.035378, 0.020221,1,-0.260338,-0.266982, 9.799558,1,0
1778780253903,  1289.518,  1289.518, 0.166527, 0.080828,-0.976695, 0.001614, 0.000769,-0.009722, 1.370889, 0.527194, 0.221439,1, 0.026805, 0.016353, 0.017717,1,-0.262712,-0.264605, 9.799559,1,0
1778780253925,  1289.543,  1289.538, 0.176538, 0.063860,-0.982579, 0.001697, 0.000675,-0.009805, 1.416070, 0.315309, 0.179487,1, 0.021025, 0.017759, 0.022766,1,-0.266441,-0.259508, 9.799594,1,0
1778780253948,  1289.563,  1289.563, 0.179731, 0.042381,-0.972794, 0.001762, 0.000412,-0.009680, 1.488830, 0.162994, 0.259726,1, 0.004473, 0.014810, 0.026288,1,-0.274208,-0.252461, 9.799564,1,0
1778780253973,  1289.588,  1289.588, 0.173672, 0.026124,-1.026545, 0.001690, 0.000281,-0.010222, 1.428579, 0.005778,-0.267358,1, 0.008227, 0.003572, 0.029267,1,-0.274701,-0.250133, 9.799610,1,0
1778780253995,  1289.613,  1289.608, 0.167823, 0.047409,-1.014176, 0.001648, 0.000537,-0.010141, 1.265402, 0.117984,-0.228665,1,-0.002649, 0.009593, 0.032020,1,-0.276069,-0.249213, 9.799595,1,0
1778780254018,  1289.633,  1289.633, 0.157508, 0.047474,-1.051613, 0.001653, 0.000443,-0.010509, 1.269234, 0.210625,-0.513337,1,-0.017280,-0.012250, 0.031625,1,-0.275039,-0.255450, 9.799463,1,0
1778780254044,  1289.658,  1289.658, 0.158725, 0.029286,-1.032092, 0.001597, 0.000271,-0.010370, 1.278865, 0.031821,-0.321977,1,-0.006339, 0.015880, 0.030061,1,-0.278214,-0.255556, 9.799371,1,0
1778780254065,  1289.683,  1289.678, 0.158771, 0.050531,-1.015506, 0.001565, 0.000580,-0.010178, 1.117303, 0.313385,-0.244524,1,-0.018662, 0.005663, 0.031242,1,-0.278864,-0.259375, 9.799253,1,0
1778780254088,  1289.703,  1289.703, 0.146711, 0.059244,-1.042345, 0.001521, 0.000630,-0.010414, 1.160042, 0.318772,-0.422736,1,-0.008866,-0.019706, 0.028124,1,-0.278109,-0.262462, 9.799191,1,0
1778780254114,  1289.728,  1289.728, 0.160042, 0.056157,-1.020660, 0.001600, 0.000548,-0.010235, 1.290591, 0.290702,-0.210023,1, 0.031491, 0.008794, 0.023912,1,-0.279180,-0.259003, 9.799253,1,0
1778780254135,  1289.753,  1289.748, 0.162087, 0.068069,-0.981953, 0.001626, 0.000570,-0.009814, 1.158771, 0.432953, 0.065756,1, 0.026928, 0.000531, 0.025622,1,-0.279343,-0.256162, 9.799323,1,0
1778780254158,  1289.773,  1289.773, 0.157448, 0.041751,-0.962546, 0.001477, 0.000404,-0.009614, 1.266497, 0.158493, 0.360161,1, 0.014630, 0.000738, 0.021890,1,-0.277582,-0.250473, 9.799520,1,0
1778780254184,  1289.798,  1289.798, 0.146273, 0.057676,-0.978261, 0.001482, 0.000654,-0.009777, 1.161057, 0.315019, 0.206168,1,-0.000213,-0.025011, 0.025613,1,-0.272630,-0.250573, 9.799657,1,0
1778780254205,  1289.823,  1289.818, 0.157250, 0.034286,-0.942196, 0.001602, 0.000344,-0.009398, 1.557500, 0.270896, 0.492021,1, 0.021734,-0.008607, 0.027551,1,-0.272750,-0.245626, 9.799779,1,0
1778780254228,  1289.848,  1289.843, 0.155631, 0.063253,-0.982925, 0.001659, 0.000619,-0.009839, 1.261340, 0.377639, 0.160863,1, 0.029603,-0.034744, 0.030264,1,-0.263851,-0.241816, 9.800117,1,0
