Time,GPS_ts,fGPS_ts,scaledAccelX,scaledAccelY,scaledAccelZ,deltaVelX,deltaVelY,deltaVelZ,estLinearAccelX,estLinearAccelY,estLinearAccelZ,estLinearAccel:valid,estAngularRateX,estAngularRateY,estAngularRateZ,estAngularRate:valid,estGravityX,estGravityY,estGravityZ,estGravity:valid,flag
1778781661758,  2677.561,  2677.561, 0.005784, 0.022493,-1.008151, 0.000060, 0.000215,-0.010075, 0.615860,-0.041744,-0.099398,1,-0.006788,-0.005332, 0.000147,1, 0.559306,-0.262540, 9.787167,1,0
1778781661758,  2677.586,  2677.581, 0.002892, 0.029381,-0.997773, 0.000028, 0.000363,-0.009959, 0.574771, 0.078253, 0.033769,1,-0.004038, 0.004056,-0.000540,1, 0.558767,-0.263470, 9.787172,1,0
1778781661759,  2677.606,  2677.606, 0.018176, 0.036079,-1.013790, 0.000179, 0.000435,-0.010135, 0.737697, 0.090097,-0.154755,1, 0.000796, 0.001298, 0.000885,1, 0.559408,-0.263692, 9.787130,1,0
1778781661759,  2677.631,  2677.631, 0.024534, 0.036899,-0.973532, 0.000265, 0.000354,-0.009746, 0.797837, 0.098079, 0.240164,1, 0.005038, 0.007631,-0.001664,1, 0.557003,-0.263620, 9.787269,1,0
1778781661759,  2677.656,  2677.651, 0.007092, 0.025767,-0.999671, 0.000080, 0.000261,-0.010010, 0.642345,-0.015754,-0.007691,1,-0.002283,-0.002805,-0.000738,1, 0.557871,-0.263300, 9.787229,1,0
1778781661759,  2677.681,  2677.681, 0.005822, 0.035226,-0.987753, 0.000061, 0.000348,-0.009869, 0.614791, 0.082186, 0.100689,1,-0.001053,-0.003253,-0.000291,1, 0.557795,-0.263293, 9.787232,1,0
1778781661759,  2677.706,  2677.701, 0.014043, 0.024432,-0.998225, 0.000145, 0.000243,-0.010013, 0.653232,-0.028792,-0.079243,1, 0.005898,-0.002645, 0.001366,1, 0.558803,-0.262328, 9.787201,1,0
1778781661759,  2677.731,  2677.726, 0.010624, 0.031653,-0.983208, 0.000117, 0.000330,-0.009833, 0.660668, 0.048670, 0.145372,1, 0.005695,-0.000069, 0.000259,1, 0.556107,-0.261673, 9.787373,1,0
1778781661759,  2677.756,  2677.751, 0.003103, 0.026908,-1.001355, 0.000042, 0.000246,-0.010025, 0.599939,-0.058290,-0.021543,1,-0.002282,-0.001982,-0.000121,1, 0.556497,-0.261401, 9.787357,1,0
1778781661759,  2677.776,  2677.771, 0.008109, 0.030593,-0.999334, 0.000067, 0.000319,-0.009990, 0.564178, 0.073118,-0.011539,1,-0.004806, 0.000182, 0.000059,1, 0.556727,-0.262541, 9.787313,1,0
1778781661759,  2677.796,  2677.791, 0.016712, 0.021103,-1.003498, 0.000157, 0.000204,-0.010036, 0.650052,-0.040270,-0.026014,1, 0.003918,-0.005051,-0.000144,1, 0.557137,-0.262026, 9.787304,1,0
1778781661773,  2697.371,  2697.371, 0.016083, 0.031566,-0.986268, 0.000167, 0.000315,-0.009878, 0.228021, 0.029831, 0.130424,1,-0.000666, 0.003705,-0.000573,1, 0.070187,-0.279749, 9.802408,1,0
1778781661795,  2697.396,  2697.391, 0.000213, 0.019154,-1.007599,-0.000004, 0.000201,-0.010064, 0.083625,-0.019145, 0.043747,1, 0.001219,-0.003360, 0.000716,1, 0.070305,-0.279484, 9.802415,1,0
1778781661817,  2697.416,  2697.411, 0.014745, 0.033821,-0.994724, 0.000143, 0.000328,-0.009965, 0.156635,-0.036383,-0.070959,1,-0.004045, 0.001925,-0.000347,1, 0.070452,-0.280133, 9.802395,1,0
1778781661844,  2697.441,  2697.441, 0.008644, 0.029189,-0.990659, 0.000091, 0.000302,-0.009888, 0.154186, 0.006375, 0.087367,1, 0.002651,-0.000842, 0.000724,1, 0.069446,-0.279786, 9.802412,1,0
1778781661865,  2697.466,  2697.461, 0.015468, 0.033487,-0.991137, 0.000150, 0.000322,-0.009922, 0.205356,-0.034203,-0.007278,1,-0.004157, 0.002676,-0.000517,1, 0.069362,-0.280155, 9.802402,1,0
1778781661888,  2697.486,  2697.486, 0.000238, 0.028361,-0.997943, 0.000003, 0.000296,-0.009964, 0.071220,-0.001969, 0.015928,1, 0.002325,-0.003185, 0.000028,1, 0.068982,-0.280021, 9.802408,1,0
1778781661914,  2697.511,  2697.511, 0.012331, 0.024747,-1.003751, 0.000111, 0.000240,-0.010064, 0.190088,-0.037723,-0.041037,1,-0.002506, 0.003035,-0.000079,1, 0.069066,-0.280482, 9.802395,1,0
1778781661935,  2697.536,  2697.531, 0.007394, 0.027757,-0.990344, 0.000090, 0.000295,-0.009890, 0.227007, 0.063898, 0.167193,1, 0.003584, 0.003878, 0.000878,1, 0.059810,-0.280381, 9.802459,1,0
1778781661958,  2697.556,  2697.556, 0.007367, 0.023710,-1.003059, 0.000069, 0.000230,-0.010043, 0.132445,-0.047365,-0.034175,1,-0.003766,-0.000051,-0.000368,1, 0.060204,-0.280000, 9.802467,1,0
1778781661984,  2697.581,  2697.581, 0.009499, 0.035129,-0.988745, 0.000104, 0.000356,-0.009885, 0.152737, 0.064124, 0.106185,1, 0.002041, 0.002554, 0.000848,1, 0.059503,-0.280306, 9.802463,1,0
1778781662005,  2697.606,  2697.601, 0.014201, 0.026003,-1.001951, 0.000136, 0.000245,-0.010036, 0.151237,-0.070611,-0.045948,1, 0.000322,-0.001533,-0.000216,1, 0.059752,-0.280008, 9.802469,1,0
1778781662028,  2697.626,  2697.626, 0.010424, 0.034022,-0.982882, 0.000118, 0.000345,-0.009820, 0.161000, 0.053623, 0.163695,1, 0.003697, 0.001129, 0.000122,1, 0.058736,-0.279908, 9.802479,1,0
1778781662054,  2697.651,  2697.651, 0.001944, 0.020616,-1.006859, 0.000007, 0.000216,-0.010053, 0.078338,-0.077485,-0.071434,1,-0.001525,-0.002868, 0.000011,1, 0.059364,-0.279709, 9.802481,1,0
1778781662075,  2697.676,  2697.671, 0.011265, 0.033561,-0.987964, 0.000129, 0.000346,-0.009885, 0.209851, 0.027229, 0.049128,1,-0.001447, 0.005371,-0.001143,1, 0.058765,-0.280340, 9.802466,1,0
1778781662098,  2697.696,  2697.696, 0.005531, 0.020324,-1.000057, 0.000056, 0.000214,-0.009995, 0.112790,-0.080179,-0.004720,1, 0.000548,-0.001725, 0.000387,1, 0.058607,-0.279476, 9.802491,1,0
1778781662124,  2697.721,  2697.721, 0.013136, 0.031753,-0.990854, 0.000131, 0.000312,-0.009922, 0.187041, 0.031268, 0.085515,1,-0.002971, 0.004457,-0.000012,1, 0.058080,-0.280215, 9.802474,1,0
1778781662146,  2697.746,  2697.741, 0.003712, 0.021645,-1.008558, 0.000033, 0.000221,-0.010078, 0.096446,-0.015864, 0.004448,1, 0.001075,-0.001643, 0.000516,1, 0.049854,-0.280005, 9.802525,1,0
1778781662168,  2697.766,  2697.766, 0.017229, 0.033986,-0.986485, 0.000170, 0.000331,-0.009874, 0.218075, 0.052743, 0.128403,1,-0.001410, 0.006186, 0.000030,1, 0.048923,-0.280594, 9.802513,1,0
1778781662194,  2697.791,  2697.791, 0.007291, 0.028451,-0.992787, 0.000074, 0.000296,-0.009907, 0.120286,-0.001297, 0.066607,1, 0.002459,-0.002002, 0.000880,1, 0.048846,-0.280227, 9.802524,1,0
1778781662216,  2697.816,  2697.811, 0.013005, 0.033032,-0.996157, 0.000125, 0.000323,-0.009966, 0.132452,-0.038057,-0.037099,1,-0.003882, 0.000172,-0.000773,1, 0.049192,-0.280523, 9.802513,1,0
1778781662238,  2697.841,  2697.836, 0.007257, 0.028888,-0.993916, 0.000075, 0.000302,-0.009935, 0.119695, 0.003019, 0.055536,1, 0.003654, 0.001093, 0.000464,1, 0.048491,-0.280162, 9.802527,1,0
1778781662264,  2697.861,  2697.861, 0.014204, 0.024639,-0.996344, 0.000145, 0.000237,-0.009981, 0.187699,-0.038624, 0.031728,1,-0.002437, 0.002371,-0.000571,1, 0.048331,-0.280327, 9.802524,1,0
1778781662286,  2697.886,  2697.881, 0.000643, 0.026894,-0.999152, 0.000009, 0.000283,-0.009980, 0.107282, 0.038041, 0.100366,1, 0.004169,-0.001049, 0.000244,1, 0.047975,-0.280105, 9.802531,1,0
1778781662308,  2697.911,  2697.906, 0.013446, 0.026486,-1.000582, 0.000125, 0.000253,-0.010035, 0.180130,-0.020292,-0.009830,1,-0.002843, 0.003476, 0.000171,1, 0.048163,-0.280115, 9.802530,1,0
1778781662334,  2697.931,  2697.931, 0.013479, 0.033265,-0.985006, 0.000151, 0.000343,-0.009844, 0.172719, 0.046062, 0.142953,1, 0.003045, 0.001833,-0.000120,1, 0.038835,-0.280068, 9.802573,1,0
1778781662356,  2697.956,  2697.951, 0.009357, 0.026373,-1.001785, 0.000087, 0.000248,-0.010028, 0.088210,-0.073679,-0.038353,1,-0.000969,-0.001339,-0.000279,1, 0.039223,-0.279730, 9.802581,1,0
1778781662379,  2697.981,  2697.976, 0.008074, 0.033885,-0.989356, 0.000087, 0.000349,-0.009892, 0.117715, 0.052085, 0.100302,1, 0.002330, 0.002556, 0.000629,1, 0.038459,-0.280139, 9.802572,1,0
1778781662404,  2698.001,  2698.001, 0.008768, 0.020277,-1.003412, 0.000074, 0.000206,-0.010029, 0.124575,-0.081044,-0.037527,1,-0.001672,-0.001480, 0.000155,1, 0.038639,-0.279944, 9.802577,1,0
1778781662426,  2698.026,  2698.021, 0.009077, 0.032721,-0.984949, 0.000111, 0.000336,-0.009843, 0.199774, 0.041805, 0.134936,1,-0.000103, 0.005657,-0.000151,1, 0.037704,-0.280385, 9.802568,1,0
1778781662449,  2698.051,  2698.046, 0.003231, 0.021107,-1.005273, 0.000019, 0.000219,-0.010055, 0.069672,-0.073155,-0.055789,1,-0.002553,-0.001010,-0.000156,1, 0.038018,-0.280225, 9.802571,1,0
1778781662474,  2698.071,  2698.071, 0.014689, 0.033470,-0.993560, 0.000147, 0.000329,-0.009951, 0.181572, 0.047330, 0.059061,1,-0.001656, 0.004251,-0.000634,1, 0.037388,-0.280947, 9.802553,1,0
1778781662496,  2698.096,  2698.091, 0.008323, 0.022442,-1.001619, 0.000073, 0.000230,-0.010007, 0.101348,-0.009128, 0.053521,1, 0.004878,-0.000662, 0.000592,1, 0.037044,-0.280048, 9.802581,1,0
1778781662519,  2698.121,  2698.116, 0.014646, 0.033960,-0.988704, 0.000145, 0.000333,-0.009895, 0.180259, 0.052700, 0.106702,1,-0.001127, 0.004756,-0.000290,1, 0.036486,-0.280370, 9.802573,1,0
1778781662544,  2698.141,  2698.141, 0.003012, 0.026724,-1.000225, 0.000032, 0.000277,-0.009982, 0.057778,-0.017774,-0.006246,1, 0.002537,-0.003774, 0.000643,1, 0.028251,-0.279771, 9.802618,1,0
1778781662566,  2698.166,  2698.161, 0.018212, 0.032914,-0.986535, 0.000182, 0.000327,-0.009878, 0.171462,-0.022786,-0.009307,1,-0.001507, 0.004021,-0.000256,1, 0.028015,-0.279971, 9.802612,1,0
1778781662593,  2698.191,  2698.191, 0.005534, 0.025836,-0.992117, 0.000064, 0.000271,-0.009906, 0.081612,-0.026020, 0.073287,1, 0.003086,-0.002386, 0.000231,1, 0.027414,-0.279289, 9.802634,1,0
1778781662615,  2698.211,  2698.211, 0.009453, 0.025442,-1.001155, 0.000091, 0.000242,-0.010036, 0.120386,-0.030305,-0.015358,1,-0.004740, 0.002108,-0.000808,1, 0.027622,-0.279956, 9.802614,1,0
1778781662636,  2698.236,  2698.231, 0.004846, 0.027944,-0.997023, 0.000053, 0.000291,-0.009960, 0.106238, 0.045075, 0.103606,1, 0.003060, 0.002134, 0.000475,1, 0.026860,-0.280070, 9.802613,1,0
1778781662663,  2698.261,  2698.261, 0.014730, 0.026102,-0.997726, 0.000143, 0.000249,-0.009997, 0.171294,-0.024088, 0.018267,1,-0.001852, 0.003905,-0.000281,1, 0.026724,-0.280120, 9.802612,1,0
1778781662685,  2698.286,  2698.281, 0.002392, 0.026152,-0.998756, 0.000029, 0.000269,-0.009971, 0.106819, 0.038680, 0.115736,1, 0.004097, 0.000246,-0.000211,1, 0.026065,-0.279806, 9.802623,1,0
1778781662706,  2698.306,  2698.301, 0.011220, 0.026444,-1.001288, 0.000103, 0.000249,-0.010031, 0.062914,-0.064815,-0.074842,1,-0.002122,-0.000087,-0.000404,1, 0.026330,-0.279642, 9.802627,1,0
1778781662733,  2698.331,  2698.331, 0.010610, 0.033289,-0.987262, 0.000112, 0.000343,-0.009862, 0.122169, 0.046306, 0.120894,1, 0.002979, 0.001699, 0.000031,1, 0.016340,-0.280044, 9.802637,1,0
1778781662755,  2698.356,  2698.351, 0.013496, 0.027076,-0.999749, 0.000130, 0.000258,-0.010016, 0.100744,-0.080538,-0.066591,1,-0.001446,-0.000655, 0.000156,1, 0.016699,-0.279757, 9.802645,1,0
1778781662776,  2698.376,  2698.371, 0.007597, 0.032648,-0.986128, 0.000093, 0.000343,-0.009853, 0.168957, 0.051726, 0.116896,1,-0.000952, 0.005430,-0.000066,1, 0.015857,-0.280147, 9.802635,1,0
1778781662803,  2698.401,  2698.401, 0.004901, 0.021394,-1.004984, 0.000042, 0.000217,-0.010050, 0.064151,-0.069949,-0.052879,1,-0.002494,-0.000587, 0.000285,1, 0.016106,-0.279831, 9.802644,1,0
1778781662825,  2698.426,  2698.421, 0.012218, 0.033231,-0.988764, 0.000139, 0.000341,-0.009883, 0.179220, 0.044010, 0.095776,1,-0.000863, 0.004950,-0.000378,1, 0.015219,-0.280292, 9.802631,1,0
1778781662846,  2698.446,  2698.441, 0.007959, 0.021786,-0.998997, 0.000071, 0.000219,-0.009991, 0.081215,-0.007517, 0.037715,1, 0.004047,-0.000736, 0.000928,1, 0.015211,-0.279408, 9.802657,1,0
1778781662873,  2698.471,  2698.471, 0.011937, 0.032093,-0.991401, 0.000120, 0.000312,-0.009910, 0.131695, 0.034717, 0.080316,1,-0.002773, 0.002086,-0.000103,1, 0.014564,-0.280090, 9.802638,1,0
1778781662895,  2698.496,  2698.491, 0.007778, 0.022507,-1.006282, 0.000060, 0.000224,-0.010063, 0.056527,-0.013548,-0.025621,1, 0.002414,-0.001414, 0.000503,1, 0.014662,-0.279630, 9.802651,1,0
1778781662916,  2698.516,  2698.511, 0.016212, 0.034381,-0.987738, 0.000162, 0.000343,-0.009885, 0.149515, 0.001485, 0.010745,1,-0.003136, 0.004451,-0.000912,1, 0.014268,-0.280101, 9.802639,1,0
1778781662943,  2698.541,  2698.541, 0.004009, 0.024419,-0.995245, 0.000043, 0.000257,-0.009939, 0.044480,-0.040205, 0.042639,1, 0.002617,-0.002375, 0.000985,1, 0.005125,-0.279589, 9.802662,1,0
1778781662965,  2698.566,  2698.561, 0.012883, 0.034838,-0.991929, 0.000137, 0.000347,-0.009935, 0.122196,-0.002064,-0.011593,1,-0.003108, 0.002441,-0.000867,1, 0.005098,-0.280065, 9.802649,1,0
1778781662986,  2698.586,  2698.581, 0.006888, 0.024856,-0.995220, 0.000072, 0.000260,-0.009947, 0.083028, 0.024449, 0.100001,1, 0.004440, 0.002246, 0.000168,1, 0.004371,-0.279879, 9.802654,1,0
1778781663014,  2698.611,  2698.611, 0.014603, 0.028932,-0.994804, 0.000141, 0.000275,-0.009969, 0.147425, 0.003789, 0.046961,1,-0.002139, 0.005155,-0.000141,1, 0.004062,-0.280006, 9.802650,1,0
1778781663035,  2698.636,  2698.631,-0.000031, 0.027734,-1.001917, 0.000003, 0.000277,-0.010002, 0.070041, 0.028688, 0.085590,1, 0.003640,-0.001462, 0.000142,1, 0.003735,-0.279709, 9.802659,1,0
1778781663057,  2698.656,  2698.651, 0.014078, 0.026563,-0.999288, 0.000124, 0.000251,-0.010006, 0.037990,-0.053676,-0.070337,1,-0.001392,-0.000000, 0.000222,1, 0.004135,-0.279577, 9.802663,1,0
1778781663084,  2698.681,  2698.681, 0.014445, 0.031421,-0.988522, 0.000151, 0.000317,-0.009878, 0.144725, 0.028283, 0.108567,1, 0.004302, 0.003098, 0.000322,1, 0.002968,-0.279716, 9.802660,1,0
1778781663105,  2698.706,  2698.701, 0.010337, 0.027326,-0.996632, 0.000103, 0.000261,-0.009978, 0.077823,-0.066192, 0.014862,1,-0.002609, 0.000636, 0.000142,1, 0.002811,-0.279470, 9.802667,1,0
1778781663128,  2698.726,  2698.726, 0.004049, 0.033778,-0.991087, 0.000056, 0.000352,-0.009908, 0.034836, 0.051004, 0.083403,1, 0.002759, 0.000411, 0.000123,1,-0.006612,-0.280152, 9.802646,1,0
1778781663154,  2698.751,  2698.751, 0.006101, 0.020814,-1.008917, 0.000046, 0.000209,-0.010088, 0.053609,-0.075679,-0.091441,1, 0.000024,-0.001815,-0.000159,1,-0.006172,-0.279789, 9.802656,1,0
1778781663175,  2698.776,  2698.771, 0.014840, 0.032981,-0.979961, 0.000167, 0.000343,-0.009797, 0.218835, 0.056691, 0.114758,1, 0.001979, 0.006302,-0.001111,1,-0.007015,-0.279680, 9.802658,1,0
1778781663198,  2698.796,  2698.796,-0.000123, 0.019887,-1.004283,-0.000009, 0.000200,-0.010013,-0.008243,-0.084064,-0.045976,1,-0.004180,-0.003876,-0.000435,1,-0.006916,-0.279217, 9.802671,1,0
1778781663224,  2698.821,  2698.821, 0.011295, 0.033897,-0.998425, 0.000099, 0.000327,-0.009998, 0.103601, 0.052189, 0.011433,1,-0.003934, 0.005848,-0.000001,1,-0.007346,-0.280353, 9.802639,1,0
1778781663245,  2698.846,  2698.841, 0.011310, 0.023243,-1.003113, 0.000092, 0.000240,-0.010024, 0.073615, 0.009967, 0.040079,1, 0.003782,-0.001234, 0.000205,1,-0.007681,-0.279861, 9.802653,1,0
1778781663268,  2698.866,  2698.866, 0.021720, 0.031262,-0.981735, 0.000217, 0.000303,-0.009832, 0.204645, 0.026761, 0.175120,1,-0.001344, 0.006130,-0.000122,1,-0.008543,-0.279860, 9.802652,1,0
1778781663294,  2698.891,  2698.891,-0.002323, 0.027935,-0.995493,-0.000003, 0.000291,-0.009934,-0.031049,-0.005724, 0.040205,1, 0.000960,-0.005345,-0.000540,1,-0.008099,-0.279644, 9.802659,1,0
1778781663315,  2698.916,  2698.911, 0.014786, 0.032412,-0.999239, 0.000136, 0.000310,-0.010018, 0.019858,-0.051999,-0.125766,1,-0.003396, 0.000156, 0.000790,1,-0.007639,-0.280069, 9.802647,1,0
1778781663338,  2698.936,  2698.936, 0.015619, 0.029726,-0.986275, 0.000166, 0.000309,-0.009851, 0.134167, 0.011967, 0.130588,1, 0.007230, 0.002093, 0.000191,1,-0.019196,-0.279319, 9.802652,1,0
1778781663364,  2698.961,  2698.961, 0.010631, 0.022871,-0.998067, 0.000108, 0.000212,-0.009980, 0.085074,-0.054722, 0.014969,1,-0.002506,-0.000155,-0.000663,1,-0.019174,-0.279084, 9.802659,1,0
1778781663385,  2698.986,  2698.981,-0.000857, 0.030291,-0.997794,-0.000010, 0.000313,-0.009952, 0.019672, 0.071571, 0.087817,1,-0.002233, 0.002866,-0.000279,1,-0.019751,-0.279726, 9.802640,1,0
1778781663408,  2699.006,  2699.006, 0.013657, 0.023325,-1.010364, 0.000116, 0.000221,-0.010115, 0.114746,-0.051213,-0.105651,1,-0.002625, 0.002627, 0.000880,1,-0.019265,-0.280036, 9.802632,1,0
1778781663434,  2699.031,  2699.031, 0.021026, 0.034959,-0.978336, 0.000223, 0.000354,-0.009793, 0.185706, 0.063078, 0.208438,1, 0.003702, 0.006687,-0.000351,1,-0.020698,-0.279636, 9.802640,1,0
1778781663456,  2699.056,  2699.051, 0.004967, 0.021151,-1.007266, 0.000048, 0.000202,-0.010075,-0.006395,-0.073844, 0.020967,1, 0.000162,-0.003130, 0.000426,1,-0.020399,-0.278988, 9.802660,1,0
1778781663478,  2699.081,  2699.076, 0.009051, 0.036824,-0.992857, 0.000098, 0.000376,-0.009940, 0.067950, 0.080845, 0.066020,1,-0.000831, 0.003743, 0.000295,1,-0.020922,-0.280302, 9.802621,1,0
1778781663504,  2699.101,  2699.101, 0.007641, 0.023312,-1.002693, 0.000068, 0.000243,-0.010016, 0.054171,-0.051237,-0.030431,1, 0.002510,-0.002339, 0.000582,1,-0.020690,-0.279766, 9.802637,1,0
1778781663526,  2699.126,  2699.121, 0.017708, 0.035801,-0.978518, 0.000191, 0.000363,-0.009788, 0.185675, 0.034817, 0.106493,1, 0.002048, 0.007398,-0.000397,1,-0.021434,-0.279637, 9.802639,1,0
1778781663549,  2699.151,  2699.146,-0.003118, 0.021139,-1.004395,-0.000031, 0.000215,-0.010017,-0.060442,-0.071833,-0.047120,1,-0.001176,-0.004695, 0.000108,1,-0.029727,-0.279175, 9.802630,1,0
1778781663574,  2699.171,  2699.171, 0.009390, 0.031943,-1.002176, 0.000078, 0.000299,-0.010042, 0.062270, 0.033289,-0.025383,1,-0.003692, 0.005160,-0.000736,1,-0.029974,-0.280083, 9.802604,1,0
1778781663596,  2699.196,  2699.191, 0.011537, 0.022615,-0.995247, 0.000116, 0.000238,-0.009935, 0.101579, 0.022321, 0.124983,1, 0.004760, 0.001410, 0.000562,1,-0.030862,-0.279701, 9.802612,1,0
1778781663619,  2699.221,  2699.216, 0.012302, 0.029777,-0.991223, 0.000127, 0.000287,-0.009926, 0.089807, 0.012514, 0.082044,1,-0.001504, 0.003468,-0.000814,1,-0.030938,-0.279545, 9.802616,1,0
1778781663644,  2699.241,  2699.241, 0.000919, 0.029218,-0.995580, 0.000020, 0.000305,-0.009940,-0.022190, 0.007050, 0.039311,1, 0.000917,-0.001126, 0.000434,1,-0.031167,-0.279452, 9.802618,1,0
1778781663666,  2699.266,  2699.261, 0.015772, 0.031689,-0.993627, 0.000154, 0.000303,-0.009957, 0.062794,-0.051233,-0.066129,1,-0.003516, 0.002198, 0.000481,1,-0.031046,-0.279923, 9.802605,1,0
1778781663689,  2699.291,  2699.286, 0.011726, 0.029576,-0.989884, 0.000122, 0.000310,-0.009886, 0.082946, 0.010370, 0.095165,1, 0.004654, 0.000617, 0.000261,1,-0.032063,-0.279527, 9.802613,1,0
1778781663714,  2699.311,  2699.311, 0.009475, 0.023326,-1.001625, 0.000090, 0.000219,-0.010024, 0.060944,-0.050719,-0.019968,1,-0.003811, 0.001554,-0.001042,1,-0.032026,-0.279592, 9.802611,1,0
1778781663736,  2699.336,  2699.331, 0.004353, 0.030237,-0.997550, 0.000037, 0.000311,-0.009955, 0.034274, 0.077935, 0.086834,1,-0.001727, 0.002135, 0.000046,1,-0.041976,-0.280195, 9.802556,1,0
1778781663759,  2699.361,  2699.356, 0.013407, 0.024917,-1.004271, 0.000121, 0.000234,-0.010058, 0.089722,-0.035925,-0.045980,1,-0.000686, 0.002657,-0.000174,1,-0.041836,-0.280297, 9.802554,1,0
1778781663785,  2699.381,  2699.381, 0.014624, 0.034581,-0.983214, 0.000160, 0.000350,-0.009831, 0.100795, 0.059147, 0.160525,1, 0.004028, 0.003159, 0.000122,1,-0.042714,-0.279854, 9.802563,1,0
1778781663806,  2699.406,  2699.401, 0.007460, 0.023241,-0.999632, 0.000076, 0.000218,-0.010016, 0.011520,-0.088935,-0.006284,1,-0.000364,-0.001213, 0.000291,1,-0.042491,-0.279337, 9.802579,1,0
1778781663833,  2699.431,  2699.431, 0.006865, 0.035148,-0.993784, 0.000085, 0.000361,-0.009934, 0.024237, 0.064419, 0.056860,1, 0.000004, 0.000596, 0.000439,1,-0.043101,-0.280265, 9.802549,1,0
1778781663855,  2699.451,  2699.451, 0.007747, 0.021983,-1.001775, 0.000070, 0.000228,-0.010023, 0.032940,-0.064483,-0.021503,1, 0.001047, 0.000637, 0.001000,1,-0.043050,-0.280027, 9.802557,1,0
1778781663876,  2699.476,  2699.471, 0.010647, 0.033245,-0.986913, 0.000120, 0.000336,-0.009863, 0.129586, 0.037192, 0.109484,1, 0.000028, 0.003485,-0.000906,1,-0.043667,-0.280069, 9.802552,1,0
1778781663903,  2699.501,  2699.501, 0.006021, 0.020700,-1.002559, 0.000051, 0.000209,-0.010017, 0.015181,-0.076491,-0.029182,1,-0.002351,-0.000698, 0.000039,1,-0.043844,-0.279564, 9.802567,1,0
1778781663925,  2699.526,  2699.521, 0.006863, 0.034805,-0.991217, 0.000075, 0.000356,-0.009899, 0.064144, 0.077472, 0.075883,1,-0.003561, 0.003586,-0.000357,1,-0.044426,-0.280528, 9.802536,1,0
1778781663946,  2699.546,  2699.541, 0.010393, 0.019696,-1.006652, 0.000086, 0.000202,-0.010061,-0.008238,-0.016777,-0.005365,1, 0.002969,-0.001907, 0.001130,1,-0.053677,-0.280143, 9.802501,1,0
1778781663973,  2699.571,  2699.571, 0.018731, 0.035539,-0.988066, 0.000191, 0.000354,-0.009893, 0.129463, 0.068384, 0.112878,1, 0.000183, 0.005475,-0.000934,1,-0.054392,-0.280131, 9.802497,1,0
1778781663995,  2699.596,  2699.591, 0.003381, 0.019028,-1.004364, 0.000023, 0.000194,-0.010041,-0.040628,-0.043823, 0.055210,1, 0.001208,-0.001279, 0.000839,1,-0.054554,-0.279675, 9.802509,1,0
1778781664016,  2699.616,  2699.611, 0.011957, 0.035085,-0.991109, 0.000121, 0.000351,-0.009925, 0.021930,-0.019219,-0.013027,1,-0.005013, 0.002670,-0.000102,1,-0.054643,-0.280458, 9.802486,1,0
1778781664043,  2699.641,  2699.641, 0.008385, 0.026706,-0.999112, 0.000087, 0.000276,-0.009981, 0.027046,-0.018225, 0.004547,1, 0.003049,-0.001964, 0.000273,1,-0.055126,-0.280028, 9.802496,1,0
1778781664065,  2699.666,  2699.661, 0.016676, 0.033569,-0.981473, 0.000177, 0.000330,-0.009814, 0.118668,-0.004071, 0.085245,1,-0.001573, 0.006805,-0.000779,1,-0.055977,-0.280116, 9.802488,1,1
1778781664086,  2699.686,  2699.681, 0.000014, 0.025318,-1.002607, 0.000002, 0.000260,-0.010004, 0.005950, 0.036164, 0.128641,1, 0.003059,-0.000940, 0.000114,1,-0.056393,-0.280081, 9.802487,1,1
1778781664113,  2699.711,  2699.711, 0.010905, 0.028350,-1.004032, 0.000095, 0.000267,-0.010060, 0.051100,-0.002443,-0.043710,1,-0.003682, 0.003456,-0.001489,1,-0.055946,-0.280575, 9.802476,1,1
1778781664135,  2699.736,  2699.731, 0.008627, 0.024578,-0.993148, 0.000089, 0.000262,-0.009918, 0.057006, 0.044381, 0.118040,1, 0.004702, 0.002579, 0.000173,1,-0.063066,-0.280151, 9.802444,1,1
1778781664156,  2699.756,  2699.751, 0.010981, 0.027956,-0.994696, 0.000115, 0.000264,-0.009965, 0.041853,-0.084175, 0.000211,1,-0.001175, 0.000378,-0.000040,1,-0.063014,-0.279667, 9.802459,1,1
1778781664183,  2699.781,  2699.781, 0.003327, 0.031411,-0.993976, 0.000047, 0.000328,-0.009926,-0.031061, 0.027734, 0.054860,1, 0.001951,-0.000166, 0.000698,1,-0.063684,-0.280242, 9.802438,1,1
1778781664205,  2699.806,  2699.801, 0.016075, 0.031158,-0.992417, 0.000156, 0.000296,-0.009955, 0.020751,-0.059582,-0.076858,1,-0.002370, 0.000835, 0.000560,1,-0.063399,-0.280325, 9.802438,1,1
1778781664227,  2699.826,  2699.821, 0.009622, 0.031233,-0.987431, 0.000110, 0.000325,-0.009852, 0.112719, 0.058121, 0.170231,1, 0.001338, 0.003358,-0.000331,1,-0.064499,-0.280463, 9.802426,1,1
1778781664254,  2699.851,  2699.851, 0.006223, 0.021347,-1.005322, 0.000053, 0.000208,-0.010057,-0.002965,-0.070574,-0.056400,1,-0.002661,-0.000108, 0.000544,1,-0.063986,-0.280003, 9.802443,1,1
1778781664275,  2699.876,  2699.871, 0.008790, 0.032340,-0.995005, 0.000086, 0.000331,-0.009938, 0.057954, 0.057972, 0.066516,1,-0.001230, 0.003154, 0.000335,1,-0.064702,-0.280675, 9.802419,1,1
1778781664297,  2699.896,  2699.891, 0.012830, 0.023176,-0.998515, 0.000115, 0.000221,-0.009992, 0.010256,-0.030332,-0.000217,1, 0.001707, 0.000926, 0.000255,1,-0.065069,-0.280161, 9.802431,1,1
1778781664324,  2699.921,  2699.921, 0.011101, 0.035130,-0.986200, 0.000118, 0.000352,-0.009860, 0.043010, 0.063964, 0.131101,1, 0.001764, 0.002038, 0.000579,1,-0.065919,-0.280485, 9.802417,1,1
1778781664345,  2699.946,  2699.941, 0.010473, 0.023592,-1.005464, 0.000099, 0.000225,-0.010071,-0.027988,-0.067500,-0.056023,1, 0.001058,-0.002437, 0.000637,1,-0.070467,-0.279906, 9.802402,1,1
1778781664368,  2699.966,  2699.966, 0.013010, 0.034473,-0.984446, 0.000146, 0.000355,-0.009852, 0.056244, 0.057756, 0.148266,1, 0.001333, 0.003278, 0.000419,1,-0.071442,-0.280262, 9.802384,1,1
1778781664394,  2699.991,  2699.991, 0.004546, 0.021429,-1.000983, 0.000043, 0.000219,-0.009996,-0.026624,-0.069494,-0.013884,1, 0.002200,-0.003022, 0.000378,1,-0.071113,-0.279571, 9.802406,1,1
1778781664415,  2700.016,  2700.011, 0.011441, 0.033724,-0.991630, 0.000122, 0.000339,-0.009918, 0.039013, 0.033899, 0.034407,1,-0.003794, 0.003835,-0.000549,1,-0.071460,-0.280300, 9.802382,1,1
1778781664438,  2700.036,  2700.036, 0.010149, 0.024572,-1.002780, 0.000088, 0.000246,-0.010020, 0.027722,-0.038949,-0.031520,1,-0.000237, 0.001907, 0.000774,1,-0.071865,-0.279930, 9.802390,1,1
1778781664464,  2700.061,  2700.061, 0.016362, 0.032119,-0.983673, 0.000156, 0.000314,-0.009838, 0.087697, 0.034481, 0.155834,1,-0.003000, 0.005462,-0.000797,1,-0.072930,-0.280592, 9.802363,1,1
1778781664485,  2700.086,  2700.081, 0.003514, 0.023199,-1.008867, 0.000020, 0.000230,-0.010083,-0.046557,-0.013290,-0.010917,1, 0.003466,-0.004513, 0.000072,1,-0.072507,-0.280123, 9.802381,1,1
1778781664508,  2700.106,  2700.106, 0.017332, 0.032592,-0.990333, 0.000167, 0.000323,-0.009917, 0.097070, 0.039002, 0.090517,1,-0.002625, 0.004726,-0.000343,1,-0.073048,-0.280695, 9.802360,1,1
1778781664534,  2700.131,  2700.131, 0.009389, 0.026425,-0.990319, 0.000104, 0.000282,-0.009899, 0.016139,-0.021049, 0.090643,1, 0.005031, 0.000643, 0.000829,1,-0.076548,-0.280031, 9.802352,1,1
1778781664555,  2700.156,  2700.151, 0.007105, 0.033662,-0.994128, 0.000074, 0.000339,-0.009950,-0.002411,-0.009376, 0.032011,1,-0.003821,-0.000139,-0.001427,1,-0.076488,-0.280481, 9.802340,1,1
1778781664578,  2700.176,  2700.176, 0.002930, 0.026544,-1.004331, 0.000032, 0.000272,-0.010036,-0.047735,-0.020054,-0.046785,1, 0.003149,-0.001703, 0.000531,1,-0.076417,-0.280265, 9.802346,1,1
1778781664604,  2700.201,  2700.201, 0.015783, 0.030499,-0.994407, 0.000151, 0.000286,-0.009972, 0.077830, 0.018637, 0.050535,1,-0.002882, 0.006946,-0.000523,1,-0.077160,-0.280543, 9.802333,1,1
1778781664626,  2700.226,  2700.221, 0.002852, 0.025189,-0.998572, 0.000032, 0.000257,-0.009963, 0.017021, 0.031790, 0.153580,1, 0.003670, 0.000418, 0.000096,1,-0.077948,-0.280274, 9.802334,1,1
1778781664648,  2700.246,  2700.246, 0.011455, 0.027973,-1.000851, 0.000104, 0.000260,-0.010026, 0.034675,-0.006032,-0.012660,1,-0.004517, 0.003548,-0.000996,1,-0.077771,-0.280495, 9.802329,1,1
1778781664674,  2700.271,  2700.271, 0.011597, 0.032057,-0.991500, 0.000116, 0.000329,-0.009904, 0.035349, 0.033806, 0.079024,1, 0.003888, 0.001744, 0.001021,1,-0.078436,-0.280441, 9.802325,1,1
1778781664696,  2700.296,  2700.291, 0.013889, 0.029818,-0.991198, 0.000141, 0.000284,-0.009930, 0.051721,-0.048323, 0.000815,1,-0.001870, 0.001253, 0.000064,1,-0.078527,-0.280220, 9.802331,1,1
1778781664718,  2700.321,  2700.316, 0.004696, 0.030857,-0.993100, 0.000061, 0.000319,-0.009917,-0.032946, 0.022095, 0.063338,1, 0.002842,-0.002637, 0.000906,1,-0.078914,-0.280417, 9.802322,1,1
1778781664744,  2700.341,  2700.341, 0.005286, 0.023997,-1.007613, 0.000042, 0.000229,-0.010090,-0.029026,-0.044941,-0.078999,1,-0.002169, 0.001327,-0.000564,1,-0.080939,-0.280338, 9.802308,1,1
1778781664766,  2700.366,  2700.361, 0.013111, 0.029907,-0.985981, 0.000136, 0.000308,-0.009841, 0.094388, 0.045404, 0.160722,1,-0.000513, 0.003951, 0.000275,1,-0.081976,-0.280797, 9.802286,1,1
1778781664789,  2700.391,  2700.386, 0.006745, 0.024209,-1.004760, 0.000061, 0.000230,-0.010048,-0.015639,-0.042660,-0.051026,1,-0.001712,-0.000393, 0.000097,1,-0.081770,-0.280123, 9.802307,1,1
1778781664814,  2700.411,  2700.411, 0.008161, 0.033608,-0.993446, 0.000088, 0.000338,-0.009928,-0.002235, 0.048832, 0.059905,1,-0.001373, 0.001984,-0.000335,1,-0.082328,-0.280788, 9.802283,1,1
1778781664836,  2700.436,  2700.431, 0.012147, 0.024605,-1.002110, 0.000112, 0.000236,-0.010026,-0.030044,-0.032071,-0.024900,1, 0.002188, 0.000082, 0.001054,1,-0.082294,-0.280255, 9.802299,1,1
1778781664859,  2700.461,  2700.456, 0.015435, 0.032665,-0.985063, 0.000166, 0.000328,-0.009850, 0.068046, 0.039782, 0.142108,1, 0.001133, 0.003288,-0.000692,1,-0.083423,-0.280519, 9.802282,1,1
1778781664884,  2700.481,  2700.481, 0.002658, 0.022904,-1.001332, 0.000027, 0.000232,-0.010005,-0.057196,-0.055287,-0.017411,1, 0.001488,-0.001893, 0.000761,1,-0.083207,-0.279847, 9.802303,1,1
1778781664906,  2700.506,  2700.501, 0.011742, 0.033552,-0.988995, 0.000132, 0.000339,-0.009899, 0.023057, 0.040099, 0.035465,1,-0.006044, 0.005177,-0.000952,1,-0.083745,-0.280847, 9.802270,1,1
1778781664929,  2700.531,  2700.526, 0.006481, 0.022967,-1.001783, 0.000065, 0.000234,-0.010012,-0.021248,-0.055223,-0.021869,1, 0.002709,-0.001180, 0.001115,1,-0.084913,-0.280361, 9.802274,1,1
1778781664954,  2700.551,  2700.551, 0.016389, 0.033382,-0.990535, 0.000158, 0.000322,-0.009918, 0.075244, 0.046775, 0.088434,1,-0.001935, 0.005321,-0.000163,1,-0.085646,-0.280648, 9.802259,1,1
1778781664976,  2700.576,  2700.571, 0.003456, 0.022370,-1.005096, 0.000029, 0.000222,-0.010027,-0.027533,-0.008229, 0.074348,1, 0.003106,-0.001611, 0.000720,1,-0.085949,-0.280281, 9.802267,1,1
1778781664999,  2700.601,  2700.596, 0.014443, 0.033859,-0.995872, 0.000128, 0.000328,-0.009972, 0.055692, 0.051159, 0.036078,1,-0.002936, 0.006934,-0.000837,1,-0.086164,-0.280981, 9.802245,1,1
1778781665024,  2700.621,  2700.621, 0.006640, 0.028639,-0.992132, 0.000075, 0.000296,-0.009902,-0.021366, 0.000298, 0.072767,1, 0.005382,-0.001248, 0.000530,1,-0.086441,-0.280383, 9.802259,1,1
1778781665046,  2700.646,  2700.641, 0.015283, 0.030160,-0.992502, 0.000147, 0.000295,-0.009938, 0.002818,-0.043271,-0.010374,1,-0.002447, 0.002088,-0.000150,1,-0.086428,-0.280285, 9.802262,1,1
1778781665073,  2700.671,  2700.671, 0.006632, 0.027599,-0.993766, 0.000075, 0.000288,-0.009928,-0.022239,-0.009747, 0.056738,1, 0.004135, 0.000842, 0.000119,1,-0.087300,-0.280267, 9.802256,1,1
1778781665095,  2700.691,  2700.691, 0.008145, 0.027224,-0.999595, 0.000078, 0.000264,-0.010012,-0.007456,-0.013495,-0.000428,1,-0.004183, 0.002279,-0.000597,1,-0.087405,-0.280601, 9.802245,1,1
1778781665116,  2700.716,  2700.711, 0.006129, 0.027013,-0.995362, 0.000068, 0.000279,-0.009932, 0.020863, 0.036222, 0.125927,1, 0.001299, 0.001617, 0.001075,1,-0.088027,-0.281068, 9.802226,1,1
1778781665143,  2700.741,  2700.741, 0.011818, 0.025542,-1.005523, 0.000106, 0.000240,-0.010067, 0.027220,-0.029927,-0.058579,1,-0.001888, 0.002020,-0.001165,1,-0.088754,-0.280471, 9.802237,1,1
1778781665165,  2700.766,  2700.761, 0.006761, 0.027079,-0.989668, 0.000072, 0.000283,-0.009877, 0.037841, 0.044099, 0.143009,1, 0.001082, 0.004398, 0.000640,1,-0.089761,-0.280609, 9.802223,1,1
1778781665186,  2700.786,  2700.781, 0.006698, 0.024918,-1.005687, 0.000060, 0.000240,-0.010066,-0.066897,-0.057136,-0.018502,1,-0.000687,-0.002700,-0.000039,1,-0.089533,-0.280269, 9.802236,1,1
1778781665213,  2700.811,  2700.811, 0.012271, 0.032384,-0.991159, 0.000137, 0.000332,-0.009916, 0.030130, 0.036474, 0.082258,1, 0.002048, 0.003289, 0.000075,1,-0.090309,-0.281039, 9.802206,1,1
1778781665235,  2700.836,  2700.831, 0.013152, 0.025987,-0.995219, 0.000129, 0.000256,-0.009972,-0.024316,-0.040878,-0.003977,1, 0.001928, 0.001447, 0.000614,1,-0.090369,-0.280323, 9.802226,1,1
1778781665256,  2700.856,  2700.851, 0.010588, 0.031011,-0.984979, 0.000128, 0.000311,-0.009847, 0.074823, 0.020748, 0.135414,1,-0.003780, 0.004599,-0.000815,1,-0.091277,-0.281029, 9.802197,1,1
1778781665283,  2700.881,  2700.881, 0.001585, 0.024485,-1.007111, 0.000011, 0.000248,-0.010060,-0.075657,-0.040636,-0.074179,1, 0.000372,-0.002233, 0.000164,1,-0.091128,-0.280737, 9.802207,1,1
1778781665305,  2700.906,  2700.901, 0.015004, 0.033779,-0.983971, 0.000161, 0.000342,-0.009842, 0.074428, 0.051892, 0.065137,1,-0.003271, 0.005108,-0.000179,1,-0.091818,-0.281485, 9.802179,1,1
1778781665326,  2700.921,  2700.921, 0.007558, 0.028368,-0.988652, 0.000087, 0.000291,-0.009869,-0.018177,-0.002828, 0.106824,1, 0.004735,-0.001200, 0.000406,1,-0.092259,-0.280877, 9.802193,1,1
1778781665353,  2700.951,  2700.951, 0.014002, 0.031614,-0.997982, 0.000130, 0.000309,-0.009992, 0.044336, 0.028810, 0.015313,1,-0.003735, 0.004901,-0.000904,1,-0.093132,-0.281338, 9.802171,1,1
1778781665375,  2700.976,  2700.971, 0.003640, 0.024073,-1.000902, 0.000031, 0.000248,-0.010000,-0.047607,-0.003482, 0.069835,1, 0.003697,-0.000283, 0.000642,1,-0.093675,-0.280905, 9.802178,1,1
1778781665396,  2700.996,  2700.991, 0.015803, 0.030931,-0.989048, 0.000153, 0.000307,-0.009912, 0.000433,-0.026678,-0.010362,1,-0.004389, 0.002667,-0.000459,1,-0.093637,-0.281082, 9.802174,1,1
1778781665423,  2701.021,  2701.021, 0.005011, 0.028688,-0.993988, 0.000070, 0.000296,-0.009922,-0.045242, 0.000256, 0.054476,1, 0.004164,-0.003372, 0.000427,1,-0.094274,-0.280948, 9.802172,1,1
1778781665445,  2701.046,  2701.041, 0.015712, 0.030159,-0.993497, 0.000155, 0.000292,-0.009949,-0.012242,-0.038901,-0.046891,1,-0.004209, 0.002247, 0.000009,1,-0.094146,-0.281129, 9.802168,1,1
1778781665467,  2701.066,  2701.061, 0.007430, 0.030099,-0.988853, 0.000085, 0.000306,-0.009875, 0.056547, 0.038027, 0.139328,1,-0.001160, 0.003429, 0.000706,1,-0.095101,-0.281855, 9.802137,1,1
1778781665494,  2701.091,  2701.091, 0.007476, 0.024452,-1.007452, 0.000059, 0.000233,-0.010073,-0.021392,-0.041758,-0.077575,1,-0.003655,-0.000868,-0.000699,1,-0.094681,-0.281660, 9.802147,1,1
1778781665515,  2701.116,  2701.111, 0.009563, 0.029096,-0.989192, 0.000096, 0.000303,-0.009874, 0.039840, 0.051259, 0.104948,1, 0.000996, 0.005651, 0.000509,1,-0.095618,-0.281988, 9.802129,1,1
1778781665537,  2701.136,  2701.131, 0.010071, 0.023861,-1.003543, 0.000087, 0.000230,-0.010044,-0.044602,-0.050427,-0.006056,1, 0.001340,-0.001193,-0.000372,1,-0.095480,-0.281196, 9.802153,1,1
1778781665564,  2701.161,  2701.161, 0.012062, 0.033684,-0.985949, 0.000137, 0.000339,-0.009864, 0.021946, 0.048626, 0.133271,1, 0.001883, 0.004214,-0.000040,1,-0.096472,-0.281639, 9.802130,1,1
1778781665585,  2701.186,  2701.181, 0.008655, 0.023638,-1.006382, 0.000077, 0.000229,-0.010080,-0.082212,-0.046292,-0.033280,1, 0.003403,-0.002923, 0.000062,1,-0.096120,-0.280912, 9.802155,1,1
1778781665608,  2701.206,  2701.206, 0.017583, 0.032871,-0.983880, 0.000187, 0.000330,-0.009845, 0.075377, 0.040980, 0.153563,1, 0.001053, 0.004583, 0.000248,1,-0.097196,-0.281343, 9.802132,1,1
1778781665634,  2701.231,  2701.231, 0.003352, 0.024924,-0.999740, 0.000035, 0.000256,-0.009977,-0.064068,-0.036219,-0.001946,1, 0.001970,-0.003204, 0.000257,1,-0.096837,-0.280577, 9.802157,1,1
1778781665655,  2701.256,  2701.251, 0.013752, 0.033818,-0.989428, 0.000138, 0.000331,-0.009894, 0.025506, 0.006436, 0.012000,1,-0.004478, 0.005119,-0.000553,1,-0.097325,-0.281584, 9.802123,1,1
1778781665678,  2701.276,  2701.276, 0.005261, 0.025367,-1.002369, 0.000044, 0.000259,-0.010009,-0.046108,-0.032398,-0.027751,1, 0.001555,-0.001104, 0.000375,1,-0.097668,-0.281118, 9.802134,1,1
1778781665704,  2701.301,  2701.301, 0.015530, 0.031061,-0.994390, 0.000148, 0.000295,-0.009958, 0.054254, 0.022986, 0.050484,1,-0.002612, 0.005451,-0.000195,1,-0.098218,-0.281697, 9.802112,1,1
1778781665725,  2701.326,  2701.321, 0.000948, 0.023715,-1.001179, 0.000011, 0.000245,-0.009997,-0.038326, 0.017439, 0.092079,1, 0.003652, 0.000170, 0.000626,1,-0.098643,-0.281378, 9.802116,1,1
1778781665748,  2701.346,  2701.346, 0.011360, 0.031013,-0.997896, 0.000112, 0.000300,-0.010005, 0.012830, 0.022551, 0.016089,1,-0.003078, 0.003956,-0.000352,1,-0.098697,-0.281678, 9.802107,1,1
1778781665774,  2701.371,  2701.371, 0.009335, 0.029445,-0.988559, 0.000099, 0.000308,-0.009875,-0.007849, 0.007375, 0.107656,1, 0.004893, 0.001378, 0.000280,1,-0.099439,-0.281228, 9.802113,1,1
1778781665796,  2701.396,  2701.391, 0.014757, 0.030447,-0.991979, 0.000146, 0.000290,-0.009937, 0.013721,-0.055453,-0.023813,1,-0.003290, 0.001246, 0.000363,1,-0.099306,-0.281176, 9.802115,1,1
1778781665818,  2701.416,  2701.416, 0.005686, 0.030246,-0.993965, 0.000063, 0.000308,-0.009910,-0.044248, 0.015233, 0.054632,1, 0.001997,-0.002925, 0.000953,1,-0.099914,-0.281318, 9.802105,1,1
1778781665844,  2701.441,  2701.441, 0.009888, 0.024440,-1.008458, 0.000079, 0.000233,-0.010092,-0.002596,-0.042055,-0.087502,1,-0.004239, 0.001595, 0.000206,1,-0.099619,-0.281860, 9.802093,1,1
1778781665866,  2701.466,  2701.461, 0.009582, 0.029665,-0.989348, 0.000100, 0.000307,-0.009876, 0.065226, 0.048335, 0.124856,1, 0.002915, 0.004848, 0.000517,1,-0.100646,-0.281925, 9.802080,1,1
1778781665888,  2701.486,  2701.486, 0.006991, 0.022343,-0.999937, 0.000063, 0.000214,-0.010005,-0.032266,-0.061488,-0.003918,1,-0.000764, 0.001475,-0.000073,1,-0.100867,-0.280618, 9.802115,1,1
1778781665914,  2701.511,  2701.511, 0.010503, 0.033575,-0.991068, 0.000112, 0.000334,-0.009910, 0.001546, 0.048400, 0.083046,1,-0.000385, 0.003062, 0.000008,1,-0.101552,-0.280872, 9.802101,1,1
1778781665936,  2701.536,  2701.531, 0.011792, 0.024834,-1.000425, 0.000113, 0.000242,-0.010019,-0.047720,-0.042108,-0.017078,1, 0.000596,-0.000404,-0.000540,1,-0.100946,-0.280265, 9.802125,1,1
1778781665958,  2701.561,  2701.556, 0.010721, 0.033386,-0.986827, 0.000119, 0.000334,-0.009866, 0.003579, 0.046443, 0.124635,1, 0.001337, 0.000883, 0.000454,1,-0.101582,-0.280920, 9.802099,1,1
1778781665984,  2701.581,  2701.581, 0.002741, 0.023308,-1.004735, 0.000026, 0.000236,-0.010035,-0.074165,-0.051893,-0.050971,1,-0.000946,-0.003110, 0.000541,1,-0.100948,-0.280500, 9.802117,1,1
1778781666006,  2701.606,  2701.601, 0.010130, 0.035030,-0.991784, 0.000110, 0.000347,-0.009918, 0.020565, 0.035533, 0.016539,1,-0.005567, 0.004392,-0.000243,1,-0.101390,-0.281463, 9.802086,1,1
1778781666029,  2701.631,  2701.626, 0.008587, 0.025128,-0.999017, 0.000073, 0.000256,-0.009977,-0.017785,-0.035140, 0.005065,1,-0.000869, 0.001690, 0.001435,1,-0.102044,-0.281585, 9.802075,1,1
1778781666054,  2701.651,  2701.651, 0.016034, 0.032612,-0.988785, 0.000155, 0.000316,-0.009893, 0.054538, 0.037671, 0.105383,1,-0.002800, 0.005328,-0.000255,1,-0.102872,-0.282226, 9.802049,1,1
1778781666076,  2701.676,  2701.671, 0.005618, 0.022918,-1.005275, 0.000049, 0.000231,-0.010045,-0.059818,-0.010354, 0.046911,1, 0.004962,-0.000395, 0.000541,1,-0.103126,-0.281386, 9.802070,1,1
1778781666099,  2701.701,  2701.696, 0.017708, 0.032655,-0.988454, 0.000173, 0.000322,-0.009911, 0.069995, 0.038537, 0.108635,1,-0.001133, 0.007355, 0.000075,1,-0.103891,-0.281735, 9.802052,1,1
1778781666124,  2701.721,  2701.721, 0.007952, 0.026485,-0.989964, 0.000089, 0.000275,-0.009882,-0.026059,-0.021555, 0.093827,1, 0.003388,-0.002771, 0.000854,1,-0.103956,-0.281175, 9.802067,1,1
1778781666146,  2701.746,  2701.741, 0.011993, 0.032197,-0.995345, 0.000124, 0.000313,-0.009967,-0.015953,-0.040859,-0.041792,1,-0.003502, 0.001017,-0.000855,1,-0.103484,-0.281455, 9.802064,1,1
1778781666169,  2701.771,  2701.766, 0.005162, 0.028397,-0.997116, 0.000053, 0.000287,-0.009954,-0.053417,-0.003046, 0.023686,1, 0.001929,-0.002179, 0.000025,1,-0.103974,-0.281465, 9.802058,1,1
1778781666194,  2701.791,  2701.791, 0.011631, 0.025503,-1.001466, 0.000099, 0.000239,-0.010026, 0.010095,-0.031486,-0.018970,1,-0.004163, 0.002938,-0.001187,1,-0.104056,-0.281714, 9.802051,1,1
1778781666216,  2701.816,  2701.811, 0.004669, 0.027358,-1.000221, 0.000049, 0.000281,-0.009977,-0.020024, 0.052828, 0.099769,1, 0.002332, 0.001870,-0.000749,1,-0.104625,-0.281770, 9.802043,1,1
1778781666239,  2701.841,  2701.836, 0.011810, 0.024641,-1.004064, 0.000106, 0.000232,-0.010058, 0.011427,-0.039958,-0.044458,1,-0.004972, 0.004541,-0.000120,1,-0.104531,-0.281759, 9.802044,1,1
1778781666264,  2701.861,  2701.861, 0.012349, 0.033238,-0.986029, 0.000138, 0.000334,-0.009862, 0.015731, 0.043945, 0.132382,1, 0.001582, 0.003022, 0.000413,1,-0.105466,-0.281961, 9.802029,1,1
1778781666286,  2701.886,  2701.881, 0.009402, 0.026599,-1.002103, 0.000089, 0.000257,-0.010041,-0.069540,-0.057046,-0.042302,1,-0.001166,-0.000433, 0.000062,1,-0.105404,-0.281581, 9.802040,1,1
1778781666313,  2701.911,  2701.911, 0.013315, 0.035243,-0.984310, 0.000146, 0.000355,-0.009842, 0.023896, 0.063440, 0.149229,1, 0.004059, 0.003812, 0.000522,1,-0.106795,-0.282053, 9.802011,1,1
1778781666335,  2701.931,  2701.931, 0.006386, 0.024158,-1.001251, 0.000060, 0.000243,-0.009999,-0.043308,-0.044429,-0.016877,1, 0.001199,-0.000976,-0.000688,1,-0.105720,-0.281276, 9.802045,1,1
1778781666356,  2701.956,  2701.951, 0.009774, 0.036442,-0.983693, 0.000111, 0.000361,-0.009825, 0.031217, 0.056932, 0.130474,1,-0.001488, 0.005978,-0.001616,1,-0.106644,-0.281699, 9.802023,1,1
1778781666383,  2701.981,  2701.981, 0.006094, 0.023157,-1.002943, 0.000047, 0.000234,-0.010014,-0.047067,-0.054119,-0.033475,1, 0.000483,-0.000579, 0.001248,1,-0.106816,-0.281196, 9.802035,1,1
1778781666405,  2702.006,  2702.001, 0.015515, 0.032182,-0.986881, 0.000168, 0.000320,-0.009865, 0.078872, 0.032717, 0.105165,1,-0.000443, 0.004958, 0.000407,1,-0.107641,-0.281500, 9.802018,1,1
1778781666426,  2702.026,  2702.021, 0.006670, 0.019605,-1.003398, 0.000055, 0.000201,-0.010028,-0.030959,-0.016670, 0.049468,1, 0.006137,-0.003628, 0.001264,1,-0.107571,-0.280413, 9.802050,1,1
1778781666453,  2702.051,  2702.051, 0.010986, 0.029932,-1.002372, 0.000119, 0.000293,-0.010038, 0.000644, 0.012513,-0.027876,1,-0.004365, 0.001126,-0.000700,1,-0.107128,-0.281157, 9.802033,1,1
1778781666475,  2702.076,  2702.071, 0.002284, 0.020727,-1.008376, 0.000011, 0.000213,-0.010074,-0.083230,-0.014538,-0.023124,1, 0.002988,-0.000832, 0.000142,1,-0.107374,-0.280802, 9.802041,1,1
1778781666496,  2702.096,  2702.091, 0.013797, 0.032585,-0.993854, 0.000137, 0.000322,-0.009959, 0.000599,-0.025002,-0.071332,1,-0.006773, 0.002992,-0.000217,1,-0.107453,-0.281748, 9.802012,1,1
1778781666523,  2702.121,  2702.121, 0.003488, 0.028270,-0.991624, 0.000044, 0.000295,-0.009890,-0.074653,-0.004603, 0.077482,1, 0.001813,-0.000275, 0.000356,1,-0.108848,-0.281778, 9.801996,1,1
1778781666545,  2702.146,  2702.141, 0.013865, 0.034294,-0.989181, 0.000133, 0.000332,-0.009902,-0.029552,-0.010286,-0.000002,1,-0.001716, 0.004776,-0.000530,1,-0.108410,-0.281873, 9.801999,1,1
1778781666566,  2702.166,  2702.161, 0.008457, 0.029255,-0.985999, 0.000078, 0.000300,-0.009838,-0.006277, 0.062359, 0.172957,1, 0.004320, 0.004459, 0.000242,1,-0.109653,-0.281693, 9.801991,1,1
1778781666593,  2702.191,  2702.191, 0.012476, 0.027373,-0.998426, 0.000119, 0.000259,-0.009997, 0.012738,-0.012663, 0.010795,1,-0.001778, 0.001905,-0.000699,1,-0.109668,-0.281155, 9.802006,1,1
1778781666615,  2702.216,  2702.211, 0.003118, 0.028894,-0.996374, 0.000038, 0.000296,-0.009948,-0.015317, 0.054439, 0.133280,1, 0.003307, 0.000572, 0.000439,1,-0.110377,-0.280914, 9.802004,1,1
1778781666636,  2702.236,  2702.231, 0.014775, 0.023979,-1.003163, 0.000137, 0.000233,-0.010054,-0.059382,-0.055008,-0.063873,1,-0.001691,-0.002163, 0.000577,1,-0.109819,-0.280816, 9.802013,1,1
1778781666663,  2702.261,  2702.261, 0.015144, 0.032170,-0.987366, 0.000165, 0.000328,-0.009873, 0.037689, 0.034085, 0.119237,1, 0.004350, 0.003338, 0.000077,1,-0.110931,-0.281260, 9.801989,1,1
1778781666685,  2702.286,  2702.281, 0.011002, 0.025666,-1.002666, 0.000105, 0.000242,-0.010038,-0.044070,-0.059862,-0.018065,1,-0.000749,-0.001232, 0.000349,1,-0.110922,-0.280773, 9.802002,1,1
1778781666707,  2702.306,  2702.301, 0.008407, 0.034052,-0.992079, 0.000093, 0.000342,-0.009908, 0.011382, 0.037239, 0.048848,1,-0.002248, 0.004088, 0.000093,1,-0.111406,-0.281497, 9.801976,1,1
1778781666734,  2702.331,  2702.331, 0.006433, 0.021330,-1.010140, 0.000048, 0.000217,-0.010090,-0.047744,-0.071403,-0.104082,1, 0.003132,-0.001935,-0.000112,1,-0.110651,-0.280492, 9.802013,1,1
1778781666755,  2702.356,  2702.351, 0.011369, 0.032951,-0.982404, 0.000127, 0.000338,-0.009817, 0.056533, 0.033801, 0.103714,1, 0.002973, 0.006937,-0.000479,1,-0.111634,-0.280143, 9.802012,1,1
1778781666777,  2702.376,  2702.371, 0.000144, 0.018208,-1.004589,-0.000004, 0.000187,-0.010040,-0.087823,-0.031402, 0.069343,1, 0.004013,-0.002443, 0.000693,1,-0.111840,-0.279190, 9.802037,1,1
1778781666804,  2702.401,  2702.401, 0.007844, 0.031933,-0.995732, 0.000080, 0.000322,-0.009976,-0.035081, 0.032979, 0.037211,1,-0.002598, 0.005574,-0.000108,1,-0.112182,-0.280256, 9.802003,1,1
1778781666825,  2702.426,  2702.421, 0.010127, 0.023543,-1.000465, 0.000093, 0.000245,-0.010001,-0.042291,-0.000739, 0.052653,1, 0.002063,-0.000419, 0.000884,1,-0.112723,-0.279999, 9.802004,1,1
1778781666848,  2702.446,  2702.446, 0.015395, 0.032577,-0.984237, 0.000159, 0.000325,-0.009850, 0.037303, 0.038941, 0.149912,1,-0.000333, 0.006699, 0.000547,1,-0.113883,-0.280545, 9.801974,1,1
1778781666874,  2702.471,  2702.471, 0.000100, 0.029483,-1.000179, 0.000004, 0.000304,-0.009976,-0.112949, 0.009006,-0.006419,1, 0.002582,-0.003375, 0.000306,1,-0.113825,-0.280039, 9.801990,1,1
1778781666895,  2702.496,  2702.491, 0.019644, 0.034818,-0.989734, 0.000186, 0.000342,-0.009905,-0.010313,-0.009482,-0.027459,1,-0.002305, 0.005200,-0.000856,1,-0.114155,-0.280387, 9.801976,1,1
1778781666918,  2702.516,  2702.516, 0.013796, 0.027328,-0.990978, 0.000133, 0.000286,-0.009894, 0.020096,-0.011536, 0.083809,1, 0.005808, 0.001318, 0.000476,1,-0.115240,-0.279348, 9.801993,1,1
1778781666944,  2702.541,  2702.541, 0.011718, 0.025882,-0.995489, 0.000118, 0.000248,-0.009968, 0.000834,-0.025533, 0.039590,1,-0.002953, 0.001672,-0.000597,1,-0.114115,-0.279442, 9.802004,1,1
1778781666965,  2702.566,  2702.561, 0.003069, 0.025192,-1.001979, 0.000028, 0.000264,-0.010006,-0.090172, 0.032891, 0.086113,1, 0.001329,-0.000172, 0.000894,1,-0.114456,-0.279527, 9.801997,1,1
1778781666988,  2702.586,  2702.586, 0.015620, 0.028371,-0.999373, 0.000154, 0.000275,-0.010027, 0.038764,-0.001650, 0.001483,1,-0.001479, 0.005809,-0.000605,1,-0.114596,-0.279919, 9.801985,1,1
1778781667014,  2702.611,  2702.611, 0.011052, 0.031712,-0.983877, 0.000134, 0.000330,-0.009826, 0.078885, 0.040806, 0.152172,1, 0.001613, 0.006616, 0.000228,1,-0.115326,-0.279764, 9.801980,1,1
1778781667035,  2702.636,  2702.631, 0.007884, 0.025939,-1.001476, 0.000076, 0.000247,-0.010022,-0.070790,-0.067434,-0.044335,1,-0.004313,-0.000321, 0.000381,1,-0.115063,-0.279298, 9.801996,1,1
1778781667058,  2702.656,  2702.656, 0.006952, 0.031962,-0.997789, 0.000070, 0.000323,-0.009966,-0.047378, 0.033304, 0.016998,1, 0.001910, 0.000939, 0.000588,1,-0.115587,-0.280076, 9.801969,1,1
1778781667084,  2702.681,  2702.681, 0.012130, 0.023133,-1.003681, 0.000102, 0.000228,-0.010040, 0.003424,-0.053014,-0.040777,1,-0.001683, 0.001443,-0.000299,1,-0.115575,-0.279927, 9.801972,1,1
1778781667106,  2702.706,  2702.701, 0.007096, 0.031103,-0.987084, 0.000084, 0.000322,-0.009852, 0.037698, 0.043475, 0.167111,1, 0.000635, 0.004708,-0.000525,1,-0.116565,-0.280182, 9.801953,1,1
1778781667128,  2702.726,  2702.726, 0.003443, 0.020877,-1.010601, 0.000020, 0.000212,-0.010110,-0.081384,-0.074933,-0.108622,1,-0.003168, 0.000010,-0.000168,1,-0.114960,-0.279746, 9.801985,1,1
1778781667154,  2702.751,  2702.751, 0.017344, 0.035259,-0.989225, 0.000175, 0.000359,-0.009905, 0.054293, 0.065691, 0.100979,1, 0.000541, 0.005354,-0.000147,1,-0.115960,-0.280063, 9.801964,1,1
1778781667176,  2702.776,  2702.771, 0.016718, 0.021894,-0.992501, 0.000163, 0.000222,-0.009935, 0.029619,-0.015945, 0.059927,1, 0.004438, 0.002454, 0.000834,1,-0.116507,-0.279236, 9.801981,1,1
1778781667198,  2702.801,  2702.796, 0.015109, 0.030946,-0.988592, 0.000159, 0.000314,-0.009873, 0.030510, 0.024427, 0.107200,1, 0.001325, 0.002023,-0.001324,1,-0.117722,-0.279009, 9.801973,1,1
1778781667224,  2702.821,  2702.821, 0.017191, 0.026312,-1.006790, 0.000160, 0.000260,-0.010067, 0.050769,-0.020826,-0.071265,1,-0.001084, 0.002245,-0.000496,1,-0.117884,-0.278893, 9.801974,1,1
1778781667246,  2702.846,  2702.841, 0.029491, 0.032379,-0.975979, 0.000300, 0.000326,-0.009748, 0.197961,-0.010635, 0.167647,1,-0.003912, 0.010158,-0.000742,1,-0.119616,-0.279597, 9.801933,1,1
1778781667269,  2702.871,  2702.866, 0.020500, 0.023383,-1.009669, 0.000206, 0.000241,-0.010088, 0.081846,-0.050442,-0.099534,1,-0.001407,-0.004470, 0.000649,1,-0.119052,-0.279799, 9.801934,1,1
1778781667294,  2702.891,  2702.891, 0.023709, 0.024904,-0.989576, 0.000232, 0.000243,-0.009911, 0.112836,-0.036019, 0.097488,1,-0.002568, 0.005897,-0.000365,1,-0.119853,-0.280328, 9.801909,1,1
1778781667316,  2702.916,  2702.911, 0.019876, 0.027304,-1.011113, 0.000195, 0.000280,-0.010106, 0.035396, 0.019253, 0.019112,1,-0.002007,-0.004452, 0.000636,1,-0.119484,-0.280483, 9.801909,1,1
1778781667339,  2702.941,  2702.936, 0.026126, 0.032007,-0.986653, 0.000271, 0.000310,-0.009893, 0.133893, 0.032427, 0.126089,1,-0.000855, 0.006406,-0.001201,1,-0.122538,-0.281483, 9.801844,1,1
1778781667364,  2702.961,  2702.961, 0.010995, 0.033251,-0.999934, 0.000118, 0.000340,-0.009968,-0.014230, 0.045322,-0.004131,1, 0.005196,-0.006490,-0.001264,1,-0.121849,-0.280599, 9.801877,1,1
1778781667386,  2702.986,  2702.981, 0.022837, 0.031539,-0.987709, 0.000231, 0.000305,-0.009904, 0.074142, 0.007328,-0.081994,1,-0.001496, 0.004552,-0.001001,1,-0.121822,-0.280650, 9.801876,1,1
1778781667409,  2703.011,  2703.006, 0.014495, 0.031982,-0.997975, 0.000148, 0.000329,-0.009947, 0.019539, 0.033992, 0.015103,1, 0.005256,-0.004453,-0.001298,1,-0.122466,-0.279480, 9.801902,1,1
1778781667434,  2703.031,  2703.031, 0.020140, 0.025570,-1.001076, 0.000187, 0.000258,-0.010040, 0.074793,-0.028603,-0.015302,1, 0.000134, 0.007986,-0.000202,1,-0.122967,-0.279358, 9.801899,1,1
1778781667456,  2703.056,  2703.051, 0.016107, 0.026106,-1.001372, 0.000163, 0.000270,-0.009988, 0.069472,-0.006679, 0.180390,1, 0.004088, 0.000573,-0.001190,1,-0.124062,-0.278964, 9.801896,1,1
1778781667479,  2703.081,  2703.076, 0.025830, 0.024753,-0.996141, 0.000250, 0.000250,-0.010008, 0.128850,-0.036205, 0.033082,1,-0.004164, 0.010284, 0.000171,1,-0.124776,-0.279077, 9.801884,1,1
1778781667504,  2703.101,  2703.101, 0.026990, 0.030666,-0.979590, 0.000274, 0.000309,-0.009766, 0.138726, 0.021136, 0.195359,1,-0.002346,-0.000865,-0.000324,1,-0.125931,-0.279665, 9.801852,1,1
1778781667526,  2703.126,  2703.121, 0.027754, 0.025830,-0.989934, 0.000272, 0.000269,-0.009950, 0.132267,-0.002158,-0.139200,1,-0.002581, 0.003009,-0.000569,1,-0.125431,-0.280076, 9.801847,1,1
1778781667553,  2703.151,  2703.151, 0.031286, 0.032140,-0.988957, 0.000334, 0.000326,-0.009836, 0.177793, 0.034943, 0.103442,1,-0.000326,-0.008523,-0.001594,1,-0.128747,-0.280255, 9.801799,1,1
1778781667575,  2703.171,  2703.171, 0.034349, 0.029000,-1.007264, 0.000325, 0.000286,-0.010106, 0.208052, 0.004029,-0.076093,1,-0.000927, 0.008924,-0.000832,1,-0.129078,-0.280394, 9.801791,1,1
1778781667596,  2703.196,  2703.191, 0.002016, 0.030988,-0.980093, 0.000028, 0.000317,-0.009765, 0.038050, 0.027486, 0.269915,1,-0.000274, 0.002634,-0.001786,1,-0.130280,-0.280696, 9.801766,1,1
1778781667623,  2703.221,  2703.221, 0.022166, 0.026798,-1.041043, 0.000192, 0.000258,-0.010391, 0.089830,-0.018161,-0.407352,1,-0.008841,-0.011891,-0.000068,1,-0.127169,-0.281240, 9.801791,1,1
1778781667645,  2703.246,  2703.241, 0.009951, 0.029028,-0.945483, 0.000137, 0.000306,-0.009432, 0.173737, 0.051808, 0.309122,1, 0.011586, 0.019287,-0.000659,1,-0.129692,-0.280595, 9.801777,1,1
1778781667666,  2703.266,  2703.261,-0.003174, 0.022640,-1.038083,-0.000055, 0.000217,-0.010345,-0.190051,-0.067669, 0.113190,1, 0.003112,-0.025215,-0.000635,1,-0.127649,-0.278083, 9.801875,1,1
1778781667693,  2703.291,  2703.291, 0.030469, 0.031041,-0.989143, 0.000304, 0.000311,-0.009961, 0.170648, 0.024240, 0.101625,1, 0.003528, 0.022418, 0.000335,1,-0.128850,-0.280056, 9.801804,1,1
1778781667715,  2703.316,  2703.311, 0.008437, 0.025991,-1.016480, 0.000077, 0.000260,-0.010150,-0.036655,-0.010093, 0.076348,1, 0.008537,-0.008544,-0.002707,1,-0.128948,-0.277933, 9.801863,1,1
1778781667736,  2703.336,  2703.331, 0.024228, 0.029124,-0.968979, 0.000239, 0.000287,-0.009717, 0.035113,-0.002722, 0.007516,1,-0.005200, 0.015059, 0.000016,1,-0.131630,-0.278594, 9.801808,1,1
1778781667763,  2703.361,  2703.361, 0.008760, 0.026254,-1.007395, 0.000096, 0.000253,-0.010013,-0.046900,-0.021284,-0.077383,1, 0.000529,-0.012639,-0.002306,1,-0.132411,-0.278727, 9.801794,1,1
1778781667785,  2703.386,  2703.381, 0.028702, 0.031914,-0.966899, 0.000277, 0.000316,-0.009710, 0.073231,-0.012585,-0.089712,1,-0.004732, 0.014231,-0.000792,1,-0.133137,-0.279739, 9.801755,1,1
1778781667806,  2703.406,  2703.401, 0.014712, 0.029190,-0.990443, 0.000158, 0.000301,-0.009858, 0.115496, 0.061160, 0.372470,1, 0.001032,-0.000531, 0.000063,1,-0.134995,-0.279976, 9.801723,1,1
1778781667833,  2703.431,  2703.431, 0.012886, 0.025016,-1.012575, 0.000125, 0.000255,-0.010157,-0.006862,-0.035063,-0.128232,1,-0.001622, 0.004099,-0.001244,1,-0.133359,-0.280435, 9.801732,1,1
1778781667855,  2703.456,  2703.451, 0.014611, 0.030198,-1.001394, 0.000147, 0.000308,-0.010000, 0.020023, 0.026632, 0.103870,1, 0.005497,-0.000323,-0.001651,1,-0.134092,-0.279984, 9.801735,1,1
1778781667876,  2703.476,  2703.471, 0.024982, 0.027804,-0.990024, 0.000252, 0.000278,-0.009937, 0.073199,-0.000117,-0.061275,1,-0.001051, 0.002016,-0.001768,1,-0.133785,-0.279327, 9.801758,1,1
1778781667903,  2703.501,  2703.501, 0.010463, 0.029140,-0.984145, 0.000124, 0.000295,-0.009797,-0.032583, 0.005979, 0.150558,1, 0.003381,-0.004334,-0.001801,1,-0.135051,-0.279679, 9.801731,1,1
1778781667925,  2703.526,  2703.521, 0.021395, 0.029761,-1.005942, 0.000195, 0.000287,-0.010106,-0.063235,-0.025590,-0.256297,1,-0.003622, 0.000501,-0.002014,1,-0.133884,-0.279718, 9.801745,1,1
1778781667947,  2703.546,  2703.541, 0.024148, 0.033894,-0.971599, 0.000250, 0.000349,-0.009688, 0.129551, 0.074604, 0.235865,1,-0.000137, 0.012621,-0.001409,1,-0.137631,-0.280111, 9.801682,1,1
1778781667974,  2703.571,  2703.571, 0.012587, 0.024926,-1.009542, 0.000125, 0.000247,-0.010086,-0.013578,-0.035332,-0.098522,1,-0.004105,-0.003222,-0.000211,1,-0.136910,-0.279901, 9.801699,1,1
1778781667995,  2703.596,  2703.591, 0.008571, 0.030287,-0.994858, 0.000091, 0.000310,-0.009923,-0.013966, 0.030049, 0.100245,1, 0.002969, 0.003703,-0.000931,1,-0.137694,-0.280031, 9.801683,1,1
1778781668017,  2703.616,  2703.611, 0.020050, 0.028303,-1.006413, 0.000186, 0.000287,-0.010091,-0.021257,-0.004462,-0.089931,1, 0.004108,-0.001926,-0.000411,1,-0.137175,-0.278884, 9.801723,1,1
1778781668044,  2703.641,  2703.641, 0.023265, 0.028680,-0.971503, 0.000252, 0.000291,-0.009713, 0.088850, 0.002260, 0.274498,1, 0.001830, 0.004704,-0.000471,1,-0.139444,-0.278936, 9.801690,1,1
1778781668065,  2703.666,  2703.661, 0.008308, 0.025912,-1.016533, 0.000075, 0.000256,-0.010188,-0.096926,-0.046645,-0.131807,1, 0.001482,-0.006557,-0.001844,1,-0.138235,-0.278260, 9.801726,1,1
1778781668088,  2703.686,  2703.686, 0.021500, 0.031259,-0.982198, 0.000220, 0.000313,-0.009825, 0.071063, 0.027267, 0.169607,1,-0.001916, 0.005366,-0.000936,1,-0.139950,-0.279337, 9.801672,1,1
1778781668114,  2703.711,  2703.711, 0.016335, 0.025819,-1.002323, 0.000161, 0.000257,-0.010002, 0.020645,-0.025766,-0.027743,1,-0.000403,-0.003198,-0.001276,1,-0.139442,-0.278980, 9.801689,1,1
1778781668135,  2703.736,  2703.731, 0.011771, 0.031847,-0.982087, 0.000131, 0.000316,-0.009817, 0.046640, 0.009275, 0.079532,1,-0.002163, 0.005729,-0.001862,1,-0.141265,-0.279673, 9.801643,1,1
1778781668158,  2703.756,  2703.756, 0.003005, 0.025924,-1.010273, 0.000028, 0.000257,-0.010084,-0.111141,-0.024915,-0.105730,1, 0.000074,-0.006263,-0.001797,1,-0.140411,-0.279140, 9.801671,1,1
1778781668184,  2703.781,  2703.781, 0.009713, 0.031526,-0.987236, 0.000099, 0.000314,-0.009906,-0.045501, 0.029331, 0.120162,1,-0.002704, 0.006232,-0.001463,1,-0.140944,-0.279921, 9.801641,1,1
1778781668205,  2703.806,  2703.801,-0.026887, 0.023877,-1.011334,-0.000251, 0.000243,-0.010102,-0.276500,-0.015561, 0.075070,1, 0.005614,-0.012296,-0.000420,1,-0.139730,-0.279077, 9.801682,1,1
1778781668228,  2703.826,  2703.826,-0.023563, 0.025442,-1.005403,-0.000240, 0.000254,-0.010068,-0.368210,-0.029397,-0.057916,1,-0.001472,-0.005296,-0.001085,1,-0.136966,-0.278945, 9.801725,1,1
1778781668254,  2703.851,  2703.851,-0.037253, 0.025628,-1.000420,-0.000361, 0.000263,-0.009995,-0.500972,-0.027220,-0.009020,1, 0.006653,-0.009790,-0.000123,1,-0.135341,-0.278336, 9.801764,1,1
1778781668275,  2703.876,  2703.871,-0.038725, 0.030327,-1.008011,-0.000386, 0.000277,-0.010099,-0.497245,-0.065977,-0.123442,1,-0.004784,-0.012041,-0.000345,1,-0.133057,-0.278027, 9.801805,1,1
1778781668298,  2703.896,  2703.896,-0.045566, 0.024602,-0.994483,-0.000451, 0.000251,-0.009913,-0.579722,-0.036780, 0.049263,1, 0.005739,-0.005879, 0.001317,1,-0.132694,-0.277860, 9.801815,1,1
1778781668324,  2703.921,  2703.921,-0.041200, 0.024634,-1.021813,-0.000426, 0.000232,-0.010225,-0.534834,-0.036530,-0.218731,1,-0.004975,-0.004539, 0.000512,1,-0.130663,-0.278260, 9.801830,1,1
1778781668346,  2703.946,  2703.941,-0.040648, 0.028796,-0.980695,-0.000400, 0.000299,-0.009788,-0.490425, 0.032123, 0.178204,1, 0.004230, 0.007862, 0.001518,1,-0.131597,-0.277473, 9.801841,1,1
1778781668368,  2703.966,  2703.966,-0.044295, 0.025847,-1.010367,-0.000442, 0.000258,-0.010115,-0.564854,-0.023871,-0.106456,1,-0.005000,-0.001711,-0.000167,1,-0.130414,-0.277498, 9.801855,1,1
1778781668394,  2703.991,  2703.991,-0.042694, 0.029763,-0.986729,-0.000431, 0.000301,-0.009871,-0.549909, 0.014618, 0.125347,1, 0.003980, 0.003575, 0.000501,1,-0.131341,-0.277130, 9.801853,1,1
1778781668416,  2704.016,  2704.011,-0.021101, 0.021542,-0.996632,-0.000223, 0.000223,-0.009997,-0.460027,-0.044666,-0.044791,1, 0.002838, 0.000733, 0.000211,1,-0.131063,-0.276265, 9.801882,1,1
1778781668438,  2704.041,  2704.036,-0.017406, 0.028357,-0.969554,-0.000167, 0.000300,-0.009683,-0.304326, 0.002038, 0.293773,1, 0.001698, 0.006364,-0.001048,1,-0.133826,-0.275993, 9.801852,1,1
1778781668464,  2704.061,  2704.061,-0.023937, 0.022470,-0.997210,-0.000249, 0.000226,-0.009959,-0.368572,-0.055746, 0.022556,1,-0.002468, 0.002492,-0.001298,1,-0.133911,-0.276179, 9.801846,1,1
1778781668486,  2704.086,  2704.081, 0.007136, 0.034282,-0.975670, 0.000070, 0.000343,-0.009758,-0.097930, 0.004269, 0.173668,1,-0.006312, 0.012153,-0.002137,1,-0.135975,-0.277369, 9.801784,1,1
1778781668509,  2704.111,  2704.106, 0.018427, 0.022452,-0.979339, 0.000174, 0.000224,-0.009781, 0.041977,-0.056810, 0.197724,1,-0.000297, 0.006947,-0.000210,1,-0.138949,-0.277001, 9.801752,1,1
1778781668534,  2704.131,  2704.131, 0.025831, 0.029208,-0.979749, 0.000247, 0.000284,-0.009810, 0.113229, 0.008758, 0.193659,1,-0.006607, 0.012878,-0.000786,1,-0.140415,-0.277827, 9.801708,1,1
1778781668556,  2704.156,  2704.151, 0.025877, 0.024192,-1.000134, 0.000242, 0.000242,-0.009984, 0.052130,-0.018811, 0.139395,1, 0.001506, 0.004329, 0.001077,1,-0.141980,-0.277917, 9.801682,1,1
1778781668579,  2704.181,  2704.176, 0.040433, 0.034568,-0.990130, 0.000396, 0.000338,-0.009928, 0.252416, 0.060205, 0.091766,1,-0.000843, 0.017344,-0.000511,1,-0.144636,-0.278816, 9.801619,1,1
1778781668604,  2704.201,  2704.201, 0.040336, 0.027381,-0.979557, 0.000411, 0.000288,-0.009779, 0.248552,-0.009416, 0.195431,1, 0.004551, 0.008490, 0.000841,1,-0.147276,-0.277788, 9.801608,1,1
1778781668626,  2704.226,  2704.221, 0.039827, 0.032009,-0.992981, 0.000399, 0.000312,-0.009940, 0.246965,-0.016684,-0.002441,1,-0.002577, 0.009794,-0.000838,1,-0.148594,-0.278114, 9.801579,1,1
1778781668649,  2704.251,  2704.246, 0.035105, 0.027305,-0.992549, 0.000344, 0.000284,-0.009904, 0.192405,-0.010479, 0.067939,1, 0.001115, 0.006329, 0.000617,1,-0.152060,-0.278212, 9.801523,1,1
1778781668674,  2704.271,  2704.271, 0.043449, 0.030510,-1.003496, 0.000434, 0.000304,-0.010051, 0.273227, 0.020481,-0.039438,1, 0.000072, 0.007606,-0.000632,1,-0.153096,-0.278715, 9.801493,1,1
1778781668696,  2704.296,  2704.291, 0.020273, 0.027953,-0.999348, 0.000207, 0.000282,-0.009964, 0.158607, 0.037050, 0.154920,1, 0.005410, 0.001104,-0.000101,1,-0.154525,-0.278060, 9.801489,1,1
1778781668719,  2704.321,  2704.316, 0.021554, 0.025637,-1.020317, 0.000211, 0.000252,-0.010224, 0.058448,-0.026675,-0.204376,1,-0.002975,-0.001410,-0.000721,1,-0.152876,-0.278179, 9.801512,1,1
1778781668745,  2704.341,  2704.341, 0.014298, 0.031432,-1.002226, 0.000156, 0.000334,-0.010019,-0.013621, 0.029690,-0.026992,1, 0.002303,-0.001605, 0.000104,1,-0.153800,-0.278483, 9.801489,1,0
1778781668766,  2704.366,  2704.361, 0.007637, 0.025789,-1.016532, 0.000079, 0.000250,-0.010187,-0.102387,-0.056511,-0.199595,1,-0.001568,-0.005234, 0.000019,1,-0.152592,-0.278251, 9.801514,1,0
1778781668793,  2704.391,  2704.391,-0.000187, 0.031862,-1.006918, 0.000013, 0.000331,-0.010057,-0.154325, 0.033536,-0.072996,1, 0.001775,-0.003103, 0.000736,1,-0.152399,-0.278867, 9.801499,1,0
1778781668815,  2704.411,  2704.411,-0.005582, 0.025279,-1.020259,-0.000057, 0.000254,-0.010201,-0.206371,-0.030619,-0.203799,1,-0.001326,-0.003649,-0.000045,1,-0.151519,-0.278562, 9.801522,1,0
1778781668836,  2704.436,  2704.431,-0.001757, 0.033801,-0.987675,-0.000014, 0.000342,-0.009864,-0.144843, 0.045884, 0.051213,1, 0.002017, 0.005952,-0.000260,1,-0.152291,-0.278786, 9.801503,1,0
1778781668863,  2704.461,  2704.461,-0.010745, 0.024294,-1.007336,-0.000120, 0.000239,-0.010063,-0.257156,-0.039402,-0.077046,1, 0.001421,-0.002394, 0.000337,1,-0.151712,-0.277598, 9.801546,1,0
1778781668885,  2704.486,  2704.481,-0.005637, 0.032214,-0.986799,-0.000056, 0.000327,-0.009869,-0.205407, 0.038907, 0.050742,1, 0.002052, 0.004612, 0.000294,1,-0.152219,-0.277683, 9.801536,1,0
1778781668906,  2704.506,  2704.501,-0.005381, 0.022783,-0.997986,-0.000062, 0.000226,-0.009977,-0.216909,-0.031072, 0.087616,1, 0.004632,-0.002537, 0.000819,1,-0.152454,-0.276884, 9.801555,1,0
1778781668933,  2704.531,  2704.531,-0.000719, 0.030945,-0.984941, 0.000008, 0.000311,-0.009857,-0.158811, 0.026696, 0.142599,1, 0.001764, 0.001573,-0.000319,1,-0.151629,-0.276719, 9.801572,1,0
1778781668955,  2704.556,  2704.551, 0.003609, 0.017776,-0.995827, 0.000019, 0.000180,-0.009967,-0.202943,-0.048853, 0.058335,1, 0.004603,-0.000295, 0.000282,1,-0.151638,-0.275879, 9.801596,1,0
1778781668976,  2704.576,  2704.571, 0.013988, 0.032834,-0.977385, 0.000138, 0.000329,-0.009787,-0.023982,-0.019763, 0.096903,1,-0.004951, 0.005915,-0.000613,1,-0.152368,-0.276445, 9.801569,1,0
1778781669003,  2704.601,  2704.601, 0.011665, 0.023852,-0.988757, 0.000112, 0.000247,-0.009853,-0.039280,-0.042642, 0.105147,1,-0.000879,-0.001389, 0.000263,1,-0.153629,-0.276572, 9.801545,1,0
1778781669025,  2704.626,  2704.621, 0.024616, 0.034622,-0.968201, 0.000247, 0.000342,-0.009694, 0.071824, 0.020367, 0.111981,1,-0.005777, 0.011980,-0.001086,1,-0.154767,-0.277820, 9.801492,1,0
1778781669046,  2704.646,  2704.641, 0.015545, 0.023268,-0.998812, 0.000153, 0.000222,-0.009955, 0.024134,-0.006122, 0.247743,1, 0.003703,-0.000011,-0.000784,1,-0.156065,-0.277482, 9.801481,1,0
1778781669073,  2704.671,  2704.671, 0.025538, 0.029014,-0.990321, 0.000246, 0.000277,-0.009936, 0.094109, 0.006460, 0.089724,1,-0.003632, 0.012166,-0.001167,1,-0.156713,-0.278189, 9.801451,1,0
1778781669095,  2704.696,  2704.691, 0.012722, 0.022568,-1.007571, 0.000129, 0.000240,-0.010053, 0.014562, 0.020104, 0.133401,1, 0.003059,-0.004236, 0.000626,1,-0.157176,-0.278113, 9.801445,1,0
1778781669117,  2704.716,  2704.711, 0.017875, 0.027899,-0.999686, 0.000176, 0.000275,-0.010028,-0.011926,-0.035653,-0.130066,1,-0.001958,-0.000781,-0.000758,1,-0.156379,-0.278452, 9.801449,1,0
1778781669143,  2704.741,  2704.741, 0.016065, 0.027598,-1.000501, 0.000167, 0.000293,-0.009979, 0.001475,-0.007223,-0.010090,1, 0.004613,-0.002859, 0.001140,1,-0.155969,-0.277717, 9.801476,1,0
1778781669165,  2704.766,  2704.761, 0.019182, 0.030298,-0.994029, 0.000193, 0.000295,-0.009956, 0.030477,-0.023407,-0.096351,1,-0.004983, 0.004975,-0.000524,1,-0.156291,-0.277898, 9.801466,1,0
1778781669187,  2704.786,  2704.781, 0.013958, 0.029421,-1.000127, 0.000139, 0.000297,-0.009976, 0.015482, 0.043391, 0.106535,1,-0.001708, 0.004930, 0.000690,1,-0.157728,-0.278536, 9.801425,1,0
1778781669214,  2704.811,  2704.811, 0.021665, 0.029408,-1.005516, 0.000205, 0.000280,-0.010081, 0.054550, 0.009668,-0.059326,1,-0.003196, 0.006424, 0.000383,1,-0.158109,-0.278822, 9.801411,1,0
1778781669235,  2704.836,  2704.831, 0.016360, 0.028021,-0.997836, 0.000169, 0.000288,-0.009953, 0.047780, 0.047472, 0.163903,1, 0.004113, 0.001621, 0.000413,1,-0.159186,-0.278481, 9.801402,1,0
1778781669257,  2704.856,  2704.851, 0.020159, 0.028436,-1.000976, 0.000199, 0.000281,-0.010041,-0.003286,-0.020834,-0.102494,1, 0.001637,-0.000498,-0.000199,1,-0.158520,-0.277662, 9.801436,1,0
1778781669284,  2704.881,  2704.881, 0.014049, 0.033399,-0.984702, 0.000160, 0.000347,-0.009833,-0.022076, 0.049767, 0.144784,1, 0.003077,-0.001207, 0.000153,1,-0.159814,-0.277667, 9.801415,1,0
1778781669305,  2704.906,  2704.901, 0.020849, 0.029740,-0.999439, 0.000207, 0.000292,-0.010026,-0.013136,-0.042140,-0.110159,1, 0.000613, 0.000011, 0.000289,1,-0.159315,-0.277177, 9.801437,1,0
1778781669328,  2704.926,  2704.926, 0.019553, 0.030572,-0.979217, 0.000210, 0.000321,-0.009772, 0.029877, 0.022659, 0.198561,1, 0.005572, 0.000304, 0.000044,1,-0.162069,-0.277026, 9.801396,1,0
1778781669354,  2704.951,  2704.951, 0.016735, 0.023384,-1.005252, 0.000163, 0.000226,-0.010050, 0.002492,-0.047478,-0.056746,1,-0.002569, 0.000044,-0.001172,1,-0.161620,-0.276873, 9.801408,1,0
1778781669375,  2704.976,  2704.971, 0.013207, 0.028605,-0.986261, 0.000144, 0.000296,-0.009829, 0.032497, 0.049517, 0.191546,1,-0.001173, 0.005519,-0.000895,1,-0.162869,-0.277406, 9.801373,1,0
1778781669398,  2704.996,  2704.996, 0.016191, 0.025790,-1.010743, 0.000143, 0.000247,-0.010120,-0.003046,-0.024137,-0.110602,1,-0.001906, 0.001200,-0.000338,1,-0.161867,-0.277109, 9.801397,1,0
1778781669424,  2705.021,  2705.021, 0.025265, 0.031303,-0.980881, 0.000254, 0.000311,-0.009810, 0.084837, 0.029582, 0.182217,1,-0.000815, 0.005229,-0.000052,1,-0.163092,-0.277421, 9.801369,1,0
1778781669445,  2705.046,  2705.041, 0.014465, 0.023952,-1.010614, 0.000132, 0.000233,-0.010118,-0.054316,-0.063421,-0.052376,1, 0.002172,-0.004617,-0.000164,1,-0.162450,-0.276785, 9.801397,1,0
1778781669468,  2705.066,  2705.066, 0.016160, 0.034236,-0.984779, 0.000170, 0.000346,-0.009860,-0.005007, 0.057586, 0.143962,1,-0.002440, 0.004648, 0.000323,1,-0.163626,-0.278227, 9.801336,1,0
1778781669494,  2705.091,  2705.091, 0.009153, 0.022122,-1.007206, 0.000092, 0.000226,-0.010050,-0.073423,-0.060833,-0.075959,1, 0.002023,-0.005422, 0.000806,1,-0.163014,-0.277714, 9.801361,1,0
1778781669515,  2705.116,  2705.111, 0.025245, 0.036627,-0.980203, 0.000261, 0.000368,-0.009818, 0.085764, 0.037023,-0.004683,1,-0.001295, 0.007987,-0.000780,1,-0.163596,-0.278147, 9.801339,1,0
1778781669538,  2705.136,  2705.136, 0.009953, 0.022817,-1.001612, 0.000104, 0.000228,-0.009982,-0.066971,-0.053423,-0.021106,1, 0.000782,-0.006232,-0.000372,1,-0.164387,-0.277158, 9.801354,1,0
1778781669564,  2705.161,  2705.161, 0.017762, 0.032018,-0.995075, 0.000166, 0.000313,-0.009978, 0.009173, 0.036136, 0.042969,1,-0.003223, 0.009139,-0.000891,1,-0.165296,-0.277958, 9.801316,1,0
1778781669586,  2705.186,  2705.181, 0.014869, 0.025142,-1.008927, 0.000143, 0.000247,-0.010066,-0.013071,-0.015537, 0.082418,1, 0.006046,-0.003556,-0.000515,1,-0.165681,-0.277319, 9.801328,1,0
1778781669608,  2705.206,  2705.206, 0.024757, 0.030098,-0.982607, 0.000242, 0.000297,-0.009862, 0.076602, 0.018239, 0.165245,1,-0.000529, 0.010763,-0.001291,1,-0.166517,-0.276936, 9.801325,1,0
1778781669634,  2705.231,  2705.231, 0.011489, 0.025240,-0.988605, 0.000130, 0.000255,-0.009852,-0.053944,-0.029178, 0.106427,1, 0.003025,-0.006038,-0.001312,1,-0.166422,-0.276605, 9.801335,1,0
1778781669656,  2705.256,  2705.251, 0.014359, 0.032677,-0.994107, 0.000143, 0.000320,-0.009974,-0.061709,-0.011856,-0.116946,1,-0.005062, 0.002262,-0.001039,1,-0.165884,-0.277088, 9.801331,1,0
1778781669678,  2705.281,  2705.276, 0.014171, 0.027340,-0.993452, 0.000145, 0.000278,-0.009911,-0.028046,-0.009475, 0.058864,1, 0.002582,-0.002011,-0.000031,1,-0.166952,-0.277509, 9.801301,1,0
1778781669704,  2705.301,  2705.301, 0.023482, 0.025926,-1.004426, 0.000232, 0.000252,-0.010062, 0.063462,-0.023160,-0.048745,1,-0.001900, 0.002793,-0.000943,1,-0.166900,-0.277465, 9.801303,1,0
1778781669726,  2705.326,  2705.321, 0.008304, 0.025807,-0.996251, 0.000087, 0.000260,-0.009927, 0.005165, 0.030329, 0.188763,1, 0.000512, 0.001884,-0.000775,1,-0.168112,-0.277679, 9.801276,1,0
1778781669749,  2705.351,  2705.346, 0.017434, 0.029521,-1.010052, 0.000160, 0.000287,-0.010124, 0.003729, 0.011387,-0.103946,1,-0.006065, 0.004416,-0.000019,1,-0.167375,-0.278303, 9.801271,1,0
1778781669774,  2705.371,  2705.371, 0.021131, 0.032082,-0.979797, 0.000225, 0.000333,-0.009789, 0.038555, 0.036268, 0.192717,1, 0.004433, 0.003375, 0.000079,1,-0.168779,-0.278208, 9.801250,1,0
1778781669796,  2705.396,  2705.391, 0.018436, 0.029161,-1.002707, 0.000182, 0.000283,-0.010058,-0.036970,-0.043459,-0.070095,1, 0.001278,-0.002111,-0.001025,1,-0.168087,-0.277389, 9.801285,1,0
1778781669819,  2705.421,  2705.416, 0.014143, 0.030830,-0.981691, 0.000155, 0.000323,-0.009816,-0.030919, 0.024787, 0.174153,1, 0.002275, 0.003384,-0.000600,1,-0.169718,-0.277483, 9.801254,1,0
1778781669844,  2705.441,  2705.441, 0.009533, 0.023290,-1.010127, 0.000088, 0.000232,-0.010093,-0.075478,-0.048860,-0.104690,1,-0.000127,-0.003911,-0.001156,1,-0.168843,-0.277264, 9.801275,1,0
1778781669866,  2705.466,  2705.461, 0.017778, 0.029872,-0.983050, 0.000190, 0.000312,-0.009816, 0.031480, 0.048139, 0.122824,1,-0.002536, 0.009201,-0.000774,1,-0.170162,-0.277898, 9.801234,1,0
1778781669889,  2705.491,  2705.486, 0.016493, 0.022964,-1.009511, 0.000147, 0.000224,-0.010091,-0.008309,-0.052158,-0.098667,1,-0.002333, 0.000670,-0.001680,1,-0.170067,-0.277433, 9.801250,1,0
1778781669914,  2705.511,  2705.511, 0.018741, 0.033657,-0.982769, 0.000187, 0.000331,-0.009837, 0.012463, 0.051873, 0.163539,1,-0.003640, 0.007799,-0.001416,1,-0.171560,-0.278305, 9.801199,1,0
1778781669936,  2705.536,  2705.531, 0.012664, 0.024238,-1.012215, 0.000107, 0.000231,-0.010114,-0.102496,-0.043844,-0.008141,1, 0.000462,-0.004596,-0.001000,1,-0.170621,-0.278238, 9.801217,1,0
1778781669959,  2705.561,  2705.556, 0.022335, 0.034031,-0.983562, 0.000220, 0.000340,-0.009863, 0.047573, 0.054773, 0.155731,1,-0.000072, 0.010481, 0.000239,1,-0.171782,-0.278958, 9.801176,1,0
1778781669985,  2705.581,  2705.581, 0.014624, 0.021992,-0.994842, 0.000151, 0.000226,-0.009917,-0.028363,-0.062614, 0.045131,1, 0.001164,-0.006426,-0.000281,1,-0.171578,-0.278246, 9.801200,1,0
1778781670006,  2705.606,  2705.601, 0.013203, 0.034385,-0.979800, 0.000138, 0.000349,-0.009818,-0.021490, 0.040596,-0.000827,1,-0.004332, 0.009645,-0.000365,1,-0.171995,-0.279191, 9.801166,1,0
1778781670033,  2705.631,  2705.631, 0.011205, 0.023205,-1.011737, 0.000101, 0.000230,-0.010081,-0.062708,-0.051458,-0.120594,1,-0.001215,-0.007183,-0.000597,1,-0.172371,-0.279062, 9.801163,1,0
1778781670055,  2705.651,  2705.651, 0.023667, 0.035664,-0.987182, 0.000240, 0.000347,-0.009921, 0.058821, 0.070511, 0.120193,1, 0.000803, 0.012656,-0.000188,1,-0.173670,-0.279213, 9.801136,1,0
1778781670076,  2705.676,  2705.671, 0.013643, 0.023540,-1.010837, 0.000132, 0.000223,-0.010078,-0.025970,-0.040112, 0.143195,1, 0.004286,-0.008656,-0.000663,1,-0.173751,-0.278405, 9.801157,1,0
1778781670103,  2705.701,  2705.701, 0.013361, 0.033310,-0.987761, 0.000129, 0.000324,-0.009909,-0.042540, 0.048213, 0.114532,1, 0.003069, 0.010226,-0.002269,1,-0.173880,-0.278347, 9.801157,1,0
1778781670125,  2705.726,  2705.721, 0.040755, 0.022977,-1.024943, 0.000372, 0.000232,-0.010233, 0.006121,-0.088016,-0.036058,1, 0.004509,-0.006804,-0.001503,1,-0.173554,-0.277173, 9.801196,1,0
1778781670146,  2705.746,  2705.741, 0.045319, 0.035833,-0.963916, 0.000463, 0.000358,-0.009703, 0.316739, 0.048481,-0.090347,1, 0.000322, 0.014389,-0.001451,1,-0.173634,-0.277405, 9.801188,1,0
1778781670173,  2705.771,  2705.771, 0.015282, 0.015247,-0.970633, 0.000159, 0.000169,-0.009636,-0.027567,-0.125700, 0.282525,1, 0.001690,-0.007912,-0.003270,1,-0.177183,-0.275169, 9.801188,1,0
1778781670195,  2705.796,  2705.791, 0.041591, 0.042903,-1.007062, 0.000394, 0.000437,-0.010118, 0.082216, 0.102851,-0.296205,1,-0.015452, 0.004770,-0.003174,1,-0.176087,-0.278326, 9.801118,1,0
1778781670216,  2705.816,  2705.811, 0.048684, 0.022589,-0.986776, 0.000502, 0.000193,-0.009859, 0.305237,-0.039083, 0.130981,1, 0.009028, 0.008396,-0.001265,1,-0.178829,-0.278046, 9.801076,1,0
1778781670243,  2705.841,  2705.841, 0.022584, 0.032945,-0.971893, 0.000203, 0.000325,-0.009734, 0.042921, 0.046977, 0.270120,1, 0.007981, 0.008638,-0.001199,1,-0.178825,-0.275851, 9.801138,1,0
1778781670265,  2705.866,  2705.861, 0.078782, 0.030303,-1.030408, 0.000776, 0.000261,-0.010357, 0.499199,-0.149625,-0.303120,1,-0.013341,-0.011530,-0.001618,1,-0.177419,-0.277232, 9.801125,1,0
1778781670286,  2705.886,  2705.881, 0.066820, 0.033122,-0.935522, 0.000662, 0.000372,-0.009345, 0.535114, 0.210391, 0.273042,1, 0.010321, 0.036240,-0.003555,1,-0.182085,-0.277245, 9.801039,1,0
1778781670313,  2705.911,  2705.911, 0.061526, 0.028054,-1.010991, 0.000634, 0.000249,-0.010092, 0.420469,-0.002995,-0.113435,1,-0.018877,-0.005800,-0.003858,1,-0.182714,-0.278703, 9.800986,1,0
1778781670335,  2705.936,  2705.931, 0.093576, 0.016409,-1.010029, 0.000926, 0.000177,-0.010045, 0.640837, 0.086280, 0.143154,1, 0.008641, 0.012970,-0.001513,1,-0.186625,-0.278175, 9.800927,1,0
1778781670357,  2705.956,  2705.951, 0.108671, 0.054193,-0.990091, 0.001085, 0.000532,-0.010001, 0.856735,-0.015965,-0.281520,1, 0.002321, 0.004639,-0.005956,1,-0.185891,-0.278066, 9.800944,1,0
1778781670384,  2705.981,  2705.981, 0.134768, 0.004185,-0.942053, 0.001355, 0.000038,-0.009366, 1.127182,-0.233658, 0.562485,1,-0.004669, 0.011031,-0.004020,1,-0.194783,-0.274851, 9.800862,1,0
1778781670405,  2706.006,  2706.001, 0.109263, 0.024891,-0.985470, 0.001054, 0.000313,-0.009847, 0.715293, 0.266951, 0.063699,1,-0.005602, 0.025075,-0.003576,1,-0.196526,-0.277091, 9.800764,1,0
1778781670427,  2706.026,  2706.021, 0.125739, 0.051420,-1.030923, 0.001272, 0.000422,-0.010324, 1.021863,-0.157710,-0.102837,1,-0.020049,-0.000173,-0.005204,1,-0.199607,-0.279540, 9.800632,1,0
1778781670454,  2706.051,  2706.051, 0.158788, 0.019974,-0.943236, 0.001566, 0.000225,-0.009467, 1.350024,-0.083852, 0.550489,1, 0.009505, 0.037972,-0.002305,1,-0.208340,-0.279437, 9.800454,1,0
1778781670475,  2706.076,  2706.071, 0.131828, 0.038802,-1.004322, 0.001309, 0.000445,-0.010078, 1.172627, 0.217492,-0.000443,1,-0.002352,-0.001259,-0.005944,1,-0.208485,-0.279333, 9.800453,1,0
1778781670497,  2706.096,  2706.091, 0.143710, 0.033947,-1.007927, 0.001476, 0.000239,-0.010039, 1.204375,-0.147365, 0.096196,1,-0.001063, 0.022984,-0.005308,1,-0.213301,-0.279877, 9.800335,1,0
1778781670524,  2706.121,  2706.121, 0.166613, 0.026972,-0.994860, 0.001610, 0.000346,-0.009997, 1.416668,-0.017150, 0.043956,1,-0.008012, 0.040174,-0.000855,1,-0.218495,-0.281910, 9.800161,1,0
1778781670545,  2706.146,  2706.141, 0.142010, 0.048748,-1.003597, 0.001424, 0.000566,-0.010044, 1.342478, 0.319658, 0.075632,1, 0.003723, 0.005271,-0.008801,1,-0.221530,-0.282968, 9.800063,1,0
1778781670568,  2706.166,  2706.166, 0.150234, 0.029232,-1.020054, 0.001533, 0.000219,-0.010166, 1.248360, 0.004086,-0.203314,1, 0.003312,-0.003927,-0.010416,1,-0.224804,-0.282487, 9.800002,1,0
1778781670594,  2706.191,  2706.191, 0.158426, 0.033159,-1.002065, 0.001532, 0.000403,-0.010062, 1.325981, 0.043476,-0.026941,1, 0.002404, 0.033718,-0.002055,1,-0.228701,-0.281632, 9.799937,1,0
1778781670615,  2706.216,  2706.211, 0.152420, 0.055862,-1.008252, 0.001520, 0.000612,-0.010117, 1.566328,-0.149179, 0.089303,1, 0.000682, 0.013322,-0.007227,1,-0.230450,-0.281657, 9.799895,1,0
1778781670638,  2706.236,  2706.236, 0.164305, 0.016846,-1.000787, 0.001664, 0.000113,-0.009938, 1.375330,-0.114578,-0.014554,1,-0.001408,-0.002441,-0.011001,1,-0.235871,-0.279830, 9.799819,1,0
1778781670664,  2706.261,  2706.261, 0.146897, 0.044780,-1.013030, 0.001421, 0.000511,-0.010195, 1.203222, 0.159110,-0.134654,1,-0.002419, 0.030468,-0.004657,1,-0.238290,-0.280114, 9.799752,1,0
1778781670685,  2706.286,  2706.281, 0.156168, 0.064201,-1.026087, 0.001558, 0.000674,-0.010304, 1.462840, 0.062421,-0.221329,1, 0.001217,-0.010401,-0.013453,1,-0.239174,-0.280357, 9.799724,1,0
1778781670708,  2706.306,  2706.306, 0.180826,-0.000007,-0.965270, 0.001809,-0.000013,-0.009609, 1.528723,-0.278829, 0.333574,1, 0.002606, 0.002253,-0.011926,1,-0.244629,-0.278692, 9.799636,1,0
1778781670734,  2706.331,  2706.331, 0.145388, 0.050656,-1.013970, 0.001423, 0.000579,-0.010190, 1.182058, 0.217373,-0.144012,1,-0.001490, 0.020304,-0.007102,1,-0.244350,-0.279633, 9.799617,1,0
1778781670755,  2706.356,  2706.351, 0.155782, 0.058967,-1.008878, 0.001559, 0.000565,-0.010091, 1.445715,-0.163620, 0.059504,1,-0.005230,-0.006891,-0.014220,1,-0.246634,-0.281246, 9.799513,1,0
1778781670778,  2706.376,  2706.376, 0.183864, 0.005291,-0.955871, 0.001840, 0.000064,-0.009570, 1.552840,-0.229705, 0.425523,1, 0.000044, 0.011044,-0.012292,1,-0.250582,-0.281602, 9.799402,1,0
1778781670804,  2706.401,  2706.401, 0.170179, 0.052002,-0.983006, 0.001678, 0.000566,-0.009839, 1.418613, 0.228977, 0.159434,1,-0.003087, 0.011353,-0.010761,1,-0.250614,-0.281092, 9.799417,1,0
1778781670826,  2706.426,  2706.421, 0.169755, 0.056498,-0.992528, 0.001697, 0.000535,-0.009887, 1.523785,-0.111227, 0.300875,1,-0.000622,-0.003064,-0.016786,1,-0.252359,-0.282251, 9.799338,1,0
1778781670848,  2706.446,  2706.446, 0.195886, 0.003198,-0.978300, 0.001956, 0.000058,-0.009806, 1.667960,-0.252364, 0.205428,1,-0.007198, 0.007509,-0.013227,1,-0.253252,-0.283958, 9.799266,1,0
1778781670874,  2706.471,  2706.471, 0.198503, 0.057329,-0.979241, 0.001963, 0.000624,-0.009786, 1.693032, 0.279539, 0.196224,1, 0.003461, 0.006720,-0.013345,1,-0.253812,-0.282572, 9.799292,1,0
1778781670896,  2706.496,  2706.491, 0.199290, 0.057210,-0.991468, 0.001981, 0.000581,-0.009879, 1.623286,-0.111568, 0.282086,1, 0.004525, 0.004471,-0.017821,1,-0.254922,-0.283252, 9.799243,1,0
1778781670918,  2706.521,  2706.516, 0.206811, 0.018307,-0.976999, 0.002041, 0.000168,-0.009807, 1.771451,-0.105277, 0.218067,1,-0.013828, 0.018893,-0.015346,1,-0.257246,-0.285248, 9.799125,1,0
1778781670944,  2706.541,  2706.541, 0.207906, 0.044971,-0.982264, 0.002071, 0.000520,-0.009811, 1.779658, 0.155751, 0.166351,1,-0.003200, 0.011009,-0.015068,1,-0.259529,-0.285384, 9.799061,1,0
1778781670966,  2706.566,  2706.561, 0.203779, 0.058064,-1.001745, 0.002007, 0.000663,-0.009982, 1.728508, 0.185895, 0.150910,1, 0.003541, 0.002498,-0.021305,1,-0.260984,-0.287601, 9.798957,1,0
1778781670989,  2706.591,  2706.586, 0.218515, 0.015299,-0.988309, 0.002161, 0.000118,-0.009897, 1.879993,-0.137275, 0.106914,1, 0.002797, 0.012108,-0.019228,1,-0.263269,-0.287236, 9.798906,1,0
1778781671014,  2706.611,  2706.611, 0.222129, 0.038693,-0.984925, 0.002183, 0.000444,-0.009848, 1.913149, 0.094164, 0.140098,1,-0.004995, 0.018628,-0.014909,1,-0.265759,-0.285451, 9.798891,1,0
1778781671036,  2706.636,  2706.631, 0.196676, 0.058897,-1.014003, 0.001926, 0.000634,-0.010111, 1.694797, 0.204242, 0.079886,1, 0.008350,-0.001655,-0.022885,1,-0.266588,-0.286815, 9.798829,1,0
1778781671059,  2706.661,  2706.656, 0.202976, 0.024489,-1.009128, 0.002016, 0.000138,-0.010095, 1.723001,-0.048249,-0.097408,1, 0.006231, 0.003157,-0.023045,1,-0.267595,-0.288232, 9.798760,1,0
1778781671084,  2706.681,  2706.681, 0.231091, 0.032672,-0.990675, 0.002265, 0.000413,-0.009931, 1.996290, 0.035301, 0.083587,1, 0.003868, 0.018307,-0.016408,1,-0.270493,-0.284996, 9.798776,1,0
1778781671106,  2706.706,  2706.701, 0.216487, 0.052425,-0.993011, 0.002132, 0.000615,-0.009922, 1.835010, 0.270495, 0.144280,1, 0.023437, 0.005349,-0.025109,1,-0.271308,-0.283535, 9.798795,1,0
1778781671129,  2706.731,  2706.726, 0.210169, 0.034508,-1.009113, 0.002121, 0.000234,-0.010057, 1.788705, 0.054709,-0.097257,1, 0.006515,-0.006965,-0.026159,1,-0.272116,-0.283678, 9.798768,1,0
1778781671154,  2706.751,  2706.751, 0.225515, 0.038541,-0.988604, 0.002178, 0.000434,-0.009908, 1.937467, 0.096976, 0.103899,1,-0.001390, 0.017154,-0.020389,1,-0.274593,-0.281047, 9.798776,1,0
1778781671176,  2706.776,  2706.771, 0.228515, 0.049295,-0.986119, 0.002171, 0.000590,-0.009892, 1.686668, 0.196980,-0.020515,1, 0.025958,-0.002410,-0.025373,1,-0.272680,-0.279564, 9.798871,1,0
1778781671199,  2706.801,  2706.796, 0.222296, 0.025360,-0.985511, 0.002218, 0.000187,-0.009787, 1.904492,-0.028961, 0.134286,1, 0.004836,-0.007310,-0.027362,1,-0.275239,-0.277529, 9.798858,1,0
1778781671225,  2706.821,  2706.821, 0.239081, 0.026445,-0.973696, 0.002343, 0.000399,-0.009788, 2.066021,-0.016540, 0.250111,1,-0.004394, 0.026869,-0.019804,1,-0.279388,-0.276033, 9.798782,1,0
1778781671246,  2706.846,  2706.841, 0.207482, 0.065209,-0.993939, 0.001967, 0.000694,-0.009958, 1.742141, 0.190484, 0.032326,1, 0.015848,-0.011996,-0.027365,1,-0.277837,-0.276024, 9.798826,1,0
1778781671273,  2706.871,  2706.871, 0.232654, 0.012266,-0.989007, 0.002319, 0.000041,-0.009857, 2.002290,-0.153813, 0.099994,1, 0.012139,-0.007944,-0.028721,1,-0.278993,-0.273751, 9.798858,1,0
1778781671295,  2706.891,  2706.891, 0.242747, 0.034010,-0.967649, 0.002398, 0.000465,-0.009711, 2.099089, 0.063379, 0.309494,1, 0.009588, 0.023138,-0.020762,1,-0.282146,-0.269862, 9.798875,1,0
1778781671316,  2706.916,  2706.911, 0.194938, 0.049041,-0.990502, 0.001914, 0.000541,-0.009915, 1.783300, 0.030189, 0.135907,1, 0.011070,-0.009737,-0.030664,1,-0.281229,-0.269171, 9.798921,1,0
1778781671343,  2706.941,  2706.941, 0.235206, 0.018670,-1.000923, 0.002382, 0.000206,-0.009977, 2.024292,-0.085989,-0.016809,1,-0.008218,-0.013179,-0.029671,1,-0.281859,-0.269365, 9.798897,1,0
1778781671365,  2706.966,  2706.961, 0.217462, 0.008969,-0.959667, 0.002183, 0.000138,-0.009518, 1.744055, 0.235454, 0.466568,1, 0.026198, 0.027247,-0.030359,1,-0.284472,-0.265702, 9.798922,1,0
1778781671386,  2706.986,  2706.981, 0.184260, 0.051659,-1.021347, 0.001784, 0.000445,-0.010226, 1.448761,-0.182156,-0.045487,1,-0.014885,-0.032802,-0.031819,1,-0.279994,-0.266644, 9.799025,1,0
1778781671413,  2707.011,  2707.011, 0.162933, 0.004651,-0.984638, 0.001649, 0.000076,-0.009825, 1.318034,-0.217889, 0.143119,1,-0.000109,-0.014204,-0.028313,1,-0.279322,-0.263526, 9.799129,1,0
1778781671435,  2707.031,  2707.031, 0.152012, 0.041237,-1.008028, 0.001562, 0.000383,-0.010106, 1.215101, 0.140486,-0.086156,1, 0.010007,-0.015554,-0.032532,1,-0.275119,-0.263629, 9.799245,1,0
1778781671456,  2707.056,  2707.051, 0.143520, 0.015016,-1.006874, 0.001448, 0.000096,-0.010000, 1.179259,-0.083384, 0.194466,1, 0.001436,-0.013393,-0.027527,1,-0.273840,-0.262272, 9.799316,1,0
1778781671483,  2707.081,  2707.081, 0.118677, 0.033093,-1.012313, 0.001177, 0.000448,-0.010158, 0.896629, 0.064686,-0.127834,1, 0.015356,-0.006920,-0.027035,1,-0.266959,-0.259394, 9.799583,1,0
1778781671505,  2707.106,  2707.101, 0.110606, 0.043743,-1.023761, 0.001115, 0.000415,-0.010228, 0.947811,-0.060671,-0.022380,1, 0.010554,-0.030084,-0.033012,1,-0.263385,-0.257694, 9.799725,1,0
1778781671526,  2707.126,  2707.121, 0.125873, 0.000141,-0.990546, 0.001257,-0.000024,-0.009900, 0.842780,-0.120540,-0.068870,1, 0.005529,-0.001260,-0.028162,1,-0.260228,-0.256102, 9.799850,1,0
1778781671553,  2707.151,  2707.151, 0.109483, 0.023094,-1.018108, 0.001053, 0.000259,-0.010185, 0.818033,-0.027149,-0.184198,1, 0.003437,-0.007546,-0.030749,1,-0.255366,-0.253546, 9.800045,1,0
1778781671575,  2707.176,  2707.171, 0.127596, 0.025199,-1.005128, 0.001224, 0.000206,-0.010005, 0.828244,-0.156477, 0.115046,1, 0.005894,-0.004330,-0.033197,1,-0.255085,-0.253747, 9.800047,1,0
1778781671597,  2707.196,  2707.191, 0.108722, 0.006357,-0.998166, 0.001096, 0.000074,-0.010049, 1.037463, 0.042766,-0.241352,1,-0.016366,-0.007995,-0.028575,1,-0.253126,-0.255372, 9.800056,1,0
1778781671623,  2707.221,  2707.221, 0.145147, 0.016472,-0.999914, 0.001562, 0.000229,-0.009975, 1.168753,-0.092721,-0.005758,1,-0.012652,-0.014594,-0.030872,1,-0.254174,-0.254672, 9.800047,1,0
1778781671645,  2707.246,  2707.241, 0.167884, 0.011156,-0.988657, 0.001780, 0.000156,-0.009868, 1.514821, 0.071897, 0.157412,1, 0.006280, 0.022429,-0.035290,1,-0.257548,-0.254541, 9.799962,1,0
1778781671667,  2707.266,  2707.261, 0.191632, 0.045298,-0.987272, 0.001854, 0.000435,-0.009870, 1.236896,-0.104649, 0.070616,1,-0.004443, 0.015965,-0.037435,1,-0.258242,-0.256132, 9.799903,1,0
1778781671694,  2707.291,  2707.291, 0.176320, 0.015739,-0.963625, 0.001670, 0.000093,-0.009655, 1.465566,-0.104529, 0.349759,1,-0.008964, 0.035682,-0.038535,1,-0.264627,-0.259189, 9.799652,1,0
1778781671715,  2707.316,  2707.311, 0.196925, 0.043074,-0.984278, 0.001893, 0.000379,-0.009858, 1.685281,-0.019652, 0.165784,1,-0.018775, 0.002744,-0.032773,1,-0.267507,-0.262311, 9.799491,1,0
1778781671737,  2707.336,  2707.331, 0.200512, 0.034377,-0.960593, 0.002012, 0.000303,-0.009606, 1.973299, 0.058645, 0.239974,1,-0.008463, 0.025061,-0.036076,1,-0.272798,-0.264096, 9.799296,1,0
1778781671764,  2707.361,  2707.361, 0.211700, 0.036747,-0.964966, 0.002184, 0.000412,-0.009698, 1.798866, 0.096144, 0.336084,1, 0.001979, 0.018705,-0.030203,1,-0.277758,-0.264183, 9.799155,1,0
1778781671785,  2707.386,  2707.381, 0.196839, 0.033218,-0.969695, 0.002009, 0.000377,-0.009707, 1.971722, 0.254520, 0.347655,1, 0.009979, 0.010785,-0.030311,1,-0.281677,-0.262370, 9.799092,1,0
1778781671808,  2707.406,  2707.406, 0.208764, 0.039552,-0.968619, 0.002163, 0.000416,-0.009697, 1.761746, 0.128800, 0.300158,1, 0.016218, 0.005528,-0.027335,1,-0.285677,-0.258594, 9.799077,1,0
1778781671834,  2707.431,  2707.431, 0.218055, 0.025574,-0.984041, 0.002213, 0.000255,-0.009834, 1.851089,-0.006864, 0.148908,1, 0.010411, 0.004641,-0.026076,1,-0.287419,-0.257356, 9.799058,1,0
1778781671855,  2707.456,  2707.451, 0.205170, 0.037171,-0.985642, 0.002073, 0.000325,-0.009817, 1.463992,-0.042711, 0.258857,1, 0.007883, 0.015071,-0.024034,1,-0.288334,-0.256159, 9.799063,1,0
1778781671878,  2707.476,  2707.476, 0.162678, 0.024479,-1.001304, 0.001591, 0.000300,-0.010038, 1.309147,-0.015463,-0.020295,1, 0.004460, 0.002669,-0.020721,1,-0.286244,-0.255396, 9.799144,1,0
1778781671904,  2707.501,  2707.501, 0.148365, 0.038129,-1.001361, 0.001477, 0.000422,-0.009974, 1.170805, 0.119689,-0.020758,1, 0.001223,-0.020265,-0.021463,1,-0.283507,-0.254212, 9.799254,1,0
1778781671925,  2707.526,  2707.521, 0.138567, 0.018114,-0.981720, 0.001404, 0.000200,-0.009839, 1.209325, 0.169897,-0.050121,1, 0.010785,-0.005664,-0.020404,1,-0.281453,-0.253018, 9.799344,1,0
1778781671948,  2707.546,  2707.546, 0.125783, 0.034747,-1.031594, 0.001326, 0.000349,-0.010285, 0.957205, 0.090096,-0.316929,1, 0.003949,-0.034314,-0.019935,1,-0.275219,-0.250555, 9.799584,1,0
1778781671974,  2707.571,  2707.571, 0.140308, 0.016146,-1.018448, 0.001409, 0.000154,-0.010222, 1.102294,-0.091414,-0.187915,1, 0.005866,-0.007752,-0.017699,1,-0.273402,-0.249585, 9.799661,1,0
1778781671995,  2707.596,  2707.591, 0.114595, 0.010008,-1.011876, 0.001183, 0.000142,-0.010181, 1.147666,-0.027034,-0.376320,1, 0.006335,-0.020154,-0.018166,1,-0.269109,-0.248239, 9.799813,1,0
1778781672018,  2707.616,  2707.616, 0.137134, 0.006134,-1.024610, 0.001470, 0.000068,-0.010221, 1.078777,-0.188210,-0.248103,1,-0.006511,-0.028393,-0.013335,1,-0.265154,-0.248574, 9.799912,1,0
1778781672044,  2707.641,  2707.641, 0.171262, 0.027346,-1.004211, 0.001701, 0.000306,-0.010064, 1.413373, 0.016991,-0.048124,1,-0.013031, 0.008503,-0.014205,1,-0.266392,-0.251599, 9.799802,1,0
1778781672066,  2707.666,  2707.661, 0.165597, 0.019611,-0.998297, 0.001724, 0.000185,-0.009987, 1.281472, 0.262543, 0.100157,1,-0.018779, 0.013510,-0.014716,1,-0.267151,-0.254185, 9.799714,1,0
1778781672088,  2707.686,  2707.686, 0.175192, 0.026351,-0.986892, 0.001720, 0.000346,-0.009889, 1.448698, 0.000585, 0.121458,1,-0.001385, 0.018612,-0.011021,1,-0.269916,-0.257882, 9.799542,1,0
1778781672114,  2707.711,  2707.711, 0.159597, 0.043243,-0.985321, 0.001686, 0.000480,-0.009896, 1.560531, 0.267862, 0.122203,1,-0.004410, 0.010881,-0.015323,1,-0.270904,-0.258219, 9.799506,1,0
1778781672136,  2707.736,  2707.731, 0.156172, 0.023522,-0.973577, 0.001668, 0.000261,-0.009781, 1.698196, 0.207529, 0.270848,1, 0.008199, 0.011548,-0.014342,1,-0.275971,-0.254478, 9.799462,1,0
1778781672158,  2707.761,  2707.756, 0.205207, 0.042699,-0.955032, 0.002134, 0.000489,-0.009552, 1.730546, 0.167010, 0.433701,1,-0.001071, 0.014851,-0.010116,1,-0.282303,-0.251763, 9.799353,1,0
1778781672184,  2707.781,  2707.781, 0.192474, 0.021313,-0.972811, 0.001908, 0.000232,-0.009743, 1.602794,-0.042162, 0.259277,1, 0.010205, 0.020981,-0.012983,1,-0.285376,-0.250862, 9.799286,1,0
1778781672206,  2707.806,  2707.801, 0.181678, 0.040272,-0.969166, 0.001708, 0.000369,-0.009701, 1.319298, 0.102174, 0.200874,1, 0.010277, 0.000172,-0.007552,1,-0.286329,-0.250152, 9.799276,1,0
1778781672229,  2707.831,  2707.826, 0.153009, 0.030525,-0.977631, 0.001620, 0.000277,-0.009801, 1.213004, 0.052929, 0.212054,1, 0.019061,-0.005035,-0.007931,1,-0.287334,-0.245828, 9.799356,1,0
1778781672254,  2707.851,  2707.851, 0.184736, 0.028264,-0.967383, 0.001954, 0.000340,-0.009678, 1.522502, 0.035003, 0.312604,1, 0.017222,-0.011311,-0.006426,1,-0.288777,-0.241637, 9.799418,1,0
1778781672276,  2707.876,  2707.871, 0.170594, 0.037008,-0.971226, 0.001690, 0.000390,-0.009700, 1.287248, 0.205996, 0.208812,1, 0.037885, 0.003471,-0.007597,1,-0.288028,-0.235383, 9.799593,1,0
1778781672299,  2707.901,  2707.896, 0.164766, 0.057766,-1.010546, 0.001657, 0.000574,-0.010103, 1.329871, 0.338796,-0.110240,1, 0.029043,-0.007724,-0.005869,1,-0.285682,-0.226795, 9.799864,1,0
1778781672324,  2707.921,  2707.921, 0.162708, 0.034760,-0.959407, 0.001545, 0.000226,-0.009560, 1.309053, 0.118993, 0.391379,1, 0.033055,-0.001088,-0.011099,1,-0.286525,-0.220865, 9.799974,1,0
1778781672346,  2707.946,  2707.941, 0.148418, 0.017347,-0.983417, 0.001412, 0.000123,-0.009892, 1.112810,-0.167079,-0.251337,1, 0.015109,-0.014931,-0.004783,1,-0.281134,-0.217874, 9.800198,1,0
1778781672369,  2707.971,  2707.966, 0.132224, 0.009270,-1.015020, 0.001387, 0.000059,-0.010135, 1.019214,-0.123980,-0.153581,1,-0.004566,-0.036003,-0.005193,1,-0.276338,-0.215031, 9.800397,1,0
1778781672394,  2707.991,  2707.991, 0.140993, 0.004734,-0.992161, 0.001495, 0.000179,-0.009989, 1.106988,-0.169606, 0.070621,1,-0.001911,-0.004302,-0.003076,1,-0.275548,-0.216093, 9.800396,1,0
1778781672416,  2708.016,  2708.011, 0.137960, 0.015434,-1.003378, 0.001370, 0.000183,-0.010037, 1.124788, 0.309004, 0.043963,1,-0.003852,-0.012238,-0.007513,1,-0.273555,-0.215768, 9.800459,1,0
1778781672439,  2708.041,  2708.036, 0.156181, 0.044539,-0.981803, 0.001462, 0.000441,-0.009763, 1.257638, 0.222253, 0.172273,1, 0.014469, 0.004933,-0.009199,1,-0.274120,-0.214084, 9.800480,1,0
1778781672465,  2708.061,  2708.061, 0.148737, 0.047305,-1.001993, 0.001371, 0.000468,-0.009984, 1.185562, 0.252429,-0.025630,1, 0.020461, 0.003671,-0.006557,1,-0.273161,-0.210847, 9.800577,1,0
1778781672486,  2708.086,  2708.081, 0.167378, 0.053587,-1.021153, 0.001624, 0.000469,-0.010175, 1.133150,-0.100720, 0.030238,1, 0.017858,-0.016896,-0.008774,1,-0.270919,-0.207974, 9.800701,1,0
1778781672513,  2708.111,  2708.111, 0.143786,-0.010294,-1.001849, 0.001464,-0.000163,-0.010087, 1.141710,-0.302583,-0.023883,1, 0.028951, 0.002954,-0.005967,1,-0.268439,-0.200732, 9.800920,1,0
1778781672535,  2708.131,  2708.131, 0.152271,-0.010423,-1.024772, 0.001635, 0.000049,-0.010213, 1.226743,-0.298387,-0.248513,1, 0.006300,-0.027001,-0.000926,1,-0.265718,-0.195748, 9.801095,1,0
1778781672556,  2708.151,  2708.151, 0.191631, 0.007266,-0.983212, 0.001788, 0.000171,-0.009796, 1.611136,-0.124180, 0.159016,1,-0.004176, 0.015467,-0.007688,1,-0.268598,-0.195567, 9.801020,1,0
1778781672583,  2708.181,  2708.181, 0.183502, 0.030091,-0.977735, 0.001758, 0.000386,-0.009810, 1.530518, 0.096085, 0.212634,1,-0.007389, 0.025306,-0.001907,1,-0.269807,-0.199242, 9.800913,1,0
1778781672605,  2708.206,  2708.201, 0.169428, 0.040831,-0.991060, 0.001613, 0.000483,-0.009943, 1.086697, 0.400280, 0.004606,1, 0.001271,-0.009031,-0.002242,1,-0.266896,-0.199047, 9.800997,1,0
1778781672626,  2708.226,  2708.221, 0.132791, 0.049792,-0.972950, 0.001318, 0.000553,-0.009676, 1.279016, 0.244627, 0.349071,1, 0.027204,-0.003333,-0.004064,1,-0.268414,-0.195936, 9.801018,1,0
1778781672653,  2708.251,  2708.251, 0.126831, 0.049416,-1.006295, 0.001286, 0.000530,-0.010057, 0.979109, 0.293871,-0.067157,1, 0.018610,-0.014613,-0.003818,1,-0.264223,-0.190159, 9.801246,1,0
1778781672675,  2708.276,  2708.271, 0.114387, 0.031813,-0.982041, 0.001140, 0.000309,-0.009850, 1.203950, 0.077332,-0.142849,1, 0.016634,-0.009023,-0.006144,1,-0.262713,-0.185761, 9.801371,1,0
1778781672696,  2708.296,  2708.291, 0.121179,-0.005887,-0.976614, 0.001152, 0.000086,-0.009705, 0.911892, 0.136158, 0.296856,1, 0.034399,-0.003128,-0.004937,1,-0.262349,-0.179295, 9.801500,1,0
1778781672723,  2708.321,  2708.321, 0.108948, 0.052245,-0.988953, 0.000996, 0.000545,-0.009865, 0.808313, 0.334842, 0.103275,1, 0.000221, 0.003606,-0.005002,1,-0.260212,-0.177507, 9.801590,1,0
1778781672745,  2708.346,  2708.341, 0.093158, 0.029540,-0.954346, 0.000918, 0.000360,-0.009571, 0.899220, 0.078171, 0.145314,1, 0.002178,-0.000447,-0.002503,1,-0.260464,-0.178260, 9.801570,1,0
1778781672766,  2708.366,  2708.361, 0.098717, 0.056484,-0.962857, 0.000941, 0.000530,-0.009586, 0.909404,-0.086790, 0.379262,1, 0.014661,-0.010666, 0.002674,1,-0.260327,-0.175987, 9.801615,1,0
1778781672793,  2708.391,  2708.391, 0.102533, 0.029454,-0.976579, 0.000926, 0.000159,-0.009743, 0.748330, 0.116274, 0.224786,1, 0.026787,-0.004703,-0.000923,1,-0.257032,-0.171735, 9.801777,1,0
1778781672815,  2708.416,  2708.411, 0.099317, 0.027943,-1.003547, 0.000771, 0.000294,-0.010016, 0.459505,-0.019672,-0.236791,1, 0.014366,-0.033335, 0.004926,1,-0.250438,-0.168744, 9.801999,1,0
1778781672837,  2708.436,  2708.431, 0.058668,-0.029774,-1.013246, 0.000671,-0.000272,-0.010139, 0.811940, 0.323451,-0.041640,1, 0.026677,-0.028047, 0.006493,1,-0.249219,-0.162318, 9.802139,1,0
1778781672864,  2708.461,  2708.461, 0.108744, 0.015690,-1.052409, 0.001161, 0.000246,-0.010471, 0.824129,-0.006745,-0.518270,1, 0.005794,-0.041644, 0.003659,1,-0.240987,-0.160424, 9.802376,1,0
1778781672885,  2708.486,  2708.481, 0.118541,-0.017247,-0.984289, 0.001244,-0.000064,-0.009820, 0.623637, 0.230672, 0.010057,1, 0.013740, 0.027698,-0.004231,1,-0.241363,-0.158031, 9.802405,1,0
1778781672907,  2708.506,  2708.501, 0.103801,-0.005994,-0.981878, 0.000777, 0.000150,-0.009812, 0.362296, 0.146342, 0.007253,1,-0.002869,-0.020148, 0.002055,1,-0.238347,-0.156716, 9.802501,1,0
1778781672934,  2708.531,  2708.531, 0.104911, 0.027856,-0.971090, 0.001034, 0.000318,-0.009614, 0.786801, 0.115332, 0.279256,1,-0.009690,-0.011592,-0.001432,1,-0.241706,-0.158062, 9.802397,1,0
1778781672955,  2708.556,  2708.551, 0.095975, 0.038610,-0.935517, 0.000969, 0.000300,-0.009289, 0.830336,-0.076093, 0.611272,1,-0.010505, 0.019026,-0.003096,1,-0.245371,-0.158958, 9.802291,1,0
1778781672977,  2708.576,  2708.571, 0.099424, 0.015908,-0.992245, 0.000987, 0.000167,-0.009957, 0.622573, 0.238393, 0.168745,1, 0.005934,-0.018641, 0.000530,1,-0.242513,-0.158414, 9.802371,1,0
1778781673004,  2708.601,  2708.601, 0.095290, 0.023795,-0.992229, 0.001030, 0.000355,-0.009912, 0.694143, 0.075687, 0.071996,1, 0.023455,-0.020871,-0.002354,1,-0.239679,-0.156936, 9.802464,1,0
1778781673025,  2708.621,  2708.621, 0.089876, 0.042364,-0.991590, 0.000998, 0.000474,-0.009933, 0.643571, 0.261759, 0.078386,1, 0.014468,-0.019622,-0.004077,1,-0.237197,-0.153243, 9.802584,1,0
1778781673048,  2708.646,  2708.646, 0.098071, 0.032711,-1.004297, 0.000968, 0.000376,-0.009975, 0.726422, 0.171549,-0.046097,1,-0.010798,-0.016872,-0.001474,1,-0.234801,-0.149572, 9.802697,1,0
1778781673074,  2708.671,  2708.671, 0.080964, 0.037066,-0.996007, 0.000763, 0.000416,-0.010058, 0.558821, 0.213977, 0.035197,1, 0.012056, 0.027824,-0.000532,1,-0.236034,-0.149137, 9.802674,1,0
1778781673095,  2708.696,  2708.691, 0.086197, 0.030285,-1.012325, 0.000740, 0.000381,-0.010068, 0.159089,-0.036113, 0.216075,1, 0.014947,-0.014574, 0.004495,1,-0.235230,-0.146669, 9.802732,1,0
1778781673118,  2708.716,  2708.716, 0.088958, 0.026183,-0.997220, 0.000897, 0.000390,-0.009947, 0.637138, 0.113083, 0.023388,1, 0.011233,-0.002719, 0.005649,1,-0.235164,-0.143332, 9.802782,1,0
1778781673144,  2708.741,  2708.741, 0.069059, 0.001609,-0.970607, 0.000816, 0.000058,-0.009743, 0.441670,-0.126508, 0.284386,1, 0.008063,-0.011018, 0.006157,1,-0.235231,-0.142047, 9.802799,1,0
1778781673165,  2708.766,  2708.761, 0.065832, 0.029990,-0.975594, 0.000741, 0.000227,-0.009806, 0.349056,-0.106420, 0.159195,1, 0.014902,-0.000011, 0.001958,1,-0.234043,-0.139378, 9.802866,1,0
1778781673188,  2708.786,  2708.786, 0.043632, 0.028114,-0.966178, 0.000531, 0.000254,-0.009702, 0.194534, 0.134151, 0.327878,1,-0.010964,-0.004957, 0.004535,1,-0.233194,-0.141887, 9.802850,1,0
1778781673214,  2708.811,  2708.811, 0.091972, 0.016208,-1.045994, 0.001027, 0.000072,-0.010416, 0.671401, 0.014736,-0.454819,1,-0.019892,-0.035913, 0.002194,1,-0.229418,-0.144831, 9.802896,1,0
1778781673235,  2708.836,  2708.831, 0.059206, 0.018189,-0.958476, 0.000755, 0.000135,-0.009580, 0.921905, 0.074619, 0.237876,1, 0.017249, 0.027788, 0.002853,1,-0.232991,-0.143566, 9.802831,1,0
1778781673258,  2708.856,  2708.856, 0.090374, 0.021074,-0.990105, 0.000896, 0.000141,-0.009971, 0.654875, 0.062136, 0.093237,1, 0.003360, 0.017429, 0.006015,1,-0.231939,-0.144420, 9.802843,1,0
1778781673284,  2708.881,  2708.881, 0.052993, 0.004137,-1.005195, 0.000655, 0.000086,-0.010085, 0.287369,-0.103418,-0.054760,1, 0.007128,-0.002658, 0.009727,1,-0.232235,-0.143761, 9.802846,1,0
1778781673306,  2708.906,  2708.901, 0.079551, 0.014807,-1.026635, 0.000641, 0.000011,-0.010269, 0.642990,-0.033964,-0.315870,1,-0.001283,-0.012090, 0.011314,1,-0.234165,-0.141448, 9.802834,1,0
1778781673328,  2708.926,  2708.926, 0.123007, 0.017179,-1.010770, 0.001329, 0.000216,-0.010148, 0.966285, 0.028073,-0.109560,1, 0.004625, 0.014627, 0.008176,1,-0.240513,-0.140382, 9.802695,1,0
1778781673354,  2708.951,  2708.951, 0.131040, 0.034679,-0.953619, 0.001146, 0.000325,-0.009456, 1.038131, 0.201882, 0.450762,1, 0.012668, 0.030302, 0.002348,1,-0.247881,-0.137811, 9.802548,1,0
1778781673376,  2708.976,  2708.971, 0.173852, 0.054742,-1.002536, 0.001619, 0.000563,-0.010075, 0.469374, 0.074864,-0.311393,1,-0.009101, 0.033114, 0.007726,1,-0.247386,-0.140335, 9.802525,1,0
1778781673398,  2709.001,  2708.996, 0.117372, 0.044944,-0.975588, 0.001057, 0.000394,-0.009730, 0.895572, 0.299660, 0.235056,1, 0.001152, 0.031010, 0.007381,1,-0.256423,-0.141050, 9.802282,1,0
1778781673424,  2709.021,  2709.021, 0.119194, 0.033241,-0.991053, 0.001389, 0.000259,-0.009895, 0.910678, 0.185236, 0.083328,1,-0.003491,-0.016940, 0.010689,1,-0.257688,-0.140850, 9.802252,1,0
1778781673446,  2709.046,  2709.041, 0.114709, 0.020082,-0.991660, 0.001358, 0.000356,-0.009949, 1.134168, 0.145533, 0.047369,1, 0.005846, 0.025338, 0.010036,1,-0.261512,-0.139754, 9.802166,1,0
1778781673469,  2709.071,  2709.066, 0.122723, 0.036701,-1.008677, 0.001295, 0.000362,-0.010105, 0.939549, 0.221746,-0.089624,1,-0.005516, 0.006498, 0.008747,1,-0.264165,-0.138336, 9.802115,1,0
1778781673494,  2709.091,  2709.091, 0.103594, 0.021709,-1.009423, 0.000862, 0.000165,-0.010100, 0.750143, 0.073595,-0.096997,1, 0.002980, 0.035311, 0.005559,1,-0.266873,-0.139195, 9.802030,1,0
1778781673516,  2709.116,  2709.111, 0.110630, 0.022753,-1.025075, 0.000961, 0.000218,-0.010269, 0.809423,-0.242624,-0.310131,1,-0.014602,-0.008929, 0.012934,1,-0.268006,-0.140853, 9.801975,1,0
1778781673539,  2709.141,  2709.136, 0.131959,-0.000308,-0.966596, 0.001240, 0.000037,-0.009606, 1.016646,-0.145698, 0.322612,1,-0.010203, 0.028733, 0.011263,1,-0.278335,-0.142999, 9.801657,1,0
1778781673564,  2709.161,  2709.161, 0.092284,-0.010640,-0.964581, 0.000993,-0.000028,-0.009737, 0.621859,-0.251325, 0.342152,1,-0.029875, 0.044414, 0.015561,1,-0.284533,-0.147905, 9.801406,1,0
1778781673586,  2709.186,  2709.181, 0.080254, 0.020252,-1.035828, 0.000876, 0.000216,-0.010412, 1.088373,-0.129045,-0.152234,1,-0.032178,-0.008589, 0.011163,1,-0.288738,-0.153194, 9.801201,1,0
1778781673609,  2709.211,  2709.206, 0.127455, 0.027732,-0.994185, 0.001308, 0.000355,-0.009871, 0.955678, 0.114403, 0.051341,1, 0.007086,-0.003147, 0.010788,1,-0.294138,-0.157322, 9.800975,1,0
1778781673634,  2709.231,  2709.231, 0.095976, 0.036588,-0.999054, 0.000913, 0.000495,-0.010076, 0.645943, 0.200792, 0.003559,1,-0.006221, 0.034938, 0.013959,1,-0.296355,-0.158193, 9.800895,1,0
1778781673656,  2709.256,  2709.251, 0.110436, 0.051662,-1.006299, 0.000895, 0.000555,-0.010072, 0.557276, 0.256350,-0.032333,1, 0.000552,-0.017687, 0.016476,1,-0.297474,-0.156469, 9.800888,1,0
1778781673679,  2709.281,  2709.276, 0.102010, 0.030229,-0.948886, 0.001037, 0.000328,-0.009440, 0.693407, 0.145150, 0.495278,1, 0.025171, 0.011139, 0.008753,1,-0.307325,-0.150499, 9.800678,1,0
1778781673705,  2709.301,  2709.301, 0.096169, 0.041117,-0.965534, 0.001060, 0.000383,-0.009791, 0.632405, 0.253361, 0.331931,1, 0.006364, 0.040041, 0.009865,1,-0.311940,-0.149652, 9.800545,1,0
1778781673726,  2709.326,  2709.321, 0.094072,-0.008004,-0.990724, 0.001061,-0.000124,-0.009921, 1.096735, 0.177880, 0.415077,1, 0.018514,-0.000178, 0.006472,1,-0.317416,-0.145339, 9.800434,1,0
1778781673753,  2709.351,  2709.351, 0.132765, 0.025430,-0.965150, 0.001356, 0.000238,-0.009660, 0.982430, 0.105918, 0.335506,1, 0.017826, 0.008079, 0.011017,1,-0.319810,-0.142898, 9.800392,1,0
1778781673775,  2709.371,  2709.371, 0.143140, 0.038566,-0.954424, 0.001132, 0.000190,-0.009409, 1.082393, 0.235280, 0.440636,1,-0.006800, 0.017284, 0.005944,1,-0.321869,-0.143132, 9.800322,1,0
1778781673796,  2709.396,  2709.391, 0.148054, 0.037858,-1.006863, 0.001287, 0.000455,-0.010071, 0.463190,-0.162727,-0.395917,1,-0.027354, 0.005327, 0.016834,1,-0.317171,-0.148474, 9.800395,1,0
1778781673823,  2709.421,  2709.421, 0.063710,-0.000287,-1.035198, 0.000676,-0.000051,-0.010412, 0.308188,-0.155981,-0.351480,1,-0.025769,-0.003032, 0.016931,1,-0.316511,-0.153954, 9.800332,1,0
1778781673845,  2709.446,  2709.441, 0.078666, 0.023151,-1.001947, 0.000794, 0.000052,-0.010019, 0.987582,-0.146623,-0.028840,1,-0.021891,-0.004374, 0.016459,1,-0.320402,-0.156976, 9.800158,1,0
1778781673866,  2709.466,  2709.461, 0.157141, 0.000931,-1.052196, 0.001542,-0.000097,-0.010411, 0.788757, 0.178304,-0.079551,1,-0.021727, 0.021928, 0.016688,1,-0.323356,-0.161653, 9.799984,1,0
1778781673893,  2709.491,  2709.491, 0.102033, 0.047709,-1.053148, 0.000957, 0.000554,-0.010626, 0.679087, 0.301072,-0.527899,1, 0.015880, 0.034893, 0.014052,1,-0.322613,-0.166284, 9.799932,1,0
1778781673915,  2709.516,  2709.511, 0.098987, 0.032819,-0.999279, 0.001048, 0.000292,-0.010014, 0.700237, 0.466316, 0.320032,1, 0.025719,-0.006535, 0.006641,1,-0.325485,-0.160407, 9.799934,1,0
1778781673936,  2709.536,  2709.531, 0.119191, 0.037405,-0.945826, 0.001212, 0.000472,-0.009426, 0.753441, 0.457250, 0.336212,1, 0.011465, 0.037041, 0.007979,1,-0.329000,-0.158052, 9.799855,1,0
1778781673963,  2709.561,  2709.561, 0.083423, 0.053481,-1.032503, 0.000797, 0.000451,-0.010285, 0.490225, 0.368471,-0.325475,1,-0.013165,-0.013842, 0.004708,1,-0.327442,-0.156401, 9.799933,1,0
1778781673985,  2709.586,  2709.581, 0.071774, 0.022654,-0.988862, 0.000699, 0.000357,-0.009952, 0.707750, 0.203956,-0.434017,1, 0.004437,-0.009084, 0.009288,1,-0.325424,-0.155506, 9.800015,1,0
1778781674006,  2709.606,  2709.601, 0.079639,-0.010124,-1.034420, 0.000896, 0.000019,-0.010275, 0.669617,-0.110701, 0.102197,1, 0.026415,-0.024944, 0.007246,1,-0.323656,-0.151598, 9.800136,1,0
1778781674033,  2709.631,  2709.631, 0.099691,-0.016018,-1.045356, 0.001012,-0.000188,-0.010517, 0.661836,-0.311286,-0.451091,1,-0.015165,-0.001808, 0.012757,1,-0.315749,-0.154663, 9.800345,1,0
1778781674055,  2709.656,  2709.651, 0.105133, 0.008870,-0.996016, 0.001089, 0.000056,-0.009947, 0.134840,-0.359729, 0.069930,1,-0.025046, 0.023339, 0.012447,1,-0.316254,-0.159027, 9.800259,1,0
1778781674077,  2709.676,  2709.671, 0.082245, 0.022962,-1.015889, 0.000668, 0.000159,-0.010170, 0.143927,-0.221521,-0.134125,1,-0.052078,-0.009937, 0.017761,1,-0.315469,-0.166829, 9.800155,1,0
1778781674104,  2709.701,  2709.701, 0.069393, 0.016407,-0.992579, 0.000612, 0.000102,-0.009839, 0.359551,-0.014227, 0.065957,1,-0.016158, 0.009692, 0.018282,1,-0.321272,-0.175608, 9.799812,1,0
1778781674125,  2709.726,  2709.721, 0.086173, 0.047445,-0.997665, 0.000795, 0.000317,-0.009952, 0.270646,-0.347427,-0.020827,1,-0.007675, 0.005834, 0.017779,1,-0.322102,-0.176937, 9.799762,1,0
1778781674147,  2709.746,  2709.741, 0.067560, 0.007432,-1.009438, 0.000833, 0.000001,-0.010204, 0.534076, 0.062078,-0.137814,1,-0.007031,-0.008910, 0.013026,1,-0.321891,-0.179583, 9.799721,1,0
1778781674174,  2709.771,  2709.771, 0.080480, 0.001535,-1.021626, 0.000937, 0.000189,-0.010152, 0.468082,-0.168231,-0.219055,1,-0.014156,-0.030428, 0.011656,1,-0.320211,-0.183710, 9.799699,1,0
1778781674195,  2709.796,  2709.791, 0.080361, 0.022286,-0.983457, 0.000888, 0.000313,-0.009846, 0.389798, 0.292443, 0.052565,1,-0.015057, 0.024922, 0.007414,1,-0.321729,-0.187248, 9.799582,1,0
1778781674217,  2709.816,  2709.811, 0.097649, 0.063712,-0.946073, 0.000961, 0.000774,-0.009502, 0.225817, 0.394510, 0.337942,1,-0.011595, 0.019353, 0.006103,1,-0.323131,-0.189189, 9.799499,1,0
1778781674244,  2709.841,  2709.841, 0.064349, 0.081464,-0.957504, 0.000675, 0.000808,-0.009547, 0.304963, 0.607714, 0.409456,1,-0.015238,-0.005951, 0.007830,1,-0.325905,-0.191642, 9.799359,1,0
1778781674265,  2709.866,  2709.861, 0.066517, 0.049080,-0.962235, 0.000608, 0.000573,-0.009640, 0.377956, 0.453993, 0.204890,1,-0.006825,-0.005128, 0.008809,1,-0.325502,-0.193655, 9.799334,1,0
1778781674288,  2709.886,  2709.886, 0.076689, 0.053182,-0.956023, 0.000722, 0.000409,-0.009477, 0.424668, 0.330812, 0.423942,1, 0.000493,-0.013980, 0.006231,1,-0.326963,-0.190707, 9.799342,1,0
1778781674314,  2709.911,  2709.911, 0.057121, 0.014588,-0.996563, 0.000572, 0.000193,-0.010045, 0.235234,-0.048271, 0.026453,1, 0.000473, 0.010106, 0.013264,1,-0.325257,-0.191301, 9.799388,1,0
1778781674335,  2709.936,  2709.931, 0.029014, 0.021557,-1.016961, 0.000204, 0.000114,-0.010191, 0.441690, 0.041427,-0.125052,1,-0.006762,-0.039413, 0.013401,1,-0.324014,-0.191011, 9.799435,1,0
1778781674358,  2709.956,  2709.956, 0.074388, 0.014243,-0.963642, 0.000880, 0.000103,-0.009650, 0.402792,-0.053822, 0.349197,1,-0.002602,-0.006670, 0.014654,1,-0.326508,-0.193566, 9.799301,1,0
1778781674384,  2709.981,  2709.981, 0.105995, 0.043101,-0.967745, 0.001029, 0.000488,-0.009666, 0.709707, 0.228525, 0.308842,1, 0.002467, 0.020611, 0.010983,1,-0.330394,-0.194059, 9.799162,1,0
1778781674405,  2710.006,  2710.001, 0.093097, 0.048672,-0.977754, 0.000972, 0.000355,-0.009787, 0.565650, 0.104345, 0.261937,1,-0.002487, 0.016194, 0.014692,1,-0.332161,-0.193657, 9.799109,1,0
1778781674428,  2710.026,  2710.026, 0.086056, 0.028702,-0.980162, 0.000727, 0.000210,-0.009767, 0.510522, 0.091051, 0.187028,1, 0.029075, 0.010354, 0.010073,1,-0.333733,-0.189501, 9.799137,1,0
1778781674454,  2710.051,  2710.051, 0.052670, 0.013828,-0.981032, 0.000354, 0.000090,-0.009779, 0.184052,-0.051059, 0.178595,1, 0.023679, 0.017864, 0.011855,1,-0.333031,-0.185910, 9.799231,1,0
1778781674476,  2710.076,  2710.071, 0.091296, 0.046199,-1.005263, 0.000979, 0.000199,-0.010013, 0.129467,-0.277830, 0.431369,1, 0.001482, 0.007318, 0.014970,1,-0.334419,-0.184089, 9.799217,1,0
1778781674498,  2710.096,  2710.096, 0.045149, 0.003777,-1.035346, 0.000260,-0.000156,-0.010321, 0.110886,-0.149418,-0.354017,1,-0.016785, 0.006965, 0.008190,1,-0.332097,-0.186969, 9.799242,1,0
1778781674524,  2710.121,  2710.121, 0.025050,-0.008728,-1.084562, 0.000242, 0.000043,-0.010854,-0.081177,-0.277312,-0.836595,1,-0.029882,-0.013829, 0.017586,1,-0.326417,-0.192633, 9.799323,1,0
1778781674546,  2710.146,  2710.141, 0.005970,-0.006110,-1.011223, 0.000111,-0.000176,-0.010111, 0.444062,-0.180321,-0.127185,1,-0.003105,-0.024263, 0.013202,1,-0.328042,-0.194659, 9.799229,1,0
1778781674568,  2710.166,  2710.166, 0.056587,-0.011192,-1.011551, 0.000635,-0.000015,-0.010074, 0.229298,-0.307263,-0.120673,1,-0.031866,-0.024642, 0.012203,1,-0.324870,-0.198486, 9.799257,1,0
1778781674594,  2710.191,  2710.191, 0.055605, 0.044399,-1.040298, 0.000470, 0.000568,-0.010450, 0.222083, 0.230436,-0.402663,1,-0.035422, 0.016533, 0.014420,1,-0.323740,-0.206059, 9.799139,1,0
1778781674616,  2710.216,  2710.211, 0.058591, 0.057689,-1.027503, 0.000396, 0.000573,-0.010184,-0.229663, 0.008471, 0.012400,1,-0.012662,-0.023168, 0.013106,1,-0.321991,-0.209278, 9.799128,1,0
1778781674639,  2710.241,  2710.236, 0.038791, 0.043665,-1.008138, 0.000228, 0.000444,-0.010089, 0.062990, 0.216669,-0.087230,1, 0.004780, 0.001468, 0.010380,1,-0.317474,-0.211379, 9.799231,1,0
1778781674664,  2710.261,  2710.261, 0.056766, 0.033731,-1.022085, 0.000626, 0.000424,-0.010188, 0.242458, 0.120072,-0.223880,1,-0.002190,-0.031539, 0.013003,1,-0.313250,-0.210770, 9.799379,1,0
1778781674686,  2710.286,  2710.281, 0.058282, 0.008619,-1.004994, 0.000652, 0.000147,-0.009991, 0.265706,-0.049180, 0.269274,1,-0.003538,-0.001528, 0.007302,1,-0.312611,-0.210814, 9.799398,1,0
1778781674709,  2710.311,  2710.306, 0.099434, 0.049070,-0.973137, 0.000875, 0.000563,-0.009756, 0.665065, 0.262143, 0.256086,1,-0.030926, 0.022090, 0.008475,1,-0.310742,-0.220029, 9.799255,1,0
1778781674734,  2710.331,  2710.331, 0.069360, 0.045498,-0.958870, 0.000820, 0.000339,-0.009592,-0.171058, 0.290312, 0.518802,1,-0.004072, 0.000060, 0.008263,1,-0.310545,-0.222768, 9.799200,1,0
1778781674756,  2710.356,  2710.351, 0.039525, 0.051943,-0.988514, 0.000282, 0.000584,-0.009854, 0.397083, 0.380090, 0.463955,1,-0.006698, 0.006879, 0.008260,1,-0.311831,-0.223153, 9.799150,1,0
1778781674779,  2710.381,  2710.376, 0.047217, 0.059096,-0.971880, 0.000605, 0.000769,-0.009761, 0.157843, 0.358445, 0.268523,1, 0.032937,-0.025034, 0.014561,1,-0.304429,-0.220043, 9.799454,1,0
1778781674804,  2710.401,  2710.401, 0.077407, 0.051927,-0.960797, 0.000859, 0.000596,-0.009622, 0.455326, 0.297377, 0.377455,1, 0.033004,-0.018891, 0.011353,1,-0.303195,-0.210808, 9.799695,1,0
1778781674826,  2710.426,  2710.421, 0.077146, 0.008870,-0.938749, 0.000716, 0.000090,-0.009322, 0.175675,-0.075064, 0.643523,1, 0.030931, 0.013891, 0.014297,1,-0.303315,-0.205058, 9.799813,1,0
1778781674849,  2710.451,  2710.446, 0.023846, 0.016531,-0.991647, 0.000284, 0.000170,-0.010031,-0.065884,-0.042465, 0.075198,1,-0.001868, 0.006520, 0.011340,1,-0.299942,-0.204626, 9.799926,1,0
1778781674874,  2710.471,  2710.471, 0.048745,-0.016790,-0.963233, 0.000665,-0.000133,-0.009602, 0.177033,-0.369433, 0.353804,1,-0.016516,-0.036531, 0.014056,1,-0.299865,-0.205285, 9.799914,1,0
1778781674896,  2710.496,  2710.491, 0.069539,-0.004235,-1.012397, 0.000779,-0.000008,-0.010131, 0.326951, 0.195268,-0.056888,1,-0.028769,-0.005924, 0.013203,1,-0.297085,-0.211570, 9.799866,1,0
1778781674919,  2710.521,  2710.516, 0.052404, 0.038903,-0.989150, 0.000487, 0.000400,-0.009882, 0.220573, 0.166390, 0.099649,1,-0.003911,-0.012708, 0.011608,1,-0.292951,-0.215226, 9.799911,1,0
1778781674945,  2710.541,  2710.541, 0.026734, 0.056958,-1.042386, 0.000239, 0.000423,-0.010362,-0.024920, 0.342141,-0.422262,1,-0.008818,-0.038620, 0.010967,1,-0.285899,-0.216703, 9.800086,1,0
1778781674966,  2710.566,  2710.561, 0.044023, 0.033491,-0.987890, 0.000474, 0.000472,-0.009849, 0.090714, 0.160399,-0.062657,1, 0.013912, 0.010936, 0.010222,1,-0.285062,-0.215729, 9.800132,1,0
1778781674993,  2710.591,  2710.591, 0.020959, 0.030770,-0.971906, 0.000157, 0.000293,-0.009750,-0.078242, 0.088068, 0.269070,1, 0.003411, 0.009145, 0.011077,1,-0.284070,-0.213564, 9.800208,1,0
1778781675015,  2710.611,  2710.611, 0.017605, 0.021468,-1.027984, 0.000266, 0.000109,-0.010248,-0.108093,-0.004349,-0.280804,1,-0.015802,-0.034309, 0.012915,1,-0.279675,-0.215357, 9.800295,1,0
1778781675036,  2710.636,  2710.631, 0.034576, 0.018958,-0.969274, 0.000332, 0.000144,-0.009711,-0.027104,-0.017926,-0.128853,1, 0.006569, 0.011875, 0.015137,1,-0.280182,-0.216213, 9.800261,1,0
1778781675063,  2710.661,  2710.661, 0.033196, 0.014384,-0.958828, 0.000229, 0.000072,-0.009538, 0.044253,-0.075243, 0.397335,1,-0.022353, 0.002231, 0.011429,1,-0.281365,-0.216992, 9.800211,1,0
1778781675085,  2710.686,  2710.681, 0.051597, 0.040553,-1.008267, 0.000433, 0.000333,-0.010083,-0.028452, 0.147769,-0.083879,1,-0.020589,-0.008794, 0.016890,1,-0.278899,-0.222638, 9.800155,1,0
1778781675106,  2710.706,  2710.701,-0.001091, 0.045247,-0.991814, 0.000000, 0.000432,-0.009922, 0.113772, 0.302706, 0.038822,1,-0.010707,-0.011588, 0.013548,1,-0.279842,-0.224399, 9.800088,1,0
1778781675133,  2710.731,  2710.731, 0.055099, 0.061654,-1.016146, 0.000722, 0.000655,-0.010178, 0.258407, 0.375828,-0.165064,1,-0.017043,-0.017503, 0.016130,1,-0.282118,-0.229516, 9.799904,1,0
1778781675155,  2710.756,  2710.751, 0.020356,-0.011571,-0.969732, 0.000307,-0.000110,-0.009619, 0.381623, 0.168540, 0.427575,1, 0.012029, 0.026932, 0.005270,1,-0.287304,-0.227246, 9.799807,1,0
1778781675176,  2710.776,  2710.771, 0.013462,-0.003060,-0.966916, 0.000162,-0.000078,-0.009806,-0.003993,-0.237278,-0.142684,1,-0.031783, 0.011873, 0.011781,1,-0.285959,-0.231728, 9.799741,1,0
1778781675203,  2710.801,  2710.801, 0.003601, 0.006080,-0.997099, 0.000222, 0.000026,-0.009974,-0.255295,-0.185565, 0.021072,1,-0.061617,-0.015756, 0.010160,1,-0.290120,-0.247106, 9.799242,1,0
1778781675225,  2710.826,  2710.821,-0.017987, 0.022872,-0.992949,-0.000052, 0.000205,-0.009916, 0.060187, 0.224810, 0.103783,1,-0.052483, 0.006845, 0.008158,1,-0.294292,-0.258128, 9.798834,1,0
1778781675246,  2710.846,  2710.841, 0.041133, 0.062959,-1.009092, 0.000319, 0.000661,-0.010016,-0.200788, 0.353995,-0.014015,1,-0.043550, 0.018887, 0.009065,1,-0.295252,-0.266807, 9.798573,1,0
1778781675273,  2710.871,  2710.871, 0.023752, 0.093322,-1.027606, 0.000099, 0.000909,-0.010275,-0.062429, 0.644599,-0.278904,1, 0.010414, 0.024026, 0.006726,1,-0.296107,-0.270245, 9.798452,1,0
1778781675295,  2710.896,  2710.891, 0.002562, 0.057964,-0.987538,-0.000027, 0.000630,-0.009837,-0.222950, 0.264086, 0.184894,1, 0.025503, 0.001840, 0.007934,1,-0.298453,-0.265466, 9.798512,1,0
1778781675317,  2710.916,  2710.911, 0.026854, 0.045126,-1.027447, 0.000360, 0.000500,-0.010309, 0.072229, 0.200928,-0.177186,1, 0.004566,-0.001368, 0.007763,1,-0.298874,-0.263905, 9.798541,1,0
1778781675344,  2710.941,  2710.941, 0.012143,-0.001319,-0.934173, 0.000107, 0.000098,-0.009401,-0.183226,-0.271901, 0.637460,1, 0.045543, 0.034092, 0.010846,1,-0.303368,-0.257548, 9.798573,1,0
1778781675365,  2710.966,  2710.961, 0.026072, 0.025194,-1.023218, 0.000214, 0.000349,-0.010236,-0.195387,-0.102137, 0.664653,1, 0.013927,-0.002619, 0.007289,1,-0.303441,-0.255289, 9.798629,1,0
1778781675387,  2710.986,  2710.981, 0.008727, 0.022443,-0.977801, 0.000147, 0.000275,-0.009750,-0.167350, 0.089640, 0.127833,1,-0.008953, 0.015937, 0.015154,1,-0.302434,-0.263615, 9.798440,1,0
1778781675414,  2711.011,  2711.011,-0.044545, 0.058334,-0.985835,-0.000515, 0.000546,-0.009894,-0.734388, 0.307387, 0.130818,1, 0.000362,-0.005129, 0.014359,1,-0.297401,-0.264649, 9.798566,1,0
1778781675435,  2711.036,  2711.031,-0.017405, 0.064204,-0.974377,-0.000253, 0.000619,-0.009727,-0.453549, 0.268155, 0.197554,1, 0.007692,-0.021081, 0.018209,1,-0.294078,-0.264267, 9.798676,1,0
1778781675457,  2711.056,  2711.051,-0.069616, 0.042996,-1.015735,-0.000656, 0.000443,-0.010128,-0.453549, 0.268155, 0.197554,1, 0.007692,-0.021081, 0.018209,1,-0.294078,-0.264267, 9.798676,1,0
1778781675484,  2711.081,  2711.081,-0.050615, 0.023019,-1.023798,-0.000576, 0.000248,-0.010258,-0.750487, 0.213392,-0.042808,1, 0.038852,-0.016635, 0.011779,1,-0.283368,-0.248517, 9.799404,1,0
1778781675505,  2711.106,  2711.101,-0.043843, 0.016110,-0.988113,-0.000385, 0.000167,-0.009906,-0.518428,-0.008681,-0.015327,1, 0.024396,-0.008234, 0.007118,1,-0.281341,-0.242713, 9.799608,1,0
1778781675528,  2711.126,  2711.126,-0.080534, 0.005346,-0.969675,-0.000800, 0.000001,-0.009678,-1.069984,-0.183333, 0.290548,1, 0.020125,-0.009867, 0.006064,1,-0.279822,-0.235278, 9.799833,1,0
1778781675554,  2711.151,  2711.151,-0.090950, 0.016738,-1.044568,-0.000822, 0.000230,-0.010480,-1.167487,-0.073395,-0.443818,1,-0.017089,-0.019094, 0.009688,1,-0.274986,-0.238060, 9.799903,1,0
1778781675575,  2711.176,  2711.171,-0.083958, 0.002290,-0.994239,-0.000797,-0.000002,-0.009966,-0.550859,-0.071357,-0.150403,1, 0.009245,-0.010942, 0.005916,1,-0.276110,-0.237051, 9.799895,1,0
1778781675598,  2711.196,  2711.196,-0.057671,-0.004662,-1.049219,-0.000539, 0.000032,-0.010389,-0.836458,-0.280135,-0.489218,1, 0.000314,-0.044280, 0.008999,1,-0.269522,-0.234397, 9.800143,1,0
1778781675624,  2711.221,  2711.221,-0.063575, 0.025427,-1.030195,-0.000749, 0.000289,-0.010357,-0.891957, 0.015417,-0.302581,1, 0.022328, 0.020983, 0.003757,1,-0.269152,-0.233242, 9.800180,1,0
1778781675645,  2711.246,  2711.241,-0.070638,-0.028378,-1.029463,-0.000727,-0.000097,-0.010297,-0.981301,-0.311867,-0.159977,1,-0.004424,-0.017120, 0.010456,1,-0.267945,-0.230630, 9.800276,1,0
1778781675668,  2711.266,  2711.266,-0.042914,-0.014950,-1.024381,-0.000357,-0.000127,-0.010204,-0.690113,-0.383798,-0.245662,1,-0.038391,-0.014285, 0.012518,1,-0.268833,-0.238374, 9.800066,1,0
1778781675694,  2711.291,  2711.291,-0.062866,-0.010717,-1.036431,-0.000594,-0.000102,-0.010426,-0.884751,-0.349515,-0.363982,1,-0.028842, 0.010094, 0.014619,1,-0.268574,-0.245307, 9.799902,1,0
1778781675716,  2711.316,  2711.311,-0.033669, 0.049585,-1.028357,-0.000414, 0.000490,-0.010240,-0.777949,-0.157397,-0.087390,1,-0.032002,-0.014350, 0.014056,1,-0.268684,-0.250129, 9.799777,1,0
1778781675738,  2711.336,  2711.336,-0.012466, 0.061096,-0.968163,-0.000155, 0.000695,-0.009717,-0.393829, 0.341171, 0.305057,1, 0.008307, 0.023007, 0.011922,1,-0.272303,-0.257702, 9.799480,1,0
1778781675764,  2711.361,  2711.361,-0.058684, 0.062202,-0.979656,-0.000544, 0.000622,-0.009809,-0.847488, 0.352268, 0.192344,1,-0.000552,-0.000196, 0.005089,1,-0.271993,-0.257741, 9.799488,1,0
1778781675786,  2711.386,  2711.381,-0.032888, 0.036590,-0.956676,-0.000303, 0.000363,-0.009590,-0.527236, 0.273056, 0.321002,1, 0.012173, 0.007028, 0.001867,1,-0.274603,-0.255753, 9.799468,1,0
1778781675808,  2711.406,  2711.406,-0.017880, 0.021794,-0.952799,-0.000093, 0.000204,-0.009552,-0.453344,-0.038421, 0.455693,1, 0.019443, 0.007087,-0.006622,1,-0.278219,-0.251548, 9.799475,1,0
1778781675834,  2711.431,  2711.431,-0.004414, 0.015710,-0.945789, 0.000048, 0.000099,-0.009504,-0.324900,-0.096023, 0.524394,1, 0.004860, 0.013164,-0.003718,1,-0.282022,-0.249934, 9.799407,1,0
1778781675856,  2711.456,  2711.451,-0.002563, 0.022494,-0.952455, 0.000114, 0.000246,-0.009505,-0.348415,-0.260828, 0.684154,1,-0.002581, 0.030931,-0.005569,1,-0.286795,-0.250552, 9.799253,1,0
1778781675879,  2711.481,  2711.476,-0.018600, 0.029135,-0.971700,-0.000170, 0.000218,-0.009755,-0.470726, 0.032615, 0.270016,1, 0.002850, 0.019256,-0.004325,1,-0.288920,-0.253014, 9.799128,1,0
1778781675904,  2711.501,  2711.501,-0.006765, 0.028299,-1.007607,-0.000079, 0.000226,-0.010017,-0.355198, 0.023977,-0.082139,1,-0.009236,-0.007858, 0.001691,1,-0.288608,-0.253825, 9.799115,1,0
1778781675926,  2711.526,  2711.521,-0.024556, 0.032812,-0.963153,-0.000142, 0.000273,-0.009578,-0.412454,-0.137409, 0.433053,1, 0.019155, 0.030853,-0.000511,1,-0.292859,-0.252266, 9.799029,1,0
