Time,GPS_ts,fGPS_ts,scaledAccelX,scaledAccelY,scaledAccelZ,deltaVelX,deltaVelY,deltaVelZ,estLinearAccelX,estLinearAccelY,estLinearAccelZ,estLinearAccel:valid,estAngularRateX,estAngularRateY,estAngularRateZ,estAngularRate:valid,estGravityX,estGravityY,estGravityZ,estGravity:valid,flag
1778779974722,   982.800,   982.800, 0.030417, 0.024881,-0.978762, 0.000314, 0.000260,-0.009805, 0.059313, 0.038571, 0.203205,1,-0.006106, 0.003322, 0.001369,1,-0.239080,-0.205621, 9.801579,1,0
1778779974722,   982.825,   982.820, 0.028558, 0.015288,-1.002400, 0.000315, 0.000131,-0.010041,-0.019987,-0.087889,-0.016634,1,-0.022485,-0.006149, 0.000361,1,-0.237365,-0.208987, 9.801549,1,0
1778779974722,   982.845,   982.845, 0.026238, 0.024394,-0.986318, 0.000215, 0.000264,-0.009843, 0.020516, 0.026340, 0.129000,1,-0.007453, 0.004026,-0.000127,1,-0.236918,-0.213119, 9.801471,1,0
1778779974722,   982.870,   982.870, 0.019506, 0.021029,-1.008508, 0.000184, 0.000186,-0.010074,-0.043352,-0.009962,-0.088630,1,-0.025195,-0.014649,-0.001308,1,-0.234180,-0.216974, 9.801453,1,0
1778779974722,   982.895,   982.890, 0.025686, 0.025696,-0.982402, 0.000257, 0.000273,-0.009813, 0.086175, 0.088648, 0.113328,1,-0.002146, 0.006291,-0.000540,1,-0.234639,-0.219175, 9.801393,1,0
1778779974722,   982.920,   982.920, 0.019113, 0.020214,-1.011039, 0.000199, 0.000191,-0.010110,-0.044662,-0.020900,-0.113450,1,-0.006682,-0.014994,-0.000300,1,-0.231627,-0.219338, 9.801460,1,0
1778779974722,   982.945,   982.940, 0.023095, 0.024396,-0.989497, 0.000234, 0.000257,-0.009890, 0.026074, 0.083284, 0.088566,1, 0.009500,-0.001159, 0.001042,1,-0.231096,-0.218553, 9.801491,1,0
1778779974722,   982.970,   982.965, 0.021856, 0.017621,-1.012284, 0.000213, 0.000177,-0.010125,-0.013744,-0.046551,-0.125569,1,-0.010170,-0.009946, 0.002620,1,-0.227792,-0.219671, 9.801542,1,0
1778779974722,   982.995,   982.990, 0.024340, 0.022864,-0.990623, 0.000247, 0.000233,-0.009882,-0.043801, 0.062474, 0.135648,1, 0.006285,-0.001943, 0.002784,1,-0.227293,-0.219190, 9.801565,1,0
1778779974722,   983.015,   983.010, 0.018569, 0.020676,-1.002920, 0.000140, 0.000175,-0.010051,-0.055648,-0.093897,-0.068837,1,-0.007808,-0.016364, 0.002905,1,-0.225391,-0.219465, 9.801603,1,0
1778779974722,   983.035,   983.030, 0.020015, 0.024846,-0.986454, 0.000204, 0.000260,-0.009857, 0.030199, 0.074243, 0.050709,1,-0.009410,-0.002281,-0.003689,1,-0.224751,-0.221594, 9.801570,1,0
1778779974733,  1010.355,  1010.350, 0.017064, 0.013399,-0.993865, 0.000178, 0.000147,-0.009910,-0.002012, 0.053980, 0.143459,1, 0.001428, 0.004535, 0.000584,1,-0.253326,-0.165031, 9.801989,1,0
1778779974755,  1010.375,  1010.370, 0.025714, 0.015236,-1.006038, 0.000240, 0.000144,-0.010067,-0.074199,-0.053097,-0.071048,1,-0.006346,-0.004607,-0.000705,1,-0.252609,-0.165717, 9.801995,1,0
1778779974782,  1010.400,  1010.400, 0.028894, 0.023305,-0.986190, 0.000292, 0.000244,-0.009850, 0.029836, 0.061904, 0.130735,1, 0.003915, 0.004363,-0.000281,1,-0.253657,-0.166521, 9.801954,1,0
1778779974803,  1010.425,  1010.420, 0.029215, 0.015768,-0.999156, 0.000277, 0.000155,-0.010022,-0.045885,-0.043370,-0.052028,1,-0.003328,-0.003996, 0.000047,1,-0.252970,-0.166577, 9.801971,1,0
1778779974825,  1010.440,  1010.440, 0.031592, 0.019495,-0.983598, 0.000320, 0.000185,-0.009863, 0.056291, 0.024017, 0.156145,1,-0.000936, 0.006875,-0.000629,1,-0.253731,-0.167190, 9.801941,1,0
1778779974852,  1010.470,  1010.470, 0.017235, 0.010079,-1.010624, 0.000162, 0.000096,-0.010104,-0.094218,-0.064013, 0.022222,1,-0.000900,-0.007307, 0.000959,1,-0.253363,-0.166932, 9.801955,1,0
1778779974873,  1010.495,  1010.490, 0.027714, 0.020710,-0.982186, 0.000299, 0.000225,-0.009814, 0.075141, 0.036158, 0.125714,1, 0.000748, 0.007044,-0.000909,1,-0.253423,-0.167887, 9.801937,1,0
1778779974895,  1010.515,  1010.510, 0.018525, 0.010635,-1.008029, 0.000182, 0.000099,-0.010069,-0.065763,-0.059175, 0.049035,1, 0.002506,-0.007603, 0.001225,1,-0.253245,-0.167050, 9.801956,1,0
1778779974922,  1010.540,  1010.540, 0.030750, 0.020567,-0.988975, 0.000304, 0.000193,-0.009896, 0.048657, 0.034012, 0.103425,1, 0.000720, 0.005151,-0.000249,1,-0.253059,-0.167660, 9.801950,1,0
1778779974943,  1010.565,  1010.560, 0.024990, 0.016871,-1.006535, 0.000229, 0.000157,-0.010059,-0.045570,-0.034409,-0.003901,1,-0.000069,-0.005159, 0.001037,1,-0.252870,-0.167272, 9.801962,1,0
1778779974965,  1010.585,  1010.580, 0.032215, 0.023416,-0.983751, 0.000319, 0.000227,-0.009845, 0.070511, 0.018840, 0.023796,1,-0.002484, 0.002509,-0.000421,1,-0.252374,-0.167503, 9.801970,1,0
1778779974992,  1010.610,  1010.610, 0.015220, 0.011611,-0.999740, 0.000148, 0.000122,-0.009979,-0.103147,-0.052688,-0.002111,1, 0.002047,-0.006112, 0.000853,1,-0.252213,-0.166487, 9.801992,1,0
1778779975013,  1010.635,  1010.630, 0.034342, 0.023206,-0.985304, 0.000357, 0.000229,-0.009873, 0.070619,-0.001701, 0.007604,1,-0.004776, 0.002906,-0.000306,1,-0.251761,-0.167203, 9.801991,1,0
1778779975035,  1010.655,  1010.655, 0.017185, 0.012792,-0.998665, 0.000182, 0.000139,-0.009971,-0.083566,-0.041130, 0.008436,1, 0.003558,-0.004701, 0.001737,1,-0.251952,-0.166461, 9.801999,1,0
1778779975062,  1010.680,  1010.680, 0.028671, 0.017934,-0.998974, 0.000287, 0.000175,-0.010017, 0.029670, 0.008915, 0.005409,1,-0.003963, 0.002666,-0.000175,1,-0.251578,-0.167084, 9.801998,1,0
1778779975083,  1010.705,  1010.700, 0.017409, 0.009605,-1.002723, 0.000171, 0.000095,-0.009997,-0.033220, 0.018345, 0.119522,1, 0.005577, 0.000789, 0.001360,1,-0.252524,-0.166336, 9.801987,1,0
1778779975106,  1010.725,  1010.725, 0.035283, 0.020013,-1.000901, 0.000340, 0.000193,-0.010031, 0.094534, 0.028906,-0.013492,1,-0.005463, 0.003921,-0.000662,1,-0.251597,-0.167522, 9.801991,1,0
1778779975132,  1010.750,  1010.750, 0.026125, 0.017794,-0.984884, 0.000267, 0.000196,-0.009823, 0.003477, 0.007739, 0.143558,1, 0.006991, 0.000773, 0.000425,1,-0.252745,-0.166542, 9.801978,1,0
1778779975154,  1010.775,  1010.770, 0.029256, 0.015052,-0.997423, 0.000276, 0.000152,-0.010012,-0.058725,-0.028976,-0.117388,1,-0.004062,-0.003300,-0.000499,1,-0.251464,-0.166932, 9.802004,1,0
1778779975176,  1010.795,  1010.795, 0.024866, 0.017325,-0.987686, 0.000265, 0.000193,-0.009861,-0.008802, 0.003077, 0.116086,1, 0.002672,-0.001080, 0.000608,1,-0.252616,-0.166739, 9.801978,1,0
1778779975202,  1010.820,  1010.820, 0.025160, 0.015629,-1.005149, 0.000234, 0.000157,-0.010074,-0.005125,-0.014003,-0.055160,1,-0.005718,-0.000632, 0.000383,1,-0.251836,-0.167452, 9.801986,1,0
1778779975224,  1010.845,  1010.840, 0.019228, 0.016732,-0.989170, 0.000218, 0.000183,-0.009872, 0.043127, 0.048523, 0.173325,1, 0.001962, 0.005178, 0.000072,1,-0.252847,-0.167929, 9.801951,1,0
1778779975246,  1010.865,  1010.865, 0.022262, 0.013124,-1.008526, 0.000203, 0.000123,-0.010089,-0.033737,-0.038232,-0.088272,1,-0.002170,-0.002024,-0.000913,1,-0.251993,-0.167005, 9.801990,1,0
1778779975272,  1010.890,  1010.890, 0.035303, 0.024778,-0.982342, 0.000360, 0.000241,-0.009822, 0.093451, 0.075828, 0.168479,1, 0.003997, 0.005285,-0.000588,1,-0.252922,-0.167042, 9.801965,1,0
1778779975294,  1010.915,  1010.910, 0.024775, 0.014361,-1.010838, 0.000223, 0.000125,-0.010104,-0.069792,-0.068028,-0.032187,1,-0.000863,-0.007409, 0.000567,1,-0.252272,-0.166316, 9.801993,1,0
1778779975317,  1010.935,  1010.935, 0.031168, 0.024437,-0.985054, 0.000312, 0.000239,-0.009853, 0.053079, 0.072663, 0.141895,1, 0.005683, 0.007186,-0.001150,1,-0.252795,-0.166802, 9.801972,1,0
1778779975342,  1010.960,  1010.960, 0.017086, 0.009990,-1.004977, 0.000161, 0.000094,-0.010033,-0.084787,-0.067804,-0.053461,1, 0.000231,-0.006063, 0.000316,1,-0.252154,-0.165769, 9.802006,1,0
1778779975364,  1010.985,  1010.980, 0.031864, 0.023686,-0.980248, 0.000336, 0.000236,-0.009815, 0.085685, 0.008841, 0.061526,1,-0.003213, 0.006719,-0.000818,1,-0.252326,-0.166457, 9.801990,1,0
1778779975387,  1011.010,  1011.005, 0.014120, 0.010791,-1.005450, 0.000146, 0.000107,-0.010042,-0.113933,-0.060128,-0.058097,1,-0.004451,-0.006920, 0.000926,1,-0.252188,-0.166087, 9.802000,1,0
1778779975412,  1011.030,  1011.030, 0.033058, 0.017973,-0.995111, 0.000330, 0.000174,-0.009979, 0.071822, 0.008935, 0.043270,1,-0.004997, 0.006673,-0.000243,1,-0.252572,-0.167472, 9.801967,1,0
1778779975434,  1011.055,  1011.050, 0.017745, 0.012950,-1.004575, 0.000172, 0.000128,-0.010025,-0.025511, 0.002627, 0.073043,1, 0.004555,-0.001963, 0.000837,1,-0.253187,-0.166897, 9.801960,1,0
1778779975457,  1011.080,  1011.075, 0.034344, 0.019220,-0.989363, 0.000335, 0.000181,-0.009910, 0.083876, 0.021469, 0.099627,1,-0.001998, 0.004637,-0.000532,1,-0.253065,-0.167076, 9.801960,1,0
1778779975482,  1011.100,  1011.100, 0.021061, 0.015392,-0.993132, 0.000218, 0.000170,-0.009900,-0.046886,-0.015658, 0.062665,1, 0.003532,-0.002862, 0.000541,1,-0.253330,-0.166492, 9.801964,1,0
1778779975504,  1011.125,  1011.120, 0.034286, 0.020983,-0.990509, 0.000339, 0.000198,-0.009934, 0.021340,-0.020866,-0.058199,1,-0.005001,-0.001146,-0.001706,1,-0.252523,-0.166887, 9.801977,1,0
1778779975527,  1011.150,  1011.145, 0.019898, 0.014662,-0.990887, 0.000215, 0.000166,-0.009899,-0.058121,-0.022755, 0.084678,1, 0.005430,-0.000990, 0.000814,1,-0.253226,-0.166366, 9.801969,1,0
1778779975552,  1011.170,  1011.170, 0.025367, 0.014628,-1.002156, 0.000248, 0.000141,-0.010044,-0.003774,-0.023083,-0.025812,1,-0.004610,-0.001966,-0.000632,1,-0.252489,-0.166682, 9.801982,1,0
1778779975574,  1011.195,  1011.190, 0.019400, 0.013901,-0.995239, 0.000213, 0.000160,-0.009931, 0.026083, 0.063024, 0.132652,1, 0.004181, 0.002685,-0.000833,1,-0.253098,-0.166820, 9.801964,1,0
1778779975597,  1011.220,  1011.215, 0.028068, 0.015758,-1.004853, 0.000265, 0.000155,-0.010059, 0.023017,-0.012156,-0.052251,1,-0.004082,-0.000804,-0.000654,1,-0.252210,-0.166813, 9.801987,1,0
1778779975623,  1011.240,  1011.240, 0.030899, 0.022124,-0.985328, 0.000323, 0.000225,-0.009838, 0.049892, 0.050073, 0.139197,1, 0.004487, 0.003802,-0.000167,1,-0.253247,-0.166753, 9.801961,1,0
1778779975644,  1011.265,  1011.260, 0.027629, 0.015998,-1.005966, 0.000248, 0.000148,-0.010069,-0.087233,-0.053106,-0.079721,1,-0.001049,-0.004975, 0.000252,1,-0.252606,-0.166268, 9.801986,1,0
1778779975667,  1011.290,  1011.285, 0.029680, 0.024707,-0.986198, 0.000301, 0.000250,-0.009856, 0.037672, 0.075165, 0.130655,1, 0.002205, 0.004096,-0.000002,1,-0.253517,-0.167064, 9.801949,1,0
1778779975693,  1011.310,  1011.310, 0.019422, 0.010732,-1.005978, 0.000181, 0.000104,-0.010056,-0.062518,-0.061403,-0.063300,1,-0.001097,-0.004031, 0.000198,1,-0.252860,-0.166686, 9.801972,1,0
1778779975714,  1011.335,  1011.330, 0.027133, 0.023769,-0.982752, 0.000295, 0.000249,-0.009831, 0.078887, 0.037942, 0.094182,1,-0.000512, 0.006279,-0.001084,1,-0.253417,-0.167165, 9.801950,1,0
1778779975737,  1011.360,  1011.360, 0.017744, 0.009696,-1.003778, 0.000172, 0.000091,-0.010034,-0.079485,-0.070985,-0.041734,1,-0.003026,-0.004906, 0.000805,1,-0.253344,-0.166168, 9.801969,1,0
1778779975763,  1011.380,  1011.380, 0.034369, 0.021103,-0.989251, 0.000353, 0.000203,-0.009911, 0.083563, 0.039893, 0.100716,1,-0.001961, 0.005001,-0.000623,1,-0.253638,-0.167116, 9.801945,1,0
1778779975784,  1011.405,  1011.400, 0.018665, 0.011612,-1.007732, 0.000171, 0.000105,-0.010056,-0.083175,-0.043250, 0.050661,1, 0.005403,-0.004095, 0.000520,1,-0.253729,-0.166060, 9.801961,1,0
1778779975811,  1011.430,  1011.430, 0.037513, 0.022986,-0.987987, 0.000370, 0.000215,-0.009896, 0.114511, 0.058401, 0.113109,1,-0.001298, 0.006800,-0.001131,1,-0.253580,-0.167056, 9.801948,1,0
1778779975833,  1011.455,  1011.450, 0.017441, 0.011384,-1.009538, 0.000152, 0.000102,-0.010079,-0.062393,-0.041320, 0.045942,1, 0.004656,-0.004537, 0.001212,1,-0.253662,-0.165999, 9.801963,1,0
1778779975854,  1011.475,  1011.470, 0.033705, 0.021099,-0.988070, 0.000330, 0.000198,-0.009908, 0.010003,-0.014103,-0.059224,1,-0.004816, 0.000496,-0.001243,1,-0.252855,-0.166501, 9.801975,1,0
1778779975881,  1011.500,  1011.500, 0.020419, 0.013234,-0.995442, 0.000223, 0.000150,-0.009941, 0.051969, 0.064076, 0.157380,1, 0.004249, 0.004496,-0.000306,1,-0.254020,-0.166350, 9.801948,1,0
1778779975903,  1011.525,  1011.520, 0.032419, 0.020754,-0.986911, 0.000334, 0.000199,-0.009894, 0.021167,-0.016896,-0.030964,1,-0.002168, 0.002205,-0.000738,1,-0.253223,-0.166404, 9.801968,1,0
1778779975924,  1011.545,  1011.540, 0.017755, 0.013207,-0.997259, 0.000195, 0.000146,-0.009951, 0.015691, 0.048078, 0.132367,1, 0.004662, 0.001982,-0.000002,1,-0.254117,-0.165987, 9.801951,1,0
1778779975951,  1011.570,  1011.570, 0.029321, 0.014822,-0.999531, 0.000284, 0.000145,-0.010010, 0.034021,-0.020503,-0.000080,1,-0.003793,-0.000075,-0.000814,1,-0.253533,-0.165974, 9.801967,1,0
1778779975973,  1011.595,  1011.590, 0.019208, 0.014157,-0.999231, 0.000196, 0.000152,-0.009971, 0.015203, 0.060025, 0.104464,1, 0.002834, 0.000417, 0.000681,1,-0.254013,-0.166132, 9.801952,1,0
1778779975995,  1011.615,  1011.610, 0.032013, 0.017224,-0.999804, 0.000299, 0.000160,-0.010011,-0.035320,-0.043422,-0.069439,1,-0.002644,-0.003234,-0.000226,1,-0.253432,-0.166042, 9.801969,1,0
1778779976022,  1011.640,  1011.640, 0.025632, 0.022062,-0.988213, 0.000262, 0.000231,-0.009872,-0.002847, 0.049937, 0.110880,1, 0.005684, 0.003570, 0.000491,1,-0.254321,-0.166238, 9.801942,1,0
1778779976043,  1011.665,  1011.660, 0.030095, 0.016533,-0.999593, 0.000284, 0.000157,-0.010024,-0.065050,-0.062345,-0.055989,1,-0.000711,-0.003622, 0.000102,1,-0.253674,-0.165704, 9.801968,1,0
1778779976065,  1011.685,  1011.680, 0.028310, 0.021776,-0.984704, 0.000307, 0.000238,-0.009845, 0.091980, 0.061697, 0.128181,1, 0.000679, 0.005238,-0.000222,1,-0.254111,-0.166247, 9.801948,1,0
1778779976092,  1011.710,  1011.710, 0.019721, 0.010450,-1.004453, 0.000195, 0.000097,-0.010046,-0.060421,-0.062920,-0.048347,1,-0.003098,-0.004593, 0.000037,1,-0.253680,-0.165499, 9.801971,1,0
1778779976113,  1011.735,  1011.730, 0.025398, 0.019962,-0.987933, 0.000275, 0.000216,-0.009863, 0.045856, 0.053838, 0.115117,1, 0.000336, 0.004180,-0.000877,1,-0.254061,-0.165972, 9.801953,1,0
1778779976135,  1011.755,  1011.750, 0.022754, 0.012001,-1.007091, 0.000212, 0.000106,-0.010065,-0.069642,-0.064484,-0.002728,1, 0.000706,-0.005230, 0.001902,1,-0.253732,-0.165445, 9.801970,1,0
1778779976162,  1011.780,  1011.780, 0.033542, 0.024045,-0.987137, 0.000333, 0.000231,-0.009874, 0.075188, 0.069262, 0.121446,1, 0.000157, 0.005484,-0.000205,1,-0.253916,-0.166537, 9.801948,1,0
1778779976183,  1011.805,  1011.800, 0.022646, 0.012903,-1.006080, 0.000202, 0.000116,-0.010058,-0.071291,-0.058231, 0.005960,1, 0.002117,-0.003836, 0.000663,1,-0.253785,-0.165681, 9.801966,1,0
1778779976205,  1011.825,  1011.820, 0.031635, 0.022527,-0.987226, 0.000318, 0.000226,-0.009886, 0.051361, 0.016334, 0.018584,1,-0.004258, 0.002368,-0.001110,1,-0.253482,-0.166311, 9.801963,1,0
1778779976232,  1011.850,  1011.850, 0.017677, 0.011292,-1.001489, 0.000184, 0.000117,-0.010006,-0.080341,-0.054665,-0.019280,1, 0.001034,-0.004669, 0.000782,1,-0.253543,-0.165369, 9.801977,1,0
1778779976253,  1011.875,  1011.870, 0.032980, 0.024932,-0.986304, 0.000350, 0.000245,-0.009873, 0.077014, 0.019358, 0.027526,1,-0.002617, 0.003361,-0.001213,1,-0.253383,-0.165941, 9.801971,1,0
1778779976275,  1011.895,  1011.895, 0.015392, 0.010245,-1.002045, 0.000168, 0.000109,-0.010002,-0.102673,-0.064751,-0.024729,1, 0.001584,-0.005242, 0.001023,1,-0.253453,-0.165173, 9.801983,1,0
1778779976302,  1011.920,  1011.920, 0.029987, 0.019162,-0.997081, 0.000289, 0.000177,-0.009986, 0.040973, 0.022219, 0.023960,1,-0.002551, 0.001631,-0.000804,1,-0.253154,-0.165774, 9.801980,1,0
1778779976323,  1011.945,  1011.940, 0.020734, 0.011651,-0.998927, 0.000201, 0.000118,-0.009967, 0.007248, 0.024689, 0.113136,1, 0.003844,-0.000733, 0.000529,1,-0.253688,-0.165490, 9.801971,1,0
1778779976346,  1011.965,  1011.965, 0.031037, 0.019044,-0.994114, 0.000297, 0.000180,-0.009957, 0.051507, 0.020638, 0.053050,1,-0.004085, 0.001098,-0.001065,1,-0.252905,-0.166251, 9.801978,1,0
1778779976372,  1011.990,  1011.990, 0.022889, 0.018048,-0.988950, 0.000233, 0.000196,-0.009875,-0.028857, 0.011218, 0.103685,1, 0.005687,-0.000391, 0.001477,1,-0.253312,-0.165591, 9.801979,1,0
1778779976394,  1012.015,  1012.010, 0.032795, 0.018259,-0.994800, 0.000320, 0.000172,-0.009974,-0.032556,-0.039302,-0.056380,1,-0.004662,-0.000487,-0.000022,1,-0.252655,-0.165861, 9.801991,1,0
1778779976416,  1012.035,  1012.035, 0.022966, 0.017722,-0.991863, 0.000251, 0.000197,-0.009910,-0.028278, 0.007895, 0.075117,1, 0.004164, 0.001713, 0.000992,1,-0.253548,-0.165772, 9.801970,1,0
1778779976442,  1012.060,  1012.060, 0.024099, 0.012247,-1.002610, 0.000233, 0.000113,-0.010035,-0.016931,-0.045849,-0.030268,1,-0.005437,-0.000611,-0.000651,1,-0.253247,-0.166120, 9.801972,1,0
1778779976464,  1012.085,  1012.080, 0.020225, 0.017691,-0.995485, 0.000214, 0.000197,-0.009929, 0.015954, 0.077416, 0.115355,1,-0.000927, 0.001365, 0.001065,1,-0.253685,-0.166893, 9.801948,1,0
1778779976486,  1012.105,  1012.105, 0.026331, 0.012693,-1.009912, 0.000243, 0.000110,-0.010101, 0.005245,-0.041898,-0.101879,1,-0.002313,-0.002726,-0.001077,1,-0.252893,-0.166446, 9.801975,1,0
1778779976512,  1012.130,  1012.130, 0.033812, 0.026195,-0.985418, 0.000343, 0.000264,-0.009851, 0.078111, 0.090727, 0.138320,1, 0.006310, 0.004575,-0.000089,1,-0.253612,-0.165965, 9.801965,1,0
1778779976534,  1012.155,  1012.150, 0.022977, 0.012450,-1.003085, 0.000210, 0.000108,-0.010040,-0.070669,-0.095479,-0.010769,1,-0.001122,-0.005061, 0.001033,1,-0.253316,-0.165255, 9.801985,1,0
1778779976557,  1012.175,  1012.175, 0.028834, 0.023099,-0.983981, 0.000299, 0.000235,-0.009850, 0.029408, 0.060127, 0.152403,1, 0.001681, 0.003163,-0.000194,1,-0.253456,-0.166342, 9.801963,1,0
1778779976582,  1012.200,  1012.200, 0.019497, 0.012490,-1.003119, 0.000187, 0.000120,-0.010029,-0.061745,-0.043352,-0.035252,1,-0.000980,-0.004363, 0.000243,1,-0.252814,-0.165863, 9.801988,1,0
1778779976604,  1012.225,  1012.220, 0.031440, 0.022465,-0.982091, 0.000342, 0.000229,-0.009821, 0.097039, 0.036358, 0.114717,1,-0.001496, 0.005279,-0.000703,1,-0.253074,-0.166503, 9.801970,1,0
1778779976627,  1012.250,  1012.245, 0.014629, 0.011162,-1.004145, 0.000140, 0.000115,-0.010028,-0.109477,-0.056133,-0.045314,1, 0.000262,-0.004815, 0.000200,1,-0.252787,-0.165591, 9.801992,1,0
1778779976652,  1012.270,  1012.270, 0.030821, 0.023265,-0.992462, 0.000305, 0.000216,-0.009938, 0.049486, 0.061681, 0.069246,1,-0.003878, 0.002424,-0.001362,1,-0.252840,-0.166594, 9.801974,1,0
1778779976674,  1012.295,  1012.290, 0.020453, 0.011460,-1.006656, 0.000188, 0.000108,-0.010049,-0.038659,-0.004754, 0.017547,1, 0.004297,-0.002364, 0.000622,1,-0.253101,-0.165950, 9.801979,1,0
1778779976697,  1012.320,  1012.315, 0.034303, 0.023336,-0.993120, 0.000335, 0.000218,-0.009947, 0.083544, 0.062660, 0.062796,1,-0.000425, 0.003584,-0.001307,1,-0.252968,-0.166201, 9.801978,1,0
1778779976722,  1012.340,  1012.340, 0.018001, 0.013071,-0.992657, 0.000187, 0.000149,-0.009912,-0.076922,-0.037047, 0.067340,1, 0.005480,-0.000983, 0.001262,1,-0.253426,-0.165056, 9.801986,1,0
1778779976744,  1012.365,  1012.360, 0.030932, 0.022012,-0.992248, 0.000313, 0.000214,-0.009952,-0.006132,-0.025434,-0.042762,1,-0.007696,-0.002846,-0.000535,1,-0.252566,-0.165867, 9.801993,1,0
1778779976767,  1012.390,  1012.385, 0.021376, 0.013122,-0.993957, 0.000234, 0.000153,-0.009927,-0.043731,-0.036735, 0.054588,1, 0.005344,-0.001756, 0.001374,1,-0.253308,-0.165253, 9.801985,1,0
1778779976793,  1012.410,  1012.410, 0.029629, 0.015635,-0.999455, 0.000296, 0.000150,-0.010015, 0.037822,-0.012160, 0.000690,1,-0.003755, 0.000638,-0.001084,1,-0.252756,-0.165605, 9.801993,1,0
1778779976814,  1012.435,  1012.430, 0.017093, 0.010980,-0.997438, 0.000186, 0.000122,-0.009941,-0.000492, 0.033229, 0.158708,1, 0.003217, 0.002346, 0.000717,1,-0.253757,-0.165362, 9.801971,1,0
1778779976837,  1012.460,  1012.455, 0.029216, 0.016240,-1.004767, 0.000264, 0.000154,-0.010063, 0.034074,-0.006665,-0.051407,1,-0.003088, 0.001010,-0.000680,1,-0.252468,-0.166017, 9.801993,1,0
1778779976863,  1012.480,  1012.480, 0.032025, 0.022171,-0.986175, 0.000327, 0.000231,-0.009849, 0.060739, 0.051800, 0.130906,1, 0.004070, 0.001231, 0.000067,1,-0.253357,-0.165498, 9.801980,1,0
1778779976884,  1012.505,  1012.500, 0.026729, 0.014693,-0.996476, 0.000251, 0.000141,-0.009988,-0.048878,-0.052965,-0.043061,1, 0.000534,-0.001452,-0.000224,1,-0.252799,-0.165010, 9.802002,1,0
1778779976907,  1012.530,  1012.525, 0.022956, 0.019588,-0.990076, 0.000241, 0.000209,-0.009896,-0.027960, 0.027071, 0.092663,1, 0.002276, 0.000002, 0.000753,1,-0.253082,-0.164954, 9.801996,1,0
1778779976933,  1012.550,  1012.550, 0.022985, 0.011399,-1.006751, 0.000222, 0.000109,-0.010080,-0.027158,-0.053298,-0.070850,1,-0.003257,-0.001439,-0.000316,1,-0.252520,-0.165187, 9.802007,1,0
1778779976954,  1012.575,  1012.570, 0.024102, 0.018959,-0.987214, 0.000268, 0.000211,-0.009862, 0.077455, 0.074619, 0.124567,1, 0.002327, 0.003949,-0.000439,1,-0.253084,-0.165252, 9.801991,1,0
1778779976977,  1012.600,  1012.600, 0.020061, 0.010846,-1.003067, 0.000196, 0.000094,-0.010027,-0.056052,-0.057773,-0.034713,1,-0.002086,-0.003641,-0.000407,1,-0.252666,-0.164204, 9.802019,1,0
1778779977003,  1012.620,  1012.620, 0.030967, 0.022855,-0.990362, 0.000309, 0.000224,-0.009895, 0.050821, 0.059191, 0.089868,1,-0.002097, 0.002253,-0.000070,1,-0.252929,-0.165006, 9.801999,1,0
1778779977024,  1012.645,  1012.640, 0.026481, 0.014044,-1.006591, 0.000241, 0.000127,-0.010066,-0.047452,-0.046034,-0.039646,1,-0.000260,-0.002641, 0.000944,1,-0.252638,-0.164948, 9.802008,1,0
1778779977051,  1012.670,  1012.670, 0.031887, 0.024691,-0.984918, 0.000319, 0.000248,-0.009856, 0.059702, 0.076830, 0.143249,1, 0.002183, 0.004943,-0.000347,1,-0.253152,-0.165238, 9.801990,1,0
1778779977073,  1012.695,  1012.690, 0.020796, 0.012291,-1.004991, 0.000195, 0.000113,-0.010065,-0.103389,-0.065878,-0.013530,1, 0.002326,-0.002803, 0.000923,1,-0.252889,-0.164421, 9.802010,1,0
1778779977094,  1012.715,  1012.710, 0.034454, 0.025378,-0.984196, 0.000355, 0.000258,-0.009856, 0.052723, 0.032216, 0.050172,1,-0.003050, 0.003206,-0.001005,1,-0.252825,-0.164957, 9.802003,1,0
1778779977121,  1012.740,  1012.740, 0.020110, 0.010630,-0.997944, 0.000212, 0.000112,-0.009969,-0.055893,-0.060014, 0.015517,1, 0.002005,-0.003920, 0.000537,1,-0.252981,-0.164194, 9.802011,1,0
1778779977143,  1012.760,  1012.760, 0.028473, 0.019394,-0.994858, 0.000288, 0.000183,-0.009962, 0.026462, 0.025430, 0.045786,1,-0.003100, 0.001036,-0.000271,1,-0.252796,-0.164861, 9.802005,1,0
1778779977165,  1012.785,  1012.780, 0.016913, 0.010676,-1.005943, 0.000161, 0.000103,-0.010035,-0.067539, 0.000417, 0.050796,1, 0.005740,-0.001657, 0.000017,1,-0.253191,-0.164182, 9.802006,1,0
1778779977191,  1012.810,  1012.810, 0.037986, 0.020125,-0.997514, 0.000361, 0.000187,-0.009989, 0.119722, 0.032529, 0.019732,1,-0.002732, 0.005379,-0.002052,1,-0.252957,-0.164918, 9.802000,1,0
1778779977213,  1012.835,  1012.830, 0.016195, 0.009908,-0.998805, 0.000162, 0.000104,-0.009978,-0.011861,-0.000690, 0.109246,1, 0.004681, 0.001987, 0.000527,1,-0.253757,-0.164260, 9.801991,1,1
1778779977235,  1012.855,  1012.850, 0.028451, 0.018274,-0.990456, 0.000281, 0.000170,-0.009933,-0.048121,-0.051819,-0.017153,1,-0.004198,-0.001508,-0.000339,1,-0.253178,-0.164304, 9.802005,1,1
1778779977262,  1012.880,  1012.880, 0.023560, 0.017481,-0.993570, 0.000256, 0.000191,-0.009924,-0.022515, 0.006372, 0.058385,1, 0.001593,-0.002029, 0.001356,1,-0.253502,-0.165007, 9.801984,1,1
1778779977283,  1012.905,  1012.900, 0.034131, 0.020106,-0.994586, 0.000345, 0.000186,-0.009970, 0.005712,-0.043982,-0.070966,1,-0.001572,-0.000383,-0.000576,1,-0.252954,-0.165007, 9.801998,1,1
1778779977305,  1012.925,  1012.920, 0.020704, 0.014789,-0.988414, 0.000219, 0.000168,-0.009856, 0.046707, 0.076835, 0.149472,1, 0.005105, 0.003904, 0.000475,1,-0.253842,-0.164639, 9.801982,1,1
1778779977332,  1012.950,  1012.950, 0.022979, 0.011980,-1.007712, 0.000211, 0.000104,-0.010071,-0.027840,-0.047086,-0.080280,1,-0.007262,-0.004159,-0.001014,1,-0.253058,-0.164802, 9.801999,1,1
1778779977353,  1012.975,  1012.970, 0.023779, 0.017445,-0.991472, 0.000239, 0.000191,-0.009893, 0.060341, 0.084086, 0.108735,1, 0.002947, 0.005463,-0.000246,1,-0.253783,-0.165074, 9.801976,1,1
1778779977375,  1012.995,  1012.990, 0.028138, 0.015420,-1.002322, 0.000265, 0.000147,-0.010041,-0.051162,-0.043445,-0.027723,1, 0.001636,-0.004283, 0.000158,1,-0.253440,-0.164186, 9.801999,1,1
1778779977402,  1013.020,  1013.020, 0.029676, 0.022211,-0.982904, 0.000316, 0.000233,-0.009834, 0.037258, 0.053502, 0.162995,1, 0.004410, 0.001963, 0.000689,1,-0.253826,-0.164170, 9.801990,1,1
1778779977423,  1013.045,  1013.040, 0.020363, 0.012717,-1.008351, 0.000192, 0.000119,-0.010109,-0.141397,-0.073824,-0.093350,1, 0.001998,-0.005217, 0.000710,1,-0.252938,-0.163302, 9.802028,1,1
1778779977445,  1013.065,  1013.060, 0.034244, 0.024820,-0.983912, 0.000364, 0.000252,-0.009841, 0.074081, 0.039335, 0.070017,1,-0.002300, 0.005285,-0.001291,1,-0.253252,-0.163860, 9.802010,1,1
1778779977472,  1013.090,  1013.090, 0.019077, 0.011463,-1.001354, 0.000192, 0.000111,-0.009994,-0.066642,-0.050879,-0.017921,1, 0.001036,-0.003555, 0.000636,1,-0.253610,-0.163257, 9.802011,1,1
1778779977493,  1013.115,  1013.110, 0.030165, 0.023855,-0.987684, 0.000306, 0.000240,-0.009865, 0.050950, 0.042947, 0.063829,1,-0.004685, 0.000431,-0.000958,1,-0.253415,-0.164143, 9.802001,1,1
1778779977515,  1013.135,  1013.135, 0.018697, 0.010150,-1.005174, 0.000174, 0.000101,-0.010035,-0.069760,-0.063762,-0.055370,1, 0.002121,-0.005520, 0.000222,1,-0.252940,-0.163234, 9.802029,1,1
1778779977542,  1013.160,  1013.160, 0.032629, 0.018150,-0.994959, 0.000317, 0.000174,-0.009969, 0.067096, 0.014230, 0.044805,1,-0.003506, 0.003269,-0.000672,1,-0.252992,-0.163868, 9.802016,1,1
1778779977563,  1013.185,  1013.180, 0.019938, 0.009119,-0.998294, 0.000191, 0.000092,-0.009980,-0.041942,-0.028641, 0.079204,1, 0.004739, 0.001828, 0.001204,1,-0.253708,-0.163188, 9.802010,1,1
1778779977586,  1013.205,  1013.205, 0.032123, 0.020767,-0.990382, 0.000328, 0.000196,-0.009929, 0.061519, 0.038988, 0.089660,1,-0.007229, 0.002975,-0.000418,1,-0.253591,-0.164897, 9.801984,1,1
1778779977612,  1013.230,  1013.230, 0.019200, 0.014477,-0.996195, 0.000207, 0.000162,-0.009945,-0.065634,-0.022903, 0.032644,1, 0.001889,-0.002475, 0.001193,1,-0.253842,-0.164811, 9.801979,1,1
1778779977634,  1013.255,  1013.250, 0.034088, 0.020778,-0.993876, 0.000341, 0.000199,-0.009958, 0.011385,-0.029250,-0.070897,1,-0.002152,-0.002273,-0.001608,1,-0.253010,-0.165058, 9.801996,1,1
1778779977656,  1013.275,  1013.275, 0.021540, 0.012624,-0.991873, 0.000226, 0.000146,-0.009890,-0.042986,-0.040276, 0.075025,1, 0.003362,-0.000847, 0.001770,1,-0.254193,-0.163973, 9.801984,1,1
1778779977682,  1013.300,  1013.300, 0.025507, 0.015774,-1.005300, 0.000232, 0.000142,-0.010057,-0.003366,-0.009950,-0.056631,1,-0.006819,-0.001302,-0.001382,1,-0.253464,-0.164850, 9.801988,1,1
1778779977704,  1013.325,  1013.320, 0.022152, 0.015993,-0.993449, 0.000226, 0.000172,-0.009914, 0.047821, 0.077323, 0.142855,1, 0.002244, 0.003790, 0.000347,1,-0.254358,-0.164971, 9.801963,1,1
1778779977726,  1013.340,  1013.345, 0.019852, 0.011546,-1.004918, 0.000185, 0.000111,-0.010040, 0.020865,-0.018885,-0.030895,1,-0.001193, 0.000846,-0.001348,1,-0.253490,-0.164521, 9.801992,1,1
1778779977752,  1013.370,  1013.370, 0.029830, 0.021908,-0.983320, 0.000320, 0.000227,-0.009839, 0.038464, 0.050635, 0.158910,1, 0.003310, 0.002317,-0.000292,1,-0.254144,-0.164092, 9.801983,1,1
1778779977774,  1013.395,  1013.390, 0.022015, 0.013642,-1.001643, 0.000212, 0.000134,-0.010036,-0.107236,-0.041762,-0.035562,1,-0.001325,-0.003677, 0.000001,1,-0.253437,-0.163707, 9.802008,1,1
1778779977797,  1013.415,  1013.415, 0.029989, 0.022672,-0.991663, 0.000322, 0.000229,-0.009909, 0.040430, 0.057426, 0.077088,1, 0.001657, 0.001142,-0.000198,1,-0.253694,-0.164860, 9.801982,1,1
1778779977822,  1013.440,  1013.440, 0.021242, 0.012228,-1.004250, 0.000204, 0.000124,-0.010036,-0.045318,-0.044117,-0.046328,1, 0.002685,-0.001155, 0.000020,1,-0.253594,-0.163949, 9.801999,1,1
1778779977844,  1013.465,  1013.460, 0.027495, 0.024560,-0.985966, 0.000288, 0.000249,-0.009846, 0.077164, 0.057960, 0.099876,1,-0.002486, 0.003230,-0.001175,1,-0.253999,-0.164459, 9.801981,1,1
1778779977867,  1013.490,  1013.485, 0.016866, 0.007754,-1.006690, 0.000149, 0.000073,-0.010044,-0.088566,-0.087867,-0.070270,1,-0.002113,-0.005333, 0.000205,1,-0.253798,-0.163970, 9.801994,1,1
1778779977892,  1013.510,  1013.510, 0.035294, 0.022968,-0.995349, 0.000341, 0.000218,-0.009983, 0.092484, 0.060324, 0.040946,1,-0.001963, 0.005330,-0.000643,1,-0.253801,-0.164981, 9.801977,1,1
1778779977914,  1013.535,  1013.530, 0.019335, 0.008586,-0.998823, 0.000191, 0.000083,-0.009981,-0.026871,-0.035505, 0.115511,1, 0.004514,-0.000170, 0.001277,1,-0.254555,-0.163935, 9.801975,1,1
1778779977937,  1013.560,  1013.555, 0.028324, 0.020182,-0.990303, 0.000289, 0.000196,-0.009927, 0.023751, 0.032373, 0.090401,1,-0.004951, 0.004572,-0.000043,1,-0.254152,-0.165702, 9.801955,1,1
1778779977962,  1013.580,  1013.580, 0.015752, 0.013649,-0.996713, 0.000180, 0.000149,-0.009946,-0.099850,-0.031495, 0.027544,1, 0.002310,-0.005228, 0.001310,1,-0.254161,-0.165270, 9.801963,1,1
1778779977984,  1013.605,  1013.600, 0.040769, 0.020351,-0.991754, 0.000403, 0.000192,-0.009938, 0.032896,-0.019904,-0.091366,1,-0.002120, 0.000134,-0.000716,1,-0.253366,-0.165616, 9.801977,1,1
1778779978007,  1013.630,  1013.625, 0.023099, 0.015555,-0.990923, 0.000242, 0.000165,-0.009880,-0.028007,-0.011853, 0.084329,1, 0.007579,-0.001823, 0.000509,1,-0.254475,-0.164163, 9.801973,1,1
1778779978033,  1013.650,  1013.650, 0.022463, 0.011441,-1.000218, 0.000198, 0.000104,-0.010009,-0.033572,-0.052173,-0.006806,1,-0.006818,-0.001267,-0.001543,1,-0.253823,-0.164585, 9.801983,1,1
1778779978054,  1013.675,  1013.670, 0.021467, 0.016617,-0.997921, 0.000217, 0.000178,-0.009967, 0.034972, 0.056994, 0.106351,1,-0.002259, 0.000444,-0.000185,1,-0.254090,-0.165675, 9.801958,1,1
1778779978077,  1013.700,  1013.695, 0.032072, 0.014455,-1.003074, 0.000306, 0.000138,-0.010058, 0.061148,-0.024231,-0.034826,1,-0.003126, 0.001079,-0.001663,1,-0.253407,-0.166084, 9.801969,1,1
1778779978103,  1013.720,  1013.720, 0.026318, 0.023354,-0.982994, 0.000289, 0.000249,-0.009837, 0.004100, 0.063449, 0.162086,1, 0.008010, 0.004269, 0.000417,1,-0.254126,-0.165329, 9.801963,1,1
1778779978124,  1013.740,  1013.740, 0.013389, 0.007912,-1.002078, 0.000134, 0.000076,-0.010013,-0.122342,-0.086921,-0.025039,1,-0.002005,-0.006955, 0.000788,1,-0.253425,-0.164575, 9.801993,1,1
1778779978147,  1013.770,  1013.765, 0.032374, 0.024690,-0.989784, 0.000343, 0.000246,-0.009896, 0.064003, 0.076203, 0.095507,1, 0.001416, 0.003597,-0.000285,1,-0.253533,-0.165853, 9.801970,1,1
1778779978173,  1013.790,  1013.790, 0.022958, 0.015697,-1.003666, 0.000222, 0.000152,-0.010023,-0.028150,-0.011550,-0.040621,1,-0.000074,-0.002476, 0.000399,1,-0.253210,-0.165488, 9.801984,1,1
1778779978194,  1013.815,  1013.810, 0.026749, 0.022078,-0.984543, 0.000277, 0.000226,-0.009828, 0.070863, 0.040812, 0.118375,1, 0.001360, 0.005034, 0.000284,1,-0.253776,-0.165731, 9.801965,1,1
1778779978217,  1013.840,  1013.840, 0.016639, 0.010763,-1.009449, 0.000143, 0.000103,-0.010085,-0.089979,-0.059071,-0.097317,1,-0.001862,-0.005787,-0.000077,1,-0.252974,-0.164679, 9.802003,1,1
1778779978243,  1013.860,  1013.860, 0.038020, 0.021054,-0.990756, 0.000374, 0.000201,-0.009935, 0.119535, 0.041164, 0.085988,1,-0.001309, 0.006538,-0.000648,1,-0.253514,-0.165343, 9.801978,1,1
1778779978264,  1013.885,  1013.880, 0.019422, 0.010106,-1.000145, 0.000194, 0.000104,-0.009999,-0.025136,-0.021796, 0.093870,1, 0.004863, 0.000027, 0.001204,1,-0.253963,-0.164422, 9.801982,1,1
1778779978291,  1013.910,  1013.910, 0.027688, 0.021468,-0.991754, 0.000290, 0.000206,-0.009938, 0.018020, 0.044910, 0.076193,1,-0.003922, 0.003039,-0.000330,1,-0.253598,-0.165738, 9.801970,1,1
1778779978313,  1013.935,  1013.930, 0.019337, 0.010819,-1.007434, 0.000185, 0.000106,-0.010064,-0.085764,-0.031236, 0.012989,1, 0.004890,-0.004118, 0.000788,1,-0.253588,-0.164897, 9.801984,1,1
1778779978335,  1013.955,  1013.950, 0.038398, 0.021516,-0.990322, 0.000388, 0.000202,-0.009913, 0.062082,-0.025606,-0.042093,1,-0.003311, 0.000625,-0.000491,1,-0.253044,-0.165389, 9.801990,1,1
1778779978361,  1013.980,  1013.980, 0.018005, 0.013111,-0.994593, 0.000186, 0.000138,-0.009918,-0.077416,-0.035758, 0.048360,1, 0.005555,-0.002386, 0.000532,1,-0.253915,-0.164161, 9.801988,1,1
1778779978383,  1014.005,  1014.000, 0.033738, 0.021746,-0.991111, 0.000324, 0.000205,-0.009923,-0.008257,-0.034337,-0.035494,1,-0.008976,-0.000001,-0.000402,1,-0.253318,-0.165234, 9.801985,1,1
1778779978405,  1014.025,  1014.020, 0.021939, 0.015277,-0.996068, 0.000225, 0.000165,-0.009949, 0.050639, 0.065547, 0.117835,1, 0.002649, 0.002817,-0.000038,1,-0.254114,-0.165681, 9.801957,1,1
1778779978431,  1014.050,  1014.050, 0.030478, 0.015849,-1.001360, 0.000295, 0.000153,-0.010045, 0.045406,-0.010025,-0.018009,1,-0.003783, 0.001454,-0.000202,1,-0.253530,-0.165568, 9.801974,1,1
1778779978453,  1014.075,  1014.070, 0.015532, 0.012600,-0.993955, 0.000171, 0.000137,-0.009922,-0.004499, 0.059776, 0.165774,1, 0.006300, 0.003200, 0.000694,1,-0.254386,-0.165019, 9.801961,1,1
1778779978475,  1014.095,  1014.090, 0.026020, 0.014768,-1.006230, 0.000253, 0.000140,-0.010081,-0.086560,-0.058397,-0.083716,1,-0.003067,-0.004978,-0.000100,1,-0.253560,-0.164689, 9.801988,1,1
1778779978502,  1014.120,  1014.120, 0.032058, 0.024524,-0.985808, 0.000342, 0.000252,-0.009852, 0.059822, 0.075777, 0.134487,1, 0.006838, 0.003402, 0.000587,1,-0.254664,-0.164510, 9.801963,1,1
1778779978523,  1014.145,  1014.140, 0.029174, 0.014411,-0.998780, 0.000274, 0.000134,-0.009994,-0.054030,-0.043346,-0.032063,1, 0.000781,-0.004064,-0.000224,1,-0.253993,-0.163709, 9.801993,1,1
1778779978545,  1014.165,  1014.160, 0.024888, 0.021035,-0.989954, 0.000254, 0.000215,-0.009880, 0.052797, 0.034004, 0.103532,1,-0.001288, 0.002695,-0.000862,1,-0.254255,-0.164222, 9.801978,1,1
1778779978572,  1014.190,  1014.190, 0.022326, 0.010677,-1.006386, 0.000201, 0.000099,-0.010066,-0.034789,-0.058844,-0.067270,1,-0.002428,-0.003181, 0.000005,1,-0.253636,-0.163627, 9.802004,1,1
1778779978593,  1014.215,  1014.210, 0.026413, 0.019927,-0.985290, 0.000286, 0.000213,-0.009851, 0.104956, 0.043667, 0.120019,1,-0.002254, 0.004939,-0.000080,1,-0.254104,-0.164472, 9.801977,1,1
1778779978615,  1014.235,  1014.230, 0.020363, 0.008708,-1.002923, 0.000196, 0.000089,-0.010035,-0.082431,-0.048776, 0.040925,1, 0.000778,-0.002436, 0.001674,1,-0.254111,-0.164090, 9.801984,1,1
1778779978642,  1014.260,  1014.260, 0.030754, 0.023510,-0.988695, 0.000315, 0.000232,-0.009905, 0.047799, 0.064464, 0.106170,1,-0.004036, 0.004495,-0.000467,1,-0.253938,-0.166218, 9.801952,1,1
1778779978663,  1014.285,  1014.280, 0.022748, 0.012397,-1.005773, 0.000219, 0.000117,-0.010056,-0.061767,-0.039386, 0.006854,1, 0.000136,-0.004495, 0.001382,1,-0.253836,-0.165947, 9.801960,1,1
1778779978685,  1014.305,  1014.300, 0.030670, 0.023779,-0.988236, 0.000310, 0.000234,-0.009882, 0.050421, 0.001693, 0.001249,1,-0.001863, 0.001219,-0.000790,1,-0.253472,-0.166367, 9.801962,1,1
1778779978712,  1014.330,  1014.330, 0.017690, 0.010863,-1.001245, 0.000175, 0.000110,-0.009989,-0.080122,-0.058748,-0.016879,1, 0.001251,-0.005271, 0.001187,1,-0.253434,-0.165241, 9.801982,1,1
1778779978733,  1014.355,  1014.350, 0.033002, 0.023625,-0.987161, 0.000324, 0.000232,-0.009872, 0.053031, 0.001440, 0.016815,1,-0.005022, 0.002976,-0.001925,1,-0.253302,-0.166036, 9.801972,1,1
1778779978755,  1014.375,  1014.375, 0.018797, 0.012905,-0.998677, 0.000183, 0.000133,-0.009975,-0.069282,-0.039181, 0.008295,1, 0.000240,-0.003536, 0.000249,1,-0.253506,-0.165727, 9.801971,1,1
1778779978782,  1014.400,  1014.400, 0.030428, 0.018017,-0.995925, 0.000301, 0.000170,-0.009987, 0.045258, 0.010408, 0.035286,1,-0.002777, 0.001517,-0.001217,1,-0.253186,-0.166363, 9.801970,1,1
1778779978804,  1014.425,  1014.420, 0.018569, 0.012137,-1.000175, 0.000187, 0.000126,-0.009993,-0.033147, 0.025916, 0.099730,1, 0.006648,-0.000435, 0.000937,1,-0.253622,-0.165528, 9.801972,1,1
1778779978826,  1014.445,  1014.445, 0.030831, 0.018154,-0.994782, 0.000309, 0.000165,-0.009968, 0.049428, 0.012621, 0.046511,1,-0.003404, 0.002460,-0.001138,1,-0.252999,-0.165516, 9.801989,1,1
1778779978852,  1014.470,  1014.470, 0.020151, 0.018555,-0.992836, 0.000211, 0.000207,-0.009904,-0.055933, 0.016701, 0.065584,1, 0.004937, 0.001379, 0.001278,1,-0.253592,-0.165104, 9.801980,1,1
1778779978874,  1014.495,  1014.490, 0.034484, 0.022214,-0.993988, 0.000333, 0.000202,-0.009949, 0.003188,-0.037023,-0.046778,1,-0.006106,-0.002006,-0.000684,1,-0.253223,-0.165504, 9.801983,1,1
1778779978896,  1014.515,  1014.515, 0.022920, 0.016655,-0.992176, 0.000234, 0.000185,-0.009896,-0.029149,-0.002119, 0.072044,1, 0.003307,-0.002333, 0.001163,1,-0.253848,-0.165344, 9.801970,1,1
1778779978922,  1014.540,  1014.540, 0.024334, 0.013686,-1.007236, 0.000220, 0.000125,-0.010087,-0.014348,-0.031817,-0.075629,1,-0.006705,-0.002210,-0.000797,1,-0.252911,-0.166239, 9.801979,1,1
1778779978944,  1014.565,  1014.560, 0.022696, 0.015620,-0.990206, 0.000243, 0.000177,-0.009889, 0.059400, 0.052429, 0.145851,1, 0.005061, 0.005493,-0.000228,1,-0.253809,-0.166249, 9.801955,1,1
1778779978967,  1014.585,  1014.585, 0.024373, 0.012418,-1.001392, 0.000231, 0.000123,-0.010034,-0.014306,-0.043815,-0.018323,1,-0.003655, 0.000660,-0.000377,1,-0.253340,-0.165705, 9.801976,1,1
1778779978992,  1014.610,  1014.610, 0.030242, 0.021484,-0.984602, 0.000322, 0.000215,-0.009846, 0.042737, 0.044495, 0.146303,1, 0.001339, 0.002058,-0.000368,1,-0.253897,-0.166151, 9.801954,1,1
1778779979014,  1014.635,  1014.630, 0.025833, 0.013051,-1.005487, 0.000250, 0.000123,-0.010061,-0.073925,-0.074912,-0.053099,1,-0.000381,-0.004068,-0.000117,1,-0.253340,-0.165716, 9.801976,1,1
1778779979037,  1014.655,  1014.655, 0.027942, 0.025630,-0.988134, 0.000291, 0.000259,-0.009873, 0.020193, 0.084789, 0.111661,1, 0.003063, 0.004465,-0.000203,1,-0.253968,-0.166457, 9.801948,1,1
1778779979062,  1014.680,  1014.680, 0.016880, 0.009830,-1.006487, 0.000154, 0.000094,-0.010041,-0.088055,-0.069575,-0.068298,1,-0.000336,-0.004914, 0.000363,1,-0.253439,-0.165982, 9.801970,1,1
1778779979084,  1014.705,  1014.700, 0.032331, 0.024596,-0.985856, 0.000331, 0.000246,-0.009859, 0.083662, 0.041481, 0.056415,1, 0.001221, 0.006432,-0.001315,1,-0.253915,-0.166118, 9.801954,1,1
1778779979107,  1014.730,  1014.725, 0.023027, 0.010261,-1.000634, 0.000222, 0.000115,-0.009999,-0.028611,-0.064134,-0.010908,1, 0.000565,-0.002016, 0.001060,1,-0.254365,-0.164737, 9.801967,1,1
1778779979132,  1014.750,  1014.750, 0.031274, 0.023132,-0.985946, 0.000318, 0.000224,-0.009884, 0.052081, 0.061616, 0.133122,1,-0.001352, 0.004574,-0.000535,1,-0.254757,-0.165274, 9.801948,1,1
1778779979154,  1014.775,  1014.770, 0.018685, 0.010375,-1.007700, 0.000181, 0.000105,-0.010072,-0.084945,-0.024028, 0.046798,1, 0.003393,-0.003359, 0.001189,1,-0.254671,-0.164650, 9.801960,1,1
1778779979177,  1014.800,  1014.795, 0.035813, 0.022138,-0.990577, 0.000366, 0.000210,-0.009927, 0.096872, 0.052137, 0.087723,1, 0.000201, 0.005129,-0.001001,1,-0.254491,-0.164955, 9.801959,1,1
1778779979202,  1014.820,  1014.820, 0.020335, 0.013034,-0.993430, 0.000216, 0.000145,-0.009910,-0.055414,-0.036293, 0.059746,1, 0.004298,-0.002759, 0.001230,1,-0.254748,-0.163980, 9.801970,1,1
1778779979224,  1014.845,  1014.840, 0.028420, 0.023335,-0.992314, 0.000275, 0.000217,-0.009925,-0.018079,-0.031407,-0.029715,1,-0.007493,-0.001797,-0.000973,1,-0.254113,-0.164775, 9.801972,1,1
1778779979247,  1014.870,  1014.865, 0.020238, 0.015227,-1.002244, 0.000206, 0.000159,-0.010003,-0.055839,-0.015607,-0.026697,1, 0.001223,-0.003546, 0.000883,1,-0.254191,-0.164890, 9.801969,1,1
1778779979273,  1014.890,  1014.890, 0.033324, 0.016212,-1.001991, 0.000308, 0.000155,-0.010041, 0.072657,-0.005843,-0.024205,1,-0.000273, 0.004439,-0.000805,1,-0.254281,-0.164840, 9.801967,1,1
1778779979294,  1014.915,  1014.910, 0.016854, 0.011057,-0.991230, 0.000181, 0.000122,-0.009901, 0.008024, 0.042642, 0.170356,1, 0.007881, 0.004241, 0.000806,1,-0.255362,-0.163878, 9.801955,1,1
1778779979317,  1014.940,  1014.935, 0.025166, 0.011512,-0.998492, 0.000239, 0.000110,-0.010011,-0.007877,-0.050681, 0.010118,1,-0.006898,-0.000897,-0.001012,1,-0.254641,-0.163787, 9.801975,1,1
1778779979343,  1014.960,  1014.960, 0.029219, 0.021044,-0.989894, 0.000319, 0.000220,-0.009896, 0.031540, 0.041997, 0.094408,1, 0.000443, 0.000844, 0.000557,1,-0.255026,-0.164359, 9.801955,1,1
1778779979364,  1014.985,  1014.980, 0.031150, 0.014724,-1.000264, 0.000301, 0.000143,-0.010015,-0.043450,-0.041362,-0.055521,1,-0.001274,-0.001881, 0.000284,1,-0.254602,-0.164243, 9.801969,1,1
1778779979387,  1015.010,  1015.005, 0.025841, 0.021664,-0.986586, 0.000272, 0.000226,-0.009851,-0.001938, 0.048077, 0.126840,1, 0.006617, 0.003011, 0.000799,1,-0.255449,-0.164164, 9.801948,1,1
1778779979413,  1015.030,  1015.030, 0.019508, 0.009990,-1.005122, 0.000177, 0.000087,-0.010037,-0.063700,-0.065749,-0.054919,1,-0.003287,-0.005425, 0.000086,1,-0.254841,-0.163818, 9.801970,1,1
1778779979434,  1015.055,  1015.050, 0.031547, 0.022263,-0.986622, 0.000327, 0.000235,-0.009861, 0.105691, 0.057309, 0.084723,1,-0.002737, 0.003129,-0.001181,1,-0.254964,-0.164924, 9.801948,1,1
1778779979457,  1015.080,  1015.080, 0.020176, 0.009770,-1.004226, 0.000191, 0.000091,-0.010043,-0.056777,-0.068215,-0.046121,1,-0.000960,-0.004776,-0.000909,1,-0.254488,-0.164057, 9.801974,1,1
1778779979483,  1015.100,  1015.100, 0.031844, 0.020199,-0.988825, 0.000325, 0.000196,-0.009913, 0.057611, 0.033623, 0.104906,1, 0.000612, 0.004579,-0.000685,1,-0.254812,-0.164441, 9.801960,1,1
1778779979504,  1015.125,  1015.120, 0.019325, 0.009851,-1.006544, 0.000193, 0.000091,-0.010066,-0.096593,-0.053522, 0.034144,1, 0.001139,-0.002355, 0.000460,1,-0.254872,-0.163784, 9.801970,1,1
1778779979531,  1015.150,  1015.150, 0.035529, 0.024472,-0.987522, 0.000363, 0.000242,-0.009887, 0.093474, 0.074851, 0.117658,1,-0.001942, 0.005971,-0.001125,1,-0.255127,-0.165200, 9.801939,1,1
1778779979553,  1015.175,  1015.170, 0.019006, 0.012330,-1.007484, 0.000175, 0.000116,-0.010061,-0.090923,-0.031798, 0.027695,1, 0.002601,-0.004143, 0.000999,1,-0.255246,-0.164417, 9.801949,1,1
1778779979574,  1015.195,  1015.190, 0.034477, 0.024541,-0.989959, 0.000339, 0.000233,-0.009905, 0.036277, 0.004324,-0.038073,1,-0.006356,-0.000568,-0.000868,1,-0.254566,-0.165386, 9.801950,1,1
1778779979601,  1015.220,  1015.220, 0.018050, 0.013271,-0.998508, 0.000180, 0.000140,-0.009960,-0.077987,-0.034451, 0.009937,1, 0.005448,-0.004411, 0.000999,1,-0.254858,-0.164420, 9.801959,1,1
1778779979623,  1015.245,  1015.240, 0.034291, 0.023238,-0.986715, 0.000338, 0.000222,-0.009885,-0.069004,-0.044015,-0.084027,1, 0.000079,-0.004959,-0.000008,1,-0.254298,-0.164317, 9.801975,1,1
1778779979645,  1015.265,  1015.260, 0.017611, 0.014028,-0.996031, 0.000191, 0.000149,-0.009952, 0.015870, 0.055655, 0.139714,1, 0.005495, 0.002512, 0.000952,1,-0.254987,-0.164451, 9.801955,1,1
1778779979672,  1015.290,  1015.290, 0.028507, 0.016360,-0.998758, 0.000281, 0.000158,-0.010016, 0.025217,-0.003955, 0.007499,1,-0.004988, 0.001858,-0.000789,1,-0.254400,-0.164549, 9.801969,1,1
1778779979693,  1015.315,  1015.310, 0.017289, 0.011674,-0.996725, 0.000184, 0.000124,-0.009947, 0.018137, 0.039101, 0.128710,1, 0.005074, 0.001863, 0.000916,1,-0.255192,-0.164208, 9.801953,1,1
1778779979715,  1015.335,  1015.330, 0.029739, 0.013693,-0.998924, 0.000285, 0.000127,-0.010004,-0.061703,-0.056825,-0.061744,1,-0.001888,-0.002921, 0.000046,1,-0.254549,-0.164058, 9.801973,1,1
1778779979742,  1015.360,  1015.360, 0.028914, 0.020630,-0.988868, 0.000300, 0.000211,-0.009869, 0.028325, 0.037622, 0.104466,1, 0.002452, 0.001127,-0.000418,1,-0.255260,-0.164614, 9.801945,1,1
1778779979763,  1015.385,  1015.380, 0.032168, 0.015527,-0.999213, 0.000298, 0.000147,-0.010001,-0.042260,-0.038806,-0.045223,1,-0.003446,-0.002768,-0.000121,1,-0.254570,-0.164918, 9.801958,1,1
1778779979785,  1015.405,  1015.400, 0.027773, 0.020226,-0.991959, 0.000283, 0.000210,-0.009909, 0.080273, 0.030834, 0.081021,1,-0.003071, 0.002995,-0.000425,1,-0.254811,-0.165958, 9.801934,1,1
1778779979812,  1015.430,  1015.430, 0.020654, 0.010683,-1.003230, 0.000193, 0.000106,-0.010041,-0.052069,-0.060274,-0.036368,1, 0.000185,-0.001489, 0.000150,1,-0.254570,-0.165034, 9.801956,1,1
1778779979833,  1015.455,  1015.450, 0.024806, 0.021855,-0.985549, 0.000274, 0.000232,-0.009856, 0.071542, 0.050038, 0.113012,1,-0.000083, 0.003110,-0.000138,1,-0.254835,-0.165490, 9.801942,1,1
1778779979855,  1015.475,  1015.470, 0.018506, 0.008887,-1.005442, 0.000177, 0.000086,-0.010046,-0.087917,-0.047787, 0.046510,1, 0.002361,-0.002293, 0.000511,1,-0.254979,-0.164821, 9.801949,1,1
1778779979882,  1015.500,  1015.500, 0.034663, 0.024873,-0.993592, 0.000349, 0.000239,-0.009946, 0.024804,-0.010247,-0.043749,1,-0.005292,-0.002429,-0.001954,1,-0.254071,-0.165805, 9.801956,1,1
1778779979903,  1015.525,  1015.520, 0.018735, 0.009413,-1.004998, 0.000166, 0.000089,-0.010032,-0.085859,-0.035435, 0.057973,1, 0.007416,-0.003044, 0.000925,1,-0.254683,-0.164300, 9.801966,1,1
1778779979925,  1015.545,  1015.540, 0.036494, 0.023529,-0.990708, 0.000361, 0.000222,-0.009922, 0.036374,-0.013363,-0.036078,1,-0.004324,-0.000326,-0.001190,1,-0.253969,-0.164579, 9.801979,1,1
1778779979952,  1015.570,  1015.570, 0.016764, 0.014418,-0.993285, 0.000175, 0.000156,-0.009911,-0.090232,-0.022285, 0.061180,1, 0.005335,-0.003026, 0.000819,1,-0.254544,-0.163503, 9.801982,1,1
1778779979973,  1015.595,  1015.590, 0.037097, 0.023703,-0.987961, 0.000380, 0.000214,-0.009917, 0.019024,-0.010123,-0.047690,1,-0.007027, 0.000002,-0.001039,1,-0.253714,-0.164432, 9.801989,1,1
1778779979995,  1015.615,  1015.615, 0.018494, 0.015277,-0.992462, 0.000200, 0.000166,-0.009902,-0.073601,-0.013893, 0.069237,1, 0.008291,-0.000620, 0.001400,1,-0.254946,-0.163451, 9.801972,1,1
1778779980022,  1015.640,  1015.640, 0.022656, 0.010753,-1.004506, 0.000218, 0.000101,-0.010060,-0.032096,-0.058382,-0.048860,1,-0.007474,-0.001790,-0.000103,1,-0.254224,-0.164069, 9.801981,1,1
1778779980044,  1015.665,  1015.660, 0.022410, 0.017801,-0.992569, 0.000236, 0.000190,-0.009898, 0.087208, 0.068789, 0.133880,1, 0.000053, 0.003137,-0.000048,1,-0.255098,-0.164927, 9.801944,1,1
1778779980066,  1015.685,  1015.685, 0.026280, 0.011240,-1.006332, 0.000244, 0.000100,-0.010062, 0.003524,-0.055106,-0.066788,1,-0.007409,-0.003076,-0.000505,1,-0.254100,-0.165568, 9.801959,1,1
1778779980092,  1015.710,  1015.710, 0.030923, 0.024489,-0.987594, 0.000311, 0.000249,-0.009879, 0.048537, 0.074389, 0.116950,1, 0.005168, 0.005689, 0.000034,1,-0.254893,-0.165600, 9.801938,1,1
1778779980114,  1015.735,  1015.730, 0.025566, 0.011294,-1.005585, 0.000242, 0.000104,-0.010074,-0.079307,-0.069765,-0.020049,1,-0.002067,-0.005469, 0.000589,1,-0.254496,-0.164983, 9.801959,1,1
1778779980136,  1015.755,  1015.755, 0.029144, 0.024221,-0.984001, 0.000312, 0.000250,-0.009850, 0.031074, 0.071668, 0.152186,1, 0.005438, 0.005383,-0.000799,1,-0.254897,-0.165687, 9.801936,1,1
1778779980162,  1015.780,  1015.780, 0.016137, 0.009901,-1.003870, 0.000170, 0.000096,-0.010024,-0.096002,-0.068154,-0.042641,1,-0.004090,-0.008484, 0.000215,1,-0.253989,-0.165371, 9.801966,1,1
1778779980184,  1015.805,  1015.800, 0.030555, 0.023895,-0.984932, 0.000323, 0.000244,-0.009849, 0.080126, 0.036035, 0.038809,1, 0.000504, 0.004348,-0.001216,1,-0.253880,-0.166231, 9.801953,1,1
1778779980206,  1015.825,  1015.825, 0.018289, 0.009840,-1.005219, 0.000170, 0.000098,-0.010024,-0.074489,-0.068192,-0.055848,1,-0.001042,-0.007300, 0.000134,1,-0.253612,-0.164721, 9.801986,1,1
1778779980232,  1015.850,  1015.850, 0.034852, 0.023918,-0.992846, 0.000339, 0.000223,-0.009946, 0.088143, 0.069160, 0.065476,1, 0.000912, 0.006108,-0.000594,1,-0.253828,-0.165366, 9.801970,1,1
1778779980254,  1015.875,  1015.870, 0.017784, 0.009652,-1.006203, 0.000162, 0.000093,-0.010039,-0.062713,-0.020833, 0.113412,1, 0.005269,-0.003110, 0.001589,1,-0.254255,-0.164002, 9.801982,1,1
1778779980277,  1015.895,  1015.895, 0.034051, 0.021838,-0.993239, 0.000338, 0.000210,-0.009970, 0.080634, 0.049301, 0.061647,1,-0.000057, 0.007578,-0.001158,1,-0.253529,-0.164858, 9.801986,1,1
1778779980302,  1015.920,  1015.920, 0.019419, 0.015339,-0.988221, 0.000223, 0.000172,-0.009873,-0.063677,-0.013586, 0.110849,1, 0.003995,-0.003251, 0.001272,1,-0.254013,-0.163880, 9.801990,1,1
1778779980324,  1015.945,  1015.940, 0.030069, 0.016816,-0.991991, 0.000303, 0.000161,-0.009944,-0.034565,-0.047050,-0.041961,1,-0.007226,-0.000998,-0.000330,1,-0.253031,-0.164846, 9.801999,1,1
1778779980347,  1015.970,  1015.965, 0.021250, 0.017616,-0.996470, 0.000236, 0.000188,-0.009948,-0.045220, 0.007779, 0.029949,1, 0.003167,-0.002026, 0.000137,1,-0.253516,-0.164883, 9.801986,1,1
1778779980372,  1015.990,  1015.990, 0.018296, 0.013560,-1.005991, 0.000181, 0.000141,-0.010051, 0.028763,-0.038965,-0.031695,1,-0.002776, 0.001836,-0.000735,1,-0.253547,-0.164982, 9.801984,1,1
1778779980394,  1016.015,  1016.010, 0.022536, 0.014738,-0.992409, 0.000224, 0.000162,-0.009896, 0.040522, 0.050571, 0.133298,1, 0.005148, 0.004168,-0.000283,1,-0.254547,-0.164827, 9.801960,1,1
1778779980417,  1016.040,  1016.035, 0.031173, 0.012212,-1.004298, 0.000295, 0.000106,-0.010054, 0.051413,-0.045074,-0.046830,1,-0.008591,-0.001370,-0.000606,1,-0.254246,-0.165100, 9.801964,1,1
1778779980442,  1016.060,  1016.060, 0.030344, 0.023488,-0.983285, 0.000313, 0.000245,-0.009836, 0.042395, 0.065095, 0.159204,1, 0.003983, 0.006257, 0.000352,1,-0.255369,-0.165120, 9.801934,1,1
1778779980464,  1016.085,  1016.080, 0.027524, 0.014041,-1.003603, 0.000262, 0.000126,-0.010052,-0.083204,-0.074339,-0.041548,1,-0.004889,-0.007162, 0.000329,1,-0.254294,-0.165207, 9.801960,1,1
1778779980487,  1016.110,  1016.105, 0.026722, 0.024788,-0.984934, 0.000297, 0.000263,-0.009858, 0.007534, 0.077801, 0.143048,1, 0.007812, 0.002243,-0.000237,1,-0.254589,-0.165042, 9.801955,1,1
1778779980513,  1016.130,  1016.130, 0.017062, 0.009736,-1.004710, 0.000166, 0.000102,-0.010037,-0.086461,-0.068830,-0.050853,1,-0.001098,-0.006328, 0.000021,1,-0.253582,-0.164344, 9.801993,1,1
1778779980534,  1016.155,  1016.150, 0.024514, 0.023634,-0.986943, 0.000266, 0.000250,-0.009860, 0.046084, 0.080972, 0.073124,1, 0.001279, 0.003333,-0.002149,1,-0.253538,-0.164969, 9.801984,1,1
1778779980557,  1016.180,  1016.175, 0.017572, 0.008958,-1.010045, 0.000163, 0.000085,-0.010082,-0.081043,-0.075539,-0.103147,1,-0.001218,-0.007360,-0.000539,1,-0.253134,-0.163430, 9.802020,1,1
1778779980583,  1016.200,  1016.200, 0.038140, 0.022438,-0.990776, 0.000369, 0.000212,-0.009921, 0.120258, 0.056191, 0.085804,1, 0.001496, 0.009188,-0.001376,1,-0.254051,-0.163808, 9.801991,1,1
1778779980604,  1016.225,  1016.220, 0.017802, 0.009733,-1.001318, 0.000169, 0.000097,-0.010011,-0.045906,-0.028603, 0.078140,1, 0.001968,-0.001583, 0.001290,1,-0.254678,-0.163175, 9.801985,1,1
1778779980627,  1016.250,  1016.245, 0.030875, 0.019988,-0.990005, 0.000304, 0.000195,-0.009917, 0.048327, 0.031133, 0.093328,1,-0.006569, 0.004250, 0.000023,1,-0.254587,-0.165092, 9.801954,1,1
1778779980653,  1016.270,  1016.270, 0.022308, 0.015686,-0.999646, 0.000232, 0.000168,-0.009992,-0.035832,-0.011455,-0.001231,1, 0.000961,-0.001678, 0.001369,1,-0.254549,-0.165249, 9.801953,1,1
1778779980674,  1016.295,  1016.290, 0.031236, 0.023033,-0.986122, 0.000329, 0.000228,-0.009874, 0.060168,-0.011143, 0.026137,1,-0.003520, 0.002258,-0.001172,1,-0.254536,-0.165626, 9.801947,1,1
1778779980697,  1016.320,  1016.320, 0.015415, 0.011151,-0.998099, 0.000166, 0.000124,-0.009959,-0.103669,-0.055620, 0.013946,1, 0.002481,-0.004811, 0.000495,1,-0.254690,-0.164894, 9.801955,1,1
1778779980723,  1016.340,  1016.340, 0.027305, 0.015033,-1.005483, 0.000264, 0.000136,-0.010062, 0.013828,-0.018555,-0.058462,1,-0.007641,-0.001243,-0.001642,1,-0.253907,-0.166216, 9.801953,1,1
1778779980744,  1016.365,  1016.360, 0.022900, 0.013438,-0.996799, 0.000226, 0.000139,-0.009945, 0.034368, 0.042468, 0.089081,1, 0.006975, 0.002982,-0.000066,1,-0.254802,-0.165715, 9.801938,1,1
1778779980771,  1016.390,  1016.390, 0.032000, 0.016945,-0.995376, 0.000306, 0.000155,-0.009969, 0.059446, 0.000615, 0.040648,1,-0.003569, 0.002104,-0.001134,1,-0.254435,-0.165676, 9.801949,1,1
1778779980793,  1016.415,  1016.410, 0.015328, 0.013307,-1.001483, 0.000152, 0.000142,-0.009998,-0.049367, 0.050871, 0.119853,1, 0.005289, 0.000399, 0.000008,1,-0.254802,-0.165123, 9.801949,1,1
1778779980815,  1016.435,  1016.430, 0.033110, 0.019786,-1.000138, 0.000319, 0.000189,-0.010031,-0.060024,-0.039484,-0.097942,1,-0.003186,-0.004020,-0.000270,1,-0.253692,-0.164987, 9.801980,1,1
1778779980841,  1016.460,  1016.460, 0.026969, 0.022454,-0.984153, 0.000300, 0.000248,-0.009840, 0.009592, 0.056794, 0.150730,1, 0.013178, 0.002583, 0.001684,1,-0.254964,-0.162996, 9.801980,1,1
1778779980863,  1016.485,  1016.480, 0.026715, 0.014819,-0.998815, 0.000264, 0.000134,-0.010006,-0.071751,-0.085240,-0.041154,1,-0.000486,-0.003792, 0.000405,1,-0.254299,-0.162109, 9.802011,1,1
1778779980885,  1016.505,  1016.500, 0.024874, 0.019142,-0.990131, 0.000263, 0.000207,-0.009883, 0.032678, 0.052401, 0.099273,1, 0.000650, 0.004795, 0.000581,1,-0.254822,-0.162536, 9.801991,1,1
1778779980912,  1016.530,  1016.530, 0.025720, 0.009139,-1.007744, 0.000242, 0.000083,-0.010069,-0.002150,-0.072580,-0.080583,1,-0.006171,-0.004124, 0.000653,1,-0.254252,-0.162399, 9.802009,1,1
1778779980933,  1016.555,  1016.550, 0.022506, 0.016129,-0.990481, 0.000235, 0.000178,-0.009882, 0.068633, 0.058426, 0.112882,1, 0.001429, 0.005761,-0.000198,1,-0.255030,-0.162899, 9.801980,1,1
1778779980955,  1016.575,  1016.570, 0.023106, 0.010893,-1.006864, 0.000207, 0.000102,-0.010071,-0.085097,-0.061719,-0.019310,1,-0.004094,-0.002637, 0.000949,1,-0.255088,-0.162902, 9.801978,1,1
1778779980982,  1016.600,  1016.600, 0.031747, 0.023072,-0.984575, 0.000328, 0.000231,-0.009854, 0.055658, 0.060941, 0.146537,1,-0.001224, 0.007673, 0.000683,1,-0.255909,-0.165352, 9.801916,1,1
1778779981003,  1016.625,  1016.620, 0.033105, 0.015241,-1.004663, 0.000372, 0.000143,-0.010082, 0.132105,-0.058400,-0.051582,1,-0.003899,-0.003753,-0.000557,1,-0.256021,-0.165265, 9.801914,1,1
1778779981025,  1016.645,  1016.640, 0.039431, 0.017144,-0.968456, 0.000392, 0.000173,-0.009675, 0.053222, 0.032083, 0.161877,1, 0.008083, 0.016516,-0.000830,1,-0.257026,-0.165233, 9.801888,1,1
1778779981052,  1016.670,  1016.670, 0.017785, 0.017219,-1.015307, 0.000174, 0.000159,-0.010131, 0.057570,-0.042520, 0.076841,1,-0.012382,-0.018065, 0.000788,1,-0.256724,-0.165462, 9.801892,1,1
1778779981073,  1016.695,  1016.690, 0.030881, 0.022550,-0.989930, 0.000329, 0.000207,-0.009861, 0.093473,-0.026766, 0.110843,1, 0.003825, 0.007689,-0.002482,1,-0.257153,-0.166367, 9.801867,1,1
1778779981095,  1016.715,  1016.710, 0.010857, 0.018934,-1.009142, 0.000082, 0.000203,-0.010107,-0.138853, 0.099238,-0.093168,1,-0.004050,-0.015728, 0.001176,1,-0.254431,-0.167683, 9.801914,1,1
1778779981122,  1016.740,  1016.740, 0.022055, 0.010353,-0.991408, 0.000217, 0.000086,-0.009897,-0.037975,-0.063758, 0.079570,1,-0.000999,-0.010725,-0.001894,1,-0.253925,-0.165321, 9.801968,1,1
1778779981143,  1016.765,  1016.760, 0.019636, 0.011440,-0.990951, 0.000190, 0.000115,-0.009934,-0.113921, 0.026395, 0.006880,1, 0.007427, 0.002463, 0.000649,1,-0.252903,-0.165047, 9.801999,1,1
1778779981165,  1016.785,  1016.780, 0.026498, 0.021651,-0.993621, 0.000294, 0.000207,-0.009951, 0.025427,-0.038336, 0.090351,1,-0.010942,-0.004078,-0.001145,1,-0.252949,-0.165439, 9.801991,1,1
1778779981192,  1016.810,  1016.810, 0.012824, 0.018367,-0.987686, 0.000135, 0.000212,-0.009873,-0.127584, 0.013868, 0.116075,1, 0.008763, 0.005688, 0.001295,1,-0.253520,-0.165974, 9.801968,1,1
1778779981213,  1016.835,  1016.830, 0.032780, 0.024397,-1.006760, 0.000328, 0.000230,-0.010093,-0.030425,-0.019723,-0.130824,1,-0.007799,-0.005862,-0.000840,1,-0.252324,-0.166714, 9.801986,1,1
1778779981235,  1016.855,  1016.855, 0.030244, 0.014535,-0.984769, 0.000313, 0.000172,-0.009829, 0.041495,-0.021560, 0.144677,1, 0.013831, 0.006596, 0.001620,1,-0.255305,-0.163669, 9.801960,1,1
1778779981262,  1016.880,  1016.880, 0.024167, 0.011508,-1.002973, 0.000223, 0.000105,-0.010025,-0.017920,-0.050915,-0.033833,1,-0.004680, 0.001005, 0.000279,1,-0.254953,-0.163918, 9.801965,1,1
1778779981284,  1016.905,  1016.900, 0.020988, 0.013164,-0.992471, 0.000208, 0.000142,-0.009891, 0.017976, 0.023895, 0.164336,1,-0.001352, 0.005162, 0.000948,1,-0.256528,-0.164299, 9.801917,1,1
1778779981306,  1016.925,  1016.925, 0.028784, 0.012153,-1.008510, 0.000266, 0.000114,-0.010106, 0.027151,-0.046789,-0.088180,1,-0.009337,-0.000541,-0.000516,1,-0.255105,-0.166263, 9.801921,1,1
1778779981332,  1016.950,  1016.950, 0.030419, 0.021538,-0.981732, 0.000316, 0.000227,-0.009819, 0.042501, 0.044288, 0.174385,1,-0.000079, 0.002466,-0.000091,1,-0.255882,-0.166931, 9.801889,1,1
1778779981354,  1016.975,  1016.970, 0.015953, 0.009627,-1.006843, 0.000151, 0.000091,-0.010092,-0.158351,-0.070853,-0.060626,1,-0.001567,-0.006812, 0.000290,1,-0.254391,-0.166941, 9.801929,1,1
1778779981376,  1016.995,  1016.995, 0.029844, 0.018813,-0.989608, 0.000316, 0.000191,-0.009898, 0.038075, 0.017180, 0.097173,1, 0.003370, 0.002778,-0.000874,1,-0.254680,-0.167212, 9.801916,1,1
1778779981402,  1017.020,  1017.020, 0.025937, 0.015247,-1.001789, 0.000256, 0.000157,-0.010009,-0.000122,-0.017107,-0.022264,1, 0.001807,-0.001406, 0.000102,1,-0.254432,-0.166572, 9.801933,1,1
1778779981424,  1017.045,  1017.040, 0.023658, 0.022321,-0.984805, 0.000256, 0.000226,-0.009828, 0.074274, 0.039802, 0.139131,1, 0.002796, 0.001573,-0.000618,1,-0.254703,-0.166228, 9.801932,1,1
1778779981446,  1017.065,  1017.065, 0.018731, 0.011082,-1.010675, 0.000162, 0.000108,-0.010091,-0.070036,-0.055712,-0.109347,1, 0.002533,-0.005970,-0.000522,1,-0.253541,-0.164306, 9.801995,1,1
1778779981472,  1017.090,  1017.090, 0.039200, 0.026140,-0.993806, 0.000382, 0.000246,-0.009959, 0.130863, 0.091841, 0.056084,1, 0.001740, 0.005134,-0.001859,1,-0.253713,-0.164450, 9.801988,1,1
1778779981494,  1017.115,  1017.110, 0.017648, 0.011125,-0.999424, 0.000170, 0.000109,-0.009986,-0.040813,-0.022301, 0.123222,1, 0.005469, 0.000445, 0.000994,1,-0.254492,-0.163131, 9.801990,1,1
1778779981517,  1017.135,  1017.135, 0.026544, 0.021746,-0.991962, 0.000269, 0.000202,-0.009947, 0.006307, 0.048106, 0.074147,1,-0.006021, 0.005928,-0.000960,1,-0.254184,-0.165340, 9.801961,1,1
1778779981542,  1017.160,  1017.160, 0.016049, 0.013719,-0.997693, 0.000179, 0.000153,-0.009962,-0.097165,-0.030440, 0.017926,1, 0.000671,-0.003392, 0.000353,1,-0.254445,-0.164959, 9.801961,1,1
1778779981564,  1017.185,  1017.180, 0.036184, 0.025614,-0.989844, 0.000362, 0.000250,-0.009911, 0.062226, 0.008745,-0.052714,1,-0.007177, 0.001488,-0.001633,1,-0.253722,-0.166146, 9.801959,1,1
1778779981587,  1017.210,  1017.205, 0.016119, 0.014773,-0.995559, 0.000174, 0.000151,-0.009923,-0.096785,-0.020106, 0.038849,1, 0.006851,-0.004496, 0.000560,1,-0.254722,-0.164769, 9.801956,1,1
1778779981612,  1017.230,  1017.230, 0.026491, 0.013251,-1.003780, 0.000238, 0.000117,-0.010055, 0.005666,-0.034839,-0.041753,1,-0.003322, 0.001600,-0.000998,1,-0.254169,-0.164889, 9.801969,1,1
1778779981634,  1017.255,  1017.250, 0.024232, 0.014871,-0.994002, 0.000244, 0.000154,-0.009918, 0.048178, 0.036921, 0.164207,1, 0.001504, 0.004029, 0.000390,1,-0.255248,-0.164954, 9.801940,1,1
1778779981657,  1017.280,  1017.275, 0.029404, 0.015344,-0.997746, 0.000288, 0.000142,-0.010005, 0.033862,-0.015293, 0.017401,1,-0.004508, 0.002033,-0.000597,1,-0.254559,-0.165908, 9.801942,1,1
1778779981683,  1017.300,  1017.300, 0.024197, 0.017258,-0.984417, 0.000263, 0.000186,-0.009839,-0.017901, 0.003706, 0.148100,1, 0.004464, 0.000509, 0.000683,1,-0.255209,-0.165397, 9.801933,1,1
1778779981704,  1017.325,  1017.320, 0.031422, 0.013901,-0.999063, 0.000313, 0.000133,-0.010022,-0.049315,-0.043752,-0.073115,1,-0.003872,-0.004064, 0.000043,1,-0.254295,-0.165469, 9.801956,1,1
1778779981727,  1017.350,  1017.345, 0.027659, 0.019073,-0.986420, 0.000303, 0.000202,-0.009853, 0.016053, 0.021226, 0.128447,1, 0.005003, 0.000927, 0.000476,1,-0.255216,-0.165657, 9.801929,1,1
1778779981753,  1017.370,  1017.370, 0.020582, 0.012598,-1.006420, 0.000194, 0.000123,-0.010059,-0.052729,-0.041655,-0.067653,1,-0.000737,-0.004446, 0.000553,1,-0.254460,-0.165200, 9.801956,1,1
1778779981774,  1017.395,  1017.390, 0.027336, 0.019463,-0.991641, 0.000283, 0.000198,-0.009897, 0.074818, 0.038675, 0.083698,1, 0.002284, 0.004184,-0.000653,1,-0.254981,-0.165272, 9.801941,1,1
1778779981797,  1017.420,  1017.415, 0.024624, 0.013264,-1.007996, 0.000222, 0.000132,-0.010081,-0.013027,-0.034526,-0.083096,1,-0.003251,-0.001736,-0.000469,1,-0.254449,-0.164706, 9.801965,1,1
1778779981823,  1017.440,  1017.440, 0.033811, 0.023039,-0.988131, 0.000334, 0.000227,-0.009885, 0.076594, 0.060724, 0.111685,1, 0.000434, 0.004211,-0.000661,1,-0.255113,-0.165197, 9.801939,1,1
1778779981844,  1017.465,  1017.460, 0.021498, 0.012924,-1.004023, 0.000198, 0.000130,-0.010052,-0.087101,-0.023772, 0.008220,1, 0.001546,-0.003295,-0.000215,1,-0.254947,-0.164724, 9.801951,1,1
1778779981867,  1017.490,  1017.485, 0.033522, 0.024821,-0.986132, 0.000343, 0.000251,-0.009874, 0.073742, 0.078266, 0.131291,1, 0.002054, 0.004250,-0.000795,1,-0.255125,-0.165077, 9.801941,1,1
1778779981893,  1017.510,  1017.510, 0.018902, 0.015317,-0.995858, 0.000197, 0.000159,-0.009945,-0.069731,-0.013899, 0.035928,1, 0.004132,-0.003747, 0.000150,1,-0.254980,-0.163978, 9.801963,1,1
1778779981914,  1017.535,  1017.530, 0.031916, 0.022967,-0.990075, 0.000325, 0.000231,-0.009897, 0.040457, 0.007082, 0.028697,1,-0.004377,-0.000433,-0.000697,1,-0.254379,-0.164565, 9.801969,1,1
1778779981937,  1017.560,  1017.560, 0.015698, 0.011716,-1.000960, 0.000151, 0.000115,-0.009985,-0.100664,-0.048438,-0.014077,1, 0.003458,-0.004618, 0.000710,1,-0.254469,-0.163223, 9.801989,1,1
1778779981963,  1017.580,  1017.580, 0.034143, 0.015717,-0.997045, 0.000325, 0.000139,-0.009987, 0.080673,-0.010180, 0.024311,1,-0.007337, 0.003431,-0.000002,1,-0.254262,-0.164536, 9.801972,1,1
1778779981984,  1017.605,  1017.600, 0.016963, 0.011730,-0.999579, 0.000167, 0.000117,-0.009981,-0.005951, 0.006036, 0.119325,1, 0.004250, 0.002451, 0.001411,1,-0.255199,-0.164309, 9.801951,1,1
1778779982011,  1017.630,  1017.630, 0.030073, 0.017110,-0.998289, 0.000294, 0.000155,-0.010015, 0.040102, 0.002529, 0.012075,1,-0.007324, 0.004018, 0.000063,1,-0.254942,-0.165490, 9.801939,1,1
1778779982033,  1017.655,  1017.650, 0.017018, 0.010814,-1.002666, 0.000175, 0.000110,-0.010011,-0.022579, 0.010981, 0.106434,1, 0.005980, 0.001546, 0.000833,1,-0.255953,-0.165038, 9.801920,1,1
1778779982054,  1017.675,  1017.670, 0.032919, 0.016508,-0.998326, 0.000333, 0.000149,-0.010012,-0.014769,-0.054090,-0.109175,1,-0.002883,-0.003590,-0.000862,1,-0.255170,-0.164866, 9.801943,1,1
1778779982081,  1017.700,  1017.700, 0.024264, 0.017070,-0.986803, 0.000269, 0.000188,-0.009847,-0.018083, 0.003149, 0.124694,1, 0.007197,-0.000847, 0.000408,1,-0.256006,-0.164027, 9.801935,1,1
1778779982103,  1017.725,  1017.720, 0.030392, 0.015762,-0.995728, 0.000294, 0.000143,-0.009974,-0.044296,-0.052788,-0.057156,1,-0.006371,-0.004704,-0.000347,1,-0.254988,-0.164403, 9.801956,1,1
1778779982125,  1017.745,  1017.740, 0.024896, 0.019809,-0.991098, 0.000254, 0.000206,-0.009884, 0.068693, 0.063254, 0.123324,1, 0.000589, 0.003160,-0.001370,1,-0.255431,-0.165225, 9.801930,1,1
1778779982152,  1017.770,  1017.770, 0.027542, 0.014294,-1.005165, 0.000250, 0.000140,-0.010063, 0.015396,-0.024354,-0.055339,1,-0.002715,-0.001715,-0.001128,1,-0.254656,-0.164588, 9.801961,1,1
1778779982173,  1017.795,  1017.790, 0.021568, 0.016606,-0.985648, 0.000234, 0.000188,-0.009842, 0.079929, 0.063230, 0.178003,1, 0.004662, 0.005177,-0.000118,1,-0.255517,-0.164453, 9.801941,1,1
1778779982195,  1017.815,  1017.810, 0.023265, 0.011924,-1.005453, 0.000215, 0.000119,-0.010069,-0.105499,-0.050965,-0.004684,1, 0.001461,-0.004814, 0.000600,1,-0.255018,-0.163470, 9.801970,1,1
1778779982222,  1017.840,  1017.840, 0.033484, 0.025945,-0.987588, 0.000347, 0.000257,-0.009888, 0.073248, 0.089844, 0.117015,1, 0.000987, 0.004464,-0.000596,1,-0.255259,-0.164555, 9.801947,1,1
1778779982243,  1017.865,  1017.860, 0.026230, 0.012281,-1.006011, 0.000255, 0.000122,-0.010067,-0.066376,-0.058137,-0.022912,1, 0.001838,-0.003162, 0.001348,1,-0.255076,-0.163930, 9.801961,1,1
1778779982265,  1017.885,  1017.880, 0.029119, 0.023064,-0.990459, 0.000294, 0.000235,-0.009896, 0.025245, 0.029390, 0.032959,1,-0.002090, 0.002649,-0.001206,1,-0.255002,-0.164730, 9.801950,1,1
1778779982292,  1017.910,  1017.910, 0.018405, 0.011254,-1.007047, 0.000169, 0.000106,-0.010047,-0.074565,-0.053600,-0.073799,1,-0.000968,-0.004622,-0.000040,1,-0.254912,-0.163994, 9.801965,1,1
1778779982313,  1017.935,  1017.930, 0.032408, 0.022934,-0.984052, 0.000327, 0.000236,-0.009836, 0.073457, 0.035442, 0.074157,1,-0.001573, 0.004958,-0.000592,1,-0.255277,-0.164673, 9.801944,1,1
1778779982335,  1017.955,  1017.950, 0.018926, 0.010827,-1.003397, 0.000178, 0.000107,-0.010022,-0.029341,-0.019921, 0.074949,1, 0.002180,-0.002396, 0.001064,1,-0.255605,-0.164153, 9.801944,1,1
1778779982362,  1017.980,  1017.980, 0.031676, 0.020470,-0.989325, 0.000319, 0.000193,-0.009919, 0.055278, 0.035666, 0.099973,1,-0.002007, 0.004253,-0.000511,1,-0.255493,-0.165143, 9.801930,1,1
1778779982383,  1018.005,  1018.000, 0.018773, 0.011147,-1.001985, 0.000186, 0.000109,-0.010021,-0.062922,-0.019398, 0.062008,1, 0.003949,-0.001418, 0.000656,1,-0.255592,-0.164457, 9.801939,1,1
1778779982405,  1018.025,  1018.020, 0.032595, 0.019556,-0.987157, 0.000336, 0.000184,-0.009883, 0.012025,-0.043386, 0.017298,1,-0.002198, 0.000585,-0.000932,1,-0.255279,-0.164228, 9.801951,1,1
1778779982432,  1018.050,  1018.050, 0.018785, 0.013557,-0.995790, 0.000205, 0.000149,-0.009937,-0.071447,-0.031179, 0.036579,1, 0.002675,-0.003098, 0.000998,1,-0.255566,-0.164044, 9.801947,1,1
1778779982453,  1018.075,  1018.070, 0.032390, 0.022533,-0.990938, 0.000320, 0.000209,-0.009909, 0.021097,-0.026381,-0.018186,1,-0.004085,-0.001318,-0.000866,1,-0.255075,-0.164521, 9.801951,1,1
1778779982475,  1018.095,  1018.095, 0.019237, 0.013153,-0.998770, 0.000194, 0.000142,-0.009960,-0.066839,-0.035236, 0.007353,1, 0.004211,-0.002366, 0.000856,1,-0.255413,-0.164089, 9.801950,1,1
1778779982502,  1018.120,  1018.120, 0.031197, 0.013672,-1.003321, 0.000292, 0.000130,-0.010046, 0.050891,-0.030210,-0.037261,1,-0.004726,-0.000333,-0.001322,1,-0.255040,-0.164434, 9.801954,1,1
1778779982524,  1018.145,  1018.140, 0.018363, 0.012323,-0.993771, 0.000191, 0.000138,-0.009929, 0.007126, 0.059233, 0.122021,1, 0.004961, 0.004150, 0.000293,1,-0.255855,-0.164144, 9.801937,1,1
1778779982546,  1018.165,  1018.165, 0.030962, 0.015782,-1.002616, 0.000306, 0.000149,-0.010054, 0.048648,-0.009861,-0.030354,1,-0.009007,-0.000611,-0.000718,1,-0.254955,-0.164890, 9.801949,1,1
1778779982572,  1018.190,  1018.190, 0.026146, 0.022557,-0.986726, 0.000294, 0.000244,-0.009866, 0.000648, 0.056425, 0.125457,1, 0.007376, 0.003632, 0.000393,1,-0.255865,-0.164551, 9.801930,1,1
1778779982594,  1018.215,  1018.210, 0.029838, 0.013995,-1.001795, 0.000284, 0.000133,-0.010037,-0.088539,-0.067951,-0.070858,1,-0.001492,-0.006570, 0.000104,1,-0.255005,-0.163849, 9.801965,1,1
1778779982616,  1018.235,  1018.235, 0.031244, 0.021775,-0.984958, 0.000335, 0.000232,-0.009835, 0.050591, 0.049163, 0.142798,1, 0.003787, 0.001893, 0.000441,1,-0.255870,-0.164262, 9.801935,1,1
1778779982642,  1018.260,  1018.260, 0.017897, 0.011396,-1.006891, 0.000160, 0.000105,-0.010057,-0.079617,-0.052454,-0.072276,1,-0.004548,-0.004847, 0.000632,1,-0.254979,-0.164355, 9.801957,1,1
1778779982664,  1018.285,  1018.280, 0.030747, 0.022218,-0.983855, 0.000316, 0.000234,-0.009831, 0.077745, 0.061045, 0.125808,1,-0.000527, 0.006302,-0.001480,1,-0.255658,-0.165131, 9.801926,1,1
1778779982686,  1018.305,  1018.305, 0.020558, 0.011737,-1.005904, 0.000190, 0.000115,-0.010058,-0.053688,-0.049026,-0.062598,1, 0.001112,-0.002826,-0.000278,1,-0.255203,-0.164092, 9.801955,1,1
1778779982712,  1018.330,  1018.330, 0.032897, 0.021050,-0.987053, 0.000334, 0.000202,-0.009891, 0.067110, 0.042230, 0.122263,1, 0.001116, 0.004478,-0.000742,1,-0.255635,-0.164169, 9.801943,1,1
1778779982734,  1018.355,  1018.350, 0.020983, 0.011176,-1.005144, 0.000203, 0.000109,-0.010058,-0.083823,-0.039291, 0.029353,1, 0.002616,-0.001989, 0.000845,1,-0.255698,-0.163480, 9.801952,1,0
1778779982757,  1018.375,  1018.375, 0.033359, 0.023056,-0.991927, 0.000343, 0.000221,-0.009931, 0.071598, 0.061431, 0.074453,1,-0.001561, 0.004346,-0.000814,1,-0.255673,-0.164716, 9.801932,1,0
1778779982782,  1018.400,  1018.400, 0.016500, 0.011585,-1.000018, 0.000171, 0.000129,-0.009981,-0.094054,-0.050170,-0.004881,1, 0.005206,-0.002079, 0.000936,1,-0.255799,-0.163618, 9.801948,1,0
1778779982804,  1018.425,  1018.420, 0.036179, 0.025336,-0.986890, 0.000358, 0.000241,-0.009872, 0.064690,-0.012521, 0.000431,1,-0.005353, 0.000837,-0.001628,1,-0.255416,-0.164288, 9.801947,1,0
1778779982827,  1018.450,  1018.445, 0.018248, 0.009263,-0.997543, 0.000176, 0.000102,-0.009948,-0.077085,-0.072845, 0.019382,1, 0.001966,-0.004010, 0.000582,1,-0.255909,-0.163618, 9.801945,1,0
1778779982852,  1018.470,  1018.470, 0.030166, 0.016394,-1.000837, 0.000280, 0.000150,-0.010036, 0.040653,-0.003462,-0.012905,1,-0.004104, 0.001089,-0.001204,1,-0.255212,-0.164361, 9.801950,1,0
1778779982874,  1018.495,  1018.490, 0.018141, 0.010291,-0.995074, 0.000186, 0.000112,-0.009937, 0.022341, 0.038921, 0.162028,1, 0.005155, 0.001929, 0.000467,1,-0.256099,-0.163753, 9.801938,1,0
1778779982897,  1018.520,  1018.515, 0.028814, 0.015867,-0.998820, 0.000287, 0.000148,-0.010023, 0.027541,-0.008570, 0.006878,1,-0.005287, 0.001411,-0.001080,1,-0.255074,-0.164336, 9.801954,1,0
1778779982923,  1018.540,  1018.540, 0.025133, 0.019842,-0.988123, 0.000281, 0.000214,-0.009873,-0.009406, 0.030523, 0.111757,1, 0.005230, 0.000618, 0.000883,1,-0.255894,-0.163894, 9.801941,1,0
1778779982944,  1018.565,  1018.560, 0.032190, 0.015621,-0.997320, 0.000315, 0.000145,-0.009988,-0.039977,-0.044746,-0.054174,1,-0.002966,-0.002640,-0.000720,1,-0.255203,-0.163804, 9.801960,1,0
1778779982967,  1018.590,  1018.585, 0.024407, 0.019943,-0.990706, 0.000262, 0.000216,-0.009885,-0.016531, 0.031407, 0.086432,1, 0.004959, 0.000078, 0.000943,1,-0.255882,-0.164009, 9.801939,1,0
1778779982993,  1018.610,  1018.610, 0.024562, 0.011694,-1.006473, 0.000221, 0.000102,-0.010061,-0.014476,-0.048947,-0.068167,1,-0.003548,-0.003668,-0.000873,1,-0.255235,-0.163741, 9.801960,1,0
1778779983014,  1018.635,  1018.630, 0.023829, 0.020013,-0.988277, 0.000248, 0.000219,-0.009869, 0.081613, 0.090302, 0.114096,1, 0.000731, 0.005014, 0.000088,1,-0.255746,-0.164445, 9.801935,1,0
1778779983037,  1018.660,  1018.655, 0.021535, 0.011064,-1.008039, 0.000196, 0.000102,-0.010086,-0.043873,-0.055060,-0.083519,1,-0.004302,-0.005652,-0.000703,1,-0.254883,-0.163693, 9.801970,1,0
1778779983063,  1018.680,  1018.680, 0.033671, 0.023678,-0.986474, 0.000342, 0.000234,-0.009886, 0.074843, 0.068324, 0.127945,1, 0.004793, 0.006742,-0.000348,1,-0.255569,-0.163730, 9.801952,1,0
1778779983084,  1018.700,  1018.700, 0.020480, 0.009715,-0.996201, 0.000215, 0.000098,-0.009952,-0.054835,-0.067813, 0.032565,1,-0.001436,-0.005142, 0.000704,1,-0.255513,-0.163132, 9.801964,1,0
1778779983107,  1018.730,  1018.725, 0.028942, 0.022776,-0.984860, 0.000303, 0.000231,-0.009851, 0.028484, 0.059513, 0.143775,1, 0.004678, 0.003943,-0.000454,1,-0.255460,-0.163702, 9.801955,1,0
1778779983133,  1018.750,  1018.750, 0.016527, 0.010097,-1.007399, 0.000163, 0.000101,-0.010043,-0.092719,-0.064168,-0.077233,1,-0.001325,-0.006556, 0.000267,1,-0.254592,-0.163227, 9.801986,1,0
1778779983154,  1018.775,  1018.770, 0.034500, 0.024433,-0.985566, 0.000347, 0.000245,-0.009852, 0.078971, 0.024829, 0.028457,1,-0.002388, 0.005642,-0.000634,1,-0.254883,-0.163975, 9.801966,1,0
1778779983177,  1018.800,  1018.800, 0.017204, 0.010195,-1.000928, 0.000159, 0.000098,-0.009989,-0.086796,-0.062775,-0.013780,1, 0.002730,-0.003222, 0.000503,1,-0.255413,-0.162668, 9.801973,1,0
1778779983203,  1018.820,  1018.820, 0.031856, 0.018864,-0.992664, 0.000304, 0.000172,-0.009944, 0.056874, 0.021537, 0.067246,1,-0.005617, 0.003603,-0.000588,1,-0.255636,-0.163632, 9.801951,1,0
1778779983224,  1018.845,  1018.840, 0.021412, 0.009480,-1.003837, 0.000211, 0.000097,-0.010038,-0.022196, 0.001410, 0.052484,1, 0.001566,-0.000224, 0.001331,1,-0.255898,-0.163587, 9.801946,1,0
1778779983251,  1018.870,  1018.870, 0.032382, 0.021119,-0.989347, 0.000329, 0.000199,-0.009922, 0.061839, 0.042976, 0.099766,1,-0.001605, 0.003789,-0.000963,1,-0.255841,-0.164184, 9.801937,1,0
1778779983273,  1018.895,  1018.890, 0.015759, 0.008575,-1.005633, 0.000158, 0.000084,-0.010048,-0.075893,-0.027337, 0.074231,1, 0.002790,-0.002729, 0.001051,1,-0.256013,-0.163677, 9.801941,1,0
1778779983295,  1018.915,  1018.910, 0.034144, 0.020641,-0.994700, 0.000336, 0.000192,-0.009960,-0.013400,-0.049447,-0.075595,1,-0.006462,-0.002824,-0.000705,1,-0.255001,-0.164375, 9.801956,1,0
1778779983321,  1018.940,  1018.940, 0.023942, 0.017289,-0.990027, 0.000251, 0.000187,-0.009873,-0.021149, 0.004805, 0.093080,1, 0.001782,-0.000609, 0.000638,1,-0.255925,-0.164685, 9.801927,1,0
1778779983343,  1018.965,  1018.960, 0.029976, 0.021799,-0.991705, 0.000293, 0.000200,-0.009922, 0.014642,-0.029274,-0.016404,1,-0.007228,-0.002001,-0.000777,1,-0.255474,-0.165501, 9.801925,1,0
1778779983365,  1018.985,  1018.980, 0.018394, 0.014333,-0.997785, 0.000191, 0.000160,-0.009957, 0.022040, 0.054809, 0.111598,1, 0.002574, 0.001495,-0.000379,1,-0.256022,-0.165898, 9.801904,1,0
1778779983392,  1019.010,  1019.010, 0.028976, 0.013898,-1.004992, 0.000266, 0.000134,-0.010077, 0.029209,-0.029364,-0.053668,1,-0.002947, 0.000502,-0.000612,1,-0.254966,-0.165750, 9.801933,1,0
1778779983413,  1019.035,  1019.030, 0.019120, 0.013402,-0.992011, 0.000214, 0.000152,-0.009905, 0.057468, 0.058063, 0.169785,1, 0.004549, 0.004620, 0.000111,1,-0.255928,-0.165452, 9.801913,1,0
1778779983435,  1019.055,  1019.050, 0.022770, 0.011673,-1.005242, 0.000221, 0.000112,-0.010076,-0.111489,-0.073328,-0.050843,1,-0.000300,-0.005073, 0.000194,1,-0.255255,-0.164940, 9.801940,1,0
1778779983462,  1019.080,  1019.080, 0.028767, 0.023815,-0.987646, 0.000309, 0.000246,-0.009872, 0.026307, 0.067806, 0.116415,1, 0.002383, 0.003387, 0.000868,1,-0.255905,-0.165662, 9.801910,1,0
1778779983483,  1019.105,  1019.100, 0.030213, 0.013229,-1.001989, 0.000285, 0.000122,-0.010027,-0.047381,-0.065125,-0.052758,1, 0.001523,-0.003707, 0.000639,1,-0.255541,-0.164884, 9.801933,1,0
1778779983505,  1019.125,  1019.120, 0.028182, 0.021661,-0.985278, 0.000297, 0.000224,-0.009843, 0.092739, 0.048488, 0.094708,1, 0.001310, 0.003440,-0.001050,1,-0.255846,-0.164948, 9.801925,1,0
1778779983532,  1019.150,  1019.150, 0.019185, 0.009195,-1.003344, 0.000176, 0.000084,-0.010024,-0.067594,-0.073420,-0.037490,1,-0.001428,-0.005059,-0.000316,1,-0.255580,-0.163634, 9.801953,1,0
1778779983553,  1019.175,  1019.170, 0.030404, 0.022792,-0.986748, 0.000323, 0.000241,-0.009869, 0.105732, 0.058980, 0.088991,1,-0.002715, 0.004242,-0.000695,1,-0.255577,-0.164648, 9.801936,1,0
1778779983575,  1019.195,  1019.190, 0.018815, 0.008919,-1.005094, 0.000176, 0.000092,-0.010052,-0.075355,-0.026443, 0.038693,1, 0.004525,-0.002246, 0.001646,1,-0.255615,-0.163882, 9.801949,1,0
1778779983602,  1019.220,  1019.220, 0.032155, 0.023861,-0.989565, 0.000330, 0.000230,-0.009919, 0.060208, 0.069546, 0.097630,1,-0.002038, 0.004872,-0.001061,1,-0.255281,-0.164514, 9.801947,1,0
1778779983623,  1019.245,  1019.240, 0.018218, 0.010460,-1.007247, 0.000177, 0.000098,-0.010057,-0.079334,-0.038057, 0.046939,1, 0.002960,-0.003492, 0.002036,1,-0.255553,-0.163758, 9.801951,1,0
1778779983645,  1019.265,  1019.260, 0.033034, 0.025204,-0.990833, 0.000331, 0.000246,-0.009920, 0.015531,-0.008442,-0.040902,1,-0.005141,-0.000794,-0.000710,1,-0.254915,-0.164415, 9.801957,1,0
1778779983672,  1019.290,  1019.290, 0.019814, 0.012559,-0.995139, 0.000205, 0.000139,-0.009922,-0.061461,-0.040150, 0.042970,1, 0.005199,-0.003636, 0.001418,1,-0.255655,-0.163145, 9.801959,1,0
1778779983693,  1019.315,  1019.310, 0.035929, 0.023176,-0.990201, 0.000354, 0.000222,-0.009914, 0.045383,-0.011534,-0.041878,1,-0.002838, 0.000322,-0.001108,1,-0.255040,-0.163487, 9.801970,1,0
1778779983715,  1019.335,  1019.335, 0.021285, 0.012711,-0.995412, 0.000212, 0.000141,-0.009936,-0.047148,-0.038027, 0.040302,1, 0.003809,-0.001989, 0.001143,1,-0.255818,-0.162558, 9.801965,1,0
1778779983742,  1019.360,  1019.360, 0.027889, 0.014502,-0.999281, 0.000265, 0.000133,-0.010019, 0.018152,-0.021003, 0.002367,1,-0.005170, 0.001949, 0.000030,1,-0.255404,-0.163382, 9.801962,1,0
1778779983764,  1019.385,  1019.380, 0.018973, 0.013474,-0.996947, 0.000203, 0.000147,-0.009964, 0.007664, 0.035826, 0.128435,1, 0.002546, 0.001321, 0.000847,1,-0.256187,-0.163436, 9.801941,1,0
1778779983786,  1019.405,  1019.405, 0.027725, 0.015245,-0.997161, 0.000272, 0.000138,-0.009995, 0.016229,-0.013940, 0.023147,1,-0.003364, 0.001257,-0.001035,1,-0.255703,-0.163544, 9.801951,1,0
1778779983812,  1019.430,  1019.430, 0.025641, 0.020595,-0.987882, 0.000281, 0.000217,-0.009863,-0.004701, 0.038432, 0.114131,1, 0.002195, 0.000004, 0.000444,1,-0.256153,-0.163465, 9.801941,1,0
1778779983834,  1019.455,  1019.450, 0.028473, 0.016747,-0.999392, 0.000274, 0.000149,-0.010002,-0.045353,-0.065696,-0.064473,1,-0.001685,-0.003272,-0.000274,1,-0.255556,-0.163353, 9.801958,1,0
1778779983856,  1019.475,  1019.475, 0.024255, 0.021080,-0.992255, 0.000248, 0.000221,-0.009906,-0.018110, 0.042955, 0.071239,1, 0.004251, 0.001599, 0.000434,1,-0.256019,-0.163640, 9.801942,1,0
1778779983882,  1019.500,  1019.500, 0.024289, 0.009737,-1.004731, 0.000215, 0.000088,-0.010041,-0.017623,-0.067886,-0.051096,1,-0.003108,-0.001506,-0.000902,1,-0.255772,-0.163470, 9.801951,1,0
1778779983904,  1019.525,  1019.520, 0.024090, 0.018891,-0.986303, 0.000248, 0.000204,-0.009860, 0.068412, 0.061835, 0.123305,1, 0.001332, 0.004544,-0.000766,1,-0.256231,-0.163898, 9.801931,1,0
1778779983927,  1019.545,  1019.545, 0.022729, 0.010122,-1.001558, 0.000211, 0.000091,-0.010019,-0.033087,-0.064094,-0.019978,1,-0.007441,-0.003736,-0.000397,1,-0.255870,-0.163589, 9.801947,1,0
1778779983952,  1019.570,  1019.570, 0.034264, 0.025031,-0.987497, 0.000358, 0.000254,-0.009892, 0.080077, 0.081014, 0.117896,1,-0.000383, 0.004031, 0.000606,1,-0.256053,-0.164440, 9.801928,1,0
1778779983974,  1019.595,  1019.590, 0.021208, 0.010081,-1.007555, 0.000205, 0.000094,-0.010076,-0.096200,-0.067185,-0.014320,1, 0.006164,-0.004397, 0.001026,1,-0.255762,-0.163008, 9.801959,1,0
1778779983997,  1019.615,  1019.615, 0.032846, 0.025535,-0.987323, 0.000337, 0.000256,-0.009871, 0.066375, 0.086966, 0.119620,1, 0.001781, 0.004794,-0.000230,1,-0.255881,-0.163394, 9.801950,1,0
1778779984022,  1019.640,  1019.640, 0.017560, 0.009856,-1.002111, 0.000173, 0.000097,-0.009999,-0.083663,-0.066215,-0.025397,1, 0.000068,-0.003989, 0.001179,1,-0.255743,-0.162862, 9.801962,1,0
1778779984044,  1019.665,  1019.660, 0.034172, 0.025132,-0.987024, 0.000335, 0.000258,-0.009868, 0.054948, 0.042772, 0.024356,1,-0.004737, 0.003937,-0.001281,1,-0.255582,-0.163900, 9.801949,1,0
1778779984067,  1019.690,  1019.685, 0.019173, 0.010410,-1.000655, 0.000182, 0.000106,-0.009990,-0.067767,-0.061043,-0.011119,1, 0.001367,-0.006273, 0.000542,1,-0.255598,-0.163089, 9.801962,1,0
1778779984092,  1019.710,  1019.710, 0.032285, 0.019174,-0.993663, 0.000315, 0.000176,-0.009961, 0.061325, 0.024339, 0.057451,1,-0.004043, 0.002011,-0.000687,1,-0.255344,-0.163819, 9.801956,1,0
1778779984114,  1019.735,  1019.730, 0.016512, 0.010160,-1.002060, 0.000171, 0.000107,-0.010019,-0.041353, 0.009412, 0.073433,1, 0.004809,-0.000263, 0.000768,1,-0.255662,-0.163265, 9.801957,1,0
1778779984137,  1019.760,  1019.755, 0.032113, 0.018702,-0.991664, 0.000328, 0.000178,-0.009939, 0.059520, 0.019915, 0.077056,1,-0.002790, 0.003795,-0.001025,1,-0.255519,-0.163573, 9.801956,1,0
1778779984163,  1019.780,  1019.780, 0.022468, 0.016429,-0.992711, 0.000238, 0.000180,-0.009902,-0.035789,-0.001937, 0.066778,1, 0.005676, 0.000487, 0.001139,1,-0.256142,-0.162874, 9.801951,1,0
1778779984184,  1019.805,  1019.800, 0.032602, 0.020744,-0.993284, 0.000325, 0.000191,-0.009942,-0.003885,-0.041034,-0.041015,1,-0.003460,-0.001752,-0.001355,1,-0.255721,-0.163094, 9.801958,1,0
1778779984207,  1019.830,  1019.825, 0.022197, 0.015041,-0.993727, 0.000223, 0.000167,-0.009910,-0.038638,-0.015842, 0.056805,1, 0.003084,-0.001837, 0.001238,1,-0.256260,-0.163242, 9.801942,1,0
1778779984233,  1019.850,  1019.850, 0.028019, 0.013729,-1.004761, 0.000260, 0.000123,-0.010056, 0.019283,-0.029111,-0.051381,1,-0.005162,-0.002522,-0.000774,1,-0.255407,-0.163910, 9.801953,1,0
1778779984254,  1019.875,  1019.870, 0.020162, 0.014905,-0.992667, 0.000205, 0.000164,-0.009912, 0.031974, 0.080638, 0.123493,1, 0.004332, 0.003333, 0.000313,1,-0.256020,-0.163851, 9.801938,1,0
1778779984277,  1019.900,  1019.895, 0.027177, 0.013484,-1.001048, 0.000259, 0.000131,-0.010033, 0.011239,-0.031366,-0.014964,1,-0.004731,-0.000901,-0.000490,1,-0.255253,-0.163745, 9.801960,1,0
1778779984303,  1019.920,  1019.920, 0.026529, 0.022129,-0.986154, 0.000288, 0.000236,-0.009864, 0.004292, 0.053463, 0.131078,1, 0.005367, 0.003171, 0.000476,1,-0.255966,-0.163383, 9.801948,1,0
1778779984324,  1019.945,  1019.940, 0.029247, 0.016521,-0.999410, 0.000291, 0.000155,-0.010015,-0.053466,-0.059951,-0.058830,1,-0.001102,-0.003371, 0.000212,1,-0.255547,-0.162971, 9.801965,1,0
1778779984347,  1019.970,  1019.965, 0.026297, 0.021183,-0.984927, 0.000280, 0.000230,-0.009832, 0.001684, 0.044736, 0.143118,1, 0.005853, 0.001351, 0.000453,1,-0.256244,-0.162812, 9.801950,1,0
1778779984373,  1019.990,  1019.990, 0.023435, 0.009343,-1.010731, 0.000214, 0.000079,-0.010092,-0.025573,-0.070719,-0.109907,1,-0.001807,-0.006619,-0.001022,1,-0.255181,-0.162396, 9.801984,1,0
1778779984394,  1020.015,  1020.010, 0.026909, 0.020090,-0.986600, 0.000278, 0.000218,-0.009851, 0.073691, 0.099549, 0.109809,1, 0.002358, 0.006546,-0.001188,1,-0.255725,-0.162725, 9.801965,1,0
1778779984417,  1020.040,  1020.040, 0.022241, 0.010131,-1.007184, 0.000200, 0.000086,-0.010074,-0.037145,-0.062797,-0.075118,1,-0.002855,-0.004482,-0.001409,1,-0.255117,-0.162237, 9.801989,1,0
1778779984443,  1020.060,  1020.060, 0.031105, 0.023631,-0.984449, 0.000308, 0.000240,-0.009856, 0.049479, 0.069096, 0.147822,1, 0.001865, 0.005889,-0.000725,1,-0.255743,-0.162583, 9.801967,1,0
1778779984464,  1020.085,  1020.080, 0.028208, 0.013822,-1.004136, 0.000279, 0.000119,-0.010068,-0.029422,-0.090389,-0.017470,1,-0.000775,-0.005706, 0.000335,1,-0.255250,-0.162109, 9.801987,1,0
1778779984491,  1020.110,  1020.110, 0.025267, 0.022642,-0.978647, 0.000262, 0.000248,-0.009789,-0.007617, 0.059303, 0.204719,1, 0.004904, 0.003429,-0.000286,1,-0.255505,-0.162585, 9.801972,1,0
1778779984513,  1020.135,  1020.130, 0.032660, 0.018124,-1.010574, 0.000325, 0.000167,-0.010134,-0.008023,-0.082671,-0.109992,1,-0.002451,-0.013282,-0.001100,1,-0.253578,-0.162202, 9.802029,1,0
1778779984535,  1020.155,  1020.150, 0.032409, 0.017845,-0.978272, 0.000326, 0.000203,-0.009772, 0.096710, 0.115557, 0.096001,1, 0.011897, 0.007093,-0.001830,1,-0.253664,-0.161611, 9.802036,1,0
1778779984561,  1020.180,  1020.180, 0.035469, 0.012893,-1.007489, 0.000355, 0.000098,-0.010060, 0.094286,-0.033430,-0.078027,1,-0.009245,-0.010479,-0.001613,1,-0.253224,-0.160160, 9.802072,1,0
1778779984583,  1020.205,  1020.200, 0.034921, 0.008037,-0.988656, 0.000333, 0.000104,-0.009841, 0.054822, 0.116527, 0.191937,1, 0.010054, 0.012554, 0.000035,1,-0.254610,-0.159708, 9.802043,1,0
1778779984605,  1020.225,  1020.220, 0.033661, 0.026861,-1.019281, 0.000341, 0.000244,-0.010223, 0.123173,-0.063303,-0.163370,1,-0.010760,-0.018400,-0.001636,1,-0.252755,-0.160092, 9.802085,1,0
1778779984632,  1020.250,  1020.250, 0.058007, 0.012546,-0.972193, 0.000544, 0.000164,-0.009715, 0.313476,-0.034459, 0.268102,1, 0.012557, 0.014842,-0.000579,1,-0.255846,-0.157100, 9.802053,1,0
1778779984653,  1020.275,  1020.270, 0.051828, 0.043508,-0.986750, 0.000519, 0.000440,-0.009938, 0.312452, 0.093697,-0.107428,1,-0.012239,-0.001876,-0.000408,1,-0.253908,-0.159984, 9.802057,1,0
1778779984675,  1020.295,  1020.290, 0.070333, 0.000416,-0.979546, 0.000696,-0.000008,-0.009738, 0.328637,-0.004618, 0.392496,1, 0.013337, 0.023391, 0.002317,1,-0.259306,-0.157005, 9.801964,1,0
1778779984702,  1020.320,  1020.320, 0.088698, 0.055566,-1.010808, 0.000859, 0.000544,-0.010149, 0.611845, 0.383738,-0.110711,1, 0.009118, 0.023019, 0.000802,1,-0.258704,-0.160896, 9.801916,1,0
1778779984723,  1020.345,  1020.340, 0.139916, 0.026723,-0.976685, 0.001455, 0.000184,-0.009732, 1.185939,-0.072921, 0.349558,1, 0.011376, 0.022115, 0.002052,1,-0.265938,-0.156123, 9.801800,1,0
1778779984745,  1020.365,  1020.360, 0.124115, 0.023664,-0.956614, 0.001192, 0.000329,-0.009605, 0.861909, 0.443393, 0.213089,1, 0.024365, 0.031036, 0.003177,1,-0.268750,-0.154889, 9.801744,1,0
1778779984772,  1020.390,  1020.390, 0.136104, 0.038502,-0.977251, 0.001402, 0.000249,-0.009721, 1.057513, 0.223737, 0.217967,1,-0.026850,-0.001420, 0.000338,1,-0.277167,-0.154674, 9.801512,1,0
1778779984793,  1020.415,  1020.410, 0.178593, 0.011757,-0.982013, 0.001749, 0.000089,-0.009817, 1.221131, 0.102501, 0.040626,1, 0.015140, 0.047249, 0.009057,1,-0.283130,-0.154274, 9.801348,1,0
1778779984815,  1020.435,  1020.430, 0.141723, 0.051037,-0.994772, 0.001415, 0.000560,-0.009956, 1.346554, 0.314021, 0.085016,1, 0.004022, 0.009333, 0.005892,1,-0.287958,-0.152904, 9.801229,1,0
1778779984842,  1020.460,  1020.460, 0.183089, 0.010836,-0.974945, 0.001832, 0.000056,-0.009739, 1.298024,-0.026990, 0.189491,1, 0.022518, 0.051200, 0.009706,1,-0.295412,-0.148673, 9.801072,1,0
1778779984863,  1020.485,  1020.480, 0.179884, 0.005246,-0.991153, 0.001746, 0.000081,-0.009922, 1.151899, 0.262355, 0.022265,1,-0.001813, 0.035524, 0.011504,1,-0.302827,-0.149534, 9.800833,1,0
1778779984885,  1020.505,  1020.500, 0.152858, 0.065013,-1.009904, 0.001589, 0.000624,-0.010096, 1.576463, 0.061863,-0.012560,1,-0.027211, 0.012499, 0.004404,1,-0.308829,-0.152796, 9.800595,1,0
1778779984912,  1020.530,  1020.530, 0.191637,-0.000844,-1.000350, 0.001873,-0.000005,-0.009986, 1.563394,-0.161405,-0.009722,1,-0.003285, 0.026548, 0.007690,1,-0.316756,-0.153227, 9.800335,1,0
1778779984933,  1020.555,  1020.550, 0.158598, 0.022073,-0.995742, 0.001501, 0.000319,-0.010000, 1.076997, 0.499836,-0.209901,1, 0.010850, 0.018731, 0.012123,1,-0.317446,-0.154804, 9.800288,1,0
1778779984955,  1020.575,  1020.575, 0.190414, 0.036820,-1.016116, 0.001978, 0.000249,-0.010118, 1.543304, 0.206328,-0.164622,1,-0.042768,-0.016102, 0.008324,1,-0.323518,-0.156083, 9.800069,1,0
1778779984982,  1020.600,  1020.600, 0.173806, 0.024192,-0.977400, 0.001667, 0.000355,-0.009839, 1.375084, 0.081102, 0.214850,1, 0.018844, 0.062155, 0.017262,1,-0.331317,-0.155533, 9.799817,1,0
1778779985004,  1020.625,  1020.620, 0.146130, 0.073298,-1.024567, 0.001485, 0.000755,-0.010275, 1.439703, 0.222737,-0.116217,1,-0.050645,-0.027009, 0.010841,1,-0.331387,-0.161531, 9.799718,1,0
1778779985026,  1020.645,  1020.645, 0.215787,-0.006841,-0.976919, 0.002106,-0.000061,-0.009727, 1.776363,-0.227520, 0.219148,1,-0.009121, 0.010742, 0.013330,1,-0.340130,-0.160698, 9.799432,1,0
1778779985052,  1020.670,  1020.670, 0.136510, 0.099626,-1.047841, 0.001414, 0.001011,-0.010497, 1.004582, 0.810767,-0.476266,1, 0.009077,-0.002077, 0.019498,1,-0.334064,-0.165930, 9.799554,1,0
1778779985074,  1020.695,  1020.690, 0.168777, 0.060143,-1.032029, 0.001810, 0.000500,-0.010216, 1.648429,-0.149190, 0.137913,1, 0.017004, 0.003497, 0.012494,1,-0.342176,-0.156615, 9.799427,1,0
1778779985096,  1020.715,  1020.715, 0.121035, 0.043310,-1.027684, 0.001100, 0.000538,-0.010382, 0.851742, 0.270715,-0.278430,1, 0.083327, 0.050283, 0.019006,1,-0.336787,-0.151390, 9.799696,1,0
1778779985122,  1020.740,  1020.740, 0.148081, 0.034020,-1.041810, 0.001581, 0.000213,-0.010336, 1.119648, 0.187157,-0.416754,1,-0.018222,-0.079386, 0.009255,1,-0.330060,-0.147021, 9.799992,1,0
1778779985144,  1020.765,  1020.760, 0.157642,-0.022896,-0.961510, 0.001567,-0.000211,-0.009599, 0.851741, 0.173210, 0.041619,1, 0.066064, 0.045720, 0.020714,1,-0.330567,-0.139820, 9.800079,1,0
1778779985167,  1020.785,  1020.785, 0.075825, 0.062925,-1.035297, 0.000802, 0.000617,-0.010390, 0.423872, 0.473075,-0.352418,1,-0.019203,-0.032466, 0.018617,1,-0.318712,-0.144586, 9.800404,1,0
1778779985192,  1020.810,  1020.810, 0.151237,-0.029856,-0.953905, 0.001455,-0.000265,-0.009521, 1.159434,-0.432809, 0.445691,1,-0.000898,-0.003093, 0.021267,1,-0.323609,-0.140030, 9.800309,1,0
1778779985214,  1020.835,  1020.830, 0.123744, 0.060461,-1.023371, 0.001169, 0.000696,-0.010321, 0.781808, 0.538569,-0.476723,1,-0.033070,-0.045716, 0.024063,1,-0.310438,-0.150483, 9.800580,1,0
1778779985237,  1020.855,  1020.855, 0.181252, 0.032578,-1.015579, 0.001883, 0.000145,-0.010070, 1.466267, 0.178492,-0.158737,1,-0.015301,-0.072155, 0.021136,1,-0.308962,-0.141446, 9.800761,1,0
1778779985262,  1020.880,  1020.880, 0.133971, 0.068955,-1.008498, 0.001246, 0.000797,-0.010203, 1.008362, 0.540488,-0.089040,1, 0.089139, 0.049110, 0.034505,1,-0.306988,-0.132913, 9.800942,1,0
1778779985284,  1020.905,  1020.900, 0.153042, 0.058574,-1.005011, 0.001587, 0.000517,-0.010039, 1.782461,-0.073990, 0.277510,1,-0.001143,-0.052951, 0.025234,1,-0.307413,-0.123868, 9.801047,1,0
1778779985307,  1020.930,  1020.925, 0.215604,-0.017223,-0.902030, 0.002076,-0.000076,-0.009072, 1.800354,-0.282093, 0.955073,1, 0.039442, 0.058973, 0.035344,1,-0.315854,-0.111930, 9.800923,1,0
1778779985333,  1020.950,  1020.950, 0.167716, 0.060375,-0.952332, 0.001753, 0.000550,-0.009464, 1.332584, 0.471697, 0.461756,1,-0.060097,-0.024903, 0.027940,1,-0.311385,-0.122225, 9.800943,1,0
1778779985354,  1020.975,  1020.970, 0.213336, 0.012858,-0.924313, 0.002195, 0.000061,-0.009168, 1.743367, 0.000250, 0.840119,1, 0.008850, 0.048800, 0.032564,1,-0.320627,-0.122180, 9.800646,1,0
1778779985377,  1021.000,  1020.995, 0.151134, 0.058207,-0.962562, 0.001476, 0.000705,-0.009689, 1.163704, 0.449067, 0.361213,1, 0.062771, 0.037045, 0.035894,1,-0.319584,-0.119757, 9.800710,1,0
1778779985403,  1021.020,  1021.020, 0.224305, 0.009519,-0.938325, 0.002264,-0.000006,-0.009322, 1.875340,-0.017601, 0.598827,1, 0.011521,-0.021057, 0.025177,1,-0.323693,-0.110570, 9.800683,1,0
1778779985424,  1021.045,  1021.040, 0.212216, 0.001506,-0.941344, 0.002042, 0.000078,-0.009416, 1.161839, 0.585315, 0.332097,1, 0.059519, 0.039165, 0.034038,1,-0.323288,-0.104469, 9.800763,1,0
1778779985447,  1021.070,  1021.065, 0.160595, 0.065147,-1.028073, 0.001652, 0.000618,-0.010238, 1.254914, 0.534089,-0.281082,1,-0.014708,-0.037285, 0.025903,1,-0.318832,-0.105213, 9.800901,1,0
1778779985473,  1021.090,  1021.090, 0.207623, 0.011512,-0.996246, 0.002055, 0.000203,-0.010007, 1.712645, 0.015454, 0.030996,1, 0.047405, 0.023591, 0.032654,1,-0.324184,-0.095923, 9.800820,1,0
1778779985494,  1021.115,  1021.110, 0.172300, 0.023295,-0.994256, 0.001667, 0.000363,-0.010019, 1.255337, 0.473180,-0.141190,1, 0.017336,-0.008547, 0.031512,1,-0.320775,-0.093178, 9.800960,1,0
1778779985517,  1021.140,  1021.135, 0.211542, 0.003400,-0.954139, 0.002163,-0.000091,-0.009482, 1.745559,-0.058533, 0.443791,1,-0.051710,-0.008341, 0.033387,1,-0.328713,-0.093457, 9.800694,1,0
1778779985543,  1021.160,  1021.160, 0.179668, 0.035572,-0.996313, 0.001732, 0.000418,-0.009998, 1.432948, 0.247632, 0.030116,1,-0.034132, 0.032021, 0.045516,1,-0.330003,-0.102230, 9.800563,1,0
1778779985564,  1021.185,  1021.180, 0.148691, 0.081058,-1.018621, 0.001519, 0.000813,-0.010179, 1.663781, 0.213475,-0.019623,1,-0.054665,-0.024465, 0.038899,1,-0.330745,-0.112427, 9.800426,1,0
1778779985587,  1021.210,  1021.205, 0.224699, 0.005103,-0.982115, 0.002286, 0.000012,-0.009828, 1.866988,-0.058122, 0.169021,1, 0.005981, 0.007961, 0.045009,1,-0.336823,-0.107933, 9.800270,1,0
1778779985613,  1021.230,  1021.230, 0.181913, 0.077100,-0.994958, 0.001750, 0.000763,-0.009966, 1.447076, 0.650166, 0.043089,1, 0.035800, 0.035242, 0.045975,1,-0.337995,-0.104760, 9.800263,1,0
1778779985634,  1021.255,  1021.250, 0.201367, 0.066771,-0.998385, 0.002085, 0.000584,-0.009956, 1.846998, 0.044470, 0.363095,1,-0.019117, 0.002183, 0.044508,1,-0.343722,-0.102760, 9.800086,1,0
1778779985657,  1021.280,  1021.280, 0.206624, 0.016090,-0.977404, 0.002023, 0.000240,-0.009828, 1.679717, 0.054335, 0.214914,1, 0.008542, 0.033099, 0.053402,1,-0.347627,-0.103128, 9.799944,1,0
1778779985683,  1021.300,  1021.300, 0.197666, 0.062836,-1.005589, 0.002032, 0.000588,-0.010033, 1.592024, 0.511984,-0.061490,1,-0.002183,-0.012964, 0.050896,1,-0.346035,-0.104241, 9.799989,1,0
1778779985704,  1021.325,  1021.320, 0.231138, 0.023969,-0.956671, 0.002377, 0.000210,-0.009523, 1.909432, 0.110616, 0.378884,1, 0.011486, 0.039622, 0.057126,1,-0.352873,-0.100124, 9.799788,1,0
1778779985731,  1021.350,  1021.350, 0.203285, 0.037157,-0.989818, 0.001950, 0.000489,-0.009913, 1.640742, 0.259740, 0.092940,1,-0.015128, 0.022298, 0.066621,1,-0.353523,-0.105038, 9.799713,1,0
1778779985753,  1021.375,  1021.370, 0.169387, 0.066905,-1.009195, 0.001626, 0.000680,-0.010060, 1.539801, 0.340634, 0.058444,1,-0.031805,-0.022425, 0.064376,1,-0.352798,-0.111637, 9.799666,1,0
1778779985775,  1021.395,  1021.390, 0.212727, 0.032234,-0.998564, 0.002224, 0.000249,-0.009997, 1.308380, 0.544384,-0.097154,1, 0.003585, 0.008072, 0.068038,1,-0.353016,-0.111542, 9.799660,1,0
1778779985802,  1021.420,  1021.420, 0.212555, 0.048913,-0.983009, 0.002051, 0.000595,-0.009856, 1.728916, 0.369590, 0.159555,1, 0.016700, 0.027526, 0.076134,1,-0.356419,-0.109479, 9.799560,1,0
1778779985823,  1021.445,  1021.440, 0.191752, 0.073930,-1.006924, 0.001938, 0.000698,-0.010109, 1.645338, 0.212908,-0.011520,1,-0.037412,-0.017043, 0.076011,1,-0.354641,-0.114626, 9.799565,1,0
1778779985845,  1021.465,  1021.460, 0.226638, 0.017392,-0.979538, 0.002227, 0.000168,-0.009794, 1.645338, 0.212908,-0.011520,1,-0.037412,-0.017043, 0.076011,1,-0.354641,-0.114626, 9.799565,1,0
1778779985872,  1021.490,  1021.490, 0.179454, 0.091891,-0.996427, 0.001820, 0.000939,-0.009981, 1.402813, 0.777634, 0.027763,1,-0.003635, 0.012448, 0.084390,1,-0.357448,-0.123531, 9.799355,1,0
1778779985893,  1021.515,  1021.510, 0.179665, 0.045473,-0.988783, 0.001812, 0.000408,-0.009803, 1.728662, 0.018828, 0.412859,1,-0.023163,-0.001001, 0.083807,1,-0.363265,-0.122462, 9.799154,1,0
1778779985915,  1021.535,  1021.530, 0.217131, 0.046462,-0.982115, 0.002151, 0.000561,-0.009852, 1.626285, 0.486474,-0.131612,1,-0.029167, 0.010517, 0.084899,1,-0.361376,-0.129518, 9.799133,1,0
1778779985942,  1021.560,  1021.560, 0.199387, 0.064068,-0.975408, 0.002011, 0.000559,-0.009696, 1.589597, 0.493956, 0.233426,1,-0.025504,-0.009256, 0.081000,1,-0.365468,-0.135038, 9.798907,1,0
1778779985963,  1021.585,  1021.580, 0.208834, 0.050791,-0.977152, 0.002071, 0.000440,-0.009742, 1.464726, 0.021659, 0.162527,1,-0.025619, 0.014749, 0.087063,1,-0.366506,-0.139052, 9.798812,1,0
1778779985985,  1021.605,  1021.600, 0.164087, 0.061899,-0.998380, 0.001576, 0.000568,-0.010000, 1.254163, 0.342573, 0.086087,1,-0.025827,-0.020807, 0.089979,1,-0.364436,-0.144175, 9.798816,1,0
1778779986012,  1021.630,  1021.630, 0.154561, 0.049176,-1.008955, 0.001613, 0.000385,-0.010083, 1.154641, 0.334326,-0.095588,1,-0.023768,-0.032340, 0.083708,1,-0.360118,-0.148575, 9.798909,1,0
1778779986033,  1021.655,  1021.650, 0.154952, 0.047808,-0.987071, 0.001576, 0.000453,-0.009846, 1.265542, 0.552117, 0.060249,1, 0.005446,-0.006958, 0.086306,1,-0.358386,-0.147514, 9.798989,1,0
1778779986055,  1021.675,  1021.670, 0.124185, 0.084751,-1.028700, 0.001292, 0.000807,-0.010308, 1.219823, 0.656911,-0.227731,1,-0.005274,-0.044331, 0.080476,1,-0.351852,-0.148313, 9.799213,1,0
1778779986082,  1021.700,  1021.700, 0.156159, 0.049716,-0.995050, 0.001606, 0.000483,-0.009975, 1.184333, 0.346581, 0.041385,1, 0.018460,-0.025592, 0.080373,1,-0.346304,-0.140305, 9.799529,1,0
1778779986103,  1021.725,  1021.720, 0.160319, 0.044246,-0.992937, 0.001592, 0.000452,-0.009959, 1.021775, 0.592563,-0.076583,1, 0.027371,-0.007536, 0.085242,1,-0.341925,-0.136577, 9.799736,1,0
1778779986125,  1021.745,  1021.740, 0.144290, 0.058229,-1.009372, 0.001395, 0.000607,-0.010051, 0.946605, 0.374914, 0.207781,1, 0.018571,-0.011944, 0.082510,1,-0.341567,-0.131451, 9.799818,1,0
1778779986152,  1021.770,  1021.770, 0.141293, 0.043303,-0.989722, 0.001306, 0.000438,-0.009887, 1.044992, 0.297567, 0.094051,1, 0.026942, 0.019379, 0.082828,1,-0.341277,-0.126189, 9.799897,1,0
1778779986174,  1021.795,  1021.790, 0.161857, 0.039754,-0.983310, 0.001537, 0.000400,-0.009833, 1.129568, 0.367338, 0.186354,1, 0.015474, 0.000551, 0.089042,1,-0.342522,-0.121877, 9.799909,1,0
1778779986195,  1021.815,  1021.815, 0.151803, 0.041330,-0.980903, 0.001610, 0.000465,-0.009841, 1.140851, 0.293147, 0.180462,1, 0.033108, 0.011322, 0.090765,1,-0.348218,-0.111030, 9.799837,1,0
1778779986222,  1021.840,  1021.840, 0.200939, 0.053724,-0.970761, 0.001974, 0.000508,-0.009702, 1.616675, 0.421306, 0.279776,1, 0.021984, 0.027743, 0.082822,1,-0.354761,-0.104764, 9.799671,1,0
1778779986244,  1021.865,  1021.860, 0.219030, 0.036701,-1.001225, 0.002221, 0.000369,-0.010004, 1.472875, 0.248352, 0.137591,1, 0.006349, 0.034954, 0.085678,1,-0.358991,-0.103723, 9.799528,1,0
1778779986266,  1021.885,  1021.885, 0.196954, 0.029352,-0.987836, 0.001854, 0.000202,-0.009878, 1.564596, 0.186463, 0.111896,1, 0.013848, 0.049249, 0.081872,1,-0.368427,-0.100857, 9.799208,1,0
1778779986292,  1021.910,  1021.910, 0.191551, 0.020036,-0.976373, 0.001913, 0.000173,-0.009731, 1.505052, 0.096310, 0.224081,1,-0.009470, 0.022873, 0.087980,1,-0.374166,-0.100371, 9.798995,1,0
1778779986314,  1021.935,  1021.930, 0.215721, 0.038233,-0.979113, 0.002097, 0.000388,-0.009765, 1.761502, 0.319560, 0.133689,1,-0.004766, 0.033757, 0.082374,1,-0.377501,-0.100719, 9.798863,1,0
1778779986336,  1021.955,  1021.955, 0.182954, 0.039540,-0.977341, 0.001871, 0.000458,-0.009790, 1.409118, 0.290087, 0.214162,1, 0.018856, 0.013640, 0.080975,1,-0.385499,-0.096982, 9.798590,1,0
1778779986362,  1021.980,  1021.980, 0.232488, 0.040522,-0.996635, 0.002411, 0.000351,-0.009971, 1.892544, 0.303336, 0.024892,1, 0.000156,-0.014484, 0.073123,1,-0.386954,-0.093960, 9.798562,1,0
1778779986384,  1022.005,  1022.000, 0.234378, 0.014505,-0.985657, 0.002387, 0.000186,-0.009867, 1.635860, 0.060191, 0.043241,1, 0.031138, 0.028395, 0.070852,1,-0.388464,-0.089734, 9.798542,1,0
1778779986407,  1022.025,  1022.025, 0.217097, 0.005747,-0.982567, 0.002034, 0.000085,-0.009803, 1.739624,-0.031659, 0.162827,1,-0.014242, 0.018507, 0.064234,1,-0.389964,-0.088382, 9.798495,1,0
1778779986432,  1022.050,  1022.050, 0.196529, 0.007356,-0.966958, 0.001911, 0.000088,-0.009619, 1.536659,-0.022217, 0.315796,1,-0.044502, 0.005607, 0.064275,1,-0.390824,-0.095665, 9.798392,1,0
1778779986454,  1022.075,  1022.070, 0.176720, 0.033952,-0.998930, 0.001769, 0.000328,-0.009983, 1.538650, 0.003500, 0.074899,1,-0.060415,-0.008798, 0.061521,1,-0.390761,-0.106806, 9.798280,1,0
1778779986477,  1022.095,  1022.095, 0.188879, 0.038842,-0.986140, 0.001884, 0.000419,-0.009855, 1.461722, 0.263750, 0.127438,1,-0.023496, 0.001073, 0.061424,1,-0.390601,-0.117822, 9.798160,1,0
1778779986502,  1022.120,  1022.120, 0.176229, 0.045444,-0.973880, 0.001734, 0.000492,-0.009731, 1.337211, 0.327348, 0.247640,1, 0.002942, 0.003468, 0.055521,1,-0.391137,-0.118149, 9.798135,1,0
1778779986524,  1022.145,  1022.140, 0.148747, 0.050426,-0.986942, 0.001455, 0.000558,-0.009861, 1.367500, 0.402599, 0.055226,1, 0.002078,-0.019532, 0.059872,1,-0.389108,-0.116651, 9.798233,1,0
1778779986547,  1022.170,  1022.165, 0.168248, 0.058754,-0.991169, 0.001739, 0.000563,-0.009894, 1.263219, 0.464416, 0.078334,1, 0.009485,-0.029924, 0.053875,1,-0.385835,-0.111455, 9.798423,1,0
1778779986572,  1022.190,  1022.190, 0.181817, 0.047056,-1.032491, 0.001751, 0.000462,-0.010316, 1.401020, 0.352438,-0.326675,1, 0.012298,-0.016341, 0.048900,1,-0.381503,-0.108585, 9.798625,1,0
1778779986594,  1022.215,  1022.210, 0.174751, 0.038564,-1.040397, 0.001774, 0.000511,-0.010422, 1.015800, 0.416201,-0.364751,1, 0.027916,-0.009604, 0.050026,1,-0.376566,-0.105207, 9.798853,1,0
1778779986617,  1022.240,  1022.235, 0.180547, 0.032319,-1.042395, 0.001672, 0.000370,-0.010390, 1.397407, 0.216027,-0.423378,1, 0.004853,-0.000359, 0.045968,1,-0.373156,-0.100709, 9.799030,1,0
1778779986643,  1022.260,  1022.260, 0.191719, 0.054756,-1.019236, 0.001810, 0.000509,-0.010170, 1.506701, 0.434894,-0.196284,1,-0.012639, 0.010844, 0.047868,1,-0.373778,-0.102417, 9.798989,1,0
1778779986664,  1022.285,  1022.280, 0.208239, 0.049554,-1.006228, 0.002178, 0.000572,-0.010102, 1.509972, 0.255884, 0.050035,1,-0.027082, 0.012523, 0.044971,1,-0.375542,-0.107757, 9.798864,1,0
1778779986687,  1022.310,  1022.305, 0.226647, 0.057201,-0.965494, 0.002302, 0.000639,-0.009707, 1.844114, 0.448644, 0.330438,1,-0.007718, 0.016560, 0.050357,1,-0.379064,-0.112490, 9.798676,1,0
1778779986713,  1022.330,  1022.330, 0.211179, 0.075518,-0.978004, 0.002024, 0.000807,-0.009747, 1.692354, 0.628300, 0.207750,1, 0.006734,-0.000005, 0.043166,1,-0.378617,-0.112017, 9.798698,1,0
1778779986734,  1022.355,  1022.350, 0.207252, 0.041991,-0.955544, 0.002118, 0.000363,-0.009650, 1.714764, 0.606539, 0.250639,1, 0.031575, 0.000058, 0.044625,1,-0.377757,-0.108243, 9.798774,1,0
1778779986757,  1022.380,  1022.375, 0.208715, 0.047663,-0.946934, 0.002234, 0.000508,-0.009502, 1.666958, 0.369562, 0.512551,1, 0.025923,-0.014280, 0.041700,1,-0.379402,-0.096992, 9.798828,1,0
1778779986783,  1022.400,  1022.400, 0.214023, 0.065637,-0.948427, 0.002173, 0.000691,-0.009488, 1.719895, 0.548329, 0.497965,1, 0.006532,-0.006348, 0.043270,1,-0.378770,-0.095090, 9.798871,1,0
1778779986804,  1022.425,  1022.420, 0.203348, 0.070160,-1.010787, 0.002092, 0.000685,-0.010078, 1.836715, 0.287736, 0.021894,1, 0.001745,-0.021474, 0.038225,1,-0.375657,-0.094515, 9.798997,1,0
1778779986827,  1022.450,  1022.445, 0.185267, 0.021173,-0.984252, 0.001880, 0.000151,-0.009880, 1.445989, 0.121324, 0.147040,1, 0.041580,-0.005124, 0.052983,1,-0.370715,-0.084957, 9.799273,1,0
1778779986853,  1022.470,  1022.470, 0.180718, 0.004210,-0.989056, 0.001935, 0.000107,-0.009885, 1.404401,-0.038702, 0.100093,1, 0.012739,-0.034512, 0.057754,1,-0.366777,-0.079520, 9.799466,1,0
1778779986874,  1022.495,  1022.490, 0.173942, 0.000102,-0.969852, 0.001692,-0.000148,-0.009667, 1.656869, 0.231471, 0.129194,1, 0.008175,-0.005875, 0.060622,1,-0.366263,-0.075765, 9.799515,1,0
1778779986897,  1022.520,  1022.520, 0.180906, 0.027610,-0.992466, 0.001770, 0.000269,-0.009900, 1.408677, 0.191840, 0.066753,1,-0.026323,-0.003196, 0.054545,1,-0.365316,-0.079681, 9.799520,1,0
1778779986923,  1022.540,  1022.540, 0.173966, 0.037935,-0.971583, 0.001708, 0.000327,-0.009738, 1.338720, 0.288887, 0.271440,1,-0.005684, 0.021858, 0.051874,1,-0.368004,-0.083246, 9.799389,1,0
1778779986944,  1022.565,  1022.560, 0.185796, 0.045143,-0.997248, 0.001795, 0.000600,-0.009936, 1.204352, 0.130917, 0.261709,1,-0.021009,-0.002995, 0.056327,1,-0.369011,-0.086060, 9.799327,1,0
1778779986971,  1022.590,  1022.590, 0.181110, 0.060260,-0.986312, 0.001761, 0.000557,-0.009824, 1.404852, 0.502887, 0.126805,1,-0.002151, 0.005026, 0.044904,1,-0.371403,-0.088075, 9.799219,1,0
1778779986993,  1022.615,  1022.610, 0.166977, 0.075110,-0.991896, 0.001655, 0.000710,-0.009926, 1.020895, 0.344568, 0.087453,1, 0.002142, 0.007793, 0.048610,1,-0.370901,-0.088774, 9.799232,1,0
1778779987015,  1022.635,  1022.630, 0.155235, 0.085433,-1.004082, 0.001583, 0.000718,-0.010064, 1.300054, 0.341778,-0.028907,1, 0.025745,-0.006805, 0.047638,1,-0.371996,-0.083386, 9.799237,1,0
1778779987042,  1022.660,  1022.660, 0.180991, 0.040889,-0.983904, 0.001835, 0.000352,-0.009862, 1.401796, 0.331712, 0.150498,1, 0.056775, 0.003345, 0.040643,1,-0.373231,-0.067449, 9.799313,1,0
1778779987063,  1022.685,  1022.680, 0.181494, 0.031836,-0.994321, 0.001898, 0.000241,-0.009989, 1.511853, 0.204632,-0.029328,1, 0.041829,-0.004175, 0.034831,1,-0.372089,-0.057377, 9.799420,1,0
1778779987085,  1022.705,  1022.700, 0.186899,-0.004181,-0.980463, 0.001839, 0.000002,-0.009817, 1.356449, 0.331747, 0.097123,1, 0.032178, 0.005901, 0.033536,1,-0.371420,-0.051695, 9.799478,1,0
1778779987112,  1022.730,  1022.730, 0.181757, 0.022192,-0.989682, 0.001869, 0.000270,-0.009908, 1.411834, 0.165546, 0.094041,1,-0.022922,-0.011533, 0.035480,1,-0.370235,-0.052752, 9.799517,1,0
1778779987133,  1022.755,  1022.750, 0.207909, 0.039156,-1.004023, 0.002131, 0.000488,-0.009995, 1.706122, 0.179269, 0.221717,1,-0.014115,-0.006353, 0.034490,1,-0.370983,-0.055553, 9.799473,1,0
1778779987155,  1022.775,  1022.770, 0.209141, 0.057773,-0.972584, 0.001982, 0.000568,-0.009713, 1.221857,-0.064890, 0.129912,1, 0.004067,-0.003104, 0.039166,1,-0.367644,-0.056014, 9.799596,1,0
1778779987182,  1022.800,  1022.800, 0.168909, 0.012757,-0.964458, 0.001648, 0.000040,-0.009640, 1.289685, 0.073335, 0.341551,1, 0.002850,-0.000775, 0.035456,1,-0.366725,-0.051642, 9.799655,1,0
1778779987203,  1022.825,  1022.820, 0.173334, 0.040619,-0.992209, 0.001734, 0.000284,-0.009884, 1.613382,-0.098257, 0.189623,1,-0.006947,-0.014895, 0.039010,1,-0.366902,-0.049998, 9.799657,1,0
1778779987225,  1022.845,  1022.840, 0.173700,-0.003907,-1.023461, 0.001800,-0.000030,-0.010253, 1.501764, 0.168831,-0.239350,1,-0.001150,-0.003016, 0.035165,1,-0.365071,-0.051551, 9.799717,1,0
1778779987252,  1022.870,  1022.870, 0.160990, 0.007585,-1.019543, 0.001605, 0.000160,-0.010217, 1.213837, 0.020621,-0.198591,1,-0.011452, 0.005669, 0.036480,1,-0.365120,-0.054079, 9.799702,1,0
1778779987273,  1022.895,  1022.890, 0.155264,-0.017634,-1.014175, 0.001556,-0.000205,-0.010174, 1.178224, 0.027721,-0.105600,1,-0.043199, 0.004076, 0.030825,1,-0.366404,-0.061492, 9.799610,1,0
1778779987295,  1022.915,  1022.910, 0.160717, 0.032627,-1.023861, 0.001696, 0.000291,-0.010295, 1.288539,-0.059372,-0.192786,1,-0.072554, 0.001489, 0.032330,1,-0.367156,-0.074105, 9.799495,1,0
1778779987322,  1022.940,  1022.940, 0.159854, 0.066907,-0.977264, 0.001531, 0.000559,-0.009762, 1.197408, 0.567326, 0.215568,1,-0.033312, 0.015941, 0.019144,1,-0.370729,-0.089828, 9.799229,1,0
1778779987343,  1022.965,  1022.960, 0.138725, 0.066151,-0.999104, 0.001295, 0.000543,-0.009958, 0.707095, 0.222377, 0.056764,1,-0.055015,-0.017566, 0.023313,1,-0.366525,-0.099623, 9.799292,1,0
1778779987365,  1022.985,  1022.980, 0.118016, 0.043149,-1.054713, 0.001287, 0.000360,-0.010541, 1.230303, 0.542168,-0.335882,1,-0.001635,-0.036761, 0.019091,1,-0.363362,-0.102375, 9.799381,1,0
1778779987392,  1023.010,  1023.010, 0.136504, 0.016915,-1.065695, 0.001379, 0.000208,-0.010677, 0.983279, 0.075834,-0.651103,1, 0.082902,-0.025358, 0.016106,1,-0.354584,-0.087439, 9.799848,1,0
1778779987414,  1023.035,  1023.030, 0.124545,-0.012792,-0.919855, 0.001221,-0.000056,-0.009270, 0.637458, 0.180522, 0.096566,1, 0.087505, 0.022171, 0.020711,1,-0.353035,-0.071087, 9.800035,1,0
1778779987435,  1023.055,  1023.055, 0.109997,-0.000103,-0.904196, 0.001187, 0.000086,-0.009067, 0.720305,-0.064863, 0.932756,1,-0.040737,-0.005703, 0.023273,1,-0.358219,-0.065100, 9.799889,1,0
1778779987462,  1023.080,  1023.080, 0.154175, 0.029855,-0.924527, 0.001572, 0.000265,-0.009224, 1.151846, 0.215012, 0.733210,1,-0.095071,-0.006483, 0.021849,1,-0.359894,-0.080705, 9.799711,1,0
1778779987484,  1023.105,  1023.100, 0.140112, 0.090553,-0.963190, 0.001370, 0.000956,-0.009621, 0.622800, 0.312079, 0.471704,1,-0.064764,-0.000225, 0.025901,1,-0.356524,-0.097759, 9.799680,1,0
1778779987506,  1023.125,  1023.125, 0.059572, 0.109511,-0.958231, 0.000673, 0.000957,-0.009654, 0.231587, 0.977993, 0.402798,1, 0.054768,-0.001952, 0.026913,1,-0.352564,-0.094206, 9.799857,1,0
1778779987532,  1023.150,  1023.150, 0.137121, 0.072188,-0.966553, 0.001463, 0.000621,-0.009661, 0.990967, 0.626304, 0.321276,1, 0.044374,-0.026276, 0.024045,1,-0.352919,-0.080207, 9.799970,1,0
1778779987554,  1023.175,  1023.170, 0.136339, 0.066306,-1.008565, 0.001398, 0.000634,-0.010018, 0.746486, 0.452113, 0.003135,1, 0.073468, 0.020555, 0.022927,1,-0.351977,-0.068044, 9.800096,1,0
1778779987576,  1023.195,  1023.195, 0.048259, 0.032257,-1.050586, 0.000455, 0.000389,-0.010523, 0.125894, 0.262816,-0.502374,1, 0.066151, 0.004476, 0.018618,1,-0.347506,-0.051433, 9.800356,1,0
1778779987602,  1023.220,  1023.220, 0.047267,-0.006001,-1.055520, 0.000564,-0.000019,-0.010524, 0.115824,-0.100898,-0.550722,1, 0.039015,-0.019266, 0.022920,1,-0.347109,-0.040808, 9.800420,1,0
1778779987624,  1023.245,  1023.240, 0.011977,-0.044543,-0.992718, 0.000214,-0.000325,-0.009932,-0.098267,-0.134334,-0.092692,1, 0.025676, 0.023993, 0.023414,1,-0.349863,-0.034117, 9.800347,1,0
1778779987647,  1023.265,  1023.265, 0.051976, 0.019085,-1.016362, 0.000418, 0.000172,-0.010157, 0.163059, 0.140349,-0.166696,1,-0.078932,-0.004200, 0.026668,1,-0.346523,-0.049246, 9.800402,1,0
1778779987672,  1023.290,  1023.290, 0.031947, 0.008193,-0.979344, 0.000321, 0.000033,-0.009831,-0.032722, 0.017227, 0.196256,1,-0.073058, 0.006966, 0.024953,1,-0.346234,-0.065374, 9.800318,1,0
1778779987694,  1023.315,  1023.310,-0.017966, 0.020698,-1.056308,-0.000213, 0.000141,-0.010484,-0.480747,-0.091427,-0.006497,1,-0.073659,-0.053901, 0.027454,1,-0.340336,-0.077892, 9.800433,1,0
1778779987717,  1023.335,  1023.335, 0.061959, 0.036707,-1.030195, 0.000474, 0.000342,-0.010358, 0.275172, 0.274626,-0.302121,1, 0.029163, 0.027932, 0.022182,1,-0.333318,-0.084412, 9.800620,1,0
1778779987742,  1023.360,  1023.360, 0.033885, 0.019019,-0.878667, 0.000367, 0.000270,-0.008839,-0.007579, 0.114979, 1.183720,1, 0.077903, 0.025876, 0.023723,1,-0.340694,-0.069077, 9.800487,1,0
1778779987764,  1023.385,  1023.380, 0.025667,-0.010636,-0.982754, 0.000185,-0.000127,-0.009780,-0.431349,-0.080280, 0.690646,1,-0.029045,-0.031027, 0.022836,1,-0.337864,-0.068404, 9.800590,1,0
1778779987787,  1023.410,  1023.405, 0.069549, 0.046905,-0.979675, 0.000709, 0.000350,-0.009794, 0.344868, 0.375896, 0.193159,1,-0.045265, 0.009090, 0.020910,1,-0.337467,-0.085472, 9.800469,1,0
1778779987812,  1023.430,  1023.430, 0.016962, 0.046303,-1.007472, 0.000127, 0.000395,-0.010025,-0.170225, 0.368677,-0.079429,1, 0.028465,-0.005563, 0.021513,1,-0.336400,-0.084486, 9.800514,1,0
1778779987834,  1023.455,  1023.450, 0.019510, 0.049828,-1.020435, 0.000240, 0.000430,-0.010214, 0.074597, 0.245618,-0.237245,1, 0.054317,-0.012854, 0.020382,1,-0.335022,-0.072960, 9.800654,1,0
1778779987857,  1023.480,  1023.475, 0.048906, 0.007974,-1.042046, 0.000579, 0.000101,-0.010498, 0.145298, 0.025904,-0.418173,1, 0.105403, 0.006924, 0.019556,1,-0.334522,-0.048989, 9.800820,1,0
1778779987883,  1023.500,  1023.500, 0.000333,-0.013318,-1.021501, 0.000001,-0.000075,-0.010276,-0.331867,-0.163655,-0.216641,1, 0.086528, 0.018757, 0.021536,1,-0.335724,-0.030328, 9.800855,1,0
1778779987904,  1023.525,  1023.520, 0.031310,-0.053431,-0.953263, 0.000375,-0.000523,-0.009521, 0.520419, 0.106669, 0.371355,1,-0.011787, 0.013213, 0.017859,1,-0.341570,-0.025547, 9.800667,1,0
1778779987927,  1023.550,  1023.545, 0.045809,-0.039446,-0.993052, 0.000491,-0.000258,-0.009888, 0.105391,-0.421890, 0.062041,1,-0.037307,-0.007397, 0.030603,1,-0.343610,-0.036187, 9.800562,1,0
1778779987953,  1023.570,  1023.570, 0.016381, 0.030878,-0.981255, 0.000138, 0.000333,-0.009833,-0.181946, 0.259581, 0.177741,1,-0.033954, 0.002172, 0.030912,1,-0.342472,-0.044460, 9.800568,1,0
1778779987974,  1023.595,  1023.590, 0.060320, 0.051144,-1.017388, 0.000511, 0.000613,-0.010065, 0.192435, 0.207560, 0.121587,1,-0.069360,-0.032209, 0.026756,1,-0.338951,-0.056374, 9.800629,1,0
1778779987997,  1023.620,  1023.615,-0.024926, 0.017491,-1.051944,-0.000187, 0.000210,-0.010475,-0.575029, 0.112806,-0.515146,1, 0.023571,-0.037778, 0.029389,1,-0.329417,-0.057951, 9.800944,1,0
1778779988023,  1023.640,  1023.640, 0.008297, 0.017422,-1.051189, 0.000025, 0.000160,-0.010526,-0.245344, 0.118616,-0.507577,1, 0.035985,-0.009427, 0.018414,1,-0.326417,-0.051091, 9.801083,1,0
1778779988044,  1023.665,  1023.660, 0.073316,-0.021258,-0.943533, 0.000764,-0.000233,-0.009461, 0.027990, 0.104114, 0.349855,1, 0.026534, 0.032956, 0.016418,1,-0.330062,-0.044316, 9.800994,1,0
1778779988067,  1023.690,  1023.685, 0.033526,-0.012654,-0.980461, 0.000318,-0.000076,-0.009811,-0.001554,-0.178312, 0.185897,1,-0.053473, 0.011183, 0.023734,1,-0.330682,-0.055859, 9.800914,1,0
1778779988093,  1023.710,  1023.710, 0.069089,-0.000033,-0.977138, 0.000644,-0.000011,-0.009774, 0.013159, 0.342945, 0.089884,1,-0.049226,-0.019531, 0.020341,1,-0.331144,-0.066290, 9.800834,1,0
1778779988114,  1023.735,  1023.730, 0.056957, 0.003906,-1.056498, 0.000742, 0.000174,-0.010525,-0.189825, 0.499175, 0.008440,1,-0.004227, 0.007663, 0.008018,1,-0.331174,-0.069805, 9.800808,1,0
1778779988137,  1023.760,  1023.760, 0.084186, 0.076390,-1.014868, 0.000663, 0.000899,-0.010193, 0.496072, 0.677605,-0.151606,1, 0.061760, 0.068516, 0.014332,1,-0.331656,-0.069585, 9.800793,1,0
1778779988163,  1023.780,  1023.780,-0.035951, 0.011509,-0.948796,-0.000303, 0.000062,-0.009429,-0.686370, 0.049161, 0.496246,1, 0.025350, 0.004702, 0.014370,1,-0.333946,-0.062916, 9.800760,1,0
1778779988185,  1023.805,  1023.800, 0.040132, 0.034471,-1.039963, 0.000409, 0.000149,-0.010448,-0.195810, 0.011891,-0.091741,1,-0.043360,-0.013413, 0.016705,1,-0.333607,-0.066662, 9.800747,1,0
1778779988211,  1023.830,  1023.830, 0.049390, 0.025787,-0.996085, 0.000562, 0.000189,-0.010032, 0.148775, 0.181417, 0.032391,1, 0.033274, 0.015027, 0.024139,1,-0.336048,-0.070398, 9.800637,1,0
1778779988233,  1023.855,  1023.850, 0.098306, 0.010328,-0.948798, 0.000880,-0.000044,-0.009551, 0.024653,-0.372588, 0.120589,1, 0.032280,-0.002999, 0.031142,1,-0.335130,-0.062274, 9.800724,1,0
1778779988255,  1023.875,  1023.870,-0.074735,-0.096479,-0.861601,-0.000599,-0.001080,-0.008618, 0.115564,-0.946025, 1.050003,1, 0.007497,-0.007446, 0.035528,1,-0.336525,-0.057595, 9.800705,1,0
1778779988282,  1023.900,  1023.900,-0.058384, 0.009071,-1.075711,-0.000642,-0.000003,-0.010430,-0.892150, 0.001081,-0.748077,1,-0.261878,-0.177754,-0.002745,1,-0.314053,-0.096044, 9.801149,1,0
1778779988303,  1023.925,  1023.920, 0.140075, 0.106628,-0.922070, 0.001568, 0.001245,-0.009669, 0.602226, 0.511415,-1.816439,1,-0.091649, 0.090585, 0.032125,1,-0.303202,-0.133558, 9.801052,1,0
1778779988325,  1023.945,  1023.940,-0.018654,-0.030797,-0.771405,-0.000131,-0.000503,-0.007447, 0.323218,-0.832692, 2.646025,1, 0.179315, 0.095874, 0.051625,1,-0.334612,-0.105193, 9.800375,1,0
1778779988352,  1023.970,  1023.970,-0.033129, 0.089484,-1.036678,-0.000722, 0.000904,-0.010228,-0.633660, 0.767695,-0.365170,1,-0.114503,-0.049403,-0.003020,1,-0.306979,-0.113171, 9.801190,1,0
1778779988373,  1023.995,  1023.990, 0.096206, 0.092165,-0.982361, 0.000946, 0.000843,-0.009821, 0.893901, 0.810669, 0.096273,1,-0.051272,-0.021273, 0.014842,1,-0.304133,-0.130183, 9.801068,1,0
1778779988395,  1024.015,  1024.010,-0.061161,-0.005889,-0.978633,-0.000508,-0.000012,-0.009786, 0.032735, 0.397816, 0.169141,1, 0.162182,-0.026139, 0.024120,1,-0.300972,-0.110102, 9.801412,1,0
1778779988422,  1024.040,  1024.040, 0.019418, 0.079373,-1.053815, 0.000132, 0.000757,-0.010473,-0.098312, 0.701661,-0.532300,1, 0.050314,-0.048365, 0.002449,1,-0.287231,-0.075146, 9.802155,1,0
1778779988443,  1024.065,  1024.060, 0.031048, 0.051814,-0.956991, 0.000420, 0.000650,-0.009616,-0.197580, 0.677705, 0.064784,1, 0.085640, 0.044541, 0.013962,1,-0.288102,-0.064667, 9.802204,1,0
1778779988465,  1024.085,  1024.080, 0.022144,-0.006845,-1.049513, 0.000105,-0.000170,-0.010483,-0.570444,-0.180087, 0.090531,1, 0.031206,-0.079211, 0.028573,1,-0.280494,-0.052228, 9.802499,1,0
1778779988492,  1024.110,  1024.110, 0.068211,-0.011135,-1.023627, 0.000706,-0.000134,-0.010223, 0.395488,-0.156327,-0.235626,1, 0.028321,-0.006970, 0.017046,1,-0.273223,-0.046229, 9.802734,1,0
1778779988513,  1024.135,  1024.130,-0.073507,-0.027045,-1.030756,-0.000769,-0.000380,-0.010309,-0.779429,-0.349560,-0.357921,1, 0.045205,-0.019956, 0.020704,1,-0.270064,-0.036608, 9.802862,1,0
1778779988535,  1024.155,  1024.150, 0.039781,-0.042941,-0.999139, 0.000303,-0.000501,-0.010069,-0.584087,-0.341741,-0.229904,1,-0.018652,-0.018632, 0.025595,1,-0.265730,-0.036895, 9.802979,1,0
1778779988562,  1024.180,  1024.180, 0.077502,-0.011537,-0.918976, 0.000864,-0.000110,-0.009225, 0.487883,-0.165885, 0.790652,1,-0.045622, 0.033642, 0.018900,1,-0.273198,-0.054160, 9.802694,1,0
1778779988583,  1024.205,  1024.200,-0.061864,-0.014510,-1.016324,-0.000537,-0.000231,-0.010180,-0.534044,-0.237171, 0.195510,1,-0.062130,-0.033480, 0.023740,1,-0.271296,-0.064213, 9.802687,1,0
1778779988605,  1024.225,  1024.220, 0.027247, 0.006760,-1.003787, 0.000287, 0.000191,-0.010128,-0.441140, 0.190514,-0.275660,1,-0.070041, 0.006787, 0.015434,1,-0.267682,-0.079586, 9.802673,1,0
1778779988632,  1024.250,  1024.250, 0.035940, 0.022577,-0.998137, 0.000385, 0.000266,-0.009955, 0.081019, 0.134925, 0.014126,1, 0.025445, 0.004643, 0.016733,1,-0.271579,-0.085671, 9.802514,1,0
1778779988654,  1024.275,  1024.270,-0.020124, 0.027578,-1.001360,-0.000225, 0.000344,-0.010056,-0.434927,-0.022080,-0.249413,1, 0.054571, 0.003042, 0.017812,1,-0.271538,-0.075457, 9.802600,1,0
1778779988675,  1024.295,  1024.295,-0.003767, 0.053490,-0.962170, 0.000069, 0.000552,-0.009640,-0.310755, 0.455026, 0.366917,1,-0.001978,-0.007327, 0.019548,1,-0.273590,-0.069578, 9.802586,1,0
1778779988702,  1024.320,  1024.320, 0.033227, 0.026884,-1.016037, 0.000380, 0.000116,-0.010121, 0.055171, 0.193078,-0.161255,1, 0.002850,-0.032826, 0.011655,1,-0.269652,-0.070467, 9.802689,1,0
1778779988724,  1024.345,  1024.340,-0.064871,-0.036285,-0.967671,-0.000684,-0.000202,-0.009677,-0.948874, 0.022400, 0.064210,1, 0.087483, 0.011267, 0.018318,1,-0.267315,-0.058516, 9.802832,1,0
1778779988746,  1024.365,  1024.365, 0.049470,-0.046013,-1.088449, 0.000459,-0.000354,-0.010755, 0.227816,-0.507964,-0.870926,1,-0.090791,-0.077688, 0.019877,1,-0.254767,-0.059234, 9.803162,1,0
1778779988772,  1024.390,  1024.390,-0.008212, 0.000860,-1.003823,-0.000103, 0.000147,-0.010163,-0.335344,-0.050038,-0.040978,1, 0.090119, 0.053736, 0.025845,1,-0.256489,-0.055637, 9.803138,1,0
1778779988794,  1024.415,  1024.410,-0.114085, 0.014135,-1.058235,-0.001274, 0.000319,-0.010575,-0.989106,-0.055559,-0.251223,1,-0.000205,-0.096930, 0.022903,1,-0.249218,-0.045387, 9.803378,1,0
1778779988816,  1024.435,  1024.435, 0.081734, 0.051430,-0.966790, 0.000906, 0.000471,-0.009680, 0.552993, 0.458951, 0.322421,1,-0.014673,-0.016619, 0.022441,1,-0.248032,-0.045845, 9.803406,1,0
1778779988842,  1024.460,  1024.460,-0.034398, 0.025069,-0.961685,-0.000407, 0.000120,-0.009590,-0.581940, 0.201709, 0.372594,1, 0.045156,-0.003582, 0.015553,1,-0.244503,-0.042709, 9.803509,1,0
1778779988864,  1024.485,  1024.480,-0.030365,-0.004954,-0.982183,-0.000355,-0.000047,-0.009985,-0.546709,-0.330752,-0.509315,1, 0.008047,-0.049594, 0.014459,1,-0.233459,-0.037989, 9.803797,1,0
1778779988887,  1024.505,  1024.505, 0.007247,-0.062566,-0.799725, 0.000286,-0.000419,-0.007937,-0.187197,-0.629447, 1.960606,1, 0.054766, 0.088387, 0.034413,1,-0.261026,-0.014151, 9.803165,1,0
