Time,GPS_ts,fGPS_ts,scaledAccelX,scaledAccelY,scaledAccelZ,deltaVelX,deltaVelY,deltaVelZ,estLinearAccelX,estLinearAccelY,estLinearAccelZ,estLinearAccel:valid,estAngularRateX,estAngularRateY,estAngularRateZ,estAngularRate:valid,estGravityX,estGravityY,estGravityZ,estGravity:valid,flag
1778781185762,  2183.678,  2183.678, 0.034842,-0.001712,-0.997048, 0.000355,-0.000024,-0.010035, 0.028821, 0.026110, 0.023861,1, 0.008099, 0.016776, 0.000259,1,-0.313391, 0.043156, 9.801546,1,0
1778781185762,  2183.703,  2183.698, 0.025989,-0.007044,-1.006884, 0.000269,-0.000064,-0.010019,-0.030385, 0.006488, 0.268690,1,-0.005860,-0.011721, 0.000869,1,-0.313808, 0.043234, 9.801533,1,0
1778781185762,  2183.723,  2183.723, 0.032993,-0.002986,-1.003380, 0.000328,-0.000045,-0.010094, 0.011160, 0.014101,-0.038219,1, 0.006570, 0.016673,-0.000601,1,-0.312906, 0.043590, 9.801559,1,0
1778781185762,  2183.748,  2183.748, 0.032714,-0.003743,-0.973399, 0.000320,-0.000034,-0.009689, 0.006790, 0.006822, 0.255740,1,-0.005951,-0.008687,-0.000155,1,-0.313752, 0.043340, 9.801534,1,0
1778781185762,  2183.773,  2183.768, 0.031188,-0.002453,-0.996390, 0.000312,-0.000036,-0.010027, 0.016179,-0.030133,-0.257263,1, 0.004501, 0.002007,-0.000966,1,-0.311720, 0.043225, 9.801600,1,0
1778781185763,  2183.798,  2183.798, 0.028492,-0.004536,-0.980812, 0.000279,-0.000047,-0.009745,-0.034635,-0.001130, 0.183040,1,-0.014506,-0.016146,-0.000460,1,-0.313538, 0.042897, 9.801542,1,0
1778781185763,  2183.823,  2183.818, 0.038094,-0.003047,-0.991561, 0.000380,-0.000036,-0.009982, 0.038184,-0.010430,-0.279131,1, 0.007365, 0.008196,-0.000239,1,-0.311950, 0.042462, 9.801595,1,0
1778781185763,  2183.848,  2183.843, 0.031569,-0.005024,-0.979869, 0.000316,-0.000049,-0.009748,-0.004762,-0.004957, 0.192281,1,-0.005313,-0.014566,-0.000077,1,-0.313886, 0.044129, 9.801526,1,0
1778781185763,  2183.873,  2183.868, 0.031585,-0.001729,-0.986845, 0.000320,-0.000025,-0.009923,-0.004967,-0.018720,-0.176635,1, 0.002912, 0.006586, 0.000753,1,-0.312588, 0.043863, 9.801569,1,0
1778781185763,  2183.893,  2183.888, 0.031660,-0.004862,-0.991844, 0.000317,-0.000041,-0.009864,-0.010006, 0.018367, 0.283168,1,-0.000789, 0.000492, 0.000252,1,-0.314553, 0.044542, 9.801503,1,0
1778781185763,  2183.913,  2183.908, 0.035136,-0.006226,-1.018204, 0.000351,-0.000071,-0.010226,-0.007089,-0.033254,-0.219073,1, 0.000668,-0.010135,-0.000107,1,-0.311750, 0.043751, 9.801596,1,0
1778781185775,  2221.378,  2221.378, 0.020279,-0.003673,-0.979716, 0.000201,-0.000032,-0.009753,-0.033136,-0.041029, 0.196173,1,-0.006719,-0.012038, 0.000405,1,-0.231630,-0.005219, 9.803913,1,0
1778781185796,  2221.403,  2221.398, 0.025055, 0.005891,-0.994877, 0.000262, 0.000061,-0.010012, 0.032518, 0.008857,-0.237718,1,-0.000446, 0.004831,-0.000348,1,-0.229954,-0.006670, 9.803951,1,0
1778781185818,  2221.423,  2221.418, 0.018113,-0.001459,-0.978066, 0.000184,-0.000015,-0.009735,-0.030734, 0.008193, 0.324198,1, 0.004640, 0.009099, 0.001509,1,-0.233300,-0.004982, 9.803873,1,0
1778781185845,  2221.448,  2221.448, 0.028733, 0.000948,-1.025453, 0.000283, 0.000001,-0.010286, 0.051745, 0.002692,-0.252313,1, 0.004056, 0.006899,-0.001377,1,-0.230187,-0.006394, 9.803946,1,0
1778781185866,  2221.473,  2221.468, 0.019662, 0.001413,-0.974831, 0.000196, 0.000019,-0.009691, 0.005763, 0.026920, 0.371429,1, 0.002705, 0.008755,-0.000276,1,-0.233625,-0.004596, 9.803865,1,0
1778781185889,  2221.493,  2221.493, 0.025408, 0.000786,-1.025882, 0.000249, 0.000007,-0.010277, 0.019127, 0.000458,-0.256517,1, 0.000399, 0.004940,-0.000676,1,-0.230196,-0.007233, 9.803946,1,0
1778781185915,  2221.518,  2221.518, 0.022461, 0.001334,-0.967910, 0.000228, 0.000019,-0.009690,-0.012966, 0.007730, 0.311915,1, 0.006175, 0.008162, 0.000735,1,-0.233492,-0.005163, 9.803868,1,0
1778781185936,  2221.543,  2221.538, 0.029785, 0.001456,-1.021870, 0.000292, 0.000009,-0.010248, 0.018954,-0.009013,-0.149547,1,-0.009226,-0.016475,-0.001083,1,-0.230281,-0.006945, 9.803944,1,0
1778781185959,  2221.563,  2221.563, 0.021550, 0.000312,-0.964252, 0.000223, 0.000012,-0.009655,-0.021876,-0.001985, 0.347791,1, 0.005110, 0.006115, 0.001623,1,-0.233399,-0.004881, 9.803871,1,0
1778781185985,  2221.588,  2221.588, 0.018680,-0.002472,-1.019010, 0.000186,-0.000027,-0.010151,-0.047124,-0.030685,-0.189136,1,-0.008339,-0.018699,-0.000671,1,-0.229726,-0.006705, 9.803957,1,0
1778781186006,  2221.613,  2221.608, 0.021456, 0.000646,-0.968697, 0.000222, 0.000014,-0.009703, 0.003285, 0.011431, 0.044935,1, 0.013422, 0.020152, 0.000833,1,-0.231895,-0.005144, 9.803906,1,0
1778781186029,  2221.633,  2221.633, 0.024331,-0.002275,-1.013694, 0.000243,-0.000023,-0.010104, 0.008053,-0.028363,-0.137005,1,-0.008548,-0.013105, 0.000341,1,-0.230148,-0.006316, 9.803946,1,0
1778781186055,  2221.658,  2221.658, 0.023916, 0.000120,-0.990135, 0.000242, 0.000003,-0.009946, 0.002705,-0.004010, 0.093998,1, 0.013035, 0.017739, 0.000461,1,-0.232381,-0.004785, 9.803895,1,0
1778781186077,  2221.683,  2221.678, 0.023046, 0.000166,-1.017175, 0.000219, 0.000002,-0.010144,-0.040765,-0.006549, 0.101906,1,-0.015140,-0.015128, 0.000445,1,-0.231660,-0.005704, 9.803912,1,0
1778781186099,  2221.703,  2221.703, 0.030263, 0.003183,-0.988766, 0.000306, 0.000032,-0.009931, 0.064577, 0.024846, 0.107417,1, 0.011570, 0.017817, 0.000238,1,-0.232757,-0.006007, 9.803885,1,0
1778781186125,  2221.728,  2221.728, 0.021090,-0.000830,-0.984159, 0.000210,-0.000005,-0.009794,-0.025908,-0.013724, 0.152584,1,-0.004401,-0.013272,-0.000132,1,-0.232314,-0.005718, 9.803896,1,0
1778781186147,  2221.753,  2221.748, 0.023889, 0.003603,-0.988092, 0.000244, 0.000037,-0.009931, 0.024613, 0.001996,-0.157516,1, 0.002968, 0.006898,-0.000461,1,-0.231366,-0.006247, 9.803918,1,0
1778781186170,  2221.773,  2221.773, 0.019743,-0.001822,-0.988269, 0.000195,-0.000015,-0.009829,-0.038638,-0.023893, 0.112290,1,-0.009781,-0.019153, 0.000422,1,-0.231654,-0.006327, 9.803911,1,0
1778781186195,  2221.798,  2221.798, 0.023815,-0.002952,-1.022323, 0.000236,-0.000030,-0.010189, 0.052436, 0.012007,-0.220127,1, 0.007500, 0.010478,-0.000404,1,-0.230531,-0.006566, 9.803938,1,0
1778781186217,  2221.823,  2221.818, 0.016507,-0.002872,-0.983190, 0.000162,-0.000022,-0.009771,-0.023965,-0.001316, 0.356296,1, 0.003700, 0.002660, 0.000101,1,-0.233396,-0.004339, 9.803871,1,0
1778781186240,  2221.848,  2221.843, 0.017419,-0.002810,-1.018238, 0.000170,-0.000029,-0.010145,-0.010516,-0.017163,-0.229201,1, 0.001984, 0.009126,-0.000951,1,-0.230246,-0.005818, 9.803945,1,0
1778781186265,  2221.868,  2221.868, 0.023302, 0.000695,-0.969824, 0.000229, 0.000008,-0.009700,-0.004479, 0.001902, 0.293154,1,-0.000837, 0.006420, 0.000184,1,-0.233193,-0.004941, 9.803876,1,0
1778781186287,  2221.893,  2221.888, 0.029892, 0.002639,-1.010624, 0.000297, 0.000021,-0.010139, 0.040617, 0.002684,-0.121958,1,-0.007009,-0.009160,-0.001212,1,-0.230922,-0.006809, 9.803928,1,0
1778781186310,  2221.918,  2221.913, 0.016754, 0.000306,-0.967271, 0.000175, 0.000003,-0.009665,-0.069230,-0.001696, 0.318179,1, 0.002448,-0.000030, 0.000797,1,-0.233526,-0.004622, 9.803868,1,0
1778781186335,  2221.938,  2221.938, 0.019260,-0.001785,-1.022321, 0.000182,-0.000019,-0.010194,-0.041640,-0.024006,-0.221606,1,-0.011869,-0.014680,-0.000062,1,-0.230062,-0.006874, 9.803948,1,0
1778781186357,  2221.963,  2221.958, 0.027065, 0.002058,-0.967062, 0.000283, 0.000030,-0.009686, 0.069756, 0.043766, 0.074616,1, 0.009965, 0.020265, 0.000032,1,-0.232600,-0.006142, 9.803889,1,0
1778781186380,  2221.988,  2221.983, 0.021673,-0.003837,-1.012080, 0.000219,-0.000038,-0.010087,-0.018816,-0.043667,-0.121198,1,-0.003890,-0.013470,-0.000315,1,-0.230932,-0.006156, 9.803928,1,0
1778781186405,  2222.008,  2222.008, 0.023581,-0.001117,-0.991290, 0.000238, 0.000001,-0.009961,-0.001253,-0.016505, 0.082656,1, 0.005963, 0.015832, 0.000752,1,-0.232997,-0.005367, 9.803881,1,0
1778781186427,  2222.033,  2222.028, 0.020384, 0.005679,-1.020924, 0.000186, 0.000090,-0.010165, 0.082309, 0.080595, 0.186416,1,-0.017594,-0.030385,-0.002189,1,-0.231005,-0.007402, 9.803926,1,0
1778781186450,  2222.058,  2222.053, 0.029871,-0.000690,-0.992747, 0.000330,-0.000022,-0.009966, 0.062997,-0.016661, 0.068429,1, 0.000036, 0.007947, 0.000841,1,-0.230191,-0.009893, 9.803943,1,0
1778781186476,  2222.078,  2222.078, 0.013027, 0.008190,-1.005149, 0.000097, 0.000121,-0.010019,-0.102552, 0.070721,-0.053210,1, 0.000096,-0.000468, 0.001596,1,-0.230286,-0.009591, 9.803941,1,0
1778781186497,  2222.103,  2222.098, 0.031408, 0.001111,-0.988933, 0.000302, 0.000029,-0.009966, 0.026469,-0.018138,-0.240144,1, 0.025034, 0.007256,-0.000630,1,-0.230087,-0.007873, 9.803947,1,0
1778781186520,  2222.128,  2222.123, 0.024307,-0.008447,-0.949830, 0.000261,-0.000085,-0.009436, 0.003985,-0.083597, 0.489196,1,-0.012433,-0.018557, 0.000135,1,-0.233804,-0.001152, 9.803863,1,0
1778781186546,  2222.148,  2222.148, 0.024051, 0.001390,-1.029706, 0.000244, 0.000002,-0.010308, 0.005952, 0.007338,-0.294016,1,-0.025577,-0.003641,-0.000133,1,-0.229798,-0.007095, 9.803955,1,0
1778781186567,  2222.173,  2222.168, 0.011437, 0.000629,-0.989153, 0.000108, 0.000010,-0.009839,-0.114898, 0.041036, 0.205331,1, 0.003962, 0.008788, 0.001589,1,-0.232617,-0.007396, 9.803888,1,0
1778781186594,  2222.198,  2222.198, 0.027670,-0.000011,-1.025561, 0.000262, 0.000002,-0.010292, 0.041277,-0.006392,-0.253369,1, 0.021775, 0.013500,-0.001902,1,-0.230495,-0.005608, 9.803939,1,0
1778781186616,  2222.218,  2222.218, 0.027755,-0.002659,-0.943596, 0.000283,-0.000022,-0.009449, 0.037336,-0.028016, 0.550322,1, 0.006320, 0.011895, 0.000438,1,-0.235221,-0.001742, 9.803828,1,0
1778781186637,  2222.243,  2222.238, 0.025575, 0.003340,-1.033088, 0.000250, 0.000028,-0.010346,-0.000466,-0.025448,-0.126162,1,-0.030006,-0.026580,-0.000275,1,-0.230510,-0.006671, 9.803938,1,0
1778781186664,  2222.268,  2222.268, 0.018218, 0.003351,-0.975352, 0.000186, 0.000038,-0.009768,-0.053428, 0.025334, 0.238969,1, 0.001276, 0.006004, 0.000835,1,-0.232276,-0.007485, 9.803896,1,0
1778781186686,  2222.293,  2222.288, 0.030557,-0.000152,-1.021137, 0.000303,-0.000000,-0.010249, 0.005741, 0.015441,-0.174624,1,-0.003223,-0.013427,-0.000425,1,-0.229287,-0.008600, 9.803966,1,0
1778781186707,  2222.313,  2222.308, 0.022405,-0.000381,-0.968335, 0.000240,-0.000004,-0.009694, 0.059696,-0.009178, 0.084271,1, 0.016212, 0.021735,-0.000188,1,-0.232045,-0.006155, 9.803903,1,0
1778781186734,  2222.338,  2222.338, 0.023493,-0.000600,-1.017479, 0.000232,-0.000008,-0.010138,-0.000478,-0.013145,-0.174132,1,-0.012555,-0.015287,-0.000336,1,-0.230386,-0.007656, 9.803941,1,0
1778781186756,  2222.363,  2222.358, 0.024197, 0.002482,-0.969015, 0.000247, 0.000032,-0.009697, 0.047408, 0.037446, 0.042982,1, 0.012202, 0.019001, 0.000674,1,-0.232550,-0.006889, 9.803890,1,0
1778781186777,  2222.383,  2222.378, 0.020285,-0.002741,-1.014012, 0.000198,-0.000028,-0.010095,-0.029231,-0.014541, 0.183488,1,-0.004586,-0.015243, 0.000013,1,-0.232295,-0.006167, 9.803897,1,0
1778781186804,  2222.408,  2222.408, 0.024134, 0.002866,-0.996649, 0.000245, 0.000026,-0.010018, 0.005105, 0.022040, 0.030125,1, 0.011572, 0.018226, 0.000174,1,-0.232137,-0.005706, 9.803901,1,0
1778781186826,  2222.433,  2222.428, 0.023629,-0.001970,-1.009875, 0.000233,-0.000024,-0.010056,-0.033736,-0.015568, 0.202996,1,-0.007423,-0.013333,-0.000103,1,-0.232093,-0.005791, 9.803902,1,0
1778781186847,  2222.453,  2222.448, 0.024231, 0.002384,-0.988890, 0.000249, 0.000025,-0.009948, 0.035832,-0.013148,-0.177089,1, 0.003948, 0.005004,-0.000843,1,-0.230465,-0.006626, 9.803939,1,0
1778781186874,  2222.478,  2222.478, 0.016720,-0.001579,-0.981172, 0.000170,-0.000017,-0.009760,-0.068166,-0.020719, 0.181894,1,-0.012556,-0.017295,-0.000081,1,-0.231597,-0.005631, 9.803913,1,0
1778781186896,  2222.503,  2222.498, 0.028598, 0.002664,-0.992852, 0.000297, 0.000028,-0.009992, 0.043024,-0.012452,-0.237188,1, 0.000327, 0.006162, 0.000022,1,-0.229867,-0.007201, 9.803953,1,0
1778781186918,  2222.523,  2222.518, 0.018953,-0.000411,-0.978845, 0.000188, 0.000002,-0.009737,-0.008112, 0.001153, 0.317818,1, 0.005445, 0.006825, 0.000579,1,-0.232863,-0.005382, 9.803884,1,0
1778781186945,  2222.548,  2222.548, 0.024545, 0.000915,-1.022431, 0.000242, 0.000002,-0.010245, 0.010813, 0.001824,-0.222675,1, 0.000140, 0.004781,-0.000553,1,-0.230042,-0.007142, 9.803949,1,0
1778781186966,  2222.573,  2222.568, 0.021993,-0.001151,-0.985598, 0.000214,-0.000009,-0.009795,-0.019204, 0.013415, 0.292783,1, 0.001788, 0.007157, 0.000881,1,-0.232951,-0.006002, 9.803881,1,0
1778781186988,  2222.593,  2222.588, 0.030154, 0.001533,-1.023847, 0.000296, 0.000006,-0.010274, 0.027772,-0.018860,-0.204545,1,-0.006245,-0.015718,-0.001101,1,-0.229729,-0.007671, 9.803956,1,0
1778781187015,  2222.618,  2222.618, 0.020375,-0.000614,-0.962516, 0.000214,-0.000001,-0.009632,-0.033203,-0.010818, 0.364826,1, 0.004295, 0.003706, 0.000437,1,-0.233126,-0.004667, 9.803878,1,0
1778781187036,  2222.643,  2222.638, 0.024321, 0.001090,-1.024966, 0.000242, 0.000008,-0.010290,-0.029975,-0.029172,-0.203062,1,-0.011366,-0.016478,-0.001415,1,-0.229583,-0.006905, 9.803960,1,0
1778781187058,  2222.663,  2222.658, 0.023227, 0.000646,-0.967760, 0.000245, 0.000010,-0.009685, 0.018035, 0.022830, 0.088783,1, 0.012066, 0.021206,-0.000167,1,-0.232135,-0.005671, 9.803901,1,0
1778781187085,  2222.688,  2222.688, 0.024452, 0.001370,-1.013056, 0.000243, 0.000018,-0.010106, 0.009263, 0.006587,-0.130749,1,-0.005722,-0.010339, 0.000061,1,-0.230207,-0.007023, 9.803946,1,0
1778781187106,  2222.713,  2222.708, 0.019438,-0.000503,-0.967693, 0.000200,-0.000005,-0.009670, 0.012952,-0.000460, 0.171177,1, 0.011441, 0.016528, 0.000223,1,-0.232760,-0.005389, 9.803885,1,0
1778781187129,  2222.733,  2222.733, 0.023846,-0.001962,-1.018680, 0.000232,-0.000025,-0.010160, 0.003304,-0.026081,-0.185901,1,-0.011789,-0.012587, 0.000275,1,-0.230154,-0.007211, 9.803946,1,0
1778781187155,  2222.758,  2222.758, 0.026322, 0.005824,-0.985991, 0.000262, 0.000063,-0.009903, 0.026157, 0.050400, 0.134638,1, 0.010673, 0.015968, 0.000478,1,-0.232469,-0.006379, 9.803892,1,0
1778781187176,  2222.783,  2222.778, 0.020610,-0.004150,-1.024448, 0.000196,-0.000042,-0.010210,-0.049327,-0.023912, 0.079259,1,-0.007873,-0.018386, 0.000291,1,-0.231076,-0.006729, 9.803925,1,0
1778781187199,  2222.803,  2222.803, 0.024159, 0.003289,-0.986571, 0.000246, 0.000034,-0.009918, 0.005102, 0.026297, 0.128953,1, 0.009851, 0.019623, 0.000330,1,-0.232431,-0.005651, 9.803893,1,0
1778781187225,  2222.828,  2222.828, 0.023871,-0.001745,-0.987969, 0.000239,-0.000016,-0.009825, 0.002109,-0.023506, 0.115236,1,-0.013668,-0.017474, 0.000061,1,-0.231442,-0.006823, 9.803916,1,0
1778781187246,  2222.853,  2222.848, 0.023587, 0.001785,-0.983752, 0.000244, 0.000026,-0.009884, 0.035340, 0.003779,-0.151986,1, 0.007970, 0.011525,-0.000252,1,-0.230763,-0.007271, 9.803932,1,0
1778781187269,  2222.873,  2222.873, 0.019685,-0.002427,-0.997018, 0.000191,-0.000023,-0.009916,-0.038556,-0.030123, 0.026501,1,-0.012166,-0.018561,-0.000290,1,-0.231022,-0.006701, 9.803926,1,0
1778781187295,  2222.898,  2222.898, 0.031363, 0.001816,-1.013247, 0.000308, 0.000016,-0.010184, 0.076849, 0.010485,-0.132626,1, 0.005820, 0.015667,-0.000400,1,-0.231207,-0.007144, 9.803922,1,0
1778781187317,  2222.923,  2222.918, 0.019141,-0.001175,-0.993009, 0.000190,-0.000007,-0.009870,-0.000862, 0.001715, 0.331077,1, 0.000090,-0.001781, 0.000306,1,-0.233480,-0.005856, 9.803868,1,0
1778781187339,  2222.943,  2222.943, 0.023006, 0.001028,-1.011746, 0.000229, 0.000002,-0.010158,-0.005635, 0.003314,-0.117920,1, 0.006462, 0.011869,-0.000313,1,-0.231622,-0.006569, 9.803912,1,0
1778781187365,  2222.968,  2222.968, 0.022440, 0.001620,-0.970641, 0.000218, 0.000015,-0.009688,-0.013510, 0.010078, 0.285131,1,-0.003808,-0.001390, 0.000679,1,-0.233528,-0.005923, 9.803867,1,0
1778781187387,  2222.993,  2222.988, 0.028861, 0.003462,-1.008737, 0.000294, 0.000028,-0.010130, 0.032412,-0.004792,-0.171914,1,-0.004962,-0.007158,-0.001521,1,-0.230910,-0.007801, 9.803928,1,0
1778781187409,  2223.013,  2223.013, 0.016037,-0.000772,-0.969607, 0.000171, 0.000001,-0.009683,-0.076255,-0.013152, 0.295269,1, 0.000279,-0.003416, 0.000890,1,-0.233413,-0.005574, 9.803870,1,0
1778781187435,  2223.038,  2223.038, 0.020115,-0.002935,-1.024028, 0.000199,-0.000033,-0.010226,-0.033384,-0.035959,-0.238346,1,-0.007617,-0.008580,-0.000573,1,-0.230381,-0.007417, 9.803941,1,0
1778781187457,  2223.063,  2223.058, 0.022374, 0.001797,-0.970957, 0.000231, 0.000021,-0.009692, 0.015930, 0.026773, 0.166889,1, 0.009878, 0.015394, 0.000456,1,-0.233103,-0.006111, 9.803877,1,0
1778781187480,  2223.088,  2223.083, 0.025658,-0.002011,-1.023614, 0.000247,-0.000016,-0.010218, 0.021183,-0.026426,-0.234287,1,-0.001248,-0.007365,-0.000621,1,-0.230207,-0.006741, 9.803946,1,0
1778781187505,  2223.108,  2223.108, 0.029886, 0.000233,-1.013654, 0.000295,-0.000006,-0.010182, 0.013250, 0.005438, 0.190160,1, 0.009874, 0.018158, 0.000343,1,-0.233540,-0.004999, 9.803867,1,0
1778781187527,  2223.133,  2223.128, 0.022126,-0.001102,-1.027326, 0.000213,-0.000014,-0.010249,-0.036419,-0.031173, 0.029692,1,-0.011924,-0.020615,-0.000121,1,-0.231730,-0.006132, 9.803910,1,0
1778781187550,  2223.158,  2223.153, 0.027223, 0.003993,-0.980349, 0.000275, 0.000047,-0.009855, 0.033998, 0.032956, 0.189939,1, 0.010769, 0.020959, 0.001045,1,-0.233619,-0.005862, 9.803865,1,0
1778781187575,  2223.178,  2223.178, 0.022612,-0.001864,-0.991774, 0.000224,-0.000015,-0.009857,-0.011046,-0.024283, 0.077901,1,-0.008317,-0.018033, 0.000115,1,-0.232232,-0.006263, 9.803898,1,0
1778781187597,  2223.203,  2223.198, 0.021662, 0.001621,-0.978235, 0.000223, 0.000025,-0.009832, 0.012737,-0.000434,-0.121710,1, 0.008528, 0.013833,-0.000403,1,-0.232076,-0.006123, 9.803902,1,0
1778781187620,  2223.228,  2223.223, 0.019826,-0.001119,-0.992306, 0.000194,-0.000008,-0.009867,-0.038240,-0.016929, 0.072694,1,-0.013090,-0.020431, 0.000087,1,-0.232025,-0.006364, 9.803903,1,0
1778781187645,  2223.248,  2223.248, 0.028506, 0.001371,-1.011582, 0.000288, 0.000008,-0.010163, 0.048168, 0.006764,-0.116313,1, 0.009628, 0.013557,-0.000505,1,-0.231798,-0.006338, 9.803908,1,0
1778781187667,  2223.273,  2223.268, 0.022313,-0.000456,-0.993443, 0.000216,-0.000003,-0.009879,-0.011425,-0.004584, 0.305731,1,-0.000416,-0.002419,-0.000254,1,-0.233780,-0.004591, 9.803862,1,0
1778781187690,  2223.298,  2223.293, 0.025763, 0.001781,-1.007782, 0.000257, 0.000018,-0.010115, 0.020985, 0.011089,-0.079056,1, 0.004729, 0.011398,-0.000266,1,-0.232023,-0.006230, 9.803903,1,0
1778781187716,  2223.318,  2223.318, 0.017474,-0.000001,-0.976713, 0.000176, 0.000003,-0.009739,-0.061992,-0.005419, 0.225585,1,-0.002817,-0.006083, 0.000650,1,-0.233159,-0.005496, 9.803876,1,0
1778781187737,  2223.343,  2223.338, 0.031777, 0.003747,-1.010611, 0.000318, 0.000030,-0.010164, 0.041131,-0.020798,-0.268238,1,-0.006074,-0.003775,-0.000280,1,-0.230597,-0.007304, 9.803936,1,0
1778781187760,  2223.368,  2223.363, 0.019491, 0.000066,-0.965774, 0.000209, 0.000007,-0.009638,-0.042747,-0.004881, 0.332854,1,-0.000018,-0.005523, 0.000728,1,-0.233720,-0.005531, 9.803863,1,0
1778781187786,  2223.388,  2223.388, 0.018921,-0.002340,-1.029459, 0.000188,-0.000028,-0.010281,-0.044881,-0.030040,-0.291608,1,-0.005794,-0.009526,-0.000540,1,-0.230135,-0.007271, 9.803946,1,0
1778781187807,  2223.413,  2223.408, 0.022338, 0.000715,-0.969372, 0.000230, 0.000011,-0.009676,-0.001100, 0.027077, 0.187888,1, 0.007916, 0.018009, 0.001004,1,-0.233442,-0.006008, 9.803869,1,0
1778781187834,  2223.438,  2223.438, 0.027439, 0.000691,-1.023139, 0.000270, 0.000006,-0.010222, 0.038452,-0.000717,-0.229627,1,-0.000668,-0.005480,-0.000926,1,-0.230462,-0.007515, 9.803939,1,0
1778781187856,  2223.458,  2223.458, 0.022176,-0.000376,-0.971027, 0.000228, 0.000004,-0.009745,-0.015989,-0.009027, 0.281344,1, 0.012868, 0.016130,-0.000030,1,-0.233968,-0.004936, 9.803858,1,0
1778781187877,  2223.483,  2223.478, 0.025691, 0.000924,-1.026291, 0.000248, 0.000001,-0.010257,-0.030526,-0.033479,-0.027744,1,-0.016321,-0.020155,-0.000723,1,-0.231514,-0.006517, 9.803915,1,0
1778781187904,  2223.508,  2223.508, 0.027001, 0.001876,-0.971361, 0.000272, 0.000026,-0.009744, 0.031330, 0.012315, 0.278067,1, 0.011094, 0.012946, 0.000262,1,-0.233861,-0.005738, 9.803860,1,0
1778781187926,  2223.533,  2223.528, 0.023379,-0.002398,-1.022659, 0.000228,-0.000028,-0.010233,-0.032458,-0.026379,-0.030792,1,-0.006301,-0.018548,-0.000501,1,-0.231213,-0.006369, 9.803922,1,0
1778781187947,  2223.553,  2223.548, 0.022086,-0.001128,-0.974378, 0.000222,-0.000004,-0.009774, 0.005084,-0.004661,-0.027981,1, 0.009169, 0.016954, 0.000130,1,-0.232338,-0.005675, 9.803896,1,0
1778781187974,  2223.578,  2223.578, 0.021188,-0.001142,-1.006535, 0.000214,-0.000013,-0.010027,-0.024018,-0.017528,-0.066824,1,-0.011891,-0.017140,-0.000674,1,-0.231267,-0.006703, 9.803921,1,0
1778781187996,  2223.603,  2223.598, 0.021774, 0.002070,-0.973892, 0.000226, 0.000029,-0.009759, 0.025731, 0.034578,-0.007421,1, 0.007869, 0.016292, 0.000104,1,-0.232399,-0.006587, 9.803894,1,0
1778781188017,  2223.623,  2223.618, 0.022836,-0.003425,-1.012546, 0.000227,-0.000033,-0.010076,-0.032800,-0.023569, 0.193089,1,-0.004610,-0.010956, 0.000321,1,-0.232905,-0.006014, 9.803882,1,0
1778781188044,  2223.648,  2223.648, 0.027109, 0.003316,-0.996702, 0.000271, 0.000034,-0.010020, 0.033490, 0.025877, 0.029583,1, 0.010742, 0.018478,-0.000119,1,-0.232905,-0.006241, 9.803882,1,1
1778781188066,  2223.673,  2223.668, 0.021723,-0.000406,-1.012239, 0.000207,-0.000003,-0.010077,-0.034400,-0.002272, 0.191041,1,-0.008970,-0.014947, 0.000098,1,-0.232740,-0.006318, 9.803885,1,1
1778781188088,  2223.693,  2223.688, 0.027818, 0.002989,-0.996283, 0.000281, 0.000025,-0.010015, 0.034360,-0.009509,-0.226412,1, 0.001836, 0.004644,-0.000028,1,-0.230993,-0.007341, 9.803926,1,1
1778781188114,  2223.718,  2223.718, 0.021038,-0.000160,-0.980131, 0.000213, 0.000002,-0.009764,-0.026765,-0.007314, 0.192076,1,-0.003797,-0.012722, 0.000212,1,-0.232677,-0.005860, 9.803887,1,1
1778781188136,  2223.743,  2223.738, 0.023326, 0.004098,-0.990166, 0.000245, 0.000041,-0.009957, 0.019866,-0.007718,-0.165402,1, 0.001366, 0.004557,-0.000374,1,-0.231178,-0.006642, 9.803923,1,1
1778781188158,  2223.763,  2223.758, 0.017158,-0.002180,-0.983541, 0.000177,-0.000021,-0.009788,-0.043317, 0.003328, 0.307020,1, 0.003868, 0.005428, 0.001392,1,-0.233633,-0.005337, 9.803865,1,1
1778781188185,  2223.788,  2223.788, 0.026308, 0.001313,-1.021959, 0.000258, 0.000004,-0.010252, 0.027274, 0.005987,-0.218062,1, 0.001434, 0.007532,-0.000877,1,-0.230956,-0.006844, 9.803927,1,1
1778781188206,  2223.813,  2223.808, 0.021856,-0.000814,-0.980382, 0.000213,-0.000007,-0.009748,-0.001649, 0.004468, 0.332435,1, 0.004884, 0.005964,-0.000089,1,-0.233954,-0.005226, 9.803858,1,1
1778781188228,  2223.828,  2223.828, 0.022826,-0.001898,-1.014098, 0.000225,-0.000020,-0.010098,-0.007578,-0.024831,-0.140991,1,-0.005578,-0.014891,-0.000560,1,-0.230965,-0.006396, 9.803927,1,1
1778781188255,  2223.858,  2223.858, 0.020116, 0.000252,-0.972422, 0.000198, 0.000002,-0.009713,-0.036157,-0.003018, 0.267669,1,-0.000821, 0.000243, 0.000774,1,-0.233432,-0.005516, 9.803870,1,1
1778781188276,  2223.883,  2223.878, 0.031169, 0.002301,-1.017238, 0.000305, 0.000014,-0.010217, 0.030200,-0.002764,-0.235220,1,-0.005923,-0.010808,-0.001248,1,-0.230309,-0.007235, 9.803943,1,1
1778781188298,  2223.903,  2223.898, 0.022982,-0.000792,-0.965156, 0.000240,-0.000009,-0.009646, 0.055689, 0.018499, 0.177369,1, 0.013242, 0.019690,-0.000280,1,-0.233375,-0.005469, 9.803871,1,1
1778781188325,  2223.928,  2223.928, 0.017239,-0.002355,-1.021957, 0.000170,-0.000027,-0.010199,-0.061537,-0.029021,-0.218041,1,-0.005623,-0.013484,-0.000600,1,-0.230169,-0.006103, 9.803946,1,1
1778781188346,  2223.953,  2223.948, 0.026430, 0.001007,-0.972193, 0.000264, 0.000007,-0.009721, 0.009797, 0.013577, 0.110500,1, 0.003366, 0.016060, 0.000645,1,-0.232567,-0.005752, 9.803890,1,1
1778781188369,  2223.973,  2223.973, 0.028675,-0.000166,-1.012899, 0.000289,-0.000004,-0.010115, 0.050003,-0.008507,-0.129221,1,-0.002708,-0.006428,-0.000657,1,-0.231004,-0.006965, 9.803926,1,1
1778781188395,  2223.998,  2223.998, 0.021123, 0.002869,-0.979217, 0.000222, 0.000034,-0.009819,-0.025707, 0.022363, 0.201049,1, 0.008677, 0.011172, 0.000229,1,-0.233202,-0.005499, 9.803875,1,1
1778781188416,  2224.023,  2224.018, 0.024147,-0.002818,-1.023795, 0.000222,-0.000028,-0.010217,-0.079977,-0.026859, 0.015624,1,-0.009440,-0.018968, 0.000234,1,-0.231149,-0.006316, 9.803924,1,1
1778781188439,  2224.043,  2224.043, 0.031340, 0.004381,-0.979340, 0.000317, 0.000052,-0.009833, 0.074960, 0.036629, 0.199848,1, 0.009992, 0.015852,-0.000063,1,-0.232844,-0.005982, 9.803884,1,1
1778781188465,  2224.068,  2224.068, 0.018772,-0.001699,-0.991651, 0.000195,-0.000014,-0.009867,-0.047476,-0.022395, 0.079137,1,-0.004714,-0.018457,-0.000015,1,-0.230988,-0.005885, 9.803927,1,1
1778781188486,  2224.093,  2224.088, 0.022074, 0.000683,-0.984820, 0.000225, 0.000017,-0.009891,-0.017549,-0.016528,-0.138089,1, 0.001845, 0.013785,-0.000232,1,-0.231006,-0.006197, 9.803926,1,1
1778781188509,  2224.113,  2224.113, 0.023398, 0.000011,-0.997429, 0.000235,-0.000001,-0.009928,-0.002460,-0.006618, 0.022468,1,-0.009691,-0.016596,-0.000341,1,-0.231394,-0.007029, 9.803917,1,1
1778781188535,  2224.138,  2224.138, 0.031183, 0.004295,-1.009578, 0.000311, 0.000037,-0.010145, 0.074820, 0.034740,-0.096655,1, 0.006368, 0.013664,-0.000552,1,-0.231410,-0.007184, 9.803917,1,1
1778781188557,  2224.163,  2224.158, 0.018203,-0.003670,-0.996562, 0.000181,-0.000034,-0.009905,-0.019437,-0.015419, 0.308823,1, 0.002589,-0.003060, 0.001352,1,-0.233202,-0.005678, 9.803875,1,1
1778781188579,  2224.183,  2224.183, 0.023645, 0.001691,-1.017957, 0.000227, 0.000003,-0.010219, 0.001214, 0.009775,-0.178813,1, 0.001249, 0.010767,-0.000689,1,-0.231002,-0.006770, 9.803926,1,1
1778781188605,  2224.208,  2224.208, 0.023982, 0.001370,-0.972774, 0.000234, 0.000015,-0.009710, 0.002378, 0.007198, 0.264225,1,-0.001705,-0.001460, 0.000772,1,-0.232762,-0.006294, 9.803885,1,1
1778781188627,  2224.233,  2224.228, 0.029238, 0.002207,-1.005050, 0.000293, 0.000014,-0.010097, 0.055432,-0.017019,-0.163585,1,-0.000501,-0.004486,-0.000627,1,-0.230659,-0.007033, 9.803934,1,1
1778781188649,  2224.253,  2224.253, 0.016325,-0.000096,-0.970835, 0.000171,-0.000001,-0.009686,-0.073399,-0.006425, 0.283232,1,-0.001373,-0.006769, 0.000393,1,-0.233288,-0.005523, 9.803873,1,1
1778781188675,  2224.278,  2224.278, 0.022807, 0.001093,-1.025078, 0.000218, 0.000009,-0.010244,-0.006862, 0.003341,-0.248648,1,-0.008702,-0.006366,-0.000290,1,-0.230324,-0.007650, 9.803942,1,1
1778781188697,  2224.303,  2224.298, 0.024760, 0.000776,-0.966793, 0.000261, 0.000012,-0.009649, 0.055864, 0.030709, 0.232205,1, 0.011070, 0.017658, 0.000937,1,-0.233642,-0.006523, 9.803864,1,1
1778781188720,  2224.328,  2224.323, 0.017930,-0.002093,-1.022370, 0.000180,-0.000022,-0.010210,-0.054980,-0.026508,-0.222089,1,-0.002598,-0.008111,-0.001084,1,-0.230558,-0.006062, 9.803938,1,1
1778781188745,  2224.348,  2224.348, 0.020137, 0.000609,-0.984576, 0.000201, 0.000013,-0.009875,-0.035345, 0.000247, 0.148492,1, 0.001750, 0.015668, 0.001060,1,-0.233310,-0.005667, 9.803873,1,1
1778781188767,  2224.373,  2224.368, 0.025838,-0.000629,-1.020998, 0.000250,-0.000008,-0.010197,-0.018836,-0.014330, 0.007604,1,-0.008142,-0.014468,-0.000624,1,-0.232078,-0.006791, 9.803901,1,1
1778781188790,  2224.398,  2224.393, 0.023018, 0.002109,-0.979947, 0.000239, 0.000021,-0.009837,-0.008346, 0.014614, 0.193854,1, 0.007604, 0.017547,-0.000038,1,-0.234619,-0.005834, 9.803842,1,1
1778781188815,  2224.418,  2224.418, 0.020809,-0.004524,-0.996079, 0.000202,-0.000045,-0.009912,-0.029984,-0.050788, 0.035656,1,-0.011064,-0.014492,-0.000312,1,-0.233603,-0.006764, 9.803864,1,1
1778781188837,  2224.443,  2224.438, 0.026743, 0.003454,-0.978597, 0.000280, 0.000041,-0.009830, 0.045884, 0.019231,-0.087542,1,-0.000017, 0.013373,-0.000243,1,-0.233936,-0.008344, 9.803856,1,1
1778781188860,  2224.468,  2224.463, 0.021196,-0.000915,-0.996003, 0.000216,-0.000007,-0.009915,-0.025840,-0.016910, 0.036411,1,-0.005126,-0.019354, 0.000087,1,-0.233101,-0.008099, 9.803876,1,1
1778781188885,  2224.488,  2224.488, 0.028831, 0.000726,-1.011917, 0.000291,-0.000002,-0.010161, 0.050192,-0.000992,-0.119626,1, 0.006599, 0.011335,-0.001048,1,-0.232902,-0.007909, 9.803881,1,1
1778781188907,  2224.513,  2224.508, 0.024560,-0.006005,-0.997133, 0.000241,-0.000064,-0.009922,-0.011358,-0.057288, 0.243775,1, 0.003274,-0.000824, 0.000564,1,-0.234772,-0.006262, 9.803838,1,1
1778781188930,  2224.538,  2224.533, 0.030848, 0.004409,-1.007862, 0.000309, 0.000033,-0.010121, 0.069505, 0.034152,-0.079875,1,-0.008791, 0.014611,-0.000304,1,-0.233470,-0.009365, 9.803866,1,1
1778781188956,  2224.558,  2224.558, 0.025903, 0.002009,-0.966089, 0.000244, 0.000024,-0.009618, 0.018585, 0.009340, 0.329720,1,-0.010126,-0.005023, 0.001130,1,-0.235276,-0.010672, 9.803822,1,1
1778781188977,  2224.583,  2224.578, 0.026771, 0.010856,-1.012280, 0.000266, 0.000094,-0.010169, 0.001117, 0.018002,-0.241987,1,-0.009426,-0.008060,-0.000326,1,-0.231973,-0.013025, 9.803897,1,1
1778781189000,  2224.608,  2224.603, 0.020099, 0.004768,-0.970868, 0.000202, 0.000055,-0.009693,-0.037417, 0.035748, 0.282871,1, 0.006476,-0.004613, 0.000343,1,-0.234380,-0.010804, 9.803843,1,1
1778781189026,  2224.628,  2224.628, 0.020220, 0.001544,-1.015503, 0.000210, 0.000012,-0.010149,-0.033309, 0.004458,-0.154774,1, 0.002540,-0.009515,-0.000916,1,-0.231304,-0.010606, 9.803916,1,1
1778781189047,  2224.653,  2224.648, 0.009377,-0.001029,-0.980465, 0.000096,-0.000007,-0.009778,-0.097128, 0.018233, 0.191839,1, 0.008758, 0.008055, 0.000069,1,-0.233452,-0.009078, 9.803866,1,1
1778781189074,  2224.678,  2224.678, 0.024829,-0.000300,-1.024966, 0.000234,-0.000007,-0.010254, 0.012899,-0.013300,-0.247552,1,-0.006133,-0.002284,-0.000402,1,-0.230516,-0.010554, 9.803935,1,1
1778781189096,  2224.698,  2224.698, 0.026486, 0.000915,-0.974275, 0.000274, 0.000018,-0.009784, 0.026191,-0.000071, 0.249487,1, 0.015021, 0.019850, 0.000204,1,-0.234167,-0.008574, 9.803850,1,1
1778781189117,  2224.723,  2224.718, 0.020300,-0.007045,-1.022393, 0.000190,-0.000073,-0.010199,-0.051171,-0.082244, 0.066536,1,-0.003078,-0.017700,-0.000665,1,-0.232888,-0.007668, 9.803882,1,1
1778781189144,  2224.748,  2224.748, 0.027149, 0.000634,-0.986861, 0.000270, 0.000006,-0.009905, 0.031988,-0.002755, 0.126042,1,-0.000180, 0.018188, 0.002862,1,-0.234821,-0.008975, 9.803834,1,1
1778781189166,  2224.773,  2224.768, 0.035122,-0.000761,-1.018549, 0.000353,-0.000008,-0.010176, 0.085138,-0.021555, 0.045856,1,-0.008221,-0.014374, 0.000084,1,-0.233888,-0.010203, 9.803855,1,1
1778781189187,  2224.793,  2224.788, 0.026452, 0.001897,-0.976930, 0.000277, 0.000033,-0.009815, 0.095618, 0.027999,-0.089385,1, 0.007855, 0.012552,-0.000217,1,-0.233880,-0.010062, 9.803856,1,1
1778781189214,  2224.818,  2224.818, 0.018423,-0.002138,-1.001418, 0.000184,-0.000023,-0.009962,-0.053217,-0.030109,-0.016695,1,-0.012832,-0.021300, 0.000486,1,-0.233218,-0.009541, 9.803872,1,1
1778781189236,  2224.843,  2224.838, 0.028799, 0.004166,-0.978960, 0.000296, 0.000050,-0.009835, 0.067567, 0.024750,-0.135573,1, 0.003913, 0.011486,-0.000178,1,-0.232956,-0.010505, 9.803877,1,1
1778781189257,  2224.863,  2224.858, 0.021497, 0.000508,-0.990126, 0.000222, 0.000011,-0.009852, 0.007307, 0.007672, 0.320547,1, 0.003077,-0.004176,-0.000317,1,-0.234513,-0.008607, 9.803842,1,1
1778781189284,  2224.888,  2224.888, 0.022825, 0.000192,-1.005274, 0.000234,-0.000004,-0.010091,-0.008505,-0.007533,-0.054476,1, 0.002892, 0.010212,-0.000539,1,-0.232661,-0.009322, 9.803885,1,1
1778781189306,  2224.913,  2224.908, 0.014060, 0.000796,-0.999086, 0.000129, 0.000002,-0.009937,-0.119106,-0.007612, 0.249313,1,-0.001818,-0.005886, 0.000199,1,-0.233819,-0.008747, 9.803858,1,1
1778781189328,  2224.933,  2224.928, 0.030740, 0.004176,-1.010570, 0.000303, 0.000028,-0.010153,-0.012648,-0.005696,-0.221090,1,-0.008719,-0.007421,-0.001241,1,-0.230947,-0.010806, 9.803925,1,1
1778781189355,  2224.958,  2224.958, 0.021192, 0.001463,-0.965312, 0.000219, 0.000022,-0.009638,-0.026587, 0.004657, 0.337364,1, 0.004017,-0.000905, 0.000962,1,-0.234381,-0.009559, 9.803844,1,1
1778781189376,  2224.983,  2224.978, 0.021848, 0.000811,-1.020055, 0.000217,-0.000003,-0.010244,-0.067300,-0.033230,-0.222542,1,-0.005944,-0.011046,-0.000525,1,-0.231180,-0.010591, 9.803919,1,1
1778781189398,  2225.003,  2224.998, 0.021051, 0.000662,-0.974516, 0.000204, 0.000014,-0.009740,-0.045346, 0.030522, 0.100866,1, 0.004223, 0.016153, 0.001840,1,-0.233580,-0.010322, 9.803863,1,1
1778781189425,  2225.028,  2225.028, 0.032230,-0.000945,-1.023464, 0.000320,-0.000007,-0.010214, 0.084539,-0.020776,-0.232846,1,-0.004480,-0.008483,-0.000477,1,-0.231260,-0.011648, 9.803916,1,1
1778781189446,  2225.053,  2225.048, 0.019884, 0.000903,-0.967676, 0.000207, 0.000011,-0.009658, 0.054020, 0.011764, 0.181233,1, 0.015479, 0.019880, 0.000805,1,-0.234448,-0.009453, 9.803843,1,1
1778781189468,  2225.073,  2225.068, 0.022981, 0.000330,-1.024777, 0.000216,-0.000000,-0.010221,-0.072061,-0.009164, 0.059295,1,-0.013363,-0.019530,-0.000479,1,-0.232905,-0.010102, 9.803879,1,1
1778781189495,  2225.098,  2225.098, 0.031270, 0.002473,-0.988199, 0.000310, 0.000029,-0.009928, 0.072779, 0.013385, 0.112934,1, 0.011772, 0.020550, 0.000069,1,-0.234521,-0.010498, 9.803840,1,1
1778781189516,  2225.123,  2225.118, 0.030181,-0.002676,-1.006680, 0.000290,-0.000021,-0.010048, 0.023541, 0.004244, 0.163375,1, 0.001216,-0.012832,-0.000767,1,-0.234063,-0.009372, 9.803852,1,1
1778781189538,  2225.143,  2225.138, 0.023848,-0.001004,-0.980183, 0.000251,-0.000006,-0.009841, 0.055033,-0.036982,-0.045392,1, 0.005353, 0.006512,-0.000012,1,-0.233356,-0.008784, 9.803869,1,1
1778781189565,  2225.168,  2225.168, 0.017099,-0.002578,-0.990387, 0.000174,-0.000021,-0.009858,-0.065841,-0.034452, 0.091488,1,-0.014176,-0.019953, 0.000419,1,-0.232906,-0.009614, 9.803879,1,1
1778781189586,  2225.193,  2225.188, 0.024370, 0.004870,-0.989144, 0.000249, 0.000056,-0.009939, 0.024483, 0.017129,-0.170057,1,-0.000324, 0.003984, 0.000203,1,-0.231322,-0.011381, 9.803915,1,1
1778781189609,  2225.213,  2225.213, 0.016145,-0.002649,-0.985399, 0.000162,-0.000015,-0.009808,-0.073955,-0.035730, 0.140430,1,-0.004359,-0.015121, 0.000484,1,-0.231810,-0.009890, 9.803905,1,1
1778781189635,  2225.238,  2225.238, 0.023534, 0.000682,-1.018962, 0.000234,-0.000003,-0.010213, 0.000284,-0.004167,-0.188666,1, 0.000620, 0.006932,-0.000729,1,-0.230723,-0.010837, 9.803929,1,1
1778781189656,  2225.263,  2225.258, 0.015954, 0.001844,-0.989157, 0.000153, 0.000017,-0.009841,-0.082479, 0.019511, 0.249532,1,-0.001052, 0.002960, 0.000702,1,-0.233046,-0.009793, 9.803876,1,1
1778781189679,  2225.283,  2225.283, 0.029937, 0.001212,-1.024220, 0.000296, 0.000003,-0.010271, 0.063417,-0.000576,-0.240232,1,-0.000709, 0.009363,-0.000500,1,-0.230455,-0.012482, 9.803934,1,1
1778781189705,  2225.308,  2225.308, 0.023019, 0.002820,-0.967217, 0.000237, 0.000037,-0.009690,-0.008275, 0.016952, 0.318694,1, 0.009451, 0.013887, 0.000232,1,-0.234452,-0.010405, 9.803842,1,1
1778781189726,  2225.333,  2225.328, 0.030190,-0.000301,-1.022049, 0.000297,-0.000007,-0.010245,-0.009083,-0.020031,-0.112224,1,-0.004943,-0.015461,-0.000525,1,-0.232000,-0.010964, 9.803899,1,1
1778781189749,  2225.353,  2225.353, 0.026630, 0.002136,-0.968062, 0.000279, 0.000027,-0.009699, 0.026227, 0.011032, 0.310388,1, 0.000175, 0.009538, 0.001191,1,-0.235225,-0.009905, 9.803823,1,1
1778781189775,  2225.378,  2225.378, 0.030637,-0.001895,-1.008307, 0.000300,-0.000019,-0.010033, 0.067464,-0.030234,-0.084235,1,-0.012310,-0.018729,-0.000236,1,-0.232397,-0.012032, 9.803888,1,1
1778781189797,  2225.403,  2225.398, 0.020418, 0.001796,-0.967550, 0.000217, 0.000026,-0.009692, 0.043013, 0.050480, 0.025766,1, 0.015158, 0.017648, 0.000492,1,-0.233639,-0.010914, 9.803861,1,1
1778781189819,  2225.423,  2225.423, 0.017411,-0.002483,-1.013587, 0.000159,-0.000023,-0.010076,-0.061069,-0.035245,-0.135990,1,-0.011771,-0.022765,-0.000065,1,-0.231101,-0.011263, 9.803920,1,1
1778781189845,  2225.448,  2225.448, 0.028111, 0.002030,-1.003524, 0.000282, 0.000016,-0.010097, 0.043770, 0.008866,-0.037306,1, 0.011406, 0.019825,-0.000618,1,-0.232578,-0.010709, 9.803885,1,1
1778781189867,  2225.473,  2225.468, 0.016215, 0.001210,-0.999325, 0.000160, 0.000018,-0.009945,-0.059177, 0.020423, 0.314788,1,-0.006122,-0.010452,-0.000758,1,-0.233584,-0.010124, 9.803863,1,1
1778781189890,  2225.493,  2225.493, 0.019818,-0.000982,-1.005753, 0.000205,-0.000017,-0.010109,-0.037640,-0.020191,-0.059168,1, 0.010296, 0.016798, 0.000292,1,-0.232510,-0.010243, 9.803888,1,1
1778781189915,  2225.518,  2225.518, 0.016503, 0.000476,-0.973120, 0.000154, 0.000013,-0.009697,-0.072376,-0.004826, 0.260800,1,-0.005129,-0.005536,-0.000498,1,-0.234045,-0.009656, 9.803852,1,1
1778781189937,  2225.543,  2225.538, 0.031816, 0.005148,-1.005640, 0.000319, 0.000042,-0.010114, 0.066541,-0.007336,-0.252620,1,-0.003523,-0.004464,-0.000387,1,-0.231375,-0.011612, 9.803913,1,1
1778781189960,  2225.568,  2225.563, 0.016487,-0.002096,-0.969434, 0.000169,-0.000016,-0.009655,-0.072929,-0.029803, 0.296936,1,-0.006009,-0.009098, 0.000253,1,-0.234324,-0.009438, 9.803845,1,1
1778781189985,  2225.588,  2225.588, 0.022489,-0.004988,-1.038552, 0.000209,-0.000055,-0.010375,-0.010591,-0.060138,-0.380802,1,-0.003316,-0.006084,-0.001095,1,-0.230941,-0.011331, 9.803924,1,1
1778781190007,  2225.613,  2225.608, 0.027965, 0.001664,-0.966961, 0.000279, 0.000022,-0.009645, 0.047736, 0.025783, 0.203845,1, 0.007707, 0.020535, 0.000858,1,-0.234858,-0.009480, 9.803833,1,1
1778781190030,  2225.638,  2225.633, 0.031698,-0.001532,-1.023220, 0.000321,-0.000011,-0.010223, 0.078689,-0.026809,-0.230462,1,-0.000392,-0.005942,-0.000319,1,-0.231973,-0.011798, 9.803899,1,1
1778781190055,  2225.658,  2225.658, 0.021080, 0.001167,-0.971522, 0.000224, 0.000021,-0.009753,-0.028079, 0.001804, 0.276461,1, 0.009824, 0.015665, 0.001042,1,-0.235288,-0.009331, 9.803823,1,1
1778781190077,  2225.683,  2225.678, 0.027647, 0.001435,-1.028696, 0.000266, 0.000017,-0.010280,-0.057814, 0.002361,-0.033754,1,-0.017679,-0.023277,-0.000054,1,-0.232336,-0.011796, 9.803890,1,1
1778781190100,  2225.708,  2225.703, 0.031052, 0.003905,-0.967987, 0.000319, 0.000046,-0.009723, 0.069898, 0.028235, 0.311128,1, 0.015993, 0.019189,-0.000203,1,-0.235213,-0.009558, 9.803824,1,1
1778781190125,  2225.728,  2225.728, 0.019063,-0.001615,-0.989957, 0.000195,-0.000011,-0.009833,-0.046655,-0.025264, 0.095697,1,-0.006450,-0.023581,-0.000182,1,-0.232865,-0.009627, 9.803880,1,1
1778781190147,  2225.753,  2225.748, 0.018430, 0.002433,-0.984648, 0.000184, 0.000021,-0.009886,-0.043914,-0.007878,-0.147125,1, 0.005065, 0.010010, 0.000602,1,-0.232151,-0.009738, 9.803897,1,1
1778781190170,  2225.778,  2225.773, 0.023848, 0.001321,-0.997275, 0.000233, 0.000011,-0.009923, 0.001319, 0.002221, 0.023963,1,-0.011606,-0.017355, 0.000046,1,-0.232012,-0.011095, 9.803899,1,1
1778781190196,  2225.798,  2225.798, 0.030632, 0.001712,-1.009581, 0.000314, 0.000010,-0.010149, 0.068550, 0.006619,-0.096707,1, 0.017468, 0.015049,-0.000783,1,-0.232317,-0.009628, 9.803893,1,1
1778781190217,  2225.823,  2225.818, 0.011981,-0.003480,-1.000761, 0.000120,-0.000034,-0.009944,-0.098729,-0.028909, 0.304615,1,-0.003784,-0.006931,-0.000027,1,-0.233852,-0.007991, 9.803858,1,1
1778781190240,  2225.848,  2225.843, 0.026174, 0.000713,-1.023898, 0.000258,-0.000006,-0.010296, 0.026014,-0.003814,-0.237075,1, 0.003411, 0.015273, 0.000519,1,-0.231064,-0.010670, 9.803922,1,1
1778781190266,  2225.868,  2225.868, 0.026470, 0.003996,-0.967364, 0.000265, 0.000041,-0.009666, 0.025672, 0.029338, 0.317252,1,-0.002563, 0.002185, 0.000045,1,-0.233978,-0.009929, 9.803853,1,1
1778781190287,  2225.893,  2225.888, 0.027221, 0.000210,-1.011730, 0.000277,-0.000005,-0.010163, 0.038330,-0.019474,-0.180350,1, 0.002729,-0.007694,-0.000717,1,-0.231411,-0.010613, 9.803913,1,1
1778781190314,  2225.918,  2225.918, 0.018972, 0.000186,-0.966718, 0.000190, 0.000002,-0.009647,-0.049057,-0.006840, 0.323559,1,-0.006324,-0.002075, 0.000536,1,-0.235043,-0.008860, 9.803829,1,1
1778781190336,  2225.938,  2225.938, 0.028609, 0.000632,-1.027012, 0.000273, 0.000002,-0.010240,-0.021726,-0.015147, 0.052626,1,-0.015919,-0.021088, 0.000085,1,-0.233073,-0.010425, 9.803874,1,1
1778781190357,  2225.963,  2225.958, 0.024109, 0.001723,-0.958303, 0.000249, 0.000021,-0.009572, 0.066363, 0.059951, 0.217729,1, 0.012384, 0.021321, 0.000934,1,-0.234785,-0.009521, 9.803834,1,1
1778781190384,  2225.988,  2225.988, 0.020751,-0.004407,-1.019520, 0.000202,-0.000043,-0.010165,-0.028402,-0.053350,-0.194178,1, 0.000782,-0.013623,-0.001055,1,-0.231470,-0.010111, 9.803913,1,1
1778781190406,  2226.013,  2226.008, 0.020362, 0.000622,-0.965216, 0.000207, 0.000011,-0.009647,-0.004941, 0.014154, 0.152473,1, 0.006709, 0.017745,-0.000219,1,-0.234039,-0.008324, 9.803853,1,1
1778781190427,  2226.033,  2226.028, 0.027543, 0.000395,-1.021336, 0.000271, 0.000004,-0.010187, 0.001863,-0.015138, 0.100065,1,-0.016000,-0.021469,-0.000081,1,-0.232359,-0.010532, 9.803891,1,1
1778781190454,  2226.058,  2226.058, 0.022468, 0.002709,-0.980481, 0.000232, 0.000040,-0.009851,-0.012714, 0.017099, 0.188645,1, 0.014773, 0.018864, 0.000503,1,-0.233644,-0.009010, 9.803863,1,1
1778781190476,  2226.083,  2226.078, 0.018723,-0.002017,-1.032076, 0.000174,-0.000020,-0.010293,-0.107318,-0.030778, 0.031021,1,-0.012542,-0.022880,-0.000132,1,-0.231527,-0.010107, 9.803911,1,1
1778781190497,  2226.103,  2226.098, 0.028070, 0.002785,-0.986789, 0.000283, 0.000030,-0.009919, 0.031671,-0.014649,-0.253190,1, 0.004924, 0.014838, 0.000161,1,-0.231038,-0.010586, 9.803923,1,1
1778781190524,  2226.128,  2226.128, 0.022302, 0.001102,-0.987016, 0.000225, 0.000018,-0.009810,-0.014425, 0.000391, 0.124549,1,-0.009258,-0.016259,-0.000349,1,-0.232622,-0.010707, 9.803885,1,1
1778781190546,  2226.153,  2226.148, 0.019646, 0.003673,-0.986591, 0.000199, 0.000041,-0.009913,-0.011128,-0.000623,-0.180460,1, 0.007641, 0.011349,-0.000243,1,-0.232129,-0.010498, 9.803897,1,1
1778781190568,  2226.173,  2226.168, 0.022629,-0.001760,-0.990496, 0.000218,-0.000014,-0.009848,-0.062750, 0.001130, 0.304201,1,-0.003776, 0.002701, 0.000556,1,-0.234800,-0.009704, 9.803834,1,1
1778781190594,  2226.198,  2226.198, 0.033057, 0.004141,-1.014149, 0.000338, 0.000038,-0.010197, 0.091632, 0.029148,-0.141519,1, 0.011113, 0.014470,-0.000967,1,-0.233002,-0.011110, 9.803875,1,1
1778781190616,  2226.223,  2226.218, 0.019473,-0.003216,-0.986042, 0.000195,-0.000029,-0.009791,-0.022784,-0.001898, 0.425587,1, 0.000478,-0.001313, 0.000435,1,-0.235751,-0.009120, 9.803812,1,1
1778781190638,  2226.243,  2226.238, 0.028315, 0.000065,-1.020880, 0.000280,-0.000011,-0.010259, 0.015695,-0.052009,-0.251593,1,-0.006263,-0.014166,-0.000659,1,-0.231838,-0.010869, 9.803904,1,1
1778781190665,  2226.268,  2226.268, 0.026599, 0.002251,-0.962977, 0.000267, 0.000024,-0.009619, 0.025510, 0.012411, 0.360243,1,-0.004851,-0.001236, 0.000664,1,-0.235299,-0.009817, 9.803822,1,1
1778781190686,  2226.293,  2226.288, 0.027118, 0.000718,-1.017253, 0.000272, 0.000003,-0.010218, 0.033416, 0.006203,-0.249548,1,-0.002496,-0.012313,-0.000161,1,-0.231547,-0.011628, 9.803909,1,1
1778781190708,  2226.313,  2226.308, 0.015752, 0.000150,-0.969898, 0.000159, 0.000001,-0.009679,-0.018100, 0.014008, 0.178613,1, 0.013539, 0.018741, 0.000315,1,-0.234646,-0.008964, 9.803839,1,1
1778781190735,  2226.338,  2226.338, 0.024456,-0.001686,-1.030403, 0.000236,-0.000023,-0.010281, 0.008348,-0.026725,-0.300894,1,-0.001708,-0.010360,-0.001169,1,-0.231156,-0.010242, 9.803920,1,1
1778781190756,  2226.363,  2226.358, 0.016164,-0.001181,-0.967479, 0.000170,-0.000005,-0.009661,-0.019750, 0.017058, 0.186440,1, 0.014161, 0.016130, 0.000171,1,-0.233924,-0.007707, 9.803857,1,1
1778781190778,  2226.383,  2226.378, 0.018153,-0.003221,-1.020425, 0.000174,-0.000035,-0.010193,-0.092274,-0.050329, 0.049873,1,-0.006663,-0.019838,-0.000898,1,-0.231856,-0.008123, 9.803905,1,1
1778781190805,  2226.408,  2226.408, 0.020481, 0.003143,-0.974053, 0.000210, 0.000038,-0.009785,-0.032980, 0.023854, 0.251666,1, 0.002674, 0.017617, 0.000322,1,-0.234383,-0.006889, 9.803846,1,1
1778781190826,  2226.433,  2226.428, 0.032371, 0.001652,-1.015128, 0.000320,-0.000001,-0.010141, 0.043490,-0.025963, 0.082013,1,-0.017118,-0.015611,-0.000318,1,-0.233079,-0.009374, 9.803875,1,1
1778781190849,  2226.453,  2226.453, 0.022371, 0.007289,-0.967783, 0.000226, 0.000076,-0.009706,-0.015403, 0.061534, 0.313121,1, 0.003400, 0.013805, 0.002057,1,-0.235218,-0.009833, 9.803823,1,1
1778781190875,  2226.478,  2226.478, 0.011174,-0.008308,-1.005446, 0.000131,-0.000102,-0.010014,-0.123431,-0.093653,-0.056186,1,-0.025903,-0.021144, 0.001692,1,-0.232353,-0.012990, 9.803888,1,1
1778781190896,  2226.503,  2226.498, 0.026592, 0.009400,-0.994012, 0.000286, 0.000093,-0.009973, 0.149599, 0.058440,-0.188171,1, 0.001277, 0.010552, 0.001023,1,-0.232684,-0.015037, 9.803878,1,1
1778781190919,  2226.523,  2226.523, 0.030227,-0.005784,-0.983006, 0.000291,-0.000073,-0.009771, 0.061583,-0.070027, 0.163829,1,-0.007483,-0.017135,-0.000987,1,-0.234304,-0.013541, 9.803842,1,1
1778781190945,  2226.548,  2226.548, 0.021946, 0.005145,-1.025347, 0.000220, 0.000036,-0.010305,-0.016897, 0.036053,-0.251331,1, 0.006111, 0.009147,-0.000813,1,-0.232400,-0.014214, 9.803885,1,1
1778781190967,  2226.573,  2226.568, 0.022353,-0.003108,-1.008929, 0.000217,-0.000036,-0.010032,-0.056886,-0.058501, 0.209394,1,-0.004125,-0.006900, 0.000855,1,-0.234199,-0.012750, 9.803844,1,1
1778781190989,  2226.593,  2226.593, 0.033988, 0.009377,-1.010386, 0.000354, 0.000093,-0.010172, 0.100695, 0.077930,-0.104622,1, 0.021870, 0.023304,-0.000635,1,-0.233339,-0.013341, 9.803864,1,1
1778781191015,  2226.618,  2226.618, 0.017921,-0.005837,-0.959000, 0.000183,-0.000050,-0.009543,-0.059697,-0.066897, 0.399238,1, 0.008531,-0.009895,-0.000133,1,-0.235137,-0.009390, 9.803826,1,1
1778781191037,  2226.643,  2226.638, 0.028161, 0.008762,-1.011873, 0.000285, 0.000106,-0.010159,-0.022455,-0.012906,-0.238759,1,-0.004066,-0.008291,-0.001826,1,-0.231305,-0.010745, 9.803916,1,1
1778781191059,  2226.663,  2226.663, 0.022168, 0.000532,-0.970173, 0.000199, 0.000002,-0.009676,-0.017130,-0.002308, 0.289690,1,-0.003726,-0.005396,-0.000140,1,-0.234358,-0.007640, 9.803846,1,1
1778781191085,  2226.688,  2226.688, 0.025103, 0.000739,-1.020211, 0.000245,-0.000002,-0.010205, 0.014773,-0.002141,-0.200937,1,-0.006430,-0.002205, 0.000106,1,-0.231336,-0.009589, 9.803916,1,1
1778781191107,  2226.713,  2226.708, 0.012335,-0.002311,-0.975614, 0.000118,-0.000029,-0.009706,-0.091832,-0.016707, 0.329818,1, 0.009162, 0.009626,-0.000128,1,-0.234497,-0.007780, 9.803843,1,1
1778781191130,  2226.733,  2226.733, 0.025831, 0.001629,-1.022219, 0.000241,-0.000010,-0.010261, 0.021820, 0.005936,-0.220632,1,-0.002178, 0.006731,-0.002298,1,-0.231702,-0.010108, 9.803907,1,1
1778781191155,  2226.758,  2226.758, 0.020962, 0.002224,-0.957356, 0.000235, 0.000030,-0.009598,-0.029428, 0.013446, 0.415377,1, 0.003685, 0.007554, 0.000842,1,-0.235235,-0.008253, 9.803824,1,1
1778781191177,  2226.783,  2226.778, 0.024204, 0.000278,-1.027206, 0.000227,-0.000024,-0.010288,-0.045613,-0.047836,-0.101000,1,-0.013005,-0.022148,-0.000472,1,-0.231619,-0.010703, 9.803908,1,1
1778781191200,  2226.808,  2226.803, 0.023434, 0.004843,-0.972528, 0.000243, 0.000054,-0.009754,-0.004574, 0.037078, 0.266601,1, 0.002401, 0.010352, 0.001703,1,-0.234705,-0.010342, 9.803836,1,1
1778781191225,  2226.828,  2226.828, 0.031959, 0.000679,-1.011036, 0.000315, 0.000006,-0.010059, 0.080730,-0.004942,-0.110998,1,-0.008023,-0.017007,-0.000352,1,-0.232145,-0.011850, 9.803895,1,1
1778781191247,  2226.853,  2226.848, 0.020049, 0.000045,-0.969815, 0.000209, 0.000008,-0.009703, 0.039877, 0.034678, 0.053848,1, 0.016692, 0.020285, 0.001339,1,-0.233918,-0.009864, 9.803855,1,1
1778781191270,  2226.878,  2226.873, 0.026213,-0.002619,-1.028903, 0.000248,-0.000030,-0.010241, 0.025501,-0.036123,-0.286188,1,-0.012663,-0.019760,-0.000800,1,-0.230940,-0.010835, 9.803925,1,1
1778781191295,  2226.898,  2226.898, 0.034024, 0.001917,-1.033774, 0.000335, 0.000011,-0.010380, 0.100413, 0.052632, 0.052668,1, 0.014870, 0.024188,-0.000193,1,-0.233708,-0.009662, 9.803860,1,1
1778781191317,  2226.923,  2226.918, 0.016333,-0.003431,-1.016026, 0.000166,-0.000032,-0.010114,-0.037263,-0.018503, 0.238659,1,-0.005023,-0.019396,-0.000855,1,-0.233298,-0.008999, 9.803870,1,1
1778781191340,  2226.948,  2226.943, 0.020627, 0.000089,-0.996728, 0.000208, 0.000000,-0.010022,-0.030070,-0.007282, 0.029334,1, 0.009404, 0.019378, 0.000062,1,-0.232958,-0.007859, 9.803880,1,1
1778781191365,  2226.968,  2226.968, 0.026052,-0.001587,-0.981082, 0.000249,-0.000020,-0.009755, 0.022250,-0.023945, 0.182743,1,-0.010234,-0.014427,-0.000293,1,-0.232788,-0.008697, 9.803883,1,1
1778781191387,  2226.993,  2226.988, 0.020447, 0.001125,-0.979710, 0.000218, 0.000017,-0.009847, 0.060414, 0.005165,-0.108822,1, 0.010573, 0.007968,-0.001074,1,-0.231748,-0.008582, 9.803907,1,1
1778781191410,  2227.018,  2227.013, 0.007928,-0.006556,-0.986585, 0.000075,-0.000071,-0.009798,-0.154599,-0.071241, 0.128799,1,-0.013821,-0.022574, 0.000430,1,-0.231639,-0.007382, 9.803911,1,1
1778781191436,  2227.038,  2227.038, 0.025728,-0.001015,-1.025304, 0.000246,-0.000023,-0.010290, 0.022253,-0.018988,-0.250854,1,-0.000529, 0.010530,-0.001036,1,-0.230379,-0.009050, 9.803940,1,1
1778781191457,  2227.063,  2227.058, 0.025256, 0.001889,-0.976578, 0.000259, 0.000025,-0.009720, 0.035563, 0.030244, 0.356676,1,-0.002368, 0.008509, 0.001153,1,-0.233769,-0.008270, 9.803860,1,1
1778781191480,  2227.088,  2227.083, 0.023137, 0.001494,-1.017890, 0.000238, 0.000012,-0.010209,-0.004469, 0.004018,-0.178178,1, 0.000649, 0.006878,-0.000026,1,-0.231578,-0.010617, 9.803909,1,1
1778781191506,  2227.108,  2227.108, 0.015836, 0.002311,-0.976152, 0.000159, 0.000025,-0.009762,-0.078515, 0.012978, 0.231073,1,-0.000076, 0.001749, 0.001736,1,-0.233862,-0.009686, 9.803856,1,1
1778781191527,  2227.133,  2227.128, 0.036532, 0.002971,-1.021021, 0.000365, 0.000035,-0.010254, 0.060372, 0.014712,-0.235112,1,-0.007312,-0.012035,-0.001552,1,-0.230935,-0.011564, 9.803924,1,1
1778781191554,  2227.158,  2227.158, 0.024500, 0.003399,-0.966357, 0.000263, 0.000048,-0.009661, 0.005780, 0.024314, 0.327113,1, 0.006883, 0.002521, 0.000335,1,-0.234561,-0.008804, 9.803841,1,1
1778781191576,  2227.178,  2227.178, 0.015504,-0.005503,-1.025056, 0.000150,-0.000063,-0.010205,-0.079466,-0.063805,-0.248452,1,-0.006902,-0.017553,-0.001465,1,-0.230957,-0.010054, 9.803925,1,1
1778781191597,  2227.203,  2227.198, 0.023853, 0.004691,-0.969265, 0.000237, 0.000052,-0.009701,-0.000882, 0.042488, 0.023655,1, 0.004902, 0.020638,-0.001226,1,-0.233266,-0.009377, 9.803871,1,1
1778781191624,  2227.228,  2227.228, 0.033884, 0.000457,-1.012068, 0.000334,-0.000001,-0.010090, 0.100172,-0.006717,-0.121102,1,-0.007042,-0.012065,-0.001488,1,-0.231741,-0.011422, 9.803905,1,1
1778781191646,  2227.253,  2227.248, 0.014155,-0.001296,-0.952752, 0.000147,-0.000002,-0.009522,-0.029543, 0.008928, 0.241875,1, 0.019178, 0.022054, 0.000499,1,-0.234916,-0.009360, 9.803831,1,1
1778781191667,  2227.273,  2227.268, 0.015315,-0.001360,-1.029652, 0.000141,-0.000025,-0.010256,-0.125956,-0.073041, 0.145948,1,-0.014755,-0.027731,-0.000153,1,-0.232947,-0.009444, 9.803879,1,1
1778781191694,  2227.298,  2227.298, 0.031253, 0.004593,-0.983970, 0.000314, 0.000062,-0.009908, 0.072769, 0.034243, 0.154405,1, 0.014195, 0.027283, 0.002022,1,-0.234569,-0.010350, 9.803839,1,1
1778781191716,  2227.323,  2227.318, 0.023313,-0.004342,-1.018119, 0.000229,-0.000040,-0.010145, 0.008543,-0.029205, 0.183388,1, 0.001019,-0.022444, 0.000112,1,-0.233521,-0.009147, 9.803865,1,1
1778781191737,  2227.343,  2227.338, 0.017841,-0.001913,-0.985111, 0.000179,-0.000015,-0.009897,-0.011382,-0.029539,-0.173492,1, 0.009681, 0.011162, 0.000211,1,-0.232393,-0.007983, 9.803893,1,1
1778781191764,  2227.368,  2227.368, 0.019418,-0.000811,-0.998266, 0.000180,-0.000015,-0.009918,-0.043031,-0.017470, 0.014223,1,-0.022302,-0.020049,-0.000244,1,-0.232828,-0.010217, 9.803881,1,1
1778781191786,  2227.393,  2227.388, 0.026642, 0.006277,-0.983517, 0.000269, 0.000075,-0.009892, 0.065417, 0.046402,-0.234876,1, 0.003637, 0.014244,-0.001310,1,-0.232395,-0.011818, 9.803889,1,1
1778781191808,  2227.413,  2227.408, 0.021735,-0.003639,-0.989514, 0.000226,-0.000036,-0.009841,-0.022886,-0.009814, 0.339775,1, 0.007459, 0.001956,-0.000252,1,-0.235334,-0.009413, 9.803822,1,1
1778781191835,  2227.438,  2227.438, 0.026572, 0.001067,-1.009926, 0.000278, 0.000003,-0.010150, 0.027487, 0.000367,-0.100112,1, 0.004886, 0.012684,-0.000506,1,-0.233490,-0.009943, 9.803864,1,1
1778781191856,  2227.463,  2227.458, 0.024589, 0.004191,-0.999261, 0.000245, 0.000043,-0.009945,-0.007959, 0.010603, 0.276258,1,-0.009089,-0.006470, 0.000121,1,-0.234682,-0.009915, 9.803837,1,1
1778781191878,  2227.483,  2227.478, 0.031349, 0.004824,-1.008227, 0.000318, 0.000042,-0.010136, 0.059400, 0.009725,-0.233661,1,-0.002235,-0.005975,-0.000058,1,-0.231686,-0.011894, 9.803905,1,1
1778781191905,  2227.508,  2227.508, 0.019738,-0.000717,-0.968855, 0.000194,-0.000003,-0.009658,-0.041095,-0.015417, 0.302618,1, 0.006291,-0.006473, 0.000667,1,-0.234456,-0.008188, 9.803843,1,1
1778781191926,  2227.533,  2227.528, 0.028379, 0.002119,-1.006008, 0.000283, 0.000015,-0.010114, 0.014760,-0.028601,-0.230952,1,-0.005317,-0.007331,-0.000289,1,-0.231394,-0.009320, 9.803915,1,1
1778781191948,  2227.553,  2227.548, 0.021330,-0.000310,-0.966545, 0.000220, 0.000003,-0.009633, 0.029693, 0.030845, 0.258223,1, 0.005646, 0.012835, 0.001440,1,-0.234048,-0.008371, 9.803853,1,1
1778781191975,  2227.578,  2227.578, 0.020376,-0.004667,-1.024990, 0.000200,-0.000047,-0.010238,-0.029770,-0.055464,-0.247757,1,-0.000724,-0.011583,-0.001017,1,-0.229232,-0.009717, 9.803966,1,1
1778781191996,  2227.603,  2227.598, 0.018716, 0.001417,-0.967680, 0.000181, 0.000015,-0.009653,-0.043991,-0.015057, 0.253274,1, 0.003121, 0.012847, 0.000531,1,-0.231776,-0.008806, 9.803906,1,1
1778781192018,  2227.623,  2227.618, 0.023106, 0.001942,-1.027012, 0.000229, 0.000016,-0.010276,-0.019500,-0.042084,-0.031109,1,-0.019582,-0.023645, 0.001066,1,-0.228785,-0.011592, 9.803974,1,1
1778781192045,  2227.648,  2227.648, 0.026097, 0.002144,-0.972299, 0.000273, 0.000021,-0.009750, 0.025680, 0.008651, 0.268940,1, 0.004409, 0.005994, 0.000551,1,-0.230434,-0.012203, 9.803935,1,1
1778781192066,  2227.673,  2227.668, 0.028495,-0.002616,-1.018180, 0.000280,-0.000024,-0.010185,-0.025222,-0.017380,-0.043933,1,-0.009886,-0.018864, 0.000043,1,-0.227180,-0.013494, 9.804008,1,1
1778781192089,  2227.693,  2227.693, 0.028396, 0.002839,-0.976693, 0.000286, 0.000035,-0.009788, 0.050952, 0.012572, 0.225915,1,-0.004055, 0.004631, 0.001604,1,-0.227666,-0.015390, 9.803995,1,1
1778781192115,  2227.718,  2227.718, 0.024740,-0.018067,-0.997237, 0.000238,-0.000112,-0.009938, 0.017631,-0.194030, 0.024502,1,-0.013597,-0.024757, 0.001962,1,-0.224217,-0.017281, 9.804071,1,1
1778781192136,  2227.743,  2227.738, 0.021319, 0.055138,-0.988630, 0.000209, 0.000491,-0.009837, 0.053542,-0.512389,-0.017462,1,-0.015386,-0.003366, 0.000698,1,-0.221758,-0.020078, 9.804122,1,1
1778781192159,  2227.763,  2227.763, 0.022533,-0.018622,-1.002262, 0.000220,-0.000271,-0.009991, 0.001080,-0.205295,-0.024672,1,-0.036064,-0.017784,-0.000314,1,-0.219336,-0.023800, 9.804168,1,1
1778781192185,  2227.788,  2227.788, 0.020882, 0.011978,-1.027896, 0.000192, 0.000147,-0.010344,-0.013226, 0.093498,-0.276021,1, 0.021039, 0.023983, 0.000733,1,-0.218754,-0.023312, 9.804182,1,1
1778781192207,  2227.813,  2227.808, 0.011120,-0.007015,-1.011368, 0.000099,-0.000061,-0.010030,-0.073101,-0.005175, 0.396631,1, 0.013802,-0.009153,-0.000214,1,-0.222126,-0.019639, 9.804114,1,1
1778781192229,  2227.833,  2227.833, 0.022870, 0.007443,-1.011112, 0.000237, 0.000095,-0.010182, 0.002649, 0.054807,-0.111490,1, 0.021829, 0.029827, 0.000516,1,-0.222556,-0.017507, 9.804109,1,1
1778781192255,  2227.858,  2227.858, 0.022744,-0.000649,-0.968105, 0.000221,-0.000004,-0.009636,-0.002400,-0.021629, 0.310179,1,-0.000147,-0.004803, 0.000179,1,-0.225295,-0.015278, 9.804049,1,1
1778781192277,  2227.883,  2227.878, 0.030539,-0.000360,-0.992847, 0.000317,-0.000004,-0.009991, 0.068697,-0.039340,-0.235300,1, 0.005256, 0.006612,-0.001550,1,-0.223682,-0.015585, 9.804087,1,1
1778781192299,  2227.898,  2227.903, 0.022740,-0.002842,-0.960028, 0.000238,-0.000025,-0.009620,-0.053733,-0.048918, 0.292836,1,-0.010656,-0.014060,-0.000030,1,-0.226460,-0.014273, 9.804025,1,1
1778781192325,  2227.928,  2227.928, 0.025144, 0.002484,-1.027019, 0.000236, 0.000013,-0.010277, 0.022949, 0.007432,-0.267533,1,-0.009402,-0.002030,-0.001245,1,-0.223565,-0.017218, 9.804087,1,1
1778781192347,  2227.953,  2227.948, 0.022319, 0.000702,-0.975928, 0.000224, 0.000012,-0.009727,-0.009427, 0.007853, 0.259703,1, 0.007903, 0.012734, 0.001103,1,-0.226589,-0.015929, 9.804019,1,1
1778781192370,  2227.973,  2227.973, 0.025090, 0.000177,-1.020419, 0.000254,-0.000006,-0.010224, 0.021795,-0.014501,-0.202821,1, 0.003422, 0.002817,-0.001297,1,-0.224338,-0.016129, 9.804070,1,1
1778781192395,  2227.998,  2227.998, 0.020015,-0.001459,-0.967918, 0.000222,-0.000006,-0.009703,-0.030786,-0.029257, 0.311980,1, 0.001534, 0.006715, 0.000658,1,-0.227277,-0.014906, 9.804005,1,1
1778781192417,  2228.023,  2228.018, 0.026304, 0.006076,-1.026932, 0.000255, 0.000039,-0.010281,-0.027686,-0.069436,-0.140001,1,-0.011313,-0.017999,-0.001213,1,-0.224125,-0.016920, 9.804074,1,1
1778781192440,  2228.048,  2228.043, 0.022493, 0.002109,-0.972833, 0.000223, 0.000014,-0.009744,-0.006445, 0.004803, 0.263772,1, 0.006999, 0.012220,-0.000474,1,-0.227430,-0.015552, 9.804000,1,1
1778781192465,  2228.068,  2228.068, 0.021175, 0.001040,-1.011468, 0.000203, 0.000015,-0.010065,-0.017962,-0.005590,-0.115068,1,-0.002592,-0.012178,-0.001220,1,-0.225234,-0.015870, 9.804050,1,1
1778781192487,  2228.093,  2228.088, 0.020520, 0.002795,-0.975267, 0.000214, 0.000019,-0.009760, 0.056207, 0.022119, 0.061507,1, 0.009923, 0.016683, 0.000284,1,-0.227578,-0.014757, 9.803998,1,1
1778781192510,  2228.118,  2228.108, 0.024184,-0.002035,-1.007162, 0.000231,-0.000018,-0.010047,-0.026689, 0.015726, 0.160323,1, 0.000843,-0.008341, 0.000054,1,-0.227798,-0.013737, 9.803994,1,1
1778781192535,  2228.138,  2228.138, 0.027365, 0.003729,-0.993017, 0.000278, 0.000052,-0.009972, 0.040965, 0.023510, 0.065834,1, 0.012946, 0.013451, 0.000995,1,-0.227810,-0.012658, 9.803995,1,1
1778781192557,  2228.163,  2228.158, 0.020698,-0.006282,-1.010745, 0.000202,-0.000063,-0.010074,-0.042793,-0.025764, 0.156889,1, 0.004191,-0.009511, 0.000222,1,-0.227979,-0.010817, 9.803994,1,1
1778781192580,  2228.188,  2228.183, 0.024719, 0.006853,-0.999642, 0.000255, 0.000073,-0.010035, 0.014627, 0.056406, 0.000862,1, 0.008868, 0.015110, 0.000060,1,-0.228251,-0.010521, 9.803988,1,1
1778781192605,  2228.208,  2228.203, 0.017121,-0.000579,-0.983953, 0.000170,-0.000006,-0.009800,-0.060922,-0.015116, 0.154687,1,-0.000608,-0.009984, 0.000596,1,-0.228513,-0.009460, 9.803983,1,1
1778781192627,  2228.233,  2228.228, 0.029120, 0.005985,-0.995978, 0.000293, 0.000067,-0.010011, 0.044815,-0.012548,-0.217719,1,-0.001602, 0.006502,-0.000836,1,-0.227283,-0.010183, 9.804010,1,1
1778781192650,  2228.258,  2228.253, 0.020678,-0.001787,-0.977744, 0.000207,-0.000015,-0.009729,-0.027453,-0.025485, 0.215553,1, 0.000600,-0.011435,-0.000642,1,-0.229882,-0.007945, 9.803952,1,1
1778781192676,  2228.278,  2228.278, 0.024026, 0.000188,-1.018698, 0.000227,-0.000012,-0.010209, 0.007555,-0.006797,-0.186016,1,-0.000454, 0.005805,-0.001187,1,-0.228240,-0.008656, 9.803989,1,1
1778781192697,  2228.303,  2228.298, 0.019142,-0.002050,-0.980491, 0.000194,-0.000016,-0.009761,-0.001169,-0.015561, 0.302298,1, 0.005909, 0.007612, 0.000897,1,-0.231293,-0.007030, 9.803920,1,1
1778781192720,  2228.328,  2228.323, 0.028273, 0.000601,-1.019597, 0.000285, 0.000005,-0.010223, 0.048690,-0.002582,-0.194847,1,-0.000906, 0.004052,-0.000416,1,-0.228698,-0.008501, 9.803979,1,1
1778781192746,  2228.348,  2228.348, 0.025072, 0.001009,-0.967181, 0.000259, 0.000012,-0.009683, 0.014422, 0.002497, 0.319110,1, 0.005325, 0.007639, 0.000671,1,-0.231692,-0.007228, 9.803910,1,1
1778781192767,  2228.373,  2228.368, 0.023723,-0.001261,-1.024055, 0.000231,-0.000015,-0.010259,-0.036917,-0.025135,-0.139715,1,-0.005921,-0.017170,-0.001701,1,-0.228575,-0.008136, 9.803983,1,1
1778781192794,  2228.398,  2228.398, 0.020426, 0.002315,-0.973739, 0.000206, 0.000013,-0.009748,-0.030434, 0.015127, 0.254810,1,-0.000070, 0.005708, 0.000636,1,-0.230920,-0.007573, 9.803928,1,1
1778781192816,  2228.418,  2228.418, 0.025248,-0.003127,-1.014759, 0.000241,-0.000030,-0.010104, 0.018949,-0.039369,-0.147402,1,-0.007251,-0.014130,-0.000828,1,-0.228213,-0.008930, 9.803990,1,1
1778781192837,  2228.443,  2228.438, 0.019760,-0.000144,-0.968718, 0.000200,-0.000004,-0.009690, 0.015935, 0.013588, 0.088191,1, 0.013187, 0.019189, 0.000735,1,-0.230450,-0.007493, 9.803939,1,1
1778781192864,  2228.468,  2228.468, 0.020406,-0.000176,-1.020188, 0.000192,-0.000002,-0.010168,-0.028767,-0.010222,-0.200648,1,-0.012010,-0.013414,-0.000076,1,-0.228461,-0.008875, 9.803985,1,1
1778781192886,  2228.493,  2228.488, 0.024297, 0.000287,-0.965534, 0.000254, 0.000010,-0.009667, 0.040566, 0.038838, 0.106340,1, 0.011799, 0.020348, 0.000274,1,-0.231189,-0.008112, 9.803921,1,1
1778781192907,  2228.513,  2228.508, 0.020949,-0.002608,-1.012894, 0.000207,-0.000023,-0.010104,-0.037933,-0.005798, 0.169846,1,-0.001038,-0.015272,-0.000704,1,-0.230645,-0.007186, 9.803935,1,1
1778781192934,  2228.538,  2228.538, 0.025725, 0.002742,-0.988445, 0.000264, 0.000030,-0.009929, 0.021267, 0.019692, 0.110595,1, 0.005940, 0.017513, 0.000937,1,-0.231554,-0.007011, 9.803913,1,1
1778781192956,  2228.563,  2228.558, 0.022163,-0.000650,-1.014814, 0.000221,-0.000005,-0.010112,-0.023927,-0.007800, 0.150809,1,-0.007854,-0.014612,-0.000225,1,-0.231047,-0.007687, 9.803925,1,1
1778781192978,  2228.583,  2228.578, 0.026070, 0.003181,-0.989566, 0.000262, 0.000031,-0.009939, 0.030577,-0.020500,-0.184481,1, 0.001215, 0.007304,-0.001534,1,-0.229906,-0.008319, 9.803951,1,1
1778781193005,  2228.608,  2228.608, 0.020272,-0.003453,-0.985264, 0.000196,-0.000029,-0.009805,-0.032496,-0.041309, 0.141776,1,-0.009890,-0.014569, 0.000783,1,-0.230839,-0.007751, 9.803929,1,1
1778781193026,  2228.633,  2228.628, 0.027032, 0.003232,-0.991284, 0.000271, 0.000034,-0.009961, 0.038611,-0.002277,-0.201487,1, 0.000697, 0.006784,-0.000341,1,-0.229460,-0.008906, 9.803961,1,1
1778781193048,  2228.653,  2228.648, 0.018676,-0.000393,-0.986329, 0.000187,-0.000004,-0.009813,-0.010155, 0.008573, 0.294635,1, 0.002019, 0.003451, 0.001365,1,-0.231895,-0.007869, 9.803905,1,1
1778781193075,  2228.678,  2228.678, 0.026535, 0.000266,-1.018934, 0.000261,-0.000009,-0.010227, 0.031203,-0.006621,-0.188355,1, 0.000871, 0.008535, 0.000149,1,-0.229286,-0.009201, 9.803965,1,1
1778781193096,  2228.703,  2228.698, 0.020702, 0.000178,-0.987606, 0.000213, 0.000006,-0.009837, 0.001028,-0.003533, 0.244879,1, 0.004588, 0.003526, 0.000620,1,-0.231538,-0.007638, 9.803913,1,1
1778781193118,  2228.723,  2228.718, 0.025001,-0.001258,-1.015227, 0.000247,-0.000011,-0.010177,-0.028522,-0.013330,-0.134639,1,-0.004077,-0.011804,-0.000363,1,-0.229120,-0.008307, 9.803969,1,1
1778781193145,  2228.748,  2228.748, 0.021488, 0.000498,-0.974807, 0.000218, 0.000010,-0.009746,-0.020735,-0.002660, 0.244321,1, 0.001047, 0.004467, 0.000539,1,-0.231603,-0.007507, 9.803912,1,1
1778781193166,  2228.773,  2228.768, 0.027093, 0.001517,-1.013484, 0.000258, 0.000004,-0.010154,-0.010710,-0.020355,-0.114360,1,-0.007417,-0.011377,-0.000716,1,-0.229320,-0.008998, 9.803965,1,1
1778781193188,  2228.793,  2228.788, 0.019712, 0.001705,-0.969039, 0.000202, 0.000018,-0.009692, 0.032112, 0.029553, 0.112473,1, 0.008532, 0.013581, 0.000308,1,-0.231013,-0.008196, 9.803926,1,1
1778781193215,  2228.818,  2228.818, 0.021034,-0.003883,-1.012862, 0.000199,-0.000038,-0.010091,-0.022839,-0.046814,-0.128820,1,-0.008919,-0.015132,-0.000669,1,-0.228640,-0.009009, 9.803980,1,1
1778781193236,  2228.843,  2228.838, 0.023083, 0.004524,-0.969709, 0.000242, 0.000033,-0.009707, 0.024700, 0.032765, 0.081584,1, 0.006627, 0.016932, 0.001433,1,-0.230471,-0.008818, 9.803938,1,1
1778781193258,  2228.863,  2228.858, 0.020222, 0.001435,-1.015905, 0.000196, 0.000003,-0.010124,-0.065840,-0.024529, 0.151975,1,-0.007495,-0.017046, 0.000049,1,-0.229566,-0.008958, 9.803959,1,1
1778781193285,  2228.888,  2228.888, 0.027099, 0.002202,-0.994419, 0.000279, 0.000022,-0.010001, 0.036328, 0.012071, 0.052043,1, 0.007877, 0.020384, 0.000540,1,-0.230059,-0.009278, 9.803946,1,1
1778781193306,  2228.913,  2228.908, 0.020957, 0.000545,-1.014530, 0.000207, 0.000001,-0.010108,-0.026600,-0.014134, 0.176024,1,-0.006785,-0.015646,-0.000190,1,-0.229881,-0.009001, 9.803951,1,1
1778781193329,  2228.933,  2228.933, 0.027462, 0.003162,-0.996387, 0.000277, 0.000027,-0.010012, 0.040368, 0.021051, 0.032754,1, 0.006872, 0.016383, 0.000223,1,-0.229454,-0.009742, 9.803961,1,1
1778781193355,  2228.958,  2228.958, 0.021756,-0.000382,-0.980478, 0.000211,-0.000005,-0.009756,-0.016456,-0.013503, 0.188749,1,-0.007941,-0.012365, 0.000247,1,-0.229425,-0.010006, 9.803961,1,1
1778781193376,  2228.983,  2228.978, 0.026917, 0.004151,-0.995413, 0.000274, 0.000040,-0.010010, 0.042210,-0.000045,-0.227109,1,-0.000527, 0.002499,-0.000515,1,-0.227512,-0.011270, 9.804004,1,1
1778781193399,  2229.003,  2229.003, 0.017723,-0.000430,-0.978987, 0.000179,-0.000003,-0.009744,-0.055623,-0.013974, 0.203377,1,-0.007131,-0.014680, 0.001083,1,-0.228970,-0.009982, 9.803971,1,1
1778781193425,  2229.028,  2229.028, 0.027697,-0.000646,-1.021926, 0.000271,-0.000012,-0.010243, 0.044588,-0.017386,-0.217659,1, 0.000894, 0.003507, 0.000037,1,-0.227135,-0.011026, 9.804013,1,1
1778781193447,  2229.053,  2229.048, 0.017846, 0.000027,-0.980190, 0.000183, 0.000004,-0.009751,-0.020065, 0.011600, 0.317435,1, 0.005906, 0.006356, 0.000367,1,-0.230026,-0.009347, 9.803947,1,1
1778781193469,  2229.073,  2229.073, 0.025804,-0.000391,-1.024280, 0.000249,-0.000005,-0.010267, 0.026619,-0.015213,-0.240731,1, 0.001003, 0.004456, 0.000310,1,-0.226575,-0.011346, 9.804026,1,1
1778781193495,  2229.098,  2229.098, 0.022742, 0.000501,-0.969737, 0.000230, 0.000008,-0.009704,-0.006439,-0.004624, 0.294088,1, 0.006549, 0.008136, 0.001147,1,-0.229714,-0.009336, 9.803955,1,1
1778781193517,  2229.123,  2229.118, 0.021442,-0.000411,-1.021119, 0.000202,-0.000002,-0.010223,-0.063199,-0.013245,-0.112991,1,-0.009075,-0.016785,-0.000429,1,-0.226770,-0.010862, 9.804022,1,1
1778781193539,  2229.143,  2229.143, 0.021435, 0.000566,-0.974029, 0.000215, 0.000011,-0.009752,-0.018870,-0.004261, 0.252010,1, 0.003068, 0.008795, 0.000886,1,-0.229350,-0.009719, 9.803963,1,1
1778781193565,  2229.168,  2229.168, 0.028180,-0.002626,-1.007405, 0.000279,-0.000031,-0.010041, 0.048399,-0.036798,-0.075275,1,-0.009094,-0.011017,-0.001165,1,-0.227604,-0.011331, 9.804002,1,1
1778781193587,  2229.193,  2229.188, 0.018818, 0.001982,-0.970257, 0.000208, 0.000025,-0.009715, 0.036827, 0.029923, 0.083154,1, 0.010929, 0.015932,-0.000495,1,-0.229337,-0.010322, 9.803963,1,1
1778781193610,  2229.213,  2229.213, 0.018143,-0.001294,-1.020162, 0.000175,-0.000009,-0.010165,-0.049142,-0.024152,-0.200361,1,-0.008658,-0.017420, 0.000404,1,-0.226523,-0.011728, 9.804027,1,1
1778781193635,  2229.238,  2229.238, 0.032903, 0.003319,-0.999581, 0.000333, 0.000032,-0.010056, 0.094478, 0.021605, 0.001446,1, 0.013799, 0.021277, 0.000134,1,-0.228853,-0.010517, 9.803974,1,1
1778781193657,  2229.263,  2229.258, 0.021208,-0.001529,-1.003647, 0.000218,-0.000010,-0.009992, 0.015215,-0.004171, 0.261114,1,-0.001467,-0.011565,-0.000616,1,-0.229336,-0.009206, 9.803964,1,1
1778781193680,  2229.288,  2229.283, 0.021604, 0.001201,-0.997541, 0.000219, 0.000008,-0.010020,-0.016248, 0.002358, 0.021454,1, 0.006530, 0.015060, 0.000493,1,-0.228581,-0.009217, 9.803982,1,1
1778781193705,  2229.308,  2229.308, 0.017950, 0.000961,-0.983655, 0.000168, 0.000007,-0.009795,-0.052915,-0.000303, 0.157614,1,-0.011624,-0.012316,-0.000420,1,-0.228563,-0.010091, 9.803981,1,1
1778781193727,  2229.333,  2229.328, 0.028827, 0.007019,-0.995156, 0.000294, 0.000069,-0.010009, 0.069129, 0.023438,-0.222046,1, 0.000948, 0.002767,-0.000834,1,-0.226776,-0.011518, 9.804021,1,1
1778781193750,  2229.358,  2229.353, 0.015200,-0.001749,-0.969990, 0.000159,-0.000016,-0.009661,-0.080376,-0.026024, 0.291608,1,-0.003558,-0.012133, 0.000404,1,-0.229063,-0.008983, 9.803970,1,1
1778781193775,  2229.378,  2229.378, 0.019313,-0.002838,-1.026736, 0.000186,-0.000036,-0.010279,-0.037122,-0.038063,-0.264817,1,-0.001612,-0.001000,-0.000832,1,-0.226487,-0.010281, 9.804029,1,1
1778781193797,  2229.403,  2229.398, 0.023547, 0.002669,-0.976444, 0.000235, 0.000031,-0.009732, 0.000548, 0.019705, 0.232776,1, 0.002639, 0.011659, 0.000365,1,-0.229501,-0.009208, 9.803960,1,1
1778781193820,  2229.428,  2229.423, 0.030571,-0.000481,-1.017920, 0.000309,-0.000010,-0.010190, 0.072449,-0.015268,-0.178374,1, 0.005328, 0.003405,-0.000318,1,-0.227455,-0.010384, 9.804007,1,1
1778781193845,  2229.448,  2229.448, 0.017328,-0.000515,-0.968319, 0.000185, 0.000000,-0.009696,-0.060458,-0.013027, 0.307974,1, 0.008640, 0.009147,-0.000165,1,-0.230705,-0.007714, 9.803933,1,1
1778781193867,  2229.473,  2229.468, 0.028548, 0.000560,-1.032498, 0.000267,-0.000004,-0.010342,-0.061148,-0.020444,-0.187155,1,-0.018516,-0.020925, 0.000040,1,-0.227138,-0.010481, 9.804013,1,1
1778781193890,  2229.498,  2229.493, 0.031254, 0.002724,-0.968140, 0.000315, 0.000035,-0.009707, 0.076090, 0.017552, 0.309727,1, 0.012764, 0.014950, 0.000286,1,-0.230870,-0.008762, 9.803928,1,1
1778781193916,  2229.518,  2229.518, 0.020024,-0.003108,-1.001647, 0.000202,-0.000031,-0.009972,-0.032531,-0.039545,-0.018823,1,-0.004998,-0.017409,-0.000810,1,-0.228359,-0.009220, 9.803987,1,1
1778781193937,  2229.543,  2229.538, 0.016901, 0.001574,-0.976303, 0.000169, 0.000019,-0.009785,-0.054339,-0.000482,-0.003228,1, 0.006622, 0.015133, 0.000617,1,-0.229415,-0.008576, 9.803963,1,1
1778781193960,  2229.568,  2229.563, 0.026410, 0.001382,-1.010503, 0.000263, 0.000023,-0.010072, 0.030447, 0.002717,-0.105672,1,-0.010900,-0.015544, 0.000253,1,-0.228063,-0.011181, 9.803991,1,1
1778781193986,  2229.588,  2229.588, 0.030886, 0.005413,-0.993614, 0.000327, 0.000057,-0.009993, 0.073591, 0.043465, 0.059935,1, 0.021371, 0.018788,-0.000259,1,-0.229886,-0.008956, 9.803951,1,1
1778781194007,  2229.613,  2229.608, 0.013996,-0.006005,-1.011137, 0.000134,-0.000064,-0.010060,-0.084039,-0.037859, 0.234921,1,-0.004357,-0.013695, 0.000391,1,-0.230044,-0.007380, 9.803948,1,1
1778781194034,  2229.638,  2229.638, 0.024481, 0.001332,-1.005170, 0.000240, 0.000009,-0.010105, 0.011259, 0.004346,-0.053374,1, 0.008379, 0.018657,-0.000165,1,-0.229403,-0.008456, 9.803963,1,1
1778781194056,  2229.658,  2229.658, 0.024225, 0.000515,-0.979309, 0.000238, 0.000000,-0.009749, 0.007369,-0.003057, 0.200200,1,-0.007511,-0.010586,-0.000539,1,-0.229859,-0.008339, 9.803952,1,1
1778781194077,  2229.683,  2229.678, 0.026056, 0.002000,-0.990265, 0.000270, 0.000022,-0.009952, 0.072803,-0.003458,-0.161119,1, 0.003211, 0.006144,-0.000538,1,-0.228557,-0.009048, 9.803982,1,1
1778781194104,  2229.708,  2229.708, 0.014601,-0.001975,-0.981918, 0.000145,-0.000018,-0.009770,-0.087520,-0.027364, 0.174602,1,-0.012949,-0.016077, 0.000045,1,-0.230206,-0.008401, 9.803944,1,1
1778781194126,  2229.733,  2229.728, 0.028900, 0.006816,-0.993277, 0.000291, 0.000066,-0.010003, 0.032574, 0.010895,-0.259539,1,-0.000889, 0.005592,-0.000491,1,-0.228254,-0.010322, 9.803988,1,1
1778781194147,  2229.753,  2229.748, 0.023430, 0.000431,-0.974259, 0.000243, 0.000007,-0.009695, 0.037395, 0.021243, 0.345870,1, 0.009574, 0.009530, 0.001308,1,-0.231750,-0.007833, 9.803908,1,1
1778781194174,  2229.778,  2229.778, 0.024514,-0.001555,-1.017555, 0.000244,-0.000020,-0.010199, 0.011527,-0.023421,-0.174834,1, 0.006384, 0.004381,-0.000539,1,-0.229011,-0.007968, 9.803972,1,1
1778781194196,  2229.803,  2229.798, 0.019129, 0.001707,-0.986846, 0.000181, 0.000018,-0.009813,-0.060577, 0.012787, 0.265737,1,-0.001879, 0.003522, 0.001756,1,-0.231369,-0.006746, 9.803918,1,1
1778781194218,  2229.823,  2229.818, 0.028619, 0.003625,-1.022115, 0.000280, 0.000021,-0.010248, 0.022747,-0.005615,-0.177717,1,-0.014347,-0.016756, 0.000160,1,-0.228084,-0.009898, 9.803992,1,1
1778781194244,  2229.848,  2229.848, 0.019839,-0.000687,-0.970500, 0.000210,-0.000001,-0.009707,-0.036449,-0.013733, 0.286577,1, 0.010129, 0.005418,-0.000095,1,-0.231214,-0.006711, 9.803922,1,1
1778781194266,  2229.873,  2229.868, 0.024740,-0.001231,-1.021740, 0.000241,-0.000019,-0.010251,-0.045725,-0.044471,-0.179039,1,-0.007577,-0.013475,-0.000143,1,-0.228319,-0.007922, 9.803988,1,1
1778781194288,  2229.893,  2229.888, 0.021772, 0.003328,-0.969081, 0.000231, 0.000030,-0.009695, 0.028330, 0.016996, 0.095050,1, 0.006308, 0.020564, 0.000234,1,-0.230907,-0.007523, 9.803928,1,1
1778781194315,  2229.918,  2229.918, 0.023271, 0.000692,-1.017821, 0.000229, 0.000006,-0.010146,-0.001042,-0.002105,-0.177449,1,-0.006593,-0.011282,-0.001112,1,-0.228898,-0.009097, 9.803974,1,1
1778781194336,  2229.943,  2229.938, 0.019653,-0.000134,-0.964700, 0.000205, 0.000007,-0.009653, 0.010740, 0.017066, 0.134016,1, 0.013225, 0.020331, 0.000777,1,-0.231684,-0.007304, 9.803910,1,1
1778781194358,  2229.963,  2229.958, 0.022330,-0.002052,-1.019512, 0.000223,-0.000029,-0.010162,-0.036557,-0.043443, 0.150610,1,-0.011234,-0.017825, 0.000252,1,-0.230961,-0.007578, 9.803927,1,1
1778781194385,  2229.988,  2229.988, 0.028112, 0.004088,-0.984455, 0.000284, 0.000045,-0.009896, 0.044401, 0.032454, 0.149712,1, 0.011894, 0.019768,-0.000144,1,-0.231901,-0.007264, 9.803905,1,1
1778781194406,  2230.013,  2230.008, 0.023673,-0.002318,-1.018388, 0.000228,-0.000022,-0.010149,-0.021765,-0.018993, 0.144160,1,-0.011227,-0.019080,-0.000511,1,-0.230790,-0.008062, 9.803930,1,1
1778781194428,  2230.033,  2230.028, 0.024287, 0.001555,-0.983062, 0.000246, 0.000020,-0.009875, 0.038340,-0.017734,-0.161223,1, 0.005947, 0.010433,-0.001099,1,-0.229828,-0.008397, 9.803953,1,1
1778781194455,  2230.058,  2230.058, 0.020942,-0.000336,-0.994639, 0.000204,-0.000003,-0.009887,-0.024996,-0.011283, 0.049860,1,-0.013772,-0.020626,-0.000179,1,-0.229718,-0.008410, 9.803955,1,1
1778781194476,  2230.083,  2230.078, 0.024593, 0.002362,-0.981757, 0.000257, 0.000032,-0.009864, 0.053124, 0.016332,-0.150664,1, 0.005979, 0.013212,-0.000013,1,-0.229312,-0.009165, 9.803965,1,1
1778781194498,  2230.103,  2230.098, 0.015559,-0.001366,-0.997347, 0.000158,-0.000010,-0.009920,-0.056699,-0.005550, 0.298241,1, 0.001695,-0.003333, 0.000134,1,-0.231142,-0.007473, 9.803923,1,1
1778781194525,  2230.128,  2230.128, 0.024053, 0.001930,-1.016086, 0.000239, 0.000016,-0.010211, 0.007028, 0.009678,-0.160425,1, 0.004179, 0.013646,-0.000171,1,-0.229273,-0.009122, 9.803966,1,1
1778781194546,  2230.153,  2230.148, 0.022169, 0.000806,-0.993490, 0.000220, 0.000012,-0.009883,-0.017306, 0.015335, 0.281667,1,-0.000506,-0.001645, 0.000363,1,-0.231382,-0.008054, 9.803917,1,1
1778781194569,  2230.173,  2230.173, 0.026262, 0.001970,-1.008242, 0.000262, 0.000011,-0.010121, 0.027918, 0.010859,-0.083523,1, 0.008716, 0.011998,-0.000040,1,-0.229998,-0.008185, 9.803949,1,1
1778781194595,  2230.198,  2230.198, 0.019400, 0.000465,-0.972059, 0.000190, 0.000004,-0.009695,-0.041409,-0.002575, 0.271268,1,-0.001463,-0.003945, 0.000706,1,-0.231533,-0.007178, 9.803914,1,1
1778781194616,  2230.223,  2230.218, 0.030236, 0.003620,-1.007541, 0.000302, 0.000029,-0.010124, 0.036247,-0.021593,-0.201077,1,-0.006463,-0.004699,-0.000308,1,-0.228997,-0.008921, 9.803972,1,1
1778781194639,  2230.243,  2230.238, 0.020348, 0.000234,-0.968145, 0.000212, 0.000007,-0.009659, 0.020273, 0.018216, 0.233626,1, 0.011739, 0.015455, 0.000386,1,-0.231971,-0.007033, 9.803904,1,1
1778781194665,  2230.268,  2230.268, 0.022541,-0.003763,-1.024613, 0.000223,-0.000034,-0.010243,-0.007846,-0.045073,-0.244051,1,-0.005550,-0.005024,-0.000592,1,-0.228743,-0.008341, 9.803978,1,1
1778781194687,  2230.293,  2230.288, 0.021467, 0.000885,-0.971105, 0.000225, 0.000009,-0.009693, 0.021433, 0.005709, 0.215884,1, 0.008441, 0.015755, 0.000789,1,-0.231910,-0.007061, 9.803905,1,1
1778781194709,  2230.313,  2230.313, 0.024218,-0.001132,-1.021882, 0.000240,-0.000012,-0.010210, 0.008263,-0.019597,-0.217270,1,-0.002841,-0.005734,-0.000548,1,-0.229057,-0.008583, 9.803970,1,1
1778781194735,  2230.338,  2230.338, 0.022513, 0.001948,-0.975577, 0.000231, 0.000034,-0.009785,-0.010822, 0.011779, 0.236768,1, 0.008288, 0.014692, 0.001197,1,-0.232060,-0.007061, 9.803902,1,1
1778781194757,  2230.363,  2230.358, 0.024167,-0.000335,-1.027777, 0.000232,-0.000008,-0.010273,-0.035564,-0.025097,-0.051844,1,-0.011111,-0.020391, 0.000350,1,-0.229522,-0.008393, 9.803960,1,1
1778781194779,  2230.383,  2230.383, 0.023929, 0.002281,-0.972098, 0.000241, 0.000038,-0.009751, 0.003209, 0.015210, 0.270889,1, 0.010952, 0.013745, 0.001047,1,-0.231878,-0.006820, 9.803905,1,1
1778781194805,  2230.408,  2230.408, 0.017248,-0.002130,-1.002397, 0.000171,-0.000022,-0.009963,-0.060613,-0.028499,-0.026202,1,-0.009687,-0.021310,-0.000012,1,-0.229089,-0.007912, 9.803970,1,1
1778781194827,  2230.433,  2230.428, 0.021150,-0.000663,-0.974958, 0.000214, 0.000002,-0.009785,-0.010225,-0.000867,-0.065654,1, 0.009026, 0.017949, 0.000154,1,-0.230016,-0.007448, 9.803949,1,1
1778781194850,  2230.453,  2230.453, 0.024253, 0.000320,-1.003833, 0.000243, 0.000004,-0.010001, 0.007816,-0.004684,-0.040291,1,-0.012037,-0.014502,-0.000155,1,-0.229570,-0.008198, 9.803959,1,1
1778781194875,  2230.478,  2230.478, 0.030097, 0.003045,-0.996388, 0.000312, 0.000030,-0.010019, 0.064486, 0.021641, 0.032701,1, 0.010014, 0.018314,-0.000154,1,-0.231232,-0.007904, 9.803921,1,1
1778781194897,  2230.503,  2230.498, 0.020991,-0.002088,-1.013371, 0.000207,-0.000025,-0.010085,-0.055730,-0.015980, 0.217716,1,-0.002758,-0.013753, 0.000167,1,-0.231400,-0.006939, 9.803917,1,1
1778781194920,  2230.528,  2230.523, 0.028309, 0.006368,-1.000207, 0.000281, 0.000060,-0.010057, 0.047107, 0.054208,-0.004746,1, 0.008411, 0.019456,-0.000018,1,-0.231116,-0.007975, 9.803923,1,1
1778781194945,  2230.548,  2230.548, 0.021896, 0.000727,-0.978491, 0.000220, 0.000011,-0.009734,-0.016986,-0.000134, 0.208190,1,-0.003630,-0.013586, 0.000269,1,-0.231292,-0.007376, 9.803920,1,1
1778781194967,  2230.573,  2230.568, 0.024793, 0.001135,-0.996095, 0.000250, 0.000009,-0.010016, 0.016457,-0.027262,-0.245142,1, 0.005244, 0.004900,-0.001308,1,-0.229498,-0.007464, 9.803962,1,1
1778781194990,  2230.598,  2230.593, 0.022365,-0.002363,-0.977978, 0.000218,-0.000020,-0.009734,-0.012789,-0.029311, 0.213208,1,-0.010149,-0.012961, 0.000072,1,-0.231706,-0.006458, 9.803910,1,1
1778781195015,  2230.618,  2230.618, 0.026256, 0.000777,-1.015902, 0.000268, 0.000002,-0.010190, 0.027491,-0.000494,-0.158651,1,-0.001517, 0.005285,-0.000440,1,-0.230156,-0.008159, 9.803946,1,1
1778781195037,  2230.643,  2230.638, 0.016996,-0.001367,-0.986986, 0.000171,-0.000014,-0.009820,-0.054454,-0.016430, 0.301039,1, 0.005518, 0.002291, 0.001471,1,-0.232347,-0.006475, 9.803895,1,1
1778781195060,  2230.668,  2230.663, 0.028221, 0.001073,-1.018009, 0.000277, 0.000003,-0.010222, 0.046857, 0.002446,-0.179310,1, 0.002230, 0.010946,-0.000864,1,-0.230237,-0.008007, 9.803944,1,1
1778781195086,  2230.688,  2230.688, 0.022297, 0.001948,-0.967034, 0.000233, 0.000018,-0.009666,-0.013925, 0.012510, 0.320522,1, 0.002514, 0.000116, 0.000605,1,-0.232589,-0.006514, 9.803889,1,1
1778781195107,  2230.713,  2230.708, 0.022652,-0.000014,-1.019855, 0.000218,-0.000002,-0.010233,-0.048548,-0.009133,-0.206597,1,-0.004942,-0.012850,-0.000015,1,-0.229089,-0.007872, 9.803970,1,1
1778781195130,  2230.738,  2230.733, 0.022697, 0.000525,-0.974133, 0.000223, 0.000005,-0.009733,-0.009533,-0.001655, 0.250914,1,-0.001046, 0.002096, 0.001017,1,-0.232177,-0.006832, 9.803899,1,1
1778781195156,  2230.758,  2230.758, 0.027638, 0.000382,-1.017891, 0.000269, 0.000000,-0.010159, 0.040811,-0.004130,-0.178158,1,-0.003754,-0.004944,-0.001034,1,-0.230069,-0.007990, 9.803947,1,1
1778781195177,  2230.783,  2230.778, 0.016790, 0.000696,-0.969947, 0.000174, 0.000008,-0.009680, 0.003855, 0.028225, 0.219935,1, 0.008688, 0.015441,-0.000270,1,-0.232980,-0.006394, 9.803880,1,1
1778781195200,  2230.808,  2230.803, 0.022101,-0.001784,-1.024922, 0.000212,-0.000020,-0.010236,-0.013399,-0.025415,-0.247110,1,-0.006135,-0.006742, 0.000025,1,-0.229921,-0.008112, 9.803951,1,1
1778781195226,  2230.828,  2230.828, 0.029129, 0.004554,-0.981868, 0.000300, 0.000052,-0.009863, 0.053253, 0.037487, 0.175055,1, 0.009299, 0.016068, 0.000717,1,-0.232907,-0.006886, 9.803882,1,1
1778781195247,  2230.853,  2230.848, 0.024369,-0.002518,-1.017217, 0.000244,-0.000023,-0.010162,-0.000565,-0.018107, 0.058614,1,-0.001536,-0.015841, 0.000108,1,-0.231375,-0.006717, 9.803918,1,1
1778781195274,  2230.878,  2230.878, 0.023357, 0.000185,-0.979101, 0.000240, 0.000006,-0.009819,-0.003699,-0.003813, 0.202181,1, 0.004476, 0.012497, 0.000655,1,-0.233141,-0.005486, 9.803877,1,1
1778781195296,  2230.898,  2230.898, 0.021718,-0.001539,-1.002558, 0.000211,-0.000019,-0.009975,-0.018414,-0.021652,-0.027823,1,-0.011331,-0.019061,-0.000479,1,-0.230804,-0.006910, 9.803931,1,1
1778781195317,  2230.923,  2230.918, 0.028661, 0.002990,-0.973167, 0.000287, 0.000044,-0.009762, 0.066457, 0.041505,-0.063945,1, 0.005506, 0.016396,-0.000247,1,-0.231431,-0.007258, 9.803916,1,1
1778781195344,  2230.948,  2230.948, 0.017282,-0.005326,-0.998949, 0.000177,-0.000050,-0.009934,-0.061904,-0.057990, 0.007574,1,-0.002847,-0.019565,-0.000386,1,-0.230774,-0.005850, 9.803932,1,1
1778781195366,  2230.973,  2230.968, 0.022935, 0.000671,-0.979112, 0.000233, 0.000014,-0.009828,-0.006041,-0.015107,-0.087623,1, 0.002484, 0.014599,-0.000784,1,-0.231093,-0.005822, 9.803926,1,1
1778781195387,  2230.993,  2230.988, 0.024874,-0.002586,-1.001363, 0.000251,-0.000020,-0.009970,-0.021177,-0.003656, 0.250679,1,-0.007010,-0.004855, 0.001378,1,-0.232332,-0.006371, 9.803895,1,1
1778781195414,  2231.018,  2231.018, 0.025213, 0.004233,-1.002697, 0.000259, 0.000036,-0.010084, 0.016316, 0.034403,-0.029170,1, 0.008270, 0.016530,-0.000444,1,-0.231452,-0.006847, 9.803916,1,1
1778781195436,  2231.043,  2231.038, 0.015259,-0.000652,-1.009908, 0.000151,-0.000014,-0.010046,-0.084737,-0.019774, 0.230340,1,-0.005701,-0.012429, 0.000094,1,-0.232090,-0.006298, 9.803902,1,1
1778781195458,  2231.063,  2231.058, 0.031308, 0.002787,-1.005705, 0.000304, 0.000017,-0.010111,-0.000798,-0.012621,-0.297216,1,-0.004194,-0.000861,-0.000932,1,-0.229349,-0.007794, 9.803965,1,1
1778781195484,  2231.088,  2231.088, 0.026112, 0.002031,-0.971536, 0.000262, 0.000018,-0.009675, 0.023203, 0.013324, 0.276365,1, 0.000448,-0.006165, 0.000080,1,-0.232675,-0.006581, 9.803887,1,1
1778781195506,  2231.113,  2231.108, 0.022475, 0.002573,-0.998958, 0.000224, 0.000020,-0.010031,-0.004578,-0.000918,-0.153612,1, 0.000100,-0.000903,-0.001274,1,-0.230760,-0.006869, 9.803932,1,1
1778781195528,  2231.133,  2231.128, 0.020738, 0.001278,-0.979632, 0.000198, 0.000019,-0.009760,-0.021231, 0.023729, 0.229003,1, 0.000269, 0.009760, 0.000900,1,-0.233241,-0.006545, 9.803874,1,1
1778781195555,  2231.158,  2231.158, 0.031384, 0.002675,-1.019846, 0.000309, 0.000020,-0.010215, 0.077131, 0.018223,-0.197336,1,-0.000857,-0.000321,-0.000719,1,-0.230628,-0.008037, 9.803934,1,1
1778781195576,  2231.183,  2231.178, 0.015568,-0.003647,-0.970944, 0.000171,-0.000031,-0.009685, 0.036213, 0.038924, 0.274925,1, 0.009260, 0.011450, 0.002647,1,-0.233481,-0.006130, 9.803868,1,1
1778781195598,  2231.203,  2231.198, 0.023249,-0.000159,-1.026148, 0.000238,-0.000001,-0.010244,-0.067106,-0.023462, 0.020110,1,-0.013325,-0.020415,-0.000625,1,-0.231000,-0.007538, 9.803926,1,1
1778781195625,  2231.228,  2231.228, 0.021921, 0.006784,-0.991321, 0.000221, 0.000094,-0.009948,-0.016255, 0.058360, 0.082382,1, 0.013014, 0.014286, 0.001754,1,-0.231677,-0.007762, 9.803910,1,1
1778781195646,  2231.253,  2231.248, 0.031855, 0.000465,-1.016604, 0.000320, 0.000010,-0.010160, 0.005182,-0.007297, 0.028094,1,-0.006606,-0.013463,-0.001204,1,-0.230364,-0.007976, 9.803941,1,1
1778781195668,  2231.273,  2231.268, 0.020831,-0.001490,-0.970590, 0.000223,-0.000001,-0.009731, 0.043663, 0.029744,-0.001658,1, 0.009101, 0.016520,-0.000670,1,-0.231134,-0.007605, 9.803923,1,1
1778781195695,  2231.298,  2231.298, 0.014564,-0.006404,-1.012416, 0.000138,-0.000081,-0.010064,-0.086978,-0.069964,-0.124454,1,-0.018206,-0.023945,-0.001335,1,-0.229051,-0.007733, 9.803971,1,1
1778781195716,  2231.323,  2231.318, 0.027310, 0.003759,-0.966060, 0.000276, 0.000037,-0.009688, 0.053157, 0.050644,-0.031986,1, 0.004194, 0.022636,-0.000150,1,-0.230642,-0.008915, 9.803933,1,1
1778781195738,  2231.343,  2231.338, 0.019607,-0.005795,-0.999548, 0.000183,-0.000075,-0.009942, 0.000760,-0.086272, 0.262819,1,-0.002010,-0.008725, 0.000593,1,-0.232055,-0.007782, 9.803901,1,1
1778781195765,  2231.368,  2231.368, 0.021119, 0.001465,-0.999425, 0.000220, 0.000005,-0.010052,-0.023973, 0.006399, 0.002908,1, 0.008452, 0.017361,-0.000065,1,-0.231617,-0.007703, 9.803911,1,1
1778781195786,  2231.393,  2231.388, 0.023998,-0.001064,-1.010447, 0.000235,-0.000018,-0.010058,-0.031869,-0.038730, 0.216639,1,-0.007552,-0.013514, 0.000914,1,-0.231919,-0.007612, 9.803905,1,1
1778781195809,  2231.413,  2231.413, 0.029570, 0.004800,-0.995568, 0.000295, 0.000052,-0.010004, 0.058807, 0.038285, 0.040733,1, 0.010835, 0.019004,-0.000185,1,-0.231767,-0.008445, 9.803907,1,1
1778781195835,  2231.438,  2231.438, 0.021522, 0.001083,-0.983650, 0.000209, 0.000006,-0.009781,-0.021068, 0.002844, 0.157585,1,-0.003682,-0.014363,-0.000744,1,-0.231677,-0.007895, 9.803910,1,1
1778781195856,  2231.463,  2231.458, 0.028093, 0.004454,-0.992417, 0.000279, 0.000048,-0.009965, 0.025633, 0.025876,-0.200413,1,-0.000053, 0.005920,-0.000797,1,-0.230297,-0.008269, 9.803942,1,1
1778781195879,  2231.483,  2231.483, 0.021181, 0.001835,-0.985811, 0.000212, 0.000028,-0.009809,-0.024061, 0.009896, 0.136403,1,-0.005707,-0.015342,-0.000160,1,-0.231297,-0.008280, 9.803919,1,1
1778781195905,  2231.508,  2231.508, 0.025273, 0.001884,-1.020920, 0.000253, 0.000030,-0.010239, 0.018069, 0.009778,-0.207852,1, 0.003276, 0.004796,-0.001298,1,-0.229924,-0.008594, 9.803950,1,1
1778781195927,  2231.533,  2231.528, 0.017586,-0.002256,-0.984790, 0.000175,-0.000011,-0.009803,-0.053179, 0.012884, 0.273240,1, 0.002863, 0.004333, 0.001108,1,-0.232194,-0.007350, 9.803898,1,1
1778781195949,  2231.553,  2231.553, 0.026202, 0.002299,-1.018068, 0.000258, 0.000016,-0.010213, 0.027344, 0.014241,-0.179878,1, 0.001433, 0.006878,-0.001190,1,-0.229821,-0.008260, 9.803953,1,1
1778781195975,  2231.578,  2231.578, 0.021989, 0.001454,-0.965591, 0.000232, 0.000022,-0.009663,-0.016707, 0.006765, 0.334677,1,-0.000240, 0.004771, 0.001182,1,-0.232491,-0.007501, 9.803891,1,1
1778781195997,  2231.603,  2231.598, 0.024672, 0.000579,-1.022608, 0.000238, 0.000002,-0.010252,-0.033884,-0.023279,-0.158454,1,-0.006405,-0.017256,-0.000067,1,-0.229068,-0.008891, 9.803970,1,1
1778781196019,  2231.623,  2231.623, 0.023638,-0.000530,-0.968722, 0.000237,-0.000005,-0.009694,-0.000190,-0.012459, 0.303988,1, 0.003839, 0.006971, 0.000862,1,-0.232218,-0.007144, 9.803898,1,1
1778781196045,  2231.648,  2231.648, 0.023662,-0.002742,-1.013016, 0.000229,-0.000030,-0.010090,-0.015796,-0.025943, 0.175755,1,-0.003800,-0.013561, 0.000352,1,-0.231059,-0.007429, 9.803925,1,1
1778781196067,  2231.673,  2231.668, 0.021941,-0.001038,-0.968600, 0.000225,-0.000006,-0.009699, 0.037624, 0.015248, 0.082282,1, 0.007138, 0.017547, 0.000496,1,-0.231373,-0.007359, 9.803918,1,1
1778781196090,  2231.693,  2231.693, 0.020039,-0.002597,-1.014235, 0.000195,-0.000028,-0.010106,-0.033127,-0.033413,-0.142295,1,-0.007754,-0.016311,-0.000968,1,-0.229132,-0.008190, 9.803969,1,1
1778781196115,  2231.718,  2231.718, 0.026368, 0.003579,-0.996345, 0.000271, 0.000033,-0.010024, 0.028325, 0.027055, 0.033134,1, 0.006734, 0.017537, 0.000645,1,-0.230808,-0.007837, 9.803930,1,1
1778781196137,  2231.743,  2231.738, 0.020827,-0.001766,-1.012547, 0.000202,-0.000020,-0.010089,-0.028588,-0.034992, 0.170835,1,-0.003276,-0.014866, 0.000175,1,-0.230579,-0.007455, 9.803936,1,1
1778781196160,  2231.768,  2231.763, 0.025072, 0.001676,-0.995140, 0.000248, 0.000018,-0.009996, 0.015748, 0.008659, 0.044956,1, 0.004515, 0.017447,-0.000574,1,-0.230668,-0.007632, 9.803934,1,1
1778781196185,  2231.788,  2231.788, 0.021431,-0.000064,-0.984813, 0.000205, 0.000002,-0.009801,-0.020705,-0.008492, 0.146207,1,-0.007676,-0.012637,-0.000379,1,-0.230474,-0.008102, 9.803938,1,1
1778781196207,  2231.813,  2231.808, 0.028952, 0.003691,-0.989794, 0.000298, 0.000042,-0.009942, 0.046478, 0.022050,-0.166195,1, 0.000866, 0.007398,-0.000800,1,-0.229374,-0.009161, 9.803963,1,1
1778781196230,  2231.838,  2231.833, 0.018164, 0.000891,-0.982459, 0.000186, 0.000014,-0.009778,-0.053093, 0.001117, 0.169285,1,-0.005350,-0.014435, 0.000669,1,-0.230773,-0.007786, 9.803931,1,1
1778781196255,  2231.858,  2231.858, 0.025904, 0.000646,-1.022046, 0.000254, 0.000004,-0.010245, 0.024893,-0.002241,-0.218880,1,-0.001052, 0.005512, 0.000071,1,-0.229308,-0.008606, 9.803965,1,1
1778781196277,  2231.883,  2231.878, 0.018749, 0.001209,-0.979914, 0.000201, 0.000015,-0.009762, 0.019193, 0.021536, 0.276586,1, 0.003577, 0.008217, 0.000320,1,-0.232212,-0.007491, 9.803898,1,1
1778781196300,  2231.908,  2231.903, 0.023573, 0.000029,-1.019556, 0.000241,-0.000006,-0.010219, 0.001845,-0.007953,-0.194466,1, 0.001210, 0.003770,-0.000307,1,-0.229444,-0.008198, 9.803962,1,1
1778781196326,  2231.928,  2231.928, 0.020178, 0.000525,-0.969427, 0.000215, 0.000009,-0.009701,-0.034274,-0.001892, 0.297066,1, 0.003610, 0.006196, 0.000792,1,-0.232342,-0.006932, 9.803895,1,1
1778781196347,  2231.953,  2231.948, 0.028481, 0.002808,-1.022784, 0.000268, 0.000024,-0.010255,-0.014183,-0.012180,-0.165776,1,-0.008397,-0.017144,-0.000999,1,-0.229219,-0.008470, 9.803967,1,1
1778781196370,  2231.978,  2231.973, 0.024233, 0.001376,-0.965909, 0.000239, 0.000022,-0.009668, 0.005329, 0.006604, 0.331566,1, 0.007417, 0.007422, 0.000999,1,-0.232550,-0.006661, 9.803890,1,1
1778781196396,  2231.998,  2231.998, 0.020816,-0.002506,-1.013349, 0.000196,-0.000033,-0.010089,-0.025873,-0.031814,-0.133609,1,-0.006041,-0.015213,-0.000915,1,-0.229536,-0.007429, 9.803961,1,1
1778781196417,  2232.023,  2232.018, 0.022168,-0.001146,-0.972764, 0.000226,-0.000008,-0.009735,-0.002353, 0.008167, 0.059060,1, 0.007955, 0.016875, 0.000383,1,-0.231349,-0.006630, 9.803919,1,1
1778781196440,  2232.048,  2232.038, 0.026138,-0.001153,-1.015796, 0.000257,-0.000006,-0.010127,-0.031926,-0.010364, 0.125311,1,-0.009878,-0.014389, 0.000999,1,-0.230801,-0.007258, 9.803931,1,1
1778781196466,  2232.068,  2232.068, 0.028410, 0.002091,-0.986167, 0.000302, 0.000031,-0.009918, 0.047258, 0.013148, 0.132919,1, 0.011176, 0.018256, 0.000766,1,-0.231917,-0.007005, 9.803905,1,1
1778781196487,  2232.093,  2232.088, 0.016953,-0.001525,-1.019146, 0.000165,-0.000024,-0.010160,-0.067162,-0.045397, 0.135331,1,-0.005935,-0.017152, 0.000527,1,-0.231105,-0.006673, 9.803925,1,1
1778781196514,  2232.118,  2232.118, 0.026827, 0.004521,-0.991597, 0.000266, 0.000044,-0.009967, 0.031986, 0.036697, 0.079680,1, 0.006604, 0.019048, 0.001699,1,-0.231694,-0.007428, 9.803910,1,1
1778781196536,  2232.138,  2232.138, 0.023913,-0.000659,-0.985800, 0.000235,-0.000008,-0.009808, 0.002800,-0.013481, 0.136513,1,-0.003072,-0.014109, 0.000153,1,-0.231267,-0.007113, 9.803920,1,1
1778781196557,  2232.163,  2232.158, 0.026403, 0.002857,-0.989388, 0.000267, 0.000045,-0.009919, 0.021544, 0.018691,-0.112308,1, 0.004126, 0.009135,-0.001229,1,-0.230509,-0.007174, 9.803938,1,1
1778781196584,  2232.188,  2232.188, 0.020461,-0.000996,-0.988442, 0.000198,-0.000009,-0.009840,-0.031397,-0.016157, 0.110599,1,-0.007768,-0.012581, 0.000458,1,-0.231656,-0.006628, 9.803911,1,1
1778781196606,  2232.213,  2232.208, 0.028991, 0.004770,-0.987942, 0.000291, 0.000063,-0.009920, 0.039950, 0.032014,-0.127651,1,-0.001809, 0.006028,-0.000448,1,-0.230656,-0.008205, 9.803934,1,1
1778781196627,  2232.233,  2232.228, 0.018815,-0.002263,-0.991492, 0.000196,-0.000016,-0.009871,-0.010578, 0.003431, 0.256423,1, 0.005741,-0.000431, 0.000337,1,-0.232446,-0.006563, 9.803892,1,1
1778781196654,  2232.258,  2232.258, 0.027168, 0.004892,-1.012631, 0.000274, 0.000034,-0.010162, 0.036138, 0.040482,-0.126581,1, 0.002402, 0.008767,-0.001083,1,-0.230569,-0.007415, 9.803936,1,1
1778781196676,  2232.283,  2232.278, 0.019182,-0.002217,-0.990086, 0.000186,-0.000019,-0.009856,-0.058716,-0.002077, 0.263658,1, 0.005717, 0.001239, 0.000620,1,-0.232447,-0.005838, 9.803893,1,0
1778781196698,  2232.303,  2232.298, 0.028370, 0.006188,-1.017131, 0.000269, 0.000050,-0.010198,-0.024204,-0.049338,-0.182080,1,-0.007788,-0.013089,-0.001884,1,-0.229384,-0.007000, 9.803965,1,0
1778781196724,  2232.328,  2232.328, 0.022577, 0.000665,-0.969998, 0.000222, 0.000006,-0.009697,-0.010927, 0.000849, 0.291467,1, 0.005869, 0.004122, 0.000433,1,-0.232457,-0.005488, 9.803893,1,0
1778781196746,  2232.353,  2232.348, 0.024547, 0.002920,-1.017448, 0.000231, 0.000012,-0.010209,-0.021808,-0.044180,-0.156069,1,-0.006878,-0.013894,-0.001238,1,-0.229522,-0.006697, 9.803962,1,0
1778781196768,  2232.373,  2232.368, 0.024412, 0.000535,-0.965860, 0.000237, 0.000003,-0.009659, 0.013309, 0.037291, 0.140495,1, 0.007334, 0.019019, 0.000782,1,-0.232102,-0.006028, 9.803901,1,0
1778781196795,  2232.398,  2232.398, 0.027231, 0.000695,-1.018663, 0.000265, 0.000000,-0.010164, 0.036962,-0.000881,-0.185723,1,-0.006288,-0.011653,-0.000862,1,-0.229721,-0.007893, 9.803956,1,0
1778781196816,  2232.423,  2232.418, 0.020323,-0.001322,-0.967836, 0.000212,-0.000015,-0.009667, 0.030772, 0.014102, 0.178521,1, 0.012825, 0.017427, 0.001055,1,-0.232470,-0.006007, 9.803892,1,0
1778781196838,  2232.443,  2232.438, 0.021581,-0.000822,-1.022552, 0.000202,-0.000009,-0.010210,-0.063872,-0.025241, 0.057791,1,-0.006714,-0.021307,-0.000081,1,-0.230526,-0.006162, 9.803938,1,0
1778781196865,  2232.468,  2232.468, 0.028246, 0.000228,-0.985219, 0.000292, 0.000009,-0.009891, 0.045634,-0.003618, 0.142221,1, 0.007960, 0.015216,-0.000169,1,-0.231836,-0.005608, 9.803907,1,0
1778781196886,  2232.488,  2232.488, 0.022047,-0.001168,-0.993127, 0.000218,-0.000007,-0.009878,-0.014890,-0.016995, 0.064677,1,-0.005157,-0.015719,-0.000785,1,-0.230607,-0.005703, 9.803937,1,0
1778781196908,  2232.513,  2232.508, 0.023855, 0.002883,-0.985178, 0.000238, 0.000033,-0.009880, 0.010954,-0.010803,-0.110316,1, 0.000509, 0.010307,-0.000272,1,-0.230314,-0.006336, 9.803943,1,0
1778781196935,  2232.538,  2232.538, 0.020151,-0.000754,-0.995183, 0.000195,-0.000005,-0.009903,-0.033377,-0.013846, 0.044516,1,-0.007964,-0.016120,-0.000434,1,-0.230489,-0.006702, 9.803939,1,0
1778781196956,  2232.563,  2232.558, 0.029062, 0.005142,-0.982228, 0.000291, 0.000063,-0.009875, 0.060874, 0.029317,-0.146480,1, 0.006787, 0.009847,-0.000552,1,-0.230022,-0.006849, 9.803949,1,0
1778781196978,  2232.583,  2232.578, 0.017809,-0.004429,-0.985933, 0.000185,-0.000026,-0.009802,-0.020386,-0.012065, 0.339105,1, 0.004095, 0.001146, 0.001032,1,-0.232291,-0.005011, 9.803897,1,0
1778781197005,  2232.608,  2232.608, 0.022739,-0.002180,-1.024019, 0.000225,-0.000030,-0.010266,-0.006354,-0.027828,-0.238235,1,-0.002410, 0.008240,-0.000383,1,-0.229600,-0.006529, 9.803960,1,0
1778781197026,  2232.633,  2232.628, 0.025306, 0.002502,-0.981890, 0.000252, 0.000032,-0.009782,-0.009649, 0.004478, 0.273822,1,-0.001754, 0.007649, 0.000972,1,-0.232694,-0.006236, 9.803887,1,0
1778781197049,  2232.653,  2232.653, 0.031159, 0.000526,-1.010741, 0.000314,-0.000003,-0.010129, 0.074950,-0.002154,-0.108054,1, 0.005082, 0.006446,-0.000894,1,-0.230817,-0.007153, 9.803930,1,0
1778781197075,  2232.678,  2232.678, 0.019341,-0.001712,-0.969872, 0.000204,-0.000013,-0.009694,-0.043185,-0.021841, 0.292687,1, 0.008405, 0.001730, 0.000385,1,-0.232907,-0.004792, 9.803883,1,0
1778781197097,  2232.703,  2232.698, 0.027712, 0.001564,-1.028210, 0.000270, 0.000011,-0.010301,-0.041238,-0.038648,-0.217221,1,-0.013530,-0.016041,-0.000427,1,-0.229499,-0.006685, 9.803962,1,0
1778781197119,  2232.723,  2232.723, 0.025698, 0.002070,-0.968452, 0.000273, 0.000025,-0.009702, 0.019360, 0.013877, 0.306616,1, 0.005369, 0.008747, 0.000492,1,-0.232923,-0.006251, 9.803882,1,0
1778781197145,  2232.748,  2232.748, 0.020068,-0.002368,-1.008075, 0.000205,-0.000025,-0.010050,-0.033809,-0.029821,-0.081899,1,-0.003005,-0.014775,-0.001101,1,-0.230148,-0.006696, 9.803946,1,0
1778781197167,  2232.773,  2232.768, 0.019906, 0.001223,-0.969944, 0.000210, 0.000015,-0.009713, 0.000517, 0.027948, 0.074439,1, 0.008630, 0.017771,-0.000364,1,-0.232012,-0.005648, 9.803904,1,0
1778781197189,  2232.793,  2232.793, 0.023164, 0.000771,-1.015195, 0.000225, 0.000007,-0.010116,-0.003180, 0.000454,-0.151724,1,-0.009630,-0.015185,-0.000917,1,-0.229870,-0.007411, 9.803953,1,0
1778781197215,  2232.818,  2232.818, 0.030859, 0.002893,-0.991961, 0.000306, 0.000023,-0.009973, 0.071131, 0.022276, 0.076102,1, 0.017180, 0.020529,-0.000823,1,-0.232133,-0.005561, 9.803901,1,0
1778781197237,  2232.843,  2232.838, 0.017666,-0.002477,-1.012092, 0.000164,-0.000031,-0.010075,-0.060241,-0.023423, 0.213293,1,-0.005220,-0.013883,-0.000940,1,-0.232148,-0.004515, 9.803901,1,0
1778781197260,  2232.863,  2232.863, 0.026696, 0.003641,-1.001761, 0.000257, 0.000026,-0.010063, 0.030632, 0.029165,-0.020001,1, 0.004350, 0.016056,-0.000294,1,-0.231666,-0.006401, 9.803911,1,0
1778781197285,  2232.888,  2232.888, 0.019135, 0.002345,-0.984702, 0.000199, 0.000033,-0.009802,-0.044491, 0.016693, 0.147274,1,-0.005507,-0.011875, 0.000386,1,-0.231768,-0.006479, 9.803908,1,0
1778781197307,  2232.913,  2232.908, 0.026123, 0.001517,-0.999783, 0.000267, 0.000013,-0.010061, 0.014957,-0.026900,-0.232195,1, 0.004517, 0.001247,-0.000682,1,-0.229748,-0.006846, 9.803956,1,0
1778781197330,  2232.933,  2232.933, 0.021224,-0.002230,-0.972513, 0.000219,-0.000021,-0.009693,-0.024782,-0.026601, 0.266791,1,-0.005407,-0.008786, 0.000639,1,-0.232646,-0.004896, 9.803889,1,0
1778781197355,  2232.958,  2232.953, 0.028608,-0.002842,-1.019826, 0.000282,-0.000035,-0.010212, 0.050009,-0.034485,-0.197137,1,-0.003830, 0.000374,-0.000885,1,-0.230551,-0.006730, 9.803937,1,0
1778781197377,  2232.983,  2232.978, 0.021062,-0.000451,-0.969425, 0.000218,-0.000006,-0.009656, 0.036098, 0.009991, 0.302867,1, 0.006463, 0.012152, 0.001272,1,-0.233661,-0.004983, 9.803864,1,0
1778781197400,  2233.008,  2233.003, 0.029142,-0.001428,-1.023690, 0.000278,-0.000018,-0.010236, 0.055921,-0.021487,-0.235013,1,-0.004850,-0.003451,-0.001353,1,-0.229754,-0.007633, 9.803955,1,0
1778781197425,  2233.028,  2233.028, 0.025171, 0.002496,-0.973609, 0.000258, 0.000030,-0.009764, 0.014776, 0.018444, 0.256056,1, 0.009274, 0.010883,-0.000495,1,-0.232412,-0.005745, 9.803894,1,0
1778781197447,  2233.053,  2233.048, 0.023067, 0.002227,-1.027159, 0.000216, 0.000019,-0.010265,-0.063278, 0.008439,-0.059633,1,-0.014244,-0.023772, 0.000123,1,-0.229223,-0.007262, 9.803968,1,0
1778781197470,  2233.078,  2233.073, 0.022437, 0.004282,-0.978219, 0.000234, 0.000053,-0.009815,-0.010671, 0.035404, 0.210883,1, 0.010813, 0.013115, 0.000569,1,-0.231116,-0.006250, 9.803925,1,0
1778781197495,  2233.098,  2233.098, 0.021207,-0.001374,-1.000465, 0.000207,-0.000010,-0.009959,-0.021381,-0.019819,-0.007241,1,-0.005195,-0.019375,-0.000989,1,-0.228741,-0.006511, 9.803980,1,0
1778781197517,  2233.123,  2233.118, 0.024254, 0.002642,-0.972469, 0.000259, 0.000030,-0.009771, 0.057016, 0.022723,-0.056774,1, 0.014004, 0.014833, 0.000503,1,-0.229080,-0.005390, 9.803972,1,0
1778781197540,  2233.148,  2233.143, 0.015693,-0.002360,-1.001016, 0.000151,-0.000019,-0.009955,-0.074288,-0.028364,-0.012625,1,-0.013230,-0.025832, 0.000246,1,-0.227382,-0.005635, 9.804012,1,0
1778781197566,  2233.168,  2233.168, 0.026169, 0.002861,-1.016993, 0.000256, 0.000014,-0.010223, 0.030059, 0.022073,-0.169262,1, 0.007774, 0.013005,-0.000028,1,-0.226975,-0.005743, 9.804021,1,0
1778781197587,  2233.193,  2233.188, 0.033799,-0.001566,-0.995378, 0.000329,-0.000015,-0.009888, 0.028742, 0.025582, 0.310382,1,-0.003864,-0.003647, 0.000704,1,-0.228772,-0.004932, 9.803980,1,0
1778781197610,  2233.218,  2233.213, 0.032196, 0.003371,-1.000260, 0.000331, 0.000032,-0.010070, 0.089386, 0.027277,-0.005167,1, 0.016045, 0.017538, 0.000232,1,-0.226891,-0.005279, 9.804024,1,0
1778781197636,  2233.238,  2233.238, 0.027041,-0.006904,-0.963097, 0.000258,-0.000051,-0.009580, 0.037115,-0.070807, 0.359242,1,-0.006718,-0.017234,-0.000723,1,-0.227530,-0.003315, 9.804009,1,0
1778781197657,  2233.263,  2233.258, 0.042080, 0.001387,-1.003421, 0.000425, 0.000013,-0.010114, 0.181679, 0.004713,-0.298421,1,-0.009564,-0.008456,-0.000244,1,-0.223256,-0.007580, 9.804106,1,0
1778781197680,  2233.288,  2233.283, 0.032167,-0.005329,-0.961814, 0.000333,-0.000039,-0.009569, 0.089812,-0.056745, 0.371883,1,-0.002766,-0.020335,-0.000422,1,-0.225003,-0.004567, 9.804068,1,0
1778781197706,  2233.308,  2233.308, 0.036319, 0.000240,-1.033784, 0.000365, 0.000001,-0.010346, 0.135500,-0.005114,-0.333790,1,-0.010156,-0.008924,-0.000142,1,-0.220388,-0.007781, 9.804171,1,0
1778781197727,  2233.333,  2233.328, 0.025689,-0.004823,-0.973984, 0.000256,-0.000033,-0.009686, 0.028403, 0.023129, 0.303686,1, 0.009371, 0.013706, 0.002211,1,-0.223633,-0.006028, 9.804098,1,0
1778781197754,  2233.358,  2233.358, 0.041921, 0.002918,-1.043977, 0.000405, 0.000030,-0.010445, 0.192590, 0.018542,-0.433705,1,-0.006013,-0.001891, 0.000257,1,-0.218451,-0.010260, 9.804212,1,0
1778781197776,  2233.378,  2233.378, 0.033678, 0.002269,-0.962275, 0.000347, 0.000026,-0.009661, 0.107578, 0.015276, 0.367427,1, 0.020121, 0.020314, 0.000957,1,-0.223330,-0.006344, 9.804105,1,0
1778781197797,  2233.403,  2233.398, 0.032560, 0.002081,-1.042426, 0.000321, 0.000023,-0.010424, 0.078696,-0.029570,-0.141606,1,-0.020999,-0.028040,-0.001725,1,-0.219535,-0.008541, 9.804189,1,0
1778781197824,  2233.428,  2233.428, 0.025999, 0.000114,-0.963638, 0.000265, 0.000003,-0.009667, 0.031534,-0.005650, 0.354038,1, 0.011652, 0.018841, 0.000862,1,-0.224016,-0.006408, 9.804089,1,0
1778781197846,  2233.453,  2233.448, 0.041858, 0.003453,-1.040175, 0.000421, 0.000037,-0.010440, 0.122182, 0.007119,-0.247800,1,-0.023050,-0.020148,-0.001306,1,-0.220998,-0.009801, 9.804154,1,0
1778781197867,  2233.473,  2233.468, 0.032006,-0.002032,-0.946484, 0.000331,-0.000014,-0.009491, 0.163537, 0.008436, 0.089448,1, 0.021534, 0.036859, 0.001429,1,-0.225143,-0.008378, 9.804062,1,0
1778781197894,  2233.498,  2233.498, 0.029499,-0.000458,-1.017491, 0.000296,-0.000014,-0.010115, 0.064992,-0.013880,-0.174100,1,-0.024780,-0.020299,-0.001904,1,-0.223666,-0.010162, 9.804093,1,0
1778781197916,  2233.523,  2233.518, 0.031315, 0.001503,-0.952080, 0.000317, 0.000016,-0.009522, 0.108594, 0.006039, 0.143293,1, 0.007858, 0.030955, 0.000358,1,-0.227387,-0.010483, 9.804008,1,0
1778781197938,  2233.543,  2233.538, 0.040484, 0.004402,-1.024475, 0.000394, 0.000048,-0.010191, 0.098029, 0.013508, 0.218524,1,-0.020580,-0.022245,-0.001368,1,-0.226917,-0.012046, 9.804017,1,0
1778781197965,  2233.568,  2233.568, 0.038570, 0.004689,-0.974312, 0.000411, 0.000049,-0.009828, 0.150713, 0.032740, 0.249266,1, 0.020423, 0.025219,-0.000557,1,-0.228314,-0.012604, 9.803984,1,0
1778781197986,  2233.593,  2233.588, 0.034434, 0.002931,-1.033984, 0.000329, 0.000029,-0.010279, 0.017030,-0.001437, 0.180364,1,-0.011819,-0.028483,-0.002279,1,-0.226318,-0.011924, 9.804031,1,0
1778781198008,  2233.613,  2233.608, 0.034237, 0.008928,-0.976693, 0.000341, 0.000092,-0.009853, 0.125495, 0.037159,-0.316900,1,-0.004313, 0.014003, 0.001229,1,-0.224446,-0.014723, 9.804070,1,0
1778781198035,  2233.638,  2233.638, 0.031879, 0.006654,-0.992716, 0.000308, 0.000056,-0.009833, 0.086669, 0.051686, 0.068816,1,-0.019024,-0.029921,-0.002322,1,-0.225023,-0.014162, 9.804058,1,0
1778781198056,  2233.663,  2233.658, 0.027471, 0.002211,-0.965178, 0.000290, 0.000025,-0.009730, 0.120614, 0.037043,-0.229248,1, 0.015360, 0.023936,-0.000220,1,-0.225305,-0.014590, 9.804050,1,0
1778781198078,  2233.683,  2233.678, 0.019378, 0.001425,-0.999985, 0.000183, 0.000016,-0.009909,-0.043878, 0.011498, 0.478832,1, 0.003738,-0.007263,-0.001150,1,-0.228301,-0.011337, 9.803986,1,0
1778781198105,  2233.708,  2233.708, 0.038581, 0.003899,-1.024131, 0.000393, 0.000042,-0.010331, 0.153321, 0.023385,-0.239238,1, 0.008879, 0.023234, 0.000803,1,-0.225755,-0.014573, 9.804040,1,0
1778781198126,  2233.733,  2233.728, 0.033173, 0.002364,-1.007103, 0.000309, 0.000014,-0.009968, 0.075763, 0.004359, 0.400083,1, 0.011976,-0.008033, 0.000080,1,-0.228701,-0.010807, 9.803977,1,0
1778781198148,  2233.753,  2233.748, 0.046604,-0.001222,-1.015889, 0.000486,-0.000005,-0.010258, 0.209615,-0.023244,-0.443699,1,-0.001556,-0.005502,-0.000088,1,-0.224761,-0.011714, 9.804067,1,0
1778781198175,  2233.778,  2233.778, 0.035298,-0.005662,-0.944358, 0.000340,-0.000038,-0.009378, 0.114737,-0.061920, 0.542923,1, 0.009185,-0.008391,-0.001212,1,-0.231158,-0.006111, 9.803924,1,0
1778781198196,  2233.803,  2233.798, 0.063315, 0.003604,-1.011315, 0.000637, 0.000044,-0.010256, 0.313740,-0.002739,-0.579932,1,-0.016728,-0.000157, 0.000096,1,-0.226526,-0.010131, 9.804029,1,0
1778781198218,  2233.823,  2233.818, 0.036382,-0.009142,-0.931374, 0.000388,-0.000082,-0.009243, 0.277188,-0.044319, 0.630240,1, 0.026659, 0.035242, 0.000111,1,-0.234855,-0.006271, 9.803835,1,0
1778781198245,  2233.848,  2233.848, 0.027856,-0.007416,-1.051757, 0.000275,-0.000086,-0.010524, 0.044810,-0.080492,-0.510222,1,-0.014549,-0.007685,-0.001351,1,-0.228259,-0.008201, 9.803989,1,0
1778781198266,  2233.873,  2233.868, 0.033080, 0.004248,-0.970336, 0.000345, 0.000037,-0.009638, 0.149494,-0.036723, 0.353482,1,-0.004517, 0.015564,-0.000521,1,-0.233192,-0.008478, 9.803873,1,0
1778781198289,  2233.893,  2233.893, 0.021900,-0.004236,-1.030770, 0.000237,-0.000026,-0.010331,-0.011625,-0.053961,-0.304373,1, 0.006919,-0.010566,-0.002590,1,-0.226057,-0.012211, 9.804036,1,0
1778781198315,  2233.918,  2233.918, 0.005040,-0.003919,-0.973915, 0.000040,-0.000034,-0.009742,-0.178275,-0.048593, 0.253154,1, 0.001151, 0.005455,-0.001952,1,-0.227867,-0.010125, 9.803997,1,0
1778781198337,  2233.943,  2233.938, 0.050930, 0.014229,-1.027177, 0.000492, 0.000136,-0.010296, 0.111682, 0.020541,-0.220856,1,-0.034761,-0.012107,-0.001736,1,-0.225513,-0.015869, 9.804044,1,0
1778781198359,  2233.963,  2233.963, 0.025299, 0.015065,-0.943928, 0.000276, 0.000177,-0.009450, 0.018544, 0.132507, 0.547181,1, 0.022925, 0.007751,-0.000428,1,-0.229799,-0.014519, 9.803946,1,0
1778781198385,  2233.988,  2233.988, 0.018336,-0.003166,-1.020055, 0.000157,-0.000039,-0.010116,-0.045938,-0.044949,-0.199281,1,-0.008453,-0.027511,-0.003573,1,-0.224891,-0.014173, 9.804061,1,0
1778781198407,  2234.013,  2234.008, 0.046446, 0.015487,-0.957864, 0.000465, 0.000156,-0.009623, 0.192931, 0.090415,-0.086845,1, 0.000859, 0.038051, 0.000527,1,-0.228568,-0.015285, 9.803974,1,0
1778781198429,  2234.033,  2234.033, 0.033684, 0.005741,-1.010060, 0.000353, 0.000035,-0.010067, 0.101741, 0.041477,-0.101327,1,-0.008337,-0.020631,-0.002825,1,-0.227945,-0.015089, 9.803988,1,0
1778781198455,  2234.058,  2234.058, 0.020402, 0.004319,-0.992715, 0.000215, 0.000050,-0.009996,-0.030591, 0.027946, 0.068714,1, 0.017116, 0.028112, 0.000279,1,-0.231561,-0.013878, 9.803905,1,0
1778781198477,  2234.083,  2234.078, 0.038043, 0.003188,-1.035699, 0.000361, 0.000010,-0.010323, 0.025635,-0.089420, 0.074439,1,-0.010285,-0.019951,-0.003101,1,-0.231730,-0.013113, 9.803903,1,0
1778781198500,  2234.103,  2234.103, 0.039337, 0.011566,-0.957200, 0.000400, 0.000131,-0.009655, 0.151719, 0.099974, 0.416920,1, 0.021202, 0.026125,-0.000306,1,-0.234864,-0.012791, 9.803829,1,0
1778781198525,  2234.128,  2234.128, 0.035242,-0.008251,-0.992764, 0.000350,-0.000087,-0.009820, 0.113853,-0.092889, 0.068215,1,-0.007902,-0.037753,-0.003714,1,-0.230579,-0.012225, 9.803931,1,0
1778781198547,  2234.153,  2234.148, 0.010278,-0.010523,-0.954993, 0.000094,-0.000074,-0.009574,-0.074156, 0.016653,-0.005354,1, 0.023228, 0.024820,-0.001471,1,-0.231028,-0.010772, 9.803923,1,0
1778781198570,  2234.173,  2234.173, 0.039018,-0.002725,-1.051204, 0.000370,-0.000063,-0.010440, 0.155833,-0.038365,-0.504775,1,-0.031125,-0.032321,-0.003517,1,-0.225798,-0.012620, 9.804042,1,0
1778781198595,  2234.198,  2234.198, 0.053483, 0.009348,-0.965783, 0.000520, 0.000124,-0.009789, 0.293664, 0.079682, 0.332825,1, 0.024464, 0.051534, 0.000331,1,-0.232429,-0.011225, 9.803888,1,0
1778781198617,  2234.223,  2234.218, 0.023342, 0.004414,-1.043386, 0.000286, 0.000029,-0.010442, 0.266733,-0.138403, 0.088893,1,-0.017665,-0.039959,-0.004399,1,-0.229983,-0.011678, 9.803946,1,0
1778781198640,  2234.248,  2234.243, 0.029214,-0.016059,-0.953703, 0.000249,-0.000133,-0.009540, 0.051647,-0.165674, 0.451198,1,-0.007346, 0.015339,-0.000377,1,-0.235530,-0.008306, 9.803818,1,0
1778781198665,  2234.268,  2234.268, 0.058892, 0.030207,-1.060156, 0.000591, 0.000248,-0.010586, 0.346893, 0.278134,-0.592662,1,-0.037589,-0.007821,-0.002233,1,-0.230394,-0.019274, 9.803925,1,0
1778781198687,  2234.293,  2234.288, 0.026291,-0.019698,-0.953222, 0.000301,-0.000218,-0.009385, 0.227989,-0.048963, 0.721395,1, 0.048277, 0.028008, 0.001134,1,-0.238663,-0.010757, 9.803740,1,0
1778781198710,  2234.318,  2234.313, 0.035388, 0.012795,-1.067155, 0.000297, 0.000142,-0.010753, 0.116542, 0.113850,-0.661278,1, 0.012269, 0.032008, 0.000170,1,-0.231499,-0.011246, 9.803911,1,0
1778781198735,  2234.338,  2234.338, 0.061217, 0.000326,-0.936732, 0.000598,-0.000055,-0.009348, 0.361186,-0.007433, 0.617520,1,-0.009812, 0.012520,-0.001571,1,-0.239539,-0.010941, 9.803718,1,0
1778781198757,  2234.358,  2234.358, 0.057154, 0.017258,-1.015693, 0.000574, 0.000187,-0.010142, 0.324208, 0.156924,-0.156756,1,-0.000155,-0.003770,-0.002530,1,-0.236165,-0.012327, 9.803798,1,0
1778781198780,  2234.388,  2234.383, 0.035463,-0.004386,-1.000177, 0.000354,-0.000055,-0.009932, 0.110683,-0.051911,-0.004602,1,-0.023379,-0.022978,-0.004039,1,-0.236377,-0.009628, 9.803796,1,0
1778781198806,  2234.408,  2234.408, 0.058378, 0.018180,-1.020018, 0.000551, 0.000191,-0.010251, 0.336912, 0.164617,-0.199149,1, 0.010868, 0.014484,-0.002241,1,-0.236032,-0.013329, 9.803800,1,0
1778781198827,  2234.433,  2234.428, 0.054225, 0.008078,-0.986436, 0.000529, 0.000088,-0.009810, 0.269815,-0.026432, 0.344279,1, 0.008994,-0.004694,-0.004668,1,-0.237406,-0.009608, 9.803771,1,0
1778781198850,  2234.458,  2234.453, 0.067470,-0.002411,-0.994677, 0.000666,-0.000059,-0.009985, 0.424287,-0.034534, 0.049322,1,-0.017324, 0.020343,-0.002771,1,-0.238011,-0.011444, 9.803755,1,0
1778781198876,  2234.478,  2234.478, 0.059755,-0.003910,-0.976622, 0.000610,-0.000032,-0.009764, 0.345632,-0.050354, 0.226301,1,-0.009101, 0.005931,-0.001610,1,-0.240550,-0.012296, 9.803692,1,0
1778781198897,  2234.503,  2234.498, 0.053595,-0.004141,-1.005907, 0.000508,-0.000045,-0.010087, 0.305703, 0.088000,-0.109223,1, 0.005096,-0.011046,-0.002996,1,-0.238621,-0.013237, 9.803738,1,0
1778781198920,  2234.528,  2234.523, 0.064063,-0.001317,-0.983297, 0.000665,-0.000008,-0.009826, 0.387742,-0.025938, 0.160846,1,-0.001365,-0.000726,-0.001063,1,-0.240478,-0.013067, 9.803693,1,0
1778781198946,  2234.548,  2234.548, 0.078276,-0.000138,-1.000086, 0.000801, 0.000024,-0.009994, 0.526959,-0.012987,-0.003808,1, 0.013567,-0.002070,-0.003421,1,-0.240604,-0.011214, 9.803692,1,0
1778781198967,  2234.573,  2234.568, 0.076588,-0.001871,-0.991248, 0.000770,-0.000044,-0.009916, 0.447601,-0.038212, 0.060380,1, 0.007243, 0.006148,-0.002903,1,-0.241242,-0.009273, 9.803678,1,0
1778781198994,  2234.598,  2234.598, 0.077734, 0.004175,-0.980566, 0.000779, 0.000040,-0.009823, 0.519084, 0.028306, 0.187557,1,-0.007194, 0.010519,-0.001777,1,-0.243555,-0.012859, 9.803617,1,0
1778781199016,  2234.618,  2234.618, 0.060174, 0.002856,-0.996404, 0.000615, 0.000038,-0.009939, 0.347133, 0.016181, 0.032243,1, 0.005947,-0.010054,-0.003404,1,-0.242661,-0.011643, 9.803640,1,0
1778781199037,  2234.643,  2234.638, 0.073392, 0.002569,-1.000737, 0.000736, 0.000027,-0.010061, 0.430088, 0.095786,-0.173546,1, 0.001174,-0.001402,-0.002985,1,-0.241491,-0.011402, 9.803670,1,0
1778781199064,  2234.668,  2234.668, 0.076858,-0.003567,-0.982134, 0.000790,-0.000002,-0.009799, 0.510623,-0.044581, 0.172189,1, 0.017622,-0.005692,-0.003991,1,-0.242915,-0.009053, 9.803637,1,0
1778781199086,  2234.693,  2234.688, 0.064510,-0.010222,-1.004558, 0.000646,-0.000109,-0.010060, 0.407026, 0.026794,-0.033570,1, 0.009435,-0.002403,-0.004318,1,-0.242036,-0.007282, 9.803660,1,0
1778781199107,  2234.713,  2234.708, 0.076986, 0.004528,-0.998296, 0.000776, 0.000089,-0.009975, 0.480150, 0.097118, 0.025106,1,-0.012168, 0.007666,-0.003976,1,-0.243467,-0.009394, 9.803623,1,0
1778781199134,  2234.738,  2234.738, 0.071464, 0.010833,-0.993012, 0.000718, 0.000132,-0.009909, 0.456756, 0.096515, 0.065488,1, 0.011864,-0.006068,-0.004814,1,-0.243877,-0.009351, 9.803613,1,0
1778781199156,  2234.763,  2234.758, 0.072682, 0.000267,-1.006927, 0.000726, 0.000024,-0.010072, 0.408194, 0.049285,-0.061345,1, 0.005122, 0.000012,-0.004618,1,-0.242973,-0.008185, 9.803637,1,0
1778781199178,  2234.783,  2234.778, 0.077402, 0.004201,-0.982088, 0.000764, 0.000067,-0.009824, 0.442038, 0.016736, 0.073971,1, 0.001385, 0.009985,-0.003754,1,-0.244101,-0.007470, 9.803609,1,0
1778781199205,  2234.808,  2234.808, 0.068436, 0.004404,-0.995324, 0.000684, 0.000025,-0.009943, 0.426747, 0.036926, 0.042805,1, 0.003918,-0.000376,-0.005725,1,-0.244365,-0.006148, 9.803603,1,0
1778781199226,  2234.833,  2234.828, 0.073079, 0.007345,-0.984666, 0.000718, 0.000056,-0.009832, 0.412056,-0.045097, 0.130251,1,-0.006384, 0.009533,-0.003229,1,-0.245920,-0.006035, 9.803564,1,0
1778781199248,  2234.853,  2234.848, 0.068065, 0.004809,-0.996948, 0.000677, 0.000025,-0.009981, 0.478862, 0.008346, 0.018799,1,-0.000429,-0.005975,-0.004049,1,-0.245829,-0.006442, 9.803566,1,0
1778781199275,  2234.878,  2234.878, 0.072350,-0.005383,-1.000867, 0.000734,-0.000056,-0.010012, 0.464237,-0.057218,-0.011569,1, 0.002572,-0.002507,-0.004329,1,-0.245196,-0.004347, 9.803583,1,0
1778781199296,  2234.903,  2234.898, 0.071128,-0.008508,-0.988872, 0.000721,-0.000093,-0.009903, 0.545053, 0.004572, 0.030053,1, 0.007919, 0.001816,-0.005355,1,-0.245654,-0.003461, 9.803572,1,0
1778781199318,  2234.923,  2234.918, 0.071204,-0.002247,-1.000607, 0.000732, 0.000009,-0.009992, 0.494010, 0.049386, 0.113203,1, 0.010382,-0.000044,-0.008264,1,-0.246037,-0.002377, 9.803563,1,0
1778781199345,  2234.948,  2234.948, 0.079118, 0.009977,-0.993400, 0.000776, 0.000094,-0.009921, 0.529839, 0.094644, 0.061640,1, 0.001118, 0.001082,-0.008113,1,-0.246075,-0.003170, 9.803561,1,0
1778781199366,  2234.973,  2234.968, 0.081075, 0.006347,-0.994188, 0.000818, 0.000084,-0.009918, 0.473414, 0.062309, 0.125598,1,-0.001799, 0.003655,-0.007521,1,-0.246216,-0.003853, 9.803558,1,0
1778781199388,  2234.993,  2234.988, 0.075375, 0.005845,-0.999346, 0.000727, 0.000037,-0.009988, 0.429587,-0.026127,-0.021910,1, 0.001133,-0.004157,-0.007281,1,-0.245075,-0.002971, 9.803587,1,0
1778781199415,  2235.018,  2235.018, 0.063763,-0.007363,-0.984261, 0.000628,-0.000092,-0.009857, 0.378893,-0.072789, 0.151252,1, 0.003713, 0.006936,-0.008565,1,-0.246628,-0.000476, 9.803548,1,0
1778781199436,  2235.043,  2235.038, 0.062587,-0.003204,-0.989026, 0.000607,-0.000045,-0.009903, 0.395514,-0.025529, 0.072275,1,-0.002753,-0.003404,-0.007512,1,-0.246343, 0.000203, 9.803555,1,0
1778781199458,  2235.063,  2235.058, 0.064198,-0.002452,-1.001572, 0.000667,-0.000021,-0.010017, 0.480186, 0.028218, 0.048384,1, 0.003974,-0.002792,-0.010079,1,-0.246619,-0.000249, 9.803549,1,0
1778781199485,  2235.088,  2235.088, 0.079488, 0.002364,-0.994648, 0.000803, 0.000040,-0.009938, 0.532711, 0.023070, 0.049384,1, 0.007756,-0.000615,-0.009688,1,-0.246784, 0.000122, 9.803544,1,0
1778781199507,  2235.113,  2235.108, 0.069329,-0.000276,-0.988232, 0.000722, 0.000027,-0.009875, 0.471935, 0.053564, 0.126439,1, 0.009084, 0.002981,-0.009843,1,-0.247052, 0.000891, 9.803537,1,0
1778781199529,  2235.133,  2235.133, 0.068532, 0.003273,-0.992639, 0.000672, 0.000021,-0.009908, 0.425612, 0.034377, 0.069093,1, 0.002614,-0.005637,-0.010006,1,-0.246280, 0.002352, 9.803556,1,0
1778781199555,  2235.158,  2235.158, 0.063134,-0.006035,-0.994897, 0.000603,-0.000075,-0.009975, 0.373139,-0.057373, 0.046961,1,-0.003762, 0.008160,-0.008841,1,-0.246251, 0.001681, 9.803557,1,0
1778781199577,  2235.183,  2235.178, 0.065127,-0.001989,-0.987707, 0.000627,-0.000034,-0.009890, 0.391449,-0.018216, 0.048023,1, 0.000515,-0.004229,-0.008311,1,-0.245907, 0.002577, 9.803566,1,0
1778781199599,  2235.203,  2235.203, 0.061836,-0.003393,-1.000674, 0.000648,-0.000021,-0.010007, 0.360449,-0.030657,-0.009695,1,-0.007779,-0.002671,-0.008723,1,-0.245871, 0.002369, 9.803567,1,0
1778781199625,  2235.228,  2235.228, 0.071593, 0.008945,-0.995575, 0.000726, 0.000115,-0.009942, 0.455471, 0.089274, 0.040290,1, 0.002369,-0.002107,-0.011179,1,-0.246549, 0.001616, 9.803550,1,0
1778781199647,  2235.253,  2235.248, 0.070780, 0.012503,-1.003923, 0.000722, 0.000150,-0.010033, 0.460690, 0.093195,-0.007123,1, 0.001235,-0.000731,-0.013905,1,-0.246228, 0.000620, 9.803558,1,0
1778781199669,  2235.273,  2235.273, 0.069575, 0.000728,-0.988086, 0.000678,-0.000020,-0.009863, 0.435887, 0.009797, 0.113738,1, 0.008820,-0.003253,-0.015212,1,-0.246307, 0.002917, 9.803555,1,0
1778781199695,  2235.298,  2235.298, 0.061569,-0.007955,-1.006853, 0.000611,-0.000083,-0.010095, 0.358520,-0.073870,-0.070270,1,-0.000185, 0.005766,-0.011037,1,-0.245446, 0.004126, 9.803577,1,0
1778781199717,  2235.323,  2235.318, 0.066136,-0.008107,-0.994876, 0.000670,-0.000091,-0.009962, 0.486017,-0.052153, 0.069128,1, 0.007207,-0.003840,-0.012740,1,-0.246220, 0.005872, 9.803556,1,0
1778781199740,  2235.343,  2235.343, 0.065471,-0.005323,-0.989544, 0.000681,-0.000011,-0.009891, 0.395452,-0.046410, 0.099435,1, 0.009097,-0.002603,-0.010739,1,-0.246517, 0.006063, 9.803549,1,0
1778781199765,  2235.368,  2235.368, 0.064538, 0.003698,-0.997087, 0.000640, 0.000013,-0.009957, 0.386757, 0.041207, 0.025479,1, 0.001918,-0.005025,-0.013364,1,-0.245991, 0.004995, 9.803563,1,0
1778781199787,  2235.393,  2235.388, 0.075747, 0.000915,-0.982385, 0.000750,-0.000018,-0.009811, 0.431164,-0.115944, 0.055617,1,-0.008243, 0.008407,-0.010943,1,-0.246448, 0.004949, 9.803552,1,0
1778781199810,  2235.413,  2235.413, 0.068453,-0.004083,-0.989683, 0.000666,-0.000040,-0.009910, 0.425198,-0.033914, 0.098082,1,-0.006547, 0.004197,-0.011916,1,-0.246223, 0.005909, 9.803556,1,0
1778781199835,  2235.438,  2235.438, 0.064888,-0.000454,-0.996971, 0.000647,-0.000008,-0.009942, 0.390619, 0.001248, 0.026626,1, 0.001912,-0.006635,-0.013372,1,-0.245511, 0.005749, 9.803575,1,0
1778781199857,  2235.463,  2235.458, 0.066093, 0.002528,-0.990927, 0.000655, 0.000034,-0.009901, 0.391001, 0.036368, 0.071330,1,-0.002135, 0.003584,-0.013024,1,-0.245991, 0.004638, 9.803563,1,0
1778781199880,  2235.488,  2235.483, 0.064084, 0.006922,-0.999031, 0.000650, 0.000038,-0.009986, 0.383298, 0.072212, 0.006437,1,-0.002679,-0.003724,-0.014163,1,-0.245039, 0.004237, 9.803587,1,0
1778781199905,  2235.508,  2235.508, 0.072577, 0.001636,-0.995251, 0.000726, 0.000029,-0.009971, 0.466244, 0.021412, 0.043497,1,-0.002209, 0.004392,-0.013510,1,-0.245627, 0.005291, 9.803572,1,0
1778781199927,  2235.533,  2235.528, 0.070553, 0.001041,-1.003605, 0.000698, 0.000037,-0.010036, 0.383829, 0.092779, 0.033072,1, 0.015250,-0.001941,-0.017534,1,-0.245321, 0.006112, 9.803579,1,0
