Time,GPS_ts,fGPS_ts,scaledAccelX,scaledAccelY,scaledAccelZ,deltaVelX,deltaVelY,deltaVelZ,estLinearAccelX,estLinearAccelY,estLinearAccelZ,estLinearAccel:valid,estAngularRateX,estAngularRateY,estAngularRateZ,estAngularRate:valid,estGravityX,estGravityY,estGravityZ,estGravity:valid,flag
1777928444615,  1310.970,  1310.965,-0.007322,-0.013247,-0.996066,-0.000074,-0.000132,-0.009962, 0.004127, 0.000612, 0.039489,1,-0.000616,-0.000465, 0.000291,1, 0.073178, 0.130232, 9.805512,1,0
1777928444626,  1311.215,  1311.215,-0.007812,-0.012853,-0.995700,-0.000077,-0.000131,-0.009956,-0.003813, 0.004028, 0.041034,1, 0.000449, 0.000001,-0.000466,1, 0.072794, 0.130087, 9.805517,1,0
1777928444639,  1327.515,  1327.515,-0.008045,-0.012825,-0.995740,-0.000079,-0.000128,-0.009954,-0.001341, 0.004436, 0.040603,1, 0.000492,-0.000133,-0.000042,1, 0.077554, 0.130224, 9.805479,1,0
1777928444649,  1327.515,  1327.515,-0.008045,-0.012825,-0.995740,-0.000079,-0.000128,-0.009954,-0.001341, 0.004436, 0.040603,1, 0.000492,-0.000133,-0.000042,1, 0.077554, 0.130224, 9.805479,1,0
1777928444661,  1327.540,  1327.535,-0.007413,-0.012916,-0.995515,-0.000075,-0.000129,-0.009951, 0.001186,-0.003939, 0.030603,1,-0.000072, 0.000291,-0.000568,1, 0.077498, 0.130298, 9.805478,1,0
1777928444671,  1327.540,  1327.535,-0.007413,-0.012916,-0.995515,-0.000075,-0.000129,-0.009951, 0.001186,-0.003939, 0.030603,1,-0.000072, 0.000291,-0.000568,1, 0.077498, 0.130298, 9.805478,1,0
1777928444688,  1327.565,  1327.565,-0.007748,-0.013123,-0.995497,-0.000077,-0.000131,-0.009956, 0.001469, 0.001652, 0.042982,1, 0.000095,-0.000300,-0.000705,1, 0.077458, 0.130349, 9.805478,1,0
1777928444698,  1327.565,  1327.565,-0.007748,-0.013123,-0.995497,-0.000077,-0.000131,-0.009956, 0.001469, 0.001652, 0.042982,1, 0.000095,-0.000300,-0.000705,1, 0.077458, 0.130349, 9.805478,1,0
1777928444710,  1327.590,  1327.585,-0.007508,-0.013644,-0.995986,-0.000076,-0.000136,-0.009958, 0.004709,-0.004183, 0.038873,1, 0.000298, 0.000191,-0.000582,1, 0.077380, 0.130408, 9.805477,1,0
1777928444720,  1327.590,  1327.585,-0.007508,-0.013644,-0.995986,-0.000076,-0.000136,-0.009958, 0.004709,-0.004183, 0.038873,1, 0.000298, 0.000191,-0.000582,1, 0.077380, 0.130408, 9.805477,1,0
1777928444738,  1327.615,  1327.615,-0.007584,-0.013901,-0.995131,-0.000077,-0.000138,-0.009953, 0.002973,-0.005803, 0.046572,1, 0.000372,-0.000087,-0.000588,1, 0.077345, 0.130532, 9.805476,1,0
1777928444748,  1327.615,  1327.615,-0.007584,-0.013901,-0.995131,-0.000077,-0.000138,-0.009953, 0.002973,-0.005803, 0.046572,1, 0.000372,-0.000087,-0.000588,1, 0.077345, 0.130532, 9.805476,1,0
1777928444760,  1327.640,  1327.635,-0.007544,-0.013252,-0.996272,-0.000078,-0.000130,-0.009961, 0.005589,-0.000957, 0.036900,1, 0.000399, 0.000091,-0.000188,1, 0.077255, 0.130625, 9.805475,1,0
1777928444770,  1327.640,  1327.635,-0.007544,-0.013252,-0.996272,-0.000078,-0.000130,-0.009961, 0.005589,-0.000957, 0.036900,1, 0.000399, 0.000091,-0.000188,1, 0.077255, 0.130625, 9.805475,1,0
1777928444783,  1327.665,  1327.660,-0.007741,-0.013161,-0.995953,-0.000075,-0.000129,-0.009963, 0.001285, 0.001630, 0.038511,1, 0.000657, 0.000667,-0.000909,1, 0.077173, 0.130716, 9.805475,1,0
1777928444793,  1327.665,  1327.660,-0.007741,-0.013161,-0.995953,-0.000075,-0.000129,-0.009963, 0.001285, 0.001630, 0.038511,1, 0.000657, 0.000667,-0.000909,1, 0.077173, 0.130716, 9.805475,1,0
1777928444809,  1327.690,  1327.685,-0.008369,-0.013390,-0.995646,-0.000080,-0.000132,-0.009953, 0.000952, 0.002220, 0.047775,1,-0.000450,-0.000248,-0.000415,1, 0.077157, 0.130686, 9.805475,1,0
1777928444819,  1327.690,  1327.685,-0.008369,-0.013390,-0.995646,-0.000080,-0.000132,-0.009953, 0.000952, 0.002220, 0.047775,1,-0.000450,-0.000248,-0.000415,1, 0.077157, 0.130686, 9.805475,1,0
1777928444833,  1327.710,  1327.710,-0.008126,-0.013538,-0.995645,-0.000079,-0.000135,-0.009957,-0.002435,-0.002093, 0.041529,1, 0.000176,-0.000128,-0.000930,1, 0.077255, 0.130680, 9.805475,1,0
1777928444843,  1327.710,  1327.710,-0.008126,-0.013538,-0.995645,-0.000079,-0.000135,-0.009957,-0.002435,-0.002093, 0.041529,1, 0.000176,-0.000128,-0.000930,1, 0.077255, 0.130680, 9.805475,1,0
1777928444859,  1327.735,  1327.735,-0.008142,-0.013549,-0.995908,-0.000079,-0.000137,-0.009958,-0.002542,-0.002217, 0.038949,1,-0.000715,-0.000840,-0.000801,1, 0.077328, 0.130628, 9.805475,1,0
1777928444869,  1327.735,  1327.735,-0.008142,-0.013549,-0.995908,-0.000079,-0.000137,-0.009958,-0.002542,-0.002217, 0.038949,1,-0.000715,-0.000840,-0.000801,1, 0.077328, 0.130628, 9.805475,1,0
1777928444881,  1327.760,  1327.755,-0.007615,-0.013550,-0.994731,-0.000074,-0.000136,-0.009948, 0.002370,-0.005144, 0.036749,1,-0.000827,-0.000495,-0.000216,1, 0.077343, 0.130499, 9.805476,1,0
1777928444891,  1327.760,  1327.755,-0.007615,-0.013550,-0.994731,-0.000074,-0.000136,-0.009948, 0.002370,-0.005144, 0.036749,1,-0.000827,-0.000495,-0.000216,1, 0.077343, 0.130499, 9.805476,1,0
1777928444909,  1327.785,  1327.785,-0.007677,-0.013493,-0.996012,-0.000081,-0.000134,-0.009961, 0.002049,-0.001939, 0.037933,1,-0.000056, 0.000101,-0.000856,1, 0.077331, 0.130383, 9.805478,1,0
1777928444919,  1327.785,  1327.785,-0.007677,-0.013493,-0.996012,-0.000081,-0.000134,-0.009961, 0.002049,-0.001939, 0.037933,1,-0.000056, 0.000101,-0.000856,1, 0.077331, 0.130383, 9.805478,1,0
1777928444931,  1327.810,  1327.805,-0.007631,-0.013144,-0.995552,-0.000077,-0.000133,-0.009956, 0.003187,-0.002126, 0.042608,1,-0.000162,-0.000769, 0.000216,1, 0.077410, 0.130377, 9.805478,1,0
1777928444941,  1327.810,  1327.805,-0.007631,-0.013144,-0.995552,-0.000077,-0.000133,-0.009956, 0.003187,-0.002126, 0.042608,1,-0.000162,-0.000769, 0.000216,1, 0.077410, 0.130377, 9.805478,1,0
1777928444958,  1327.835,  1327.835,-0.007655,-0.012898,-0.995562,-0.000077,-0.000129,-0.009956, 0.002234, 0.003910, 0.042347,1,-0.000151,-0.000146,-0.000552,1, 0.077310, 0.130393, 9.805478,1,0
1777928444968,  1327.835,  1327.835,-0.007655,-0.012898,-0.995562,-0.000077,-0.000129,-0.009956, 0.002234, 0.003910, 0.042347,1,-0.000151,-0.000146,-0.000552,1, 0.077310, 0.130393, 9.805478,1,0
1777928444980,  1327.860,  1327.855,-0.007775,-0.013108,-0.995162,-0.000078,-0.000131,-0.009950, 0.000538, 0.000903, 0.042352,1,-0.000286, 0.000696,-0.001195,1, 0.077170, 0.130367, 9.805480,1,0
1777928444990,  1327.860,  1327.855,-0.007775,-0.013108,-0.995162,-0.000078,-0.000131,-0.009950, 0.000538, 0.000903, 0.042352,1,-0.000286, 0.000696,-0.001195,1, 0.077170, 0.130367, 9.805480,1,0
1777928445008,  1327.885,  1327.885,-0.007814,-0.013362,-0.995831,-0.000077,-0.000132,-0.009960, 0.000521,-0.000792, 0.039719,1,-0.000109, 0.000060, 0.000067,1, 0.077147, 0.130244, 9.805482,1,0
1777928445018,  1327.885,  1327.885,-0.007814,-0.013362,-0.995831,-0.000077,-0.000132,-0.009960, 0.000521,-0.000792, 0.039719,1,-0.000109, 0.000060, 0.000067,1, 0.077147, 0.130244, 9.805482,1,0
1777928445030,  1327.910,  1327.905,-0.007835,-0.013177,-0.996139,-0.000079,-0.000135,-0.009960,-0.000269, 0.000567, 0.045498,1, 0.000125,-0.000415,-0.000335,1, 0.077224, 0.130222, 9.805481,1,0
1777928445040,  1327.910,  1327.905,-0.007835,-0.013177,-0.996139,-0.000079,-0.000135,-0.009960,-0.000269, 0.000567, 0.045498,1, 0.000125,-0.000415,-0.000335,1, 0.077224, 0.130222, 9.805481,1,0
1777928445053,  1327.935,  1327.930,-0.007435,-0.013455,-0.995702,-0.000074,-0.000134,-0.009959, 0.004288,-0.001799, 0.040979,1,-0.000104,-0.000832,-0.000854,1, 0.077226, 0.130150, 9.805482,1,0
1777928445063,  1327.935,  1327.930,-0.007435,-0.013455,-0.995702,-0.000074,-0.000134,-0.009959, 0.004288,-0.001799, 0.040979,1,-0.000104,-0.000832,-0.000854,1, 0.077226, 0.130150, 9.805482,1,0
1777928445079,  1327.960,  1327.955,-0.007632,-0.013572,-0.995444,-0.000075,-0.000134,-0.009955, 0.001588, 0.000316, 0.041576,1,-0.000601,-0.000376,-0.000490,1, 0.077289, 0.130053, 9.805483,1,0
1777928445090,  1327.960,  1327.955,-0.007632,-0.013572,-0.995444,-0.000075,-0.000134,-0.009955, 0.001588, 0.000316, 0.041576,1,-0.000601,-0.000376,-0.000490,1, 0.077289, 0.130053, 9.805483,1,0
1777928445103,  1327.980,  1327.980,-0.007738,-0.013234,-0.995550,-0.000078,-0.000133,-0.009957, 0.001457, 0.000183, 0.042471,1,-0.000534,-0.000274,-0.000509,1, 0.077345, 0.129944, 9.805484,1,0
1777928445113,  1327.980,  1327.980,-0.007738,-0.013234,-0.995550,-0.000078,-0.000133,-0.009957, 0.001457, 0.000183, 0.042471,1,-0.000534,-0.000274,-0.000509,1, 0.077345, 0.129944, 9.805484,1,0
1777928445129,  1328.005,  1328.005,-0.008106,-0.013003,-0.995161,-0.000078,-0.000129,-0.009955,-0.002167, 0.002497, 0.046290,1, 0.000171,-0.000065,-0.000988,1, 0.077324, 0.130022, 9.805483,1,0
1777928445139,  1328.005,  1328.005,-0.008106,-0.013003,-0.995161,-0.000078,-0.000129,-0.009955,-0.002167, 0.002497, 0.046290,1, 0.000171,-0.000065,-0.000988,1, 0.077324, 0.130022, 9.805483,1,0
1777928445151,  1328.030,  1328.025,-0.007771,-0.012740,-0.996341,-0.000077,-0.000128,-0.009961, 0.002877, 0.001509, 0.036441,1, 0.000080, 0.000224,-0.001152,1, 0.077381, 0.130014, 9.805483,1,0
1777928445161,  1328.030,  1328.025,-0.007771,-0.012740,-0.996341,-0.000077,-0.000128,-0.009961, 0.002877, 0.001509, 0.036441,1, 0.000080, 0.000224,-0.001152,1, 0.077381, 0.130014, 9.805483,1,0
1777928445179,  1328.055,  1328.055,-0.007667,-0.013859,-0.995416,-0.000079,-0.000139,-0.009955, 0.002213,-0.005895, 0.043783,1,-0.000159, 0.000148,-0.000429,1, 0.077392, 0.130011, 9.805483,1,0
1777928445189,  1328.055,  1328.055,-0.007667,-0.013859,-0.995416,-0.000079,-0.000139,-0.009955, 0.002213,-0.005895, 0.043783,1,-0.000159, 0.000148,-0.000429,1, 0.077392, 0.130011, 9.805483,1,0
1777928445201,  1328.080,  1328.075,-0.007687,-0.013901,-0.995862,-0.000077,-0.000141,-0.009958,-0.000678,-0.007136, 0.042421,1,-0.000118, 0.000147,-0.000684,1, 0.077326, 0.129972, 9.805484,1,0
1777928445211,  1328.080,  1328.075,-0.007687,-0.013901,-0.995862,-0.000077,-0.000141,-0.009958,-0.000678,-0.007136, 0.042421,1,-0.000118, 0.000147,-0.000684,1, 0.077326, 0.129972, 9.805484,1,0
1777928445228,  1328.105,  1328.105,-0.007324,-0.013705,-0.996133,-0.000075,-0.000136,-0.009960, 0.005497,-0.004316, 0.036749,1,-0.000120, 0.000197,-0.000281,1, 0.077317, 0.130084, 9.805482,1,0
1777928445238,  1328.105,  1328.105,-0.007324,-0.013705,-0.996133,-0.000075,-0.000136,-0.009960, 0.005497,-0.004316, 0.036749,1,-0.000120, 0.000197,-0.000281,1, 0.077317, 0.130084, 9.805482,1,0
1777928445250,  1328.130,  1328.125,-0.008047,-0.012988,-0.996100,-0.000081,-0.000132,-0.009959, 0.005107,-0.001965, 0.046375,1, 0.000653, 0.000381,-0.000262,1, 0.077263, 0.130025, 9.805484,1,0
1777928445260,  1328.130,  1328.125,-0.008047,-0.012988,-0.996100,-0.000081,-0.000132,-0.009959, 0.005107,-0.001965, 0.046375,1, 0.000653, 0.000381,-0.000262,1, 0.077263, 0.130025, 9.805484,1,0
1777928445278,  1328.155,  1328.155,-0.007758,-0.012987,-0.995571,-0.000077,-0.000130,-0.009955, 0.001219, 0.002662, 0.042266,1, 0.000091,-0.000712,-0.000668,1, 0.077325, 0.130024, 9.805483,1,0
1777928445288,  1328.155,  1328.155,-0.007758,-0.012987,-0.995571,-0.000077,-0.000130,-0.009955, 0.001219, 0.002662, 0.042266,1, 0.000091,-0.000712,-0.000668,1, 0.077325, 0.130024, 9.805483,1,0
1777928445300,  1328.180,  1328.175,-0.008018,-0.013108,-0.996234,-0.000077,-0.000132,-0.009961, 0.003239, 0.001068, 0.040558,1,-0.000063, 0.000602,-0.000428,1, 0.077313, 0.130025, 9.805483,1,0
1777928445310,  1328.180,  1328.175,-0.008018,-0.013108,-0.996234,-0.000077,-0.000132,-0.009961, 0.003239, 0.001068, 0.040558,1,-0.000063, 0.000602,-0.000428,1, 0.077313, 0.130025, 9.805483,1,0
1777928445323,  1328.205,  1328.200,-0.007673,-0.012986,-0.995618,-0.000077,-0.000128,-0.009957, 0.002098, 0.002573, 0.041805,1, 0.000294,-0.000301,-0.000513,1, 0.077352, 0.129932, 9.805484,1,0
1777928445333,  1328.205,  1328.200,-0.007673,-0.012986,-0.995618,-0.000077,-0.000128,-0.009957, 0.002098, 0.002573, 0.041805,1, 0.000294,-0.000301,-0.000513,1, 0.077352, 0.129932, 9.805484,1,0
1777928445350,  1328.230,  1328.225,-0.008089,-0.012765,-0.996412,-0.000082,-0.000131,-0.009967, 0.000195, 0.005942, 0.035797,1, 0.000810, 0.000511,-0.000693,1, 0.077311, 0.130081, 9.805483,1,0
1777928445360,  1328.230,  1328.225,-0.008089,-0.012765,-0.996412,-0.000082,-0.000131,-0.009967, 0.000195, 0.005942, 0.035797,1, 0.000810, 0.000511,-0.000693,1, 0.077311, 0.130081, 9.805483,1,0
1777928445373,  1328.250,  1328.250,-0.007778,-0.013417,-0.995900,-0.000077,-0.000134,-0.009961, 0.001045,-0.001562, 0.039040,1,-0.000165, 0.000220, 0.000038,1, 0.077316, 0.130012, 9.805483,1,0
1777928445383,  1328.250,  1328.250,-0.007778,-0.013417,-0.995900,-0.000077,-0.000134,-0.009961, 0.001045,-0.001562, 0.039040,1,-0.000165, 0.000220, 0.000038,1, 0.077316, 0.130012, 9.805483,1,0
1777928445399,  1328.275,  1328.275,-0.007367,-0.013541,-0.996418,-0.000076,-0.000135,-0.009964, 0.005060,-0.002793, 0.033958,1,-0.000915,-0.000152,-0.000532,1, 0.077306, 0.129975, 9.805484,1,0
1777928445409,  1328.275,  1328.275,-0.007367,-0.013541,-0.996418,-0.000076,-0.000135,-0.009964, 0.005060,-0.002793, 0.033958,1,-0.000915,-0.000152,-0.000532,1, 0.077306, 0.129975, 9.805484,1,0
1777928445421,  1328.300,  1328.295,-0.007440,-0.013121,-0.995773,-0.000075,-0.000133,-0.009958, 0.003659,-0.009490, 0.046026,1,-0.000295, 0.000226,-0.000197,1, 0.077349, 0.129925, 9.805484,1,0
1777928445431,  1328.300,  1328.295,-0.007440,-0.013121,-0.995773,-0.000075,-0.000133,-0.009958, 0.003659,-0.009490, 0.046026,1,-0.000295, 0.000226,-0.000197,1, 0.077349, 0.129925, 9.805484,1,0
1777928445449,  1328.325,  1328.325,-0.007323,-0.013161,-0.996191,-0.000073,-0.000129,-0.009959, 0.005557, 0.000929, 0.036187,1, 0.000749, 0.000124,-0.000923,1, 0.077368, 0.130016, 9.805483,1,0
1777928445459,  1328.325,  1328.325,-0.007323,-0.013161,-0.996191,-0.000073,-0.000129,-0.009959, 0.005557, 0.000929, 0.036187,1, 0.000749, 0.000124,-0.000923,1, 0.077368, 0.130016, 9.805483,1,0
1777928445471,  1328.350,  1328.345,-0.007819,-0.013136,-0.995287,-0.000078,-0.000133,-0.009950, 0.000196,-0.000319, 0.046224,1,-0.000337, 0.000032,-0.000088,1, 0.077310, 0.130021, 9.805483,1,0
1777928445481,  1328.350,  1328.345,-0.007819,-0.013136,-0.995287,-0.000078,-0.000133,-0.009950, 0.000196,-0.000319, 0.046224,1,-0.000337, 0.000032,-0.000088,1, 0.077310, 0.130021, 9.805483,1,0
1777928445498,  1328.375,  1328.375,-0.006996,-0.013452,-0.996835,-0.000072,-0.000135,-0.009969, 0.008585,-0.001900, 0.029870,1, 0.000126, 0.000696,-0.000754,1, 0.077169, 0.130028, 9.805484,1,0
1777928445509,  1328.375,  1328.375,-0.006996,-0.013452,-0.996835,-0.000072,-0.000135,-0.009969, 0.008585,-0.001900, 0.029870,1, 0.000126, 0.000696,-0.000754,1, 0.077169, 0.130028, 9.805484,1,0
1777928445520,  1328.400,  1328.395,-0.007080,-0.013629,-0.995603,-0.000073,-0.000137,-0.009951,-0.002410,-0.003020, 0.041038,1,-0.000318, 0.000590,-0.000459,1, 0.077100, 0.129956, 9.805486,1,0
1777928445530,  1328.400,  1328.395,-0.007080,-0.013629,-0.995603,-0.000073,-0.000137,-0.009951,-0.002410,-0.003020, 0.041038,1,-0.000318, 0.000590,-0.000459,1, 0.077100, 0.129956, 9.805486,1,0
1777928445548,  1328.425,  1328.425,-0.008018,-0.012894,-0.998369,-0.000083,-0.000128,-0.009985,-0.001571, 0.003449, 0.014830,1,-0.000142, 0.000173,-0.000730,1, 0.077055, 0.129888, 9.805487,1,0
1777928445558,  1328.425,  1328.425,-0.008018,-0.012894,-0.998369,-0.000083,-0.000128,-0.009985,-0.001571, 0.003449, 0.014830,1,-0.000142, 0.000173,-0.000730,1, 0.077055, 0.129888, 9.805487,1,0
1777928445570,  1328.450,  1328.445,-0.008295,-0.013000,-0.994299,-0.000084,-0.000129,-0.009936, 0.007059, 0.000393, 0.069614,1,-0.000692,-0.000083,-0.000401,1, 0.076997, 0.129842, 9.805488,1,0
1777928445580,  1328.450,  1328.445,-0.008295,-0.013000,-0.994299,-0.000084,-0.000129,-0.009936, 0.007059, 0.000393, 0.069614,1,-0.000692,-0.000083,-0.000401,1, 0.076997, 0.129842, 9.805488,1,0
1777928445593,  1328.475,  1328.470,-0.007775,-0.013521,-0.997125,-0.000077,-0.000136,-0.009976, 0.000804,-0.002670, 0.027026,1, 0.000443, 0.000724,-0.000406,1, 0.077026, 0.129940, 9.805487,1,0
1777928445604,  1328.475,  1328.470,-0.007775,-0.013521,-0.997125,-0.000077,-0.000136,-0.009976, 0.000804,-0.002670, 0.027026,1, 0.000443, 0.000724,-0.000406,1, 0.077026, 0.129940, 9.805487,1,0
1777928445620,  1328.500,  1328.495,-0.007480,-0.013146,-0.996872,-0.000072,-0.000132,-0.009970, 0.005316, 0.003374, 0.058261,1,-0.000069,-0.000284,-0.000390,1, 0.077067, 0.129854, 9.805488,1,0
1777928445633,  1328.500,  1328.495,-0.007480,-0.013146,-0.996872,-0.000072,-0.000132,-0.009970, 0.005316, 0.003374, 0.058261,1,-0.000069,-0.000284,-0.000390,1, 0.077067, 0.129854, 9.805488,1,0
1777928445643,  1328.520,  1328.520,-0.007794,-0.012592,-0.995083,-0.000078,-0.000126,-0.009953, 0.000685, 0.006315, 0.047057,1,-0.000159,-0.000172,-0.000802,1, 0.077120, 0.129797, 9.805488,1,0
1777928445653,  1328.520,  1328.520,-0.007794,-0.012592,-0.995083,-0.000078,-0.000126,-0.009953, 0.000685, 0.006315, 0.047057,1,-0.000159,-0.000172,-0.000802,1, 0.077120, 0.129797, 9.805488,1,0
1777928445670,  1328.545,  1328.545,-0.007922,-0.012514,-0.996751,-0.000082,-0.000126,-0.009964,-0.000609, 0.007064, 0.030697,1,-0.000266,-0.000543,-0.000482,1, 0.077099, 0.129781, 9.805488,1,0
1777928445680,  1328.545,  1328.545,-0.007922,-0.012514,-0.996751,-0.000082,-0.000126,-0.009964,-0.000609, 0.007064, 0.030697,1,-0.000266,-0.000543,-0.000482,1, 0.077099, 0.129781, 9.805488,1,0
1777928445691,  1328.570,  1328.565,-0.007721,-0.013664,-0.994985,-0.000078,-0.000135,-0.009948, 0.001619,-0.000333, 0.034490,1, 0.000204, 0.000088,-0.000333,1, 0.076973, 0.129772, 9.805490,1,0
1777928445701,  1328.570,  1328.565,-0.007721,-0.013664,-0.994985,-0.000078,-0.000135,-0.009948, 0.001619,-0.000333, 0.034490,1, 0.000204, 0.000088,-0.000333,1, 0.076973, 0.129772, 9.805490,1,0
1777928445719,  1328.595,  1328.595,-0.007678,-0.014121,-0.996789,-0.000077,-0.000141,-0.009967, 0.001602,-0.008751, 0.030325,1,-0.000204, 0.000308,-0.001096,1, 0.076887, 0.129725, 9.805490,1,0
1777928445729,  1328.595,  1328.595,-0.007678,-0.014121,-0.996789,-0.000077,-0.000141,-0.009967, 0.001602,-0.008751, 0.030325,1,-0.000204, 0.000308,-0.001096,1, 0.076887, 0.129725, 9.805490,1,0
1777928445741,  1328.620,  1328.615,-0.007789,-0.013236,-0.995486,-0.000077,-0.000134,-0.009954, 0.002275,-0.006953, 0.047639,1, 0.000157, 0.000543,-0.000440,1, 0.076876, 0.129722, 9.805490,1,0
1777928445751,  1328.620,  1328.615,-0.007789,-0.013236,-0.995486,-0.000077,-0.000134,-0.009954, 0.002275,-0.006953, 0.047639,1, 0.000157, 0.000543,-0.000440,1, 0.076876, 0.129722, 9.805490,1,0
1777928445768,  1328.645,  1328.645,-0.007501,-0.013060,-0.995931,-0.000074,-0.000131,-0.009963, 0.003247, 0.001638, 0.038740,1,-0.000491,-0.000332,-0.000019,1, 0.076820, 0.129697, 9.805491,1,0
1777928445779,  1328.645,  1328.645,-0.007501,-0.013060,-0.995931,-0.000074,-0.000131,-0.009963, 0.003247, 0.001638, 0.038740,1,-0.000491,-0.000332,-0.000019,1, 0.076820, 0.129697, 9.805491,1,0
1777928445790,  1328.670,  1328.665,-0.007969,-0.013545,-0.995151,-0.000079,-0.000134,-0.009949,-0.000470, 0.001938, 0.049442,1, 0.000383,-0.000218,-0.000815,1, 0.076803, 0.129697, 9.805491,1,0
1777928445801,  1328.670,  1328.665,-0.007969,-0.013545,-0.995151,-0.000079,-0.000134,-0.009949,-0.000470, 0.001938, 0.049442,1, 0.000383,-0.000218,-0.000815,1, 0.076803, 0.129697, 9.805491,1,0
1777928445818,  1328.695,  1328.695,-0.007445,-0.013640,-0.995950,-0.000073,-0.000138,-0.009958, 0.003865,-0.004048, 0.038553,1,-0.000052,-0.000054,-0.000649,1, 0.076872, 0.129710, 9.805490,1,0
1777928445828,  1328.695,  1328.695,-0.007445,-0.013640,-0.995950,-0.000073,-0.000138,-0.009958, 0.003865,-0.004048, 0.038553,1,-0.000052,-0.000054,-0.000649,1, 0.076872, 0.129710, 9.805490,1,0
1777928445840,  1328.720,  1328.715,-0.007707,-0.013385,-0.995357,-0.000078,-0.000133,-0.009953,-0.004567,-0.002797, 0.044076,1,-0.000673,-0.000052,-0.000351,1, 0.076863, 0.129647, 9.805491,1,0
1777928445850,  1328.720,  1328.715,-0.007707,-0.013385,-0.995357,-0.000078,-0.000133,-0.009953,-0.004567,-0.002797, 0.044076,1,-0.000673,-0.000052,-0.000351,1, 0.076863, 0.129647, 9.805491,1,0
1777928445863,  1328.745,  1328.740,-0.007475,-0.013249,-0.996412,-0.000076,-0.000134,-0.009964, 0.003614,-0.000312, 0.034029,1,-0.000241,-0.000349,-0.000469,1, 0.076933, 0.129613, 9.805491,1,0
1777928445874,  1328.745,  1328.740,-0.007475,-0.013249,-0.996412,-0.000076,-0.000134,-0.009964, 0.003614,-0.000312, 0.034029,1,-0.000241,-0.000349,-0.000469,1, 0.076933, 0.129613, 9.805491,1,0
1777928445890,  1328.770,  1328.765,-0.006957,-0.012931,-0.995261,-0.000072,-0.000132,-0.009958, 0.003696, 0.001555, 0.042673,1,-0.000370, 0.000156,-0.000549,1, 0.076955, 0.129547, 9.805492,1,0
1777928445900,  1328.770,  1328.765,-0.006957,-0.012931,-0.995261,-0.000072,-0.000132,-0.009958, 0.003696, 0.001555, 0.042673,1,-0.000370, 0.000156,-0.000549,1, 0.076955, 0.129547, 9.805492,1,0
1777928445913,  1328.790,  1328.790,-0.007697,-0.013553,-0.996466,-0.000077,-0.000135,-0.009963, 0.001329,-0.003269, 0.033503,1, 0.001080, 0.000669,-0.000971,1, 0.076793, 0.129673, 9.805492,1,0
1777928445923,  1328.790,  1328.790,-0.007697,-0.013553,-0.996466,-0.000077,-0.000135,-0.009963, 0.001329,-0.003269, 0.033503,1, 0.001080, 0.000669,-0.000971,1, 0.076793, 0.129673, 9.805492,1,0
1777928445939,  1328.815,  1328.815,-0.007902,-0.013240,-0.995634,-0.000081,-0.000134,-0.009957,-0.000767,-0.000136, 0.041655,1, 0.000406, 0.000397,-0.000740,1, 0.076709, 0.129721, 9.805492,1,0
1777928445949,  1328.815,  1328.815,-0.007902,-0.013240,-0.995634,-0.000081,-0.000134,-0.009957,-0.000767,-0.000136, 0.041655,1, 0.000406, 0.000397,-0.000740,1, 0.076709, 0.129721, 9.805492,1,0
1777928445961,  1328.840,  1328.835,-0.007392,-0.013287,-0.995325,-0.000075,-0.000132,-0.009953, 0.002658, 0.001816, 0.040198,1, 0.000041, 0.000224,-0.000462,1, 0.076666, 0.129773, 9.805491,1,0
1777928445971,  1328.840,  1328.835,-0.007392,-0.013287,-0.995325,-0.000075,-0.000132,-0.009953, 0.002658, 0.001816, 0.040198,1, 0.000041, 0.000224,-0.000462,1, 0.076666, 0.129773, 9.805491,1,0
1777928445989,  1328.865,  1328.865,-0.007859,-0.012889,-0.995554,-0.000080,-0.000127,-0.009955,-0.000428, 0.003404, 0.042439,1, 0.000215, 0.000347,-0.000560,1, 0.076632, 0.129810, 9.805491,1,0
1777928445999,  1328.865,  1328.865,-0.007859,-0.012889,-0.995554,-0.000080,-0.000127,-0.009955,-0.000428, 0.003404, 0.042439,1, 0.000215, 0.000347,-0.000560,1, 0.076632, 0.129810, 9.805491,1,0
1777928446011,  1328.890,  1328.885,-0.007494,-0.013702,-0.995564,-0.000074,-0.000134,-0.009957,-0.001527,-0.001546, 0.031965,1,-0.000104,-0.000528,-0.000990,1, 0.076678, 0.129739, 9.805492,1,0
1777928446021,  1328.890,  1328.885,-0.007494,-0.013702,-0.995564,-0.000074,-0.000134,-0.009957,-0.001527,-0.001546, 0.031965,1,-0.000104,-0.000528,-0.000990,1, 0.076678, 0.129739, 9.805492,1,0
1777928446039,  1328.915,  1328.915,-0.007998,-0.013563,-0.995388,-0.000080,-0.000136,-0.009953,-0.001945,-0.003329, 0.044069,1,-0.000086, 0.000567,-0.001055,1, 0.076475, 0.129677, 9.805494,1,0
1777928446049,  1328.915,  1328.915,-0.007998,-0.013563,-0.995388,-0.000080,-0.000136,-0.009953,-0.001945,-0.003329, 0.044069,1,-0.000086, 0.000567,-0.001055,1, 0.076475, 0.129677, 9.805494,1,0
1777928446061,  1328.940,  1328.935,-0.007803,-0.013341,-0.995606,-0.000079,-0.000132,-0.009959, 0.001897,-0.001273, 0.039300,1,-0.000706,-0.000584,-0.000271,1, 0.076550, 0.129610, 9.805494,1,0
1777928446071,  1328.940,  1328.935,-0.007803,-0.013341,-0.995606,-0.000079,-0.000132,-0.009959, 0.001897,-0.001273, 0.039300,1,-0.000706,-0.000584,-0.000271,1, 0.076550, 0.129610, 9.805494,1,0
1777928446088,  1328.965,  1328.965,-0.007499,-0.013012,-0.995503,-0.000079,-0.000133,-0.009958, 0.002949, 0.001973, 0.042942,1,-0.000594,-0.000186, 0.000104,1, 0.076500, 0.129554, 9.805496,1,0
1777928446098,  1328.965,  1328.965,-0.007499,-0.013012,-0.995503,-0.000079,-0.000133,-0.009958, 0.002949, 0.001973, 0.042942,1,-0.000594,-0.000186, 0.000104,1, 0.076500, 0.129554, 9.805496,1,0
1777928446110,  1328.990,  1328.985,-0.008012,-0.013635,-0.995560,-0.000079,-0.000136,-0.009957,-0.000789,-0.001670, 0.037889,1, 0.000001,-0.000083,-0.000294,1, 0.076451, 0.129503, 9.805497,1,0
1777928446120,  1328.990,  1328.985,-0.008012,-0.013635,-0.995560,-0.000079,-0.000136,-0.009957,-0.000789,-0.001670, 0.037889,1, 0.000001,-0.000083,-0.000294,1, 0.076451, 0.129503, 9.805497,1,0
1777928446134,  1329.015,  1329.010,-0.007815,-0.014065,-0.994884,-0.000076,-0.000139,-0.009949,-0.000170,-0.008472, 0.049014,1, 0.000083, 0.000158,-0.000362,1, 0.076464, 0.129457, 9.805497,1,0
1777928446144,  1329.015,  1329.010,-0.007815,-0.014065,-0.994884,-0.000076,-0.000139,-0.009949,-0.000170,-0.008472, 0.049014,1, 0.000083, 0.000158,-0.000362,1, 0.076464, 0.129457, 9.805497,1,0
1777928446160,  1329.040,  1329.035,-0.007764,-0.013328,-0.995635,-0.000079,-0.000133,-0.009959, 0.001116,-0.004109, 0.039949,1, 0.000052,-0.000505,-0.000462,1, 0.076598, 0.129540, 9.805495,1,0
1777928446170,  1329.040,  1329.035,-0.007764,-0.013328,-0.995635,-0.000079,-0.000133,-0.009959, 0.001116,-0.004109, 0.039949,1, 0.000052,-0.000505,-0.000462,1, 0.076598, 0.129540, 9.805495,1,0
1777928446183,  1329.060,  1329.060,-0.007924,-0.012610,-0.995495,-0.000079,-0.000127,-0.009955,-0.001066, 0.005867, 0.043022,1, 0.000300,-0.000792,-0.000143,1, 0.076668, 0.129536, 9.805494,1,0
1777928446193,  1329.060,  1329.060,-0.007924,-0.012610,-0.995495,-0.000079,-0.000127,-0.009955,-0.001066, 0.005867, 0.043022,1, 0.000300,-0.000792,-0.000143,1, 0.076668, 0.129536, 9.805494,1,0
1777928446209,  1329.090,  1329.085,-0.007952,-0.013916,-0.995144,-0.000078,-0.000139,-0.009955, 0.001877,-0.000123, 0.039308,1,-0.000423, 0.000200,-0.000099,1, 0.076660, 0.129575, 9.805494,1,0
1777928446219,  1329.090,  1329.085,-0.007952,-0.013916,-0.995144,-0.000078,-0.000139,-0.009955, 0.001877,-0.000123, 0.039308,1,-0.000423, 0.000200,-0.000099,1, 0.076660, 0.129575, 9.805494,1,0
1777928446231,  1329.110,  1329.105,-0.007706,-0.013888,-0.995625,-0.000080,-0.000138,-0.009957,-0.001037,-0.001712, 0.042147,1,-0.000042,-0.000215,-0.000307,1, 0.076659, 0.129631, 9.805493,1,0
1777928446241,  1329.110,  1329.105,-0.007706,-0.013888,-0.995625,-0.000080,-0.000138,-0.009957,-0.001037,-0.001712, 0.042147,1,-0.000042,-0.000215,-0.000307,1, 0.076659, 0.129631, 9.805493,1,0
1777928446259,  1329.135,  1329.135,-0.007663,-0.013143,-0.995470,-0.000079,-0.000132,-0.009958, 0.001573, 0.000641, 0.043266,1, 0.000125,-0.000124,-0.000705,1, 0.076723, 0.129538, 9.805494,1,0
1777928446269,  1329.135,  1329.135,-0.007663,-0.013143,-0.995470,-0.000079,-0.000132,-0.009958, 0.001573, 0.000641, 0.043266,1, 0.000125,-0.000124,-0.000705,1, 0.076723, 0.129538, 9.805494,1,0
1777928446281,  1329.160,  1329.155,-0.008078,-0.013297,-0.995073,-0.000080,-0.000134,-0.009953,-0.000626, 0.000051, 0.039652,1, 0.000433,-0.000017,-0.001038,1, 0.076677, 0.129579, 9.805494,1,0
1777928446291,  1329.160,  1329.155,-0.008078,-0.013297,-0.995073,-0.000080,-0.000134,-0.009953,-0.000626, 0.000051, 0.039652,1, 0.000433,-0.000017,-0.001038,1, 0.076677, 0.129579, 9.805494,1,0
1777928446309,  1329.185,  1329.185,-0.007874,-0.013406,-0.995309,-0.000078,-0.000135,-0.009953,-0.000583,-0.001805, 0.044849,1,-0.000054,-0.000007,-0.000565,1, 0.076637, 0.129662, 9.805493,1,0
1777928446319,  1329.185,  1329.185,-0.007874,-0.013406,-0.995309,-0.000078,-0.000135,-0.009953,-0.000583,-0.001805, 0.044849,1,-0.000054,-0.000007,-0.000565,1, 0.076637, 0.129662, 9.805493,1,0
1777928446331,  1329.210,  1329.205,-0.008006,-0.013042,-0.995734,-0.000079,-0.000132,-0.009956,-0.000271,-0.000079, 0.041297,1,-0.000037,-0.000364,-0.000261,1, 0.076655, 0.129645, 9.805493,1,0
1777928446341,  1329.210,  1329.205,-0.008006,-0.013042,-0.995734,-0.000079,-0.000132,-0.009956,-0.000271,-0.000079, 0.041297,1,-0.000037,-0.000364,-0.000261,1, 0.076655, 0.129645, 9.805493,1,0
1777928446358,  1329.235,  1329.235,-0.007662,-0.013416,-0.995406,-0.000076,-0.000134,-0.009955, 0.001522,-0.001900, 0.043893,1,-0.000534, 0.000235,-0.000010,1, 0.076659, 0.129650, 9.805493,1,0
1777928446368,  1329.235,  1329.235,-0.007662,-0.013416,-0.995406,-0.000076,-0.000134,-0.009955, 0.001522,-0.001900, 0.043893,1,-0.000534, 0.000235,-0.000010,1, 0.076659, 0.129650, 9.805493,1,0
1777928446380,  1329.260,  1329.255,-0.007567,-0.013502,-0.995725,-0.000078,-0.000135,-0.009955, 0.000201,-0.001802, 0.043484,1,-0.000091, 0.000344,-0.000637,1, 0.076575, 0.129678, 9.805493,1,0
1777928446390,  1329.260,  1329.255,-0.007567,-0.013502,-0.995725,-0.000078,-0.000135,-0.009955, 0.000201,-0.001802, 0.043484,1,-0.000091, 0.000344,-0.000637,1, 0.076575, 0.129678, 9.805493,1,0
1777928446404,  1329.285,  1329.280,-0.007878,-0.013063,-0.995483,-0.000081,-0.000130,-0.009954,-0.000617, 0.001615, 0.043142,1,-0.000751,-0.000886,-0.000535,1, 0.076671, 0.129695, 9.805492,1,0
1777928446414,  1329.285,  1329.280,-0.007878,-0.013063,-0.995483,-0.000081,-0.000130,-0.009954,-0.000617, 0.001615, 0.043142,1,-0.000751,-0.000886,-0.000535,1, 0.076671, 0.129695, 9.805492,1,0
1777928446430,  1329.310,  1329.305,-0.007550,-0.012968,-0.995714,-0.000077,-0.000129,-0.009957,-0.000456,-0.001379, 0.034931,1, 0.000611,-0.000459,-0.000384,1, 0.076654, 0.129833, 9.805490,1,0
1777928446440,  1329.310,  1329.305,-0.007550,-0.012968,-0.995714,-0.000077,-0.000129,-0.009957,-0.000456,-0.001379, 0.034931,1, 0.000611,-0.000459,-0.000384,1, 0.076654, 0.129833, 9.805490,1,0
1777928446453,  1329.330,  1329.330,-0.007831,-0.012637,-0.995924,-0.000076,-0.000128,-0.009960,-0.000033, 0.005923, 0.038815,1, 0.000318,-0.000396,-0.000604,1, 0.076770, 0.129859, 9.805490,1,0
1777928446463,  1329.330,  1329.330,-0.007831,-0.012637,-0.995924,-0.000076,-0.000128,-0.009960,-0.000033, 0.005923, 0.038815,1, 0.000318,-0.000396,-0.000604,1, 0.076770, 0.129859, 9.805490,1,0
1777928446479,  1329.360,  1329.355,-0.007674,-0.013218,-0.996017,-0.000077,-0.000130,-0.009960,-0.000024,-0.003351, 0.039638,1, 0.000010,-0.000274,-0.000577,1, 0.076718, 0.129851, 9.805490,1,0
1777928446489,  1329.360,  1329.355,-0.007674,-0.013218,-0.996017,-0.000077,-0.000130,-0.009960,-0.000024,-0.003351, 0.039638,1, 0.000010,-0.000274,-0.000577,1, 0.076718, 0.129851, 9.805490,1,0
1777928446501,  1329.380,  1329.375,-0.008500,-0.013659,-0.995759,-0.000084,-0.000135,-0.009957, 0.005536, 0.000858, 0.034681,1, 0.000142, 0.000257,-0.000163,1, 0.076760, 0.129854, 9.805490,1,0
1777928446511,  1329.380,  1329.375,-0.008500,-0.013659,-0.995759,-0.000084,-0.000135,-0.009957, 0.005536, 0.000858, 0.034681,1, 0.000142, 0.000257,-0.000163,1, 0.076760, 0.129854, 9.805490,1,0
1777928446529,  1329.405,  1329.405,-0.007847,-0.013466,-0.995992,-0.000078,-0.000135,-0.009960,-0.000277,-0.002240, 0.038144,1, 0.000106, 0.000423,-0.000481,1, 0.076659, 0.129820, 9.805491,1,0
1777928446539,  1329.405,  1329.405,-0.007847,-0.013466,-0.995992,-0.000078,-0.000135,-0.009960,-0.000277,-0.002240, 0.038144,1, 0.000106, 0.000423,-0.000481,1, 0.076659, 0.129820, 9.805491,1,0
1777928446551,  1329.430,  1329.425,-0.007226,-0.013556,-0.995493,-0.000073,-0.000133,-0.009958, 0.002171,-0.001115, 0.037280,1, 0.000968, 0.000299,-0.000553,1, 0.076627, 0.129844, 9.805490,1,0
1777928446561,  1329.430,  1329.425,-0.007226,-0.013556,-0.995493,-0.000073,-0.000133,-0.009958, 0.002171,-0.001115, 0.037280,1, 0.000968, 0.000299,-0.000553,1, 0.076627, 0.129844, 9.805490,1,0
1777928446579,  1329.455,  1329.455,-0.007929,-0.012888,-0.995675,-0.000080,-0.000130,-0.009955,-0.001213, 0.003415, 0.041251,1,-0.000534, 0.000040,-0.000338,1, 0.076539, 0.129782, 9.805492,1,0
1777928446589,  1329.455,  1329.455,-0.007929,-0.012888,-0.995675,-0.000080,-0.000130,-0.009955,-0.001213, 0.003415, 0.041251,1,-0.000534, 0.000040,-0.000338,1, 0.076539, 0.129782, 9.805492,1,0
1777928446601,  1329.480,  1329.475,-0.007922,-0.013144,-0.995300,-0.000080,-0.000131,-0.009952,-0.001187,-0.000759, 0.042901,1,-0.000362, 0.000132,-0.000283,1, 0.076613, 0.129691, 9.805493,1,0
1777928446611,  1329.480,  1329.475,-0.007922,-0.013144,-0.995300,-0.000080,-0.000131,-0.009952,-0.001187,-0.000759, 0.042901,1,-0.000362, 0.000132,-0.000283,1, 0.076613, 0.129691, 9.805493,1,0
1777928446628,  1329.505,  1329.505,-0.007699,-0.013579,-0.995697,-0.000077,-0.000133,-0.009956, 0.001023,-0.003405, 0.041044,1, 0.000354, 0.000089,-0.000286,1, 0.076523, 0.129768, 9.805492,1,0
1777928446638,  1329.505,  1329.505,-0.007699,-0.013579,-0.995697,-0.000077,-0.000133,-0.009956, 0.001023,-0.003405, 0.041044,1, 0.000354, 0.000089,-0.000286,1, 0.076523, 0.129768, 9.805492,1,0
1777928446650,  1329.530,  1329.525,-0.007825,-0.013582,-0.995541,-0.000077,-0.000136,-0.009956,-0.001470, 0.001960, 0.047405,1,-0.000280,-0.000386,-0.000262,1, 0.076648, 0.129741, 9.805492,1,0
1777928446660,  1329.530,  1329.525,-0.007825,-0.013582,-0.995541,-0.000077,-0.000136,-0.009956,-0.001470, 0.001960, 0.047405,1,-0.000280,-0.000386,-0.000262,1, 0.076648, 0.129741, 9.805492,1,0
1777928446674,  1329.555,  1329.550,-0.007822,-0.013381,-0.995040,-0.000078,-0.000136,-0.009954,-0.000079,-0.001424, 0.047479,1,-0.000183, 0.000247, 0.000176,1, 0.076621, 0.129791, 9.805491,1,0
1777928446684,  1329.555,  1329.550,-0.007822,-0.013381,-0.995040,-0.000078,-0.000136,-0.009954,-0.000079,-0.001424, 0.047479,1,-0.000183, 0.000247, 0.000176,1, 0.076621, 0.129791, 9.805491,1,0
1777928446700,  1329.580,  1329.575,-0.008054,-0.013836,-0.995840,-0.000080,-0.000138,-0.009961,-0.000070,-0.004327, 0.044795,1,-0.000783, 0.000083,-0.000643,1, 0.076584, 0.129740, 9.805492,1,0
1777928446710,  1329.580,  1329.575,-0.008054,-0.013836,-0.995840,-0.000080,-0.000138,-0.009961,-0.000070,-0.004327, 0.044795,1,-0.000783, 0.000083,-0.000643,1, 0.076584, 0.129740, 9.805492,1,0
1777928446723,  1329.600,  1329.600,-0.007980,-0.013289,-0.995527,-0.000078,-0.000135,-0.009955,-0.001685,-0.000652, 0.042708,1, 0.000012, 0.000089,-0.000335,1, 0.076567, 0.129673, 9.805493,1,0
1777928446733,  1329.600,  1329.600,-0.007980,-0.013289,-0.995527,-0.000078,-0.000135,-0.009955,-0.001685,-0.000652, 0.042708,1, 0.000012, 0.000089,-0.000335,1, 0.076567, 0.129673, 9.805493,1,0
1777928446749,  1329.630,  1329.625,-0.007852,-0.013339,-0.996170,-0.000079,-0.000132,-0.009958,-0.001172, 0.000851, 0.038075,1,-0.000304,-0.000020,-0.000103,1, 0.076558, 0.129667, 9.805494,1,0
1777928446760,  1329.630,  1329.625,-0.007852,-0.013339,-0.996170,-0.000079,-0.000132,-0.009958,-0.001172, 0.000851, 0.038075,1,-0.000304,-0.000020,-0.000103,1, 0.076558, 0.129667, 9.805494,1,0
1777928446773,  1329.650,  1329.650,-0.007951,-0.013327,-0.995204,-0.000078,-0.000132,-0.009952,-0.001476,-0.000932, 0.045875,1,-0.000175, 0.000381,-0.000668,1, 0.076487, 0.129758, 9.805493,1,0
1777928446783,  1329.650,  1329.650,-0.007951,-0.013327,-0.995204,-0.000078,-0.000132,-0.009952,-0.001476,-0.000932, 0.045875,1,-0.000175, 0.000381,-0.000668,1, 0.076487, 0.129758, 9.805493,1,0
1777928446799,  1329.675,  1329.675,-0.008061,-0.013098,-0.995107,-0.000081,-0.000132,-0.009954,-0.002444, 0.001259, 0.046825,1,-0.000273,-0.000639,-0.000429,1, 0.076627, 0.129701, 9.805492,1,0
1777928446810,  1329.675,  1329.675,-0.008061,-0.013098,-0.995107,-0.000081,-0.000132,-0.009954,-0.002444, 0.001259, 0.046825,1,-0.000273,-0.000639,-0.000429,1, 0.076627, 0.129701, 9.805492,1,0
1777928446821,  1329.700,  1329.695,-0.007490,-0.013577,-0.995568,-0.000077,-0.000136,-0.009956,-0.001405,-0.004534, 0.047588,1,-0.000713,-0.000577,-0.000352,1, 0.076631, 0.129628, 9.805493,1,0
1777928446831,  1329.700,  1329.695,-0.007490,-0.013577,-0.995568,-0.000077,-0.000136,-0.009956,-0.001405,-0.004534, 0.047588,1,-0.000713,-0.000577,-0.000352,1, 0.076631, 0.129628, 9.805493,1,0
1777928446849,  1329.725,  1329.725,-0.007837,-0.013565,-0.995601,-0.000079,-0.000136,-0.009953,-0.000208,-0.003441, 0.041980,1,-0.000132, 0.000805,-0.000582,1, 0.076625, 0.129583, 9.805494,1,0
1777928446859,  1329.725,  1329.725,-0.007837,-0.013565,-0.995601,-0.000079,-0.000136,-0.009953,-0.000208,-0.003441, 0.041980,1,-0.000132, 0.000805,-0.000582,1, 0.076625, 0.129583, 9.805494,1,0
1777928446871,  1329.750,  1329.745,-0.007584,-0.012867,-0.995258,-0.000077,-0.000131,-0.009957,-0.000239,-0.001719, 0.044729,1, 0.000368, 0.000249,-0.000239,1, 0.076537, 0.129706, 9.805493,1,0
1777928446881,  1329.750,  1329.745,-0.007584,-0.012867,-0.995258,-0.000077,-0.000131,-0.009957,-0.000239,-0.001719, 0.044729,1, 0.000368, 0.000249,-0.000239,1, 0.076537, 0.129706, 9.805493,1,0
1777928446898,  1329.775,  1329.775,-0.007541,-0.013036,-0.995291,-0.000077,-0.000130,-0.009955, 0.002578, 0.001900, 0.045022,1, 0.000639,-0.000098,-0.000656,1, 0.076532, 0.129763, 9.805492,1,0
1777928446908,  1329.775,  1329.775,-0.007541,-0.013036,-0.995291,-0.000077,-0.000130,-0.009955, 0.002578, 0.001900, 0.045022,1, 0.000639,-0.000098,-0.000656,1, 0.076532, 0.129763, 9.805492,1,0
1777928446920,  1329.800,  1329.795,-0.007930,-0.013366,-0.995113,-0.000078,-0.000135,-0.009952, 0.002900, 0.000415, 0.036730,1, 0.000029,-0.000971,-0.001001,1, 0.076613, 0.129792, 9.805491,1,0
1777928446931,  1329.800,  1329.795,-0.007930,-0.013366,-0.995113,-0.000078,-0.000135,-0.009952, 0.002900, 0.000415, 0.036730,1, 0.000029,-0.000971,-0.001001,1, 0.076613, 0.129792, 9.805491,1,0
1777928446944,  1329.825,  1329.820,-0.007855,-0.013653,-0.995981,-0.000078,-0.000134,-0.009959,-0.000397,-0.004009, 0.038254,1, 0.000461, 0.000510,-0.001069,1, 0.076621, 0.129895, 9.805490,1,0
1777928446954,  1329.825,  1329.820,-0.007855,-0.013653,-0.995981,-0.000078,-0.000134,-0.009959,-0.000397,-0.004009, 0.038254,1, 0.000461, 0.000510,-0.001069,1, 0.076621, 0.129895, 9.805490,1,0
1777928446970,  1329.850,  1329.845,-0.007967,-0.013555,-0.995593,-0.000079,-0.000137,-0.009956,-0.000488,-0.001607, 0.041851,1,-0.000114,-0.000275,-0.000216,1, 0.076643, 0.129924, 9.805490,1,0
1777928446980,  1329.850,  1329.845,-0.007967,-0.013555,-0.995593,-0.000079,-0.000137,-0.009956,-0.000488,-0.001607, 0.041851,1,-0.000114,-0.000275,-0.000216,1, 0.076643, 0.129924, 9.805490,1,0
1777928446993,  1329.875,  1329.870,-0.007785,-0.013253,-0.995680,-0.000077,-0.000132,-0.009958, 0.000223, 0.000020, 0.041205,1,-0.000142, 0.000457,-0.000421,1, 0.076554, 0.129986, 9.805490,1,0
1777928447003,  1329.875,  1329.870,-0.007785,-0.013253,-0.995680,-0.000077,-0.000132,-0.009958, 0.000223, 0.000020, 0.041205,1,-0.000142, 0.000457,-0.000421,1, 0.076554, 0.129986, 9.805490,1,0
1777928447020,  1329.900,  1329.895,-0.008027,-0.013321,-0.995697,-0.000080,-0.000135,-0.009956, 0.001409,-0.002699, 0.045589,1, 0.000021,-0.000563,-0.000453,1, 0.076551, 0.129920, 9.805490,1,0
1777928447030,  1329.900,  1329.895,-0.008027,-0.013321,-0.995697,-0.000080,-0.000135,-0.009956, 0.001409,-0.002699, 0.045589,1, 0.000021,-0.000563,-0.000453,1, 0.076551, 0.129920, 9.805490,1,0
1777928447043,  1329.920,  1329.920,-0.008413,-0.013319,-0.995505,-0.000083,-0.000132,-0.009955,-0.006070,-0.000715, 0.042923,1, 0.000064, 0.001155, 0.000055,1, 0.076397, 0.129906, 9.805492,1,0
1777928447053,  1329.920,  1329.920,-0.008413,-0.013319,-0.995505,-0.000083,-0.000132,-0.009955,-0.006070,-0.000715, 0.042923,1, 0.000064, 0.001155, 0.000055,1, 0.076397, 0.129906, 9.805492,1,0
1777928447069,  1329.945,  1329.945,-0.008113,-0.013610,-0.995979,-0.000079,-0.000136,-0.009962,-0.003123,-0.003451, 0.038275,1, 0.000587,-0.001355,-0.000089,1, 0.076479, 0.130034, 9.805490,1,0
1777928447079,  1329.945,  1329.945,-0.008113,-0.013610,-0.995979,-0.000079,-0.000136,-0.009962,-0.003123,-0.003451, 0.038275,1, 0.000587,-0.001355,-0.000089,1, 0.076479, 0.130034, 9.805490,1,0
1777928447091,  1329.970,  1329.965,-0.007871,-0.013636,-0.995693,-0.000078,-0.000136,-0.009954,-0.001606, 0.002997, 0.043039,1,-0.000476,-0.000273,-0.000129,1, 0.076490, 0.129987, 9.805490,1,0
1777928447101,  1329.970,  1329.965,-0.007871,-0.013636,-0.995693,-0.000078,-0.000136,-0.009954,-0.001606, 0.002997, 0.043039,1,-0.000476,-0.000273,-0.000129,1, 0.076490, 0.129987, 9.805490,1,0
1777928447119,  1329.995,  1329.995,-0.008060,-0.013622,-0.996018,-0.000082,-0.000137,-0.009959,-0.002495,-0.003589, 0.037890,1,-0.000243,-0.000352,-0.000713,1, 0.076561, 0.129992, 9.805490,1,0
1777928447129,  1329.995,  1329.995,-0.008060,-0.013622,-0.996018,-0.000082,-0.000137,-0.009959,-0.002495,-0.003589, 0.037890,1,-0.000243,-0.000352,-0.000713,1, 0.076561, 0.129992, 9.805490,1,0
1777928447141,  1330.020,  1330.015,-0.007876,-0.013472,-0.995171,-0.000078,-0.000135,-0.009952,-0.001326, 0.001619, 0.046051,1, 0.000386,-0.000531,-0.000197,1, 0.076531, 0.129984, 9.805490,1,0
1777928447151,  1330.020,  1330.015,-0.007876,-0.013472,-0.995171,-0.000078,-0.000135,-0.009952,-0.001326, 0.001619, 0.046051,1, 0.000386,-0.000531,-0.000197,1, 0.076531, 0.129984, 9.805490,1,0
1777928447168,  1330.045,  1330.045,-0.007556,-0.013321,-0.994924,-0.000078,-0.000133,-0.009953, 0.002498,-0.000569, 0.048612,1,-0.000294,-0.000237,-0.000412,1, 0.076606, 0.130056, 9.805489,1,0
1777928447178,  1330.045,  1330.045,-0.007556,-0.013321,-0.994924,-0.000078,-0.000133,-0.009953, 0.002498,-0.000569, 0.048612,1,-0.000294,-0.000237,-0.000412,1, 0.076606, 0.130056, 9.805489,1,0
1777928447190,  1330.070,  1330.065,-0.007505,-0.012702,-0.995939,-0.000079,-0.000128,-0.009958, 0.002926, 0.002305, 0.041829,1,-0.000535,-0.000259,-0.000324,1, 0.076721, 0.130003, 9.805489,1,0
1777928447200,  1330.070,  1330.065,-0.007505,-0.012702,-0.995939,-0.000079,-0.000128,-0.009958, 0.002926, 0.002305, 0.041829,1,-0.000535,-0.000259,-0.000324,1, 0.076721, 0.130003, 9.805489,1,0
1777928447218,  1330.095,  1330.095,-0.008087,-0.013567,-0.995608,-0.000079,-0.000136,-0.009958,-0.002701,-0.003202, 0.041914,1,-0.000481, 0.000394,-0.000641,1, 0.076593, 0.129827, 9.805491,1,0
1777928447228,  1330.095,  1330.095,-0.008087,-0.013567,-0.995608,-0.000079,-0.000136,-0.009958,-0.002701,-0.003202, 0.041914,1,-0.000481, 0.000394,-0.000641,1, 0.076593, 0.129827, 9.805491,1,0
1777928447240,  1330.120,  1330.115,-0.007756,-0.013593,-0.995368,-0.000080,-0.000135,-0.009953,-0.000752,-0.011069, 0.037426,1,-0.000217,-0.000214,-0.000857,1, 0.076586, 0.129719, 9.805493,1,0
1777928447250,  1330.120,  1330.115,-0.007756,-0.013593,-0.995368,-0.000080,-0.000135,-0.009953,-0.000752,-0.011069, 0.037426,1,-0.000217,-0.000214,-0.000857,1, 0.076586, 0.129719, 9.805493,1,0
1777928447263,  1330.145,  1330.140,-0.008036,-0.012983,-0.995434,-0.000082,-0.000128,-0.009952,-0.002102, 0.002377, 0.043621,1, 0.000598,-0.000025,-0.000523,1, 0.076703, 0.129712, 9.805492,1,0
1777928447274,  1330.145,  1330.140,-0.008036,-0.012983,-0.995434,-0.000082,-0.000128,-0.009952,-0.002102, 0.002377, 0.043621,1, 0.000598,-0.000025,-0.000523,1, 0.076703, 0.129712, 9.805492,1,0
1777928447290,  1330.170,  1330.165,-0.008073,-0.012595,-0.995946,-0.000081,-0.000127,-0.009960, 0.000526, 0.004514, 0.042730,1, 0.000314, 0.000377,-0.000544,1, 0.076712, 0.129708, 9.805492,1,0
1777928447300,  1330.170,  1330.165,-0.008073,-0.012595,-0.995946,-0.000081,-0.000127,-0.009960, 0.000526, 0.004514, 0.042730,1, 0.000314, 0.000377,-0.000544,1, 0.076712, 0.129708, 9.805492,1,0
1777928447313,  1330.190,  1330.190,-0.008223,-0.013353,-0.995580,-0.000080,-0.000134,-0.009957,-0.004014,-0.001219, 0.042190,1,-0.000566, 0.000214, 0.000031,1, 0.076622, 0.129715, 9.805492,1,0
1777928447323,  1330.190,  1330.190,-0.008223,-0.013353,-0.995580,-0.000080,-0.000134,-0.009957,-0.004014,-0.001219, 0.042190,1,-0.000566, 0.000214, 0.000031,1, 0.076622, 0.129715, 9.805492,1,0
1777928447339,  1330.215,  1330.215,-0.008066,-0.013841,-0.995517,-0.000078,-0.000135,-0.009953,-0.002499,-0.006055, 0.042809,1,-0.000334, 0.000376, 0.000110,1, 0.076586, 0.129670, 9.805493,1,0
1777928447349,  1330.215,  1330.215,-0.008066,-0.013841,-0.995517,-0.000078,-0.000135,-0.009953,-0.002499,-0.006055, 0.042809,1,-0.000334, 0.000376, 0.000110,1, 0.076586, 0.129670, 9.805493,1,0
1777928447361,  1330.240,  1330.235,-0.007756,-0.013642,-0.995855,-0.000078,-0.000133,-0.009959, 0.002230,-0.003058, 0.033734,1,-0.000053,-0.000048, 0.000116,1, 0.076634, 0.129660, 9.805493,1,0
1777928447371,  1330.240,  1330.235,-0.007756,-0.013642,-0.995855,-0.000078,-0.000133,-0.009959, 0.002230,-0.003058, 0.033734,1,-0.000053,-0.000048, 0.000116,1, 0.076634, 0.129660, 9.805493,1,0
1777928447389,  1330.265,  1330.265,-0.007617,-0.012969,-0.995380,-0.000078,-0.000131,-0.009955, 0.002014, 0.002512, 0.044153,1,-0.000362,-0.000756,-0.000504,1, 0.076732, 0.129685, 9.805492,1,0
1777928447399,  1330.265,  1330.265,-0.007617,-0.012969,-0.995380,-0.000078,-0.000131,-0.009955, 0.002014, 0.002512, 0.044153,1,-0.000362,-0.000756,-0.000504,1, 0.076732, 0.129685, 9.805492,1,0
1777928447411,  1330.290,  1330.285,-0.007864,-0.013076,-0.995437,-0.000079,-0.000130,-0.009955, 0.005023, 0.005288, 0.037019,1,-0.000157,-0.000735,-0.000555,1, 0.076816, 0.129727, 9.805491,1,0
1777928447421,  1330.290,  1330.285,-0.007864,-0.013076,-0.995437,-0.000079,-0.000130,-0.009955, 0.005023, 0.005288, 0.037019,1,-0.000157,-0.000735,-0.000555,1, 0.076816, 0.129727, 9.805491,1,0
1777928447438,  1330.315,  1330.315,-0.007691,-0.013485,-0.996424,-0.000075,-0.000135,-0.009958, 0.001444,-0.002507, 0.033908,1,-0.000320, 0.000544,-0.000552,1, 0.076851, 0.129730, 9.805490,1,0
1777928447449,  1330.315,  1330.315,-0.007691,-0.013485,-0.996424,-0.000075,-0.000135,-0.009958, 0.001444,-0.002507, 0.033908,1,-0.000320, 0.000544,-0.000552,1, 0.076851, 0.129730, 9.805490,1,0
1777928447460,  1330.340,  1330.335,-0.007527,-0.013468,-0.996229,-0.000076,-0.000136,-0.009959, 0.001201, 0.002283, 0.039798,1,-0.000558,-0.000479,-0.000339,1, 0.076877, 0.129621, 9.805492,1,0
1777928447471,  1330.340,  1330.335,-0.007527,-0.013468,-0.996229,-0.000076,-0.000136,-0.009959, 0.001201, 0.002283, 0.039798,1,-0.000558,-0.000479,-0.000339,1, 0.076877, 0.129621, 9.805492,1,0
1777928447488,  1330.365,  1330.365,-0.007788,-0.013066,-0.995970,-0.000078,-0.000133,-0.009958, 0.000456, 0.001405, 0.038361,1,-0.000074, 0.000224,-0.000829,1, 0.076825, 0.129538, 9.805493,1,0
1777928447498,  1330.365,  1330.365,-0.007788,-0.013066,-0.995970,-0.000078,-0.000133,-0.009958, 0.000456, 0.001405, 0.038361,1,-0.000074, 0.000224,-0.000829,1, 0.076825, 0.129538, 9.805493,1,0
1777928447510,  1330.390,  1330.385,-0.007998,-0.013608,-0.996165,-0.000081,-0.000137,-0.009965,-0.001880,-0.005399, 0.040689,1, 0.000125, 0.000288,-0.000827,1, 0.076943, 0.129581, 9.805492,1,0
1777928447520,  1330.390,  1330.385,-0.007998,-0.013608,-0.996165,-0.000081,-0.000137,-0.009965,-0.001880,-0.005399, 0.040689,1, 0.000125, 0.000288,-0.000827,1, 0.076943, 0.129581, 9.805492,1,0
1777928447533,  1330.415,  1330.410,-0.007612,-0.013295,-0.995523,-0.000078,-0.000135,-0.009957, 0.002310,-0.000830, 0.042750,1,-0.000108, 0.000052,-0.000553,1, 0.076959, 0.129541, 9.805492,1,0
1777928447544,  1330.415,  1330.410,-0.007612,-0.013295,-0.995523,-0.000078,-0.000135,-0.009957, 0.002310,-0.000830, 0.042750,1,-0.000108, 0.000052,-0.000553,1, 0.076959, 0.129541, 9.805492,1,0
1777928447560,  1330.440,  1330.435,-0.007599,-0.013059,-0.995659,-0.000075,-0.000130,-0.009957, 0.003258,-0.001325, 0.034711,1,-0.000056,-0.000194,-0.000392,1, 0.077043, 0.129638, 9.805490,1,0
1777928447570,  1330.440,  1330.435,-0.007599,-0.013059,-0.995659,-0.000075,-0.000130,-0.009957, 0.003258,-0.001325, 0.034711,1,-0.000056,-0.000194,-0.000392,1, 0.077043, 0.129638, 9.805490,1,0
1777928447583,  1330.460,  1330.460,-0.007858,-0.012725,-0.995345,-0.000079,-0.000127,-0.009954,-0.000112, 0.004765, 0.044495,1, 0.000299, 0.000296,-0.000087,1, 0.076938, 0.129564, 9.805492,1,0
1777928447593,  1330.460,  1330.460,-0.007858,-0.012725,-0.995345,-0.000079,-0.000127,-0.009954,-0.000112, 0.004765, 0.044495,1, 0.000299, 0.000296,-0.000087,1, 0.076938, 0.129564, 9.805492,1,0
1777928447609,  1330.485,  1330.485,-0.008267,-0.012918,-0.995737,-0.000082,-0.000130,-0.009958,-0.004094, 0.002918, 0.040650,1,-0.000137, 0.000097,-0.000169,1, 0.076977, 0.129601, 9.805491,1,0
1777928447619,  1330.485,  1330.485,-0.008267,-0.012918,-0.995737,-0.000082,-0.000130,-0.009958,-0.004094, 0.002918, 0.040650,1,-0.000137, 0.000097,-0.000169,1, 0.076977, 0.129601, 9.805491,1,0
1777928447631,  1330.510,  1330.505,-0.008019,-0.013745,-0.995558,-0.000080,-0.000136,-0.009960, 0.002323,-0.003278, 0.037834,1, 0.000414, 0.000180,-0.000668,1, 0.076946, 0.129626, 9.805491,1,0
1777928447641,  1330.510,  1330.505,-0.008019,-0.013745,-0.995558,-0.000080,-0.000136,-0.009960, 0.002323,-0.003278, 0.037834,1, 0.000414, 0.000180,-0.000668,1, 0.076946, 0.129626, 9.805491,1,0
1777928447659,  1330.535,  1330.535,-0.007639,-0.013350,-0.995857,-0.000077,-0.000133,-0.009956, 0.002026,-0.001266, 0.039467,1, 0.000047,-0.000067,-0.000525,1, 0.076939, 0.129652, 9.805491,1,0
1777928447669,  1330.535,  1330.535,-0.007639,-0.013350,-0.995857,-0.000077,-0.000133,-0.009956, 0.002026,-0.001266, 0.039467,1, 0.000047,-0.000067,-0.000525,1, 0.076939, 0.129652, 9.805491,1,0
1777928447681,  1330.560,  1330.555,-0.007171,-0.013482,-0.995927,-0.000073,-0.000137,-0.009958, 0.000184,-0.004124, 0.042097,1, 0.000410, 0.000180,-0.000314,1, 0.076947, 0.129736, 9.805490,1,0
1777928447691,  1330.560,  1330.555,-0.007171,-0.013482,-0.995927,-0.000073,-0.000137,-0.009958, 0.000184,-0.004124, 0.042097,1, 0.000410, 0.000180,-0.000314,1, 0.076947, 0.129736, 9.805490,1,0
1777928447708,  1330.585,  1330.585,-0.008055,-0.013307,-0.996555,-0.000082,-0.000130,-0.009960,-0.002076,-0.000748, 0.032618,1,-0.000030,-0.000147,-0.000572,1, 0.076918, 0.129751, 9.805490,1,0
1777928447719,  1330.585,  1330.585,-0.008055,-0.013307,-0.996555,-0.000082,-0.000130,-0.009960,-0.002076,-0.000748, 0.032618,1,-0.000030,-0.000147,-0.000572,1, 0.076918, 0.129751, 9.805490,1,0
1777928447731,  1330.610,  1330.605,-0.007495,-0.013068,-0.995394,-0.000074,-0.000132,-0.009957,-0.000231, 0.003472, 0.046989,1, 0.000587,-0.000784,-0.000315,1, 0.077020, 0.129714, 9.805490,1,0
1777928447741,  1330.610,  1330.605,-0.007495,-0.013068,-0.995394,-0.000074,-0.000132,-0.009957,-0.000231, 0.003472, 0.046989,1, 0.000587,-0.000784,-0.000315,1, 0.077020, 0.129714, 9.805490,1,0
1777928447758,  1330.635,  1330.635,-0.007904,-0.013164,-0.996384,-0.000078,-0.000131,-0.009959,-0.000657, 0.000602, 0.034301,1, 0.000051, 0.000054,-0.000285,1, 0.076849, 0.129702, 9.805491,1,0
1777928447768,  1330.635,  1330.635,-0.007904,-0.013164,-0.996384,-0.000078,-0.000131,-0.009959,-0.000657, 0.000602, 0.034301,1, 0.000051, 0.000054,-0.000285,1, 0.076849, 0.129702, 9.805491,1,0
1777928447780,  1330.660,  1330.655,-0.007935,-0.013629,-0.995775,-0.000081,-0.000135,-0.009957, 0.001950,-0.003896, 0.044274,1, 0.000335, 0.000246,-0.000271,1, 0.076817, 0.129654, 9.805492,1,0
1777928447790,  1330.660,  1330.655,-0.007935,-0.013629,-0.995775,-0.000081,-0.000135,-0.009957, 0.001950,-0.003896, 0.044274,1, 0.000335, 0.000246,-0.000271,1, 0.076817, 0.129654, 9.805492,1,0
1777928447804,  1330.685,  1330.680,-0.007856,-0.013585,-0.995497,-0.000077,-0.000136,-0.009953,-0.000176,-0.003623, 0.042997,1, 0.000017, 0.000740,-0.000948,1, 0.076846, 0.129600, 9.805492,1,1
1777928447814,  1330.685,  1330.680,-0.007856,-0.013585,-0.995497,-0.000077,-0.000136,-0.009953,-0.000176,-0.003623, 0.042997,1, 0.000017, 0.000740,-0.000948,1, 0.076846, 0.129600, 9.805492,1,1
1777928447830,  1330.710,  1330.705,-0.007734,-0.013436,-0.994789,-0.000077,-0.000134,-0.009952, 0.001080,-0.002724, 0.037156,1, 0.000081,-0.000344,-0.000054,1, 0.076894, 0.129582, 9.805492,1,1
1777928447840,  1330.710,  1330.705,-0.007734,-0.013436,-0.994789,-0.000077,-0.000134,-0.009952, 0.001080,-0.002724, 0.037156,1, 0.000081,-0.000344,-0.000054,1, 0.076894, 0.129582, 9.805492,1,1
1777928447853,  1330.730,  1330.730,-0.008120,-0.013187,-0.995488,-0.000082,-0.000133,-0.009953,-0.002698, 0.000266, 0.043092,1, 0.000011, 0.000435,-0.000545,1, 0.076919, 0.129587, 9.805492,1,1
1777928447863,  1330.730,  1330.730,-0.008120,-0.013187,-0.995488,-0.000082,-0.000133,-0.009953,-0.002698, 0.000266, 0.043092,1, 0.000011, 0.000435,-0.000545,1, 0.076919, 0.129587, 9.805492,1,1
1777928447879,  1330.755,  1330.755,-0.007527,-0.013322,-0.995856,-0.000077,-0.000133,-0.009960, 0.003145,-0.000995, 0.039479,1, 0.001142,-0.000346, 0.000285,1, 0.076967, 0.129690, 9.805490,1,1
1777928447889,  1330.755,  1330.755,-0.007527,-0.013322,-0.995856,-0.000077,-0.000133,-0.009960, 0.003145,-0.000995, 0.039479,1, 0.001142,-0.000346, 0.000285,1, 0.076967, 0.129690, 9.805490,1,1
1777928447901,  1330.780,  1330.775,-0.008197,-0.012927,-0.994963,-0.000082,-0.000130,-0.009948, 0.002532, 0.000890, 0.037640,1, 0.000466, 0.000243,-0.001178,1, 0.076996, 0.129795, 9.805489,1,1
1777928447911,  1330.780,  1330.775,-0.008197,-0.012927,-0.994963,-0.000082,-0.000130,-0.009948, 0.002532, 0.000890, 0.037640,1, 0.000466, 0.000243,-0.001178,1, 0.076996, 0.129795, 9.805489,1,1
1777928447929,  1330.805,  1330.805,-0.007572,-0.012909,-0.995687,-0.000077,-0.000131,-0.009957, 0.002753, 0.003235, 0.041133,1,-0.000093,-0.000081,-0.000074,1, 0.077010, 0.129824, 9.805489,1,1
1777928447939,  1330.805,  1330.805,-0.007572,-0.012909,-0.995687,-0.000077,-0.000131,-0.009957, 0.002753, 0.003235, 0.041133,1,-0.000093,-0.000081,-0.000074,1, 0.077010, 0.129824, 9.805489,1,1
1777928447951,  1330.830,  1330.825,-0.007374,-0.013117,-0.995588,-0.000075,-0.000130,-0.009955,-0.000958, 0.002219, 0.045719,1, 0.000386, 0.000255,-0.000122,1, 0.077036, 0.129906, 9.805487,1,1
1777928447961,  1330.830,  1330.825,-0.007374,-0.013117,-0.995588,-0.000075,-0.000130,-0.009955,-0.000958, 0.002219, 0.045719,1, 0.000386, 0.000255,-0.000122,1, 0.077036, 0.129906, 9.805487,1,1
1777928447979,  1330.855,  1330.855,-0.007567,-0.013438,-0.994998,-0.000077,-0.000133,-0.009955, 0.002848,-0.001875, 0.047886,1,-0.000198, 0.000592,-0.000825,1, 0.077037, 0.129901, 9.805487,1,1
1777928447989,  1330.855,  1330.855,-0.007567,-0.013438,-0.994998,-0.000077,-0.000133,-0.009955, 0.002848,-0.001875, 0.047886,1,-0.000198, 0.000592,-0.000825,1, 0.077037, 0.129901, 9.805487,1,1
1777928448001,  1330.880,  1330.875,-0.008173,-0.013166,-0.995555,-0.000080,-0.000132,-0.009956,-0.004396,-0.000687, 0.036467,1,-0.000669, 0.000290,-0.000958,1, 0.077040, 0.129859, 9.805488,1,1
1777928448011,  1330.880,  1330.875,-0.008173,-0.013166,-0.995555,-0.000080,-0.000132,-0.009956,-0.004396,-0.000687, 0.036467,1,-0.000669, 0.000290,-0.000958,1, 0.077040, 0.129859, 9.805488,1,1
1777928448028,  1330.905,  1330.905,-0.007678,-0.012951,-0.995595,-0.000076,-0.000132,-0.009956, 0.001711, 0.002869, 0.042033,1,-0.000406,-0.000610, 0.000138,1, 0.077028, 0.129864, 9.805488,1,1
1777928448038,  1330.905,  1330.905,-0.007678,-0.012951,-0.995595,-0.000076,-0.000132,-0.009956, 0.001711, 0.002869, 0.042033,1,-0.000406,-0.000610, 0.000138,1, 0.077028, 0.129864, 9.805488,1,1
1777928448050,  1330.930,  1330.925,-0.007540,-0.013104,-0.996116,-0.000076,-0.000133,-0.009959, 0.001272, 0.004353, 0.047612,1,-0.000563,-0.000668,-0.000365,1, 0.077046, 0.129904, 9.805487,1,1
1777928448060,  1330.930,  1330.925,-0.007540,-0.013104,-0.996116,-0.000076,-0.000133,-0.009959, 0.001272, 0.004353, 0.047612,1,-0.000563,-0.000668,-0.000365,1, 0.077046, 0.129904, 9.805487,1,1
1777928448074,  1330.955,  1330.950,-0.008256,-0.013764,-0.995467,-0.000081,-0.000136,-0.009956,-0.003814,-0.005072, 0.043289,1, 0.000035,-0.000088,-0.000481,1, 0.077149, 0.129906, 9.805486,1,1
1777928448084,  1330.955,  1330.950,-0.008256,-0.013764,-0.995467,-0.000081,-0.000136,-0.009956,-0.003814,-0.005072, 0.043289,1, 0.000035,-0.000088,-0.000481,1, 0.077149, 0.129906, 9.805486,1,1
1777928448100,  1330.980,  1330.975,-0.008482,-0.013414,-0.995976,-0.000081,-0.000133,-0.009954,-0.000117,-0.006125, 0.046072,1,-0.000792,-0.000144,-0.000344,1, 0.077197, 0.129792, 9.805488,1,1
1777928448110,  1330.980,  1330.975,-0.008482,-0.013414,-0.995976,-0.000081,-0.000133,-0.009954,-0.000117,-0.006125, 0.046072,1,-0.000792,-0.000144,-0.000344,1, 0.077197, 0.129792, 9.805488,1,1
1777928448123,  1331.000,  1331.000,-0.007212,-0.013249,-0.995873,-0.000074,-0.000134,-0.009957, 0.006484,-0.000065, 0.039312,1,-0.000590,-0.000422,-0.000087,1, 0.077225, 0.129841, 9.805487,1,1
1777928448133,  1331.000,  1331.000,-0.007212,-0.013249,-0.995873,-0.000074,-0.000134,-0.009957, 0.006484,-0.000065, 0.039312,1,-0.000590,-0.000422,-0.000087,1, 0.077225, 0.129841, 9.805487,1,1
1777928448149,  1331.025,  1331.025,-0.007740,-0.013015,-0.995687,-0.000076,-0.000131,-0.009957, 0.001417, 0.002193, 0.041133,1,-0.000175,-0.000448,-0.001181,1, 0.077338, 0.129826, 9.805486,1,1
1777928448159,  1331.025,  1331.025,-0.007740,-0.013015,-0.995687,-0.000076,-0.000131,-0.009957, 0.001417, 0.002193, 0.041133,1,-0.000175,-0.000448,-0.001181,1, 0.077338, 0.129826, 9.805486,1,1
1777928448171,  1331.050,  1331.045,-0.007929,-0.013275,-0.995288,-0.000079,-0.000134,-0.009952, 0.006390, 0.003285, 0.037295,1, 0.000044,-0.000191,-0.000416,1, 0.077278, 0.129913, 9.805485,1,1
1777928448181,  1331.050,  1331.045,-0.007929,-0.013275,-0.995288,-0.000079,-0.000134,-0.009952, 0.006390, 0.003285, 0.037295,1, 0.000044,-0.000191,-0.000416,1, 0.077278, 0.129913, 9.805485,1,1
1777928448199,  1331.075,  1331.075,-0.007807,-0.013259,-0.996242,-0.000078,-0.000135,-0.009961, 0.000649,-0.000003, 0.035685,1, 0.000342, 0.001017,-0.000699,1, 0.077178, 0.130033, 9.805484,1,1
1777928448209,  1331.075,  1331.075,-0.007807,-0.013259,-0.996242,-0.000078,-0.000135,-0.009961, 0.000649,-0.000003, 0.035685,1, 0.000342, 0.001017,-0.000699,1, 0.077178, 0.130033, 9.805484,1,1
1777928448221,  1331.100,  1331.095,-0.007188,-0.013739,-0.996620,-0.000074,-0.000135,-0.009964,-0.002740,-0.002853, 0.045174,1,-0.000770, 0.000856,-0.000184,1, 0.077125, 0.129892, 9.805487,1,1
1777928448231,  1331.100,  1331.095,-0.007188,-0.013739,-0.996620,-0.000074,-0.000135,-0.009964,-0.002740,-0.002853, 0.045174,1,-0.000770, 0.000856,-0.000184,1, 0.077125, 0.129892, 9.805487,1,1
1777928448249,  1331.125,  1331.125,-0.008466,-0.013803,-0.995179,-0.000084,-0.000136,-0.009952,-0.005963,-0.005479, 0.046113,1,-0.000571, 0.000029, 0.000096,1, 0.077058, 0.129859, 9.805488,1,1
1777928448259,  1331.125,  1331.125,-0.008466,-0.013803,-0.995179,-0.000084,-0.000136,-0.009952,-0.005963,-0.005479, 0.046113,1,-0.000571, 0.000029, 0.000096,1, 0.077058, 0.129859, 9.805488,1,1
1777928448271,  1331.150,  1331.145,-0.008369,-0.013296,-0.996241,-0.000083,-0.000133,-0.009961, 0.000343, 0.000970, 0.038257,1, 0.000005, 0.000029,-0.000014,1, 0.077002, 0.129892, 9.805488,1,1
1777928448281,  1331.150,  1331.145,-0.008369,-0.013296,-0.996241,-0.000083,-0.000133,-0.009961, 0.000343, 0.000970, 0.038257,1, 0.000005, 0.000029,-0.000014,1, 0.077002, 0.129892, 9.805488,1,1
1777928448298,  1331.175,  1331.175,-0.007833,-0.012904,-0.995861,-0.000075,-0.000130,-0.009960, 0.000221, 0.003283, 0.039432,1, 0.000388, 0.000137,-0.000723,1, 0.077037, 0.129838, 9.805488,1,1
1777928448308,  1331.175,  1331.175,-0.007833,-0.012904,-0.995861,-0.000075,-0.000130,-0.009960, 0.000221, 0.003283, 0.039432,1, 0.000388, 0.000137,-0.000723,1, 0.077037, 0.129838, 9.805488,1,1
1777928448320,  1331.200,  1331.195,-0.007740,-0.013375,-0.996300,-0.000076,-0.000134,-0.009961, 0.001315, 0.002793, 0.041862,1,-0.000551, 0.000193,-0.000640,1, 0.077062, 0.129797, 9.805489,1,1
1777928448330,  1331.200,  1331.195,-0.007740,-0.013375,-0.996300,-0.000076,-0.000134,-0.009961, 0.001315, 0.002793, 0.041862,1,-0.000551, 0.000193,-0.000640,1, 0.077062, 0.129797, 9.805489,1,1
1777928448344,  1331.225,  1331.220,-0.007571,-0.013226,-0.995610,-0.000079,-0.000132,-0.009954, 0.002770, 0.000108, 0.041892,1, 0.000487, 0.000709, 0.000687,1, 0.076996, 0.129829, 9.805489,1,1
1777928448354,  1331.225,  1331.220,-0.007571,-0.013226,-0.995610,-0.000079,-0.000132,-0.009954, 0.002770, 0.000108, 0.041892,1, 0.000487, 0.000709, 0.000687,1, 0.076996, 0.129829, 9.805489,1,1
1777928448370,  1331.250,  1331.245,-0.008451,-0.013624,-0.995554,-0.000083,-0.000133,-0.009954, 0.001358,-0.005097, 0.040963,1, 0.000459,-0.000133,-0.000107,1, 0.076978, 0.129929, 9.805487,1,1
1777928448380,  1331.250,  1331.245,-0.008451,-0.013624,-0.995554,-0.000083,-0.000133,-0.009954, 0.001358,-0.005097, 0.040963,1, 0.000459,-0.000133,-0.000107,1, 0.076978, 0.129929, 9.805487,1,1
1777928448393,  1331.270,  1331.270,-0.007694,-0.013184,-0.995586,-0.000076,-0.000131,-0.009957, 0.001549, 0.000624, 0.042128,1,-0.000032,-0.000341,-0.000577,1, 0.077013, 0.129918, 9.805487,1,1
1777928448403,  1331.270,  1331.270,-0.007694,-0.013184,-0.995586,-0.000076,-0.000131,-0.009957, 0.001549, 0.000624, 0.042128,1,-0.000032,-0.000341,-0.000577,1, 0.077013, 0.129918, 9.805487,1,1
1777928448420,  1331.295,  1331.295,-0.007452,-0.013680,-0.995910,-0.000076,-0.000136,-0.009957, 0.003940,-0.004294, 0.038947,1, 0.000578,-0.000031,-0.000199,1, 0.077022, 0.129882, 9.805488,1,1
1777928448430,  1331.295,  1331.295,-0.007452,-0.013680,-0.995910,-0.000076,-0.000136,-0.009957, 0.003940,-0.004294, 0.038947,1, 0.000578,-0.000031,-0.000199,1, 0.077022, 0.129882, 9.805488,1,1
1777928448441,  1331.320,  1331.315,-0.007874,-0.012807,-0.996089,-0.000078,-0.000129,-0.009962,-0.000398, 0.003411, 0.034941,1,-0.000329,-0.000213,-0.000857,1, 0.077006, 0.129810, 9.805489,1,1
1777928448452,  1331.320,  1331.315,-0.007874,-0.012807,-0.996089,-0.000078,-0.000129,-0.009962,-0.000398, 0.003411, 0.034941,1,-0.000329,-0.000213,-0.000857,1, 0.077006, 0.129810, 9.805489,1,1
1777928448469,  1331.345,  1331.345,-0.008031,-0.013318,-0.995115,-0.000078,-0.000135,-0.009955,-0.001889,-0.000760, 0.046749,1, 0.000521, 0.000723,-0.000746,1, 0.076844, 0.129863, 9.805489,1,1
1777928448479,  1331.345,  1331.345,-0.008031,-0.013318,-0.995115,-0.000078,-0.000135,-0.009955,-0.001889,-0.000760, 0.046749,1, 0.000521, 0.000723,-0.000746,1, 0.076844, 0.129863, 9.805489,1,1
1777928448491,  1331.370,  1331.365,-0.008198,-0.013503,-0.995532,-0.000081,-0.000134,-0.009958, 0.002123,-0.004258, 0.044618,1,-0.000501, 0.000634,-0.000210,1, 0.076838, 0.129778, 9.805490,1,1
1777928448501,  1331.370,  1331.365,-0.008198,-0.013503,-0.995532,-0.000081,-0.000134,-0.009958, 0.002123,-0.004258, 0.044618,1,-0.000501, 0.000634,-0.000210,1, 0.076838, 0.129778, 9.805490,1,1
1777928448519,  1331.395,  1331.395,-0.007759,-0.013172,-0.995608,-0.000078,-0.000135,-0.009956, 0.000765, 0.000638, 0.041911,1,-0.000217,-0.000260,-0.000708,1, 0.076867, 0.129807, 9.805490,1,1
1777928448529,  1331.395,  1331.395,-0.007759,-0.013172,-0.995608,-0.000078,-0.000135,-0.009956, 0.000765, 0.000638, 0.041911,1,-0.000217,-0.000260,-0.000708,1, 0.076867, 0.129807, 9.805490,1,1
1777928448541,  1331.420,  1331.415,-0.008098,-0.013419,-0.995461,-0.000081,-0.000134,-0.009954,-0.001284,-0.000735, 0.039945,1, 0.000121,-0.000738,-0.000369,1, 0.076913, 0.129861, 9.805489,1,1
1777928448551,  1331.420,  1331.415,-0.008098,-0.013419,-0.995461,-0.000081,-0.000134,-0.009954,-0.001284,-0.000735, 0.039945,1, 0.000121,-0.000738,-0.000369,1, 0.076913, 0.129861, 9.805489,1,1
1777928448568,  1331.445,  1331.445,-0.007968,-0.012991,-0.995725,-0.000079,-0.000131,-0.009959,-0.001272, 0.002512, 0.040760,1, 0.000599,-0.000466,-0.000569,1, 0.076882, 0.129932, 9.805488,1,1
1777928448578,  1331.445,  1331.445,-0.007968,-0.012991,-0.995725,-0.000079,-0.000131,-0.009959,-0.001272, 0.002512, 0.040760,1, 0.000599,-0.000466,-0.000569,1, 0.076882, 0.129932, 9.805488,1,1
1777928448590,  1331.470,  1331.465,-0.007805,-0.013287,-0.995546,-0.000075,-0.000132,-0.009956, 0.002583, 0.002887, 0.043628,1, 0.000612,-0.000733,-0.000420,1, 0.076897, 0.130038, 9.805487,1,1
1777928448600,  1331.470,  1331.465,-0.007805,-0.013287,-0.995546,-0.000075,-0.000132,-0.009956, 0.002583, 0.002887, 0.043628,1, 0.000612,-0.000733,-0.000420,1, 0.076897, 0.130038, 9.805487,1,1
1777928448614,  1331.495,  1331.490,-0.008646,-0.013095,-0.994574,-0.000085,-0.000131,-0.009951,-0.007796, 0.001637, 0.052048,1,-0.000187, 0.000395,-0.000550,1, 0.076976, 0.130052, 9.805486,1,1
1777928448624,  1331.495,  1331.490,-0.008646,-0.013095,-0.994574,-0.000085,-0.000131,-0.009951,-0.007796, 0.001637, 0.052048,1,-0.000187, 0.000395,-0.000550,1, 0.076976, 0.130052, 9.805486,1,1
1777928448640,  1331.520,  1331.515,-0.008247,-0.013652,-0.994738,-0.000083,-0.000135,-0.009948,-0.001206,-0.001691, 0.037796,1, 0.000076, 0.000213,-0.000472,1, 0.076948, 0.129993, 9.805487,1,1
1777928448650,  1331.520,  1331.515,-0.008247,-0.013652,-0.994738,-0.000083,-0.000135,-0.009948,-0.001206,-0.001691, 0.037796,1, 0.000076, 0.000213,-0.000472,1, 0.076948, 0.129993, 9.805487,1,1
1777928448663,  1331.540,  1331.540,-0.007822,-0.013212,-0.995707,-0.000077,-0.000130,-0.009957, 0.000333, 0.000391, 0.040940,1,-0.000755,-0.000233,-0.000667,1, 0.077045, 0.129934, 9.805487,1,1
1777928448673,  1331.540,  1331.540,-0.007822,-0.013212,-0.995707,-0.000077,-0.000130,-0.009957, 0.000333, 0.000391, 0.040940,1,-0.000755,-0.000233,-0.000667,1, 0.077045, 0.129934, 9.805487,1,1
1777928448690,  1331.570,  1331.565,-0.007593,-0.012878,-0.995654,-0.000077,-0.000129,-0.009958, 0.001334, 0.000760, 0.048535,1, 0.000724,-0.000346,-0.000753,1, 0.077049, 0.129983, 9.805486,1,1
1777928448700,  1331.570,  1331.565,-0.007593,-0.012878,-0.995654,-0.000077,-0.000129,-0.009958, 0.001334, 0.000760, 0.048535,1, 0.000724,-0.000346,-0.000753,1, 0.077049, 0.129983, 9.805486,1,1
1777928448711,  1331.590,  1331.585,-0.007630,-0.012672,-0.995741,-0.000076,-0.000127,-0.009957,-0.000654, 0.003029, 0.039784,1,-0.000063,-0.000285,-0.000412,1, 0.077079, 0.130003, 9.805486,1,1
1777928448722,  1331.590,  1331.585,-0.007630,-0.012672,-0.995741,-0.000076,-0.000127,-0.009957,-0.000654, 0.003029, 0.039784,1,-0.000063,-0.000285,-0.000412,1, 0.077079, 0.130003, 9.805486,1,1
1777928448739,  1331.615,  1331.615,-0.007694,-0.013431,-0.995221,-0.000077,-0.000134,-0.009954, 0.001679,-0.001661, 0.045703,1, 0.000500,-0.000075,-0.000515,1, 0.077134, 0.130069, 9.805484,1,1
1777928448749,  1331.615,  1331.615,-0.007694,-0.013431,-0.995221,-0.000077,-0.000134,-0.009954, 0.001679,-0.001661, 0.045703,1, 0.000500,-0.000075,-0.000515,1, 0.077134, 0.130069, 9.805484,1,1
1777928448761,  1331.640,  1331.635,-0.007817,-0.013261,-0.996163,-0.000077,-0.000132,-0.009963, 0.001318,-0.001272, 0.041090,1,-0.000300,-0.000294,-0.000331,1, 0.077141, 0.130111, 9.805484,1,1
1777928448771,  1331.640,  1331.635,-0.007817,-0.013261,-0.996163,-0.000077,-0.000132,-0.009963, 0.001318,-0.001272, 0.041090,1,-0.000300,-0.000294,-0.000331,1, 0.077141, 0.130111, 9.805484,1,1
1777928448789,  1331.665,  1331.665,-0.007676,-0.013307,-0.995555,-0.000080,-0.000133,-0.009956, 0.001865,-0.000429, 0.042424,1, 0.000311, 0.000104,-0.000422,1, 0.077139, 0.130080, 9.805484,1,1
1777928448799,  1331.665,  1331.665,-0.007676,-0.013307,-0.995555,-0.000080,-0.000133,-0.009956, 0.001865,-0.000429, 0.042424,1, 0.000311, 0.000104,-0.000422,1, 0.077139, 0.130080, 9.805484,1,1
1777928448811,  1331.690,  1331.685,-0.007967,-0.013137,-0.995391,-0.000079,-0.000131,-0.009955,-0.001194, 0.000540, 0.041027,1,-0.000319, 0.000837,-0.000621,1, 0.077044, 0.130001, 9.805486,1,1
1777928448821,  1331.690,  1331.685,-0.007967,-0.013137,-0.995391,-0.000079,-0.000131,-0.009955,-0.001194, 0.000540, 0.041027,1,-0.000319, 0.000837,-0.000621,1, 0.077044, 0.130001, 9.805486,1,1
1777928448838,  1331.715,  1331.715,-0.007963,-0.012820,-0.995621,-0.000080,-0.000130,-0.009956,-0.001033, 0.004231, 0.041783,1,-0.000393,-0.000262,-0.000398,1, 0.077065, 0.129939, 9.805487,1,1
1777928448848,  1331.715,  1331.715,-0.007963,-0.012820,-0.995621,-0.000080,-0.000130,-0.009956,-0.001033, 0.004231, 0.041783,1,-0.000393,-0.000262,-0.000398,1, 0.077065, 0.129939, 9.805487,1,1
1777928448860,  1331.740,  1331.735,-0.007776,-0.013358,-0.996230,-0.000077,-0.000136,-0.009961,-0.004735,-0.005051, 0.041582,1,-0.000456, 0.000202,-0.000208,1, 0.076971, 0.129857, 9.805488,1,1
1777928448870,  1331.740,  1331.735,-0.007776,-0.013358,-0.996230,-0.000077,-0.000136,-0.009961,-0.004735,-0.005051, 0.041582,1,-0.000456, 0.000202,-0.000208,1, 0.076971, 0.129857, 9.805488,1,1
1777928448884,  1331.765,  1331.760,-0.007870,-0.013585,-0.995435,-0.000077,-0.000135,-0.009958,-0.000225,-0.003321, 0.043607,1,-0.000257, 0.000539,-0.000410,1, 0.076941, 0.129895, 9.805488,1,1
1777928448894,  1331.765,  1331.760,-0.007870,-0.013585,-0.995435,-0.000077,-0.000135,-0.009958,-0.000225,-0.003321, 0.043607,1,-0.000257, 0.000539,-0.000410,1, 0.076941, 0.129895, 9.805488,1,1
1777928448910,  1331.790,  1331.785,-0.007616,-0.013447,-0.995589,-0.000077,-0.000134,-0.009959,-0.002537,-0.005887, 0.045795,1,-0.000427, 0.000306,-0.000677,1, 0.076945, 0.129896, 9.805488,1,1
1777928448920,  1331.790,  1331.785,-0.007616,-0.013447,-0.995589,-0.000077,-0.000134,-0.009959,-0.002537,-0.005887, 0.045795,1,-0.000427, 0.000306,-0.000677,1, 0.076945, 0.129896, 9.805488,1,1
1777928448933,  1331.810,  1331.810,-0.007688,-0.013597,-0.995808,-0.000076,-0.000137,-0.009958, 0.001519,-0.003454, 0.039949,1, 0.000603, 0.000753,-0.000013,1, 0.076886, 0.129910, 9.805488,1,1
1777928448944,  1331.810,  1331.810,-0.007688,-0.013597,-0.995808,-0.000076,-0.000137,-0.009958, 0.001519,-0.003454, 0.039949,1, 0.000603, 0.000753,-0.000013,1, 0.076886, 0.129910, 9.805488,1,1
1777928448960,  1331.840,  1331.835,-0.007924,-0.013231,-0.995765,-0.000081,-0.000133,-0.009957,-0.000721, 0.004851, 0.045491,1, 0.000562,-0.000156,-0.000370,1, 0.076890, 0.129946, 9.805488,1,1
1777928448970,  1331.840,  1331.835,-0.007924,-0.013231,-0.995765,-0.000081,-0.000133,-0.009957,-0.000721, 0.004851, 0.045491,1, 0.000562,-0.000156,-0.000370,1, 0.076890, 0.129946, 9.805488,1,1
1777928448982,  1331.860,  1331.855,-0.007955,-0.013429,-0.994932,-0.000078,-0.000135,-0.009952, 0.002641, 0.000456, 0.042227,1, 0.000410,-0.000020,-0.000277,1, 0.076882, 0.129960, 9.805488,1,1
1777928448992,  1331.860,  1331.855,-0.007955,-0.013429,-0.994932,-0.000078,-0.000135,-0.009952, 0.002641, 0.000456, 0.042227,1, 0.000410,-0.000020,-0.000277,1, 0.076882, 0.129960, 9.805488,1,1
1777928449009,  1331.885,  1331.885,-0.008048,-0.012760,-0.995457,-0.000081,-0.000127,-0.009955,-0.002015, 0.004932, 0.043386,1,-0.000472,-0.000628,-0.000336,1, 0.076929, 0.130049, 9.805486,1,1
1777928449019,  1331.885,  1331.885,-0.008048,-0.012760,-0.995457,-0.000081,-0.000127,-0.009955,-0.002015, 0.004932, 0.043386,1,-0.000472,-0.000628,-0.000336,1, 0.076929, 0.130049, 9.805486,1,1
1777928449031,  1331.910,  1331.905,-0.007917,-0.012785,-0.994959,-0.000078,-0.000127,-0.009947, 0.000813,-0.001498, 0.039139,1, 0.000029, 0.000282, 0.000058,1, 0.076921, 0.130053, 9.805486,1,1
1777928449041,  1331.910,  1331.905,-0.007917,-0.012785,-0.994959,-0.000078,-0.000127,-0.009947, 0.000813,-0.001498, 0.039139,1, 0.000029, 0.000282, 0.000058,1, 0.076921, 0.130053, 9.805486,1,1
1777928449059,  1331.935,  1331.935,-0.008037,-0.012126,-0.995321,-0.000079,-0.000123,-0.009956,-0.001838, 0.011179, 0.044723,1,-0.000336, 0.000142,-0.000003,1, 0.076970, 0.130080, 9.805485,1,1
1777928449069,  1331.935,  1331.935,-0.008037,-0.012126,-0.995321,-0.000079,-0.000123,-0.009956,-0.001838, 0.011179, 0.044723,1,-0.000336, 0.000142,-0.000003,1, 0.076970, 0.130080, 9.805485,1,1
1777928449081,  1331.960,  1331.955,-0.007720,-0.013173,-0.995577,-0.000077,-0.000132,-0.009952,-0.000628, 0.006198, 0.045777,1,-0.000457,-0.000226,-0.000218,1, 0.076966, 0.130092, 9.805485,1,1
1777928449091,  1331.960,  1331.955,-0.007720,-0.013173,-0.995577,-0.000077,-0.000132,-0.009952,-0.000628, 0.006198, 0.045777,1,-0.000457,-0.000226,-0.000218,1, 0.076966, 0.130092, 9.805485,1,1
1777928449108,  1331.985,  1331.985,-0.007763,-0.013655,-0.995108,-0.000077,-0.000136,-0.009952, 0.000870,-0.003929, 0.046811,1, 0.000129,-0.000199,-0.000520,1, 0.077008, 0.129984, 9.805486,1,1
1777928449119,  1331.985,  1331.985,-0.007763,-0.013655,-0.995108,-0.000077,-0.000136,-0.009952, 0.000870,-0.003929, 0.046811,1, 0.000129,-0.000199,-0.000520,1, 0.077008, 0.129984, 9.805486,1,1
1777928449130,  1332.010,  1332.005,-0.008030,-0.014263,-0.995506,-0.000079,-0.000141,-0.009956,-0.001162,-0.003809, 0.038514,1, 0.000172, 0.000576,-0.000406,1, 0.076946, 0.129974, 9.805487,1,1
1777928449141,  1332.010,  1332.005,-0.008030,-0.014263,-0.995506,-0.000079,-0.000141,-0.009956,-0.001162,-0.003809, 0.038514,1, 0.000172, 0.000576,-0.000406,1, 0.076946, 0.129974, 9.805487,1,1
1777928449154,  1332.035,  1332.030,-0.007684,-0.013302,-0.995082,-0.000081,-0.000133,-0.009951, 0.001556,-0.000586, 0.047069,1,-0.000989,-0.000466,-0.000552,1, 0.076924, 0.129832, 9.805489,1,1
1777928449164,  1332.035,  1332.030,-0.007684,-0.013302,-0.995082,-0.000081,-0.000133,-0.009951, 0.001556,-0.000586, 0.047069,1,-0.000989,-0.000466,-0.000552,1, 0.076924, 0.129832, 9.805489,1,1
1777928449180,  1332.060,  1332.055,-0.007911,-0.012890,-0.996097,-0.000079,-0.000130,-0.009960,-0.003419, 0.002260, 0.035814,1, 0.000091,-0.000506,-0.000165,1, 0.076919, 0.129854, 9.805489,1,1
1777928449190,  1332.060,  1332.055,-0.007911,-0.012890,-0.996097,-0.000079,-0.000130,-0.009960,-0.003419, 0.002260, 0.035814,1, 0.000091,-0.000506,-0.000165,1, 0.076919, 0.129854, 9.805489,1,1
1777928449203,  1332.080,  1332.080,-0.007573,-0.012899,-0.994687,-0.000078,-0.000133,-0.009948, 0.002604, 0.003439, 0.050943,1,-0.000177,-0.000266,-0.000569,1, 0.076881, 0.129934, 9.805488,1,1
1777928449214,  1332.080,  1332.080,-0.007573,-0.012899,-0.994687,-0.000078,-0.000133,-0.009948, 0.002604, 0.003439, 0.050943,1,-0.000177,-0.000266,-0.000569,1, 0.076881, 0.129934, 9.805488,1,1
1777928449230,  1332.110,  1332.105,-0.007508,-0.013108,-0.995828,-0.000075,-0.000132,-0.009959, 0.002329, 0.002197, 0.044234,1, 0.000635, 0.000351,-0.000245,1, 0.076840, 0.129998, 9.805488,1,1
1777928449240,  1332.110,  1332.105,-0.007508,-0.013108,-0.995828,-0.000075,-0.000132,-0.009959, 0.002329, 0.002197, 0.044234,1, 0.000635, 0.000351,-0.000245,1, 0.076840, 0.129998, 9.805488,1,1
1777928449253,  1332.130,  1332.130,-0.007524,-0.013245,-0.995847,-0.000078,-0.000134,-0.009959, 0.002997, 0.000152, 0.039566,1,-0.000043, 0.000348,-0.000507,1, 0.076768, 0.130037, 9.805488,1,1
1777928449263,  1332.130,  1332.130,-0.007524,-0.013245,-0.995847,-0.000078,-0.000134,-0.009959, 0.002997, 0.000152, 0.039566,1,-0.000043, 0.000348,-0.000507,1, 0.076768, 0.130037, 9.805488,1,1
1777928449279,  1332.155,  1332.155,-0.008127,-0.013816,-0.995770,-0.000082,-0.000136,-0.009959,-0.002979,-0.005463, 0.040318,1,-0.000683, 0.000634,-0.000007,1, 0.076697, 0.130002, 9.805489,1,1
1777928449289,  1332.155,  1332.155,-0.008127,-0.013816,-0.995770,-0.000082,-0.000136,-0.009959,-0.002979,-0.005463, 0.040318,1,-0.000683, 0.000634,-0.000007,1, 0.076697, 0.130002, 9.805489,1,1
1777928449301,  1332.180,  1332.175,-0.007839,-0.014115,-0.995491,-0.000079,-0.000138,-0.009958, 0.001041,-0.007458, 0.044662,1,-0.000098, 0.000950,-0.000033,1, 0.076622, 0.130045, 9.805489,1,1
1777928449311,  1332.180,  1332.175,-0.007839,-0.014115,-0.995491,-0.000079,-0.000138,-0.009958, 0.001041,-0.007458, 0.044662,1,-0.000098, 0.000950,-0.000033,1, 0.076622, 0.130045, 9.805489,1,1
1777928449329,  1332.205,  1332.205,-0.007463,-0.012919,-0.995295,-0.000076,-0.000129,-0.009950, 0.003456, 0.003320, 0.044976,1, 0.000175,-0.000264,-0.000873,1, 0.076649, 0.130021, 9.805489,1,1
1777928449339,  1332.205,  1332.205,-0.007463,-0.012919,-0.995295,-0.000076,-0.000129,-0.009950, 0.003456, 0.003320, 0.044976,1, 0.000175,-0.000264,-0.000873,1, 0.076649, 0.130021, 9.805489,1,1
1777928449351,  1332.230,  1332.225,-0.007687,-0.012391,-0.995017,-0.000077,-0.000124,-0.009952, 0.002163, 0.002154, 0.035210,1,-0.000045, 0.000144,-0.000162,1, 0.076655, 0.130035, 9.805489,1,1
1777928449361,  1332.230,  1332.225,-0.007687,-0.012391,-0.995017,-0.000077,-0.000124,-0.009952, 0.002163, 0.002154, 0.035210,1,-0.000045, 0.000144,-0.000162,1, 0.076655, 0.130035, 9.805489,1,1
1777928449378,  1332.255,  1332.255,-0.007873,-0.012568,-0.995393,-0.000079,-0.000127,-0.009954,-0.000516, 0.006732, 0.044021,1, 0.000389,-0.000228,-0.000629,1, 0.076701, 0.129991, 9.805489,1,1
1777928449389,  1332.255,  1332.255,-0.007873,-0.012568,-0.995393,-0.000079,-0.000127,-0.009954,-0.000516, 0.006732, 0.044021,1, 0.000389,-0.000228,-0.000629,1, 0.076701, 0.129991, 9.805489,1,1
1777928449400,  1332.280,  1332.275,-0.008241,-0.013554,-0.995430,-0.000082,-0.000134,-0.009955,-0.003777, 0.002447, 0.035701,1,-0.000096,-0.000197,-0.000504,1, 0.076644, 0.130005, 9.805489,1,1
1777928449411,  1332.280,  1332.275,-0.008241,-0.013554,-0.995430,-0.000082,-0.000134,-0.009955,-0.003777, 0.002447, 0.035701,1,-0.000096,-0.000197,-0.000504,1, 0.076644, 0.130005, 9.805489,1,1
1777928449424,  1332.305,  1332.300,-0.008008,-0.013711,-0.995792,-0.000080,-0.000138,-0.009957,-0.001988,-0.004421, 0.040101,1, 0.000014,-0.000342,-0.000681,1, 0.076557, 0.130038, 9.805489,1,1
1777928449434,  1332.305,  1332.300,-0.008008,-0.013711,-0.995792,-0.000080,-0.000138,-0.009957,-0.001988,-0.004421, 0.040101,1, 0.000014,-0.000342,-0.000681,1, 0.076557, 0.130038, 9.805489,1,1
1777928449450,  1332.330,  1332.325,-0.007371,-0.013397,-0.995203,-0.000073,-0.000134,-0.009955,-0.002596,-0.004185, 0.044800,1, 0.000110,-0.000130,-0.000776,1, 0.076605, 0.130039, 9.805489,1,1
1777928449460,  1332.330,  1332.325,-0.007371,-0.013397,-0.995203,-0.000073,-0.000134,-0.009955,-0.002596,-0.004185, 0.044800,1, 0.000110,-0.000130,-0.000776,1, 0.076605, 0.130039, 9.805489,1,1
1777928449474,  1332.355,  1332.350,-0.007495,-0.013443,-0.995562,-0.000075,-0.000131,-0.009957, 0.002996,-0.001825, 0.042365,1,-0.000021, 0.000683,-0.000434,1, 0.076479, 0.130005, 9.805490,1,1
1777928449484,  1332.355,  1332.350,-0.007495,-0.013443,-0.995562,-0.000075,-0.000131,-0.009957, 0.002996,-0.001825, 0.042365,1,-0.000021, 0.000683,-0.000434,1, 0.076479, 0.130005, 9.805490,1,1
1777928449500,  1332.380,  1332.375,-0.007884,-0.013298,-0.995674,-0.000080,-0.000131,-0.009956,-0.002075,-0.000152, 0.044753,1,-0.000475, 0.000574,-0.000071,1, 0.076351, 0.130005, 9.805491,1,1
1777928449510,  1332.380,  1332.375,-0.007884,-0.013298,-0.995674,-0.000080,-0.000131,-0.009956,-0.002075,-0.000152, 0.044753,1,-0.000475, 0.000574,-0.000071,1, 0.076351, 0.130005, 9.805491,1,1
1777928449523,  1332.400,  1332.400,-0.007546,-0.013204,-0.995990,-0.000077,-0.000134,-0.009958, 0.002275, 0.000534, 0.038168,1, 0.000274, 0.000133,-0.000626,1, 0.076271, 0.130026, 9.805491,1,1
1777928449533,  1332.400,  1332.400,-0.007546,-0.013204,-0.995990,-0.000077,-0.000134,-0.009958, 0.002275, 0.000534, 0.038168,1, 0.000274, 0.000133,-0.000626,1, 0.076271, 0.130026, 9.805491,1,1
1777928449549,  1332.425,  1332.425,-0.007945,-0.013549,-0.995750,-0.000079,-0.000134,-0.009957,-0.001653,-0.002908, 0.040520,1,-0.001309,-0.000920,-0.000680,1, 0.076289, 0.129926, 9.805492,1,1
1777928449560,  1332.425,  1332.425,-0.007945,-0.013549,-0.995750,-0.000079,-0.000134,-0.009957,-0.001653,-0.002908, 0.040520,1,-0.001309,-0.000920,-0.000680,1, 0.076289, 0.129926, 9.805492,1,1
1777928449571,  1332.450,  1332.445,-0.007697,-0.013028,-0.995882,-0.000078,-0.000130,-0.009959,-0.005360,-0.000284, 0.041261,1, 0.000010, 0.000216,-0.000055,1, 0.076293, 0.129884, 9.805493,1,1
1777928449581,  1332.450,  1332.445,-0.007697,-0.013028,-0.995882,-0.000078,-0.000130,-0.009959,-0.005360,-0.000284, 0.041261,1, 0.000010, 0.000216,-0.000055,1, 0.076293, 0.129884, 9.805493,1,1
1777928449599,  1332.475,  1332.475,-0.007154,-0.013255,-0.995348,-0.000074,-0.000132,-0.009952, 0.006108,-0.000202, 0.044461,1,-0.000603,-0.000163,-0.000120,1, 0.076269, 0.129769, 9.805494,1,1
1777928449609,  1332.475,  1332.475,-0.007154,-0.013255,-0.995348,-0.000074,-0.000132,-0.009952, 0.006108,-0.000202, 0.044461,1,-0.000603,-0.000163,-0.000120,1, 0.076269, 0.129769, 9.805494,1,1
1777928449621,  1332.500,  1332.495,-0.008056,-0.013564,-0.995773,-0.000081,-0.000134,-0.009957, 0.000756,-0.003122, 0.041797,1,-0.000248,-0.000133,-0.000665,1, 0.076217, 0.129690, 9.805496,1,1
1777928449631,  1332.500,  1332.495,-0.008056,-0.013564,-0.995773,-0.000081,-0.000134,-0.009957, 0.000756,-0.003122, 0.041797,1,-0.000248,-0.000133,-0.000665,1, 0.076217, 0.129690, 9.805496,1,1
1777928449649,  1332.525,  1332.525,-0.007801,-0.013314,-0.995537,-0.000078,-0.000132,-0.009954,-0.000331,-0.000917, 0.042609,1,-0.000529, 0.000673,-0.000499,1, 0.076150, 0.129627, 9.805497,1,1
1777928449659,  1332.525,  1332.525,-0.007801,-0.013314,-0.995537,-0.000078,-0.000132,-0.009954,-0.000331,-0.000917, 0.042609,1,-0.000529, 0.000673,-0.000499,1, 0.076150, 0.129627, 9.805497,1,1
1777928449671,  1332.550,  1332.545,-0.007557,-0.013068,-0.995842,-0.000074,-0.000129,-0.009959, 0.003130, 0.004501, 0.043181,1, 0.000379,-0.000174,-0.000204,1, 0.076121, 0.129675, 9.805497,1,1
1777928449681,  1332.550,  1332.545,-0.007557,-0.013068,-0.995842,-0.000074,-0.000129,-0.009959, 0.003130, 0.004501, 0.043181,1, 0.000379,-0.000174,-0.000204,1, 0.076121, 0.129675, 9.805497,1,1
1777928449698,  1332.575,  1332.575,-0.007912,-0.012656,-0.995637,-0.000079,-0.000124,-0.009957,-0.001441, 0.005575, 0.041634,1,-0.000225, 0.000271,-0.000094,1, 0.076143, 0.129676, 9.805497,1,1
1777928449709,  1332.575,  1332.575,-0.007912,-0.012656,-0.995637,-0.000079,-0.000124,-0.009957,-0.001441, 0.005575, 0.041634,1,-0.000225, 0.000271,-0.000094,1, 0.076143, 0.129676, 9.805497,1,1
1777928449720,  1332.600,  1332.595,-0.008528,-0.013733,-0.995709,-0.000085,-0.000136,-0.009954,-0.002444,-0.001143, 0.042777,1,-0.000503, 0.000361,-0.000680,1, 0.076099, 0.129707, 9.805497,1,1
1777928449730,  1332.600,  1332.595,-0.008528,-0.013733,-0.995709,-0.000085,-0.000136,-0.009954,-0.002444,-0.001143, 0.042777,1,-0.000503, 0.000361,-0.000680,1, 0.076099, 0.129707, 9.805497,1,1
1777928449744,  1332.625,  1332.620,-0.007917,-0.014342,-0.995807,-0.000081,-0.000141,-0.009959,-0.001606,-0.010921, 0.039963,1,-0.000163, 0.000600,-0.000703,1, 0.076011, 0.129725, 9.805497,1,1
1777928449754,  1332.625,  1332.620,-0.007917,-0.014342,-0.995807,-0.000081,-0.000141,-0.009959,-0.001606,-0.010921, 0.039963,1,-0.000163, 0.000600,-0.000703,1, 0.076011, 0.129725, 9.805497,1,1
1777928449770,  1332.650,  1332.645,-0.007772,-0.013501,-0.995773,-0.000077,-0.000135,-0.009958,-0.004498,-0.006232, 0.040897,1, 0.000254, 0.000028,-0.000285,1, 0.076044, 0.129705, 9.805497,1,1
1777928449780,  1332.650,  1332.645,-0.007772,-0.013501,-0.995773,-0.000077,-0.000135,-0.009958,-0.004498,-0.006232, 0.040897,1, 0.000254, 0.000028,-0.000285,1, 0.076044, 0.129705, 9.805497,1,1
1777928449793,  1332.670,  1332.670,-0.007942,-0.013287,-0.995856,-0.000079,-0.000132,-0.009960,-0.001873,-0.000530, 0.039488,1,-0.000141,-0.000568,-0.000481,1, 0.076025, 0.129764, 9.805497,1,1
1777928449803,  1332.670,  1332.670,-0.007942,-0.013287,-0.995856,-0.000079,-0.000132,-0.009960,-0.001873,-0.000530, 0.039488,1,-0.000141,-0.000568,-0.000481,1, 0.076025, 0.129764, 9.805497,1,1
1777928449820,  1332.695,  1332.695,-0.007763,-0.013403,-0.995497,-0.000078,-0.000134,-0.009956,-0.000106,-0.001665, 0.043008,1,-0.000000, 0.000499,-0.000454,1, 0.076005, 0.129775, 9.805497,1,1
1777928449830,  1332.695,  1332.695,-0.007763,-0.013403,-0.995497,-0.000078,-0.000134,-0.009956,-0.000106,-0.001665, 0.043008,1,-0.000000, 0.000499,-0.000454,1, 0.076005, 0.129775, 9.805497,1,1
1777928449841,  1332.720,  1332.715,-0.007919,-0.013475,-0.995609,-0.000079,-0.000135,-0.009958, 0.000724,-0.002398, 0.036630,1,-0.000529,-0.000461,-0.000632,1, 0.076021, 0.129723, 9.805497,1,1
1777928449852,  1332.720,  1332.715,-0.007919,-0.013475,-0.995609,-0.000079,-0.000135,-0.009958, 0.000724,-0.002398, 0.036630,1,-0.000529,-0.000461,-0.000632,1, 0.076021, 0.129723, 9.805497,1,1
1777928449869,  1332.745,  1332.745,-0.007841,-0.012828,-0.995476,-0.000081,-0.000129,-0.009957,-0.000948, 0.003818, 0.043214,1,-0.000316, 0.000414,-0.000765,1, 0.075934, 0.129609, 9.805499,1,1
1777928449879,  1332.745,  1332.745,-0.007841,-0.012828,-0.995476,-0.000081,-0.000129,-0.009957,-0.000948, 0.003818, 0.043214,1,-0.000316, 0.000414,-0.000765,1, 0.075934, 0.129609, 9.805499,1,1
1777928449891,  1332.770,  1332.765,-0.008014,-0.013415,-0.995200,-0.000080,-0.000131,-0.009952, 0.006759,-0.004001, 0.042302,1, 0.000638, 0.000718,-0.000991,1, 0.075776, 0.129667, 9.805500,1,1
1777928449901,  1332.770,  1332.765,-0.008014,-0.013415,-0.995200,-0.000080,-0.000131,-0.009952, 0.006759,-0.004001, 0.042302,1, 0.000638, 0.000718,-0.000991,1, 0.075776, 0.129667, 9.805500,1,1
1777928449919,  1332.795,  1332.795,-0.007472,-0.012983,-0.995470,-0.000074,-0.000129,-0.009957, 0.002604, 0.002332, 0.043272,1, 0.000091,-0.000485,-0.000403,1, 0.075894, 0.129657, 9.805499,1,1
1777928449929,  1332.795,  1332.795,-0.007472,-0.012983,-0.995470,-0.000074,-0.000129,-0.009957, 0.002604, 0.002332, 0.043272,1, 0.000091,-0.000485,-0.000403,1, 0.075894, 0.129657, 9.805499,1,1
1777928449941,  1332.820,  1332.815,-0.007945,-0.012693,-0.995851,-0.000078,-0.000127,-0.009955,-0.004309, 0.001881, 0.043562,1,-0.000017,-0.000506,-0.000715,1, 0.075836, 0.129677, 9.805499,1,1
1777928449951,  1332.820,  1332.815,-0.007945,-0.012693,-0.995851,-0.000078,-0.000127,-0.009955,-0.004309, 0.001881, 0.043562,1,-0.000017,-0.000506,-0.000715,1, 0.075836, 0.129677, 9.805499,1,1
1777928449968,  1332.845,  1332.845,-0.007918,-0.013038,-0.996144,-0.000078,-0.000131,-0.009962,-0.001756, 0.001941, 0.036663,1, 0.000571, 0.000153,-0.000566,1, 0.075889, 0.129815, 9.805497,1,1
1777928449979,  1332.845,  1332.845,-0.007918,-0.013038,-0.996144,-0.000078,-0.000131,-0.009962,-0.001756, 0.001941, 0.036663,1, 0.000571, 0.000153,-0.000566,1, 0.075889, 0.129815, 9.805497,1,1
1777928449990,  1332.870,  1332.865,-0.007799,-0.013144,-0.995608,-0.000077,-0.000131,-0.009953, 0.000182,-0.004040, 0.041331,1,-0.000463, 0.000190,-0.000157,1, 0.075860, 0.129768, 9.805498,1,1
1777928450001,  1332.870,  1332.865,-0.007799,-0.013144,-0.995608,-0.000077,-0.000131,-0.009953, 0.000182,-0.004040, 0.041331,1,-0.000463, 0.000190,-0.000157,1, 0.075860, 0.129768, 9.805498,1,1
1777928450014,  1332.895,  1332.890,-0.007809,-0.013231,-0.995862,-0.000080,-0.000132,-0.009959,-0.000546,-0.000020, 0.039429,1, 0.000115, 0.000181,-0.000754,1, 0.076027, 0.129736, 9.805497,1,1
1777928450024,  1332.895,  1332.890,-0.007809,-0.013231,-0.995862,-0.000080,-0.000132,-0.009959,-0.000546,-0.000020, 0.039429,1, 0.000115, 0.000181,-0.000754,1, 0.076027, 0.129736, 9.805497,1,1
1777928450040,  1332.920,  1332.915,-0.007913,-0.012969,-0.995409,-0.000080,-0.000131,-0.009955, 0.000355, 0.003540, 0.042220,1, 0.000019,-0.000887,-0.000462,1, 0.076089, 0.129724, 9.805497,1,1
1777928450050,  1332.920,  1332.915,-0.007913,-0.012969,-0.995409,-0.000080,-0.000131,-0.009955, 0.000355, 0.003540, 0.042220,1, 0.000019,-0.000887,-0.000462,1, 0.076089, 0.129724, 9.805497,1,1
1777928450063,  1332.940,  1332.940,-0.008101,-0.012984,-0.995698,-0.000079,-0.000130,-0.009955,-0.003166, 0.002555, 0.041028,1, 0.000407,-0.001344,-0.000401,1, 0.076324, 0.129898, 9.805492,1,1
1777928450074,  1332.940,  1332.940,-0.008101,-0.012984,-0.995698,-0.000079,-0.000130,-0.009955,-0.003166, 0.002555, 0.041028,1, 0.000407,-0.001344,-0.000401,1, 0.076324, 0.129898, 9.805492,1,1
1777928450090,  1332.965,  1332.965,-0.007822,-0.013038,-0.995449,-0.000077,-0.000131,-0.009957,-0.000344, 0.002027, 0.043474,1, 0.000933,-0.000169,-0.000524,1, 0.076369, 0.129916, 9.805492,1,1
1777928450100,  1332.965,  1332.965,-0.007822,-0.013038,-0.995449,-0.000077,-0.000131,-0.009957,-0.000344, 0.002027, 0.043474,1, 0.000933,-0.000169,-0.000524,1, 0.076369, 0.129916, 9.805492,1,1
1777928450112,  1332.990,  1332.985,-0.007969,-0.013146,-0.995275,-0.000080,-0.000133,-0.009956,-0.000259,-0.000898, 0.038787,1,-0.000593, 0.000016,-0.000902,1, 0.076364, 0.129792, 9.805493,1,1
1777928450122,  1332.990,  1332.985,-0.007969,-0.013146,-0.995275,-0.000080,-0.000133,-0.009956,-0.000259,-0.000898, 0.038787,1,-0.000593, 0.000016,-0.000902,1, 0.076364, 0.129792, 9.805493,1,1
1777928450139,  1333.015,  1333.015,-0.007315,-0.014074,-0.995796,-0.000074,-0.000137,-0.009959, 0.004547,-0.008342, 0.040070,1,-0.000138, 0.000400,-0.000409,1, 0.076269, 0.129669, 9.805496,1,1
1777928450150,  1333.015,  1333.015,-0.007315,-0.014074,-0.995796,-0.000074,-0.000137,-0.009959, 0.004547,-0.008342, 0.040070,1,-0.000138, 0.000400,-0.000409,1, 0.076269, 0.129669, 9.805496,1,1
1777928450161,  1333.040,  1333.035,-0.007492,-0.013585,-0.995804,-0.000077,-0.000138,-0.009958,-0.001069,-0.006299, 0.042627,1, 0.000741,-0.000066, 0.000001,1, 0.076228, 0.129694, 9.805496,1,1
1777928450172,  1333.040,  1333.035,-0.007492,-0.013585,-0.995804,-0.000077,-0.000138,-0.009958,-0.001069,-0.006299, 0.042627,1, 0.000741,-0.000066, 0.000001,1, 0.076228, 0.129694, 9.805496,1,1
1777928450189,  1333.065,  1333.065,-0.007396,-0.013459,-0.995967,-0.000077,-0.000133,-0.009957, 0.003756,-0.002360, 0.038392,1,-0.000226, 0.000592,-0.000621,1, 0.076263, 0.129618, 9.805497,1,1
1777928450199,  1333.065,  1333.065,-0.007396,-0.013459,-0.995967,-0.000077,-0.000133,-0.009957, 0.003756,-0.002360, 0.038392,1,-0.000226, 0.000592,-0.000621,1, 0.076263, 0.129618, 9.805497,1,1
1777928450211,  1333.090,  1333.085,-0.007789,-0.012982,-0.995823,-0.000078,-0.000131,-0.009959,-0.003730, 0.001186, 0.041078,1, 0.000084, 0.000138,-0.000364,1, 0.076226, 0.129659, 9.805496,1,1
1777928450221,  1333.090,  1333.085,-0.007789,-0.012982,-0.995823,-0.000078,-0.000131,-0.009959,-0.003730, 0.001186, 0.041078,1, 0.000084, 0.000138,-0.000364,1, 0.076226, 0.129659, 9.805496,1,1
1777928450238,  1333.115,  1333.115,-0.007326,-0.013293,-0.996387,-0.000076,-0.000132,-0.009960, 0.004370,-0.000654, 0.034277,1,-0.000014, 0.000032, 0.000276,1, 0.076211, 0.129706, 9.805496,1,1
1777928450249,  1333.115,  1333.115,-0.007326,-0.013293,-0.996387,-0.000076,-0.000132,-0.009960, 0.004370,-0.000654, 0.034277,1,-0.000014, 0.000032, 0.000276,1, 0.076211, 0.129706, 9.805496,1,1
1777928450260,  1333.140,  1333.135,-0.008187,-0.013449,-0.995625,-0.000081,-0.000133,-0.009957,-0.001091,-0.005585, 0.044054,1,-0.000493, 0.000125,-0.000733,1, 0.076118, 0.129594, 9.805498,1,1
1777928450271,  1333.140,  1333.135,-0.008187,-0.013449,-0.995625,-0.000081,-0.000133,-0.009957,-0.001091,-0.005585, 0.044054,1,-0.000493, 0.000125,-0.000733,1, 0.076118, 0.129594, 9.805498,1,1
1777928450284,  1333.165,  1333.160,-0.007754,-0.013781,-0.995430,-0.000079,-0.000138,-0.009956, 0.000173,-0.005568, 0.043665,1,-0.000192,-0.000591,-0.000502,1, 0.076228, 0.129571, 9.805498,1,1
1777928450294,  1333.165,  1333.160,-0.007754,-0.013781,-0.995430,-0.000079,-0.000138,-0.009956, 0.000173,-0.005568, 0.043665,1,-0.000192,-0.000591,-0.000502,1, 0.076228, 0.129571, 9.805498,1,1
1777928450310,  1333.190,  1333.185,-0.008139,-0.013581,-0.995132,-0.000080,-0.000134,-0.009953,-0.002390,-0.001350, 0.047712,1, 0.000166, 0.000227,-0.000441,1, 0.076216, 0.129564, 9.805498,1,1
1777928450320,  1333.190,  1333.185,-0.008139,-0.013581,-0.995132,-0.000080,-0.000134,-0.009953,-0.002390,-0.001350, 0.047712,1, 0.000166, 0.000227,-0.000441,1, 0.076216, 0.129564, 9.805498,1,1
1777928450333,  1333.210,  1333.210,-0.007765,-0.012912,-0.996324,-0.000078,-0.000129,-0.009961, 0.000024, 0.003160, 0.034892,1, 0.000578, 0.000542,-0.000162,1, 0.076159, 0.129797, 9.805495,1,1
1777928450344,  1333.210,  1333.210,-0.007765,-0.012912,-0.996324,-0.000078,-0.000129,-0.009961, 0.000024, 0.003160, 0.034892,1, 0.000578, 0.000542,-0.000162,1, 0.076159, 0.129797, 9.805495,1,1
1777928450360,  1333.235,  1333.235,-0.007733,-0.012411,-0.995850,-0.000077,-0.000125,-0.009962, 0.000267, 0.008066, 0.039540,1,-0.000165,-0.000150,-0.000502,1, 0.076108, 0.129771, 9.805496,1,1
1777928450370,  1333.235,  1333.235,-0.007733,-0.012411,-0.995850,-0.000077,-0.000125,-0.009962, 0.000267, 0.008066, 0.039540,1,-0.000165,-0.000150,-0.000502,1, 0.076108, 0.129771, 9.805496,1,1
1777928450382,  1333.260,  1333.255,-0.007424,-0.013521,-0.995664,-0.000072,-0.000136,-0.009957,-0.003410, 0.000293, 0.045278,1,-0.000369, 0.000823,-0.000475,1, 0.076038, 0.129786, 9.805496,1,1
1777928450392,  1333.260,  1333.255,-0.007424,-0.013521,-0.995664,-0.000072,-0.000136,-0.009957,-0.003410, 0.000293, 0.045278,1,-0.000369, 0.000823,-0.000475,1, 0.076038, 0.129786, 9.805496,1,1
1777928450409,  1333.285,  1333.285,-0.008065,-0.013704,-0.995825,-0.000081,-0.000139,-0.009956,-0.003167,-0.004571, 0.039785,1,-0.000300, 0.000597,-0.000598,1, 0.075908, 0.129813, 9.805497,1,1
1777928450419,  1333.285,  1333.285,-0.008065,-0.013704,-0.995825,-0.000081,-0.000139,-0.009956,-0.003167,-0.004571, 0.039785,1,-0.000300, 0.000597,-0.000598,1, 0.075908, 0.129813, 9.805497,1,1
1777928450432,  1333.310,  1333.305,-0.007638,-0.013497,-0.995725,-0.000078,-0.000134,-0.009954,-0.004781,-0.000857, 0.045916,1, 0.000532, 0.000893,-0.000446,1, 0.075733, 0.129857, 9.805498,1,1
1777928450442,  1333.310,  1333.305,-0.007638,-0.013497,-0.995725,-0.000078,-0.000134,-0.009954,-0.004781,-0.000857, 0.045916,1, 0.000532, 0.000893,-0.000446,1, 0.075733, 0.129857, 9.805498,1,1
1777928450459,  1333.335,  1333.335,-0.007232,-0.013398,-0.995726,-0.000075,-0.000133,-0.009954, 0.004813,-0.001465, 0.040759,1, 0.000105,-0.000005,-0.001053,1, 0.075734, 0.129932, 9.805497,1,1
1777928450469,  1333.335,  1333.335,-0.007232,-0.013398,-0.995726,-0.000075,-0.000133,-0.009954, 0.004813,-0.001465, 0.040759,1, 0.000105,-0.000005,-0.001053,1, 0.075734, 0.129932, 9.805497,1,1
1777928450481,  1333.360,  1333.355,-0.007779,-0.013026,-0.996144,-0.000077,-0.000131,-0.009961,-0.004197, 0.000386, 0.039655,1, 0.000227, 0.000056,-0.000643,1, 0.075656, 0.129904, 9.805498,1,1
1777928450491,  1333.360,  1333.355,-0.007779,-0.013026,-0.996144,-0.000077,-0.000131,-0.009961,-0.004197, 0.000386, 0.039655,1, 0.000227, 0.000056,-0.000643,1, 0.075656, 0.129904, 9.805498,1,1
1777928450508,  1333.385,  1333.385,-0.007747,-0.013202,-0.995270,-0.000079,-0.000133,-0.009951,-0.000275, 0.000373, 0.045229,1,-0.000270, 0.000204,-0.000550,1, 0.075695, 0.129829, 9.805498,1,1
1777928450519,  1333.385,  1333.385,-0.007747,-0.013202,-0.995270,-0.000079,-0.000133,-0.009951,-0.000275, 0.000373, 0.045229,1,-0.000270, 0.000204,-0.000550,1, 0.075695, 0.129829, 9.805498,1,1
1777928450530,  1333.410,  1333.405,-0.007703,-0.013081,-0.995717,-0.000078,-0.000130,-0.009957,-0.000599, 0.001339, 0.042209,1, 0.000554, 0.000262,-0.000584,1, 0.075673, 0.129840, 9.805498,1,1
1777928450541,  1333.410,  1333.405,-0.007703,-0.013081,-0.995717,-0.000078,-0.000130,-0.009957,-0.000599, 0.001339, 0.042209,1, 0.000554, 0.000262,-0.000584,1, 0.075673, 0.129840, 9.805498,1,1
1777928450554,  1333.435,  1333.430,-0.008181,-0.012717,-0.995706,-0.000079,-0.000126,-0.009958,-0.004554, 0.005104, 0.040955,1, 0.000117,-0.001182,-0.000841,1, 0.075708, 0.129823, 9.805498,1,1
1777928450564,  1333.435,  1333.430,-0.008181,-0.012717,-0.995706,-0.000079,-0.000126,-0.009958,-0.004554, 0.005104, 0.040955,1, 0.000117,-0.001182,-0.000841,1, 0.075708, 0.129823, 9.805498,1,1
1777928450580,  1333.460,  1333.455,-0.007872,-0.013557,-0.996035,-0.000079,-0.000135,-0.009961,-0.000322, 0.000434, 0.041961,1,-0.000224,-0.000642,-0.000658,1, 0.075847, 0.129792, 9.805498,1,1
1777928450590,  1333.460,  1333.455,-0.007872,-0.013557,-0.996035,-0.000079,-0.000135,-0.009961,-0.000322, 0.000434, 0.041961,1,-0.000224,-0.000642,-0.000658,1, 0.075847, 0.129792, 9.805498,1,1
1777928450604,  1333.480,  1333.480,-0.008081,-0.013592,-0.995858,-0.000081,-0.000136,-0.009959,-0.003533,-0.003567, 0.039466,1,-0.000012, 0.000422,-0.000629,1, 0.075701, 0.129727, 9.805500,1,1
1777928450614,  1333.480,  1333.480,-0.008081,-0.013592,-0.995858,-0.000081,-0.000136,-0.009959,-0.003533,-0.003567, 0.039466,1,-0.000012, 0.000422,-0.000629,1, 0.075701, 0.129727, 9.805500,1,1
1777928450630,  1333.505,  1333.505,-0.007791,-0.013233,-0.995549,-0.000077,-0.000133,-0.009956,-0.000829,-0.000037, 0.042502,1, 0.000494, 0.000051,-0.000461,1, 0.075573, 0.129748, 9.805500,1,1
1777928450641,  1333.505,  1333.505,-0.007791,-0.013233,-0.995549,-0.000077,-0.000133,-0.009956,-0.000829,-0.000037, 0.042502,1, 0.000494, 0.000051,-0.000461,1, 0.075573, 0.129748, 9.805500,1,1
1777928450652,  1333.530,  1333.525,-0.007546,-0.013252,-0.995954,-0.000078,-0.000132,-0.009957,-0.002135,-0.002977, 0.040864,1,-0.000594, 0.000312,-0.000729,1, 0.075524, 0.129703, 9.805501,1,1
1777928450662,  1333.530,  1333.525,-0.007546,-0.013252,-0.995954,-0.000078,-0.000132,-0.009957,-0.002135,-0.002977, 0.040864,1,-0.000594, 0.000312,-0.000729,1, 0.075524, 0.129703, 9.805501,1,1
1777928450679,  1333.555,  1333.555,-0.007633,-0.012511,-0.995415,-0.000078,-0.000128,-0.009954, 0.000627, 0.007069, 0.043816,1, 0.000412, 0.000291,-0.000568,1, 0.075472, 0.129778, 9.805501,1,1
1777928450691,  1333.555,  1333.555,-0.007633,-0.012511,-0.995415,-0.000078,-0.000128,-0.009954, 0.000627, 0.007069, 0.043816,1, 0.000412, 0.000291,-0.000568,1, 0.075472, 0.129778, 9.805501,1,1
1777928450702,  1333.580,  1333.575,-0.007783,-0.012902,-0.996202,-0.000077,-0.000130,-0.009961,-0.003368, 0.001536, 0.043539,1, 0.000212,-0.000172,-0.000300,1, 0.075508, 0.129852, 9.805499,1,1
1777928450712,  1333.580,  1333.575,-0.007783,-0.012902,-0.996202,-0.000077,-0.000130,-0.009961,-0.003368, 0.001536, 0.043539,1, 0.000212,-0.000172,-0.000300,1, 0.075508, 0.129852, 9.805499,1,1
1777928450730,  1333.605,  1333.605,-0.008090,-0.013474,-0.995687,-0.000083,-0.000134,-0.009957,-0.003874,-0.002316, 0.041146,1,-0.000005, 0.000114,-0.000647,1, 0.075459, 0.129824, 9.805500,1,1
1777928450740,  1333.605,  1333.605,-0.008090,-0.013474,-0.995687,-0.000083,-0.000134,-0.009957,-0.003874,-0.002316, 0.041146,1,-0.000005, 0.000114,-0.000647,1, 0.075459, 0.129824, 9.805500,1,1
1777928450751,  1333.630,  1333.625,-0.007654,-0.013440,-0.995778,-0.000081,-0.000134,-0.009959,-0.002201,-0.004890, 0.039256,1, 0.000130,-0.000098,-0.000195,1, 0.075429, 0.129839, 9.805500,1,1
1777928450761,  1333.630,  1333.625,-0.007654,-0.013440,-0.995778,-0.000081,-0.000134,-0.009959,-0.002201,-0.004890, 0.039256,1, 0.000130,-0.000098,-0.000195,1, 0.075429, 0.129839, 9.805500,1,1
1777928450778,  1333.655,  1333.655,-0.008120,-0.013747,-0.995373,-0.000080,-0.000138,-0.009956,-0.004280,-0.004885, 0.044222,1, 0.000113, 0.000113,-0.000622,1, 0.075343, 0.129934, 9.805500,1,1
1777928450788,  1333.655,  1333.655,-0.008120,-0.013747,-0.995373,-0.000080,-0.000138,-0.009956,-0.004280,-0.004885, 0.044222,1, 0.000113, 0.000113,-0.000622,1, 0.075343, 0.129934, 9.805500,1,1
1777928450800,  1333.680,  1333.675,-0.007943,-0.012956,-0.996159,-0.000078,-0.000129,-0.009961,-0.002400, 0.000967, 0.044120,1, 0.000111,-0.000091,-0.000339,1, 0.075373, 0.129963, 9.805499,1,1
1777928450811,  1333.680,  1333.675,-0.007943,-0.012956,-0.996159,-0.000078,-0.000129,-0.009961,-0.002400, 0.000967, 0.044120,1, 0.000111,-0.000091,-0.000339,1, 0.075373, 0.129963, 9.805499,1,1
1777928450824,  1333.705,  1333.700,-0.007852,-0.012619,-0.995482,-0.000081,-0.000131,-0.009955,-0.001556, 0.006256, 0.043151,1,-0.000089, 0.000080,-0.000366,1, 0.075440, 0.130004, 9.805498,1,1
1777928450834,  1333.705,  1333.700,-0.007852,-0.012619,-0.995482,-0.000081,-0.000131,-0.009955,-0.001556, 0.006256, 0.043151,1,-0.000089, 0.000080,-0.000366,1, 0.075440, 0.130004, 9.805498,1,1
1777928450850,  1333.730,  1333.725,-0.007789,-0.013003,-0.995540,-0.000079,-0.000129,-0.009956,-0.000712, 0.000525, 0.036182,1,-0.000366,-0.000525,-0.000356,1, 0.075514, 0.129948, 9.805498,1,1
1777928450860,  1333.730,  1333.725,-0.007789,-0.013003,-0.995540,-0.000079,-0.000129,-0.009956,-0.000712, 0.000525, 0.036182,1,-0.000366,-0.000525,-0.000356,1, 0.075514, 0.129948, 9.805498,1,1
1777928450873,  1333.750,  1333.750,-0.008009,-0.012864,-0.995999,-0.000081,-0.000127,-0.009958,-0.003040, 0.003763, 0.038086,1,-0.000007,-0.000028,-0.000527,1, 0.075504, 0.129920, 9.805499,1,1
1777928450884,  1333.750,  1333.750,-0.008009,-0.012864,-0.995999,-0.000081,-0.000127,-0.009958,-0.003040, 0.003763, 0.038086,1,-0.000007,-0.000028,-0.000527,1, 0.075504, 0.129920, 9.805499,1,1
1777928450900,  1333.775,  1333.775,-0.007697,-0.013267,-0.995905,-0.000078,-0.000132,-0.009956, 0.000046,-0.000219, 0.039005,1,-0.000141,-0.000195,-0.000725,1, 0.075539, 0.129878, 9.805499,1,1
1777928450910,  1333.775,  1333.775,-0.007697,-0.013267,-0.995905,-0.000078,-0.000132,-0.009956, 0.000046,-0.000219, 0.039005,1,-0.000141,-0.000195,-0.000725,1, 0.075539, 0.129878, 9.805499,1,1
1777928450922,  1333.800,  1333.795,-0.007108,-0.013870,-0.995016,-0.000074,-0.000139,-0.009954, 0.000337,-0.008419, 0.044996,1,-0.000406,-0.000340,-0.000203,1, 0.075535, 0.129849, 9.805499,1,1
1777928450932,  1333.800,  1333.795,-0.007108,-0.013870,-0.995016,-0.000074,-0.000139,-0.009954, 0.000337,-0.008419, 0.044996,1,-0.000406,-0.000340,-0.000203,1, 0.075535, 0.129849, 9.805499,1,1
1777928450949,  1333.825,  1333.825,-0.007602,-0.013457,-0.995948,-0.000075,-0.000136,-0.009959, 0.001006,-0.002110, 0.038584,1, 0.000004,-0.000842,-0.000205,1, 0.075578, 0.129858, 9.805499,1,1
1777928450959,  1333.825,  1333.825,-0.007602,-0.013457,-0.995948,-0.000075,-0.000136,-0.009959, 0.001006,-0.002110, 0.038584,1, 0.000004,-0.000842,-0.000205,1, 0.075578, 0.129858, 9.805499,1,1
1777928450971,  1333.850,  1333.845,-0.008068,-0.012761,-0.995850,-0.000081,-0.000131,-0.009956,-0.004283, 0.009880, 0.044003,1, 0.000060, 0.000226,-0.000127,1, 0.075583, 0.129871, 9.805499,1,1
1777928450981,  1333.850,  1333.845,-0.008068,-0.012761,-0.995850,-0.000081,-0.000131,-0.009956,-0.004283, 0.009880, 0.044003,1, 0.000060, 0.000226,-0.000127,1, 0.075583, 0.129871, 9.805499,1,1
1777928450999,  1333.875,  1333.875,-0.007451,-0.012930,-0.995967,-0.000075,-0.000129,-0.009960, 0.002459, 0.003167, 0.038400,1,-0.000277, 0.000522,-0.000383,1, 0.075511, 0.129955, 9.805498,1,1
1777928451009,  1333.875,  1333.875,-0.007451,-0.012930,-0.995967,-0.000075,-0.000129,-0.009960, 0.002459, 0.003167, 0.038400,1,-0.000277, 0.000522,-0.000383,1, 0.075511, 0.129955, 9.805498,1,1
1777928451021,  1333.900,  1333.895,-0.008329,-0.013211,-0.995468,-0.000083,-0.000133,-0.009954,-0.003824, 0.001734, 0.040348,1,-0.000832, 0.000314,-0.000456,1, 0.075510, 0.129827, 9.805500,1,1
1777928451031,  1333.900,  1333.895,-0.008329,-0.013211,-0.995468,-0.000083,-0.000133,-0.009954,-0.003824, 0.001734, 0.040348,1,-0.000832, 0.000314,-0.000456,1, 0.075510, 0.129827, 9.805500,1,1
1777928451048,  1333.925,  1333.925,-0.008034,-0.013272,-0.995993,-0.000079,-0.000133,-0.009961,-0.003389,-0.000287, 0.038143,1,-0.000907, 0.000701,-0.000353,1, 0.075377, 0.129836, 9.805501,1,1
1777928451059,  1333.925,  1333.925,-0.008034,-0.013272,-0.995993,-0.000079,-0.000133,-0.009961,-0.003389,-0.000287, 0.038143,1,-0.000907, 0.000701,-0.000353,1, 0.075377, 0.129836, 9.805501,1,1
1777928451070,  1333.950,  1333.945,-0.007906,-0.013031,-0.995885,-0.000078,-0.000132,-0.009959,-0.002629,-0.006629, 0.039318,1, 0.000327, 0.000316,-0.000130,1, 0.075344, 0.129882, 9.805500,1,1
1777928451081,  1333.950,  1333.945,-0.007906,-0.013031,-0.995885,-0.000078,-0.000132,-0.009959,-0.002629,-0.006629, 0.039318,1, 0.000327, 0.000316,-0.000130,1, 0.075344, 0.129882, 9.805500,1,1
1777928451094,  1333.975,  1333.970,-0.007865,-0.013306,-0.994990,-0.000079,-0.000132,-0.009951,-0.001832,-0.000591, 0.047980,1,-0.000282,-0.000036,-0.000840,1, 0.075299, 0.129887, 9.805501,1,1
1777928451104,  1333.975,  1333.970,-0.007865,-0.013306,-0.994990,-0.000079,-0.000132,-0.009951,-0.001832,-0.000591, 0.047980,1,-0.000282,-0.000036,-0.000840,1, 0.075299, 0.129887, 9.805501,1,1
1777928451120,  1334.000,  1333.995,-0.007617,-0.013153,-0.995440,-0.000078,-0.000133,-0.009959,-0.001915,-0.006030, 0.039511,1, 0.000694, 0.000276,-0.000749,1, 0.075308, 0.129868, 9.805501,1,1
1777928451130,  1334.000,  1333.995,-0.007617,-0.013153,-0.995440,-0.000078,-0.000133,-0.009959,-0.001915,-0.006030, 0.039511,1, 0.000694, 0.000276,-0.000749,1, 0.075308, 0.129868, 9.805501,1,1
1777928451144,  1334.020,  1334.020,-0.007865,-0.013493,-0.995829,-0.000079,-0.000134,-0.009956,-0.001937,-0.002516, 0.039752,1,-0.000129, 0.000793,-0.000897,1, 0.075169, 0.129805, 9.805503,1,1
1777928451154,  1334.020,  1334.020,-0.007865,-0.013493,-0.995829,-0.000079,-0.000134,-0.009956,-0.001937,-0.002516, 0.039752,1,-0.000129, 0.000793,-0.000897,1, 0.075169, 0.129805, 9.805503,1,1
1777928451170,  1334.050,  1334.045,-0.007979,-0.012908,-0.996039,-0.000079,-0.000130,-0.009959,-0.004805,-0.002947, 0.038939,1,-0.000261, 0.000818, 0.000127,1, 0.075185, 0.129808, 9.805503,1,1
1777928451180,  1334.050,  1334.045,-0.007979,-0.012908,-0.996039,-0.000079,-0.000130,-0.009959,-0.004805,-0.002947, 0.038939,1,-0.000261, 0.000818, 0.000127,1, 0.075185, 0.129808, 9.805503,1,1
1777928451192,  1334.070,  1334.065,-0.008298,-0.012431,-0.995937,-0.000080,-0.000126,-0.009959,-0.002831, 0.005626, 0.045166,1, 0.000036, 0.000253,-0.000226,1, 0.075155, 0.129872, 9.805502,1,1
1777928451202,  1334.070,  1334.065,-0.008298,-0.012431,-0.995937,-0.000080,-0.000126,-0.009959,-0.002831, 0.005626, 0.045166,1, 0.000036, 0.000253,-0.000226,1, 0.075155, 0.129872, 9.805502,1,1
1777928451219,  1334.095,  1334.095,-0.008108,-0.012732,-0.995850,-0.000080,-0.000127,-0.009957,-0.004408, 0.005014, 0.039553,1, 0.000510, 0.000059,-0.000618,1, 0.075102, 0.129886, 9.805502,1,1
1777928451229,  1334.095,  1334.095,-0.008108,-0.012732,-0.995850,-0.000080,-0.000127,-0.009957,-0.004408, 0.005014, 0.039553,1, 0.000510, 0.000059,-0.000618,1, 0.075102, 0.129886, 9.805502,1,1
1777928451241,  1334.120,  1334.115,-0.008022,-0.013064,-0.995903,-0.000079,-0.000130,-0.009958,-0.002428, 0.004390, 0.046228,1,-0.000023, 0.000199,-0.000134,1, 0.075110, 0.129871, 9.805502,1,1
1777928451251,  1334.120,  1334.115,-0.008022,-0.013064,-0.995903,-0.000079,-0.000130,-0.009958,-0.002428, 0.004390, 0.046228,1,-0.000023, 0.000199,-0.000134,1, 0.075110, 0.129871, 9.805502,1,1
1777928451269,  1334.145,  1334.145,-0.007665,-0.013743,-0.996511,-0.000077,-0.000139,-0.009966,-0.000134,-0.005059, 0.033068,1,-0.000169, 0.000697, 0.000088,1, 0.075008, 0.129705, 9.805506,1,1
1777928451279,  1334.145,  1334.145,-0.007665,-0.013743,-0.996511,-0.000077,-0.000139,-0.009966,-0.000134,-0.005059, 0.033068,1,-0.000169, 0.000697, 0.000088,1, 0.075008, 0.129705, 9.805506,1,1
1777928451291,  1334.170,  1334.165,-0.008019,-0.013333,-0.995582,-0.000079,-0.000135,-0.009956,-0.001053,-0.001615, 0.036674,1,-0.000312, 0.000769,-0.000028,1, 0.074954, 0.129749, 9.805505,1,1
1777928451301,  1334.170,  1334.165,-0.008019,-0.013333,-0.995582,-0.000079,-0.000135,-0.009956,-0.001053,-0.001615, 0.036674,1,-0.000312, 0.000769,-0.000028,1, 0.074954, 0.129749, 9.805505,1,1
1777928451319,  1334.195,  1334.195,-0.007754,-0.013606,-0.995800,-0.000080,-0.000136,-0.009958,-0.001016,-0.003747, 0.040045,1,-0.000059, 0.000017,-0.000387,1, 0.075028, 0.129680, 9.805506,1,1
1777928451329,  1334.195,  1334.195,-0.007754,-0.013606,-0.995800,-0.000080,-0.000136,-0.009958,-0.001016,-0.003747, 0.040045,1,-0.000059, 0.000017,-0.000387,1, 0.075028, 0.129680, 9.805506,1,1
1777928451341,  1334.220,  1334.215,-0.007738,-0.013006,-0.995783,-0.000077,-0.000129,-0.009957,-0.001045, 0.004116, 0.040077,1, 0.000135,-0.000468,-0.000314,1, 0.075030, 0.129733, 9.805505,1,1
1777928451351,  1334.220,  1334.215,-0.007738,-0.013006,-0.995783,-0.000077,-0.000129,-0.009957,-0.001045, 0.004116, 0.040077,1, 0.000135,-0.000468,-0.000314,1, 0.075030, 0.129733, 9.805505,1,1
1777928451364,  1334.245,  1334.240,-0.008014,-0.012524,-0.995871,-0.000080,-0.000127,-0.009960,-0.003401, 0.006924, 0.039348,1,-0.000156,-0.000414,-0.000617,1, 0.075200, 0.129733, 9.805504,1,1
1777928451374,  1334.245,  1334.240,-0.008014,-0.012524,-0.995871,-0.000080,-0.000127,-0.009960,-0.003401, 0.006924, 0.039348,1,-0.000156,-0.000414,-0.000617,1, 0.075200, 0.129733, 9.805504,1,1
1777928451390,  1334.270,  1334.265,-0.008004,-0.013097,-0.995780,-0.000079,-0.000129,-0.009954, 0.002436, 0.006849, 0.038817,1,-0.000797, 0.000322,-0.000789,1, 0.075144, 0.129679, 9.805505,1,1
1777928451400,  1334.270,  1334.265,-0.008004,-0.013097,-0.995780,-0.000079,-0.000129,-0.009954, 0.002436, 0.006849, 0.038817,1,-0.000797, 0.000322,-0.000789,1, 0.075144, 0.129679, 9.805505,1,1
1777928451414,  1334.290,  1334.290,-0.008430,-0.013108,-0.995532,-0.000081,-0.000130,-0.009956,-0.007409, 0.001127, 0.042672,1,-0.000279,-0.000500,-0.000438,1, 0.075272, 0.129661, 9.805504,1,1
1777928451424,  1334.290,  1334.290,-0.008430,-0.013108,-0.995532,-0.000081,-0.000130,-0.009956,-0.007409, 0.001127, 0.042672,1,-0.000279,-0.000500,-0.000438,1, 0.075272, 0.129661, 9.805504,1,1
1777928451440,  1334.320,  1334.315,-0.008101,-0.014062,-0.995031,-0.000080,-0.000139,-0.009955,-0.001395,-0.003114, 0.041405,1, 0.001482,-0.000171,-0.000369,1, 0.075330, 0.129818, 9.805501,1,1
1777928451450,  1334.320,  1334.315,-0.008101,-0.014062,-0.995031,-0.000080,-0.000139,-0.009955,-0.001395,-0.003114, 0.041405,1, 0.001482,-0.000171,-0.000369,1, 0.075330, 0.129818, 9.805501,1,1
1777928451462,  1334.340,  1334.335,-0.007943,-0.014399,-0.995172,-0.000080,-0.000144,-0.009955, 0.001315,-0.010594, 0.045266,1,-0.000265,-0.000217,-0.000351,1, 0.075328, 0.129851, 9.805501,1,1
1777928451472,  1334.340,  1334.335,-0.007943,-0.014399,-0.995172,-0.000080,-0.000144,-0.009955, 0.001315,-0.010594, 0.045266,1,-0.000265,-0.000217,-0.000351,1, 0.075328, 0.129851, 9.805501,1,1
1777928451489,  1334.365,  1334.365,-0.008065,-0.014193,-0.995754,-0.000080,-0.000140,-0.009956,-0.003749,-0.009454, 0.040495,1,-0.000095,-0.000346,-0.000630,1, 0.075350, 0.129733, 9.805502,1,1
1777928451500,  1334.365,  1334.365,-0.008065,-0.014193,-0.995754,-0.000080,-0.000140,-0.009956,-0.003749,-0.009454, 0.040495,1,-0.000095,-0.000346,-0.000630,1, 0.075350, 0.129733, 9.805502,1,1
1777928451511,  1334.390,  1334.385,-0.008421,-0.012787,-0.996008,-0.000085,-0.000129,-0.009957,-0.000608, 0.001368, 0.037611,1,-0.000625,-0.000185,-0.000161,1, 0.075396, 0.129732, 9.805502,1,1
1777928451521,  1334.390,  1334.385,-0.008421,-0.012787,-0.996008,-0.000085,-0.000129,-0.009957,-0.000608, 0.001368, 0.037611,1,-0.000625,-0.000185,-0.000161,1, 0.075396, 0.129732, 9.805502,1,1
1777928451539,  1334.415,  1334.415,-0.008053,-0.012770,-0.996063,-0.000078,-0.000127,-0.009957,-0.003530, 0.004494, 0.037462,1, 0.000022,-0.000176,-0.000040,1, 0.075451, 0.129728, 9.805502,1,1
1777928451549,  1334.415,  1334.415,-0.008053,-0.012770,-0.996063,-0.000078,-0.000127,-0.009957,-0.003530, 0.004494, 0.037462,1, 0.000022,-0.000176,-0.000040,1, 0.075451, 0.129728, 9.805502,1,1
1777928451561,  1334.440,  1334.435,-0.007678,-0.013813,-0.995554,-0.000076,-0.000133,-0.009956,-0.002755, 0.002352, 0.038621,1, 0.000404, 0.000421,-0.000328,1, 0.075458, 0.129770, 9.805501,1,1
1777928451571,  1334.440,  1334.435,-0.007678,-0.013813,-0.995554,-0.000076,-0.000133,-0.009956,-0.002755, 0.002352, 0.038621,1, 0.000404, 0.000421,-0.000328,1, 0.075458, 0.129770, 9.805501,1,1
1777928451589,  1334.465,  1334.465,-0.007793,-0.013637,-0.995433,-0.000079,-0.000135,-0.009953,-0.001028,-0.003883, 0.043633,1, 0.000042, 0.000651,-0.000987,1, 0.075378, 0.129854, 9.805501,1,1
1777928451599,  1334.465,  1334.465,-0.007793,-0.013637,-0.995433,-0.000079,-0.000135,-0.009953,-0.001028,-0.003883, 0.043633,1, 0.000042, 0.000651,-0.000987,1, 0.075378, 0.129854, 9.805501,1,1
1777928451611,  1334.490,  1334.485,-0.008362,-0.013957,-0.996117,-0.000082,-0.000139,-0.009959, 0.001396,-0.002029, 0.040158,1,-0.000273,-0.000001,-0.000486,1, 0.075371, 0.129800, 9.805501,1,1
1777928451621,  1334.490,  1334.485,-0.008362,-0.013957,-0.996117,-0.000082,-0.000139,-0.009959, 0.001396,-0.002029, 0.040158,1,-0.000273,-0.000001,-0.000486,1, 0.075371, 0.129800, 9.805501,1,1
1777928451634,  1334.515,  1334.510,-0.007379,-0.013131,-0.995982,-0.000074,-0.000132,-0.009958, 0.002912, 0.001005, 0.038257,1,-0.000456,-0.000517,-0.000908,1, 0.075286, 0.129760, 9.805503,1,1
1777928451644,  1334.515,  1334.510,-0.007379,-0.013131,-0.995982,-0.000074,-0.000132,-0.009958, 0.002912, 0.001005, 0.038257,1,-0.000456,-0.000517,-0.000908,1, 0.075286, 0.129760, 9.805503,1,1
1777928451660,  1334.540,  1334.535,-0.007662,-0.012595,-0.995660,-0.000076,-0.000128,-0.009959,-0.007236, 0.000941, 0.045774,1,-0.000094,-0.000698,-0.000773,1, 0.075402, 0.129781, 9.805501,1,1
1777928451670,  1334.540,  1334.535,-0.007662,-0.012595,-0.995660,-0.000076,-0.000128,-0.009959,-0.007236, 0.000941, 0.045774,1,-0.000094,-0.000698,-0.000773,1, 0.075402, 0.129781, 9.805501,1,1
1777928451684,  1334.560,  1334.560,-0.008035,-0.013301,-0.995820,-0.000079,-0.000133,-0.009958,-0.003676,-0.000659, 0.039845,1, 0.000130, 0.000494,-0.000136,1, 0.075105, 0.129784, 9.805504,1,1
1777928451694,  1334.560,  1334.560,-0.008035,-0.013301,-0.995820,-0.000079,-0.000133,-0.009958,-0.003676,-0.000659, 0.039845,1, 0.000130, 0.000494,-0.000136,1, 0.075105, 0.129784, 9.805504,1,1
1777928451710,  1334.590,  1334.585,-0.008553,-0.013301,-0.995465,-0.000083,-0.000132,-0.009957,-0.005892, 0.004316, 0.041489,1, 0.000921, 0.000476,-0.000268,1, 0.075064, 0.129919, 9.805502,1,1
1777928451720,  1334.590,  1334.585,-0.008553,-0.013301,-0.995465,-0.000083,-0.000132,-0.009957,-0.005892, 0.004316, 0.041489,1, 0.000921, 0.000476,-0.000268,1, 0.075064, 0.129919, 9.805502,1,1
1777928451733,  1334.610,  1334.610,-0.008263,-0.013082,-0.995434,-0.000081,-0.000131,-0.009956,-0.006189, 0.001765, 0.043631,1, 0.000259, 0.000703,-0.000383,1, 0.074818, 0.130066, 9.805502,1,1
1777928451743,  1334.610,  1334.610,-0.008263,-0.013082,-0.995434,-0.000081,-0.000131,-0.009956,-0.006189, 0.001765, 0.043631,1, 0.000259, 0.000703,-0.000383,1, 0.074818, 0.130066, 9.805502,1,1
1777928451759,  1334.635,  1334.635,-0.008402,-0.013273,-0.995276,-0.000084,-0.000132,-0.009953,-0.007502,-0.000039, 0.045177,1, 0.000631, 0.000303,-0.000538,1, 0.074889, 0.130142, 9.805500,1,1
1777928451770,  1334.635,  1334.635,-0.008402,-0.013273,-0.995276,-0.000084,-0.000132,-0.009953,-0.007502,-0.000039, 0.045177,1, 0.000631, 0.000303,-0.000538,1, 0.074889, 0.130142, 9.805500,1,1
1777928451781,  1334.660,  1334.655,-0.007810,-0.012981,-0.995815,-0.000079,-0.000130,-0.009957, 0.002664, 0.002040, 0.033027,1,-0.000334,-0.000239,-0.000280,1, 0.074825, 0.130085, 9.805502,1,1
1777928451791,  1334.660,  1334.655,-0.007810,-0.012981,-0.995815,-0.000079,-0.000130,-0.009957, 0.002664, 0.002040, 0.033027,1,-0.000334,-0.000239,-0.000280,1, 0.074825, 0.130085, 9.805502,1,1
1777928451809,  1334.685,  1334.685,-0.007594,-0.012821,-0.995785,-0.000077,-0.000128,-0.009954, 0.000389, 0.004476, 0.040180,1, 0.000463, 0.000235,-0.000709,1, 0.074851, 0.130225, 9.805500,1,1
1777928451819,  1334.685,  1334.685,-0.007594,-0.012821,-0.995785,-0.000077,-0.000128,-0.009954, 0.000389, 0.004476, 0.040180,1, 0.000463, 0.000235,-0.000709,1, 0.074851, 0.130225, 9.805500,1,1
1777928451831,  1334.710,  1334.705,-0.007761,-0.013155,-0.995254,-0.000078,-0.000132,-0.009954,-0.001887,-0.002097, 0.041977,1,-0.000312,-0.000476,-0.000418,1, 0.074852, 0.130161, 9.805500,1,1
1777928451841,  1334.710,  1334.705,-0.007761,-0.013155,-0.995254,-0.000078,-0.000132,-0.009954,-0.001887,-0.002097, 0.041977,1,-0.000312,-0.000476,-0.000418,1, 0.074852, 0.130161, 9.805500,1,1
1777928451859,  1334.735,  1334.735,-0.007923,-0.013450,-0.995216,-0.000079,-0.000134,-0.009953,-0.002815,-0.001769, 0.045768,1, 0.000192,-0.000119,-0.000242,1, 0.074890, 0.130132, 9.805501,1,1
1777928451869,  1334.735,  1334.735,-0.007923,-0.013450,-0.995216,-0.000079,-0.000134,-0.009953,-0.002815,-0.001769, 0.045768,1, 0.000192,-0.000119,-0.000242,1, 0.074890, 0.130132, 9.805501,1,1
1777928451881,  1334.760,  1334.755,-0.007974,-0.013680,-0.995586,-0.000081,-0.000136,-0.009955,-0.002881, 0.000927, 0.037462,1,-0.000037, 0.000306,-0.000208,1, 0.074868, 0.130128, 9.805501,1,1
1777928451891,  1334.760,  1334.755,-0.007974,-0.013680,-0.995586,-0.000081,-0.000136,-0.009955,-0.002881, 0.000927, 0.037462,1,-0.000037, 0.000306,-0.000208,1, 0.074868, 0.130128, 9.805501,1,1
1777928451904,  1334.785,  1334.780,-0.007823,-0.013800,-0.995940,-0.000078,-0.000137,-0.009959,-0.001907,-0.005180, 0.038662,1,-0.000280, 0.000596,-0.000139,1, 0.074793, 0.130148, 9.805501,1,1
1777928451914,  1334.785,  1334.780,-0.007823,-0.013800,-0.995940,-0.000078,-0.000137,-0.009959,-0.001907,-0.005180, 0.038662,1,-0.000280, 0.000596,-0.000139,1, 0.074793, 0.130148, 9.805501,1,1
1777928451930,  1334.810,  1334.805,-0.007667,-0.013503,-0.995715,-0.000075,-0.000135,-0.009956,-0.001230, 0.001221, 0.043440,1, 0.000402, 0.000350, 0.000052,1, 0.074673, 0.130221, 9.805501,1,1
1777928451940,  1334.810,  1334.805,-0.007667,-0.013503,-0.995715,-0.000075,-0.000135,-0.009956,-0.001230, 0.001221, 0.043440,1, 0.000402, 0.000350, 0.000052,1, 0.074673, 0.130221, 9.805501,1,1
1777928451954,  1334.835,  1334.830,-0.007546,-0.013286,-0.995593,-0.000076,-0.000133,-0.009954, 0.000766, 0.000073, 0.042065,1, 0.000122,-0.000820,-0.000874,1, 0.074793, 0.130368, 9.805498,1,1
1777928451964,  1334.835,  1334.830,-0.007546,-0.013286,-0.995593,-0.000076,-0.000133,-0.009954, 0.000766, 0.000073, 0.042065,1, 0.000122,-0.000820,-0.000874,1, 0.074793, 0.130368, 9.805498,1,1
1777928451980,  1334.860,  1334.855,-0.007397,-0.012745,-0.995875,-0.000072,-0.000129,-0.009957,-0.003498, 0.005210, 0.040619,1, 0.000056, 0.000401, 0.000225,1, 0.074743, 0.130332, 9.805499,1,1
1777928451990,  1334.860,  1334.855,-0.007397,-0.012745,-0.995875,-0.000072,-0.000129,-0.009957,-0.003498, 0.005210, 0.040619,1, 0.000056, 0.000401, 0.000225,1, 0.074743, 0.130332, 9.805499,1,1
1777928452003,  1334.880,  1334.880,-0.007810,-0.013607,-0.995369,-0.000078,-0.000136,-0.009954,-0.001877,-0.003104, 0.044264,1,-0.000181, 0.000149,-0.000857,1, 0.074712, 0.130332, 9.805499,1,1
1777928452013,  1334.880,  1334.880,-0.007810,-0.013607,-0.995369,-0.000078,-0.000136,-0.009954,-0.001877,-0.003104, 0.044264,1,-0.000181, 0.000149,-0.000857,1, 0.074712, 0.130332, 9.805499,1,1
1777928452030,  1334.905,  1334.905,-0.007647,-0.013295,-0.995963,-0.000076,-0.000131,-0.009961,-0.000335,-0.000060, 0.038443,1, 0.000607, 0.000235,-0.001070,1, 0.074645, 0.130339, 9.805500,1,1
1777928452040,  1334.905,  1334.905,-0.007647,-0.013295,-0.995963,-0.000076,-0.000131,-0.009961,-0.000335,-0.000060, 0.038443,1, 0.000607, 0.000235,-0.001070,1, 0.074645, 0.130339, 9.805500,1,1
1777928452051,  1334.930,  1334.925,-0.007806,-0.013644,-0.995445,-0.000079,-0.000135,-0.009959,-0.001410,-0.007962, 0.047399,1,-0.000066,-0.000560,-0.000260,1, 0.074751, 0.130340, 9.805499,1,1
1777928452062,  1334.930,  1334.925,-0.007806,-0.013644,-0.995445,-0.000079,-0.000135,-0.009959,-0.001410,-0.007962, 0.047399,1,-0.000066,-0.000560,-0.000260,1, 0.074751, 0.130340, 9.805499,1,1
1777928452079,  1334.955,  1334.955,-0.007874,-0.013239,-0.995496,-0.000076,-0.000135,-0.009956,-0.002485, 0.000422, 0.043019,1,-0.000546, 0.000657,-0.000739,1, 0.074717, 0.130237, 9.805500,1,1
1777928452089,  1334.955,  1334.955,-0.007874,-0.013239,-0.995496,-0.000076,-0.000135,-0.009956,-0.002485, 0.000422, 0.043019,1,-0.000546, 0.000657,-0.000739,1, 0.074717, 0.130237, 9.805500,1,1
1777928452101,  1334.980,  1334.975,-0.008315,-0.012971,-0.995675,-0.000083,-0.000129,-0.009954,-0.004823,-0.001270, 0.044944,1,-0.000115,-0.000131, 0.000014,1, 0.074670, 0.130182, 9.805502,1,1
1777928452111,  1334.980,  1334.975,-0.008315,-0.012971,-0.995675,-0.000083,-0.000129,-0.009954,-0.004823,-0.001270, 0.044944,1,-0.000115,-0.000131, 0.000014,1, 0.074670, 0.130182, 9.805502,1,1
1777928452129,  1335.005,  1335.005,-0.008515,-0.013710,-0.996004,-0.000083,-0.000136,-0.009958,-0.008727,-0.004298, 0.038034,1, 0.000468,-0.000352,-0.001255,1, 0.074789, 0.130164, 9.805501,1,1
1777928452139,  1335.005,  1335.005,-0.008515,-0.013710,-0.996004,-0.000083,-0.000136,-0.009958,-0.008727,-0.004298, 0.038034,1, 0.000468,-0.000352,-0.001255,1, 0.074789, 0.130164, 9.805501,1,1
1777928452151,  1335.030,  1335.025,-0.008122,-0.013427,-0.995407,-0.000083,-0.000133,-0.009956, 0.000796, 0.001750, 0.044420,1,-0.000643, 0.000166,-0.000603,1, 0.074805, 0.130096, 9.805502,1,1
1777928452161,  1335.030,  1335.025,-0.008122,-0.013427,-0.995407,-0.000083,-0.000133,-0.009956, 0.000796, 0.001750, 0.044420,1,-0.000643, 0.000166,-0.000603,1, 0.074805, 0.130096, 9.805502,1,1
1777928452178,  1335.055,  1335.055,-0.007537,-0.013406,-0.995097,-0.000074,-0.000134,-0.009953, 0.000908,-0.001357, 0.046933,1,-0.000258, 0.000242,-0.000489,1, 0.074817, 0.130100, 9.805502,1,1
