Time,GPS_ts,fGPS_ts,scaledAccelX,scaledAccelY,scaledAccelZ,deltaVelX,deltaVelY,deltaVelZ,estLinearAccelX,estLinearAccelY,estLinearAccelZ,estLinearAccel:valid,estAngularRateX,estAngularRateY,estAngularRateZ,estAngularRate:valid,estGravityX,estGravityY,estGravityZ,estGravity:valid,flag
1778258418389,  3282.722,  3282.722, 0.035111,-0.027799,-0.995553, 0.000352,-0.000276,-0.009953, 0.015932, 0.015158, 0.033884,1, 0.001232, 0.000314, 0.000142,1,-0.328398, 0.287813, 9.796923,1,0
1778258418389,  3282.747,  3282.742, 0.034602,-0.027316,-0.995526, 0.000347,-0.000273,-0.009952, 0.016968, 0.025664, 0.038941,1, 0.001426,-0.000290,-0.000047,1,-0.328390, 0.287983, 9.796919,1,0
1778258418389,  3282.767,  3282.767, 0.035498,-0.026839,-0.994879, 0.000354,-0.000266,-0.009947, 0.019720, 0.025026, 0.040479,1, 0.000976,-0.000136,-0.000076,1,-0.328395, 0.288260, 9.796910,1,0
1778258418389,  3282.792,  3282.792, 0.035085,-0.027138,-0.995529, 0.000351,-0.000274,-0.009957, 0.015689, 0.022275, 0.034098,1, 0.000991, 0.000116,-0.000248,1,-0.328381, 0.288437, 9.796906,1,0
1778258418390,  3282.817,  3282.812, 0.034796,-0.027099,-0.995468, 0.000349,-0.000274,-0.009951, 0.017824, 0.024047, 0.034821,1, 0.002010, 0.000259,-0.000050,1,-0.328421, 0.288583, 9.796900,1,0
1778258418390,  3282.842,  3282.842, 0.035151,-0.027004,-0.995192, 0.000351,-0.000268,-0.009953, 0.016313, 0.023906, 0.037395,1, 0.000198,-0.000142,-0.000638,1,-0.328400, 0.288726, 9.796896,1,0
1778258418390,  3282.867,  3282.862, 0.034921,-0.027572,-0.995288, 0.000348,-0.000274,-0.009950, 0.014069, 0.023248, 0.041225,1, 0.000544,-0.000108,-0.000521,1,-0.328396, 0.288851, 9.796893,1,0
1778258418390,  3282.892,  3282.887, 0.034865,-0.026898,-0.994987, 0.000350,-0.000268,-0.009950, 0.012559, 0.024427, 0.039385,1, 0.000957,-0.000377,-0.000249,1,-0.329503, 0.288087, 9.796878,1,0
1778258418390,  3282.917,  3282.912, 0.035021,-0.027119,-0.995092, 0.000350,-0.000271,-0.009948, 0.013112, 0.030976, 0.035714,1, 0.000720,-0.000475,-0.000053,1,-0.329423, 0.288255, 9.796876,1,0
1778258418390,  3282.937,  3282.932, 0.035276,-0.027605,-0.995202, 0.000354,-0.000273,-0.009953, 0.014861, 0.019383, 0.033778,1, 0.001603, 0.000585,-0.000286,1,-0.329515, 0.288517, 9.796865,1,0
1778258418390,  3282.957,  3282.952, 0.035147,-0.027402,-0.995220, 0.000351,-0.000275,-0.009953, 0.010394, 0.019402, 0.039615,1, 0.001090, 0.000178,-0.000572,1,-0.329562, 0.288641, 9.796860,1,0
1778258418401,  3354.562,  3354.562, 0.035310,-0.026627,-0.995488, 0.000351,-0.000267,-0.009951,-0.051907, 0.021887, 0.068503,1,-0.001270,-0.000465,-0.000539,1, 0.295603,-0.025286, 9.802161,1,0
1778258418422,  3354.587,  3354.582,-0.035066, 0.005342,-0.997268,-0.000351, 0.000053,-0.009975,-0.057800, 0.023371, 0.033025,1,-0.001406,-0.000616,-0.001898,1, 0.295683,-0.025545, 9.802158,1,0
1778258418445,  3354.607,  3354.607,-0.033359, 0.005737,-0.994938,-0.000333, 0.000060,-0.009952,-0.031299, 0.030341, 0.045138,1,-0.002119,-0.001511,-0.000847,1, 0.295889,-0.025985, 9.802151,1,0
1778258418471,  3354.632,  3354.632,-0.032370, 0.002943,-0.995219,-0.000320, 0.000028,-0.009948,-0.021502, 0.002704, 0.042380,1,-0.000981,-0.000349,-0.000640,1, 0.295949,-0.026192, 9.802149,1,0
1778258418492,  3354.657,  3354.652,-0.031981, 0.006535,-0.995655,-0.000318, 0.000065,-0.009959,-0.015129, 0.019962, 0.039922,1,-0.001623, 0.000147,-0.000456,1, 0.295993,-0.026545, 9.802146,1,0
1778258418515,  3354.682,  3354.677,-0.031413, 0.006348,-0.997156,-0.000314, 0.000067,-0.009971,-0.012112, 0.035639, 0.023386,1, 0.000834,-0.000079,-0.000125,1, 0.295947,-0.026584, 9.802147,1,0
1778258418541,  3354.702,  3354.702,-0.029721, 0.003925,-0.994168,-0.000300, 0.000040,-0.009942, 0.005147, 0.011475, 0.052665,1, 0.000075,-0.000215,-0.000288,1, 0.296619,-0.027016, 9.802126,1,0
1778258418562,  3354.727,  3354.722,-0.031398, 0.004203,-0.996052,-0.000313, 0.000037,-0.009960,-0.002251,-0.001808, 0.047621,1,-0.000370, 0.000672, 0.000056,1, 0.296517,-0.027147, 9.802129,1,0
1778258418585,  3354.752,  3354.747,-0.032032, 0.007294,-0.996872,-0.000319, 0.000075,-0.009968,-0.017676, 0.044219, 0.026150,1,-0.000710, 0.000448,-0.000603,1, 0.296436,-0.027333, 9.802131,1,0
1778258418611,  3354.772,  3354.772,-0.031841, 0.005310,-0.994745,-0.000318, 0.000057,-0.009947,-0.015910, 0.024792, 0.047013,1, 0.000471,-0.000309, 0.000226,1, 0.296357,-0.027271, 9.802134,1,0
1778258418632,  3354.797,  3354.792,-0.033790, 0.003819,-0.995024,-0.000339, 0.000037,-0.009949,-0.029190, 0.000848, 0.056712,1, 0.001529, 0.000582, 0.000798,1, 0.296308,-0.027124, 9.802135,1,0
1778258418655,  3354.822,  3354.817,-0.033618, 0.005764,-0.995475,-0.000337, 0.000056,-0.009956,-0.033448, 0.029490, 0.039864,1,-0.000059,-0.000383, 0.000124,1, 0.296247,-0.027042, 9.802137,1,0
1778258418681,  3354.842,  3354.842,-0.031993, 0.006969,-0.996253,-0.000323, 0.000069,-0.009962,-0.017529, 0.041329, 0.032230,1, 0.000284, 0.000384, 0.000312,1, 0.296204,-0.027001, 9.802138,1,0
1778258418702,  3354.867,  3354.862,-0.030269, 0.003814,-0.994058,-0.000304, 0.000038,-0.009940,-0.004916, 0.021268, 0.038117,1, 0.000426,-0.000454, 0.000988,1, 0.296232,-0.026918, 9.802137,1,0
1778258418725,  3354.892,  3354.887,-0.030623, 0.003844,-0.993877,-0.000303, 0.000040,-0.009941,-0.000955, 0.010336, 0.052580,1, 0.000865, 0.000582,-0.000016,1, 0.296645,-0.027185, 9.802125,1,0
1778258418751,  3354.912,  3354.912,-0.032140, 0.006245,-0.995073,-0.000321, 0.000058,-0.009952,-0.018524, 0.034196, 0.043789,1, 0.000532,-0.000417, 0.000570,1, 0.296672,-0.027030, 9.802124,1,0
1778258418772,  3354.937,  3354.932,-0.031805, 0.004582,-0.996862,-0.000317, 0.000047,-0.009971,-0.017473, 0.027029, 0.023870,1,-0.000607,-0.000451, 0.000176,1, 0.296720,-0.026971, 9.802123,1,0
1778258418795,  3354.962,  3354.957,-0.031305, 0.004063,-0.992985,-0.000314, 0.000037,-0.009932,-0.010259, 0.013030, 0.064262,1, 0.000598, 0.000536, 0.000012,1, 0.296719,-0.026796, 9.802123,1,0
1778258418821,  3354.982,  3354.982,-0.031837, 0.005300,-0.994984,-0.000317, 0.000052,-0.009950,-0.015504, 0.025405, 0.044667,1, 0.000531,-0.001057, 0.000322,1, 0.296743,-0.026557, 9.802123,1,0
1778258418843,  3355.007,  3355.002,-0.029207, 0.005209,-0.995475,-0.000295, 0.000050,-0.009955,-0.001393, 0.027848, 0.036664,1, 0.000234,-0.001352, 0.000733,1, 0.296833,-0.026398, 9.802121,1,0
1778258418869,  3355.032,  3355.032,-0.028152, 0.004535,-0.995261,-0.000281, 0.000047,-0.009952, 0.020712, 0.018341, 0.041942,1, 0.000397,-0.000298, 0.000136,1, 0.296795,-0.026115, 9.802123,1,0
1778258418891,  3355.052,  3355.052,-0.028640, 0.005211,-0.995306,-0.000288, 0.000052,-0.009951, 0.015950, 0.025033, 0.041508,1, 0.000004, 0.000088, 0.000590,1, 0.296814,-0.026072, 9.802122,1,0
1778258418913,  3355.077,  3355.072,-0.031431, 0.004425,-0.996250,-0.000314, 0.000046,-0.009960,-0.008388, 0.032033, 0.043079,1, 0.001025, 0.000418, 0.000078,1, 0.296872,-0.025905, 9.802121,1,0
1778258418940,  3355.102,  3355.102,-0.030693, 0.004121,-0.995235,-0.000307, 0.000039,-0.009952,-0.003887, 0.014101, 0.042195,1, 0.000120,-0.000482,-0.000895,1, 0.297125,-0.026312, 9.802113,1,0
1778258418961,  3355.127,  3355.122,-0.029493, 0.004625,-0.994610,-0.000295, 0.000050,-0.009945, 0.005003, 0.034389, 0.053679,1, 0.001030,-0.000217,-0.000683,1, 0.297169,-0.026202, 9.802112,1,0
1778258418983,  3355.147,  3355.142,-0.029643, 0.005135,-0.997161,-0.000292, 0.000051,-0.009971, 0.001350, 0.013473, 0.035389,1, 0.000710, 0.000205, 0.000088,1, 0.297200,-0.026208, 9.802111,1,0
1778258419010,  3355.172,  3355.172,-0.029405, 0.005009,-0.994772,-0.000292, 0.000049,-0.009952, 0.008885, 0.022818, 0.046726,1,-0.000380, 0.000351,-0.000122,1, 0.297242,-0.026319, 9.802109,1,0
1778258419031,  3355.197,  3355.192,-0.030837, 0.005860,-0.994946,-0.000304, 0.000059,-0.009946, 0.002394, 0.027283, 0.049467,1, 0.000669, 0.000030, 0.000383,1, 0.297283,-0.026158, 9.802108,1,0
1778258419053,  3355.217,  3355.212,-0.031287, 0.005390,-0.997012,-0.000312, 0.000053,-0.009968,-0.006260, 0.027740, 0.031607,1, 0.000885,-0.000199,-0.000241,1, 0.297335,-0.026063, 9.802107,1,0
1778258419080,  3355.242,  3355.242,-0.031080, 0.003474,-0.995073,-0.000310, 0.000034,-0.009951,-0.007533, 0.008067, 0.043771,1,-0.000397, 0.001048,-0.000534,1, 0.297229,-0.026011, 9.802110,1,0
1778258419101,  3355.267,  3355.262,-0.032148, 0.006177,-0.996013,-0.000320, 0.000060,-0.009959,-0.011688, 0.028355, 0.037964,1,-0.000418, 0.000326,-0.000328,1, 0.297230,-0.026014, 9.802110,1,0
1778258419123,  3355.287,  3355.282,-0.032713, 0.005905,-0.995221,-0.000327, 0.000060,-0.009957,-0.018868, 0.032906, 0.029805,1, 0.000558, 0.000215,-0.000995,1, 0.297243,-0.026007, 9.802110,1,0
1778258419150,  3355.312,  3355.312,-0.031567, 0.005064,-0.993297,-0.000316, 0.000050,-0.009935,-0.012240, 0.023494, 0.061189,1, 0.001843, 0.000227, 0.000139,1, 0.297323,-0.026109, 9.802107,1,0
1778258419171,  3355.337,  3355.332,-0.032187, 0.005151,-0.996095,-0.000323, 0.000052,-0.009959,-0.017922, 0.023852, 0.034615,1, 0.001510, 0.000744, 0.001136,1, 0.297203,-0.025758, 9.802112,1,0
1778258419193,  3355.357,  3355.352,-0.031995, 0.003814,-0.995669,-0.000318, 0.000038,-0.009955,-0.018578, 0.014010, 0.038270,1, 0.001043, 0.000466, 0.000081,1, 0.297086,-0.025530, 9.802115,1,0
1778258419220,  3355.382,  3355.382,-0.032448, 0.003920,-0.995057,-0.000324, 0.000038,-0.009950,-0.021322, 0.013064, 0.043946,1, 0.000421, 0.000147, 0.000617,1, 0.296876,-0.025365, 9.802122,1,0
1778258419241,  3355.407,  3355.402,-0.031212, 0.007253,-0.996420,-0.000315, 0.000074,-0.009961,-0.015348, 0.046839, 0.037228,1, 0.000813, 0.000004, 0.000784,1, 0.296848,-0.025274, 9.802124,1,0
1778258419263,  3355.427,  3355.422,-0.029810, 0.004044,-0.995352,-0.000297, 0.000039,-0.009957,-0.003167, 0.027760, 0.030199,1, 0.001515, 0.000309, 0.000239,1, 0.296833,-0.025052, 9.802125,1,0
1778258419290,  3355.452,  3355.452,-0.027955, 0.002793,-0.994330,-0.000281, 0.000030,-0.009939, 0.022728, 0.002491, 0.051081,1, 0.000104,-0.000376,-0.000369,1, 0.296886,-0.024893, 9.802123,1,0
1778258419312,  3355.477,  3355.472,-0.026368, 0.005759,-0.995761,-0.000264, 0.000056,-0.009960, 0.033568, 0.017747, 0.037573,1,-0.000960,-0.000298,-0.001096,1, 0.297003,-0.025013, 9.802119,1,0
1778258419333,  3355.497,  3355.492,-0.026005, 0.007786,-0.996601,-0.000260, 0.000078,-0.009966, 0.042712, 0.042886, 0.029648,1,-0.000949, 0.000095,-0.000216,1, 0.297256,-0.025552, 9.802111,1,0
1778258419360,  3355.522,  3355.522,-0.027666, 0.004523,-0.995861,-0.000272, 0.000048,-0.009960, 0.025948, 0.018870, 0.036052,1, 0.000328, 0.000114, 0.000596,1, 0.297252,-0.025475, 9.802111,1,0
1778258419382,  3355.547,  3355.542,-0.030389, 0.003166,-0.993672,-0.000302, 0.000032,-0.009936, 0.006722,-0.000455, 0.052934,1,-0.000057, 0.001500,-0.000712,1, 0.297041,-0.025339, 9.802117,1,0
1778258419404,  3355.567,  3355.567,-0.031756, 0.006196,-0.995282,-0.000316, 0.000059,-0.009953,-0.014480, 0.035300, 0.041741,1,-0.001024, 0.000555,-0.000570,1, 0.296922,-0.025493, 9.802121,1,0
1778258419430,  3355.592,  3355.592,-0.032679, 0.007005,-0.996308,-0.000327, 0.000068,-0.009965,-0.023547, 0.043108, 0.031680,1, 0.000305,-0.000079,-0.000492,1, 0.296929,-0.025582, 9.802120,1,0
1778258419452,  3355.617,  3355.612,-0.033456, 0.003072,-0.994048,-0.000331, 0.000030,-0.009944,-0.025295, 0.007653, 0.043396,1, 0.000083, 0.001123,-0.000345,1, 0.296776,-0.025472, 9.802125,1,0
1778258419474,  3355.637,  3355.637,-0.033755, 0.004200,-0.994770,-0.000336, 0.000042,-0.009949,-0.034321, 0.015658, 0.046768,1,-0.000777, 0.000029,-0.000603,1, 0.296704,-0.025551, 9.802127,1,0
1778258419500,  3355.662,  3355.662,-0.033904, 0.005198,-0.994444,-0.000337, 0.000054,-0.009947,-0.035818, 0.025311, 0.049959,1,-0.000324, 0.000759,-0.000603,1, 0.296648,-0.025678, 9.802129,1,0
1778258419522,  3355.687,  3355.682,-0.033710, 0.005200,-0.996606,-0.000336, 0.000050,-0.009969,-0.031859, 0.026172, 0.031761,1, 0.000134, 0.000210, 0.000516,1, 0.296608,-0.025700, 9.802130,1,0
1778258419545,  3355.707,  3355.707,-0.035080, 0.004842,-0.994495,-0.000351, 0.000050,-0.009948,-0.047393, 0.021565, 0.049464,1, 0.000630, 0.000455, 0.000473,1, 0.296610,-0.025896, 9.802129,1,0
1778258419570,  3355.732,  3355.732,-0.033786, 0.004527,-0.995157,-0.000340, 0.000045,-0.009953,-0.034735, 0.018499, 0.042975,1, 0.000326, 0.000349,-0.000062,1, 0.296582,-0.025884, 9.802130,1,0
1778258419592,  3355.757,  3355.752,-0.030047, 0.005520,-0.994970,-0.000303, 0.000053,-0.009949,-0.011122, 0.020052, 0.049495,1, 0.001551, 0.000327, 0.000526,1, 0.296532,-0.025692, 9.802132,1,0
1778258419615,  3355.777,  3355.777,-0.029202, 0.005270,-0.996213,-0.000291, 0.000053,-0.009965, 0.010304, 0.026215, 0.032620,1, 0.001053,-0.000824, 0.000748,1, 0.296702,-0.025434, 9.802128,1,0
1778258419640,  3355.802,  3355.802,-0.029050, 0.003907,-0.994673,-0.000291, 0.000039,-0.009947, 0.011829, 0.013056, 0.047714,1, 0.000503,-0.000112, 0.000558,1, 0.296712,-0.025240, 9.802128,1,0
1778258419662,  3355.827,  3355.822,-0.029277, 0.005218,-0.994561,-0.000291, 0.000053,-0.009947, 0.009761, 0.021547, 0.050297,1, 0.001417, 0.000143, 0.000181,1, 0.296542,-0.024959, 9.802134,1,0
1778258419685,  3355.847,  3355.847,-0.030548, 0.005268,-0.995965,-0.000306, 0.000052,-0.009959,-0.003090, 0.026916, 0.035056,1, 0.000520, 0.000298, 0.000265,1, 0.296476,-0.024724, 9.802136,1,0
1778258419710,  3355.872,  3355.872,-0.030132, 0.003058,-0.995769,-0.000300, 0.000033,-0.009957, 0.000986, 0.005330, 0.036979,1, 0.000461, 0.000438, 0.000310,1, 0.296469,-0.024649, 9.802136,1,0
1778258419732,  3355.897,  3355.892,-0.029068, 0.006437,-0.995982,-0.000293, 0.000064,-0.009957, 0.003475, 0.031031, 0.038457,1, 0.000722, 0.000502, 0.000234,1, 0.296596,-0.024869, 9.802133,1,0
1778258419755,  3355.922,  3355.917,-0.029034, 0.004467,-0.995439,-0.000291, 0.000048,-0.009957, 0.011805, 0.019076, 0.040208,1, 0.000716, 0.000245, 0.000296,1, 0.296522,-0.024711, 9.802135,1,0
1778258419781,  3355.942,  3355.942,-0.028836, 0.003129,-0.994168,-0.000289, 0.000032,-0.009941, 0.013695, 0.006093, 0.052676,1, 0.000874, 0.000266, 0.000967,1, 0.296472,-0.024566, 9.802136,1,0
1778258419802,  3355.967,  3355.962,-0.030369, 0.005044,-0.994991,-0.000301, 0.000048,-0.009948, 0.003930, 0.013712, 0.041806,1, 0.000710,-0.000199, 0.000665,1, 0.296457,-0.024367, 9.802137,1,0
1778258419825,  3355.992,  3355.987,-0.031343, 0.006217,-0.995452,-0.000313, 0.000060,-0.009952,-0.010855, 0.036888, 0.040089,1, 0.001239,-0.000111,-0.000111,1, 0.296521,-0.024040, 9.802136,1,0
1778258419851,  3356.012,  3356.012,-0.031255, 0.004485,-0.996637,-0.000310, 0.000045,-0.009968,-0.010011, 0.020108, 0.028466,1, 0.001534, 0.000297,-0.000032,1, 0.296491,-0.023823, 9.802138,1,0
1778258419872,  3356.037,  3356.032,-0.028518, 0.003176,-0.994630,-0.000286, 0.000030,-0.009947, 0.011757, 0.003443, 0.042770,1, 0.000265,-0.000079,-0.000531,1, 0.296480,-0.023856, 9.802138,1,0
1778258419895,  3356.062,  3356.057,-0.028077, 0.005795,-0.995474,-0.000283, 0.000058,-0.009952, 0.021242, 0.032942, 0.039875,1,-0.000032, 0.000142,-0.000555,1, 0.296575,-0.023886, 9.802135,1,0
1778258419921,  3356.082,  3356.082,-0.028901, 0.005111,-0.996026,-0.000287, 0.000052,-0.009959, 0.013112, 0.026311, 0.034459,1, 0.000695, 0.000323, 0.000705,1, 0.296524,-0.023791, 9.802137,1,0
1778258419942,  3356.107,  3356.102,-0.030089, 0.003149,-0.995516,-0.000303, 0.000030,-0.009956, 0.003648, 0.007548, 0.049975,1,-0.000327,-0.000268, 0.000025,1, 0.296425,-0.024098, 9.802139,1,0
1778258419965,  3356.132,  3356.127,-0.032080, 0.004788,-0.996839,-0.000317, 0.000048,-0.009966,-0.018233, 0.022754, 0.026491,1,-0.000569,-0.000355,-0.000343,1, 0.296376,-0.024217, 9.802140,1,0
1778258419991,  3356.152,  3356.152,-0.031067, 0.006233,-0.994232,-0.000313, 0.000065,-0.009944,-0.008312, 0.036842, 0.052055,1,-0.000489, 0.000412,-0.001392,1, 0.296340,-0.024293, 9.802141,1,0
1778258420012,  3356.177,  3356.172,-0.031246, 0.003805,-0.994824,-0.000315, 0.000039,-0.009946,-0.014608, 0.012319, 0.051012,1,-0.000081,-0.000137, 0.000115,1, 0.296383,-0.024216, 9.802140,1,0
1778258420035,  3356.202,  3356.197,-0.031831, 0.003896,-0.996639,-0.000319, 0.000039,-0.009964,-0.015786, 0.014045, 0.028451,1,-0.000374,-0.000411,-0.000280,1, 0.296385,-0.024171, 9.802140,1,0
1778258420061,  3356.222,  3356.222,-0.031484, 0.005026,-0.996886,-0.000313, 0.000049,-0.009968,-0.012379, 0.025066, 0.026025,1,-0.000579,-0.000039,-0.001018,1, 0.296372,-0.024244, 9.802140,1,0
1778258420082,  3356.247,  3356.242,-0.029043, 0.004163,-0.994186,-0.000291, 0.000044,-0.009939, 0.002804, 0.024421, 0.047939,1,-0.001059, 0.000139,-0.000358,1, 0.296332,-0.024387, 9.802141,1,0
1778258420109,  3356.272,  3356.272,-0.029765, 0.004545,-0.995882,-0.000301, 0.000044,-0.009956, 0.004494, 0.020242, 0.035877,1, 0.000959, 0.000066, 0.000054,1, 0.296388,-0.024303, 9.802140,1,0
1778258420131,  3356.292,  3356.292,-0.029927, 0.004033,-0.996879,-0.000301, 0.000041,-0.009965, 0.003022, 0.014891, 0.026089,1,-0.000113, 0.000461,-0.000950,1, 0.296515,-0.024723, 9.802135,1,0
1778258420152,  3356.317,  3356.312,-0.030274, 0.003844,-0.994294,-0.000301, 0.000037,-0.009943, 0.001273, 0.031249, 0.049202,1,-0.000019, 0.000070,-0.000556,1, 0.296517,-0.024680, 9.802135,1,0
1778258420179,  3356.342,  3356.342,-0.030343, 0.004213,-0.995872,-0.000300, 0.000042,-0.009954,-0.001055, 0.016585, 0.035964,1,-0.000421, 0.000455,-0.000708,1, 0.296494,-0.024742, 9.802135,1,0
1778258420201,  3356.367,  3356.362,-0.030881, 0.005446,-0.996700,-0.000310, 0.000056,-0.009969,-0.004656, 0.021124, 0.027825,1,-0.000254,-0.000327,-0.001257,1, 0.296523,-0.024785, 9.802135,1,0
1778258420223,  3356.387,  3356.382,-0.030797, 0.004137,-0.994702,-0.000307, 0.000049,-0.009945,-0.008790, 0.026248, 0.038453,1,-0.000177, 0.000460,-0.000320,1, 0.296422,-0.024821, 9.802137,1,0
1778258420250,  3356.412,  3356.412,-0.029387, 0.004423,-0.994623,-0.000297, 0.000044,-0.009948, 0.008216, 0.018473, 0.048215,1,-0.000708, 0.000482,-0.000043,1, 0.296387,-0.024920, 9.802138,1,0
1778258420271,  3356.437,  3356.432,-0.029387, 0.004686,-0.996868,-0.000293, 0.000047,-0.009967, 0.009001, 0.025069, 0.031181,1,-0.000043,-0.000685,-0.000301,1, 0.296474,-0.025003, 9.802135,1,0
1778258420293,  3356.457,  3356.452,-0.030753, 0.005313,-0.995632,-0.000308, 0.000051,-0.009959, 0.001165, 0.021141, 0.036665,1, 0.000558,-0.000060,-0.000818,1, 0.296446,-0.025008, 9.802136,1,0
1778258420320,  3356.482,  3356.482,-0.031234, 0.004558,-0.994536,-0.000315, 0.000047,-0.009945,-0.009819, 0.019629, 0.049065,1,-0.000206, 0.000028,-0.000673,1, 0.296485,-0.025072, 9.802135,1,0
1778258420341,  3356.507,  3356.502,-0.030768, 0.003924,-0.994702,-0.000310, 0.000041,-0.009944,-0.009677, 0.014143, 0.053892,1,-0.000707,-0.000436,-0.001304,1, 0.296689,-0.025498, 9.802128,1,0
1778258420363,  3356.527,  3356.522,-0.030348, 0.006130,-0.997457,-0.000303, 0.000059,-0.009972, 0.001280, 0.023288, 0.035497,1,-0.000993,-0.000236,-0.000906,1, 0.296761,-0.025721, 9.802125,1,0
1778258420390,  3356.552,  3356.552,-0.029789, 0.004080,-0.997062,-0.000298, 0.000043,-0.009972, 0.004720, 0.014263, 0.024285,1,-0.000590,-0.000310,-0.000787,1, 0.296860,-0.025764, 9.802122,1,0
1778258420411,  3356.577,  3356.572,-0.030553, 0.003865,-0.993699,-0.000303, 0.000039,-0.009936, 0.008444, 0.007793, 0.055410,1,-0.000286, 0.000496,-0.001283,1, 0.296854,-0.025764, 9.802122,1,0
1778258420433,  3356.597,  3356.592,-0.032630, 0.005188,-0.996294,-0.000325, 0.000051,-0.009959,-0.008880, 0.015795, 0.047682,1,-0.000919, 0.000495,-0.000588,1, 0.296777,-0.025919, 9.802124,1,0
1778258420460,  3356.622,  3356.622,-0.034370, 0.006502,-0.996030,-0.000344, 0.000063,-0.009964,-0.040220, 0.037659, 0.034404,1,-0.000462, 0.000125,-0.001117,1, 0.296828,-0.026121, 9.802122,1,0
1778258420481,  3356.647,  3356.642,-0.033303, 0.004222,-0.994746,-0.000331, 0.000044,-0.009946,-0.040276, 0.019179, 0.048845,1, 0.000085, 0.000367,-0.000633,1, 0.296815,-0.026011, 9.802123,1,0
1778258420503,  3356.667,  3356.662,-0.030367, 0.003909,-0.995392,-0.000306, 0.000038,-0.009956,-0.019906, 0.003857, 0.041602,1,-0.000537,-0.000186, 0.000397,1, 0.296817,-0.025989, 9.802123,1,0
1778258420530,  3356.692,  3356.692,-0.029096, 0.004318,-0.996397,-0.000295, 0.000044,-0.009961, 0.011842, 0.015967, 0.030789,1,-0.000336, 0.000225,-0.000290,1, 0.297214,-0.026448, 9.802110,1,0
1778258420551,  3356.717,  3356.712,-0.027909, 0.005138,-0.993875,-0.000278, 0.000052,-0.009942, 0.025249, 0.028193, 0.039413,1, 0.000049, 0.000475,-0.000370,1, 0.297103,-0.026390, 9.802113,1,0
1778258420573,  3356.737,  3356.732,-0.029413, 0.004322,-0.995719,-0.000291, 0.000043,-0.009953, 0.021931, 0.024151, 0.051292,1,-0.000256,-0.000047, 0.000786,1, 0.297159,-0.026486, 9.802111,1,0
1778258420600,  3356.762,  3356.762,-0.030000, 0.004764,-0.994835,-0.000299, 0.000047,-0.009948,-0.007317, 0.015653, 0.039958,1, 0.000120,-0.000356,-0.000213,1, 0.297158,-0.026250, 9.802112,1,0
1778258420621,  3356.787,  3356.782,-0.031390, 0.006019,-0.995924,-0.000312, 0.000059,-0.009958,-0.007392, 0.027568, 0.039286,1,-0.000177,-0.000065,-0.000513,1, 0.297193,-0.026279, 9.802111,1,0
1778258420644,  3356.807,  3356.807,-0.030734, 0.004644,-0.995038,-0.000308, 0.000048,-0.009950,-0.004134, 0.019272, 0.044118,1, 0.000757, 0.000087,-0.000076,1, 0.297266,-0.026250, 9.802109,1,0
1778258420670,  3356.832,  3356.832,-0.031418, 0.003414,-0.996255,-0.000312, 0.000033,-0.009964,-0.010899, 0.007278, 0.032185,1, 0.000320, 0.000756, 0.000264,1, 0.297183,-0.026188, 9.802111,1,0
1778258420692,  3356.857,  3356.852,-0.030953, 0.005632,-0.994147,-0.000311, 0.000056,-0.009941,-0.012085, 0.029281, 0.046151,1,-0.000170, 0.000086,-0.000868,1, 0.297234,-0.026265, 9.802110,1,0
1778258420714,  3356.877,  3356.877,-0.031450, 0.005199,-0.995206,-0.000312, 0.000051,-0.009952,-0.011149, 0.024655, 0.042466,1,-0.000103,-0.000554, 0.000180,1, 0.297290,-0.026332, 9.802108,1,0
1778258420740,  3356.902,  3356.902,-0.030856, 0.004606,-0.996284,-0.000309, 0.000049,-0.009963,-0.005268, 0.018483, 0.031894,1, 0.000491, 0.000567,-0.000222,1, 0.297311,-0.026672, 9.802106,1,0
1778258420762,  3356.927,  3356.922,-0.031463, 0.004173,-0.995991,-0.000315, 0.000038,-0.009959,-0.003923, 0.007374, 0.030678,1,-0.000428, 0.000599,-0.000447,1, 0.297212,-0.026741, 9.802109,1,0
1778258420784,  3356.947,  3356.947,-0.031251, 0.005273,-0.994018,-0.000312, 0.000051,-0.009944,-0.009273, 0.025039, 0.054123,1, 0.000377, 0.000515,-0.000354,1, 0.297181,-0.026662, 9.802110,1,0
1778258420810,  3356.972,  3356.972,-0.031028, 0.005162,-0.994886,-0.000309, 0.000049,-0.009947,-0.007193, 0.024059, 0.045613,1, 0.000848, 0.000729,-0.000079,1, 0.297060,-0.026534, 9.802114,1,0
1778258420832,  3356.997,  3356.992,-0.030213, 0.004640,-0.996771,-0.000302, 0.000044,-0.009968,-0.003724, 0.022629, 0.038837,1, 0.001164, 0.000347,-0.000422,1, 0.297034,-0.026458, 9.802114,1,1
1778258420854,  3357.017,  3357.017,-0.030392, 0.004618,-0.995624,-0.000302, 0.000046,-0.009957,-0.001055, 0.018898, 0.038377,1, 0.000662, 0.001599,-0.000616,1, 0.296944,-0.026367, 9.802117,1,1
1778258420880,  3357.042,  3357.042,-0.030609, 0.005201,-0.995712,-0.000306, 0.000054,-0.009959,-0.003214, 0.024724, 0.037522,1, 0.000360, 0.000003,-0.000111,1, 0.296956,-0.026272, 9.802117,1,1
1778258420902,  3357.067,  3357.062,-0.030087, 0.003398,-0.994668,-0.000301, 0.000033,-0.009948, 0.000372, 0.013503, 0.043434,1, 0.000872,-0.000381,-0.000301,1, 0.297008,-0.026129, 9.802116,1,1
1778258420925,  3357.087,  3357.087,-0.031031, 0.003908,-0.994798,-0.000307, 0.000037,-0.009947,-0.007169, 0.011932, 0.046471,1, 0.000424, 0.000652,-0.000287,1, 0.297134,-0.026432, 9.802112,1,1
1778258420950,  3357.112,  3357.112,-0.032156, 0.005739,-0.995482,-0.000319, 0.000054,-0.009953,-0.018280, 0.029884, 0.039774,1,-0.000032, 0.000164,-0.000798,1, 0.297061,-0.026397, 9.802114,1,1
1778258420972,  3357.137,  3357.132,-0.031799, 0.005536,-0.994926,-0.000318, 0.000057,-0.009950,-0.014338, 0.025079, 0.044295,1, 0.001126,-0.000669,-0.000309,1, 0.297158,-0.026241, 9.802112,1,1
1778258420995,  3357.162,  3357.157,-0.031000, 0.003728,-0.997407,-0.000308, 0.000039,-0.009970,-0.006820, 0.010361, 0.020889,1,-0.000155, 0.000248,-0.000327,1, 0.297177,-0.026208, 9.802112,1,1
1778258421020,  3357.182,  3357.182,-0.030939, 0.004715,-0.996157,-0.000310, 0.000040,-0.009965,-0.006324, 0.019950, 0.033146,1,-0.001345, 0.000571,-0.000351,1, 0.297067,-0.026334, 9.802114,1,1
1778258421042,  3357.207,  3357.202,-0.031418, 0.005270,-0.994532,-0.000315, 0.000054,-0.009945,-0.005503, 0.027962, 0.049849,1, 0.000058, 0.000079,-0.000421,1, 0.297015,-0.026269, 9.802115,1,1
1778258421065,  3357.232,  3357.227,-0.032552, 0.004801,-0.995490,-0.000324, 0.000048,-0.009953,-0.022302, 0.020903, 0.039697,1, 0.000723, 0.000065, 0.000218,1, 0.296918,-0.026158, 9.802119,1,1
1778258421090,  3357.252,  3357.252,-0.031473, 0.004434,-0.994981,-0.000316, 0.000046,-0.009955,-0.011706, 0.017470, 0.044686,1, 0.000635,-0.000008,-0.000148,1, 0.296942,-0.025994, 9.802119,1,1
1778258421112,  3357.277,  3357.272,-0.031222, 0.004388,-0.995030,-0.000313, 0.000040,-0.009948,-0.006049, 0.005795, 0.053884,1, 0.000741,-0.000261, 0.000094,1, 0.296926,-0.025984, 9.802119,1,1
1778258421135,  3357.302,  3357.297,-0.029925, 0.006341,-0.995250,-0.000301, 0.000062,-0.009953, 0.003732, 0.035940, 0.042043,1, 0.001185,-0.000412, 0.000182,1, 0.297209,-0.026212, 9.802110,1,1
1778258421161,  3357.322,  3357.322,-0.029942, 0.005033,-0.995574,-0.000297, 0.000053,-0.009955, 0.003586, 0.023344, 0.038861,1, 0.001696, 0.000043, 0.000014,1, 0.297211,-0.025960, 9.802111,1,1
1778258421182,  3357.347,  3357.342,-0.030157, 0.004132,-0.995368,-0.000302, 0.000038,-0.009954, 0.001312, 0.004951, 0.038335,1, 0.001033, 0.000726, 0.000238,1, 0.297198,-0.025791, 9.802112,1,1
1778258421205,  3357.372,  3357.367,-0.031119, 0.004887,-0.994274,-0.000315, 0.000049,-0.009946,-0.008096, 0.022251, 0.051614,1, 0.000515,-0.000320,-0.000069,1, 0.297087,-0.025659, 9.802115,1,1
1778258421231,  3357.392,  3357.392,-0.031100, 0.005640,-0.994319,-0.000314, 0.000052,-0.009944,-0.008410, 0.035598, 0.050826,1, 0.001351, 0.000669, 0.000251,1, 0.297033,-0.025541, 9.802117,1,1
1778258421252,  3357.417,  3357.412,-0.031235, 0.003718,-0.996179,-0.000313, 0.000035,-0.009961,-0.008926, 0.017104, 0.040781,1, 0.000832, 0.000082, 0.000370,1, 0.297035,-0.025420, 9.802117,1,1
1778258421275,  3357.442,  3357.437,-0.029839, 0.003902,-0.996698,-0.000302, 0.000036,-0.009967, 0.004355, 0.012783, 0.027845,1, 0.000055, 0.000094,-0.000160,1, 0.296975,-0.025477, 9.802119,1,1
1778258421301,  3357.462,  3357.462,-0.030145, 0.005464,-0.995504,-0.000303, 0.000054,-0.009955, 0.001290, 0.028107, 0.039564,1,-0.000301, 0.000562,-0.000245,1, 0.296890,-0.025489, 9.802122,1,1
1778258421322,  3357.487,  3357.482,-0.030604, 0.004022,-0.995453,-0.000309, 0.000040,-0.009953,-0.003064, 0.015813, 0.048596,1, 0.000778,-0.000430,-0.000272,1, 0.296910,-0.025379, 9.802121,1,1
1778258421349,  3357.512,  3357.512,-0.030644, 0.004237,-0.996191,-0.000308, 0.000040,-0.009963,-0.003625, 0.015877, 0.032821,1, 0.000206, 0.000637, 0.000651,1, 0.296875,-0.025664, 9.802122,1,1
1778258421371,  3357.532,  3357.532,-0.031279, 0.004550,-0.994761,-0.000312, 0.000046,-0.009948,-0.009894, 0.019050, 0.046851,1, 0.001243, 0.000735,-0.000363,1, 0.296825,-0.025534, 9.802124,1,1
1778258421392,  3357.557,  3357.552,-0.032892, 0.006005,-0.995866,-0.000327, 0.000060,-0.009962,-0.020990, 0.027051, 0.037224,1, 0.000260,-0.000170,-0.000015,1, 0.296790,-0.025464, 9.802125,1,1
1778258421419,  3357.582,  3357.582,-0.033158, 0.004176,-0.995974,-0.000330, 0.000041,-0.009958,-0.028481, 0.015672, 0.034958,1, 0.000170, 0.000176, 0.000265,1, 0.296684,-0.025271, 9.802129,1,1
1778258421441,  3357.607,  3357.602,-0.032228, 0.003647,-0.994844,-0.000327, 0.000036,-0.009954,-0.024133, 0.008590, 0.053293,1, 0.000633,-0.000346, 0.000023,1, 0.296677,-0.025044, 9.802130,1,1
1778258421462,  3357.627,  3357.622,-0.031784, 0.006164,-0.994448,-0.000318, 0.000062,-0.009945,-0.023826, 0.020049, 0.046176,1,-0.000049, 0.000198,-0.000026,1, 0.296701,-0.025024, 9.802129,1,1
1778258421489,  3357.652,  3357.652,-0.030384, 0.005964,-0.995121,-0.000302, 0.000061,-0.009957,-0.001248, 0.033667, 0.043322,1, 0.001490, 0.000383, 0.000231,1, 0.296701,-0.024777, 9.802130,1,1
1778258421511,  3357.677,  3357.672,-0.029079, 0.002733,-0.997176,-0.000296, 0.000007,-0.009998, 0.025895,-0.013075, 0.018424,1, 0.000011,-0.000826, 0.000724,1, 0.296672,-0.024609, 9.802131,1,1
1778258421532,  3357.697,  3357.692,-0.028978, 0.004088,-0.994146,-0.000288, 0.000044,-0.009929, 0.008896, 0.000677, 0.038584,1, 0.000253, 0.000616, 0.000298,1, 0.297019,-0.024611, 9.802120,1,1
1778258421559,  3357.722,  3357.722,-0.029002, 0.004575,-0.995794,-0.000288, 0.000043,-0.009959, 0.012580, 0.020339, 0.036716,1, 0.000619,-0.001316,-0.000171,1, 0.297036,-0.024505, 9.802120,1,1
1778258421581,  3357.747,  3357.742,-0.028535, 0.005596,-0.994440,-0.000284, 0.000053,-0.009942, 0.013683, 0.024155, 0.056382,1, 0.000249, 0.000543,-0.000017,1, 0.296977,-0.024532, 9.802121,1,1
1778258421603,  3357.767,  3357.762,-0.028767, 0.003406,-0.995481,-0.000286, 0.000040,-0.009955, 0.009284, 0.022058, 0.045343,1,-0.000233,-0.000962,-0.000281,1, 0.297051,-0.024464, 9.802119,1,1
1778258421630,  3357.792,  3357.792,-0.028304, 0.004648,-0.996961,-0.000284, 0.000046,-0.009971, 0.019387, 0.021120, 0.025279,1,-0.000385,-0.000276,-0.000209,1, 0.296966,-0.024470, 9.802122,1,1
1778258421651,  3357.817,  3357.812,-0.029059, 0.004595,-0.995076,-0.000287, 0.000047,-0.009953, 0.010830, 0.019709, 0.035095,1,-0.000179,-0.000501, 0.000129,1, 0.297021,-0.024440, 9.802120,1,1
1778258421673,  3357.837,  3357.832,-0.030263, 0.004183,-0.994468,-0.000304, 0.000038,-0.009945, 0.004665, 0.012219, 0.046357,1,-0.000655, 0.000954,-0.000673,1, 0.296921,-0.024489, 9.802123,1,1
1778258421700,  3357.862,  3357.862,-0.032466, 0.004064,-0.994819,-0.000324, 0.000043,-0.009947,-0.021543, 0.015268, 0.046283,1,-0.000401,-0.000245, 0.000071,1, 0.296843,-0.024599, 9.802126,1,1
1778258421721,  3357.887,  3357.882,-0.036316, 0.004548,-0.997034,-0.000363, 0.000041,-0.009973,-0.051058, 0.023121, 0.030261,1,-0.000180, 0.000929,-0.000487,1, 0.296774,-0.024561, 9.802128,1,1
1778258421743,  3357.907,  3357.902,-0.033979, 0.005276,-0.994181,-0.000342, 0.000053,-0.009943,-0.051704, 0.022970, 0.040564,1, 0.000234, 0.000403,-0.000459,1, 0.296566,-0.024923, 9.802133,1,1
1778258421770,  3357.932,  3357.932,-0.031792, 0.003868,-0.994235,-0.000319, 0.000044,-0.009942,-0.015306, 0.013009, 0.052024,1, 0.000347,-0.000250, 0.000321,1, 0.296478,-0.024910, 9.802135,1,1
1778258421791,  3357.957,  3357.952,-0.029522, 0.005520,-0.995285,-0.000297, 0.000052,-0.009954,-0.004062, 0.010683, 0.031565,1, 0.000985,-0.000199, 0.000915,1, 0.296580,-0.024847, 9.802133,1,1
1778258421813,  3357.977,  3357.972,-0.028316, 0.005206,-0.995057,-0.000285, 0.000055,-0.009952, 0.009482, 0.028495, 0.044172,1,-0.000029,-0.000501,-0.000015,1, 0.296645,-0.024809, 9.802131,1,1
1778258421840,  3358.002,  3358.002,-0.029475, 0.005827,-0.995920,-0.000296, 0.000040,-0.009974, 0.007500, 0.032485, 0.035497,1,-0.001316, 0.001407,-0.000216,1, 0.296508,-0.024696, 9.802135,1,1
1778258421861,  3358.027,  3358.022,-0.028043, 0.005649,-0.990397,-0.000284, 0.000050,-0.009919, 0.019988, 0.018677, 0.037459,1, 0.001316,-0.000893, 0.000275,1, 0.296631,-0.024577, 9.802132,1,1
1778258421884,  3358.047,  3358.047,-0.029595, 0.002832,-0.995883,-0.000298, 0.000034,-0.009962, 0.006460, 0.003012, 0.035854,1,-0.001275, 0.000563,-0.000866,1, 0.296674,-0.024801, 9.802130,1,1
1778258421910,  3358.072,  3358.072,-0.030663, 0.004925,-0.995442,-0.000308, 0.000044,-0.009955,-0.003900, 0.023467, 0.040179,1, 0.000099,-0.000306, 0.000082,1, 0.296808,-0.024831, 9.802126,1,1
1778258421931,  3358.097,  3358.092,-0.030683, 0.003714,-0.995298,-0.000308, 0.000042,-0.009956,-0.002856, 0.030903, 0.059276,1, 0.000038,-0.000773,-0.000511,1, 0.296886,-0.025209, 9.802122,1,1
1778258421954,  3358.117,  3358.117,-0.030781, 0.002356,-0.996786,-0.000307, 0.000026,-0.009966,-0.004964,-0.002021, 0.026995,1, 0.000204, 0.000171,-0.000499,1, 0.296893,-0.025119, 9.802123,1,1
1778258421980,  3358.142,  3358.142,-0.031081, 0.006620,-0.995841,-0.000309, 0.000067,-0.009958,-0.007888, 0.039775, 0.036254,1,-0.000978, 0.000532,-0.001561,1, 0.296899,-0.025170, 9.802122,1,1
1778258422001,  3358.167,  3358.162,-0.031812, 0.002241,-0.993620,-0.000314, 0.000023,-0.009934,-0.007848, 0.004706, 0.045613,1,-0.000268, 0.000128,-0.000874,1, 0.297015,-0.025213, 9.802118,1,1
1778258422024,  3358.187,  3358.187,-0.032422, 0.005873,-0.995560,-0.000321, 0.000054,-0.009953,-0.020943, 0.032455, 0.039011,1,-0.000288, 0.000669, 0.000320,1, 0.296987,-0.025152, 9.802119,1,1
1778258422050,  3358.212,  3358.212,-0.031857, 0.004206,-0.996461,-0.000323, 0.000045,-0.009965,-0.015421, 0.016087, 0.030175,1,-0.000266,-0.000092,-0.001143,1, 0.296989,-0.025164, 9.802119,1,1
1778258422072,  3358.237,  3358.232,-0.029241, 0.004877,-0.994425,-0.000291, 0.000053,-0.009940, 0.003874, 0.015570, 0.055262,1, 0.000563, 0.000247, 0.000063,1, 0.297015,-0.025152, 9.802119,1,1
1778258422094,  3358.257,  3358.257,-0.027925, 0.003364,-0.995953,-0.000279, 0.000040,-0.009962, 0.023275, 0.007842, 0.035156,1, 0.000294, 0.000347,-0.000781,1, 0.297114,-0.025136, 9.802115,1,1
1778258422120,  3358.282,  3358.282,-0.027013, 0.003285,-0.994791,-0.000272, 0.000034,-0.009945, 0.032263, 0.007032, 0.046547,1,-0.001507, 0.000385,-0.000726,1, 0.297161,-0.025230, 9.802114,1,1
1778258422142,  3358.307,  3358.302,-0.027321, 0.006074,-0.995739,-0.000271, 0.000061,-0.009956, 0.032818, 0.028337, 0.046906,1,-0.000950, 0.000092,-0.000633,1, 0.297249,-0.025726, 9.802111,1,1
1778258422164,  3358.327,  3358.327,-0.028695, 0.005486,-0.994860,-0.000283, 0.000060,-0.009950, 0.016062, 0.027977, 0.045857,1,-0.000139,-0.000642,-0.001498,1, 0.297480,-0.025829, 9.802103,1,1
1778258422190,  3358.352,  3358.352,-0.030029, 0.001940,-0.995530,-0.000299, 0.000019,-0.009949, 0.003048,-0.006972, 0.039288,1,-0.001772,-0.000277,-0.000603,1, 0.297545,-0.026052, 9.802100,1,1
1778258422212,  3358.377,  3358.372,-0.032473, 0.005087,-0.995888,-0.000324, 0.000049,-0.009961,-0.006682, 0.005056, 0.033043,1,-0.000820,-0.000126,-0.000912,1, 0.297562,-0.026348, 9.802099,1,1
1778258422235,  3358.402,  3358.397,-0.035021, 0.005632,-0.995630,-0.000348, 0.000061,-0.009956,-0.045954, 0.028683, 0.038308,1,-0.000478,-0.000057,-0.000835,1, 0.297488,-0.026564, 9.802101,1,1
1778258422260,  3358.422,  3358.422,-0.036603, 0.003586,-0.994045,-0.000367, 0.000040,-0.009943,-0.061553, 0.008650, 0.053850,1, 0.000030, 0.000036, 0.000317,1, 0.297401,-0.026515, 9.802104,1,1
1778258422282,  3358.447,  3358.442,-0.035310, 0.003332,-0.995070,-0.000356, 0.000034,-0.009950,-0.057240, 0.002345, 0.052222,1,-0.000120,-0.000108, 0.000066,1, 0.297361,-0.026493, 9.802105,1,1
1778258422305,  3358.472,  3358.467,-0.032279, 0.005069,-0.996244,-0.000325, 0.000050,-0.009960,-0.019008, 0.023092, 0.032282,1,-0.000127,-0.001010,-0.000051,1, 0.297568,-0.026620, 9.802098,1,1
1778258422330,  3358.492,  3358.492,-0.029760, 0.004340,-0.995452,-0.000298, 0.000043,-0.009955, 0.006049, 0.015706, 0.040034,1, 0.001064,-0.000257,-0.000252,1, 0.297941,-0.026870, 9.802086,1,1
1778258422352,  3358.517,  3358.512,-0.029653, 0.004887,-0.996240,-0.000294, 0.000051,-0.009961, 0.005291, 0.007595, 0.032923,1, 0.000527, 0.000260, 0.000492,1, 0.297980,-0.026798, 9.802085,1,1
1778258422375,  3358.542,  3358.537,-0.030357, 0.004855,-0.994945,-0.000301, 0.000053,-0.009950, 0.000251, 0.020821, 0.045011,1, 0.000656,-0.000149,-0.000414,1, 0.297956,-0.026766, 9.802086,1,1
1778258422400,  3358.562,  3358.562,-0.029724, 0.004201,-0.995478,-0.000297, 0.000042,-0.009957, 0.006439, 0.014492, 0.039786,1,-0.000377, 0.000178,-0.000207,1, 0.297925,-0.026719, 9.802087,1,1
1778258422422,  3358.587,  3358.582,-0.028920, 0.003811,-0.995161,-0.000291, 0.000039,-0.009952, 0.007890, 0.017827, 0.049052,1,-0.000904, 0.000246,-0.000147,1, 0.297882,-0.026687, 9.802089,1,1
1778258422445,  3358.612,  3358.607,-0.029102, 0.003686,-0.995425,-0.000292, 0.000036,-0.009953, 0.012573, 0.009563, 0.040299,1, 0.000780,-0.000180, 0.000032,1, 0.297973,-0.026558, 9.802086,1,1
1778258422470,  3358.632,  3358.632,-0.029257, 0.005655,-0.996459,-0.000292, 0.000054,-0.009962, 0.011034, 0.028886, 0.030162,1,-0.000423, 0.000807,-0.000139,1, 0.297918,-0.026581, 9.802088,1,1
1778258422492,  3358.657,  3358.652,-0.031498, 0.003429,-0.993658,-0.000315, 0.000034,-0.009940,-0.008081, 0.015655, 0.039337,1, 0.000607, 0.000945,-0.000072,1, 0.297818,-0.026500, 9.802091,1,1
1778258422515,  3358.682,  3358.677,-0.033251, 0.003784,-0.995366,-0.000331, 0.000036,-0.009950,-0.028252, 0.010772, 0.040880,1,-0.000112,-0.000774,-0.000717,1, 0.297854,-0.026343, 9.802091,1,1
1778258422541,  3358.702,  3358.702,-0.032661, 0.005589,-0.996219,-0.000328, 0.000054,-0.009960,-0.022450, 0.028126, 0.032513,1,-0.000346,-0.000103,-0.000520,1, 0.297853,-0.026697, 9.802090,1,1
1778258422562,  3358.727,  3358.722,-0.031561, 0.003763,-0.995832,-0.000317, 0.000041,-0.009955,-0.017266, 0.026868, 0.038107,1,-0.000804, 0.000127,-0.000103,1, 0.297786,-0.026803, 9.802091,1,1
1778258422589,  3358.752,  3358.752,-0.030044, 0.003048,-0.993793,-0.000304, 0.000028,-0.009938, 0.003301, 0.002938, 0.056308,1,-0.000309,-0.000163,-0.000319,1, 0.297937,-0.026965, 9.802086,1,1
1778258422611,  3358.772,  3358.772,-0.029977, 0.004270,-0.995193,-0.000298, 0.000040,-0.009949, 0.003994, 0.014959, 0.042572,1,-0.000944,-0.000188,-0.000205,1, 0.297976,-0.026947, 9.802085,1,1
1778258422632,  3358.797,  3358.792,-0.031226, 0.005926,-0.998022,-0.000308, 0.000059,-0.009984,-0.002336, 0.035157, 0.008161,1, 0.000760, 0.000873, 0.000403,1, 0.297856,-0.026910, 9.802089,1,1
1778258422659,  3358.822,  3358.822,-0.030998, 0.004031,-0.992744,-0.000311, 0.000040,-0.009929,-0.006272, 0.012833, 0.066596,1, 0.001419, 0.001086,-0.000385,1, 0.297677,-0.026653, 9.802094,1,1
1778258422681,  3358.847,  3358.842,-0.030776, 0.005408,-0.995344,-0.000308, 0.000052,-0.009950,-0.005907, 0.007528, 0.059096,1,-0.000930,-0.000097, 0.000097,1, 0.297745,-0.026648, 9.802093,1,1
1778258422702,  3358.867,  3358.862,-0.029235, 0.006386,-0.997435,-0.000293, 0.000062,-0.009975, 0.003126, 0.035720, 0.026482,1,-0.000932, 0.000059,-0.000212,1, 0.297789,-0.026779, 9.802091,1,1
1778258422729,  3358.892,  3358.892,-0.027991, 0.004264,-0.995579,-0.000282, 0.000042,-0.009959, 0.023419, 0.014683, 0.038794,1, 0.000743, 0.000551, 0.000162,1, 0.297925,-0.027165, 9.802086,1,1
1778258422751,  3358.917,  3358.912,-0.029206, 0.003219,-0.994596,-0.000290, 0.000035,-0.009943, 0.018321, 0.013102, 0.055217,1, 0.000636, 0.000026,-0.000496,1, 0.297804,-0.027047, 9.802090,1,1
1778258422772,  3358.937,  3358.932,-0.030854, 0.003374,-0.995223,-0.000309, 0.000032,-0.009955, 0.003729, 0.008097, 0.047611,1, 0.000120,-0.000220,-0.000021,1, 0.297765,-0.027023, 9.802091,1,1
1778258422799,  3358.962,  3358.962,-0.032859, 0.005381,-0.995206,-0.000328, 0.000049,-0.009952,-0.024481, 0.025823, 0.042458,1,-0.000090, 0.000631, 0.000041,1, 0.297734,-0.026950, 9.802093,1,1
1778258422821,  3358.987,  3358.982,-0.033091, 0.004635,-0.994862,-0.000332, 0.000047,-0.009949,-0.033910, 0.036101, 0.040804,1,-0.000142,-0.000446,-0.000560,1, 0.297773,-0.026850, 9.802092,1,1
1778258422842,  3359.007,  3359.002,-0.031240, 0.002243,-0.994425,-0.000312, 0.000023,-0.009944,-0.013809, 0.002947, 0.054673,1, 0.000150,-0.000735,-0.000716,1, 0.297814,-0.026799, 9.802091,1,1
1778258422869,  3359.032,  3359.032,-0.029374, 0.005108,-0.996116,-0.000298, 0.000049,-0.009958, 0.009968, 0.023265, 0.033526,1,-0.000439,-0.000358, 0.000334,1, 0.298038,-0.026843, 9.802083,1,1
1778258422891,  3359.057,  3359.052,-0.029428, 0.004852,-0.995375,-0.000297, 0.000049,-0.009955, 0.012149, 0.032984, 0.032322,1, 0.000173,-0.000787,-0.000611,1, 0.298059,-0.026835, 9.802083,1,1
1778258422912,  3359.077,  3359.072,-0.031166, 0.003621,-0.996126,-0.000307, 0.000040,-0.009956, 0.006798, 0.012374, 0.039247,1, 0.000521, 0.000235,-0.000166,1, 0.298096,-0.026774, 9.802082,1,1
1778258422939,  3359.102,  3359.102,-0.032178, 0.005283,-0.993422,-0.000322, 0.000052,-0.009939,-0.017464, 0.024832, 0.059937,1,-0.000179, 0.000060,-0.000339,1, 0.298095,-0.026981, 9.802081,1,1
1778258422961,  3359.127,  3359.122,-0.030472, 0.004331,-0.995595,-0.000306, 0.000047,-0.009951,-0.012693, 0.019639, 0.046532,1,-0.000046,-0.001071,-0.001179,1, 0.298157,-0.027028, 9.802079,1,1
1778258422983,  3359.147,  3359.142,-0.029023, 0.005084,-0.996454,-0.000291, 0.000048,-0.009971, 0.012090, 0.014237, 0.032664,1,-0.001619,-0.001085,-0.000627,1, 0.298316,-0.027273, 9.802073,1,1
1778258423010,  3359.172,  3359.172,-0.029704, 0.005490,-0.993852,-0.000295, 0.000053,-0.009940, 0.007038, 0.026384, 0.055711,1,-0.000038, 0.000670,-0.000513,1, 0.298318,-0.027459, 9.802073,1,1
1778258423031,  3359.197,  3359.192,-0.030644, 0.004343,-0.996952,-0.000306, 0.000042,-0.009973,-0.000931, 0.016087, 0.046215,1,-0.000601,-0.001319,-0.001162,1, 0.298484,-0.027459, 9.802068,1,1
1778258423053,  3359.217,  3359.212,-0.030524, 0.003845,-0.995147,-0.000308, 0.000040,-0.009954,-0.002053, 0.005939, 0.029668,1,-0.001375,-0.000563,-0.001003,1, 0.298671,-0.027626, 9.802062,1,1
1778258423080,  3359.242,  3359.242,-0.031814, 0.003720,-0.994057,-0.000313, 0.000036,-0.009938,-0.013215, 0.008585, 0.053685,1,-0.001585,-0.001004,-0.000555,1, 0.298804,-0.027942, 9.802057,1,1
1778258423101,  3359.267,  3359.262,-0.035038, 0.004372,-0.997527,-0.000351, 0.000041,-0.009975,-0.037140, 0.005665, 0.036508,1,-0.000145,-0.000248,-0.000260,1, 0.298879,-0.028094, 9.802054,1,1
1778258423124,  3359.287,  3359.287,-0.035393, 0.005870,-0.995780,-0.000352, 0.000060,-0.009959,-0.048079, 0.029348, 0.036787,1, 0.002263, 0.000085, 0.000417,1, 0.299032,-0.028190, 9.802050,1,1
1778258423150,  3359.312,  3359.312,-0.036199, 0.003752,-0.994723,-0.000360, 0.000039,-0.009949,-0.055998, 0.008983, 0.047148,1, 0.002589, 0.000468, 0.001481,1, 0.298974,-0.027729, 9.802052,1,1
1778258423171,  3359.337,  3359.332,-0.034929, 0.004495,-0.995599,-0.000350, 0.000049,-0.009958,-0.060011, 0.018035, 0.025721,1, 0.001747, 0.000287, 0.000855,1, 0.298880,-0.027281, 9.802056,1,1
1778258423194,  3359.357,  3359.357,-0.030327, 0.001933,-0.994057,-0.000309, 0.000013,-0.009942, 0.001570,-0.008250, 0.053679,1,-0.000933,-0.000384,-0.000417,1, 0.298990,-0.027240, 9.802053,1,1
1778258423220,  3359.382,  3359.382,-0.028266, 0.004949,-0.993518,-0.000281, 0.000050,-0.009936, 0.021885, 0.021404, 0.058963,1, 0.001193,-0.001106, 0.000575,1, 0.299117,-0.027090, 9.802050,1,1
1778258423241,  3359.407,  3359.402,-0.030773, 0.006816,-0.998547,-0.000308, 0.000065,-0.009985, 0.010399, 0.039318, 0.018180,1, 0.000626,-0.000050, 0.000350,1, 0.299189,-0.026825, 9.802049,1,1
1778258423264,  3359.427,  3359.427,-0.028886, 0.003439,-0.994884,-0.000293, 0.000055,-0.009921, 0.015972, 0.007174, 0.045564,1, 0.000403,-0.000439,-0.001711,1, 0.299265,-0.026534, 9.802047,1,1
1778258423290,  3359.452,  3359.452,-0.027509, 0.002234,-0.994769,-0.000284, 0.000002,-0.009969, 0.029585,-0.004962, 0.046689,1,-0.000861,-0.001138,-0.001086,1, 0.299394,-0.026897, 9.802042,1,1
1778258423311,  3359.477,  3359.472,-0.022556, 0.006331,-0.998401,-0.000226, 0.000064,-0.009974, 0.060160, 0.028355, 0.067147,1,-0.002229,-0.002408,-0.001545,1, 0.299800,-0.027422, 9.802028,1,1
1778258423334,  3359.497,  3359.497,-0.020857, 0.005236,-0.996100,-0.000209, 0.000052,-0.009969, 0.095767, 0.023054, 0.033608,1,-0.000469,-0.001248,-0.000625,1, 0.300349,-0.028309, 9.802009,1,1
1778258423360,  3359.522,  3359.522,-0.025090, 0.009320,-0.996786,-0.000247, 0.000089,-0.009964, 0.054256, 0.063223, 0.026883,1, 0.001059, 0.000200, 0.001397,1, 0.300298,-0.028147, 9.802011,1,1
1778258423381,  3359.547,  3359.542,-0.030331,-0.000182,-0.996191,-0.000301, 0.000002,-0.009965, 0.009259,-0.000109, 0.000825,1,-0.000185, 0.000244,-0.000287,1, 0.300201,-0.028036, 9.802014,1,1
1778258423404,  3359.567,  3359.567,-0.032197, 0.003544,-0.992163,-0.000321, 0.000026,-0.009921,-0.015620, 0.006647, 0.072218,1,-0.000467, 0.000575, 0.000146,1, 0.300105,-0.028121, 9.802016,1,1
1778258423430,  3359.592,  3359.592,-0.035739, 0.007257,-0.995898,-0.000358, 0.000075,-0.009958,-0.050494, 0.043013, 0.035598,1, 0.000855, 0.000457, 0.000540,1, 0.299973,-0.028132, 9.802021,1,1
1778258423452,  3359.617,  3359.612,-0.037954, 0.004549,-0.997645,-0.000382, 0.000044,-0.009978,-0.065031, 0.034460, 0.014111,1, 0.001105, 0.000330, 0.000136,1, 0.299779,-0.027754, 9.802028,1,1
1778258423474,  3359.642,  3359.637,-0.035102, 0.001195,-0.991947,-0.000353, 0.000012,-0.009924,-0.044524,-0.016029, 0.074355,1,-0.001716, 0.000632,-0.002140,1, 0.299692,-0.027801, 9.802031,1,1
1778258423500,  3359.662,  3359.662,-0.033324, 0.001353,-0.995138,-0.000333, 0.000009,-0.009947,-0.027089,-0.015055, 0.043054,1,-0.003059, 0.000235,-0.001747,1, 0.299699,-0.028414, 9.802029,1,1
1778258423522,  3359.687,  3359.682,-0.033188, 0.010026,-0.992013,-0.000332, 0.000100,-0.009920,-0.020544, 0.050733, 0.055141,1, 0.000361, 0.000911,-0.000074,1, 0.299520,-0.028660, 9.802033,1,1
1778258423544,  3359.712,  3359.707,-0.032060, 0.003430,-0.998202,-0.000323, 0.000040,-0.009979,-0.014793, 0.004875, 0.013013,1,-0.000280,-0.000559,-0.000328,1, 0.299622,-0.028771, 9.802030,1,1
1778258423570,  3359.732,  3359.732,-0.030338, 0.001370,-0.998652,-0.000307, 0.000013,-0.009990, 0.015842, 0.003152, 0.044435,1,-0.002183,-0.000567,-0.001330,1, 0.299773,-0.028913, 9.802025,1,1
1778258423592,  3359.757,  3359.752,-0.029306, 0.004567,-0.994503,-0.000290, 0.000036,-0.009946, 0.027530,-0.008071, 0.053916,1, 0.000391, 0.000502, 0.000027,1, 0.299636,-0.028999, 9.802029,1,1
1778258423614,  3359.782,  3359.777,-0.033108, 0.005999,-0.994789,-0.000327, 0.000064,-0.009948,-0.025233, 0.030182, 0.046486,1, 0.001405, 0.001178, 0.001144,1, 0.299409,-0.028606, 9.802036,1,1
1778258423640,  3359.802,  3359.802,-0.036713, 0.002594,-0.993382,-0.000365, 0.000028,-0.009934,-0.060727,-0.002821, 0.060294,1, 0.001854, 0.000321,-0.000136,1, 0.299289,-0.028198, 9.802041,1,1
1778258423662,  3359.827,  3359.822,-0.038304, 0.006855,-0.998954,-0.000383, 0.000061,-0.009989,-0.085515,-0.002734, 0.012334,1,-0.000699,-0.000152, 0.000837,1, 0.299326,-0.028221, 9.802040,1,1
1778258423685,  3359.852,  3359.847,-0.034807, 0.010367,-0.993013,-0.000351, 0.000104,-0.009932,-0.041929, 0.073501, 0.063905,1, 0.000433,-0.001186,-0.000210,1, 0.299446,-0.028150, 9.802036,1,1
1778258423710,  3359.872,  3359.872,-0.029576, 0.000804,-0.996124,-0.000300, 0.000006,-0.009960, 0.009511,-0.020072, 0.033396,1, 0.000363,-0.000216, 0.000002,1, 0.299559,-0.027942, 9.802033,1,1
1778258423732,  3359.897,  3359.892,-0.024914, 0.002201,-1.000019,-0.000256, 0.000030,-0.009979,-0.000230,-0.012153, 0.074388,1, 0.001747,-0.001441, 0.001367,1, 0.300054,-0.027972, 9.802018,1,1
1778258423755,  3359.922,  3359.917,-0.025675, 0.005082,-0.998482,-0.000254, 0.000060,-0.009996, 0.048215, 0.021861, 0.010260,1, 0.001551,-0.000539,-0.000054,1, 0.300019,-0.027924, 9.802020,1,1
1778258423780,  3359.942,  3359.942,-0.021212, 0.006759,-0.992165,-0.000214, 0.000073,-0.009919, 0.091832, 0.038600, 0.072208,1, 0.001379, 0.000125, 0.000353,1, 0.299851,-0.027639, 9.802026,1,1
1778258423802,  3359.967,  3359.962,-0.022882, 0.001608,-0.999341,-0.000230, 0.000013,-0.009994, 0.090360, 0.001428, 0.035186,1, 0.001836, 0.001155, 0.000930,1, 0.299831,-0.027219, 9.802028,1,1
1778258423829,  3359.992,  3359.992,-0.023695, 0.005601,-0.996917,-0.000236, 0.000056,-0.009975, 0.067153, 0.027696, 0.025622,1, 0.000233, 0.000926, 0.000213,1, 0.299496,-0.027224, 9.802038,1,1
1778258423850,  3360.012,  3360.012,-0.021318, 0.007558,-0.989317,-0.000213, 0.000080,-0.009894, 0.090284, 0.046776, 0.100155,1,-0.000821, 0.000280,-0.001446,1, 0.299333,-0.027362, 9.802042,1,1
1778258423872,  3360.037,  3360.032,-0.018611, 0.005139,-0.998843,-0.000192, 0.000052,-0.009991, 0.095833, 0.006817, 0.015645,1,-0.000766,-0.000468,-0.001011,1, 0.299401,-0.027464, 9.802040,1,1
1778258423899,  3360.062,  3360.062,-0.011448, 0.005142,-0.991632,-0.000118, 0.000049,-0.009922, 0.187052, 0.022614, 0.077449,1,-0.001956, 0.000808,-0.002944,1, 0.299290,-0.027873, 9.802042,1,1
1778258423921,  3360.087,  3360.082,-0.014113, 0.004679,-1.001203,-0.000141, 0.000044,-0.010013, 0.178448, 0.002522, 0.020742,1,-0.005010, 0.001043,-0.003692,1, 0.299098,-0.028603, 9.802046,1,1
1778258423942,  3360.107,  3360.102,-0.020562, 0.007430,-0.996527,-0.000204, 0.000075,-0.009971, 0.127863, 0.032765,-0.006918,1,-0.006528, 0.002486,-0.004527,1, 0.298136,-0.030023, 9.802072,1,1
1778258423969,  3360.132,  3360.132,-0.026721, 0.004123,-0.993718,-0.000265, 0.000044,-0.009937, 0.035521, 0.008533, 0.057036,1,-0.007572, 0.002002,-0.006078,1, 0.297503,-0.032133, 9.802084,1,1
1778258423991,  3360.157,  3360.152,-0.031144, 0.006684,-0.993290,-0.000313, 0.000065,-0.009933,-0.001817, 0.012085, 0.061540,1,-0.006605, 0.001459,-0.003182,1, 0.297118,-0.033345, 9.802092,1,1
1778258424012,  3360.177,  3360.172,-0.034986, 0.002603,-0.995632,-0.000345, 0.000031,-0.009955,-0.026688, 0.022810, 0.044775,1,-0.006825, 0.000651,-0.004787,1, 0.296917,-0.034604, 9.802093,1,1
1778258424039,  3360.202,  3360.202,-0.038942,-0.000060,-0.997157,-0.000385,-0.000000,-0.009975,-0.084996,-0.037071, 0.023319,1,-0.006924, 0.000608,-0.004417,1, 0.296879,-0.036698, 9.802087,1,1
1778258424061,  3360.227,  3360.222,-0.043719, 0.008272,-0.994228,-0.000434, 0.000082,-0.009942,-0.118554, 0.043224, 0.057452,1,-0.007233, 0.000083,-0.003935,1, 0.296829,-0.037991, 9.802083,1,1
1778258424082,  3360.247,  3360.242,-0.045023, 0.001199,-0.996554,-0.000448, 0.000018,-0.009968,-0.133345, 0.019688, 0.030443,1,-0.006335, 0.000139,-0.003786,1, 0.296744,-0.039288, 9.802080,1,1
1778258424109,  3360.272,  3360.272,-0.047703, 0.003124,-0.993845,-0.000475, 0.000028,-0.009937,-0.171081,-0.009617, 0.055788,1,-0.003752, 0.000618,-0.002399,1, 0.296707,-0.040364, 9.802077,1,1
1778258424131,  3360.297,  3360.292,-0.048415, 0.007074,-0.995747,-0.000482, 0.000070,-0.009958,-0.176807, 0.028240, 0.036009,1,-0.002599, 0.000802,-0.001768,1, 0.297042,-0.041087, 9.802064,1,1
1778258424152,  3360.317,  3360.312,-0.046621, 0.007612,-0.994539,-0.000468, 0.000077,-0.009947,-0.171439, 0.033667, 0.039260,1,-0.001067, 0.000634,-0.000774,1, 0.296959,-0.041336, 9.802066,1,1
1778258424179,  3360.342,  3360.342,-0.043138, 0.003829,-0.994622,-0.000435, 0.000038,-0.009941,-0.126130,-0.003693, 0.048153,1, 0.001788,-0.000465, 0.000617,1, 0.296920,-0.041186, 9.802068,1,1
1778258424201,  3360.367,  3360.362,-0.036570, 0.005753,-0.991437,-0.000371, 0.000054,-0.009923,-0.088573,-0.015780, 0.041014,1, 0.002549, 0.000265, 0.000586,1, 0.296765,-0.040861, 9.802073,1,1
1778258424222,  3360.387,  3360.382,-0.034275, 0.008516,-0.995291,-0.000343, 0.000085,-0.009946,-0.054224, 0.027974, 0.079268,1, 0.002989, 0.000201, 0.001568,1, 0.296752,-0.040270, 9.802076,1,1
1778258424249,  3360.412,  3360.412,-0.032339, 0.006134,-0.999299,-0.000326, 0.000063,-0.009994,-0.020281, 0.020757, 0.002299,1, 0.003477,-0.001207, 0.003047,1, 0.296897,-0.039290, 9.802076,1,1
1778258424271,  3360.437,  3360.432,-0.029362, 0.001826,-0.994171,-0.000295, 0.000022,-0.009943, 0.003129,-0.013907, 0.038618,1, 0.002375, 0.000567, 0.001781,1, 0.296760,-0.038824, 9.802082,1,1
1778258424292,  3360.457,  3360.452,-0.029823, 0.005826,-0.993252,-0.000299, 0.000054,-0.009933, 0.003619,-0.008496, 0.062859,1, 0.002512, 0.000142, 0.001278,1, 0.296695,-0.038397, 9.802086,1,1
1778258424319,  3360.482,  3360.482,-0.029409, 0.008669,-0.997004,-0.000291, 0.000089,-0.009967, 0.008415, 0.047310, 0.024816,1, 0.002963,-0.000218, 0.002161,1, 0.296830,-0.037617, 9.802085,1,1
1778258424341,  3360.507,  3360.502,-0.025696, 0.003982,-0.994734,-0.000262, 0.000040,-0.009949, 0.024575, 0.007605, 0.043277,1, 0.003405,-0.000801, 0.001183,1, 0.297654,-0.037224, 9.802061,1,1
1778258424364,  3360.527,  3360.527,-0.022973, 0.004019,-0.995375,-0.000231, 0.000042,-0.009951, 0.072554, 0.002979, 0.040764,1, 0.002192,-0.000542, 0.001225,1, 0.297856,-0.036366, 9.802058,1,1
1778258424390,  3360.552,  3360.552,-0.020902, 0.004895,-0.996228,-0.000211, 0.000049,-0.009966, 0.093046, 0.011951, 0.032397,1, 0.000445,-0.001070, 0.000600,1, 0.298056,-0.036036, 9.802053,1,1
1778258424411,  3360.577,  3360.572,-0.022532, 0.007000,-0.998540,-0.000229, 0.000070,-0.009981, 0.081198, 0.025961, 0.043386,1, 0.001121, 0.000355, 0.001311,1, 0.298026,-0.035882, 9.802054,1,1
1778258424434,  3360.597,  3360.597,-0.024635, 0.007552,-0.996889,-0.000246, 0.000078,-0.009978, 0.056344, 0.038531, 0.025920,1, 0.001601, 0.000560, 0.000840,1, 0.297913,-0.035480, 9.802059,1,1
1778258424460,  3360.622,  3360.622,-0.026253, 0.002901,-0.990536,-0.000262, 0.000035,-0.009905, 0.040524,-0.006657, 0.088217,1, 0.000508,-0.000770, 0.000790,1, 0.297999,-0.035094, 9.802058,1,1
1778258424481,  3360.647,  3360.642,-0.032779, 0.004734,-0.995450,-0.000327, 0.000046,-0.009951,-0.014037, 0.000763, 0.054327,1, 0.000172,-0.000488, 0.000783,1, 0.298082,-0.034917, 9.802056,1,1
1778258424504,  3360.667,  3360.667,-0.031348, 0.007397,-0.997814,-0.000315, 0.000076,-0.009977,-0.009220, 0.037594, 0.016838,1,-0.000300,-0.000750,-0.000478,1, 0.298227,-0.034950, 9.802052,1,1
1778258424530,  3360.692,  3360.692,-0.030686, 0.005193,-0.995245,-0.000307, 0.000055,-0.009955,-0.003334, 0.015802, 0.042051,1, 0.001055,-0.000043, 0.000751,1, 0.297479,-0.035142, 9.802074,1,1
1778258424551,  3360.717,  3360.712,-0.031152, 0.004393,-0.994199,-0.000311, 0.000043,-0.009942,-0.003802, 0.003500, 0.051937,1, 0.002044, 0.000448, 0.001143,1, 0.297365,-0.034822, 9.802078,1,1
1778258424574,  3360.737,  3360.737,-0.031449, 0.004314,-0.995364,-0.000312, 0.000045,-0.009951,-0.010989, 0.007799, 0.040890,1,-0.000352,-0.000137,-0.000807,1, 0.297425,-0.034514, 9.802078,1,1
1778258424600,  3360.762,  3360.762,-0.029162, 0.004548,-0.993279,-0.000293, 0.000045,-0.009934, 0.011521, 0.010121, 0.061332,1, 0.000335,-0.000863,-0.000385,1, 0.297526,-0.034465, 9.802075,1,1
1778258424621,  3360.787,  3360.782,-0.026365, 0.008827,-0.998042,-0.000270, 0.000089,-0.009984, 0.012575, 0.046914, 0.015543,1,-0.000610, 0.000283,-0.000100,1, 0.297566,-0.034628, 9.802073,1,1
1778258424644,  3360.807,  3360.807,-0.024341, 0.003211,-0.992158,-0.000245, 0.000039,-0.009918, 0.059002,-0.003334, 0.072318,1,-0.001658,-0.000282,-0.001727,1, 0.297720,-0.034874, 9.802068,1,1
1778258424670,  3360.832,  3360.832,-0.023230, 0.000466,-0.996865,-0.000231, 0.000001,-0.009965, 0.069973,-0.030663, 0.026154,1,-0.002373,-0.000472,-0.001163,1, 0.297797,-0.035304, 9.802064,1,1
1778258424691,  3360.857,  3360.852,-0.026546, 0.009096,-0.998295,-0.000265, 0.000089,-0.009980, 0.036611, 0.037530, 0.016293,1,-0.003190, 0.000735,-0.002430,1, 0.297815,-0.035964, 9.802061,1,1
1778258424714,  3360.882,  3360.877,-0.027538, 0.005206,-0.994522,-0.000272, 0.000058,-0.009946, 0.027668, 0.014469, 0.049133,1,-0.001902,-0.000228,-0.001619,1, 0.297727,-0.036646, 9.802061,1,1
1778258424740,  3360.902,  3360.902,-0.028326, 0.001972,-0.994263,-0.000283, 0.000017,-0.009940, 0.019412,-0.017889, 0.051687,1,-0.001498, 0.000498,-0.000910,1, 0.297181,-0.037273, 9.802075,1,1
1778258424761,  3360.927,  3360.922,-0.030993, 0.005809,-0.997859,-0.000309, 0.000053,-0.009979, 0.002490, 0.003706, 0.024771,1,-0.002331, 0.001751,-0.001624,1, 0.296886,-0.037621, 9.802083,1,1
1778258424784,  3360.952,  3360.947,-0.030887, 0.007793,-0.996363,-0.000311, 0.000080,-0.009965,-0.006283, 0.038222, 0.031105,1,-0.002166, 0.001233,-0.002191,1, 0.296575,-0.038264, 9.802090,1,1
1778258424810,  3360.972,  3360.972,-0.030148, 0.004783,-0.994969,-0.000303, 0.000051,-0.009942, 0.000768, 0.008430, 0.044777,1,-0.001287, 0.000995,-0.000826,1, 0.296390,-0.038517, 9.802094,1,1
1778258424832,  3360.997,  3360.992,-0.028642, 0.005380,-0.990216,-0.000283, 0.000064,-0.009900, 0.002171, 0.015802, 0.095502,1, 0.000073,-0.000033,-0.000208,1, 0.296332,-0.038659, 9.802095,1,1
1778258424854,  3361.022,  3361.017,-0.031321, 0.008494,-0.996736,-0.000307, 0.000090,-0.009959,-0.011100, 0.043930, 0.027455,1,-0.003192, 0.000864,-0.002409,1, 0.296023,-0.039463, 9.802102,1,1
1778258424880,  3361.042,  3361.042,-0.034676, 0.006230,-0.997101,-0.000340, 0.000070,-0.009971,-0.044237, 0.021456, 0.023886,1,-0.000285, 0.001917,-0.000229,1, 0.295761,-0.039646, 9.802109,1,1
1778258424902,  3361.067,  3361.062,-0.037833, 0.002720,-0.993956,-0.000377, 0.000025,-0.009946,-0.061100,-0.014494, 0.017746,1,-0.001071, 0.000820,-0.000541,1, 0.295605,-0.039897, 9.802113,1,1
1778258424924,  3361.092,  3361.087,-0.041105, 0.007792,-0.985722,-0.000409, 0.000070,-0.009854,-0.107342, 0.036387, 0.135472,1,-0.000742, 0.000862,-0.000937,1, 0.295760,-0.040077, 9.802107,1,1
1778258424950,  3361.112,  3361.112,-0.042929, 0.004077,-0.999540,-0.000425, 0.000042,-0.009993,-0.125232,-0.000253,-0.000034,1, 0.000233,-0.000636,-0.000212,1, 0.295781,-0.040230, 9.802106,1,1
1778258424972,  3361.137,  3361.132,-0.040942, 0.006959,-0.992794,-0.000409, 0.000072,-0.009929,-0.117545, 0.027538, 0.054516,1, 0.000623,-0.000365, 0.000809,1, 0.295876,-0.040161, 9.802103,1,1
1778258424994,  3361.162,  3361.157,-0.039203, 0.001177,-0.995802,-0.000391, 0.000013,-0.009956,-0.088390,-0.028240, 0.036612,1, 0.002016,-0.000532, 0.001034,1, 0.296079,-0.039723, 9.802099,1,1
1778258425020,  3361.182,  3361.182,-0.036900, 0.005709,-0.995255,-0.000371, 0.000050,-0.009957,-0.065811, 0.016492, 0.041983,1, 0.000987, 0.000780, 0.001219,1, 0.296028,-0.039461, 9.802101,1,1
1778258425042,  3361.207,  3361.202,-0.031817, 0.005562,-0.995113,-0.000318, 0.000057,-0.009950,-0.033112, 0.042464, 0.036112,1, 0.000760,-0.001183, 0.000479,1, 0.296181,-0.039191, 9.802098,1,1
1778258425069,  3361.232,  3361.232,-0.030157, 0.003672,-0.993390,-0.000303, 0.000034,-0.009934, 0.000569,-0.002299, 0.060265,1, 0.003650, 0.000385, 0.002236,1, 0.296297,-0.038197, 9.802098,1,1
1778258425090,  3361.252,  3361.252,-0.031744, 0.004941,-0.997778,-0.000319, 0.000049,-0.009974,-0.014947, 0.010734, 0.017237,1, 0.002451, 0.000481, 0.001402,1, 0.296339,-0.037646, 9.802099,1,1
1778258425112,  3361.277,  3361.272,-0.026075, 0.005707,-0.992750,-0.000263, 0.000061,-0.009931, 0.009697, 0.027941, 0.032282,1, 0.001516,-0.000416, 0.000799,1, 0.296472,-0.037259, 9.802096,1,1
1778258425139,  3361.302,  3361.302,-0.023507, 0.004647,-0.993666,-0.000235, 0.000048,-0.009932, 0.067004, 0.008526, 0.057525,1, 0.002306,-0.000446, 0.001747,1, 0.297552,-0.036980, 9.802065,1,1
1778258425160,  3361.327,  3361.322,-0.023098, 0.005222,-0.998136,-0.000229, 0.000052,-0.009979, 0.076796, 0.021094, 0.010180,1, 0.002348,-0.000648, 0.001610,1, 0.297589,-0.036368, 9.802066,1,1
1778258425182,  3361.347,  3361.342,-0.022208, 0.004054,-0.995496,-0.000223, 0.000038,-0.009951, 0.072447, 0.015436, 0.040350,1, 0.000293,-0.000093, 0.000016,1, 0.297716,-0.035957, 9.802064,1,1
1778258425209,  3361.372,  3361.372,-0.021159, 0.005979,-0.994843,-0.000211, 0.000058,-0.009951, 0.090318, 0.022718, 0.045981,1,-0.000514, 0.000216,-0.000387,1, 0.297809,-0.035929, 9.802061,1,1
1778258425230,  3361.397,  3361.392,-0.025180, 0.004286,-0.996850,-0.000248, 0.000050,-0.009968, 0.072383, 0.025016, 0.046314,1, 0.001027, 0.000719,-0.000705,1, 0.297656,-0.035791, 9.802066,1,1
1778258425252,  3361.417,  3361.412,-0.029939, 0.003805,-0.996984,-0.000297, 0.000041,-0.009970, 0.022252,-0.008797, 0.015701,1, 0.000501, 0.000085, 0.000067,1, 0.297624,-0.035850, 9.802067,1,1
1778258425279,  3361.442,  3361.442,-0.033200, 0.006387,-0.994706,-0.000333, 0.000063,-0.009947,-0.028192, 0.026710, 0.047335,1,-0.000267, 0.001236,-0.000647,1, 0.297349,-0.035936, 9.802075,1,1
1778258425301,  3361.467,  3361.462,-0.036340, 0.004589,-0.992797,-0.000362, 0.000047,-0.009927,-0.053415, 0.012180, 0.071057,1, 0.000336, 0.000207,-0.000459,1, 0.297309,-0.035998, 9.802076,1,1
1778258425322,  3361.487,  3361.482,-0.037168, 0.004676,-0.997197,-0.000371, 0.000045,-0.009967,-0.064958, 0.011344, 0.042837,1, 0.000533, 0.000194,-0.000092,1, 0.297229,-0.035886, 9.802079,1,1
1778258425349,  3361.512,  3361.512,-0.034374, 0.005853,-0.996801,-0.000349, 0.000057,-0.009968,-0.040414, 0.021291, 0.026814,1, 0.000886,-0.000191, 0.000076,1, 0.296685,-0.036078, 9.802094,1,1
1778258425371,  3361.537,  3361.532,-0.030016, 0.004294,-0.994427,-0.000305, 0.000043,-0.009942,-0.008147, 0.011996, 0.058497,1, 0.001005,-0.000293, 0.000528,1, 0.296759,-0.035910, 9.802094,1,1
1778258425392,  3361.557,  3361.552,-0.031800, 0.003635,-0.995565,-0.000315, 0.000038,-0.009953,-0.003277, 0.000121, 0.048305,1, 0.001734, 0.000516, 0.001244,1, 0.296712,-0.035646, 9.802095,1,1
1778258425419,  3361.582,  3361.582,-0.033403, 0.004828,-0.994988,-0.000332, 0.000047,-0.009951,-0.030922, 0.012030, 0.044598,1, 0.001074, 0.000277,-0.000088,1, 0.296638,-0.035285, 9.802099,1,1
1778258425441,  3361.607,  3361.602,-0.032181, 0.005806,-0.993842,-0.000319, 0.000059,-0.009935,-0.027582, 0.031461, 0.059939,1, 0.001028,-0.000430, 0.001096,1, 0.296635,-0.035116, 9.802100,1,1
1778258425462,  3361.627,  3361.622,-0.030894, 0.005910,-0.995886,-0.000306, 0.000050,-0.009961,-0.000833, 0.035492, 0.071764,1, 0.001938, 0.000373, 0.001065,1, 0.296637,-0.034788, 9.802101,1,1
1778258425489,  3361.652,  3361.652,-0.028912, 0.002826,-1.000101,-0.000288, 0.000033,-0.009999, 0.013274,-0.006863,-0.005546,1, 0.000654,-0.000435, 0.000626,1, 0.296820,-0.034556, 9.802096,1,1
1778258425511,  3361.677,  3361.672,-0.027539, 0.005493,-0.993030,-0.000274, 0.000053,-0.009931, 0.033352, 0.013482, 0.052492,1, 0.000241, 0.000317,-0.000120,1, 0.296809,-0.034543, 9.802096,1,1
1778258425532,  3361.697,  3361.692,-0.028466, 0.005130,-0.995370,-0.000283, 0.000051,-0.009951, 0.025223, 0.022932, 0.052484,1, 0.000653, 0.001074, 0.000680,1, 0.296921,-0.034736, 9.802093,1,1
1778258425559,  3361.722,  3361.722,-0.031444, 0.006090,-0.994345,-0.000314, 0.000060,-0.009947,-0.000254, 0.011995, 0.037218,1, 0.001817,-0.000640, 0.000513,1, 0.296881,-0.034493, 9.802094,1,1
1778258425581,  3361.747,  3361.742,-0.032916, 0.002789,-0.997747,-0.000326, 0.000033,-0.009968,-0.018747, 0.006625, 0.051177,1, 0.000551,-0.000162, 0.000003,1, 0.296844,-0.034023, 9.802097,1,1
1778258425604,  3361.767,  3361.767,-0.031699, 0.005959,-0.996638,-0.000318, 0.000058,-0.009970,-0.013940, 0.024607, 0.028413,1, 0.001081,-0.000354, 0.000325,1, 0.296932,-0.033793, 9.802095,1,1
1778258425629,  3361.792,  3361.792,-0.029937, 0.004749,-0.994141,-0.000299, 0.000049,-0.009940, 0.003358, 0.012838, 0.052904,1, 0.000924, 0.000650,-0.000373,1, 0.296924,-0.033708, 9.802096,1,1
1778258425651,  3361.817,  3361.812,-0.029259, 0.006470,-0.996566,-0.000298, 0.000059,-0.009969, 0.011224,-0.003872, 0.041163,1, 0.001515,-0.000305, 0.000073,1, 0.296966,-0.033586, 9.802095,1,1
1778258425674,  3361.837,  3361.837,-0.029665, 0.006510,-0.994343,-0.000294, 0.000068,-0.009950, 0.006208, 0.030461, 0.050921,1, 0.001841, 0.000136, 0.000356,1, 0.297114,-0.033320, 9.802092,1,1
1778258425699,  3361.862,  3361.862,-0.027953, 0.002716,-0.993957,-0.000280, 0.000035,-0.009935, 0.022978,-0.006575, 0.054702,1, 0.000677, 0.000144, 0.000916,1, 0.297095,-0.033186, 9.802093,1,1
1778258425721,  3361.887,  3361.882,-0.030478, 0.005063,-0.996155,-0.000304, 0.000050,-0.009959, 0.010902, 0.010751, 0.035568,1, 0.001786, 0.000848, 0.000700,1, 0.297026,-0.032755, 9.802096,1,1
1778258425744,  3361.907,  3361.907,-0.030958, 0.006340,-0.996067,-0.000310, 0.000061,-0.009961,-0.006804, 0.029415, 0.034020,1, 0.001240,-0.000064,-0.000425,1, 0.296792,-0.032720, 9.802103,1,1
1778258425770,  3361.932,  3361.932,-0.029682, 0.003879,-0.994179,-0.000299, 0.000035,-0.009942, 0.005735, 0.005435, 0.052541,1, 0.001109, 0.000053, 0.000603,1, 0.296814,-0.032567, 9.802103,1,1
1778258425791,  3361.957,  3361.952,-0.028402, 0.005209,-0.995972,-0.000284, 0.000055,-0.009957, 0.012468, 0.015625, 0.055544,1, 0.000861,-0.000072, 0.000212,1, 0.296798,-0.032332, 9.802104,1,1
1778258425814,  3361.977,  3361.977,-0.028254, 0.004970,-0.997790,-0.000282, 0.000048,-0.009977, 0.019668, 0.016429, 0.017127,1,-0.000272,-0.000398,-0.001234,1, 0.296758,-0.032318, 9.802106,1,1
1778258425840,  3362.002,  3362.002,-0.027634, 0.005209,-0.994474,-0.000277, 0.000056,-0.009946, 0.025731, 0.018782, 0.049650,1, 0.000373,-0.000378,-0.000504,1, 0.296744,-0.032292, 9.802106,1,1
1778258425861,  3362.027,  3362.022,-0.029202, 0.004987,-0.995662,-0.000293, 0.000044,-0.009954, 0.016057, 0.008915, 0.064079,1, 0.000159, 0.000458, 0.000003,1, 0.296671,-0.032206, 9.802109,1,1
1778258425884,  3362.047,  3362.047,-0.029794, 0.005912,-0.997871,-0.000299, 0.000055,-0.009980, 0.004402, 0.025846, 0.016336,1, 0.000195, 0.000342, 0.000195,1, 0.296566,-0.032128, 9.802112,1,1
1778258425910,  3362.072,  3362.072,-0.029251, 0.005196,-0.995093,-0.000294, 0.000054,-0.009951, 0.009719, 0.018798, 0.043578,1,-0.001114, 0.000336,-0.000360,1, 0.296568,-0.032193, 9.802112,1,1
1778258425931,  3362.097,  3362.092,-0.029454, 0.003870,-0.994173,-0.000294, 0.000038,-0.009946, 0.011941, 0.008699, 0.040588,1,-0.000112,-0.000715, 0.000045,1, 0.296409,-0.032518, 9.802115,1,1
1778258425954,  3362.122,  3362.117,-0.030483, 0.003394,-0.994717,-0.000301, 0.000035,-0.009943,-0.002548, 0.000843, 0.047275,1,-0.000152,-0.000036,-0.000759,1, 0.296391,-0.032449, 9.802116,1,1
1778258425980,  3362.142,  3362.142,-0.031904, 0.004916,-0.997661,-0.000320, 0.000047,-0.009974,-0.016445, 0.015625, 0.018398,1,-0.000785, 0.000180,-0.000157,1, 0.296420,-0.032608, 9.802114,1,1
1778258426001,  3362.167,  3362.162,-0.032110, 0.005788,-0.994590,-0.000323, 0.000060,-0.009949,-0.028788, 0.027230, 0.025736,1, 0.000365, 0.000383,-0.000611,1, 0.296404,-0.032565, 9.802115,1,1
1778258426024,  3362.192,  3362.187,-0.031860, 0.002872,-0.994037,-0.000319, 0.000033,-0.009939,-0.009033,-0.004558, 0.052918,1,-0.000441, 0.000825,-0.000635,1, 0.296175,-0.032710, 9.802122,1,1
1778258426050,  3362.212,  3362.212,-0.031341, 0.004314,-0.996748,-0.000316, 0.000040,-0.009964,-0.011267, 0.009510, 0.027367,1,-0.000585, 0.000091,-0.000719,1, 0.296084,-0.032817, 9.802124,1,1
1778258426071,  3362.237,  3362.232,-0.031942, 0.004457,-0.994614,-0.000318, 0.000047,-0.009947,-0.014291, 0.015953, 0.046876,1, 0.000523,-0.000362,-0.000877,1, 0.296113,-0.032926, 9.802123,1,1
1778258426094,  3362.262,  3362.257,-0.032904, 0.004723,-0.994624,-0.000326, 0.000047,-0.009953,-0.026749, 0.013350, 0.048199,1, 0.000450, 0.000462, 0.000185,1, 0.295917,-0.032949, 9.802129,1,0
1778258426120,  3362.282,  3362.282,-0.032296, 0.005434,-0.994417,-0.000324, 0.000056,-0.009940,-0.020882, 0.020562, 0.050234,1, 0.000920,-0.000152,-0.001182,1, 0.295835,-0.032701, 9.802133,1,0
1778258426141,  3362.307,  3362.302,-0.029417, 0.004985,-0.993945,-0.000297, 0.000048,-0.009946,-0.002973, 0.007550, 0.029544,1, 0.000645, 0.000038,-0.000366,1, 0.296077,-0.032837, 9.802124,1,0
1778258426164,  3362.332,  3362.327,-0.028474, 0.005763,-0.994218,-0.000286, 0.000061,-0.009935, 0.016833, 0.023913, 0.052181,1, 0.000738, 0.000871, 0.000509,1, 0.296037,-0.032584, 9.802127,1,0
1778258426190,  3362.352,  3362.352,-0.027880, 0.003839,-0.997540,-0.000279, 0.000040,-0.009973, 0.022640, 0.005223, 0.019596,1, 0.000672,-0.000137,-0.000257,1, 0.296052,-0.032408, 9.802127,1,0
1778258426212,  3362.377,  3362.372,-0.029037, 0.005263,-0.994971,-0.000291, 0.000053,-0.009951, 0.009336, 0.009138, 0.038138,1, 0.000697, 0.001073, 0.000809,1, 0.295932,-0.032238, 9.802131,1,0
1778258426234,  3362.402,  3362.397,-0.031425, 0.003697,-0.992191,-0.000312, 0.000042,-0.009923,-0.012366, 0.004118, 0.072066,1,-0.000633,-0.000185, 0.000344,1, 0.295815,-0.032160, 9.802135,1,0
1778258426260,  3362.422,  3362.422,-0.031429, 0.003996,-0.994162,-0.000313, 0.000042,-0.009939,-0.012294, 0.007110, 0.052727,1, 0.000778,-0.001133, 0.000286,1, 0.295955,-0.032054, 9.802131,1,0
1778258426282,  3362.447,  3362.442,-0.032506, 0.006270,-0.999742,-0.000323, 0.000062,-0.010000,-0.021742, 0.027194, 0.001737,1, 0.000317, 0.000367,-0.000349,1, 0.296029,-0.031923, 9.802129,1,0
1778258426309,  3362.472,  3362.472,-0.031096, 0.004082,-0.994077,-0.000308, 0.000041,-0.009945,-0.008977, 0.008286, 0.053568,1, 0.000077, 0.000447, 0.000072,1, 0.295956,-0.031742, 9.802132,1,0
1778258426330,  3362.492,  3362.492,-0.029105, 0.001850,-0.994071,-0.000290, 0.000019,-0.009940, 0.010632,-0.013857, 0.053616,1, 0.000382,-0.000503, 0.000104,1, 0.296077,-0.032031, 9.802127,1,0
1778258426352,  3362.517,  3362.512,-0.030842, 0.005953,-0.993944,-0.000305, 0.000058,-0.009937,-0.000870, 0.014188, 0.053104,1, 0.001036, 0.000829, 0.000044,1, 0.295994,-0.031984, 9.802130,1,0
1778258426379,  3362.542,  3362.542,-0.030184, 0.008997,-0.994336,-0.000310, 0.000084,-0.009950,-0.000038, 0.056477, 0.051024,1, 0.001394, 0.000497,-0.000055,1, 0.295951,-0.031706, 9.802132,1,0
1778258426400,  3362.567,  3362.562,-0.029363, 0.003616,-0.996887,-0.000295, 0.000036,-0.009974, 0.007486,-0.020448,-0.017117,1, 0.000487,-0.000629, 0.000196,1, 0.296033,-0.031663, 9.802130,1,0
1778258426422,  3362.587,  3362.582,-0.026495, 0.003917,-0.992135,-0.000265, 0.000035,-0.009925, 0.020524,-0.000284, 0.065246,1,-0.001782,-0.000359,-0.000983,1, 0.296094,-0.031698, 9.802128,1,0
1778258426449,  3362.612,  3362.612,-0.026414, 0.003717,-0.994631,-0.000267, 0.000034,-0.009945, 0.035131, 0.024535, 0.027822,1,-0.001398,-0.000396,-0.001131,1, 0.296124,-0.032070, 9.802126,1,0
1778258426470,  3362.637,  3362.632,-0.027225, 0.005000,-0.993696,-0.000270, 0.000053,-0.009941, 0.039086, 0.040198, 0.040195,1, 0.000069,-0.000393,-0.000876,1, 0.296156,-0.032137, 9.802124,1,0
1778258426492,  3362.657,  3362.652,-0.030131, 0.002154,-0.995955,-0.000298, 0.000021,-0.009956, 0.015536,-0.002509, 0.051346,1,-0.000695, 0.000512,-0.000928,1, 0.296142,-0.032326, 9.802124,1,0
1778258426519,  3362.682,  3362.682,-0.032359, 0.004908,-0.996176,-0.000323, 0.000049,-0.009960,-0.021359, 0.015770, 0.032983,1, 0.000193,-0.000043,-0.000879,1, 0.295976,-0.032355, 9.802129,1,0
1778258426540,  3362.707,  3362.702,-0.035655, 0.005559,-0.995483,-0.000357, 0.000056,-0.009957,-0.046240, 0.026266, 0.035688,1,-0.000863, 0.000599,-0.001141,1, 0.295638,-0.032760, 9.802138,1,0
1778258426562,  3362.727,  3362.722,-0.035002, 0.003018,-0.994124,-0.000352, 0.000030,-0.009941,-0.052720, 0.000197, 0.042736,1,-0.000582, 0.000203,-0.001027,1, 0.295609,-0.032951, 9.802138,1,0
1778258426589,  3362.752,  3362.752,-0.036557, 0.003099,-0.995871,-0.000362, 0.000027,-0.009954,-0.063025,-0.002766, 0.035979,1,-0.000092, 0.000685, 0.000844,1, 0.295459,-0.033156, 9.802142,1,0
1778258426610,  3362.777,  3362.772,-0.038099, 0.006349,-0.996760,-0.000377, 0.000067,-0.009973,-0.072407, 0.026073, 0.017295,1, 0.000497, 0.000761, 0.000650,1, 0.295254,-0.033027, 9.802149,1,0
1778258426632,  3362.797,  3362.792,-0.037956, 0.002726,-0.995060,-0.000379, 0.000026,-0.009953,-0.078379, 0.011789, 0.039838,1, 0.001822, 0.001608, 0.000648,1, 0.295106,-0.032737, 9.802155,1,0
1778258426659,  3362.822,  3362.822,-0.039857, 0.003214,-0.995183,-0.000397, 0.000034,-0.009950,-0.096152,-0.000819, 0.042755,1, 0.002409, 0.001993, 0.001731,1, 0.294652,-0.032262, 9.802170,1,0
1778258426681,  3362.847,  3362.842,-0.039521, 0.005023,-0.993075,-0.000398, 0.000053,-0.009935,-0.101073, 0.025959, 0.048556,1, 0.002946, 0.000283, 0.001498,1, 0.294449,-0.031738, 9.802177,1,0
1778258426702,  3362.867,  3362.862,-0.036333, 0.004809,-0.991685,-0.000366, 0.000044,-0.009920,-0.074649, 0.015941, 0.062140,1, 0.004052, 0.001350, 0.002344,1, 0.294225,-0.031112, 9.802186,1,0
1778258426729,  3362.892,  3362.892,-0.034284, 0.004132,-0.995912,-0.000343, 0.000044,-0.009960,-0.041693, 0.010276, 0.035617,1, 0.005159, 0.001753, 0.002430,1, 0.294566,-0.030122, 9.802178,1,0
1778258426751,  3362.917,  3362.912,-0.032080, 0.008505,-0.996043,-0.000319, 0.000084,-0.009952,-0.025963, 0.035088, 0.044848,1, 0.003341, 0.001203, 0.001482,1, 0.294304,-0.029371, 9.802189,1,0
1778258426772,  3362.937,  3362.932,-0.030543, 0.007264,-1.000134,-0.000301, 0.000076,-0.009995,-0.012574, 0.092982, 0.007111,1,-0.000597, 0.002060,-0.001289,1, 0.294006,-0.029399, 9.802197,1,0
1778258426799,  3362.962,  3362.962,-0.030586, 0.014151,-0.994005,-0.000298, 0.000126,-0.009946,-0.006286, 0.107443, 0.054340,1,-0.016335, 0.002809,-0.008048,1, 0.293570,-0.031834, 9.802203,1,0
1778258426821,  3362.987,  3362.982,-0.030518, 0.021692,-0.997717,-0.000300, 0.000220,-0.009968,-0.001281, 0.176939, 0.048511,1,-0.021302, 0.002890,-0.015362,1, 0.293050,-0.035533, 9.802206,1,0
1778258426844,  3363.007,  3363.007,-0.026387, 0.029560,-0.996508,-0.000269, 0.000286,-0.009967, 0.034332, 0.249963, 0.029787,1,-0.011207,-0.000676,-0.021958,1, 0.293122,-0.040248, 9.802186,1,0
1778258426869,  3363.032,  3363.032,-0.020730, 0.037352,-0.995526,-0.000205, 0.000373,-0.009960, 0.089959, 0.326102, 0.039407,1, 0.006494,-0.001685,-0.025231,1, 0.293303,-0.039970, 9.802181,1,0
1778258426891,  3363.057,  3363.052,-0.025164, 0.018776,-0.987569,-0.000254, 0.000201,-0.009882, 0.077324, 0.240147, 0.102475,1, 0.028455,-0.001407,-0.028934,1, 0.293656,-0.035656, 9.802188,1,0
1778258426914,  3363.077,  3363.077,-0.035237, 0.007039,-0.996810,-0.000350, 0.000071,-0.009962,-0.051395, 0.047311, 0.026845,1, 0.069513,-0.003065,-0.023585,1, 0.294258,-0.019527, 9.802215,1,0
1778258426939,  3363.102,  3363.102,-0.043875, 0.008196,-1.000949,-0.000430, 0.000090,-0.010009,-0.135550, 0.075194,-0.013737,1, 0.099448,-0.005924,-0.019209,1, 0.294901,-0.002064, 9.802215,1,0
1778258426961,  3363.127,  3363.122,-0.056748, 0.002443,-0.991987,-0.000567, 0.000030,-0.009917,-0.215290, 0.050088, 0.095923,1, 0.127906,-0.007616,-0.009815,1, 0.296192, 0.021453, 9.802153,1,0
1778258426984,  3363.147,  3363.147,-0.065976,-0.002085,-1.003637,-0.000655,-0.000009,-0.010041,-0.349366, 0.039855,-0.040368,1, 0.161021,-0.004858,-0.002667,1, 0.297790, 0.065332, 9.801909,1,0
1778258427009,  3363.172,  3363.172,-0.075260,-0.006934,-0.993334,-0.000747,-0.000063,-0.009948,-0.439604, 0.026063, 0.060377,1, 0.182632,-0.003780, 0.003124,1, 0.298561, 0.099757, 9.801597,1,0
1778258427031,  3363.197,  3363.192,-0.084838,-0.003567,-0.988149,-0.000840,-0.000022,-0.009879,-0.504185, 0.103612, 0.113931,1, 0.202474,-0.004624, 0.011658,1, 0.299310, 0.138196, 9.801107,1,0
1778258427054,  3363.217,  3363.217,-0.087324,-0.009623,-0.993071,-0.000876,-0.000085,-0.009926,-0.554853, 0.100770, 0.061364,1, 0.225214,-0.009308, 0.014956,1, 0.301803, 0.202154, 9.799920,1,0
1778258427079,  3363.242,  3363.242,-0.081238,-0.010001,-0.998717,-0.000812,-0.000087,-0.009985,-0.493306, 0.142095, 0.004938,1, 0.233989,-0.008873, 0.014367,1, 0.303655, 0.247459, 9.798823,1,0
1778258427101,  3363.267,  3363.262,-0.088386,-0.015728,-0.979120,-0.000868,-0.000141,-0.009783,-0.473537, 0.164908, 0.149389,1, 0.240034,-0.008305, 0.009887,1, 0.305326, 0.293970, 9.797486,1,0
1778258427124,  3363.287,  3363.287,-0.110519,-0.024779,-1.001711,-0.001081,-0.000234,-0.010005,-0.776304, 0.113580,-0.028096,1, 0.238457,-0.008038, 0.006152,1, 0.307800, 0.363949, 9.795059,1,0
1778258427150,  3363.312,  3363.312,-0.108571,-0.031922,-1.010668,-0.001089,-0.000298,-0.010126,-0.755528, 0.090230,-0.117798,1, 0.238053,-0.008848, 0.001464,1, 0.309469, 0.410699, 9.793158,1,0
1778258427171,  3363.337,  3363.332,-0.111467,-0.041226,-0.992590,-0.001089,-0.000390,-0.009891,-0.776503, 0.095833, 0.073899,1, 0.233692,-0.005175,-0.005190,1, 0.310876, 0.456796, 9.791071,1,0
1778258427194,  3363.362,  3363.357,-0.127835,-0.055102,-0.999742,-0.001256,-0.000533,-0.010003,-0.942396,-0.024046,-0.016024,1, 0.223721,-0.000459,-0.004234,1, 0.311242, 0.523293, 9.787731,1,0
1778258427220,  3363.382,  3363.382,-0.147473,-0.057507,-0.975604,-0.001470,-0.000565,-0.009782,-1.135032,-0.004320, 0.218312,1, 0.219086,-0.001952,-0.005206,1, 0.311233, 0.566459, 9.785328,1,0
1778258427241,  3363.407,  3363.402,-0.165341,-0.069254,-0.980316,-0.001646,-0.000688,-0.009778,-1.251105,-0.061734, 0.357867,1, 0.215336,-0.008925,-0.005993,1, 0.312541, 0.609101, 9.782724,1,0
1778258427264,  3363.432,  3363.427,-0.192497,-0.040681,-1.033625,-0.001801,-0.000383,-0.010155,-1.573812, 0.265461,-0.357319,1, 0.204468, 0.000595,-0.007259,1, 0.313902, 0.670781, 9.778646,1,0
1778258427290,  3363.452,  3363.452,-0.215894,-0.034553,-1.010931,-0.001980,-0.000245,-0.009985,-1.803984, 0.366830,-0.137643,1, 0.220634,-0.003956,-0.011578,1, 0.313314, 0.712559, 9.775708,1,0
1778258427311,  3363.477,  3363.472,-0.211798,-0.078210,-0.984373,-0.002095,-0.000705,-0.009811,-1.793245, 0.008675, 0.095193,1, 0.237660,-0.006954,-0.006467,1, 0.313470, 0.757207, 9.772346,1,0
1778258427334,  3363.502,  3363.497,-0.251792,-0.033737,-0.966799,-0.002443,-0.000245,-0.009634,-2.155523, 0.480582, 0.286926,1, 0.166904, 0.007485,-0.033980,1, 0.313394, 0.816645, 9.767562,1,0
1778258427360,  3363.522,  3363.522,-0.229252,-0.087302,-1.016252,-0.002310,-0.000799,-0.010154,-1.938790,-0.010914,-0.200773,1, 0.182939, 0.004175,-0.047185,1, 0.309143, 0.850963, 9.764767,1,0
1778258427381,  3363.547,  3363.542,-0.211497,-0.049676,-0.947279,-0.002181,-0.000473,-0.009425,-1.951641, 0.275140, 0.498051,1, 0.192822,-0.023573,-0.022171,1, 0.312608, 0.888151, 9.761345,1,0
1778258427404,  3363.572,  3363.567,-0.166470,-0.094106,-1.019696,-0.001666,-0.000807,-0.010168,-1.320250, 0.007991,-0.242430,1, 0.157674,-0.005889,-0.048252,1, 0.312305, 0.935800, 9.756902,1,0
1778258427430,  3363.592,  3363.592,-0.185815,-0.076878,-1.018173,-0.001863,-0.000774,-0.010176,-1.509171, 0.209872,-0.230717,1, 0.161256,-0.007400,-0.054441,1, 0.313119, 0.968854, 9.753649,1,0
1778258427451,  3363.617,  3363.612,-0.217178,-0.060595,-0.991870,-0.002187,-0.000583,-0.009979,-1.647733, 0.707284,-0.122278,1, 0.142847,-0.004469,-0.076112,1, 0.312275, 0.998307, 9.750705,1,0
1778258427474,  3363.642,  3363.637,-0.219942,-0.122193,-0.963580,-0.002203,-0.001228,-0.009616,-1.847352,-0.163716, 0.297519,1, 0.124957, 0.004504,-0.069961,1, 0.309169, 1.038531, 9.746602,1,0
1778258427500,  3363.662,  3363.662,-0.229330,-0.081341,-0.980297,-0.002314,-0.000841,-0.009844,-1.941701, 0.258678, 0.131317,1, 0.103776, 0.005833,-0.071518,1, 0.306837, 1.059654, 9.744402,1,0
1778258427521,  3363.687,  3363.682,-0.227982,-0.042789,-1.011041,-0.002277,-0.000495,-0.009979,-1.916398, 0.215510, 0.313635,1, 0.100431,-0.000361,-0.097482,1, 0.304646, 1.080740, 9.742155,1,0
1778258427548,  3363.712,  3363.712,-0.243166,-0.027965,-1.023220,-0.002448,-0.000219,-0.010344,-2.081758, 0.824907,-0.294208,1, 0.067083,-0.019885,-0.138870,1, 0.303021, 1.101367, 9.739895,1,0
1778258427570,  3363.732,  3363.732,-0.224682,-0.112993,-0.942101,-0.002268,-0.001163,-0.009411,-1.900018, 0.006329, 0.499546,1, 0.074873,-0.003867,-0.111740,1, 0.303088, 1.116842, 9.738131,1,0
1778258427592,  3363.757,  3363.752,-0.213608,-0.085559,-0.998134,-0.002132,-0.000918,-0.009887,-1.718240, 0.143156, 0.383664,1, 0.061703,-0.012180,-0.121728,1, 0.301566, 1.129738, 9.736691,1,0
1778258427619,  3363.782,  3363.782,-0.223888,-0.055905,-1.086665,-0.002260,-0.000441,-0.010945,-1.893979, 0.589862,-0.920830,1, 0.024285,-0.033443,-0.188258,1, 0.301968, 1.139032, 9.735595,1,0
1778258427640,  3363.807,  3363.802,-0.179709,-0.128410,-0.934329,-0.001867,-0.001309,-0.009410,-1.690098,-0.193604, 0.008005,1, 0.054954,-0.053954,-0.137342,1, 0.308054, 1.149501, 9.734174,1,0
1778258427662,  3363.827,  3363.822,-0.165993,-0.031415,-1.001417,-0.001696,-0.000293,-0.010053,-1.336868, 0.361009, 0.324344,1, 0.023855,-0.058545,-0.129935,1, 0.315690, 1.158190, 9.732899,1,0
1778258427689,  3363.852,  3363.852,-0.180751,-0.193436,-0.925966,-0.001824,-0.001852,-0.009356,-1.595065, 0.173271, 0.163630,1, 0.036617,-0.097894,-0.180750,1, 0.328567, 1.162595, 9.731947,1,0
1778258427710,  3363.877,  3363.872,-0.126194,-0.059965,-0.948985,-0.001189,-0.000764,-0.009350,-1.052462,-0.188181, 0.834161,1, 0.054676,-0.082211,-0.093269,1, 0.351579, 1.182615, 9.728730,1,0
1778258427732,  3363.897,  3363.892,-0.148737,-0.084058,-1.063322,-0.001536,-0.000660,-0.010699,-1.153801, 1.274346,-0.521985,1,-0.013980,-0.074902,-0.127923,1, 0.364056, 1.183974, 9.728106,1,0
1778258427759,  3363.922,  3363.922,-0.112172,-0.202714,-1.004218,-0.001060,-0.002103,-0.010040,-0.722384,-0.793572,-0.121694,1, 0.035780,-0.069283,-0.108372,1, 0.379383, 1.195612, 9.726097,1,0
1778258427780,  3363.947,  3363.942,-0.081537,-0.000153,-0.996548,-0.000782, 0.000291,-0.010062,-0.197924, 1.728646,-0.067130,1,-0.008038,-0.050472,-0.120084,1, 0.386802, 1.199075, 9.725379,1,0
1778258427802,  3363.967,  3363.962,-0.042365,-0.211915,-0.912916,-0.000359,-0.002123,-0.009096,-0.228326,-0.086983, 0.471926,1, 0.041762,-0.046271,-0.169186,1, 0.393039, 1.204925, 9.724405,1,0
1778258427829,  3363.992,  3363.992, 0.008765,-0.008146,-1.000153, 0.000061,-0.000306,-0.009875, 0.476655, 1.129429,-0.084193,1,-0.022823, 0.014294,-0.142768,1, 0.389705, 1.208785, 9.724061,1,0
1778258427850,  3364.017,  3364.012,-0.030052,-0.117028,-0.875426,-0.000277,-0.001109,-0.009254, 0.155362, 1.271911,-0.374823,1,-0.026989,-0.001472,-0.224463,1, 0.383807, 1.203801, 9.724914,1,0
1778258427872,  3364.037,  3364.032,-0.067513,-0.039426,-0.939713,-0.000588,-0.000606,-0.008982,-0.414291,-0.244951, 1.284836,1,-0.009829, 0.004836,-0.200750,1, 0.381018, 1.203283, 9.725087,1,0
1778258427899,  3364.062,  3364.062,-0.211684, 0.140584,-1.102133,-0.002077, 0.001480,-0.011360,-1.689523, 2.564950,-1.081267,1,-0.088425,-0.103314,-0.298455,1, 0.388457, 1.183918, 9.727169,1,0
1778258427920,  3364.087,  3364.082,-0.404331, 0.005144,-0.772465,-0.004014,-0.000252,-0.007597,-2.920477, 0.124414, 2.021464,1,-0.052914,-0.179515,-0.311129,1, 0.409193, 1.176268, 9.727247,1,0
1778258427942,  3364.107,  3364.102,-0.183956, 0.313757,-1.185234,-0.001972, 0.003396,-0.011804,-2.235538, 3.231902, 0.343319,1,-0.182223,-0.182725,-0.310185,1, 0.438717, 1.156356, 9.728348,1,0
1778258427969,  3364.132,  3364.132, 0.108119,-0.150117,-1.182428, 0.000946,-0.001364,-0.012091, 1.521295,-0.354383,-1.863831,1,-0.124195,-0.059684,-0.445627,1, 0.461275, 1.114564, 9.732182,1,0
1778258427990,  3364.157,  3364.152, 0.084444, 0.043950,-0.860793, 0.000603, 0.000550,-0.009001, 1.436169, 1.502325,-1.118553,1,-0.182000, 0.003724,-0.431157,1, 0.455391, 1.086044, 9.735682,1,0
1778258428012,  3364.177,  3364.172,-0.084081,-0.018653,-0.635190,-0.000747,-0.000125,-0.006123,-0.095528, 0.620871, 2.456226,1,-0.183697, 0.063279,-0.443392,1, 0.437751, 1.056875, 9.739701,1,0
1778258428039,  3364.202,  3364.202,-0.258740, 0.136894,-1.170449,-0.002349, 0.001300,-0.010874,-2.139379, 2.353255,-1.731888,1,-0.224388, 0.061607,-0.473888,1, 0.394560, 1.004421, 9.747094,1,0
1778258428061,  3364.227,  3364.222,-0.398054, 0.186884,-1.438957,-0.003542, 0.001522,-0.014352,-2.774245, 1.218555,-3.899840,1,-0.137527,-0.096532,-0.476180,1, 0.395212, 0.974036, 9.750151,1,0
1778258428083,  3364.247,  3364.247,-0.504958, 0.082511,-0.691116,-0.004977, 0.000924,-0.007418,-4.528188, 1.753104, 2.974376,1,-0.085870,-0.158089,-0.565514,1, 0.426963, 0.942046, 9.751956,1,0
1778258428109,  3364.272,  3364.272,-0.420872, 0.042773,-0.643280,-0.004229, 0.000305,-0.006391,-3.687116, 1.349836, 3.444062,1,-0.186905,-0.105990,-0.580938,1, 0.441799, 0.925385, 9.752890,1,0
1778258428131,  3364.297,  3364.292,-0.229407,-0.075012,-1.126510,-0.002489,-0.000929,-0.010782,-2.956248, 0.215324, 0.615915,1,-0.149396,-0.109864,-0.597234,1, 0.452903, 0.897003, 9.755032,1,0
1778258428153,  3364.317,  3364.317,-0.207469,-0.103108,-1.234412,-0.001819,-0.000777,-0.012256,-1.572080,-0.163061,-2.346491,1,-0.196702,-0.087575,-0.570817,1, 0.463670, 0.842811, 9.759357,1,0
1778258428179,  3364.342,  3364.342,-0.207424,-0.035800,-1.126069,-0.001903,-0.000402,-0.011461,-1.568478, 0.455043,-1.280608,1,-0.274316,-0.040750,-0.534550,1, 0.465546, 0.798386, 9.763003,1,0
1778258428201,  3364.367,  3364.362,-0.168453,-0.061330,-0.894725,-0.001644,-0.000851,-0.009375,-1.217498,-0.708021, 0.546734,1,-0.277661,-0.005463,-0.525154,1, 0.460091, 0.749660, 9.767124,1,0
1778258428223,  3364.387,  3364.387,-0.174527,-0.110624,-0.863418,-0.001492,-0.001142,-0.008350,-1.265927,-0.414565, 1.306318,1,-0.326746, 0.000641,-0.494899,1, 0.444524, 0.660826, 9.774257,1,0
1778258428249,  3364.412,  3364.412,-0.132279,-0.039551,-0.985932,-0.001417,-0.000578,-0.010121,-0.857425, 0.213930, 0.109578,1,-0.403768,-0.006402,-0.447836,1, 0.439123, 0.589856, 9.779040,1,0
1778258428271,  3364.437,  3364.432,-0.146933,-0.054723,-0.833197,-0.001648,-0.000606,-0.008768,-1.207665,-0.652566,-0.244790,1,-0.387825,-0.088765,-0.383904,1, 0.450067, 0.519315, 9.782542,1,0
1778258428294,  3364.457,  3364.457,-0.057597,-0.124259,-0.868257,-0.000581,-0.001155,-0.008443,-0.104962,-0.793110, 1.271911,1,-0.391950,-0.018521,-0.350537,1, 0.459968, 0.413763, 9.787115,1,0
1778258428319,  3364.482,  3364.482,-0.038513,-0.134159,-0.991535,-0.000313,-0.001174,-0.009566, 0.078712,-0.963155, 0.066037,1,-0.373091, 0.009571,-0.301811,1, 0.455757, 0.341305, 9.790106,1,0
1778258428341,  3364.507,  3364.502,-0.022416,-0.127157,-1.111571,-0.000235,-0.001332,-0.010847,-0.588197,-1.965626,-1.307629,1,-0.294715, 0.059986,-0.188855,1, 0.448609, 0.281639, 9.792335,1,0
1778258428364,  3364.527,  3364.527,-0.121603,-0.144698,-1.131932,-0.001159,-0.001716,-0.011713,-0.759748,-1.195065,-1.305931,1,-0.163783, 0.048037,-0.074334,1, 0.431220, 0.218934, 9.794718,1,0
1778258428389,  3364.552,  3364.552,-0.127866,-0.136726,-0.809091,-0.001264,-0.001285,-0.008155,-0.832696,-1.135636, 1.860973,1,-0.076378, 0.054553,-0.038389,1, 0.419515, 0.202857, 9.795572,1,0
1778258428411,  3364.577,  3364.572,-0.229127,-0.117921,-0.820860,-0.002295,-0.001153,-0.008211,-1.861194,-1.333057, 0.906077,1, 0.001549, 0.010809, 0.032063,1, 0.411858, 0.193867, 9.796080,1,0
1778258428434,  3364.602,  3364.597,-0.194771,-0.140016,-1.069385,-0.001995,-0.001430,-0.010646,-1.499072,-1.179956,-0.690957,1, 0.008155,-0.008724, 0.130015,1, 0.411329, 0.193218, 9.796115,1,0
1778258428459,  3364.622,  3364.622,-0.174266,-0.139592,-1.179142,-0.001512,-0.001360,-0.011718,-1.293133,-1.173847,-1.767551,1, 0.030287,-0.026662, 0.166085,1, 0.416771, 0.195807, 9.795833,1,0
1778258428481,  3364.647,  3364.642,-0.109261,-0.119405,-0.949808,-0.000858,-0.001243,-0.009469,-0.612640,-0.847004, 1.979505,1, 0.075522,-0.015266, 0.187693,1, 0.423390, 0.209877, 9.795258,1,0
1778258428504,  3364.672,  3364.667, 0.010667,-0.082794,-0.886962,-0.000135,-0.000885,-0.008792, 0.526068,-0.595737, 1.097074,1, 0.028171, 0.020203, 0.210206,1, 0.420976, 0.216793, 9.795211,1,0
1778258428530,  3364.692,  3364.692,-0.055610,-0.114487,-1.128711,-0.000296,-0.001085,-0.011122,-0.128863,-0.908775,-1.273411,1,-0.007328, 0.027691, 0.208051,1, 0.415767, 0.213463, 9.795506,1,0
1778258428551,  3364.717,  3364.712,-0.157365,-0.102786,-1.067060,-0.002102,-0.001082,-0.011349,-0.088394,-0.164679,-0.210287,1,-0.001671,-0.059446, 0.201700,1, 0.420632, 0.210650, 9.795360,1,0
1778258428574,  3364.742,  3364.737, 0.079437,-0.065103,-1.095932, 0.000594,-0.000373,-0.010761, 1.225819,-0.423211,-0.953316,1, 0.043192,-0.066152, 0.234195,1, 0.449030, 0.216240, 9.793978,1,0
1778258428600,  3364.762,  3364.762, 0.244971,-0.026650,-1.147543, 0.002562,-0.000362,-0.011743, 2.716146,-0.157212,-0.613129,1, 0.060817, 0.013727, 0.249526,1, 0.449124, 0.221191, 9.793862,1,0
1778258428621,  3364.787,  3364.782, 0.091267, 0.074977,-0.449868, 0.000484, 0.000564,-0.005530, 1.400445,-0.361050, 1.701838,1, 0.084880,-0.027427, 0.192953,1, 0.448355, 0.237134, 9.793525,1,0
1778258428644,  3364.812,  3364.807,-0.076503,-0.108674,-0.716408,-0.000175,-0.000704,-0.006494,-0.312622,-0.810825, 2.768005,1, 0.084902, 0.101423, 0.201314,1, 0.434620, 0.257265, 9.793636,1,0
1778258428670,  3364.832,  3364.832, 0.078077,-0.159370,-2.091343, 0.000506,-0.001965,-0.019173, 1.177195,-1.302587,-10.714521,1,-0.155969, 0.079303, 0.236698,1, 0.409244, 0.255128, 9.794785,1,0
1778258428691,  3364.857,  3364.852,-0.146138, 0.109867,-0.008647,-0.001879, 0.001285,-0.000441,-0.329085, 0.829682, 0.177779,1, 0.253091,-0.072578, 0.287818,1, 0.428824, 0.289159, 9.793001,1,0
1778258428714,  3364.882,  3364.877,-0.259947,-0.031975,-1.271966,-0.002468,-0.000921,-0.011235,-2.134166, 0.031581,-2.681942,1,-0.169750, 0.103680, 0.247474,1, 0.412083, 0.339532, 9.792104,1,0
1778258428740,  3364.902,  3364.902,-0.240238,-0.124841,-0.958005,-0.002283,-0.001757,-0.009900,-1.934347,-0.848532, 0.395546,1, 0.328690,-0.020756, 0.210206,1, 0.422479, 0.385705, 9.789950,1,0
1778258428761,  3364.927,  3364.922,-0.175388, 0.053263,-1.021506,-0.001917, 0.000203,-0.010307,-1.365577, 0.968531,-1.131624,1, 0.235682,-0.014376, 0.213045,1, 0.421539, 0.414238, 9.788825,1,0
1778258428788,  3364.952,  3364.952,-0.256070,-0.054900,-0.855872,-0.002123,-0.000385,-0.008209,-2.076881,-0.070301, 1.392594,1, 0.280121,-0.073198, 0.135310,1, 0.436784, 0.476620, 9.785317,1,0
1778258428810,  3364.972,  3364.972,-0.284922, 0.124637,-0.991343,-0.003042, 0.001548,-0.010138,-2.350398, 1.711941, 0.062610,1, 0.081061,-0.057293, 0.050472,1, 0.445592, 0.492126, 9.784153,1,0
1778258428831,  3364.997,  3364.992,-0.177168, 0.062255,-1.129901,-0.001981, 0.001194,-0.011565,-1.969328, 1.744230,-1.909583,1, 0.007848,-0.069142, 0.012988,1, 0.458349, 0.507740, 9.782765,1,0
1778258428858,  3365.022,  3365.022,-0.142481, 0.158995,-0.975734,-0.001645, 0.001286,-0.010263,-0.923108, 2.078942, 0.212704,1,-0.017339,-0.034014,-0.059958,1, 0.475113, 0.519282, 9.781360,1,0
1778258428880,  3365.047,  3365.042,-0.113410, 0.078703,-0.888942,-0.001059, 0.001050,-0.008715,-1.145223, 0.410921, 1.040360,1,-0.068859,-0.040430,-0.113883,1, 0.482846, 0.518596, 9.781017,1,0
1778258428901,  3365.067,  3365.062,-0.100683, 0.095530,-1.064026,-0.001146, 0.000456,-0.010866,-0.182372, 0.084684, 0.707581,1,-0.130311,-0.025253,-0.165142,1, 0.483220, 0.495979, 9.782172,1,0
1778258428928,  3365.092,  3365.092,-0.159456,-0.033950,-1.164292,-0.001492,-0.000361,-0.011484,-1.070794, 0.108113,-1.633495,1,-0.239082,-0.073786,-0.181653,1, 0.494986, 0.433881, 9.784534,1,0
1778258428950,  3365.117,  3365.112,-0.264048, 0.030640,-0.858249,-0.002633,-0.000175,-0.009019,-1.444492, 0.253183, 1.681429,1,-0.242153,-0.075926,-0.193188,1, 0.506367, 0.388902, 9.785844,1,0
1778258428972,  3365.137,  3365.132,-0.197739,-0.101433,-1.069328,-0.002146,-0.001020,-0.010437,-1.327331, 0.271994, 1.447100,1,-0.272732,-0.053738,-0.213931,1, 0.514842, 0.335179, 9.787389,1,0
1778258428999,  3365.162,  3365.162,-0.083641,-0.058895,-1.086396,-0.000892,-0.000356,-0.010336,-0.299792,-0.316608,-0.864559,1,-0.281905,-0.011948,-0.186543,1, 0.520659, 0.252483, 9.789563,1,0
1778258429020,  3365.187,  3365.182,-0.143848,-0.055883,-1.088663,-0.001150,-0.000510,-0.010626,-0.780260,-0.091439,-0.889418,1,-0.268235,-0.036993,-0.156229,1, 0.525775, 0.198310, 9.790537,1,0
1778258429042,  3365.207,  3365.202,-0.145944,-0.005568,-0.942956,-0.001386,-0.000160,-0.009203,-0.825354, 0.048266, 0.694542,1,-0.228612,-0.006863,-0.101504,1, 0.526920, 0.154578, 9.791264,1,0
1778258429069,  3365.232,  3365.232,-0.333762,-0.044980,-1.066902,-0.003340,-0.000653,-0.011207,-2.727089,-0.338400,-0.671841,1,-0.135904,-0.188852,-0.046729,1, 0.551872, 0.098547, 9.790613,1,0
1778258429090,  3365.257,  3365.252,-0.013566,-0.062217,-0.583895,-0.000252,-0.001044,-0.006477,-1.234487,-0.451430, 1.599926,1, 0.088765,-0.069024,-0.025791,1, 0.576568, 0.093826, 9.789236,1,0
1778258429112,  3365.277,  3365.272, 0.166401,-0.005542,-0.445863, 0.001521,-0.000280,-0.004723, 3.069458,-0.058335, 7.553328,1, 0.061498, 0.226554,-0.162798,1, 0.540190, 0.112524, 9.791114,1,0
1778258429139,  3365.302,  3365.302, 0.077323,-0.116311,-2.120203, 0.000971,-0.001182,-0.016406, 1.243421,-1.055385,-10.997821,1,-0.348221, 0.184344,-0.056206,1, 0.479381, 0.074463, 9.794643,1,0
1778258429160,  3365.327,  3365.322,-0.102079, 0.166287, 0.103385,-0.002585, 0.001803,-0.001064,-2.379263, 2.661715,-1.507092,1,-0.019454,-0.224911, 0.042582,1, 0.510823, 0.048382, 9.793218,1,0
1778258429182,  3365.347,  3365.342, 0.219320,-0.431581,-1.204023,-0.000997,-0.003353,-0.006559,-4.222053,-1.624475, 9.375852,1, 0.226684,-0.171490,-0.008007,1, 0.559241, 0.103635, 9.790143,1,0
1778258429209,  3365.372,  3365.372, 0.121298, 0.024746,-1.727792, 0.000700, 0.000367,-0.019104, 1.686215, 0.272157,-7.149837,1,-0.009316,-0.020321,-0.148048,1, 0.497306, 0.029426, 9.793988,1,0
1778258429230,  3365.397,  3365.392, 0.104503, 0.075240,-0.589117, 0.001095, 0.001221,-0.005927, 1.670905, 1.870858, 2.543914,1,-0.043325, 0.025874,-0.091151,1, 0.500088, 0.021304, 9.793867,1,0
1778258429252,  3365.417,  3365.412,-0.066070,-0.002430,-0.902385,-0.000550, 0.000202,-0.008520, 0.122706, 0.071947, 2.063941,1,-0.146990, 0.087298,-0.129328,1, 0.490282, 0.008649, 9.794383,1,0
1778258429279,  3365.442,  3365.442,-0.171195, 0.070263,-0.970516,-0.001240, 0.000672,-0.009330,-1.202023, 0.653724, 0.277470,1,-0.154802, 0.027490,-0.154482,1, 0.475989,-0.039912, 9.795011,1,0
1778258429300,  3365.467,  3365.462,-0.008585, 0.053850,-1.190656,-0.000382, 0.000756,-0.012031, 0.447935, 1.268352, 0.148729,1,-0.224991, 0.141037,-0.122431,1, 0.452306,-0.074078, 9.795934,1,0
1778258429323,  3365.487,  3365.487,-0.080888, 0.028533,-1.132716,-0.001164, 0.000278,-0.012087,-0.364224, 0.154577,-1.311688,1,-0.188759, 0.062763,-0.173208,1, 0.427101,-0.130910, 9.796471,1,0
1778258429349,  3365.512,  3365.512,-0.177200, 0.058760,-1.036860,-0.001582, 0.000383,-0.010415,-1.319771, 0.417469,-0.371673,1,-0.227968, 0.066250,-0.154178,1, 0.415982,-0.165676, 9.796423,1,0
1778258429370,  3365.537,  3365.532,-0.296652, 0.008854,-1.072885,-0.002911, 0.000008,-0.010289,-2.287771,-0.473212,-0.796994,1,-0.188939, 0.002045,-0.159153,1, 0.414487,-0.197086, 9.795904,1,0
1778258429393,  3365.557,  3365.557,-0.225091, 0.033001,-1.174704,-0.001632, 0.000280,-0.012083,-1.794247, 0.078343,-1.725041,1,-0.169483, 0.015066,-0.092772,1, 0.412740,-0.250453, 9.794759,1,0
1778258429419,  3365.582,  3365.582,-0.129061,-0.066085,-0.919105,-0.000904,-0.000502,-0.009158,-0.859996,-0.917678, 0.781206,1,-0.126334, 0.053056,-0.082112,1, 0.404081,-0.273438, 9.794505,1,0
1778258429441,  3365.607,  3365.602,-0.041294,-0.084531,-1.260061,-0.000584,-0.000688,-0.013324, 0.560545,-0.689560,-3.276541,1,-0.237991, 0.082885,-0.094001,1, 0.389957,-0.307505, 9.794067,1,0
1778258429463,  3365.627,  3365.627,-0.389146, 0.029368,-0.493075,-0.003850, 0.000676,-0.005757,-3.434101,-0.035868, 4.958439,1,-0.001872,-0.046411, 0.000273,1, 0.383567,-0.323925, 9.793791,1,0
1778258429489,  3365.652,  3365.652,-0.705868,-0.082943,-0.525649,-0.006761,-0.000675,-0.005642,-5.227840,-0.845073, 5.601312,1, 0.006158,-0.113215, 0.017065,1, 0.395274,-0.320727, 9.793430,1,0
1778258429511,  3365.677,  3365.672, 0.032453,-0.036858,-1.607918, 0.000088,-0.000024,-0.016943,-0.428871,-1.913813,-4.924743,1,-0.375726, 0.225562, 0.076060,1, 0.423775,-0.380128, 9.790112,1,0
1778258429533,  3365.697,  3365.697,-0.079523,-0.117807,-1.056801,-0.000941,-0.000369,-0.011418,-0.364324,-1.541862,-0.573466,1, 0.074150,-0.200128, 0.213247,1, 0.421509,-0.384544, 9.790038,1,0
1778258429559,  3365.722,  3365.722,-0.125842,-0.213457,-0.178803,-0.001348,-0.002296,-0.002023,-0.805478,-2.450989, 8.037283,1, 0.159601, 0.022960, 0.148694,1, 0.427729,-0.352922, 9.790959,1,0
1778258429581,  3365.747,  3365.742,-0.191824,-0.069066,-1.211025,-0.001572,-0.001044,-0.012583,-1.262593,-1.618376,-6.310089,1,-0.225087, 0.029550, 0.191377,1, 0.404717,-0.399838, 9.790133,1,0
1778258429604,  3365.767,  3365.767,-0.260902, 0.076263,-0.694355,-0.002392, 0.000307,-0.006834,-2.140685, 0.373301, 2.981280,1, 0.104862,-0.057868, 0.334117,1, 0.419294,-0.371756, 9.790627,1,0
1778258429629,  3365.792,  3365.792,-0.217909,-0.077514,-0.906449,-0.002270,-0.001284,-0.008924,-1.711858,-1.135435, 0.901010,1,-0.053458,-0.048664, 0.291476,1, 0.426263,-0.377338, 9.790112,1,0
1778258429651,  3365.817,  3365.812,-0.042838,-0.073652,-1.045298,-0.000624,-0.000379,-0.010792,-0.573139,-1.292064,-0.001446,1, 0.053367,-0.078401, 0.277658,1, 0.439572,-0.374511, 9.789633,1,0
1778258429674,  3365.842,  3365.837, 0.182174,-0.000506,-0.941782, 0.001632, 0.000354,-0.009839, 2.231814,-0.392355, 0.553145,1, 0.035539, 0.004843, 0.262134,1, 0.444824,-0.386655, 9.788923,1,0
1778258429699,  3365.862,  3365.862, 0.075112,-0.049166,-1.102507, 0.000861,-0.000071,-0.010911, 1.177631,-0.878899,-1.023209,1,-0.069306,-0.009642, 0.261169,1, 0.441006,-0.399271, 9.788589,1,0
1778258429721,  3365.887,  3365.882, 0.004187,-0.021232,-1.006060, 0.000200,-0.000769,-0.009916, 0.773109,-0.205921, 0.232194,1,-0.012380, 0.030101, 0.294875,1, 0.434705,-0.409175, 9.788462,1,0
1778258429744,  3365.912,  3365.907,-0.062668,-0.037656,-1.139404,-0.000468,-0.000918,-0.011733,-0.190508,-0.803044,-1.385866,1,-0.101201, 0.005013, 0.266560,1, 0.423531,-0.437282, 9.787737,1,0
1778258429769,  3365.932,  3365.932, 0.054330,-0.063618,-0.905291, 0.000529,-0.001060,-0.008993, 0.948740,-1.069309, 0.909817,1,-0.042177, 0.065156, 0.240335,1, 0.413574,-0.447066, 9.787721,1,0
1778258429791,  3365.957,  3365.952, 0.003574,-0.010046,-0.840005, 0.000212, 0.000054,-0.007542,-0.064996,-1.363352, 1.827758,1,-0.050500, 0.034460, 0.200043,1, 0.402970,-0.469539, 9.787110,1,0
1778258429814,  3365.982,  3365.977, 0.064232, 0.093363,-1.251972, 0.000562, 0.000632,-0.012021, 1.010254, 0.402499,-2.491832,1,-0.252565, 0.075524, 0.206338,1, 0.377668,-0.521196, 9.785505,1,0
1778258429839,  3366.002,  3366.002,-0.049125, 0.082778,-1.113570,-0.000617, 0.000626,-0.011221,-0.102656, 0.263349,-1.136436,1,-0.148581,-0.009762, 0.230339,1, 0.378995,-0.553327, 9.783689,1,0
1778258429861,  3366.027,  3366.022,-0.182552,-0.122159,-0.931347,-0.001883,-0.000671,-0.008666,-0.783048,-0.189852, 2.872774,1,-0.205486, 0.048521, 0.207543,1, 0.375665,-0.580042, 9.782270,1,0
1778258429884,  3366.052,  3366.047,-0.257953,-0.183029,-1.592191,-0.001898,-0.000941,-0.015899,-2.149766,-2.439616,-5.836009,1,-0.185524,-0.115887, 0.243110,1, 0.383001,-0.650782, 9.777534,1,0
1778258429910,  3366.072,  3366.072,-0.262984, 0.018464,-0.435497,-0.002298, 0.000977,-0.005382,-2.181893,-0.486320, 5.505083,1, 0.029787,-0.125057, 0.299734,1, 0.400352,-0.666846, 9.775757,1,0
1778258429931,  3366.097,  3366.092,-0.024200, 0.001994,-1.566850,-0.000929,-0.001289,-0.016004,-0.969745,-3.502155, 0.654489,1,-0.414327, 0.171295, 0.254327,1, 0.388984,-0.679625, 9.775335,1,0
1778258429954,  3366.122,  3366.117,-0.161261,-0.021747,-0.967649,-0.001782,-0.001425,-0.009919,-1.200671,-0.951877, 0.281980,1,-0.043759,-0.074512, 0.385834,1, 0.382173,-0.740441, 9.771186,1,0
1778258429980,  3366.142,  3366.142,-0.233389,-0.042589,-0.681618,-0.002724,-0.001111,-0.007385,-1.901715,-1.158225, 3.086595,1, 0.011795, 0.000582, 0.411889,1, 0.386060,-0.740710, 9.771013,1,0
1778258430001,  3366.167,  3366.162,-0.199017,-0.248221,-1.313342,-0.002041,-0.001592,-0.012715,-1.260149,-2.330829,-0.990175,1, 0.032385,-0.019366, 0.463571,1, 0.378849,-0.746881, 9.770825,1,0
1778258430028,  3366.192,  3366.192,-0.246504,-0.245627,-1.182102,-0.001856,-0.001792,-0.011872,-2.027848,-3.128018,-1.819986,1, 0.228984,-0.132100, 0.537502,1, 0.392412,-0.712784, 9.772837,1,0
1778258430050,  3366.212,  3366.212,-0.232095,-0.248184,-0.846273,-0.001774,-0.002154,-0.008619,-1.871912,-3.108196, 1.475973,1, 0.316063,-0.111655, 0.588366,1, 0.406373,-0.665260, 9.775617,1,0
1778258430071,  3366.237,  3366.232, 0.021575,-0.150216,-0.773212,-0.000140,-0.001350,-0.007217,-1.545016,-3.438238, 0.819085,1, 0.408295,-0.075375, 0.643019,1, 0.408857,-0.613678, 9.778887,1,0
1778258430098,  3366.262,  3366.262, 0.020786,-0.131801,-1.392125, 0.000383,-0.000992,-0.013716, 0.607538,-1.835440,-3.868804,1, 0.266843,-0.052228, 0.709285,1, 0.404094,-0.535515, 9.783676,1,0
1778258430120,  3366.287,  3366.282,-0.035714,-0.104466,-0.671768,-0.000909,-0.001801,-0.007134,-0.123933,-2.318533, 0.966775,1, 0.444624,-0.125110, 0.744313,1, 0.423204,-0.453419, 9.787017,1,0
1778258430141,  3366.307,  3366.302, 0.095614,-0.129284,-1.195718, 0.000464,-0.001861,-0.012174, 0.407994,-2.207346, 0.351952,1, 0.343873, 0.019675, 0.747177,1, 0.420125,-0.379367, 9.790299,1,0
1778258430168,  3366.332,  3366.332, 0.164289,-0.071476,-1.094877, 0.001286,-0.001274,-0.011258, 2.037936,-0.995598,-0.944160,1, 0.358844,-0.072697, 0.720328,1, 0.428398,-0.284446, 9.793159,1,0
1778258430190,  3366.357,  3366.352, 0.027945, 0.021939,-1.042843, 0.000565, 0.000491,-0.010524, 2.337826, 0.272195,-0.585040,1, 0.327047, 0.073158, 0.721567,1, 0.419069,-0.213918, 9.795356,1,0
1778258430211,  3366.377,  3366.372,-0.270943,-0.065964,-0.706570,-0.003006,-0.001164,-0.008111,-1.229431,-0.571427, 0.642277,1, 0.238229,-0.173885, 0.570735,1, 0.436497,-0.161591, 9.795598,1,0
1778258430238,  3366.402,  3366.402,-0.104060, 0.088836,-0.807106,-0.001630, 0.000531,-0.007503,-0.553172, 0.781738, 1.880090,1, 0.124384,-0.015256, 0.467223,1, 0.467651,-0.086263, 9.795114,1,0
1778258430260,  3366.427,  3366.422, 0.016668, 0.125023,-1.052489, 0.000324, 0.000818,-0.011387, 1.541133, 0.356111, 1.837512,1, 0.199759,-0.000659, 0.368272,1, 0.470145,-0.060718, 9.795186,1,0
1778258430281,  3366.447,  3366.442, 0.089482, 0.071663,-1.073637, 0.000718, 0.001130,-0.010957, 2.253622, 0.809619,-1.346621,1, 0.056340, 0.009209, 0.270270,1, 0.463242,-0.059538, 9.795522,1,0
1778258430308,  3366.472,  3366.472,-0.004256, 0.040767,-1.014055, 0.000021, 0.001094,-0.010118, 0.410788, 0.336501,-0.148482,1, 0.020197, 0.040303, 0.181971,1, 0.451237,-0.062920, 9.796061,1,0
1778258430330,  3366.497,  3366.492,-0.086255, 0.099438,-0.810226,-0.000945, 0.000869,-0.007939,-1.566351, 0.366053,-0.021920,1,-0.038463, 0.004976, 0.108069,1, 0.447356,-0.078105, 9.796129,1,0
1778258430352,  3366.517,  3366.512,-0.188222, 0.019062,-0.966917,-0.001790, 0.000126,-0.008722,-1.798094,-0.199561, 2.079521,1,-0.051460, 0.024852, 0.050388,1, 0.439250,-0.091883, 9.796377,1,0
1778258430379,  3366.542,  3366.542,-0.131754, 0.070618,-1.103220,-0.001025, 0.000681,-0.010516,-0.856638, 0.566308,-1.022732,1,-0.116124, 0.029750, 0.023780,1, 0.434494,-0.129870, 9.796159,1,0
1778258430400,  3366.567,  3366.562, 0.036759,-0.014839,-0.948143,-0.000206,-0.000127,-0.009532, 0.033095, 0.512680,-1.116201,1,-0.098575, 0.034675, 0.039361,1, 0.426509,-0.147667, 9.796258,1,0
1778258430422,  3366.587,  3366.582,-0.013075,-0.015561,-0.997976,-0.000267,-0.000254,-0.009584,-0.675491,-0.242911,-0.199513,1,-0.074644, 0.025497, 0.060803,1, 0.422569,-0.163741, 9.796173,1,0
1778258430449,  3366.612,  3366.612,-0.012649, 0.023295,-1.125980,-0.000197,-0.000291,-0.011316, 0.292301, 0.055674,-1.245803,1,-0.033651,-0.000586, 0.063581,1, 0.416325,-0.173909, 9.796266,1,0
1778258430470,  3366.637,  3366.632,-0.058029,-0.037476,-1.041183,-0.000659, 0.000096,-0.010283, 0.601029, 0.097724,-0.020827,1, 0.037412,-0.007487, 0.074348,1, 0.417228,-0.166518, 9.796355,1,0
1778258430492,  3366.657,  3366.652,-0.023508,-0.061167,-1.057530,-0.000428,-0.000299,-0.010582, 0.764266, 0.272371,-1.146960,1, 0.088167, 0.037477, 0.087550,1, 0.413043,-0.150575, 9.796791,1,0
1778258430519,  3366.682,  3366.682,-0.064192,-0.062603,-0.876142,-0.001097,-0.000447,-0.009013,-0.222936,-0.720288, 1.205616,1, 0.209998, 0.024575, 0.074318,1, 0.405781,-0.099908, 9.797742,1,0
1778258430540,  3366.707,  3366.702,-0.256015, 0.011065,-1.082194,-0.001915, 0.000163,-0.010360,-0.763766,-0.429157, 1.037090,1, 0.216169,-0.003451, 0.074233,1, 0.402847,-0.064324, 9.798162,1,0
1778258430563,  3366.727,  3366.727,-0.277664, 0.046614,-1.016928,-0.002342, 0.000497,-0.010508,-2.299561, 0.442666,-0.175163,1, 0.278215,-0.065776, 0.103337,1, 0.425442,-0.005926, 9.797416,1,0
1778258430589,  3366.752,  3366.752,-0.066917,-0.055487,-0.992038,-0.000921,-0.000383,-0.008348,-0.230121,-0.500375, 0.068713,1, 0.161282, 0.049697, 0.100561,1, 0.424570, 0.048664, 9.797334,1,0
1778258430610,  3366.777,  3366.772,-0.098988, 0.052897,-0.620320,-0.001233, 0.000517,-0.006652,-1.706043,-0.000048,-4.798176,1, 0.359339,-0.194006, 0.119656,1, 0.451037, 0.078156, 9.795960,1,0
1778258430633,  3366.797,  3366.797,-0.180177,-0.021158,-0.493205,-0.001726,-0.000151,-0.004149,-1.284751,-0.032859, 4.956536,1, 0.195480, 0.003246, 0.039993,1, 0.482106, 0.180660, 9.793126,1,0
1778258430659,  3366.822,  3366.822,-0.178692, 0.029724,-1.272056,-0.001304, 0.000326,-0.013116,-1.272252, 0.482083,-2.681573,1, 0.183487,-0.040088, 0.001951,1, 0.481364, 0.196305, 9.792862,1,0
1778258430680,  3366.847,  3366.842,-0.052353, 0.073090,-0.785577,-0.000955, 0.000751,-0.007865,-2.052966, 0.949367, 0.390546,1, 0.200076,-0.114647, 0.013387,1, 0.500743, 0.241569, 9.790877,1,0
1778258430703,  3366.867,  3366.867,-0.057017,-0.009921,-1.115366,-0.000055, 0.000031,-0.009883,-0.042315, 0.183798,-1.149019,1, 0.056027,-0.031440,-0.028755,1, 0.517789, 0.282881, 9.788884,1,0
1778258430729,  3366.892,  3366.892,-0.157160,-0.035017,-1.438749,-0.000481,-0.000569,-0.013532,-1.015079,-0.043586,-4.321374,1, 0.106620,-0.083749,-0.049160,1, 0.528706, 0.303182, 9.787693,1,0
1778258430750,  3366.917,  3366.912, 0.043022, 0.033091,-0.604362, 0.000241, 0.000585,-0.005715,-2.107927, 1.270643, 3.172620,1, 0.131856,-0.056309,-0.069437,1, 0.542802, 0.330281, 9.786044,1,0
1778258430773,  3366.937,  3366.937,-0.058903,-0.025677,-1.627912, 0.000421, 0.000051,-0.014760,-0.032505, 0.086616,-6.178724,1, 0.009944,-0.097251,-0.133917,1, 0.548022, 0.338967, 9.785457,1,0
1778258430799,  3366.962,  3366.962,-0.191426, 0.096775,-0.812280,-0.001318, 0.000591,-0.008739,-1.309459, 1.294293, 1.818360,1, 0.068660,-0.093287,-0.126719,1, 0.570560, 0.347622, 9.783865,1,0
1778258430821,  3366.987,  3366.982, 0.116359, 0.064250,-1.524913, 0.001017, 0.000243,-0.014796,-0.119186, 1.317091, 3.243334,1,-0.140473, 0.058908,-0.182662,1, 0.567924, 0.348482, 9.783987,1,0
1778258430843,  3367.007,  3367.007,-0.103928, 0.044919,-0.778399,-0.000646, 0.000463,-0.008092,-0.446083, 0.754097, 2.151377,1,-0.024962,-0.153547,-0.215232,1, 0.577670, 0.313211, 9.784610,1,0
1778258430869,  3367.032,  3367.032, 0.137137,-0.032339,-0.857782, 0.001920,-0.000692,-0.007288, 1.916114,-0.017719, 1.373446,1,-0.150288, 0.215289,-0.233562,1, 0.564333, 0.295159, 9.785949,1,0
1778258430891,  3367.057,  3367.052, 0.181551,-0.080631,-1.556817, 0.001384,-0.000244,-0.014497, 0.051655, 0.719211,-2.396237,1,-0.214905, 0.069559,-0.244567,1, 0.530342, 0.256832, 9.788930,1,0
1778258430913,  3367.082,  3367.077,-0.169246,-0.030055,-0.433118,-0.001091, 0.000143,-0.004770,-1.102270,-0.070705, 5.540793,1, 0.134196,-0.205877,-0.214356,1, 0.563732, 0.228596, 9.787765,1,0
1778258430939,  3367.102,  3367.102,-0.452565,-0.053296, 0.078277,-0.003717,-0.000212, 0.001664,-3.839550,-0.276096,10.552891,1, 0.042638, 0.131271,-0.218295,1, 0.594333, 0.248303, 9.785474,1,0
1778258430961,  3367.127,  3367.122,-0.049333,-0.250608,-1.566688,-0.000789,-0.002638,-0.017024, 0.248009, 1.661190,-6.478740,1,-0.376552, 0.117397,-0.240314,1, 0.509587, 0.155346, 9.792169,1,0
1778258430984,  3367.152,  3367.147, 0.020202, 0.047458,-0.834783, 0.000133, 0.000462,-0.008657, 0.712276, 0.610300, 1.605661,1,-0.023784, 0.001722,-0.119929,1, 0.514053, 0.144347, 9.792104,1,0
1778258431009,  3367.172,  3367.172,-0.122294,-0.063379,-0.832388,-0.000606,-0.000397,-0.007717,-0.690573,-0.492089, 1.629655,1,-0.167108, 0.039149,-0.071651,1, 0.507476, 0.124350, 9.792721,1,0
1778258431031,  3367.197,  3367.192,-0.032024,-0.123603,-0.978443,-0.001068,-0.001297,-0.009956,-2.304392,-1.505156,-2.415787,1,-0.060616,-0.006853,-0.060648,1, 0.500796, 0.097363, 9.793370,1,0
1778258431054,  3367.222,  3367.217, 0.099055,-0.003052,-1.017106, 0.001383,-0.000133,-0.009074, 1.458139, 0.062846,-0.180283,1,-0.076544, 0.117066, 0.026260,1, 0.483099, 0.090350, 9.794327,1,0
1778258431079,  3367.242,  3367.242,-0.228016,-0.067359,-1.472373,-0.000949,-0.000476,-0.014937,-1.752770,-0.581347,-4.644632,1,-0.010614,-0.067539, 0.047520,1, 0.485417, 0.078814, 9.794312,1,0
1778258431101,  3367.267,  3367.262,-0.004152,-0.097890,-1.133528, 0.000058,-0.001021,-0.009984,-1.405630,-0.858044, 1.684018,1, 0.112065, 0.039800, 0.089766,1, 0.490046, 0.099950, 9.793888,1,0
1778258431124,  3367.292,  3367.287,-0.206974,-0.063399,-0.864825,-0.001580,-0.000846,-0.008829,-1.530344,-0.511236, 1.312264,1, 0.159519,-0.076081, 0.125351,1, 0.501806, 0.115289, 9.793124,1,0
1778258431149,  3367.312,  3367.312,-0.322734,-0.121610,-0.916915,-0.002113,-0.001464,-0.009398,-2.656544,-1.057369, 0.800662,1, 0.075015,-0.042449, 0.151195,1, 0.509782, 0.137314, 9.792428,1,0
1778258431171,  3367.337,  3367.332,-0.017952,-0.079643,-1.543774, 0.000892,-0.000500,-0.014432, 0.656479,-1.197335,-6.395480,1, 0.151784,-0.017064, 0.183221,1, 0.517266, 0.152456, 9.791812,1,0
1778258431194,  3367.362,  3367.357,-0.433082,-0.037292,-0.375203,-0.003112,-0.000252,-0.003914,-3.699520,-0.156661, 6.109625,1, 0.292521,-0.247091, 0.199407,1, 0.555395, 0.217813, 9.788487,1,0
1778258431219,  3367.382,  3367.382,-0.431061,-0.034381,-0.416746,-0.004270,-0.000814,-0.005116,-3.652932,-0.092473, 5.699873,1, 0.141654,-0.068785, 0.153774,1, 0.576594, 0.248818, 9.786522,1,0
1778258431241,  3367.407,  3367.402,-0.001305,-0.043953,-1.133171, 0.000077,-0.000566,-0.011412,-0.583820,-0.120024, 2.683232,1, 0.036168, 0.078362, 0.117626,1, 0.573685, 0.271498, 9.786090,1,0
1778258431268,  3367.432,  3367.432,-0.118101, 0.008128,-1.303849,-0.000842, 0.000141,-0.013346,-0.596642, 0.345069,-2.999431,1, 0.131449,-0.022516, 0.152843,1, 0.562368, 0.269181, 9.786811,1,0
1778258431290,  3367.452,  3367.452,-0.137562, 0.060324,-0.940393,-0.001733, 0.000635,-0.009365,-0.787373, 0.872246, 0.564424,1, 0.075167, 0.024422, 0.112745,1, 0.560994, 0.282813, 9.786506,1,0
1778258431311,  3367.477,  3367.472,-0.265738, 0.022398,-0.930184,-0.002758, 0.000121,-0.009219,-0.560695, 1.147060, 2.295324,1,-0.005450, 0.042590, 0.028669,1, 0.554643, 0.283430, 9.786849,1,0
1778258431338,  3367.502,  3367.502,-0.015539, 0.123279,-1.519441,-0.001540, 0.001061,-0.016269, 0.397305, 1.484468,-5.113269,1, 0.013124,-0.046771,-0.046709,1, 0.551105, 0.276007, 9.787262,1,0
1778258431360,  3367.527,  3367.522, 0.010505, 0.084992,-0.604357,-0.000893, 0.001049,-0.005758, 1.897825, 1.317302, 4.018525,1, 0.138739, 0.010995,-0.046001,1, 0.559587, 0.292159, 9.786311,1,0
1778258431381,  3367.547,  3367.542, 0.132101,-0.038105,-1.266180, 0.000599, 0.000252,-0.012813,-0.038882, 0.100207,-2.336807,1,-0.168829, 0.073504,-0.074655,1, 0.541914, 0.288586, 9.787412,1,0
1778258431408,  3367.572,  3367.572, 0.035567, 0.027369,-1.027148, 0.000703,-0.000075,-0.009878, 0.884043, 0.553473,-0.285000,1,-0.014841, 0.042081,-0.134064,1, 0.533814, 0.284837, 9.787967,1,0
1778258431430,  3367.597,  3367.592, 0.040422,-0.007256,-0.970462, 0.000166, 0.000049,-0.010218, 0.682086, 1.640414,-1.865773,1,-0.034592, 0.064524,-0.095578,1, 0.519046, 0.278175, 9.788953,1,0
1778258431451,  3367.617,  3367.612,-0.092351,-0.093884,-0.700487,-0.000679,-0.000855,-0.006734,-1.018317, 0.752804, 0.869129,1,-0.031373, 0.034351,-0.113991,1, 0.508133, 0.278063, 9.789529,1,0
1778258431478,  3367.642,  3367.642,-0.267507, 0.032354,-1.058064,-0.002050,-0.000225,-0.010494,-2.126022, 0.598599,-0.586069,1,-0.146696,-0.035307,-0.122091,1, 0.498319, 0.276938, 9.790065,1,0
1778258431500,  3367.667,  3367.662,-0.175432,-0.020130,-0.686368,-0.001583,-0.000386,-0.006672,-2.264079, 0.590616, 1.513968,1,-0.018057,-0.046709,-0.138587,1, 0.514894, 0.276065, 9.789231,1,0
1778258431521,  3367.687,  3367.682, 0.049719, 0.014926,-0.930619, 0.000264,-0.000194,-0.008973,-0.139507, 0.763749, 4.690624,1, 0.012804, 0.099182,-0.101941,1, 0.505980, 0.285000, 9.789440,1,0
1778258431548,  3367.712,  3367.712,-0.090229,-0.032217,-1.086700,-0.001052, 0.000115,-0.010955,-0.392190,-0.061585,-0.865924,1, 0.025028,-0.010714,-0.093006,1, 0.492910, 0.255279, 9.790927,1,0
1778258431570,  3367.737,  3367.732,-0.012717, 0.097023,-1.452137,-0.000096, 0.000466,-0.013438,-0.129911,-0.441888, 0.525809,1,-0.149456, 0.097381,-0.105285,1, 0.481761, 0.251714, 9.791574,1,0
1778258431591,  3367.757,  3367.752,-0.069484, 0.126188,-1.287024,-0.001254, 0.001219,-0.014146, 0.496378,-0.433261,-6.632531,1,-0.007732,-0.006973,-0.079314,1, 0.471538, 0.232294, 9.792552,1,0
1778258431618,  3367.782,  3367.782,-0.056963,-0.094200,-0.638334,-0.001277,-0.000210,-0.006566,-0.066247,-0.675751, 3.531219,1, 0.051826,-0.064577,-0.091929,1, 0.494314, 0.249793, 9.790998,1,0
1778258431640,  3367.807,  3367.802, 0.006760,-0.014002,-1.256554,-0.000686, 0.000260,-0.012616,-1.914921,-0.516349,-2.282898,1,-0.015116,-0.008194,-0.069528,1, 0.493617, 0.252167, 9.790973,1,0
1778258431662,  3367.827,  3367.822,-0.074432,-0.062142,-1.103598, 0.000624,-0.000657,-0.010767,-1.914921,-0.516349,-2.282898,1,-0.015116,-0.008194,-0.069528,1, 0.493617, 0.252167, 9.790973,1,0
1778258431688,  3367.852,  3367.852,-0.151263,-0.075164,-0.716338,-0.000997,-0.001000,-0.007086,-0.983353,-0.424475, 2.764025,1, 0.161335, 0.005213, 0.022935,1, 0.499887, 0.317619, 9.788750,1,0
1778258431710,  3367.877,  3367.872,-0.185764,-0.143784,-1.212999,-0.000901,-0.001080,-0.012152,-0.091112,-1.050511,-1.337828,1, 0.138156, 0.011709, 0.012769,1, 0.492108, 0.333568, 9.788613,1,0
1778258431732,  3367.897,  3367.892,-0.248599,-0.153792,-1.182602,-0.002456,-0.001194,-0.011303, 2.333013,-0.554756,-0.931734,1, 0.194677,-0.005663, 0.043263,1, 0.488137, 0.360074, 9.787872,1,0
1778258431759,  3367.922,  3367.922,-0.137672,-0.048985,-0.480557,-0.003095,-0.000933,-0.007158,-0.830073,-0.075783, 5.071828,1, 0.239211,-0.170991, 0.088980,1, 0.525470, 0.411900, 9.783895,1,0
1778258431780,  3367.947,  3367.942,-0.048688,-0.160831,-1.162451,-0.001927,-0.000969,-0.011020,-0.695793,-2.153596,-2.355710,1,-0.053273, 0.006883, 0.070992,1, 0.541530, 0.448943, 9.781389,1,0
1778258431803,  3367.967,  3367.967,-0.060332,-0.131526,-0.841474,-0.000335,-0.001619,-0.008843,-0.025163,-0.814263, 1.526670,1, 0.171814,-0.085786, 0.101700,1, 0.569312, 0.480730, 9.778301,1,0
1778258431829,  3367.992,  3367.992, 0.202264,-0.002383,-0.780343, 0.001766,-0.000496,-0.007432, 2.543874, 0.474579, 2.125402,1, 0.087932, 0.106219, 0.084289,1, 0.557170, 0.500538, 9.778007,1,0
1778258431850,  3368.017,  3368.012, 0.063148,-0.019371,-1.379006, 0.001093,-0.000706,-0.013505, 1.442075,-0.082790,-3.912738,1,-0.083255, 0.127071, 0.073270,1, 0.531904, 0.490212, 9.779936,1,0
1778258431873,  3368.037,  3368.037,-0.108343, 0.082119,-1.224145,-0.001267, 0.000732,-0.012381,-0.538343, 1.290745,-2.224166,1,-0.045177, 0.002529, 0.026390,1, 0.524104, 0.483983, 9.780667,1,0
1778258431899,  3368.062,  3368.062, 0.103308,-0.018649,-0.703857,-0.000230, 0.000621,-0.008080, 1.535735, 0.298322, 2.878403,1,-0.002117, 0.017887,-0.038826,1, 0.522016, 0.481207, 9.780916,1,0
1778258431920,  3368.087,  3368.082,-0.023681,-0.008318,-0.871521,-0.001393, 0.000811,-0.008897,-1.112918, 0.134788,-0.520141,1,-0.017024,-0.015640,-0.041082,1, 0.520544, 0.473219, 9.781384,1,0
1778258431943,  3368.107,  3368.107,-0.045284,-0.031751,-1.067650, 0.000425,-0.000514,-0.010313, 0.079749, 0.141645,-0.687908,1,-0.074030,-0.021612,-0.089259,1, 0.524379, 0.450860, 9.782236,1,0
1778258431969,  3368.132,  3368.132,-0.082127, 0.089587,-1.009434,-0.000657, 0.000326,-0.010506,-0.284662, 1.312686,-0.115983,1,-0.099817, 0.036518,-0.092060,1, 0.519465, 0.431187, 9.783385,1,0
1778258431990,  3368.157,  3368.152,-0.145493, 0.047450,-0.902854,-0.000416,-0.000361,-0.009090, 0.932216,-0.065431, 2.945161,1,-0.067506, 0.139373,-0.112930,1, 0.499017, 0.426600, 9.784650,1,0
1778258432013,  3368.177,  3368.177,-0.176364, 0.032641,-1.395443,-0.001614,-0.000199,-0.014026,-1.250790, 0.701797,-3.897105,1,-0.134722, 0.036362,-0.122150,1, 0.477471, 0.377686, 9.787735,1,0
1778258432039,  3368.202,  3368.202,-0.130334,-0.002532,-0.524287,-0.002131, 0.000951,-0.005760,-0.800848, 0.350790, 4.646325,1, 0.043065,-0.023653,-0.096866,1, 0.477915, 0.377106, 9.787736,1,0
1778258432060,  3368.227,  3368.222,-0.207944,-0.131564,-0.754579,-0.002838,-0.000636,-0.007489,-2.199071, 0.049508, 0.188224,1,-0.042106,-0.073275,-0.037727,1, 0.481546, 0.363145, 9.788086,1,0
1778258432083,  3368.247,  3368.247,-0.243187,-0.148290,-1.420635,-0.001253,-0.001955,-0.013732,-1.889534,-1.088169,-4.144383,1,-0.097434,-0.069471,-0.004806,1, 0.497471, 0.363030, 9.787293,1,0
1778258432109,  3368.272,  3368.272,-0.188656, 0.012559,-1.033267,-0.002004,-0.000450,-0.011801,-1.339885, 0.496920,-0.346652,1, 0.130607,-0.032650, 0.039117,1, 0.511264, 0.377759, 9.786025,1,0
1778258432130,  3368.297,  3368.292,-0.092666,-0.053315,-0.851947,-0.000650,-0.000692,-0.007111, 0.422840,-1.285908, 3.120371,1, 0.112154, 0.027940, 0.045428,1, 0.515787, 0.417635, 9.784167,1,0
1778258432153,  3368.322,  3368.317, 0.048328,-0.051763,-1.236948,-0.000178,-0.000338,-0.012850, 0.965636,-0.073691,-2.345615,1, 0.085135, 0.084136, 0.032211,1, 0.489121, 0.436531, 9.784712,1,0
1778258432179,  3368.342,  3368.342, 0.007715,-0.013257,-1.094763, 0.000280, 0.000109,-0.011305, 0.565313, 0.329746,-0.952338,1, 0.196304,-0.037222, 0.037253,1, 0.490872, 0.465806, 9.783275,1,0
1778258432201,  3368.367,  3368.362,-0.078703,-0.016181,-0.812065,-0.000057, 0.000122,-0.007501,-2.245852, 1.635044,-0.106942,1, 0.150641, 0.015942, 0.030326,1, 0.490208, 0.495598, 9.781843,1,0
1778258432223,  3368.392,  3368.387,-0.303261, 0.124717,-1.183029,-0.002335, 0.000251,-0.011996,-2.481330, 1.751213,-1.821539,1, 0.078306, 0.018698,-0.032695,1, 0.492006, 0.530647, 9.779915,1,0
1778258432249,  3368.412,  3368.412, 0.159961, 0.006989,-1.117505,-0.000002, 0.000702,-0.010390, 2.063417, 0.622938,-1.180526,1, 0.052821,-0.015804,-0.078611,1, 0.495084, 0.556172, 9.778340,1,0
1778258432271,  3368.437,  3368.432, 0.087512,-0.085088,-0.836643,-0.000231, 0.000070,-0.006492, 0.635593,-0.116685, 1.924892,1, 0.195163,-0.080184,-0.063900,1, 0.504312, 0.582387, 9.776342,1,0
1778258432293,  3368.462,  3368.457,-0.014857, 0.010336,-0.798348,-0.000446, 0.000355,-0.010357, 0.359952, 0.699163, 1.946218,1, 0.143821,-0.086162,-0.124112,1, 0.508098, 0.602481, 9.774929,1,0
1778258432319,  3368.482,  3368.482,-0.023000, 0.024336,-1.389158, 0.001058,-0.000325,-0.012242, 0.281607, 0.849643,-3.848538,1,-0.244051, 0.059997,-0.139164,1, 0.505021, 0.603624, 9.775018,1,0
1778258432341,  3368.507,  3368.502,-0.077539, 0.067444,-0.761339, 0.000394,-0.000089,-0.007172, 0.734151, 0.392376, 1.510414,1, 0.084428,-0.014032,-0.118335,1, 0.508234, 0.612497, 9.774300,1,0
1778258432364,  3368.532,  3368.527,-0.021625,-0.086683,-0.948453,-0.001199,-0.000180,-0.010283, 0.297300,-0.234619, 0.472907,1,-0.057362, 0.000917,-0.128685,1, 0.509083, 0.613878, 9.774169,1,0
1778258432389,  3368.552,  3368.552, 0.059280,-0.129838,-0.606147, 0.000425,-0.000835,-0.005687, 1.092913,-0.651816, 3.829286,1, 0.119544,-0.005524,-0.131171,1, 0.511489, 0.625396, 9.773313,1,0
1778258432411,  3368.577,  3368.572, 0.190906,-0.206030,-1.429281, 0.001677,-0.000914,-0.015160, 2.054529, 1.132165,-2.739535,1,-0.183815, 0.106147,-0.125045,1, 0.488226, 0.603175, 9.775899,1,0
1778258432434,  3368.602,  3368.597, 0.110141, 0.041629,-0.578506, 0.001410,-0.000327,-0.005847, 1.561432, 1.013700, 4.102897,1, 0.100701, 0.010861,-0.080693,1, 0.480821, 0.608718, 9.775923,1,0
1778258432459,  3368.622,  3368.622, 0.028328, 0.063024,-1.174703, 0.000482, 0.000463,-0.010134, 0.737372, 1.212648,-1.742095,1,-0.175350, 0.141013,-0.100806,1, 0.454986, 0.589288, 9.778349,1,0
1778258432481,  3368.647,  3368.642,-0.119121, 0.108198,-0.997967,-0.000523,-0.000401,-0.010625, 1.524151, 0.259902,-2.922105,1, 0.031390,-0.012730,-0.128823,1, 0.450539, 0.579629, 9.779132,1,0
1778258432508,  3368.672,  3368.672, 0.099922, 0.088216,-0.743838,-0.000519, 0.001320,-0.007830, 1.420690, 1.458109, 2.484212,1,-0.051378, 0.036815,-0.125704,1, 0.439407, 0.591584, 9.778923,1,0
1778258432529,  3368.692,  3368.692, 0.207537,-0.120234,-1.010444, 0.002280,-0.000332,-0.009572, 2.470441,-0.586839,-0.130001,1, 0.151265, 0.032881,-0.127895,1, 0.433919, 0.597109, 9.778832,1,0
1778258432551,  3368.717,  3368.712, 0.191611,-0.070672,-1.066584, 0.001280, 0.000373,-0.010101,-1.741285, 1.030661,-2.175383,1,-0.038960,-0.112977,-0.118166,1, 0.443712, 0.594401, 9.778558,1,0
