Time,GPS_ts,fGPS_ts,scaledAccelX,scaledAccelY,scaledAccelZ,deltaVelX,deltaVelY,deltaVelZ,estLinearAccelX,estLinearAccelY,estLinearAccelZ,estLinearAccel:valid,estAngularRateX,estAngularRateY,estAngularRateZ,estAngularRate:valid,estGravityX,estGravityY,estGravityZ,estGravity:valid,flag
1778258173408,  3099.876,  3099.876, 0.029166,-0.078351,-0.993969, 0.000289,-0.000782,-0.009940, 0.003491,-0.044085, 0.028281,1,-0.017255, 0.001129,-0.001151,1,-0.282570, 0.723733, 9.775825,1,0
1778258173408,  3099.901,  3099.896, 0.029682,-0.075221,-0.992931, 0.000297,-0.000754,-0.009930, 0.011649,-0.033081, 0.036462,1,-0.019831,-0.000143,-0.002785,1,-0.282592, 0.719970, 9.776102,1,0
1778258173408,  3099.926,  3099.926, 0.028499,-0.072237,-0.992066, 0.000287,-0.000725,-0.009921,-0.003296, 0.006384, 0.047629,1,-0.021055, 0.002200,-0.003039,1,-0.282038, 0.714864, 9.776493,1,0
1778258173408,  3099.951,  3099.946, 0.023662,-0.071601,-0.993288, 0.000237,-0.000717,-0.009934,-0.031328, 0.000672, 0.033281,1,-0.021373, 0.002520,-0.003993,1,-0.282534, 0.710718, 9.776780,1,0
1778258173408,  3099.976,  3099.971, 0.021231,-0.068977,-0.992592, 0.000216,-0.000692,-0.009926,-0.074983, 0.028384, 0.043186,1,-0.024494, 0.002352,-0.003342,1,-0.283271, 0.704052, 9.777242,1,0
1778258173408,  3100.001,  3099.996, 0.020368,-0.067853,-0.993623, 0.000203,-0.000680,-0.009935,-0.090090, 0.030421, 0.027830,1,-0.026324, 0.002239,-0.002036,1,-0.283772, 0.699089, 9.777583,1,0
1778258173408,  3100.021,  3100.021, 0.021872,-0.067704,-0.994486, 0.000219,-0.000680,-0.009944,-0.069778, 0.027807, 0.025516,1,-0.028903, 0.001382,-0.000824,1,-0.284310, 0.690855, 9.778152,1,0
1778258173408,  3100.046,  3100.046, 0.024348,-0.066356,-0.994896, 0.000240,-0.000669,-0.009953,-0.046040, 0.035260, 0.021888,1,-0.028829, 0.002807, 0.000334,1,-0.284899, 0.685094, 9.778541,1,0
1778258173408,  3100.071,  3100.066, 0.027674,-0.059990,-0.991729, 0.000278,-0.000598,-0.009920,-0.024152, 0.072965, 0.045707,1,-0.023345, 0.001736,-0.001098,1,-0.285213, 0.680097, 9.778881,1,0
1778258173408,  3100.096,  3100.096, 0.026405,-0.062498,-0.996714, 0.000268,-0.000628,-0.009968,-0.026771, 0.062895, 0.004741,1,-0.010972, 0.002277,-0.002361,1,-0.285791, 0.675442, 9.779186,1,0
1778258173408,  3100.111,  3100.106, 0.023641,-0.060298,-0.993645, 0.000239,-0.000607,-0.009939,-0.047946, 0.059288, 0.013922,1,-0.003797, 0.002883,-0.003359,1,-0.286096, 0.674958, 9.779211,1,0
1778258173421,  3109.546,  3109.546, 0.029745,-0.050957,-0.994625, 0.000297,-0.000511,-0.009947, 0.000052, 0.035373, 0.033755,1,-0.012346, 0.000274, 0.000059,1,-0.291660, 0.534698, 9.787718,1,0
1778258173443,  3109.571,  3109.566, 0.030425,-0.050200,-0.993874, 0.000303,-0.000502,-0.009938,-0.001304, 0.039182, 0.035756,1,-0.012109, 0.000533,-0.000846,1,-0.291756, 0.532365, 9.787842,1,0
1778258173464,  3109.591,  3109.586, 0.030030,-0.049273,-0.994576, 0.000303,-0.000495,-0.009945, 0.010707, 0.044147, 0.038737,1,-0.011047, 0.000921,-0.000276,1,-0.291961, 0.530211, 9.787952,1,0
1778258173491,  3109.616,  3109.616, 0.030109,-0.049919,-0.994511, 0.000301,-0.000500,-0.009945, 0.003075, 0.037946, 0.035274,1,-0.010493, 0.000337, 0.000100,1,-0.292199, 0.527159, 9.788111,1,0
1778258173513,  3109.641,  3109.636, 0.030972,-0.050520,-0.994661, 0.000310,-0.000506,-0.009947, 0.007179, 0.034284, 0.029267,1,-0.009194, 0.000404,-0.000210,1,-0.292299, 0.525280, 9.788209,1,0
1778258173536,  3109.661,  3109.661, 0.030969,-0.049746,-0.993833, 0.000311,-0.000498,-0.009938, 0.011209, 0.034942, 0.042166,1,-0.009486, 0.000861,-0.000916,1,-0.292522, 0.522489, 9.788351,1,0
1778258173561,  3109.686,  3109.686, 0.030897,-0.049115,-0.993342, 0.000309,-0.000492,-0.009935, 0.010302, 0.039306, 0.047067,1,-0.008936, 0.000997,-0.000167,1,-0.292725, 0.520685, 9.788442,1,0
1778258173583,  3109.711,  3109.706, 0.030118,-0.048912,-0.995291, 0.000301,-0.000489,-0.009952, 0.007290, 0.038915, 0.037134,1,-0.008582, 0.001078,-0.000505,1,-0.292906, 0.518913, 9.788530,1,0
1778258173606,  3109.731,  3109.731, 0.030624,-0.048680,-0.994536, 0.000304,-0.000487,-0.009945, 0.007002, 0.037658, 0.035660,1,-0.008424, 0.000507,-0.000562,1,-0.293348, 0.514699, 9.788739,1,0
1778258173631,  3109.756,  3109.756, 0.030480,-0.049126,-0.993435, 0.000305,-0.000491,-0.009935, 0.005536, 0.031547, 0.046541,1,-0.008908,-0.000055,-0.000309,1,-0.293365, 0.513027, 9.788827,1,0
1778258173653,  3109.781,  3109.776, 0.029838,-0.049078,-0.995070, 0.000299,-0.000490,-0.009952, 0.006936, 0.030412, 0.041623,1,-0.009163, 0.000751,-0.000259,1,-0.293547, 0.511200, 9.788917,1,0
1778258173676,  3109.801,  3109.801, 0.030128,-0.048856,-0.994078, 0.000301,-0.000489,-0.009942, 0.001662, 0.029687, 0.040463,1,-0.008488, 0.000933,-0.000042,1,-0.293826, 0.508540, 9.789047,1,0
1778258173701,  3109.826,  3109.826, 0.029776,-0.048187,-0.993301, 0.000297,-0.000480,-0.009933,-0.001941, 0.034450, 0.048168,1,-0.009324, 0.000056,-0.000316,1,-0.293948, 0.506717, 9.789138,1,0
1778258173723,  3109.851,  3109.846, 0.029074,-0.047501,-0.995353, 0.000292,-0.000477,-0.009953,-0.005686, 0.035773, 0.033275,1,-0.008002, 0.001420,-0.000810,1,-0.294066, 0.505107, 9.789217,1,0
1778258173746,  3109.871,  3109.871, 0.028456,-0.048081,-0.994436, 0.000284,-0.000480,-0.009946,-0.015275, 0.031461, 0.037230,1,-0.007816, 0.000609,-0.000329,1,-0.294350, 0.502730, 9.789331,1,0
1778258173772,  3109.896,  3109.896, 0.028450,-0.047180,-0.992979, 0.000282,-0.000473,-0.009932,-0.015510, 0.038659, 0.051604,1,-0.007975, 0.001281,-0.000843,1,-0.294546, 0.501085, 9.789410,1,0
1778258173793,  3109.921,  3109.916, 0.029248,-0.046568,-0.994093, 0.000291,-0.000467,-0.009943,-0.011720, 0.046020, 0.042728,1,-0.007984, 0.000673,-0.000066,1,-0.294629, 0.499577, 9.789484,1,0
1778258173816,  3109.941,  3109.941, 0.030535,-0.047945,-0.994681, 0.000303,-0.000479,-0.009949, 0.004784, 0.025860, 0.035173,1,-0.007010, 0.000115,-0.000376,1,-0.294663, 0.495817, 9.789675,1,0
1778258173842,  3109.966,  3109.966, 0.030986,-0.047256,-0.995105, 0.000311,-0.000471,-0.009947, 0.009173, 0.031201, 0.031090,1,-0.007850, 0.000284, 0.000068,1,-0.294709, 0.494380, 9.789745,1,0
1778258173863,  3109.991,  3109.986, 0.030823,-0.046477,-0.994106, 0.000308,-0.000465,-0.009941, 0.013941, 0.040126, 0.039593,1,-0.006928, 0.000599,-0.000014,1,-0.294745, 0.493032, 9.789812,1,0
1778258173886,  3110.016,  3110.011, 0.030874,-0.046289,-0.994570, 0.000307,-0.000462,-0.009942, 0.007906, 0.037417, 0.036494,1,-0.005695, 0.000420, 0.000126,1,-0.294880, 0.491181, 9.789902,1,0
1778258173912,  3110.036,  3110.036, 0.031584,-0.046302,-0.995110, 0.000317,-0.000463,-0.009952, 0.014809, 0.036259, 0.031244,1,-0.004857,-0.000287,-0.000052,1,-0.294912, 0.490178, 9.789950,1,0
1778258173933,  3110.061,  3110.056, 0.031501,-0.046463,-0.995160, 0.000317,-0.000464,-0.009950, 0.015452, 0.035156, 0.029420,1,-0.004964, 0.000234,-0.000875,1,-0.294941, 0.489157, 9.790001,1,0
1778258173956,  3110.086,  3110.081, 0.031012,-0.047128,-0.994473, 0.000311,-0.000470,-0.009945, 0.009186, 0.025829, 0.037607,1,-0.004684, 0.000119, 0.000216,1,-0.294937, 0.487850, 9.790067,1,0
1778258173982,  3110.106,  3110.106, 0.030366,-0.045990,-0.994055, 0.000303,-0.000461,-0.009942, 0.002813, 0.036167, 0.041750,1,-0.003574, 0.000445,-0.000602,1,-0.294986, 0.487062, 9.790104,1,0
1778258174003,  3110.131,  3110.126, 0.030129,-0.045606,-0.995465, 0.000302,-0.000456,-0.009956, 0.004949, 0.035417, 0.035913,1,-0.004611, 0.000502,-0.000770,1,-0.295376, 0.484557, 9.790216,1,0
1778258174026,  3110.156,  3110.151, 0.029902,-0.046073,-0.994182, 0.000299,-0.000462,-0.009945,-0.002179, 0.031545, 0.040678,1,-0.004022, 0.000194,-0.000040,1,-0.295422, 0.483244, 9.790280,1,0
1778258174052,  3110.176,  3110.176, 0.030528,-0.044937,-0.993890, 0.000303,-0.000450,-0.009938, 0.003935, 0.041926, 0.043577,1,-0.003669, 0.000555, 0.000084,1,-0.295463, 0.482496, 9.790316,1,0
1778258174073,  3110.201,  3110.196, 0.029555,-0.045158,-0.994192, 0.000296,-0.000451,-0.009943,-0.006846, 0.044736, 0.035562,1,-0.003498, 0.000581, 0.000049,1,-0.295647, 0.481789, 9.790345,1,0
1778258174096,  3110.226,  3110.221, 0.029475,-0.045703,-0.995019, 0.000295,-0.000456,-0.009948,-0.006653, 0.032914, 0.032575,1,-0.002434, 0.000473,-0.000494,1,-0.295714, 0.481027, 9.790380,1,0
1778258174122,  3110.246,  3110.246, 0.029330,-0.045709,-0.995765, 0.000295,-0.000456,-0.009956,-0.008067, 0.032496, 0.025277,1,-0.001459,-0.000153,-0.000498,1,-0.295694, 0.480701, 9.790397,1,0
1778258174143,  3110.271,  3110.266, 0.030183,-0.045954,-0.994008, 0.000301,-0.000458,-0.009940,-0.001954, 0.030751, 0.041335,1,-0.001174, 0.000175, 0.000574,1,-0.295767, 0.480306, 9.790414,1,0
1778258174166,  3110.296,  3110.291, 0.030352,-0.045636,-0.993325, 0.000302,-0.000458,-0.009933, 0.001883, 0.032280, 0.049243,1,-0.002235, 0.000774,-0.000158,1,-0.295797, 0.479747, 9.790441,1,0
1778258174192,  3110.316,  3110.316, 0.029994,-0.045384,-0.995691, 0.000300,-0.000456,-0.009956,-0.001728, 0.034280, 0.026064,1,-0.003123, 0.000875,-0.000069,1,-0.295893, 0.479243, 9.790462,1,0
1778258174214,  3110.341,  3110.336, 0.030580,-0.045799,-0.994798, 0.000305,-0.000460,-0.009949,-0.000806, 0.027294, 0.035931,1,-0.002183,-0.000169,-0.000609,1,-0.295817, 0.477227, 9.790564,1,0
1778258174241,  3110.366,  3110.366, 0.030469,-0.045656,-0.993865, 0.000303,-0.000457,-0.009941, 0.002932, 0.028557, 0.044120,1,-0.003834, 0.000242,-0.000281,1,-0.295875, 0.476167, 9.790613,1,0
1778258174262,  3110.386,  3110.386, 0.030676,-0.045248,-0.993942, 0.000306,-0.000452,-0.009939, 0.004883, 0.031770, 0.043399,1,-0.004115, 0.000668,-0.000271,1,-0.295962, 0.475373, 9.790649,1,0
1778258174284,  3110.411,  3110.406, 0.029962,-0.045580,-0.995008, 0.000301,-0.000459,-0.009950, 0.003446, 0.026589, 0.031222,1,-0.004049, 0.001141,-0.000262,1,-0.296095, 0.474592, 9.790683,1,0
1778258174311,  3110.436,  3110.436, 0.030856,-0.045003,-0.994565, 0.000308,-0.000450,-0.009948, 0.006485, 0.032166, 0.037385,1,-0.004025, 0.000109,-0.000373,1,-0.296109, 0.473368, 9.790742,1,0
1778258174332,  3110.461,  3110.456, 0.029500,-0.044587,-0.993991, 0.000296,-0.000446,-0.009940,-0.002658, 0.030658, 0.047485,1,-0.004579, 0.000747,-0.000805,1,-0.296228, 0.472576, 9.790776,1,0
1778258174354,  3110.481,  3110.476, 0.029448,-0.044888,-0.995288, 0.000292,-0.000449,-0.009954,-0.005301, 0.035499, 0.034801,1,-0.003613,-0.000179,-0.000499,1,-0.296233, 0.471762, 9.790815,1,0
1778258174381,  3110.506,  3110.506, 0.029717,-0.044385,-0.994823, 0.000297,-0.000445,-0.009949,-0.004865, 0.035610, 0.034980,1,-0.003568, 0.000015,-0.000374,1,-0.296286, 0.470763, 9.790862,1,0
1778258174402,  3110.531,  3110.526, 0.030072,-0.043748,-0.993742, 0.000300,-0.000436,-0.009938,-0.001381, 0.040595, 0.038208,1,-0.002777, 0.000587,-0.000689,1,-0.296360, 0.468875, 9.790951,1,0
1778258174424,  3110.551,  3110.546, 0.030056,-0.043847,-0.995044, 0.000302,-0.000437,-0.009953, 0.005568, 0.036484, 0.035388,1,-0.002037,-0.000153,-0.000148,1,-0.296404, 0.468447, 9.790970,1,0
1778258174451,  3110.576,  3110.576, 0.030559,-0.043862,-0.994504, 0.000305,-0.000439,-0.009947, 0.003307, 0.037914, 0.038238,1,-0.000837,-0.000451,-0.000638,1,-0.296363, 0.468027, 9.790991,1,0
1778258174472,  3110.601,  3110.596, 0.031481,-0.043504,-0.994329, 0.000313,-0.000435,-0.009943, 0.004187, 0.038140, 0.038930,1,-0.000039,-0.000151,-0.000030,1,-0.296364, 0.468004, 9.790992,1,0
1778258174494,  3110.621,  3110.616, 0.031487,-0.043305,-0.994533, 0.000314,-0.000433,-0.009945, 0.014103, 0.040176, 0.040945,1, 0.001294, 0.000302,-0.000280,1,-0.296389, 0.468182, 9.790983,1,0
1778258174521,  3110.646,  3110.646, 0.031399,-0.043964,-0.994910, 0.000314,-0.000443,-0.009948, 0.011535, 0.037447, 0.034233,1, 0.002438, 0.000527,-0.000332,1,-0.296401, 0.468662, 9.790959,1,0
1778258174542,  3110.671,  3110.666, 0.030678,-0.044182,-0.993938, 0.000308,-0.000439,-0.009939, 0.007138, 0.042308, 0.036675,1, 0.003181,-0.000067,-0.000633,1,-0.296416, 0.469276, 9.790930,1,0
1778258174564,  3110.691,  3110.686, 0.030568,-0.043984,-0.994360, 0.000306,-0.000440,-0.009944, 0.006482, 0.035553, 0.043200,1, 0.004048,-0.000005,-0.000329,1,-0.296370, 0.469988, 9.790896,1,0
1778258174591,  3110.716,  3110.716, 0.030556,-0.043859,-0.995323, 0.000306,-0.000437,-0.009952, 0.003388, 0.041135, 0.030057,1, 0.004537,-0.000478,-0.000188,1,-0.296250, 0.471388, 9.790833,1,0
1778258174612,  3110.741,  3110.736, 0.029343,-0.044444,-0.994974, 0.000294,-0.000443,-0.009950,-0.001499, 0.035052, 0.034042,1, 0.006294,-0.000576,-0.000170,1,-0.296542, 0.470811, 9.790853,1,0
1778258174634,  3110.761,  3110.756, 0.029635,-0.045070,-0.994170, 0.000297,-0.000449,-0.009943,-0.004283, 0.030760, 0.034203,1, 0.006113,-0.000026,-0.000401,1,-0.296542, 0.472012, 9.790794,1,0
1778258174661,  3110.786,  3110.786, 0.030445,-0.045391,-0.994447, 0.000303,-0.000453,-0.009945, 0.002155, 0.028473, 0.038524,1, 0.006213,-0.001265, 0.000216,1,-0.296369, 0.473799, 9.790713,1,0
1778258174682,  3110.811,  3110.806, 0.030285,-0.046316,-0.994974, 0.000301,-0.000461,-0.009950, 0.007056, 0.026568, 0.031357,1, 0.005985,-0.000917,-0.000320,1,-0.296208, 0.474971, 9.790661,1,0
1778258174704,  3110.831,  3110.826, 0.030934,-0.046425,-0.995064, 0.000310,-0.000464,-0.009952, 0.005691, 0.022279, 0.032784,1, 0.005002,-0.000039, 0.000481,1,-0.296143, 0.476005, 9.790613,1,0
1778258174731,  3110.856,  3110.856, 0.029753,-0.045002,-0.994656, 0.000298,-0.000451,-0.009946,-0.004329, 0.036162, 0.036295,1, 0.005953,-0.000134, 0.000562,1,-0.296099, 0.477665, 9.790533,1,0
1778258174753,  3110.881,  3110.876, 0.029230,-0.045108,-0.994841, 0.000296,-0.000448,-0.009946, 0.000251, 0.036229, 0.048640,1, 0.006031,-0.000915, 0.000098,1,-0.296041, 0.478783, 9.790481,1,0
1778258174775,  3110.901,  3110.901, 0.029661,-0.046128,-0.994991, 0.000298,-0.000458,-0.009948,-0.005072, 0.028082, 0.032872,1, 0.006636,-0.000311, 0.000142,1,-0.295933, 0.480654, 9.790392,1,0
1778258174801,  3110.926,  3110.921, 0.029409,-0.046246,-0.994985, 0.000292,-0.000463,-0.009952,-0.007510, 0.027912, 0.032886,1, 0.006609,-0.000295, 0.000075,1,-0.295929, 0.480614, 9.790394,1,0
1778258174823,  3110.951,  3110.946, 0.029822,-0.046917,-0.994425, 0.000297,-0.000469,-0.009944,-0.006822, 0.021449, 0.033955,1, 0.006035,-0.000839,-0.000094,1,-0.295870, 0.481774, 9.790339,1,0
1778258174845,  3110.971,  3110.971, 0.029564,-0.047110,-0.993743, 0.000296,-0.000471,-0.009935,-0.005851, 0.021042, 0.044987,1, 0.003398, 0.000865,-0.000191,1,-0.295799, 0.483141, 9.790274,1,0
1778258174871,  3110.996,  3110.996, 0.029936,-0.046586,-0.994703, 0.000297,-0.000467,-0.009947,-0.002137, 0.027036, 0.035531,1, 0.004758,-0.000667,-0.000293,1,-0.295684, 0.484035, 9.790234,1,0
1778258174893,  3111.021,  3111.016, 0.030559,-0.046228,-0.994606, 0.000306,-0.000461,-0.009946, 0.002965, 0.025698, 0.039376,1, 0.004385,-0.000044,-0.000126,1,-0.295717, 0.484819, 9.790194,1,0
1778258174915,  3111.041,  3111.041, 0.030428,-0.047372,-0.994534, 0.000305,-0.000473,-0.009945, 0.002839, 0.021252, 0.037100,1, 0.003955,-0.000717,-0.000070,1,-0.295536, 0.485939, 9.790143,1,0
1778258174941,  3111.066,  3111.066, 0.031017,-0.046776,-0.994555, 0.000312,-0.000468,-0.009949, 0.008602, 0.027868, 0.036861,1, 0.003842,-0.000290,-0.000067,1,-0.295565, 0.486699, 9.790105,1,0
1778258174963,  3111.091,  3111.086, 0.031280,-0.046173,-0.994717, 0.000313,-0.000462,-0.009946, 0.010574, 0.030528, 0.036069,1, 0.003070,-0.000157,-0.000658,1,-0.295535, 0.487334, 9.790074,1,0
1778258174986,  3111.111,  3111.111, 0.031012,-0.046117,-0.994109, 0.000309,-0.000459,-0.009939, 0.008679, 0.036211, 0.041139,1, 0.005434,-0.000347,-0.000331,1,-0.295439, 0.488634, 9.790012,1,0
1778258175011,  3111.136,  3111.136, 0.029125,-0.047070,-0.993106, 0.000298,-0.000465,-0.009932,-0.009858, 0.026673, 0.050987,1, 0.005097,-0.000223,-0.000056,1,-0.295472, 0.488378, 9.790024,1,0
1778258175033,  3111.161,  3111.156, 0.030357,-0.046229,-0.994595, 0.000304,-0.000465,-0.009950, 0.000720, 0.038743, 0.034052,1, 0.004774,-0.000109,-0.000248,1,-0.295408, 0.489321, 9.789979,1,0
1778258175056,  3111.181,  3111.181, 0.030487,-0.047497,-0.994293, 0.000304,-0.000472,-0.009938, 0.003631, 0.024881, 0.039228,1, 0.004662,-0.000860, 0.000263,1,-0.295317, 0.490811, 9.789907,1,0
1778258175081,  3111.206,  3111.206, 0.030324,-0.047818,-0.993834, 0.000305,-0.000482,-0.009940, 0.002124, 0.022430, 0.043696,1, 0.003485,-0.000444, 0.000167,1,-0.295237, 0.491477, 9.789876,1,0
1778258175103,  3111.231,  3111.226, 0.030121,-0.047561,-0.994724, 0.000302,-0.000477,-0.009944, 0.004174, 0.026121, 0.029399,1, 0.002870, 0.000203, 0.000013,1,-0.295205, 0.491998, 9.789850,1,0
1778258175126,  3111.256,  3111.251, 0.030080,-0.047186,-0.993745, 0.000302,-0.000474,-0.009940,-0.000090, 0.029933, 0.044512,1, 0.002812,-0.000006, 0.000013,1,-0.295079, 0.492755, 9.789817,1,0
1778258175151,  3111.276,  3111.276, 0.030031,-0.047395,-0.994216, 0.000300,-0.000472,-0.009941,-0.000503, 0.028324, 0.039875,1, 0.001588,-0.000344, 0.000593,1,-0.294993, 0.493165, 9.789799,1,0
1778258175173,  3111.296,  3111.296, 0.030127,-0.047752,-0.994722, 0.000303,-0.000476,-0.009948, 0.000515, 0.025246, 0.034895,1, 0.001696,-0.000779, 0.000245,1,-0.294906, 0.493589, 9.789780,1,0
1778258175196,  3111.326,  3111.321, 0.029936,-0.048583,-0.994740, 0.000299,-0.000486,-0.009948,-0.001358, 0.017198, 0.034711,1, 0.000584, 0.000029, 0.000001,1,-0.295039, 0.492780, 9.789816,1,0
1778258175222,  3111.346,  3111.346, 0.029545,-0.047932,-0.993966, 0.000293,-0.000479,-0.009940,-0.005343, 0.022801, 0.042334,1, 0.000770,-0.000076,-0.000440,1,-0.295083, 0.492873, 9.789810,1,0
1778258175243,  3111.371,  3111.366, 0.030115,-0.047431,-0.994811, 0.000299,-0.000474,-0.009949,-0.006449, 0.024876, 0.043198,1, 0.000667, 0.000324,-0.000211,1,-0.295158, 0.493037, 9.789800,1,0
1778258175266,  3111.396,  3111.391, 0.029702,-0.048018,-0.994990, 0.000296,-0.000482,-0.009950,-0.003860, 0.022098, 0.032282,1,-0.000588, 0.000229,-0.000545,1,-0.295145, 0.492973, 9.789804,1,0
1778258175292,  3111.416,  3111.416, 0.029246,-0.047490,-0.994255, 0.000296,-0.000478,-0.009947,-0.008305, 0.027140, 0.039494,1,-0.000583, 0.000242, 0.000182,1,-0.295119, 0.492837, 9.789811,1,0
1778258175313,  3111.441,  3111.436, 0.029899,-0.046784,-0.994295, 0.000300,-0.000470,-0.009941,-0.003665, 0.028579, 0.038790,1,-0.002925, 0.000471,-0.000429,1,-0.295196, 0.492498, 9.789825,1,0
1778258175336,  3111.466,  3111.461, 0.029971,-0.047071,-0.994528, 0.000300,-0.000473,-0.009944,-0.001275, 0.030338, 0.036865,1,-0.002096, 0.000031,-0.000486,1,-0.295195, 0.491884, 9.789857,1,0
1778258175362,  3111.486,  3111.486, 0.030262,-0.047235,-0.995401, 0.000304,-0.000474,-0.009953, 0.001545, 0.028288, 0.028324,1,-0.001993,-0.000752,-0.000116,1,-0.295202, 0.491441, 9.789879,1,0
1778258175383,  3111.511,  3111.506, 0.031122,-0.046942,-0.993616, 0.000312,-0.000468,-0.009938, 0.006111, 0.025879, 0.039282,1,-0.002609, 0.000429, 0.000222,1,-0.295244, 0.490995, 9.789900,1,0
1778258175406,  3111.536,  3111.531, 0.030243,-0.047290,-0.994107, 0.000305,-0.000473,-0.009939, 0.001373, 0.025339, 0.041135,1,-0.003526,-0.000603, 0.000363,1,-0.295187, 0.488937, 9.790005,1,0
1778258175432,  3111.556,  3111.556, 0.030514,-0.047081,-0.995431, 0.000304,-0.000472,-0.009953, 0.003927, 0.026633, 0.028191,1,-0.003489, 0.000494, 0.000170,1,-0.295332, 0.488228, 9.790035,1,0
1778258175453,  3111.581,  3111.576, 0.030424,-0.047117,-0.994195, 0.000305,-0.000470,-0.009941, 0.000516, 0.030202, 0.038545,1,-0.002926, 0.000041, 0.000222,1,-0.295308, 0.487642, 9.790066,1,0
1778258175480,  3111.606,  3111.606, 0.030994,-0.047230,-0.994722, 0.000310,-0.000472,-0.009948, 0.008602, 0.023547, 0.035217,1,-0.004144,-0.000141, 0.000241,1,-0.295345, 0.486587, 9.790117,1,0
1778258175502,  3111.626,  3111.626, 0.030541,-0.047107,-0.994806, 0.000307,-0.000470,-0.009947, 0.004178, 0.023935, 0.034436,1,-0.005109, 0.000545, 0.000471,1,-0.295345, 0.485738, 9.790159,1,0
1778258175523,  3111.651,  3111.646, 0.030600,-0.047884,-0.994278, 0.000307,-0.000479,-0.009948, 0.005417, 0.019834, 0.038387,1,-0.005539,-0.000116,-0.000380,1,-0.295405, 0.484695, 9.790209,1,0
1778258175550,  3111.676,  3111.676, 0.029809,-0.047100,-0.994876, 0.000298,-0.000468,-0.009948,-0.003158, 0.021304, 0.033883,1,-0.006084, 0.000352,-0.000252,1,-0.295496, 0.483012, 9.790289,1,0
1778258175572,  3111.701,  3111.696, 0.029839,-0.045200,-0.994566, 0.000297,-0.000451,-0.009946,-0.002881, 0.029999, 0.033093,1,-0.005845, 0.000766,-0.000489,1,-0.295586, 0.481959, 9.790339,1,0
1778258175593,  3111.721,  3111.716, 0.028468,-0.044481,-0.994314, 0.000287,-0.000444,-0.009941,-0.005223, 0.038892, 0.035935,1,-0.004141, 0.000663,-0.000418,1,-0.295740, 0.481029, 9.790380,1,0
1778258175620,  3111.746,  3111.746, 0.028243,-0.044679,-0.994712, 0.000283,-0.000447,-0.009946,-0.019070, 0.040802, 0.035681,1,-0.002958, 0.000196,-0.001117,1,-0.296049, 0.478859, 9.790477,1,0
1778258175642,  3111.771,  3111.766, 0.028704,-0.045936,-0.994164, 0.000289,-0.000458,-0.009943,-0.017444, 0.033845, 0.031818,1,-0.002615, 0.000050,-0.000098,1,-0.296088, 0.478292, 9.790504,1,0
1778258175664,  3111.791,  3111.786, 0.029716,-0.045568,-0.994050, 0.000293,-0.000457,-0.009943,-0.010145, 0.028845, 0.040326,1,-0.001601, 0.000039,-0.000352,1,-0.296102, 0.477889, 9.790523,1,0
1778258175690,  3111.816,  3111.816, 0.029479,-0.045297,-0.994825, 0.000296,-0.000452,-0.009950,-0.007185, 0.033301, 0.034634,1,-0.001228,-0.000073,-0.000865,1,-0.296279, 0.477475, 9.790537,1,0
1778258175712,  3111.841,  3111.836, 0.030400,-0.044961,-0.994911, 0.000302,-0.000451,-0.009948,-0.003046, 0.032985, 0.035303,1,-0.000093, 0.000407,-0.000587,1,-0.296301, 0.477412, 9.790540,1,0
1778258175734,  3111.861,  3111.856, 0.031501,-0.045398,-0.993620, 0.000315,-0.000451,-0.009937, 0.009829, 0.033512, 0.039863,1,-0.000168,-0.000146,-0.000484,1,-0.296353, 0.477419, 9.790538,1,0
1778258175761,  3111.886,  3111.886, 0.031496,-0.045023,-0.994589, 0.000314,-0.000450,-0.009947, 0.012516, 0.036165, 0.036939,1, 0.001057, 0.000402,-0.000835,1,-0.296370, 0.477723, 9.790523,1,0
1778258175782,  3111.911,  3111.906, 0.031895,-0.044271,-0.994427, 0.000317,-0.000445,-0.009944, 0.011349, 0.038428, 0.037873,1, 0.001928, 0.000155,-0.000585,1,-0.296391, 0.478037, 9.790506,1,0
1778258175804,  3111.931,  3111.926, 0.032084,-0.045290,-0.994817, 0.000319,-0.000453,-0.009948, 0.013485, 0.035465, 0.035684,1, 0.001899,-0.000606,-0.000151,1,-0.296238, 0.476840, 9.790569,1,1
1778258175831,  3111.956,  3111.956, 0.032533,-0.046091,-0.994933, 0.000326,-0.000463,-0.009950, 0.022882, 0.025549, 0.033576,1, 0.004002,-0.001126, 0.000073,1,-0.296126, 0.477672, 9.790532,1,1
1778258175852,  3111.981,  3111.976, 0.032018,-0.045627,-0.994320, 0.000319,-0.000459,-0.009945, 0.022679, 0.026809, 0.039542,1, 0.003907,-0.000111, 0.000034,1,-0.296066, 0.478363, 9.790501,1,1
1778258175874,  3112.001,  3111.996, 0.030700,-0.045217,-0.994682, 0.000308,-0.000453,-0.009947, 0.016476, 0.029365, 0.036994,1, 0.003783,-0.000362,-0.000568,1,-0.296028, 0.479194, 9.790461,1,1
1778258175901,  3112.026,  3112.026, 0.030295,-0.045534,-0.994991, 0.000302,-0.000455,-0.009950, 0.001105, 0.033845, 0.032879,1, 0.004842,-0.000338, 0.000323,1,-0.295980, 0.480534, 9.790397,1,1
1778258175922,  3112.051,  3112.046, 0.029563,-0.045938,-0.993960, 0.000297,-0.000459,-0.009939,-0.006106, 0.039555, 0.040381,1, 0.005497, 0.000316,-0.000367,1,-0.295954, 0.481633, 9.790343,1,1
1778258175944,  3112.071,  3112.066, 0.029460,-0.046288,-0.993950, 0.000293,-0.000460,-0.009940,-0.008545, 0.032934, 0.040174,1, 0.006652,-0.000381,-0.000118,1,-0.295898, 0.482872, 9.790284,1,1
1778258175971,  3112.096,  3112.096, 0.029836,-0.046786,-0.994759, 0.000299,-0.000467,-0.009947,-0.003311, 0.025689, 0.034947,1, 0.005946,-0.000657, 0.000551,1,-0.295878, 0.484693, 9.790195,1,1
1778258175992,  3112.121,  3112.116, 0.030629,-0.047185,-0.994725, 0.000306,-0.000472,-0.009949,-0.002044, 0.023440, 0.039817,1, 0.005230,-0.000552, 0.000479,1,-0.295764, 0.485721, 9.790147,1,1
1778258176015,  3112.141,  3112.141, 0.030049,-0.047239,-0.994484, 0.000302,-0.000474,-0.009946,-0.001378, 0.022276, 0.037587,1, 0.003805,-0.000421, 0.000153,1,-0.296045, 0.485651, 9.790142,1,1
1778258176041,  3112.166,  3112.166, 0.030261,-0.046831,-0.993390, 0.000301,-0.000468,-0.009936, 0.000773, 0.026921, 0.048286,1, 0.003112,-0.000072, 0.000576,1,-0.295981, 0.486269, 9.790113,1,1
1778258176062,  3112.191,  3112.186, 0.030157,-0.047715,-0.994218, 0.000303,-0.000477,-0.009944, 0.001787, 0.030575, 0.037638,1, 0.004064,-0.000329, 0.000734,1,-0.295921, 0.486948, 9.790082,1,1
1778258176085,  3112.211,  3112.211, 0.030055,-0.047616,-0.994800, 0.000303,-0.000475,-0.009949,-0.001123, 0.020861, 0.034388,1, 0.002411, 0.000042,-0.000669,1,-0.295869, 0.487893, 9.790036,1,1
1778258176111,  3112.236,  3112.236, 0.029941,-0.048494,-0.994973, 0.000299,-0.000482,-0.009949,-0.002295, 0.012816, 0.032655,1, 0.002308, 0.000041,-0.000053,1,-0.295914, 0.488448, 9.790007,1,1
1778258176132,  3112.261,  3112.256, 0.029968,-0.047886,-0.993836, 0.000300,-0.000479,-0.009940,-0.004925, 0.018283, 0.047840,1, 0.002104, 0.000461, 0.000048,1,-0.295971, 0.488905, 9.789983,1,1
1778258176155,  3112.281,  3112.281, 0.029928,-0.047519,-0.995304, 0.000299,-0.000476,-0.009950,-0.002582, 0.023155, 0.029373,1, 0.000984, 0.000210,-0.000899,1,-0.296079, 0.489185, 9.789966,1,1
1778258176181,  3112.306,  3112.306, 0.029216,-0.047042,-0.994292, 0.000290,-0.000472,-0.009943,-0.009538, 0.027967, 0.039290,1, 0.000807, 0.000319,-0.000312,1,-0.296061, 0.489319, 9.789959,1,1
1778258176203,  3112.331,  3112.326, 0.028925,-0.047048,-0.994261, 0.000289,-0.000470,-0.009944,-0.011879, 0.025002, 0.039296,1, 0.000191, 0.000881,-0.000015,1,-0.296118, 0.488474, 9.790000,1,1
1778258176225,  3112.351,  3112.351, 0.029083,-0.046089,-0.994433, 0.000291,-0.000462,-0.009945,-0.010965, 0.036695, 0.037927,1, 0.000221, 0.000158,-0.000717,1,-0.296181, 0.488683, 9.789988,1,1
1778258176251,  3112.376,  3112.376, 0.029062,-0.046875,-0.994103, 0.000291,-0.000466,-0.009943,-0.011208, 0.029242, 0.041155,1, 0.001800,-0.000183,-0.000276,1,-0.296204, 0.488986, 9.789971,1,1
1778258176273,  3112.401,  3112.396, 0.030179,-0.047298,-0.994792, 0.000300,-0.000472,-0.009947,-0.005204, 0.030564, 0.032629,1, 0.001450,-0.000448,-0.000592,1,-0.296144, 0.489201, 9.789963,1,1
1778258176295,  3112.421,  3112.421, 0.030493,-0.046854,-0.994023, 0.000305,-0.000465,-0.009939, 0.002898, 0.030165, 0.041906,1, 0.001748, 0.000165, 0.000567,1,-0.296141, 0.489702, 9.789938,1,1
1778258176321,  3112.446,  3112.446, 0.030324,-0.046374,-0.993696, 0.000304,-0.000464,-0.009938, 0.001209, 0.035284, 0.045091,1, 0.002764,-0.000324, 0.000096,1,-0.296159, 0.490144, 9.789915,1,1
1778258176343,  3112.471,  3112.466, 0.030305,-0.047014,-0.995082, 0.000304,-0.000468,-0.009953, 0.002061, 0.031694, 0.034727,1, 0.002708,-0.000403, 0.000008,1,-0.296139, 0.490661, 9.789889,1,1
1778258176366,  3112.496,  3112.491, 0.030478,-0.047119,-0.994494, 0.000303,-0.000471,-0.009947, 0.002729, 0.029564, 0.037182,1, 0.004300,-0.000022,-0.000430,1,-0.296162, 0.491777, 9.789833,1,1
1778258176391,  3112.516,  3112.516, 0.031261,-0.047612,-0.994487, 0.000312,-0.000475,-0.009944, 0.010390, 0.025568, 0.037214,1, 0.004557,-0.000251,-0.000441,1,-0.296171, 0.492620, 9.789790,1,1
1778258176413,  3112.541,  3112.536, 0.031155,-0.047479,-0.993765, 0.000310,-0.000477,-0.009940, 0.007291, 0.027716, 0.034815,1, 0.004044,-0.000695,-0.000646,1,-0.296094, 0.492122, 9.789818,1,1
1778258176436,  3112.566,  3112.561, 0.030405,-0.048282,-0.994087, 0.000306,-0.000480,-0.009939, 0.002254, 0.019535, 0.041114,1, 0.003959,-0.001119,-0.000488,1,-0.295885, 0.493139, 9.789773,1,1
1778258176461,  3112.586,  3112.586, 0.030419,-0.047342,-0.994946, 0.000305,-0.000474,-0.009949, 0.002342, 0.029417, 0.032658,1, 0.003211, 0.000296, 0.000086,1,-0.295977, 0.493787, 9.789738,1,1
1778258176483,  3112.611,  3112.606, 0.030543,-0.047237,-0.994482, 0.000304,-0.000472,-0.009943, 0.001604, 0.031241, 0.034409,1, 0.005477,-0.000437,-0.000316,1,-0.295925, 0.494739, 9.789691,1,1
1778258176506,  3112.636,  3112.631, 0.030593,-0.047367,-0.993875, 0.000306,-0.000473,-0.009942, 0.004069, 0.031483, 0.043042,1, 0.004479, 0.000366, 0.000058,1,-0.295955, 0.496139, 9.789619,1,1
1778258176531,  3112.656,  3112.656, 0.030691,-0.048423,-0.995007, 0.000307,-0.000484,-0.009948, 0.005044, 0.021834, 0.031907,1, 0.003182,-0.000008,-0.000457,1,-0.295932, 0.496802, 9.789586,1,1
1778258176553,  3112.681,  3112.676, 0.029993,-0.048549,-0.994333, 0.000301,-0.000485,-0.009941, 0.004843, 0.016582, 0.044037,1, 0.002880, 0.000479,-0.000015,1,-0.295957, 0.497451, 9.789553,1,1
1778258176576,  3112.706,  3112.701, 0.029823,-0.047529,-0.994054, 0.000300,-0.000474,-0.009942,-0.003473, 0.032126, 0.041173,1, 0.001769, 0.000289,-0.000179,1,-0.295943, 0.498279, 9.789511,1,1
1778258176601,  3112.726,  3112.726, 0.029630,-0.048532,-0.994283, 0.000298,-0.000485,-0.009945,-0.005429, 0.022479, 0.038920,1, 0.002696, 0.000257, 0.000153,1,-0.296150, 0.497700, 9.789534,1,1
1778258176623,  3112.751,  3112.746, 0.029875,-0.046815,-0.994103, 0.000299,-0.000469,-0.009941,-0.005191, 0.035867, 0.036258,1, 0.002470,-0.000536,-0.000206,1,-0.296076, 0.498213, 9.789510,1,1
1778258176646,  3112.776,  3112.771, 0.030109,-0.048588,-0.994196, 0.000299,-0.000485,-0.009941,-0.000811, 0.022393, 0.039742,1, 0.002735,-0.000302, 0.000258,1,-0.296066, 0.498966, 9.789472,1,1
1778258176672,  3112.796,  3112.796, 0.031403,-0.049106,-0.994260, 0.000310,-0.000489,-0.009943, 0.011954, 0.017795, 0.039089,1, 0.002233, 0.000745, 0.000167,1,-0.296029, 0.499430, 9.789450,1,1
1778258176693,  3112.821,  3112.816, 0.031920,-0.049230,-0.994530, 0.000317,-0.000494,-0.009946, 0.017218, 0.017839, 0.035645,1, 0.001573,-0.000875, 0.000434,1,-0.295940, 0.499700, 9.789438,1,1
1778258176720,  3112.846,  3112.846, 0.031019,-0.048586,-0.994244, 0.000310,-0.000489,-0.009942, 0.008273, 0.023325, 0.039227,1, 0.000056, 0.000225, 0.000010,1,-0.295926, 0.499792, 9.789434,1,1
1778258176742,  3112.866,  3112.866, 0.030280,-0.048505,-0.994487, 0.000306,-0.000485,-0.009945, 0.001075, 0.024240, 0.036843,1, 0.000470,-0.000167, 0.000300,1,-0.295866, 0.499931, 9.789429,1,1
1778258176763,  3112.891,  3112.886, 0.030663,-0.047660,-0.994120, 0.000307,-0.000478,-0.009940, 0.004443, 0.031273, 0.033819,1, 0.000648,-0.000162,-0.000024,1,-0.295926, 0.500035, 9.789422,1,1
1778258176790,  3112.916,  3112.916, 0.029803,-0.048336,-0.993818, 0.000298,-0.000481,-0.009939,-0.003645, 0.026294, 0.043384,1, 0.001152,-0.000860,-0.000123,1,-0.295883, 0.500343, 9.789407,1,1
1778258176812,  3112.941,  3112.936, 0.029253,-0.049151,-0.995049, 0.000296,-0.000490,-0.009953,-0.006324, 0.018300, 0.029620,1,-0.000182,-0.000476,-0.000071,1,-0.296036, 0.499437, 9.789449,1,1
1778258176833,  3112.961,  3112.956, 0.029071,-0.048862,-0.993742, 0.000290,-0.000489,-0.009935,-0.006774, 0.022017, 0.039365,1, 0.000374, 0.000335, 0.000088,1,-0.296003, 0.499516, 9.789446,1,1
1778258176860,  3112.986,  3112.986, 0.029486,-0.049455,-0.994036, 0.000295,-0.000494,-0.009940,-0.006824, 0.014244, 0.041292,1,-0.001778,-0.000066,-0.000111,1,-0.295981, 0.499174, 9.789464,1,1
1778258176882,  3113.011,  3113.006, 0.029451,-0.049495,-0.995073, 0.000295,-0.000495,-0.009950,-0.003677, 0.011528, 0.032958,1,-0.002705, 0.000032, 0.000180,1,-0.296015, 0.498689, 9.789488,1,1
1778258176903,  3113.031,  3113.026, 0.029706,-0.048954,-0.994700, 0.000299,-0.000488,-0.009945,-0.004901, 0.012161, 0.030088,1,-0.003058,-0.000321,-0.000323,1,-0.296035, 0.498151, 9.789515,1,1
1778258176930,  3113.056,  3113.056, 0.029975,-0.048891,-0.994278, 0.000299,-0.000489,-0.009943,-0.002185, 0.017524, 0.039038,1,-0.005169, 0.000691,-0.000169,1,-0.296164, 0.496817, 9.789578,1,1
1778258176952,  3113.081,  3113.076, 0.029631,-0.048598,-0.994129, 0.000297,-0.000486,-0.009941,-0.007306, 0.019745, 0.038743,1,-0.005471, 0.000455,-0.000140,1,-0.296236, 0.495825, 9.789626,1,1
1778258176973,  3113.101,  3113.096, 0.029566,-0.047658,-0.994542, 0.000295,-0.000476,-0.009947,-0.006726, 0.024528, 0.043318,1,-0.006047, 0.000368,-0.000420,1,-0.296309, 0.494666, 9.789682,1,1
1778258177000,  3113.126,  3113.126, 0.029460,-0.047467,-0.994833, 0.000294,-0.000474,-0.009949,-0.007529, 0.027345, 0.033788,1,-0.006071, 0.000525,-0.000506,1,-0.296292, 0.492065, 9.789815,1,1
1778258177022,  3113.151,  3113.146, 0.029441,-0.047704,-0.994774, 0.000295,-0.000481,-0.009945,-0.003730, 0.018413, 0.035541,1,-0.006053, 0.001129,-0.000657,1,-0.296433, 0.490947, 9.789866,1,1
1778258177044,  3113.171,  3113.166, 0.029520,-0.047755,-0.994701, 0.000295,-0.000477,-0.009947,-0.010597, 0.023139, 0.035431,1,-0.007184, 0.000389,-0.000080,1,-0.296627, 0.489626, 9.789927,1,1
1778258177070,  3113.196,  3113.196, 0.030094,-0.048394,-0.995150, 0.000298,-0.000482,-0.009949,-0.001578, 0.013125, 0.030934,1,-0.008322, 0.000098,-0.000545,1,-0.296703, 0.487448, 9.790033,1,1
1778258177092,  3113.221,  3113.216, 0.030478,-0.047006,-0.994656, 0.000307,-0.000472,-0.009946, 0.000957, 0.019535, 0.032843,1,-0.007360, 0.001472,-0.000290,1,-0.296870, 0.486002, 9.790100,1,1
1778258177114,  3113.241,  3113.236, 0.029174,-0.046144,-0.993758, 0.000293,-0.000462,-0.009937,-0.003125, 0.034881, 0.037649,1,-0.007331, 0.000672,-0.000419,1,-0.297068, 0.484530, 9.790167,1,1
1778258177141,  3113.266,  3113.266, 0.028971,-0.044745,-0.993614, 0.000289,-0.000450,-0.009937,-0.013147, 0.044505, 0.046201,1,-0.003369, 0.000198,-0.001323,1,-0.297264, 0.483198, 9.790227,1,1
1778258177162,  3113.291,  3113.286, 0.030990,-0.043592,-0.995786, 0.000309,-0.000433,-0.009958, 0.000701, 0.050558, 0.020524,1,-0.001420,-0.000465,-0.001294,1,-0.297205, 0.482744, 9.790251,1,1
1778258177184,  3113.311,  3113.306, 0.032904,-0.045140,-0.994318, 0.000328,-0.000449,-0.009942, 0.016426, 0.043937, 0.033168,1,-0.001229,-0.000568,-0.000974,1,-0.297092, 0.482601, 9.790261,1,1
1778258177211,  3113.336,  3113.336, 0.032426,-0.046859,-0.993558, 0.000326,-0.000466,-0.009939, 0.021001, 0.021473, 0.046863,1,-0.001759, 0.000014, 0.000237,1,-0.296985, 0.480886, 9.790349,1,1
1778258177232,  3113.361,  3113.356, 0.032253,-0.046922,-0.995708, 0.000324,-0.000470,-0.009955, 0.017682, 0.014621, 0.028656,1,-0.002248,-0.000115, 0.000326,1,-0.296955, 0.480453, 9.790371,1,1
1778258177255,  3113.381,  3113.381, 0.031538,-0.046263,-0.993424, 0.000318,-0.000464,-0.009939, 0.012434, 0.026381, 0.048233,1,-0.000835,-0.000546,-0.000149,1,-0.296834, 0.480043, 9.790395,1,1
1778258177281,  3113.406,  3113.406, 0.030349,-0.047478,-0.993893, 0.000305,-0.000474,-0.009934, 0.000690, 0.014438, 0.043629,1, 0.000344, 0.001086,-0.000680,1,-0.296966, 0.480045, 9.790391,1,1
1778258177302,  3113.431,  3113.426, 0.027488,-0.046899,-0.994431, 0.000277,-0.000469,-0.009948,-0.013580, 0.028448, 0.038570,1, 0.000883, 0.000526,-0.001003,1,-0.297082, 0.480141, 9.790382,1,1
1778258177325,  3113.451,  3113.451, 0.026293,-0.048489,-0.995416, 0.000262,-0.000484,-0.009954,-0.039189, 0.004963, 0.028671,1, 0.001348, 0.000210,-0.001968,1,-0.297047, 0.480515, 9.790365,1,1
1778258177351,  3113.476,  3113.476, 0.026887,-0.049314,-0.984558, 0.000277,-0.000484,-0.009886,-0.033334,-0.002633, 0.135126,1, 0.002732,-0.002066,-0.002841,1,-0.296944, 0.481054, 9.790342,1,1
1778258177372,  3113.501,  3113.496, 0.025622,-0.050662,-0.999947, 0.000256,-0.000482,-0.009945,-0.044923, 0.015966,-0.023605,1,-0.003031, 0.001659,-0.000364,1,-0.297292, 0.480932, 9.790338,1,1
1778258177395,  3113.521,  3113.521, 0.028882,-0.053002,-0.998284, 0.000266,-0.000541,-0.009998,-0.013990,-0.040901, 0.000617,1,-0.012265,-0.000325,-0.001032,1,-0.296890, 0.478025, 9.790492,1,1
1778258177421,  3113.546,  3113.546, 0.032881,-0.054909,-0.996796, 0.000315,-0.000520,-0.009907, 0.025491,-0.062967, 0.015377,1,-0.018418, 0.000614,-0.000160,1,-0.296981, 0.474933, 9.790640,1,1
1778258177442,  3113.571,  3113.566, 0.032552,-0.050643,-0.993445, 0.000324,-0.000520,-0.009953, 0.013630,-0.052671, 0.070428,1,-0.024689, 0.001409,-0.001391,1,-0.297136, 0.470379, 9.790854,1,1
1778258177465,  3113.591,  3113.591, 0.030734,-0.048834,-0.997197, 0.000305,-0.000473,-0.009938, 0.003524,-0.015607, 0.012004,1,-0.027496, 0.002809,-0.003489,1,-0.297965, 0.462431, 9.791208,1,1
1778258177491,  3113.616,  3113.616, 0.030425,-0.047194,-0.996430, 0.000306,-0.000482,-0.009978, 0.000124,-0.004922, 0.019773,1,-0.026546, 0.001572,-0.005238,1,-0.298299, 0.457062, 9.791451,1,1
1778258177512,  3113.641,  3113.636, 0.035174,-0.039589,-0.994885, 0.000349,-0.000395,-0.009933, 0.042402, 0.031812, 0.021620,1,-0.022946, 0.000173,-0.006272,1,-0.298457, 0.452428, 9.791660,1,1
1778258177535,  3113.661,  3113.661, 0.036194,-0.037786,-0.992968, 0.000365,-0.000383,-0.009934, 0.055989, 0.076154, 0.054213,1,-0.020549, 0.001212,-0.005609,1,-0.299002, 0.446066, 9.791936,1,1
1778258177561,  3113.686,  3113.686, 0.033216,-0.037316,-0.997128, 0.000335,-0.000375,-0.009964, 0.026454, 0.076861, 0.013585,1,-0.018853, 0.002184,-0.004441,1,-0.299359, 0.442213, 9.792100,1,1
1778258177582,  3113.711,  3113.706, 0.031883,-0.036302,-0.994333, 0.000319,-0.000365,-0.009952, 0.020457, 0.076748, 0.034581,1,-0.015151, 0.001097,-0.002023,1,-0.299613, 0.438989, 9.792237,1,1
1778258177605,  3113.736,  3113.731, 0.031926,-0.036391,-0.994582, 0.000321,-0.000365,-0.009942, 0.012547, 0.078145, 0.038867,1,-0.010867, 0.001011,-0.001481,1,-0.300619, 0.434645, 9.792400,1,1
1778258177631,  3113.756,  3113.756, 0.031100,-0.036890,-0.993752, 0.000313,-0.000369,-0.009936, 0.004339, 0.071329, 0.047084,1,-0.009213, 0.000771,-0.000708,1,-0.300677, 0.432806, 9.792480,1,1
1778258177653,  3113.781,  3113.776, 0.027860,-0.041482,-0.994695, 0.000280,-0.000409,-0.009942,-0.014214, 0.035645, 0.035595,1,-0.006180, 0.001243,-0.000289,1,-0.300840, 0.431340, 9.792540,1,1
1778258177675,  3113.806,  3113.801, 0.025687,-0.041777,-0.996181, 0.000259,-0.000416,-0.009962,-0.049064, 0.020879, 0.023371,1,-0.000891, 0.000366,-0.002347,1,-0.300984, 0.430545, 9.792570,1,1
1778258177701,  3113.826,  3113.826, 0.025017,-0.043156,-0.994962, 0.000248,-0.000432,-0.009950,-0.055742, 0.007700, 0.035302,1, 0.004097, 0.000647,-0.003514,1,-0.301099, 0.431041, 9.792544,1,1
1778258177723,  3113.851,  3113.846, 0.027996,-0.040750,-0.995040, 0.000278,-0.000409,-0.009951,-0.048164, 0.017848, 0.035789,1, 0.008169, 0.000718,-0.005894,1,-0.301233, 0.432341, 9.792483,1,1
1778258177745,  3113.876,  3113.871, 0.030427,-0.039833,-0.993694, 0.000301,-0.000394,-0.009927,-0.002685, 0.044049, 0.047574,1, 0.007291,-0.000930,-0.005497,1,-0.301055, 0.434897, 9.792376,1,1
1778258177771,  3113.896,  3113.896, 0.032399,-0.040643,-0.994414, 0.000326,-0.000404,-0.009950, 0.016782, 0.037095, 0.040478,1, 0.001924,-0.000134,-0.002072,1,-0.300944, 0.435725, 9.792342,1,1
1778258177793,  3113.921,  3113.916, 0.033734,-0.041867,-0.993097, 0.000337,-0.000409,-0.009926, 0.035583, 0.041010, 0.043627,1,-0.005029, 0.000100, 0.000646,1,-0.300876, 0.435055, 9.792374,1,1
1778258177815,  3113.946,  3113.941, 0.033646,-0.045459,-0.992941, 0.000340,-0.000456,-0.009930, 0.029472,-0.015279, 0.055157,1,-0.013893, 0.000855, 0.002542,1,-0.300506, 0.430084, 9.792604,1,1
1778258177841,  3113.966,  3113.966, 0.034769,-0.046866,-0.998883, 0.000347,-0.000465,-0.009982, 0.040393,-0.032255,-0.002974,1,-0.017684, 0.000758, 0.001966,1,-0.300594, 0.426799, 9.792746,1,1
1778258177863,  3113.991,  3113.986, 0.031176,-0.046247,-0.995539, 0.000311,-0.000471,-0.009970, 0.017712,-0.053180,-0.010582,1,-0.021227, 0.000952, 0.002404,1,-0.300730, 0.422912, 9.792911,1,1
1778258177886,  3114.016,  3114.011, 0.032554,-0.048993,-0.982513, 0.000313,-0.000486,-0.009816, 0.018266,-0.062636, 0.157960,1,-0.016169, 0.000327,-0.006006,1,-0.300994, 0.417311, 9.793142,1,1
1778258177911,  3114.036,  3114.036, 0.043151,-0.069158,-1.004834, 0.000424,-0.000678,-0.010018, 0.122468,-0.262235,-0.060852,1,-0.002710,-0.004517,-0.017828,1,-0.300585, 0.415873, 9.793216,1,1
1778258177933,  3114.061,  3114.056, 0.054503,-0.067194,-0.986993, 0.000541,-0.000674,-0.009886, 0.203152,-0.270805, 0.008905,1, 0.007586,-0.005539,-0.026468,1,-0.299602, 0.416953, 9.793200,1,1
1778258177960,  3114.086,  3114.086, 0.053291,-0.057211,-0.985793, 0.000538,-0.000588,-0.009843, 0.223537,-0.141916, 0.125793,1, 0.005359,-0.002917,-0.040324,1,-0.299030, 0.419262, 9.793119,1,1
1778258177981,  3114.106,  3114.106, 0.043130,-0.027273,-0.998922, 0.000438,-0.000295,-0.009988, 0.123196, 0.150631,-0.002929,1,-0.011581, 0.006514,-0.035711,1,-0.300013, 0.417697, 9.793156,1,1
1778258178003,  3114.131,  3114.126, 0.016980,-0.027289,-0.993901, 0.000177,-0.000266,-0.009942,-0.052450, 0.199792, 0.014775,1,-0.026121, 0.005697,-0.020774,1,-0.302632, 0.414626, 9.793206,1,1
1778258178030,  3114.156,  3114.156, 0.014471,-0.025759,-0.993087, 0.000140,-0.000270,-0.009932,-0.161535, 0.154818, 0.054622,1,-0.022996, 0.000057,-0.021648,1,-0.303476, 0.406691, 9.793512,1,1
1778258178051,  3114.181,  3114.176, 0.012948,-0.017990,-0.994109, 0.000131,-0.000178,-0.009946,-0.152969, 0.234574, 0.016823,1,-0.016910, 0.000265,-0.016199,1,-0.303634, 0.402859, 9.793666,1,1
1778258178073,  3114.201,  3114.196, 0.005600,-0.016794,-0.993374, 0.000059,-0.000177,-0.009919,-0.213613, 0.212467, 0.087108,1,-0.013820, 0.002346,-0.008228,1,-0.304129, 0.399957, 9.793770,1,1
1778258178100,  3114.226,  3114.226, 0.008142,-0.011402,-1.004930, 0.000072,-0.000106,-0.010037,-0.224821, 0.283356,-0.061053,1,-0.022699, 0.001003, 0.003253,1,-0.304698, 0.394463, 9.793975,1,1
1778258178122,  3114.251,  3114.246, 0.021293,-0.031984,-0.993243, 0.000204,-0.000321,-0.009932,-0.145584, 0.124021,-0.008268,1,-0.028801,-0.001052, 0.013597,1,-0.304454, 0.389205, 9.794192,1,1
1778258178143,  3114.271,  3114.266, 0.032574,-0.027333,-0.988955, 0.000320,-0.000276,-0.009887,-0.037578, 0.084853, 0.108452,1,-0.029310,-0.000046, 0.014961,1,-0.304124, 0.383573, 9.794425,1,1
1778258178170,  3114.296,  3114.296, 0.038953,-0.032643,-0.996350, 0.000388,-0.000318,-0.009958, 0.077777, 0.055856, 0.023862,1,-0.027949, 0.001359, 0.018609,1,-0.304241, 0.375117, 9.794749,1,1
1778258178192,  3114.321,  3114.316, 0.048007,-0.031102,-0.991926, 0.000473,-0.000321,-0.009922, 0.125875, 0.022628, 0.047807,1,-0.021231,-0.000325, 0.016549,1,-0.304104, 0.370566, 9.794927,1,1
1778258178213,  3114.341,  3114.336, 0.053022,-0.030596,-0.997950, 0.000528,-0.000303,-0.009974, 0.200921, 0.083979, 0.058768,1,-0.014988,-0.001466, 0.016979,1,-0.302627, 0.366652, 9.795119,1,1
1778258178240,  3114.366,  3114.366, 0.051206,-0.040664,-0.999823, 0.000516,-0.000398,-0.010000, 0.199707,-0.034506,-0.009703,1,-0.005359, 0.001295, 0.013803,1,-0.302478, 0.364117, 9.795218,1,1
1778258178262,  3114.391,  3114.386, 0.042972,-0.045545,-0.988846, 0.000431,-0.000456,-0.009885, 0.146290,-0.077241, 0.081593,1,-0.000642,-0.000832, 0.010780,1,-0.302357, 0.363813, 9.795234,1,1
1778258178283,  3114.411,  3114.406, 0.041228,-0.042695,-0.996083, 0.000416,-0.000429,-0.009956, 0.105365,-0.070344, 0.073190,1, 0.001562,-0.000320, 0.007384,1,-0.302200, 0.364155, 9.795226,1,1
1778258178310,  3114.436,  3114.436, 0.038358,-0.045656,-0.998881, 0.000386,-0.000452,-0.009987, 0.074364,-0.082898,-0.000465,1, 0.002515,-0.000439, 0.002054,1,-0.301781, 0.364919, 9.795211,1,1
1778258178332,  3114.461,  3114.456, 0.035523,-0.049441,-0.993374, 0.000356,-0.000497,-0.009938, 0.054223,-0.129440, 0.052793,1,-0.001140, 0.000484,-0.001318,1,-0.301785, 0.364928, 9.795210,1,1
1778258178353,  3114.481,  3114.476, 0.037453,-0.044189,-0.995142, 0.000370,-0.000447,-0.009949, 0.053375,-0.096326, 0.048874,1,-0.007717, 0.000353,-0.003448,1,-0.301895, 0.363785, 9.795249,1,1
1778258178380,  3114.506,  3114.506, 0.040229,-0.041420,-0.998836, 0.000399,-0.000420,-0.009987, 0.092606,-0.045494, 0.000125,1,-0.012756,-0.000372,-0.008077,1,-0.301899, 0.360288, 9.795378,1,1
1778258178402,  3114.531,  3114.526, 0.042904,-0.033869,-0.992483, 0.000430,-0.000339,-0.009926, 0.121889, 0.006240, 0.041192,1,-0.012501, 0.000206,-0.008325,1,-0.302963, 0.359778, 9.795364,1,1
1778258178423,  3114.551,  3114.546, 0.041657,-0.031475,-0.992588, 0.000419,-0.000321,-0.009925, 0.121184, 0.040965, 0.058778,1,-0.009946, 0.001297,-0.008537,1,-0.303160, 0.357524, 9.795441,1,1
1778258178450,  3114.576,  3114.576, 0.037015,-0.027621,-0.996215, 0.000374,-0.000275,-0.009959, 0.059272, 0.085006, 0.025952,1,-0.002298, 0.002403,-0.008967,1,-0.303810, 0.355794, 9.795484,1,1
1778258178472,  3114.601,  3114.596, 0.029426,-0.020789,-0.995951, 0.000298,-0.000205,-0.009961, 0.010959, 0.135770, 0.021693,1, 0.004917, 0.001950,-0.008171,1,-0.304320, 0.356233, 9.795451,1,1
1778258178495,  3114.621,  3114.621, 0.026491,-0.025692,-0.995205, 0.000268,-0.000251,-0.009954,-0.044634, 0.106507, 0.035736,1, 0.008284,-0.000725,-0.004340,1,-0.304402, 0.358711, 9.795359,1,1
1778258178520,  3114.646,  3114.646, 0.026088,-0.037894,-0.991525, 0.000261,-0.000367,-0.009910,-0.048282,-0.011896, 0.071791,1, 0.003407,-0.001826,-0.001239,1,-0.304058, 0.359827, 9.795328,1,1
1778258178542,  3114.671,  3114.666, 0.024581,-0.037765,-0.994461, 0.000246,-0.000383,-0.009941,-0.042678,-0.052166, 0.026682,1,-0.003927, 0.000801,-0.000899,1,-0.304120, 0.359437, 9.795341,1,1
1778258178565,  3114.691,  3114.691, 0.018873,-0.030159,-0.997200, 0.000191,-0.000318,-0.009981,-0.120001, 0.060457, 0.016236,1,-0.018325, 0.005430, 0.001753,1,-0.305252, 0.355642, 9.795444,1,1
1778258178590,  3114.716,  3114.716, 0.017624,-0.027943,-0.994849, 0.000171,-0.000284,-0.009952,-0.133060, 0.078251, 0.039406,1,-0.021171, 0.002375, 0.003712,1,-0.305958, 0.351619, 9.795568,1,1
1778258178612,  3114.741,  3114.736, 0.026167,-0.027508,-0.996134, 0.000258,-0.000273,-0.009967,-0.093832, 0.107829, 0.048163,1,-0.023974,-0.001348, 0.005715,1,-0.305663, 0.345019, 9.795811,1,1
1778258178635,  3114.761,  3114.761, 0.030504,-0.033520,-0.995065, 0.000304,-0.000334,-0.009950,-0.006370, 0.009803, 0.037789,1,-0.026323, 0.001734, 0.007666,1,-0.305553, 0.337705, 9.796069,1,1
1778258178661,  3114.786,  3114.786, 0.030388,-0.035771,-0.988701, 0.000308,-0.000362,-0.009897,-0.007915,-0.017842, 0.100371,1,-0.030696, 0.002445, 0.007681,1,-0.305989, 0.332004, 9.796250,1,1
1778258178682,  3114.811,  3114.806, 0.029303,-0.039202,-0.995453, 0.000289,-0.000393,-0.009946,-0.025798,-0.063078, 0.069526,1,-0.037201, 0.002728, 0.008052,1,-0.306514, 0.325224, 9.796462,1,1
1778258178705,  3114.831,  3114.831, 0.030296,-0.042156,-1.001678, 0.000309,-0.000423,-0.010020,-0.010137,-0.100553,-0.026265,1,-0.056212, 0.003864, 0.007899,1,-0.307348, 0.311107, 9.796894,1,1
1778258178731,  3114.856,  3114.856, 0.025276,-0.039598,-0.989177, 0.000255,-0.000406,-0.009908,-0.060268,-0.087300, 0.096670,1,-0.063590, 0.006542, 0.007186,1,-0.308341, 0.299046, 9.797238,1,1
1778258178752,  3114.881,  3114.876, 0.013292,-0.020692,-0.992869, 0.000138,-0.000213,-0.009915,-0.152516, 0.020833, 0.129127,1,-0.067720, 0.008589, 0.006210,1,-0.309882, 0.285984, 9.797580,1,1
1778258178775,  3114.901,  3114.901, 0.008535,-0.021356,-1.001013, 0.000089,-0.000211,-0.010008,-0.228058, 0.058411,-0.018549,1,-0.069906, 0.004798, 0.006239,1,-0.311899, 0.265666, 9.798088,1,1
1778258178801,  3114.926,  3114.926, 0.010914,-0.023836,-1.002518, 0.000105,-0.000242,-0.010025,-0.204995, 0.020598,-0.032958,1,-0.067573, 0.003062, 0.006480,1,-0.310997, 0.252277, 9.798470,1,1
1778258178822,  3114.951,  3114.946, 0.017896,-0.017529,-0.985843, 0.000178,-0.000175,-0.009858,-0.155817, 0.063075, 0.117429,1,-0.064237, 0.002427, 0.007695,1,-0.311422, 0.239610, 9.798775,1,1
1778258178845,  3114.976,  3114.971, 0.021884,-0.025191,-1.001761, 0.000217,-0.000258,-0.010008,-0.097627,-0.023942,-0.024784,1,-0.061628, 0.003942, 0.003361,1,-0.312354, 0.221180, 9.799178,1,1
1778258178871,  3114.996,  3114.996, 0.023607,-0.016463,-1.009149, 0.000220,-0.000173,-0.010066,-0.081558, 0.050505,-0.097008,1,-0.051201, 0.004630, 0.001778,1,-0.313204, 0.210357, 9.799390,1,1
1778258178892,  3115.021,  3115.016, 0.027151, 0.008468,-0.989560, 0.000273, 0.000066,-0.009911,-0.054792, 0.212837, 0.063234,1,-0.033684, 0.003604, 0.001576,1,-0.313902, 0.202627, 9.799530,1,1
1778258178915,  3115.046,  3115.041, 0.026848, 0.005442,-0.987419, 0.000262, 0.000063,-0.009866,-0.051065, 0.252303, 0.116314,1, 0.000761, 0.001257,-0.001203,1,-0.314398, 0.198954, 9.799589,1,1
1778258178941,  3115.066,  3115.066, 0.030303,-0.002772,-0.998389, 0.000300,-0.000026,-0.009974,-0.017128, 0.173069, 0.008713,1, 0.010395,-0.002036, 0.002928,1,-0.314236, 0.200577, 9.799562,1,1
1778258178962,  3115.091,  3115.086, 0.042510,-0.005685,-1.001926, 0.000417,-0.000052,-0.010033, 0.016243, 0.142514,-0.065218,1, 0.009869,-0.002912, 0.006710,1,-0.313894, 0.201616, 9.799551,1,1
1778258178985,  3115.116,  3115.111, 0.045015,-0.014554,-0.984824, 0.000450,-0.000133,-0.009851, 0.128669, 0.063016, 0.141680,1, 0.011285,-0.001530, 0.013003,1,-0.312725, 0.206110, 9.799495,1,1
1778258179011,  3115.136,  3115.136, 0.046040,-0.027555,-0.992462, 0.000460,-0.000268,-0.009910, 0.140990,-0.063425, 0.066822,1, 0.007199,-0.000363, 0.012482,1,-0.310384, 0.206985, 9.799551,1,1
1778258179032,  3115.161,  3115.156, 0.051441,-0.019096,-1.004524, 0.000511,-0.000177,-0.010032, 0.170345,-0.005975, 0.001773,1, 0.007117,-0.002894, 0.014218,1,-0.310003, 0.208289, 9.799536,1,1
1778258179055,  3115.186,  3115.181, 0.055209,-0.023128,-0.996776, 0.000551,-0.000219,-0.009974, 0.231790,-0.019186, 0.024530,1,-0.001583,-0.000258, 0.014330,1,-0.309610, 0.207589, 9.799562,1,1
1778258179081,  3115.206,  3115.206, 0.048500,-0.031693,-0.986460, 0.000489,-0.000306,-0.009879, 0.166050,-0.104239, 0.125717,1,-0.011002, 0.000675, 0.013107,1,-0.309586, 0.206230, 9.799592,1,1
1778258179103,  3115.231,  3115.226, 0.036590,-0.023013,-0.996144, 0.000357,-0.000236,-0.009888, 0.104730,-0.166594,-0.006300,1, 0.002069, 0.002596, 0.006632,1,-0.310152, 0.205741, 9.799584,1,1
1778258179125,  3115.256,  3115.251, 0.033429,-0.020960,-1.006961, 0.000336,-0.000217,-0.010120, 0.017215, 0.001039,-0.075359,1, 0.009253, 0.002045,-0.000651,1,-0.310677, 0.206876, 9.799544,1,1
1778258179151,  3115.276,  3115.276, 0.022671,-0.022850,-0.990115, 0.000238,-0.000196,-0.009899,-0.088500,-0.013904, 0.089754,1, 0.021071, 0.001026,-0.006773,1,-0.310859, 0.210828, 9.799454,1,1
1778258179173,  3115.301,  3115.296, 0.005369,-0.024124,-0.990434, 0.000079,-0.000231,-0.009926,-0.182365,-0.039246, 0.061874,1, 0.035068, 0.004249,-0.010881,1,-0.311616, 0.216246, 9.799312,1,1
1778258179200,  3115.326,  3115.326,-0.003479,-0.022591,-0.996899,-0.000030,-0.000214,-0.009958,-0.346864, 0.007289, 0.022748,1, 0.051695,-0.000939,-0.020601,1,-0.314381, 0.231560, 9.798874,1,1
1778258179221,  3115.346,  3115.346, 0.004813,-0.025383,-1.007311, 0.000047,-0.000293,-0.010117,-0.266904,-0.009581,-0.079650,1, 0.048992,-0.003896,-0.023149,1,-0.314007, 0.240847, 9.798662,1,1
1778258179243,  3115.371,  3115.366, 0.017782,-0.005624,-0.978165, 0.000169,-0.000048,-0.009766,-0.160052, 0.222393, 0.163139,1, 0.055418,-0.005335,-0.015870,1,-0.312926, 0.252172, 9.798411,1,1
1778258179270,  3115.396,  3115.396, 0.017668,-0.030271,-1.000120, 0.000181,-0.000306,-0.009994,-0.139113,-0.029831,-0.009794,1, 0.059408,-0.001518,-0.021496,1,-0.312349, 0.268854, 9.797987,1,1
1778258179291,  3115.421,  3115.416, 0.015779,-0.024886,-0.993080, 0.000156,-0.000231,-0.009938,-0.152241,-0.008942,-0.066214,1, 0.053952,-0.001987,-0.018278,1,-0.312187, 0.279422, 9.797696,1,1
1778258179313,  3115.441,  3115.436, 0.016434,-0.022727,-0.985419, 0.000165,-0.000226,-0.009852,-0.153389, 0.037981, 0.131714,1, 0.040601,-0.002952,-0.009822,1,-0.311845, 0.288249, 9.797451,1,1
1778258179340,  3115.466,  3115.466, 0.020882,-0.019014,-1.000671, 0.000207,-0.000195,-0.009996,-0.106557, 0.109003,-0.015973,1, 0.017308, 0.000011,-0.008079,1,-0.311346, 0.295999, 9.797236,1,1
1778258179361,  3115.491,  3115.486, 0.015115,-0.031816,-0.990710, 0.000155,-0.000321,-0.009915,-0.139186, 0.016867, 0.016558,1,-0.003616, 0.001483, 0.004259,1,-0.311554, 0.296144, 9.797225,1,1
1778258179383,  3115.511,  3115.506, 0.017339,-0.018747,-0.988226, 0.000166,-0.000192,-0.009872,-0.162200, 0.030009, 0.117036,1,-0.022506, 0.001519, 0.010580,1,-0.311862, 0.292676, 9.797319,1,1
1778258179410,  3115.536,  3115.536, 0.020190,-0.018339,-0.998306, 0.000201,-0.000169,-0.009980,-0.113552, 0.100382, 0.007652,1,-0.052825, 0.002888, 0.017948,1,-0.311587, 0.278490, 9.797742,1,1
1778258179431,  3115.561,  3115.556, 0.022389,-0.025002,-0.995300, 0.000224,-0.000267,-0.009954,-0.101215,-0.009686, 0.018178,1,-0.064450, 0.003801, 0.025040,1,-0.312159, 0.266683, 9.798052,1,1
1778258179453,  3115.581,  3115.576, 0.021611,-0.014029,-0.984445, 0.000248,-0.000147,-0.009853,-0.063453, 0.093429, 0.056002,1,-0.067249, 0.002537, 0.027602,1,-0.312593, 0.253747, 9.798382,1,1
1778258179480,  3115.606,  3115.606, 0.020448,-0.054387,-1.008774, 0.000187,-0.000527,-0.010093,-0.112824,-0.296587,-0.093910,1,-0.059208, 0.006117, 0.014757,1,-0.313530, 0.234931, 9.798820,1,1
1778258179501,  3115.631,  3115.626, 0.018931,-0.013728,-0.987270, 0.000205,-0.000140,-0.009892,-0.085829, 0.025950, 0.113209,1,-0.049866, 0.003955, 0.010655,1,-0.314514, 0.225136, 9.799019,1,1
1778258179523,  3115.651,  3115.646, 0.021992,-0.028100,-0.994706, 0.000221,-0.000305,-0.009969,-0.151083,-0.033004, 0.075327,1,-0.040141, 0.005258, 0.010451,1,-0.315190, 0.217338, 9.799173,1,1
1778258179550,  3115.676,  3115.676, 0.031732,-0.004589,-1.006465, 0.000308,-0.000074,-0.010068,-0.004127, 0.164282,-0.070710,1,-0.028151,-0.002824,-0.001171,1,-0.315229, 0.208403, 9.799366,1,1
1778258179571,  3115.701,  3115.696, 0.063928,-0.009914,-1.007530, 0.000608,-0.000090,-0.010008, 0.221400, 0.165339, 0.049830,1,-0.027582,-0.005279, 0.010509,1,-0.314187, 0.202991, 9.799514,1,1
1778258179593,  3115.721,  3115.716, 0.064672,-0.031156,-0.986016, 0.000664,-0.000284,-0.009951, 0.305113,-0.010710, 0.006200,1,-0.017549,-0.003458, 0.007858,1,-0.312854, 0.198000, 9.799658,1,1
1778258179620,  3115.746,  3115.746, 0.059618,-0.030358,-0.988482, 0.000598,-0.000317,-0.009850, 0.272091,-0.101410, 0.106006,1, 0.001162, 0.004920,-0.007457,1,-0.312716, 0.196323, 9.799696,1,1
1778258179642,  3115.771,  3115.766, 0.040472,-0.021294,-0.998970, 0.000413,-0.000263,-0.010046, 0.107170,-0.052190, 0.002926,1, 0.016869, 0.003647,-0.011313,1,-0.313410, 0.198909, 9.799623,1,1
1778258179663,  3115.791,  3115.786, 0.041884,-0.002612,-1.002105, 0.000415,-0.000026,-0.010007, 0.090626, 0.112364, 0.002165,1, 0.019446,-0.001821,-0.013427,1,-0.313704, 0.202530, 9.799539,1,1
1778258179690,  3115.816,  3115.816, 0.045558,-0.008364,-0.989657, 0.000446,-0.000064,-0.009889, 0.133436, 0.122603, 0.094290,1, 0.000553,-0.001646,-0.003027,1,-0.313282, 0.204639, 9.799508,1,1
1778258179712,  3115.841,  3115.836, 0.071366,-0.011616,-1.004232, 0.000706,-0.000094,-0.010009, 0.334865, 0.185628, 0.086746,1,-0.024946,-0.007107, 0.011441,1,-0.312242, 0.201682, 9.799603,1,1
1778258179734,  3115.861,  3115.861, 0.076614,-0.022263,-1.001046, 0.000765,-0.000248,-0.010034, 0.439882,-0.024075,-0.017135,1,-0.023765, 0.004630, 0.012797,1,-0.311579, 0.193526, 9.799788,1,1
1778258179760,  3115.886,  3115.886, 0.060114,-0.002883,-0.982476, 0.000621,-0.000033,-0.009830, 0.276893, 0.162535, 0.165007,1,-0.013849, 0.006857, 0.013012,1,-0.312826, 0.190385, 9.799810,1,1
1778258179782,  3115.911,  3115.906, 0.032283,-0.029062,-1.006261, 0.000330,-0.000294,-0.010057, 0.068119,-0.039851, 0.021404,1,-0.006968, 0.007741, 0.013132,1,-0.314368, 0.188794, 9.799791,1,1
1778258179805,  3115.931,  3115.931, 0.024075,-0.022909,-1.002285, 0.000242,-0.000239,-0.010039,-0.079263,-0.037997,-0.029262,1,-0.004117, 0.001899, 0.006033,1,-0.315441, 0.186469, 9.799802,1,1
1778258179830,  3115.956,  3115.956, 0.026615,-0.026785,-0.980424, 0.000262,-0.000257,-0.009847,-0.054789,-0.077554, 0.185142,1,-0.004406, 0.000628, 0.007387,1,-0.315806, 0.184987, 9.799818,1,1
1778258179852,  3115.981,  3115.976, 0.045888, 0.005195,-1.005424, 0.000438, 0.000025,-0.010007, 0.048290,-0.015472, 0.076480,1, 0.013610,-0.008570,-0.005425,1,-0.314628, 0.186459, 9.799828,1,1
1778258179875,  3116.001,  3116.001, 0.054934, 0.006477,-1.002010, 0.000562, 0.000107,-0.010058, 0.225123, 0.256013,-0.026618,1, 0.028730,-0.001613, 0.002145,1,-0.313540, 0.193394, 9.799728,1,1
1778258179900,  3116.026,  3116.026, 0.034164,-0.037639,-0.982880, 0.000354,-0.000372,-0.009836, 0.021474,-0.170001, 0.160856,1, 0.039547, 0.002131,-0.001651,1,-0.313633, 0.200341, 9.799585,1,1
1778258179922,  3116.051,  3116.046, 0.027460,-0.010391,-1.005383, 0.000277,-0.000107,-0.010047,-0.036623, 0.026322, 0.071811,1, 0.049987, 0.000375,-0.009695,1,-0.314098, 0.209558, 9.799378,1,1
1778258179945,  3116.071,  3116.071, 0.033139,-0.020401,-1.005872, 0.000324,-0.000192,-0.010076, 0.012317, 0.023949,-0.065131,1, 0.061027,-0.006905,-0.010332,1,-0.312458, 0.225904, 9.799067,1,1
1778258179970,  3116.096,  3116.096, 0.038801,-0.018125,-0.981902, 0.000390,-0.000187,-0.009829, 0.069243, 0.058971, 0.169682,1, 0.067060,-0.007376,-0.013916,1,-0.311047, 0.238795, 9.798806,1,1
1778258179992,  3116.121,  3116.116, 0.032120,-0.020465,-1.000630, 0.000326,-0.000188,-0.009992, 0.036427, 0.123822, 0.086904,1, 0.063935,-0.001130,-0.006920,1,-0.310599, 0.251632, 9.798499,1,1
1778258180015,  3116.141,  3116.141, 0.022146,-0.026270,-1.004346, 0.000225,-0.000264,-0.010056,-0.094566, 0.009013,-0.051207,1, 0.063489,-0.003021,-0.008405,1,-0.311665, 0.268599, 9.798016,1,1
1778258180040,  3116.166,  3116.166, 0.024242,-0.021884,-0.990529, 0.000234,-0.000207,-0.009893,-0.073323, 0.064246, 0.083979,1, 0.061979,-0.005450,-0.007733,1,-0.310891, 0.280778, 9.797698,1,1
1778258180062,  3116.191,  3116.186, 0.028473,-0.025522,-0.997847, 0.000287,-0.000255,-0.009981,-0.035213, 0.046801, 0.068973,1, 0.057605,-0.006633,-0.003336,1,-0.309614, 0.292272, 9.797402,1,1
1778258180085,  3116.216,  3116.211, 0.022614,-0.024135,-0.995997, 0.000234,-0.000233,-0.009957,-0.087304, 0.069332, 0.029610,1, 0.048314, 0.000035,-0.000123,1,-0.309076, 0.307526, 9.796953,1,1
1778258180111,  3116.236,  3116.236, 0.013854,-0.036342,-0.990608, 0.000143,-0.000345,-0.009909,-0.173216,-0.041903, 0.082182,1, 0.038112,-0.000270, 0.003855,1,-0.309066, 0.315682, 9.796694,1,1
1778258180132,  3116.261,  3116.256, 0.016774,-0.040636,-1.001419, 0.000161,-0.000416,-0.010015,-0.170083,-0.118761,-0.003069,1, 0.027159,-0.003057, 0.002607,1,-0.308520, 0.321647, 9.796516,1,1
1778258180155,  3116.286,  3116.281, 0.025538,-0.026170,-0.992111, 0.000250,-0.000267,-0.009932,-0.057407, 0.069925, 0.067091,1, 0.012102,-0.001614, 0.004615,1,-0.307796, 0.326945, 9.796364,1,1
1778258180181,  3116.306,  3116.306, 0.026960,-0.022635,-0.989283, 0.000270,-0.000225,-0.009888,-0.043311, 0.106387, 0.094763,1, 0.006744, 0.000006, 0.008774,1,-0.307686, 0.328580, 9.796313,1,1
1778258180202,  3116.331,  3116.326, 0.026597,-0.029853,-0.999211, 0.000268,-0.000292,-0.009994,-0.043535, 0.074234, 0.014749,1, 0.002825, 0.001141, 0.010982,1,-0.306450, 0.328248, 9.796363,1,1
1778258180225,  3116.356,  3116.351, 0.027349,-0.039258,-0.994885, 0.000269,-0.000388,-0.009953,-0.038292,-0.056876, 0.039877,1,-0.003949, 0.000599, 0.012112,1,-0.306501, 0.328003, 9.796370,1,1
1778258180251,  3116.376,  3116.376, 0.030572,-0.036660,-0.992326, 0.000305,-0.000369,-0.009921,-0.006587,-0.032330, 0.065006,1,-0.006448, 0.000148, 0.011362,1,-0.306385, 0.326988, 9.796407,1,1
1778258180272,  3116.401,  3116.396, 0.035017,-0.030133,-0.996837, 0.000350,-0.000304,-0.009968, 0.028487, 0.015226, 0.026800,1,-0.007347, 0.000925, 0.009929,1,-0.306448, 0.325589, 9.796452,1,1
1778258180295,  3116.426,  3116.421, 0.035089,-0.028479,-0.994343, 0.000351,-0.000284,-0.009944, 0.037621, 0.045029, 0.045321,1,-0.002502,-0.000254, 0.008575,1,-0.306465, 0.324242, 9.796495,1,1
1778258180321,  3116.446,  3116.446, 0.036049,-0.033217,-0.994216, 0.000359,-0.000328,-0.009941, 0.047090,-0.001435, 0.046567,1, 0.000773,-0.000287, 0.006876,1,-0.306416, 0.324344, 9.796494,1,1
1778258180342,  3116.471,  3116.466, 0.036387,-0.036048,-0.996525, 0.000365,-0.000357,-0.009965, 0.050535,-0.018507, 0.024426,1, 0.006021,-0.000033, 0.004845,1,-0.306277, 0.325190, 9.796471,1,1
1778258180365,  3116.496,  3116.491, 0.033872,-0.038171,-0.993055, 0.000343,-0.000379,-0.009932, 0.025825,-0.046671, 0.057840,1, 0.011293,-0.000249, 0.000608,1,-0.306340, 0.328010, 9.796374,1,1
1778258180391,  3116.516,  3116.516, 0.032310,-0.037481,-0.995131, 0.000326,-0.000380,-0.009957, 0.010634,-0.037365, 0.037399,1, 0.014313,-0.000482,-0.002814,1,-0.306211, 0.330644, 9.796289,1,1
1778258180412,  3116.541,  3116.536, 0.033327,-0.035994,-0.993940, 0.000335,-0.000358,-0.009941, 0.015684,-0.018380, 0.028071,1, 0.015314,-0.001252,-0.005009,1,-0.306716, 0.333963, 9.796162,1,1
1778258180439,  3116.566,  3116.566, 0.034880,-0.033947,-0.993941, 0.000346,-0.000345,-0.009935, 0.035754, 0.004663, 0.048818,1, 0.012874,-0.001551,-0.007060,1,-0.306265, 0.337963, 9.796039,1,1
1778258180461,  3116.586,  3116.586, 0.036758,-0.024908,-0.998132, 0.000366,-0.000253,-0.009980, 0.054426, 0.095762, 0.007644,1, 0.012151,-0.000914,-0.004916,1,-0.306027, 0.340404, 9.795961,1,1
1778258180482,  3116.611,  3116.606, 0.032023,-0.034566,-0.994698, 0.000325,-0.000340,-0.009951, 0.029317, 0.052083, 0.025666,1, 0.012444,-0.000162,-0.002864,1,-0.305980, 0.342755, 9.795880,1,1
1778258180509,  3116.636,  3116.636, 0.028292,-0.039030,-0.992072, 0.000283,-0.000389,-0.009919,-0.028584,-0.037242, 0.066878,1, 0.008803, 0.000227,-0.003790,1,-0.306044, 0.345781, 9.795773,1,1
1778258180531,  3116.661,  3116.656, 0.028717,-0.031617,-0.996634, 0.000286,-0.000320,-0.009967,-0.039791,-0.003458, 0.035900,1, 0.007536, 0.000158,-0.003580,1,-0.306047, 0.347307, 9.795718,1,1
1778258180553,  3116.681,  3116.676, 0.030831,-0.026097,-0.995500, 0.000311,-0.000261,-0.009957,-0.015792, 0.075408, 0.018851,1, 0.008017,-0.001388,-0.003814,1,-0.305839, 0.348810, 9.795671,1,1
1778258180579,  3116.706,  3116.706, 0.031398,-0.030049,-0.993524, 0.000314,-0.000297,-0.009934, 0.002236, 0.055843, 0.052475,1, 0.005292,-0.000755,-0.002240,1,-0.305649, 0.350683, 9.795610,1,1
1778258180601,  3116.731,  3116.726, 0.026472,-0.035189,-0.996841, 0.000268,-0.000352,-0.009967,-0.026716, 0.011269, 0.031330,1, 0.003234, 0.000358,-0.000024,1,-0.306079, 0.350670, 9.795597,1,1
1778258180623,  3116.751,  3116.746, 0.026100,-0.036587,-0.994806, 0.000262,-0.000368,-0.009951,-0.052690,-0.008362, 0.033608,1, 0.000471, 0.000599, 0.000759,1,-0.306275, 0.350837, 9.795586,1,1
1778258180650,  3116.776,  3116.776, 0.029988,-0.032385,-0.994007, 0.000295,-0.000326,-0.009940,-0.012020, 0.033005, 0.047722,1,-0.001480,-0.000699,-0.001203,1,-0.306084, 0.350543, 9.795602,1,1
1778258180671,  3116.801,  3116.796, 0.033205,-0.029867,-0.995673, 0.000332,-0.000298,-0.009954, 0.022716, 0.063072, 0.029820,1,-0.000679, 0.000506, 0.000141,1,-0.306030, 0.350381, 9.795609,1,1
1778258180693,  3116.821,  3116.816, 0.031813,-0.032748,-0.995225, 0.000320,-0.000326,-0.009950, 0.019479, 0.039933, 0.034152,1, 0.000267, 0.000518, 0.000125,1,-0.306099, 0.350388, 9.795607,1,1
1778258180720,  3116.846,  3116.846, 0.031113,-0.034588,-0.995252, 0.000307,-0.000344,-0.009950,-0.001097, 0.011992, 0.035489,1, 0.004373, 0.000554,-0.000384,1,-0.306233, 0.351321, 9.795569,1,1
1778258180741,  3116.871,  3116.866, 0.032757,-0.030782,-0.995486, 0.000327,-0.000308,-0.009953, 0.009788, 0.038863, 0.033698,1, 0.006727,-0.000556,-0.000901,1,-0.306188, 0.352385, 9.795532,1,1
1778258180763,  3116.891,  3116.886, 0.033371,-0.031359,-0.994181, 0.000336,-0.000310,-0.009940, 0.024525, 0.061452, 0.045667,1, 0.007773,-0.000979,-0.000566,1,-0.306016, 0.353847, 9.795485,1,1
1778258180790,  3116.916,  3116.916, 0.031081,-0.035332,-0.994681, 0.000311,-0.000352,-0.009947,-0.001149, 0.009809, 0.040910,1, 0.010159, 0.000162,-0.000192,1,-0.305955, 0.356616, 9.795386,1,1
1778258180811,  3116.941,  3116.936, 0.031668,-0.031435,-0.996416, 0.000318,-0.000320,-0.009963, 0.004119, 0.022590, 0.030456,1, 0.011530,-0.001079,-0.001355,1,-0.305765, 0.357651, 9.795355,1,1
1778258180833,  3116.961,  3116.956, 0.033893,-0.028836,-0.994888, 0.000336,-0.000288,-0.009950, 0.014708, 0.070677, 0.031596,1, 0.012559,-0.001672,-0.000795,1,-0.305434, 0.360015, 9.795279,1,1
1778258180860,  3116.986,  3116.986, 0.033657,-0.034401,-0.993323, 0.000337,-0.000337,-0.009934, 0.024910, 0.026063, 0.053989,1, 0.013319,-0.001060, 0.000743,1,-0.305115, 0.363842, 9.795147,1,1
1778258180881,  3117.011,  3117.006, 0.031245,-0.036130,-0.995353, 0.000313,-0.000366,-0.009951, 0.006331,-0.013521, 0.040467,1, 0.012072, 0.000653, 0.000664,1,-0.305087, 0.366258, 9.795058,1,1
1778258180903,  3117.031,  3117.026, 0.031689,-0.030923,-0.996435, 0.000316,-0.000313,-0.009966,-0.002234, 0.043756, 0.023570,1, 0.011577,-0.000667, 0.001395,1,-0.304994, 0.368582, 9.794973,1,1
1778258180930,  3117.056,  3117.056, 0.032655,-0.033350,-0.994782, 0.000330,-0.000329,-0.009949, 0.015654, 0.044772, 0.039380,1, 0.013802,-0.000941, 0.001683,1,-0.304552, 0.372256, 9.794848,1,1
1778258180951,  3117.081,  3117.076, 0.031270,-0.036138,-0.994863, 0.000312,-0.000361,-0.009948, 0.013077, 0.018846, 0.053392,1, 0.014201,-0.000486, 0.001583,1,-0.304369, 0.374963, 9.794751,1,1
1778258180974,  3117.101,  3117.101, 0.029569,-0.036009,-0.995647, 0.000297,-0.000357,-0.009954,-0.014258, 0.025632, 0.030644,1, 0.014689,-0.000625, 0.001905,1,-0.304213, 0.379219, 9.794592,1,1
1778258181000,  3117.126,  3117.126, 0.029161,-0.036394,-0.995664, 0.000291,-0.000364,-0.009958,-0.018139, 0.024736, 0.030373,1, 0.017355,-0.001766, 0.000124,1,-0.304351, 0.381202, 9.794511,1,1
1778258181021,  3117.151,  3117.146, 0.030139,-0.039193,-0.993903, 0.000302,-0.000390,-0.009939,-0.009570, 0.010674, 0.040627,1, 0.017943,-0.001112,-0.000175,1,-0.304104, 0.384689, 9.794382,1,1
1778258181044,  3117.171,  3117.171, 0.028961,-0.038286,-0.994223, 0.000291,-0.000386,-0.009940,-0.019890, 0.013791, 0.044211,1, 0.016440,-0.000366,-0.000057,1,-0.303891, 0.389760, 9.794188,1,1
1778258181070,  3117.196,  3117.196, 0.027109,-0.038475,-0.995153, 0.000276,-0.000383,-0.009953,-0.038006, 0.015230, 0.034962,1, 0.016743,-0.000344,-0.000773,1,-0.303849, 0.393066, 9.794057,1,1
1778258181092,  3117.221,  3117.216, 0.027368,-0.043020,-0.994882, 0.000272,-0.000431,-0.009948,-0.034418,-0.024148, 0.035414,1, 0.014643,-0.000486,-0.001357,1,-0.303738, 0.396033, 9.793941,1,1
1778258181114,  3117.241,  3117.241, 0.029864,-0.040136,-0.994155, 0.000296,-0.000406,-0.009942,-0.010640, 0.005284, 0.044503,1, 0.008070,-0.000922,-0.001229,1,-0.303480, 0.399135, 9.793823,1,1
1778258181140,  3117.266,  3117.266, 0.032024,-0.035872,-0.994801, 0.000318,-0.000360,-0.009946, 0.010727, 0.048362, 0.038124,1, 0.005349,-0.000666, 0.000424,1,-0.303302, 0.400314, 9.793780,1,1
1778258181162,  3117.291,  3117.286, 0.034411,-0.035933,-0.995189, 0.000342,-0.000357,-0.009953, 0.021024, 0.052845, 0.031803,1, 0.003771,-0.000440, 0.001379,1,-0.303177, 0.401190, 9.793749,1,1
1778258181184,  3117.311,  3117.311, 0.035064,-0.035747,-0.995296, 0.000351,-0.000358,-0.009954, 0.040892, 0.051584, 0.033197,1, 0.004154,-0.000846, 0.003255,1,-0.302939, 0.402274, 9.793712,1,1
1778258181210,  3117.336,  3117.336, 0.034701,-0.035687,-0.994437, 0.000349,-0.000356,-0.009943, 0.037604, 0.052482, 0.041612,1, 0.005479, 0.000109, 0.003798,1,-0.302683, 0.402590, 9.793707,1,1
1778258181232,  3117.361,  3117.356, 0.034393,-0.036598,-0.997201, 0.000345,-0.000364,-0.009969, 0.040275, 0.050652, 0.025874,1, 0.006418,-0.000202, 0.003951,1,-0.302548, 0.403823, 9.793660,1,1
1778258181255,  3117.381,  3117.381, 0.032199,-0.040863,-0.994731, 0.000324,-0.000402,-0.009950, 0.013304, 0.005036, 0.038608,1, 0.006677, 0.000491, 0.004267,1,-0.302470, 0.405981, 9.793573,1,1
1778258181280,  3117.406,  3117.406, 0.029689,-0.045873,-0.992904, 0.000296,-0.000458,-0.009928,-0.011272,-0.042769, 0.056468,1, 0.006292,-0.000377, 0.003180,1,-0.302405, 0.407288, 9.793521,1,1
1778258181302,  3117.431,  3117.426, 0.028636,-0.041218,-0.996273, 0.000287,-0.000415,-0.009958,-0.023978,-0.016675, 0.035426,1, 0.005421,-0.000488, 0.002081,1,-0.302346, 0.408357, 9.793478,1,1
1778258181325,  3117.456,  3117.451, 0.030397,-0.039325,-0.995430, 0.000303,-0.000394,-0.009957,-0.004002, 0.023544, 0.031616,1, 0.002674,-0.001106, 0.000903,1,-0.302061, 0.409271, 9.793448,1,1
1778258181350,  3117.476,  3117.476, 0.031731,-0.038821,-0.993635, 0.000318,-0.000387,-0.009937, 0.009286, 0.028988, 0.049204,1, 0.001173,-0.000227, 0.001075,1,-0.301881, 0.409727, 9.793435,1,1
1778258181372,  3117.501,  3117.496, 0.028918,-0.041627,-0.995548, 0.000292,-0.000419,-0.009956,-0.009572, 0.004803, 0.039648,1,-0.000233, 0.000831, 0.001895,1,-0.301993, 0.409916, 9.793424,1,1
1778258181395,  3117.526,  3117.521, 0.028350,-0.040523,-0.996013, 0.000285,-0.000405,-0.009959,-0.024167, 0.012221, 0.025878,1, 0.000062, 0.000449, 0.001688,1,-0.302416, 0.409195, 9.793441,1,1
1778258181420,  3117.546,  3117.546, 0.028663,-0.038884,-0.993498, 0.000287,-0.000389,-0.009939,-0.021248, 0.027783, 0.050556,1,-0.000333,-0.000455, 0.001427,1,-0.302325, 0.409090, 9.793448,1,1
1778258181442,  3117.571,  3117.566, 0.029674,-0.039302,-0.994675, 0.000301,-0.000393,-0.009949,-0.005259, 0.025797, 0.045240,1,-0.000291,-0.000041, 0.001291,1,-0.302292, 0.409058, 9.793450,1,1
1778258181465,  3117.596,  3117.591, 0.029771,-0.038081,-0.995363, 0.000297,-0.000381,-0.009955,-0.010333, 0.035615, 0.032277,1,-0.000371, 0.000388, 0.002187,1,-0.302298, 0.409057, 9.793450,1,1
1778258181490,  3117.616,  3117.616, 0.029539,-0.037800,-0.995067, 0.000292,-0.000379,-0.009952,-0.012779, 0.038340, 0.035169,1, 0.000087, 0.000681, 0.001833,1,-0.302477, 0.409040, 9.793446,1,1
1778258181512,  3117.641,  3117.636, 0.031039,-0.036226,-0.995374, 0.000312,-0.000363,-0.009953,-0.002853, 0.054118, 0.033818,1, 0.000730,-0.000144, 0.001589,1,-0.302496, 0.409124, 9.793442,1,1
1778258181535,  3117.666,  3117.661, 0.032022,-0.036354,-0.994981, 0.000319,-0.000361,-0.009946, 0.011587, 0.053166, 0.035992,1, 0.002814, 0.000309, 0.003379,1,-0.302444, 0.409765, 9.793416,1,1
1778258181561,  3117.686,  3117.686, 0.031015,-0.038374,-0.994279, 0.000312,-0.000382,-0.009943, 0.001740, 0.034240, 0.042833,1, 0.004804, 0.000083, 0.003632,1,-0.302407, 0.410714, 9.793378,1,1
1778258181582,  3117.711,  3117.706, 0.030267,-0.040599,-0.995565, 0.000303,-0.000408,-0.009956,-0.002485, 0.016206, 0.026044,1, 0.006571, 0.000359, 0.002860,1,-0.302508, 0.411897, 9.793325,1,1
1778258181605,  3117.736,  3117.731, 0.031908,-0.037237,-0.994685, 0.000317,-0.000376,-0.009948, 0.010722, 0.047758, 0.038760,1, 0.009272,-0.000587, 0.001941,1,-0.302159, 0.413154, 9.793283,1,1
1778258181631,  3117.756,  3117.756, 0.031820,-0.036486,-0.993999, 0.000319,-0.000359,-0.009940, 0.010098, 0.057206, 0.045405,1, 0.011791,-0.001610, 0.002663,1,-0.301892, 0.415383, 9.793197,1,1
1778258181652,  3117.781,  3117.776, 0.030253,-0.042310,-0.996110, 0.000301,-0.000424,-0.009958, 0.002650, 0.017824, 0.038057,1, 0.014471,-0.000883, 0.001682,1,-0.301663, 0.418072, 9.793089,1,1
1778258181679,  3117.806,  3117.806, 0.029641,-0.041212,-0.995540, 0.000296,-0.000411,-0.009956,-0.010810, 0.017897, 0.030009,1, 0.015079,-0.000559, 0.001566,1,-0.301469, 0.422522, 9.792904,1,1
1778258181701,  3117.826,  3117.826, 0.029794,-0.041126,-0.993352, 0.000296,-0.000411,-0.009936,-0.009094, 0.021737, 0.051348,1, 0.014415,-0.001461, 0.001400,1,-0.301229, 0.425500, 9.792783,1,1
1778258181722,  3117.851,  3117.846, 0.029506,-0.047178,-0.994214, 0.000297,-0.000465,-0.009944,-0.009905,-0.011711, 0.037936,1, 0.013189,-0.000518, 0.000717,1,-0.301087, 0.428275, 9.792666,1,1
1778258181749,  3117.876,  3117.876, 0.028435,-0.050535,-0.995032, 0.000283,-0.000506,-0.009952,-0.022165,-0.064717, 0.034626,1, 0.007204, 0.000117,-0.000828,1,-0.301019, 0.431086, 9.792545,1,1
1778258181771,  3117.901,  3117.896, 0.027327,-0.046451,-0.994501, 0.000271,-0.000464,-0.009943,-0.032850,-0.032300, 0.048252,1, 0.002599, 0.000358,-0.001539,1,-0.301027, 0.431868, 9.792510,1,1
1778258181792,  3117.921,  3117.916, 0.028839,-0.045907,-0.994505, 0.000286,-0.000459,-0.009944,-0.023587,-0.014633, 0.039139,1,-0.000770,-0.000259,-0.002362,1,-0.301020, 0.431852, 9.792511,1,1
1778258181819,  3117.946,  3117.946, 0.030645,-0.044093,-0.994507, 0.000307,-0.000442,-0.009947,-0.000181,-0.001286, 0.039770,1,-0.003735, 0.000301,-0.003637,1,-0.300716, 0.431000, 9.792558,1,1
1778258181841,  3117.971,  3117.966, 0.031454,-0.042903,-0.994971, 0.000316,-0.000431,-0.009951, 0.004807, 0.011069, 0.038192,1,-0.005963, 0.000407,-0.003788,1,-0.300828, 0.429937, 9.792602,1,1
1778258181862,  3117.991,  3117.986, 0.031041,-0.044949,-0.994474, 0.000310,-0.000448,-0.009946, 0.008025, 0.001476, 0.040794,1,-0.007443, 0.000648,-0.003429,1,-0.300990, 0.428497, 9.792660,1,1
1778258181889,  3118.016,  3118.016, 0.031154,-0.044572,-0.994485, 0.000310,-0.000447,-0.009948, 0.004405,-0.011068, 0.040196,1,-0.009396, 0.000862,-0.004631,1,-0.301146, 0.425735, 9.792775,1,1
1778258181911,  3118.041,  3118.036, 0.033107,-0.038008,-0.994521, 0.000330,-0.000380,-0.009948, 0.012878, 0.034367, 0.036912,1,-0.008361, 0.000483,-0.005055,1,-0.301328, 0.423969, 9.792846,1,1
1778258181932,  3118.061,  3118.056, 0.033740,-0.038700,-0.993375, 0.000337,-0.000384,-0.009935, 0.022409, 0.052777, 0.043362,1,-0.008592, 0.001278,-0.005032,1,-0.301508, 0.422280, 9.792913,1,1
1778258181959,  3118.086,  3118.086, 0.033925,-0.040263,-0.994309, 0.000339,-0.000402,-0.009945, 0.030990, 0.025275, 0.042163,1,-0.007513, 0.000772,-0.004248,1,-0.301729, 0.419880, 9.793010,1,1
1778258181981,  3118.111,  3118.106, 0.034911,-0.034333,-0.995468, 0.000347,-0.000346,-0.009960, 0.032099, 0.060490, 0.023192,1,-0.009077, 0.000398,-0.002057,1,-0.301834, 0.418112, 9.793082,1,1
1778258182003,  3118.131,  3118.126, 0.034997,-0.035399,-0.993608, 0.000349,-0.000351,-0.009936, 0.041240, 0.080774, 0.041099,1,-0.011918, 0.000179, 0.000219,1,-0.302538, 0.415348, 9.793179,1,1
1778258182029,  3118.156,  3118.156, 0.035254,-0.038316,-0.994236, 0.000350,-0.000385,-0.009941, 0.043152, 0.036272, 0.043195,1,-0.013694, 0.000760, 0.002542,1,-0.302591, 0.411595, 9.793335,1,1
1778258182051,  3118.181,  3118.176, 0.033045,-0.033621,-0.996177, 0.000330,-0.000334,-0.009961, 0.029907, 0.073961, 0.025997,1,-0.011674, 0.000927, 0.003348,1,-0.302679, 0.409237, 9.793431,1,1
1778258182073,  3118.201,  3118.196, 0.031372,-0.036862,-0.994724, 0.000316,-0.000367,-0.009948, 0.017403, 0.071896, 0.033298,1,-0.009104, 0.000066, 0.004320,1,-0.302813, 0.407292, 9.793509,1,1
1778258182100,  3118.226,  3118.226, 0.029887,-0.040533,-0.994559, 0.000300,-0.000407,-0.009946,-0.009800, 0.008397, 0.040274,1,-0.003064, 0.000058, 0.002324,1,-0.302886, 0.405792, 9.793569,1,1
1778258182121,  3118.251,  3118.246, 0.027045,-0.040496,-0.995180, 0.000270,-0.000407,-0.009950,-0.034505, 0.007270, 0.040764,1, 0.002049, 0.000048, 0.001666,1,-0.302974, 0.405835, 9.793564,1,1
1778258182143,  3118.271,  3118.266, 0.025856,-0.039760,-0.994978, 0.000259,-0.000398,-0.009951,-0.044757, 0.019433, 0.035560,1, 0.004687,-0.000242,-0.000800,1,-0.302974, 0.406601, 9.793531,1,1
1778258182170,  3118.296,  3118.296, 0.025178,-0.040434,-0.994357, 0.000254,-0.000404,-0.009946,-0.056046, 0.011788, 0.042154,1, 0.006448, 0.000937,-0.002101,1,-0.302990, 0.408506, 9.793452,1,1
1778258182191,  3118.321,  3118.316, 0.025580,-0.040081,-0.995592, 0.000255,-0.000401,-0.009953,-0.056441, 0.008640, 0.035077,1, 0.006135,-0.000136,-0.002407,1,-0.302989, 0.409838, 9.793396,1,1
1778258182214,  3118.341,  3118.341, 0.026905,-0.037118,-0.994418, 0.000269,-0.000372,-0.009944,-0.038857, 0.045865, 0.041497,1, 0.003873,-0.000877,-0.002463,1,-0.302680, 0.409978, 9.793400,1,1
1778258182240,  3118.366,  3118.366, 0.029267,-0.038040,-0.994542, 0.000290,-0.000379,-0.009942,-0.015629, 0.037239, 0.040261,1, 0.000684, 0.000525,-0.000219,1,-0.302653, 0.410307, 9.793387,1,1
1778258182261,  3118.391,  3118.386, 0.032089,-0.039510,-0.995469, 0.000319,-0.000397,-0.009957,-0.002327, 0.020789, 0.037677,1,-0.001122,-0.000071, 0.001020,1,-0.302590, 0.410227, 9.793392,1,1
1778258182284,  3118.411,  3118.411, 0.032779,-0.039347,-0.994716, 0.000327,-0.000392,-0.009948, 0.018761, 0.023670, 0.038585,1,-0.002338,-0.000209, 0.000989,1,-0.302686, 0.409466, 9.793422,1,1
1778258182310,  3118.436,  3118.436, 0.033977,-0.039139,-0.994363, 0.000341,-0.000390,-0.009944, 0.030518, 0.024987, 0.042074,1,-0.003093, 0.000085, 0.002425,1,-0.302681, 0.408714, 9.793453,1,1
1778258182331,  3118.461,  3118.456, 0.034671,-0.038025,-0.995449, 0.000345,-0.000381,-0.009953, 0.030843, 0.037283, 0.035290,1,-0.001864,-0.000061, 0.001506,1,-0.302664, 0.408237, 9.793473,1,1
1778258182354,  3118.481,  3118.481, 0.033719,-0.040709,-0.994846, 0.000340,-0.000406,-0.009949, 0.028088, 0.009085, 0.037366,1, 0.001018, 0.000489, 0.000615,1,-0.302599, 0.408338, 9.793471,1,1
1778258182380,  3118.506,  3118.506, 0.032850,-0.042389,-0.993639, 0.000326,-0.000425,-0.009936, 0.019494,-0.007065, 0.049189,1, 0.002360,-0.000076, 0.000263,1,-0.302649, 0.408702, 9.793454,1,1
1778258182401,  3118.531,  3118.526, 0.032424,-0.038345,-0.995366, 0.000326,-0.000384,-0.009956, 0.018305, 0.023268, 0.035246,1, 0.001531, 0.000205, 0.000216,1,-0.302936, 0.408190, 9.793467,1,1
1778258182424,  3118.551,  3118.551, 0.032308,-0.040664,-0.994936, 0.000323,-0.000401,-0.009951, 0.013886, 0.009760, 0.036467,1, 0.001066, 0.000482, 0.000176,1,-0.302964, 0.408567, 9.793450,1,1
1778258182450,  3118.576,  3118.576, 0.030415,-0.043342,-0.994145, 0.000305,-0.000433,-0.009942,-0.004732,-0.016530, 0.044217,1,-0.001594, 0.001316, 0.000000,1,-0.303040, 0.408462, 9.793452,1,1
1778258182471,  3118.601,  3118.596, 0.028404,-0.042156,-0.995242, 0.000283,-0.000423,-0.009952,-0.019314,-0.013427, 0.035436,1,-0.004096, 0.000615, 0.000073,1,-0.303179, 0.407743, 9.793478,1,1
1778258182494,  3118.621,  3118.621, 0.028150,-0.041548,-0.994626, 0.000281,-0.000415,-0.009949,-0.027247,-0.001194, 0.039591,1,-0.006504, 0.000587,-0.001427,1,-0.303323, 0.406049, 9.793544,1,1
1778258182520,  3118.646,  3118.646, 0.027809,-0.042267,-0.993931, 0.000278,-0.000423,-0.009939,-0.030696,-0.009793, 0.046467,1,-0.009246, 0.000790,-0.000980,1,-0.303431, 0.404419, 9.793608,1,1
1778258182542,  3118.671,  3118.666, 0.028803,-0.038616,-0.995346, 0.000287,-0.000390,-0.009955,-0.027926,-0.002566, 0.035827,1,-0.012218, 0.001045,-0.000551,1,-0.303558, 0.402162, 9.793697,1,1
1778258182564,  3118.696,  3118.691, 0.029780,-0.036396,-0.994552, 0.000297,-0.000363,-0.009945,-0.011591, 0.041749, 0.040612,1,-0.014267, 0.000023, 0.000096,1,-0.303636, 0.398223, 9.793856,1,1
1778258182590,  3118.716,  3118.716, 0.031247,-0.037603,-0.994455, 0.000312,-0.000377,-0.009945, 0.002736, 0.027295, 0.041672,1,-0.012585, 0.000147,-0.000236,1,-0.303701, 0.395657, 9.793958,1,1
1778258182612,  3118.741,  3118.736, 0.032057,-0.035763,-0.995538, 0.000322,-0.000358,-0.009957, 0.016494, 0.038475, 0.035496,1,-0.009776, 0.001402,-0.000539,1,-0.303585, 0.393220, 9.794060,1,1
1778258182634,  3118.766,  3118.761, 0.031758,-0.035845,-0.994812, 0.000320,-0.000357,-0.009947, 0.007701, 0.039558, 0.038368,1,-0.007370, 0.000663, 0.000396,1,-0.303763, 0.390853, 9.794148,1,1
1778258182660,  3118.786,  3118.786, 0.031788,-0.037009,-0.995287, 0.000320,-0.000367,-0.009952, 0.007858, 0.026828, 0.033752,1,-0.006209, 0.000466,-0.000112,1,-0.303886, 0.389574, 9.794196,1,1
1778258182682,  3118.811,  3118.806, 0.032530,-0.038199,-0.994691, 0.000324,-0.000382,-0.009947, 0.015324, 0.027202, 0.036068,1,-0.007437, 0.000482, 0.001147,1,-0.303957, 0.388200, 9.794248,1,1
1778258182705,  3118.836,  3118.831, 0.031082,-0.040312,-0.994167, 0.000312,-0.000399,-0.009941, 0.000810,-0.009360, 0.044885,1,-0.010477, 0.000853, 0.000327,1,-0.304030, 0.385639, 9.794347,1,1
1778258182730,  3118.856,  3118.856, 0.029531,-0.041228,-0.994921, 0.000295,-0.000414,-0.009950,-0.014580,-0.020539, 0.037570,1,-0.011549, 0.000565,-0.000383,1,-0.304200, 0.383413, 9.794429,1,1
1778258182752,  3118.881,  3118.876, 0.030796,-0.035689,-0.994654, 0.000308,-0.000357,-0.009948,-0.008406, 0.011897, 0.038242,1,-0.011829, 0.000836,-0.001181,1,-0.304398, 0.381056, 9.794515,1,1
1778258182775,  3118.906,  3118.901, 0.031361,-0.034696,-0.994875, 0.000315,-0.000345,-0.009945, 0.003167, 0.037586, 0.038249,1,-0.011072, 0.000942,-0.000868,1,-0.304412, 0.377488, 9.794653,1,1
1778258182800,  3118.926,  3118.926, 0.031254,-0.034316,-0.994306, 0.000314,-0.000345,-0.009943, 0.001219, 0.036471, 0.026468,1,-0.010041, 0.000997,-0.001483,1,-0.304676, 0.374678, 9.794752,1,1
1778258182822,  3118.951,  3118.946, 0.030283,-0.034614,-0.995567, 0.000304,-0.000348,-0.009954,-0.004880, 0.032637, 0.027726,1,-0.009464, 0.000811,-0.000826,1,-0.304860, 0.372754, 9.794820,1,1
1778258182845,  3118.976,  3118.971, 0.030927,-0.033757,-0.995153, 0.000307,-0.000336,-0.009951,-0.001640, 0.039813, 0.035769,1,-0.005188, 0.000832,-0.001369,1,-0.304955, 0.370697, 9.794895,1,1
1778258182870,  3118.996,  3118.996, 0.031640,-0.032523,-0.995428, 0.000316,-0.000325,-0.009957, 0.005256, 0.051237, 0.033102,1,-0.001953, 0.000337,-0.000922,1,-0.305037, 0.370118, 9.794914,1,1
1778258182892,  3119.021,  3119.016, 0.030631,-0.032125,-0.995123, 0.000308,-0.000322,-0.009951,-0.002558, 0.055461, 0.038852,1,-0.000265,-0.000173,-0.000397,1,-0.305029, 0.369899, 9.794923,1,1
1778258182919,  3119.046,  3119.046, 0.031041,-0.032691,-0.994618, 0.000312,-0.000324,-0.009945,-0.000574, 0.049859, 0.041032,1, 0.002880,-0.000668, 0.000009,1,-0.304965, 0.370541, 9.794901,1,1
1778258182940,  3119.066,  3119.066, 0.030708,-0.037542,-0.995293, 0.000308,-0.000373,-0.009953,-0.003802, 0.003023, 0.034382,1, 0.004341,-0.000377,-0.000201,1,-0.304931, 0.371318, 9.794872,1,1
1778258182962,  3119.091,  3119.086, 0.030293,-0.037666,-0.995165, 0.000304,-0.000377,-0.009950,-0.003582, 0.001271, 0.035544,1, 0.004087,-0.000014,-0.000596,1,-0.304938, 0.372084, 9.794843,1,1
1778258182989,  3119.116,  3119.116, 0.028431,-0.037657,-0.994264, 0.000287,-0.000376,-0.009942,-0.026201, 0.003833, 0.044406,1, 0.003873, 0.000121,-0.001566,1,-0.305020, 0.373238, 9.794797,1,1
1778258183011,  3119.141,  3119.136, 0.028951,-0.037694,-0.994563, 0.000290,-0.000379,-0.009946,-0.031849,-0.000724, 0.038123,1, 0.004876,-0.000709,-0.001909,1,-0.304851, 0.372944, 9.794813,1,1
1778258183032,  3119.161,  3119.156, 0.030821,-0.036322,-0.995209, 0.000306,-0.000362,-0.009950,-0.012740, 0.015427, 0.038665,1, 0.005581,-0.001060,-0.002720,1,-0.304689, 0.374014, 9.794777,1,1
1778258183059,  3119.186,  3119.186, 0.032020,-0.036498,-0.994931, 0.000319,-0.000363,-0.009947, 0.009415, 0.017271, 0.037799,1, 0.003320,-0.000090,-0.002623,1,-0.304592, 0.375297, 9.794731,1,1
1778258183081,  3119.211,  3119.206, 0.031703,-0.035886,-0.995369, 0.000316,-0.000361,-0.009952, 0.007392, 0.017013, 0.036074,1, 0.002840, 0.000108,-0.002532,1,-0.304645, 0.375883, 9.794707,1,1
1778258183102,  3119.231,  3119.226, 0.031742,-0.035350,-0.995414, 0.000316,-0.000350,-0.009952, 0.009477, 0.030103, 0.039192,1, 0.002656,-0.000583,-0.001596,1,-0.304595, 0.376395, 9.794689,1,1
1778258183129,  3119.256,  3119.256, 0.032301,-0.034046,-0.995277, 0.000323,-0.000340,-0.009952, 0.012272, 0.043096, 0.034341,1, 0.002419,-0.000914,-0.001452,1,-0.304469, 0.377048, 9.794668,1,1
1778258183151,  3119.281,  3119.276, 0.032965,-0.035542,-0.994415, 0.000328,-0.000356,-0.009942, 0.015752, 0.040370, 0.047194,1, 0.002720,-0.000339,-0.001205,1,-0.304420, 0.377527, 9.794651,1,1
1778258183172,  3119.301,  3119.296, 0.031824,-0.036946,-0.995413, 0.000319,-0.000368,-0.009954, 0.015752, 0.040370, 0.047194,1, 0.002720,-0.000339,-0.001205,1,-0.304420, 0.377527, 9.794651,1,1
1778258183199,  3119.326,  3119.326, 0.032138,-0.037840,-0.995179, 0.000320,-0.000380,-0.009954, 0.010789, 0.006785, 0.035263,1, 0.000310,-0.000336,-0.000230,1,-0.304481, 0.377303, 9.794658,1,1
1778258183221,  3119.351,  3119.346, 0.032108,-0.038089,-0.995088, 0.000325,-0.000381,-0.009947, 0.008964, 0.002481, 0.044361,1,-0.002182,-0.000212, 0.000185,1,-0.304395, 0.377058, 9.794670,1,1
1778258183242,  3119.371,  3119.366, 0.032493,-0.035740,-0.994941, 0.000325,-0.000359,-0.009948, 0.018412, 0.014366, 0.035274,1,-0.002633,-0.000177, 0.000602,1,-0.304391, 0.376602, 9.794687,1,1
1778258183269,  3119.396,  3119.396, 0.030864,-0.035753,-0.994413, 0.000307,-0.000357,-0.009946,-0.001861, 0.025458, 0.042845,1,-0.001646, 0.000155, 0.000234,1,-0.304538, 0.376024, 9.794705,1,1
1778258183291,  3119.421,  3119.416, 0.030069,-0.037431,-0.995014, 0.000300,-0.000376,-0.009948,-0.008694, 0.009254, 0.040975,1,-0.001394, 0.000042,-0.000583,1,-0.304601, 0.375616, 9.794719,1,1
1778258183312,  3119.441,  3119.436, 0.029856,-0.035818,-0.995406, 0.000297,-0.000359,-0.009954,-0.006875, 0.018996, 0.035826,1,-0.000676,-0.000177,-0.000843,1,-0.304635, 0.375390, 9.794726,1,1
1778258183339,  3119.466,  3119.466, 0.029504,-0.035381,-0.995114, 0.000297,-0.000356,-0.009949,-0.015246, 0.028006, 0.036013,1,-0.001518, 0.000050, 0.000085,1,-0.304580, 0.374931, 9.794745,1,1
1778258183361,  3119.491,  3119.486, 0.031170,-0.034393,-0.995512, 0.000309,-0.000343,-0.009953,-0.008555, 0.038426, 0.037051,1,-0.001209,-0.000128, 0.000453,1,-0.304572, 0.374687, 9.794755,1,1
1778258183382,  3119.511,  3119.506, 0.031893,-0.034415,-0.995422, 0.000319,-0.000342,-0.009954, 0.004411, 0.036847, 0.038132,1,-0.000424,-0.000718, 0.001181,1,-0.304496, 0.374564, 9.794763,1,1
1778258183409,  3119.536,  3119.536, 0.031127,-0.035274,-0.994823, 0.000311,-0.000351,-0.009950, 0.000781, 0.028212, 0.038901,1, 0.001777,-0.000252, 0.000773,1,-0.304466, 0.374156, 9.794779,1,1
1778258183431,  3119.561,  3119.556, 0.029291,-0.038349,-0.996149, 0.000291,-0.000382,-0.009959,-0.012455, 0.009959, 0.036411,1, 0.001740, 0.000148, 0.001151,1,-0.304506, 0.374478, 9.794765,1,1
1778258183454,  3119.581,  3119.581, 0.030475,-0.037451,-0.995475, 0.000307,-0.000375,-0.009953,-0.005694, 0.007817, 0.032462,1, 0.002926, 0.000304,-0.000852,1,-0.304560, 0.375176, 9.794737,1,1
1778258183479,  3119.606,  3119.606, 0.031207,-0.036501,-0.994474, 0.000310,-0.000365,-0.009944, 0.001495, 0.017440, 0.042270,1, 0.000409, 0.000374,-0.000245,1,-0.304555, 0.375408, 9.794728,1,1
1778258183501,  3119.631,  3119.626, 0.031565,-0.036794,-0.995915, 0.000317,-0.000369,-0.009956, 0.004060, 0.006646, 0.031759,1,-0.000419,-0.000265,-0.000000,1,-0.304675, 0.375361, 9.794726,1,1
1778258183524,  3119.651,  3119.651, 0.032588,-0.034454,-0.994353, 0.000325,-0.000344,-0.009944, 0.014833, 0.036984, 0.043466,1,-0.002806, 0.000027, 0.001237,1,-0.304750, 0.374775, 9.794746,1,1
1778258183550,  3119.676,  3119.676, 0.033118,-0.039099,-0.993254, 0.000329,-0.000384,-0.009931, 0.020029,-0.009424, 0.054281,1,-0.005895, 0.000051, 0.001820,1,-0.304750, 0.373827, 9.794783,1,1
1778258183571,  3119.701,  3119.696, 0.031290,-0.039913,-0.995570, 0.000314,-0.000399,-0.009957, 0.006164,-0.027610, 0.035463,1,-0.007188, 0.000263, 0.000875,1,-0.304843, 0.372598, 9.794827,1,1
1778258183594,  3119.721,  3119.721, 0.030769,-0.038993,-0.995392, 0.000308,-0.000389,-0.009955,-0.003314,-0.012550, 0.033463,1,-0.011280, 0.000351, 0.000256,1,-0.305155, 0.369276, 9.794943,1,1
1778258183620,  3119.746,  3119.746, 0.031637,-0.039190,-0.994091, 0.000317,-0.000395,-0.009942, 0.005075,-0.017154, 0.046314,1,-0.013744, 0.000181,-0.001121,1,-0.305185, 0.366743, 9.795036,1,1
1778258183641,  3119.771,  3119.766, 0.033126,-0.036112,-0.995147, 0.000329,-0.000363,-0.009951, 0.004531,-0.003579, 0.036939,1,-0.016993, 0.000727,-0.001689,1,-0.305292, 0.363596, 9.795151,1,1
1778258183664,  3119.791,  3119.791, 0.033040,-0.033287,-0.994856, 0.000329,-0.000335,-0.009948, 0.018383, 0.032380, 0.039109,1,-0.019155, 0.000824, 0.000322,1,-0.305651, 0.358213, 9.795338,1,1
1778258183690,  3119.816,  3119.816, 0.033954,-0.033515,-0.995265, 0.000338,-0.000332,-0.009952, 0.027220, 0.026280, 0.035235,1,-0.019853, 0.000371,-0.000029,1,-0.305766, 0.354332, 9.795476,1,1
1778258183711,  3119.841,  3119.836, 0.033400,-0.034819,-0.995185, 0.000335,-0.000349,-0.009951, 0.025420, 0.009547, 0.039273,1,-0.018744, 0.001110, 0.000141,1,-0.305964, 0.350597, 9.795604,1,1
1778258183734,  3119.861,  3119.861, 0.031999,-0.033710,-0.994283, 0.000323,-0.000339,-0.009942, 0.007468, 0.015014, 0.045180,1,-0.018844, 0.000606,-0.000194,1,-0.306351, 0.345006, 9.795790,1,1
1778258183760,  3119.886,  3119.886, 0.032456,-0.031310,-0.996500, 0.000325,-0.000314,-0.009966, 0.011756, 0.034973, 0.023564,1,-0.017640, 0.000939,-0.000645,1,-0.306560, 0.341464, 9.795908,1,1
1778258183781,  3119.911,  3119.906, 0.032209,-0.030723,-0.994110, 0.000323,-0.000306,-0.009945, 0.013748, 0.047383, 0.025846,1,-0.017267,-0.000178, 0.000289,1,-0.306680, 0.338011, 9.796023,1,1
1778258183804,  3119.936,  3119.931, 0.030073,-0.035071,-0.993405, 0.000300,-0.000348,-0.009933,-0.012683,-0.010581, 0.054176,1,-0.016091, 0.001903,-0.000296,1,-0.307688, 0.332818, 9.796170,1,1
1778258183830,  3119.956,  3119.956, 0.027394,-0.033862,-0.996868, 0.000275,-0.000341,-0.009965,-0.039329,-0.001801, 0.020310,1,-0.014891, 0.001943,-0.001783,1,-0.308035, 0.329810, 9.796261,1,1
1778258183851,  3119.981,  3119.976, 0.027818,-0.027439,-0.994500, 0.000277,-0.000276,-0.009949,-0.038168, 0.041064, 0.031385,1,-0.014213, 0.001076,-0.000771,1,-0.308282, 0.326963, 9.796349,1,1
1778258183874,  3120.006,  3120.001, 0.029145,-0.027152,-0.994145, 0.000293,-0.000270,-0.009940,-0.022597, 0.057096, 0.047233,1,-0.012980, 0.000497,-0.000615,1,-0.308426, 0.322957, 9.796476,1,1
1778258183900,  3120.026,  3120.026, 0.029535,-0.030146,-0.995468, 0.000298,-0.000295,-0.009955,-0.018954, 0.025396, 0.034324,1,-0.011933, 0.001201, 0.000226,1,-0.308629, 0.320656, 9.796546,1,1
1778258183921,  3120.051,  3120.046, 0.028954,-0.032153,-0.995899, 0.000288,-0.000325,-0.009956,-0.027773,-0.009606, 0.033626,1,-0.014267, 0.001279, 0.000123,1,-0.308804, 0.317926, 9.796629,1,1
1778258183944,  3120.076,  3120.071, 0.031372,-0.027022,-0.994596, 0.000310,-0.000272,-0.009947,-0.001333, 0.048595, 0.043106,1,-0.017796, 0.000088, 0.001296,1,-0.308989, 0.313036, 9.796781,1,1
1778258183970,  3120.096,  3120.096, 0.032192,-0.027182,-0.995539, 0.000323,-0.000270,-0.009955, 0.006729, 0.043437, 0.033976,1,-0.019266, 0.000505, 0.002306,1,-0.308976, 0.309398, 9.796897,1,1
1778258183992,  3120.121,  3120.116, 0.031278,-0.030235,-0.996762, 0.000311,-0.000303,-0.009970, 0.002563, 0.012274, 0.030373,1,-0.018337, 0.001628, 0.003171,1,-0.309266, 0.305783, 9.797001,1,1
1778258184014,  3120.146,  3120.141, 0.030778,-0.030395,-0.995469, 0.000309,-0.000307,-0.009950,-0.013960, 0.011450, 0.044908,1,-0.015995, 0.000813, 0.002216,1,-0.309043, 0.299894, 9.797191,1,1
1778258184040,  3120.166,  3120.166, 0.030758,-0.029181,-0.994081, 0.000308,-0.000294,-0.009949,-0.007455, 0.011321, 0.048657,1,-0.013435, 0.000785, 0.000859,1,-0.309107, 0.297067, 9.797275,1,1
1778258184062,  3120.191,  3120.186, 0.032987,-0.026376,-0.994401, 0.000336,-0.000264,-0.009954, 0.008352, 0.010252, 0.037473,1,-0.011026, 0.000412,-0.001136,1,-0.309133, 0.294774, 9.797343,1,1
1778258184084,  3120.216,  3120.211, 0.032897,-0.029049,-0.991582, 0.000339,-0.000290,-0.009939, 0.013192, 0.007141, 0.073314,1,-0.010788, 0.000362,-0.000123,1,-0.309426, 0.291679, 9.797426,1,1
1778258184110,  3120.236,  3120.236, 0.033585,-0.027350,-0.994729, 0.000339,-0.000292,-0.009968, 0.019811, 0.021732, 0.042517,1,-0.010224, 0.000891,-0.000742,1,-0.309573, 0.289621, 9.797482,1,1
1778258184132,  3120.261,  3120.256, 0.033738,-0.028809,-0.993191, 0.000334,-0.000291,-0.009939, 0.009256, 0.009108, 0.051588,1,-0.009242, 0.001343,-0.000555,1,-0.309731, 0.287551, 9.797539,1,1
1778258184159,  3120.286,  3120.286, 0.033514,-0.029619,-0.996083, 0.000332,-0.000295,-0.009962, 0.018779,-0.005749, 0.029377,1,-0.010527, 0.000703,-0.001644,1,-0.309904, 0.284389, 9.797626,1,1
1778258184180,  3120.306,  3120.306, 0.034321,-0.027573,-0.995810, 0.000345,-0.000274,-0.009961, 0.026542, 0.012367, 0.032111,1,-0.010301, 0.000672,-0.002517,1,-0.310053, 0.282445, 9.797677,1,1
1778258184202,  3120.331,  3120.326, 0.035490,-0.029298,-0.993638, 0.000354,-0.000295,-0.009936, 0.030311, 0.006458, 0.054986,1,-0.009789, 0.000783,-0.002751,1,-0.310654, 0.280299, 9.797720,1,1
1778258184229,  3120.356,  3120.356, 0.035485,-0.026068,-0.995381, 0.000354,-0.000263,-0.009951, 0.037104, 0.022103, 0.036426,1,-0.009434, 0.001124,-0.003451,1,-0.310921, 0.277447, 9.797792,1,1
1778258184250,  3120.381,  3120.376, 0.034021,-0.024309,-0.995129, 0.000344,-0.000249,-0.009954, 0.036521, 0.034061, 0.040425,1,-0.011942, 0.000676,-0.001834,1,-0.311039, 0.275277, 9.797850,1,1
1778258184272,  3120.401,  3120.396, 0.029839,-0.022961,-0.994541, 0.000301,-0.000234,-0.009947, 0.006566, 0.046578, 0.039105,1,-0.014273, 0.002958,-0.000603,1,-0.311364, 0.272786, 9.797909,1,1
1778258184299,  3120.426,  3120.426, 0.027983,-0.024485,-0.996160, 0.000278,-0.000243,-0.009956,-0.037407, 0.028629, 0.029012,1,-0.015315, 0.000710, 0.001065,1,-0.311853, 0.268267, 9.798018,1,1
1778258184320,  3120.451,  3120.446, 0.031804,-0.019347,-0.995003, 0.000317,-0.000200,-0.009957,-0.020296, 0.045211, 0.022781,1,-0.012724,-0.000785, 0.000756,1,-0.311883, 0.265543, 9.798092,1,1
1778258184342,  3120.471,  3120.466, 0.032678,-0.019274,-0.992500, 0.000333,-0.000191,-0.009937,-0.012780, 0.078201, 0.065589,1,-0.010351, 0.000307, 0.001621,1,-0.311796, 0.263371, 9.798153,1,1
1778258184369,  3120.496,  3120.496, 0.032902,-0.019852,-0.996224, 0.000324,-0.000201,-0.009961, 0.010721, 0.066660, 0.028581,1,-0.005206, 0.001147, 0.002999,1,-0.311970, 0.261178, 9.798206,1,1
1778258184390,  3120.521,  3120.516, 0.029193,-0.020264,-0.995240, 0.000295,-0.000203,-0.009957,-0.015936, 0.067520, 0.025499,1,-0.000990, 0.000743, 0.002682,1,-0.312146, 0.260761, 9.798212,1,1
1778258184412,  3120.541,  3120.536, 0.031074,-0.020838,-0.995863, 0.000307,-0.000212,-0.009959,-0.018394, 0.055056, 0.038587,1, 0.004588,-0.000957, 0.002769,1,-0.312349, 0.259812, 9.798230,1,1
1778258184439,  3120.566,  3120.566, 0.032530,-0.018543,-0.995166, 0.000326,-0.000185,-0.009950, 0.006880, 0.080483, 0.038922,1, 0.013267,-0.000356, 0.003049,1,-0.312119, 0.262749, 9.798160,1,1
1778258184461,  3120.591,  3120.586, 0.029522,-0.021405,-0.994718, 0.000294,-0.000211,-0.009948,-0.011631, 0.071231, 0.046146,1, 0.018259,-0.000061, 0.002962,1,-0.312002, 0.266069, 9.798074,1,1
1778258184482,  3120.611,  3120.606, 0.027650,-0.024185,-0.995933, 0.000278,-0.000239,-0.009955,-0.037817, 0.040301, 0.035268,1, 0.022678,-0.000784, 0.003040,1,-0.311857, 0.270435, 9.797958,1,1
1778258184509,  3120.636,  3120.636, 0.028648,-0.023001,-0.996355, 0.000285,-0.000232,-0.009969,-0.030459, 0.052344, 0.026857,1, 0.030878,-0.003314, 0.002276,1,-0.311296, 0.278874, 9.797740,1,1
1778258184531,  3120.661,  3120.656, 0.029442,-0.024614,-0.994236, 0.000294,-0.000241,-0.009938,-0.023725, 0.055008, 0.042174,1, 0.034711,-0.002169, 0.001983,1,-0.310711, 0.285462, 9.797569,1,1
1778258184552,  3120.681,  3120.676, 0.028291,-0.026702,-0.995426, 0.000284,-0.000265,-0.009953,-0.025738, 0.037159, 0.047005,1, 0.037451,-0.002017, 0.001665,1,-0.310236, 0.292740, 9.797369,1,1
1778258184579,  3120.706,  3120.706, 0.027208,-0.026802,-0.997382, 0.000269,-0.000262,-0.009971,-0.042856, 0.040304, 0.016096,1, 0.040990,-0.002959, 0.002164,1,-0.309585, 0.304419, 9.797033,1,1
1778258184601,  3120.731,  3120.726, 0.028985,-0.029003,-0.994252, 0.000287,-0.000288,-0.009941,-0.029379, 0.041571, 0.035602,1, 0.041858,-0.002356, 0.002280,1,-0.308291, 0.310854, 9.796872,1,1
1778258184622,  3120.751,  3120.746, 0.030239,-0.030884,-0.994556, 0.000301,-0.000305,-0.009948,-0.014244, 0.022480, 0.044752,1, 0.042033,-0.004248, 0.002388,1,-0.307668, 0.319178, 9.796624,1,1
1778258184649,  3120.776,  3120.776, 0.031064,-0.031423,-0.995638, 0.000308,-0.000313,-0.009953,-0.002217, 0.022163, 0.032402,1, 0.042213,-0.002511, 0.003710,1,-0.306772, 0.331639, 9.796239,1,1
1778258184671,  3120.801,  3120.796, 0.031159,-0.030273,-0.994121, 0.000311,-0.000301,-0.009943,-0.002443, 0.030018, 0.040330,1, 0.041933,-0.003207, 0.003407,1,-0.306262, 0.339900, 9.795972,1,1
1778258184694,  3120.821,  3120.821, 0.032760,-0.034237,-0.994977, 0.000325,-0.000336,-0.009951, 0.015705, 0.015229, 0.038212,1, 0.042486,-0.002056, 0.004150,1,-0.305489, 0.352312, 9.795557,1,1
1778258184719,  3120.846,  3120.846, 0.033683,-0.037033,-0.995746, 0.000336,-0.000369,-0.009954, 0.025295,-0.003925, 0.030387,1, 0.041938,-0.003209, 0.004871,1,-0.304913, 0.360561, 9.795275,1,1
1778258184741,  3120.871,  3120.866, 0.032560,-0.037540,-0.993639, 0.000324,-0.000380,-0.009937, 0.020894, 0.005593, 0.046577,1, 0.041467,-0.002687, 0.003879,1,-0.304402, 0.368779, 9.794985,1,1
1778258184764,  3120.891,  3120.891, 0.031348,-0.041473,-0.994298, 0.000316,-0.000408,-0.009942, 0.003564,-0.027163, 0.043853,1, 0.041065,-0.002567, 0.002616,1,-0.303776, 0.380833, 9.794543,1,1
1778258184789,  3120.916,  3120.916, 0.031854,-0.043249,-0.995495, 0.000317,-0.000429,-0.009954, 0.009144,-0.036640, 0.031822,1, 0.039900,-0.003432, 0.001540,1,-0.303128, 0.388731, 9.794252,1,1
1778258184811,  3120.941,  3120.936, 0.032577,-0.042115,-0.993975, 0.000328,-0.000421,-0.009939, 0.017018,-0.013916, 0.035734,1, 0.037823,-0.003240, 0.000943,1,-0.302664, 0.395990, 9.793976,1,1
1778258184834,  3120.961,  3120.961, 0.031522,-0.042903,-0.993754, 0.000318,-0.000427,-0.009935, 0.006996,-0.015196, 0.048206,1, 0.033207,-0.001737, 0.000316,1,-0.302075, 0.406575, 9.793561,1,1
1778258184859,  3120.986,  3120.986, 0.029865,-0.044638,-0.995380, 0.000299,-0.000445,-0.009956,-0.008960,-0.026040, 0.032010,1, 0.029799,-0.002300, 0.000394,1,-0.301767, 0.412638, 9.793317,1,1
1778258184881,  3121.011,  3121.006, 0.028777,-0.043689,-0.994208, 0.000288,-0.000438,-0.009948,-0.026662,-0.025426, 0.037454,1, 0.026539,-0.001875, 0.000881,1,-0.301457, 0.418070, 9.793096,1,1
1778258184904,  3121.031,  3121.031, 0.029361,-0.043482,-0.993499, 0.000295,-0.000435,-0.009939,-0.013095,-0.002448, 0.049959,1, 0.019424,-0.001663, 0.001121,1,-0.300972, 0.424569, 9.792831,1,1
1778258184929,  3121.056,  3121.056, 0.030858,-0.045095,-0.993651, 0.000309,-0.000448,-0.009935, 0.001739,-0.014990, 0.048325,1, 0.014163,-0.000366, 0.001883,1,-0.300857, 0.427687, 9.792699,1,1
1778258184951,  3121.081,  3121.076, 0.028799,-0.048703,-0.994663, 0.000291,-0.000485,-0.009949,-0.011643,-0.041530, 0.042693,1, 0.007597,-0.000051, 0.001701,1,-0.300754, 0.429565, 9.792620,1,1
1778258184974,  3121.101,  3121.101, 0.028765,-0.046484,-0.995149, 0.000286,-0.000468,-0.009951,-0.018694,-0.025091, 0.033487,1, 0.001838,-0.000452, 0.000938,1,-0.300767, 0.430823, 9.792564,1,1
1778258185000,  3121.126,  3121.126, 0.030684,-0.044825,-0.993711, 0.000305,-0.000445,-0.009939, 0.000230,-0.008643, 0.047588,1,-0.001843,-0.000344, 0.001476,1,-0.300561, 0.431433, 9.792543,1,1
1778258185021,  3121.151,  3121.146, 0.031819,-0.045434,-0.994431, 0.000319,-0.000456,-0.009947, 0.012224,-0.024073, 0.050660,1,-0.005706,-0.000723, 0.001379,1,-0.300414, 0.430522, 9.792588,1,1
1778258185044,  3121.176,  3121.171, 0.031254,-0.043849,-0.995002, 0.000312,-0.000441,-0.009950, 0.005956,-0.001660, 0.035039,1,-0.010175, 0.000598, 0.001815,1,-0.300559, 0.428040, 9.792693,1,1
1778258185070,  3121.196,  3121.196, 0.030596,-0.044712,-0.995786, 0.000302,-0.000441,-0.009952,-0.000781,-0.012550, 0.027450,1,-0.013947, 0.001494, 0.002290,1,-0.300870, 0.425488, 9.792794,1,1
1778258185091,  3121.221,  3121.216, 0.030839,-0.045580,-0.994665, 0.000308,-0.000458,-0.009951,-0.005960,-0.036549, 0.040031,1,-0.016463, 0.001193, 0.000640,1,-0.301011, 0.422512, 9.792919,1,1
1778258185114,  3121.246,  3121.241, 0.031231,-0.044071,-0.994703, 0.000311,-0.000447,-0.009947, 0.004645, 0.002412, 0.034596,1,-0.018225, 0.001083, 0.000406,1,-0.301295, 0.417396, 9.793130,1,1
1778258185140,  3121.266,  3121.266, 0.030856,-0.041027,-0.993822, 0.000308,-0.000409,-0.009939, 0.001103, 0.011991, 0.047193,1,-0.018310, 0.001350, 0.000240,1,-0.301536, 0.413758, 9.793277,1,1
1778258185161,  3121.291,  3121.286, 0.030036,-0.042970,-0.995122, 0.000300,-0.000429,-0.009952,-0.005032,-0.007704, 0.035292,1,-0.020098, 0.000057,-0.000750,1,-0.301760, 0.409905, 9.793431,1,1
1778258185184,  3121.316,  3121.311, 0.030249,-0.039145,-0.995181, 0.000302,-0.000397,-0.009952,-0.005491, 0.020975, 0.034238,1,-0.019720, 0.001872,-0.000805,1,-0.302189, 0.404236, 9.793654,1,1
1778258185210,  3121.336,  3121.336, 0.030378,-0.038048,-0.994310, 0.000302,-0.000380,-0.009942,-0.004646, 0.028267, 0.042909,1,-0.019256, 0.001894,-0.000691,1,-0.302614, 0.400804, 9.793782,1,1
1778258185231,  3121.361,  3121.356, 0.029288,-0.040524,-0.995851, 0.000293,-0.000408,-0.009958,-0.013067, 0.003171, 0.045291,1,-0.019722, 0.002332,-0.001454,1,-0.303013, 0.396980, 9.793925,1,1
1778258185254,  3121.386,  3121.381, 0.029442,-0.038780,-0.995425, 0.000296,-0.000393,-0.009953,-0.014778, 0.011598, 0.032328,1,-0.018818, 0.001875,-0.001210,1,-0.303570, 0.391314, 9.794136,1,1
1778258185280,  3121.406,  3121.406, 0.029856,-0.037987,-0.994485, 0.000298,-0.000379,-0.009943,-0.010910, 0.015797, 0.041680,1,-0.017900, 0.000835,-0.002765,1,-0.303731, 0.387760, 9.794272,1,1
1778258185301,  3121.431,  3121.426, 0.031502,-0.036537,-0.995559, 0.000316,-0.000369,-0.009957, 0.000690, 0.018331, 0.037223,1,-0.017151, 0.001296,-0.002962,1,-0.303981, 0.384346, 9.794399,1,1
1778258185324,  3121.456,  3121.451, 0.032250,-0.034577,-0.994270, 0.000323,-0.000345,-0.009945, 0.012054, 0.041011, 0.044097,1,-0.015380, 0.001283,-0.001711,1,-0.304251, 0.379618, 9.794576,1,1
1778258185350,  3121.476,  3121.476, 0.031951,-0.033867,-0.995187, 0.000320,-0.000337,-0.009952, 0.008892, 0.045388, 0.035205,1,-0.011970, 0.001319,-0.002007,1,-0.304488, 0.377132, 9.794664,1,1
1778258185371,  3121.501,  3121.496, 0.032306,-0.035271,-0.995686, 0.000320,-0.000350,-0.009956, 0.010396, 0.035508, 0.031209,1,-0.009667, 0.001178,-0.001830,1,-0.304695, 0.375093, 9.794736,1,1
1778258185398,  3121.526,  3121.526, 0.031922,-0.033666,-0.995792, 0.000319,-0.000340,-0.009956, 0.008188, 0.042475, 0.029444,1,-0.007340, 0.000745,-0.001673,1,-0.304885, 0.371769, 9.794857,1,1
1778258185420,  3121.546,  3121.546, 0.030921,-0.033184,-0.994192, 0.000311,-0.000331,-0.009943,-0.001761, 0.045339, 0.045194,1,-0.005443, 0.000886,-0.000990,1,-0.305017, 0.370593, 9.794897,1,1
1778258185442,  3121.571,  3121.566, 0.031801,-0.033580,-0.995363, 0.000318,-0.000336,-0.009953, 0.005734, 0.036195, 0.029464,1,-0.005507,-0.000153,-0.000384,1,-0.305120, 0.369403, 9.794939,1,1
1778258185469,  3121.596,  3121.596, 0.031968,-0.034149,-0.994362, 0.000319,-0.000343,-0.009946, 0.008168, 0.033116, 0.043623,1,-0.005309, 0.001037, 0.000835,1,-0.305362, 0.367837, 9.794991,1,1
1778258185490,  3121.621,  3121.616, 0.031175,-0.036219,-0.994886, 0.000311,-0.000362,-0.009947,-0.000445, 0.016360, 0.033362,1,-0.005079,-0.000026, 0.000281,1,-0.305340, 0.366868, 9.795028,1,1
1778258185512,  3121.641,  3121.636, 0.030430,-0.037003,-0.995240, 0.000305,-0.000370,-0.009953,-0.001617, 0.004390, 0.036404,1,-0.002872, 0.000764,-0.000195,1,-0.305434, 0.366141, 9.795052,1,1
1778258185539,  3121.666,  3121.666, 0.030062,-0.034384,-0.995126, 0.000298,-0.000348,-0.009952,-0.010960, 0.028225, 0.036218,1,-0.001653, 0.000574,-0.000441,1,-0.305787, 0.365366, 9.795070,1,1
1778258185560,  3121.691,  3121.686, 0.030174,-0.033922,-0.994454, 0.000305,-0.000336,-0.009945,-0.006016, 0.041928, 0.042205,1,-0.001596, 0.000332,-0.000978,1,-0.305852, 0.365055, 9.795079,1,1
1778258185582,  3121.711,  3121.706, 0.029986,-0.036460,-0.994924, 0.000300,-0.000365,-0.009949,-0.015110, 0.020562, 0.040106,1,-0.000921, 0.000928,-0.000110,1,-0.305964, 0.364834, 9.795084,1,1
1778258185609,  3121.736,  3121.736, 0.029720,-0.036401,-0.995249, 0.000296,-0.000362,-0.009955,-0.014619, 0.007010, 0.035054,1, 0.000388, 0.000158, 0.000096,1,-0.306072, 0.363952, 9.795114,1,1
1778258185630,  3121.761,  3121.756, 0.030031,-0.035179,-0.994895, 0.000301,-0.000351,-0.009948,-0.010851, 0.022673, 0.038281,1, 0.000356,-0.000532,-0.000683,1,-0.306089, 0.364012, 9.795111,1,1
1778258185652,  3121.781,  3121.776, 0.030940,-0.034594,-0.995024, 0.000310,-0.000346,-0.009952,-0.003631, 0.025748, 0.035925,1, 0.000421,-0.000095,-0.000581,1,-0.306097, 0.364128, 9.795106,1,1
1778258185679,  3121.806,  3121.806, 0.031474,-0.034438,-0.995446, 0.000317,-0.000343,-0.009956, 0.002492, 0.026654, 0.033100,1, 0.000214,-0.000600,-0.000168,1,-0.306147, 0.364379, 9.795095,1,1
1778258185700,  3121.831,  3121.826, 0.031961,-0.036618,-0.995028, 0.000319,-0.000367,-0.009949, 0.002125, 0.014830, 0.039489,1, 0.000785, 0.000251, 0.000138,1,-0.306190, 0.364562, 9.795087,1,1
1778258185722,  3121.851,  3121.846, 0.032332,-0.036844,-0.994967, 0.000323,-0.000370,-0.009949, 0.003456, 0.003181, 0.042016,1, 0.000028, 0.000328,-0.000056,1,-0.306175, 0.364559, 9.795088,1,1
1778258185749,  3121.876,  3121.876, 0.033877,-0.036833,-0.994493, 0.000338,-0.000369,-0.009946, 0.026128, 0.003098, 0.042452,1,-0.000889,-0.000222, 0.000037,1,-0.306086, 0.364278, 9.795101,1,1
1778258185770,  3121.901,  3121.896, 0.032870,-0.034979,-0.995050, 0.000332,-0.000351,-0.009950, 0.022311, 0.021881, 0.040561,1,-0.002027, 0.000217,-0.000036,1,-0.306134, 0.363908, 9.795113,1,1
1778258185792,  3121.921,  3121.916, 0.032350,-0.035959,-0.995324, 0.000325,-0.000361,-0.009955, 0.015391, 0.012886, 0.035669,1,-0.001703,-0.000383, 0.000747,1,-0.306078, 0.363570, 9.795127,1,1
1778258185819,  3121.946,  3121.946, 0.031812,-0.035802,-0.995089, 0.000318,-0.000359,-0.009950, 0.005623, 0.011588, 0.036660,1,-0.002273,-0.000326,-0.000250,1,-0.306339, 0.362616, 9.795155,1,1
1778258185840,  3121.971,  3121.966, 0.031371,-0.035345,-0.995076, 0.000314,-0.000353,-0.009950, 0.004530, 0.017359, 0.037085,1,-0.002390, 0.000391, 0.000031,1,-0.306366, 0.362189, 9.795170,1,1
1778258185862,  3121.991,  3121.986, 0.030823,-0.036815,-0.995035, 0.000310,-0.000365,-0.009948,-0.001629, 0.008281, 0.036286,1,-0.003477,-0.000217, 0.000111,1,-0.306302, 0.361641, 9.795192,1,1
1778258185889,  3122.016,  3122.016, 0.030351,-0.036960,-0.994862, 0.000304,-0.000372,-0.009946,-0.008727,-0.001980, 0.038970,1,-0.005066, 0.001088, 0.000389,1,-0.306400, 0.360318, 9.795238,1,1
1778258185911,  3122.041,  3122.036, 0.030026,-0.035595,-0.995040, 0.000298,-0.000357,-0.009953,-0.011101, 0.011293, 0.032322,1,-0.005722, 0.000146, 0.000514,1,-0.306506, 0.359273, 9.795273,1,1
1778258185933,  3122.061,  3122.061, 0.029843,-0.036115,-0.994714, 0.000298,-0.000360,-0.009948,-0.013957, 0.003457, 0.040515,1,-0.006631, 0.000767,-0.000062,1,-0.306646, 0.357420, 9.795336,1,1
1778258185959,  3122.086,  3122.086, 0.029881,-0.037568,-0.994149, 0.000302,-0.000377,-0.009946,-0.013700,-0.012422, 0.046113,1,-0.009662, 0.000408, 0.000388,1,-0.306741, 0.355691, 9.795396,1,1
1778258185981,  3122.111,  3122.106, 0.030088,-0.035505,-0.995263, 0.000300,-0.000356,-0.009952,-0.013484,-0.001941, 0.035455,1,-0.012505, 0.000946, 0.000650,1,-0.306913, 0.353455, 9.795471,1,1
1778258186003,  3122.131,  3122.131, 0.030338,-0.036204,-0.995561, 0.000303,-0.000361,-0.009953,-0.009471,-0.005778, 0.032502,1,-0.017538, 0.001201, 0.001011,1,-0.307013, 0.348707, 9.795638,1,1
1778258186029,  3122.156,  3122.156, 0.031059,-0.036549,-0.995080, 0.000310,-0.000365,-0.009950,-0.002665,-0.013014, 0.037350,1,-0.021151, 0.001717, 0.001125,1,-0.307306, 0.344748, 9.795770,1,1
1778258186051,  3122.181,  3122.176, 0.031520,-0.035441,-0.994883, 0.000311,-0.000357,-0.009946, 0.001705,-0.008415, 0.039315,1,-0.024634, 0.001638, 0.001650,1,-0.307614, 0.340143, 9.795920,1,1
1778258186073,  3122.201,  3122.201, 0.031011,-0.034988,-0.994922, 0.000309,-0.000348,-0.009948,-0.003902,-0.009714, 0.039288,1,-0.026996, 0.002090, 0.001029,1,-0.308077, 0.332557, 9.796166,1,1
1778258186099,  3122.226,  3122.226, 0.031030,-0.034588,-0.994975, 0.000310,-0.000350,-0.009949,-0.003899,-0.011044, 0.038935,1,-0.027511, 0.000944, 0.000558,1,-0.308228, 0.327292, 9.796339,1,1
1778258186121,  3122.251,  3122.246, 0.031432,-0.031855,-0.994726, 0.000312,-0.000324,-0.009948,-0.002411,-0.008331, 0.036244,1,-0.027103, 0.001828, 0.000013,1,-0.308538, 0.322048, 9.796503,1,1
1778258186144,  3122.271,  3122.271, 0.032239,-0.029738,-0.994707, 0.000321,-0.000300,-0.009950, 0.007213, 0.023475, 0.041969,1,-0.025621, 0.001526,-0.000985,1,-0.308994, 0.314304, 9.796741,1,1
1778258186169,  3122.296,  3122.296, 0.031739,-0.029580,-0.994962, 0.000321,-0.000295,-0.009949, 0.001931, 0.019985, 0.039622,1,-0.025009, 0.001898,-0.001521,1,-0.309379, 0.309284, 9.796888,1,1
1778258186191,  3122.321,  3122.316, 0.030083,-0.028678,-0.995087, 0.000301,-0.000291,-0.009953,-0.002388, 0.018285, 0.038968,1,-0.023964, 0.002504,-0.001532,1,-0.309831, 0.304523, 9.797023,1,1
1778258186214,  3122.341,  3122.341, 0.030439,-0.026909,-0.995488, 0.000304,-0.000273,-0.009955,-0.011808, 0.034649, 0.034790,1,-0.021752, 0.000755,-0.001638,1,-0.310342, 0.297856, 9.797212,1,1
1778258186239,  3122.366,  3122.366, 0.031908,-0.025212,-0.995590, 0.000320,-0.000254,-0.009957, 0.002407, 0.047107, 0.033908,1,-0.019784, 0.000149,-0.001708,1,-0.310505, 0.293736, 9.797331,1,1
1778258186261,  3122.391,  3122.386, 0.032532,-0.023074,-0.994641, 0.000326,-0.000231,-0.009949, 0.005106, 0.053419, 0.038831,1,-0.016968, 0.000699,-0.000442,1,-0.310702, 0.290160, 9.797431,1,1
1778258186284,  3122.416,  3122.411, 0.031651,-0.024682,-0.995570, 0.000317,-0.000248,-0.009955,-0.000660, 0.044302, 0.034324,1,-0.012545, 0.000788,-0.000278,1,-0.311072, 0.285957, 9.797543,1,1
1778258186309,  3122.436,  3122.436, 0.030769,-0.024603,-0.995811, 0.000308,-0.000248,-0.009958,-0.009419, 0.043172, 0.032017,1,-0.007219, 0.001091,-0.000439,1,-0.311197, 0.284216, 9.797589,1,1
1778258186331,  3122.461,  3122.456, 0.031070,-0.023805,-0.995184, 0.000311,-0.000237,-0.009955,-0.007443, 0.055463, 0.032835,1,-0.001894,-0.000062,-0.001089,1,-0.311259, 0.283487, 9.797608,1,1
1778258186354,  3122.486,  3122.481, 0.031492,-0.024245,-0.994865, 0.000316,-0.000239,-0.009948,-0.002528, 0.046085, 0.041297,1, 0.003894, 0.000406,-0.001259,1,-0.311374, 0.283968, 9.797591,1,1
1778258186379,  3122.506,  3122.506, 0.030328,-0.025041,-0.995288, 0.000302,-0.000249,-0.009955,-0.013923, 0.039641, 0.037112,1, 0.008875,-0.000359,-0.001972,1,-0.311325, 0.285483, 9.797548,1,1
1778258186401,  3122.531,  3122.526, 0.030996,-0.025046,-0.994948, 0.000308,-0.000251,-0.009949,-0.016768, 0.042750, 0.034807,1, 0.012935,-0.000734,-0.002605,1,-0.311118, 0.286343, 9.797530,1,1
1778258186424,  3122.556,  3122.551, 0.031317,-0.025241,-0.995373, 0.000314,-0.000251,-0.009952,-0.003835, 0.042814, 0.036146,1, 0.016644,-0.000711,-0.001834,1,-0.310926, 0.290857, 9.797403,1,1
1778258186450,  3122.576,  3122.576, 0.032270,-0.026148,-0.994723, 0.000324,-0.000258,-0.009946, 0.005753, 0.037261, 0.042427,1, 0.016481,-0.000814,-0.001114,1,-0.310685, 0.294194, 9.797312,1,1
1778258186471,  3122.601,  3122.596, 0.032788,-0.028339,-0.995322, 0.000325,-0.000285,-0.009952, 0.009070, 0.028054, 0.038554,1, 0.015460,-0.001480,-0.000081,1,-0.310431, 0.297385, 9.797223,1,1
1778258186494,  3122.626,  3122.621, 0.034549,-0.028765,-0.995286, 0.000343,-0.000287,-0.009951, 0.028731, 0.018819, 0.036702,1, 0.011037,-0.001341, 0.001581,1,-0.310038, 0.301248, 9.797117,1,1
1778258186520,  3122.646,  3122.646, 0.036639,-0.027015,-0.995197, 0.000365,-0.000271,-0.009954, 0.049528, 0.038005, 0.037527,1, 0.009353,-0.002011, 0.003509,1,-0.309715, 0.303224, 9.797067,1,1
1778258186541,  3122.671,  3122.666, 0.037198,-0.023909,-0.994649, 0.000373,-0.000238,-0.009945, 0.065602, 0.070500, 0.041739,1, 0.009132,-0.000901, 0.005257,1,-0.309475, 0.305066, 9.797017,1,1
1778258186564,  3122.696,  3122.691, 0.035544,-0.027237,-0.995332, 0.000352,-0.000269,-0.009952, 0.039301, 0.040628, 0.036070,1, 0.011770,-0.000272, 0.006393,1,-0.309251, 0.308104, 9.796929,1,1
1778258186590,  3122.716,  3122.716, 0.034164,-0.029420,-0.995734, 0.000340,-0.000296,-0.009956, 0.025957, 0.022005, 0.032044,1, 0.015355,-0.001141, 0.005403,1,-0.309033, 0.311001, 9.796844,1,1
1778258186611,  3122.741,  3122.736, 0.033693,-0.028612,-0.994789, 0.000337,-0.000286,-0.009948, 0.020250, 0.035273, 0.035294,1, 0.019375,-0.002167, 0.005241,1,-0.309451, 0.313386, 9.796755,1,1
1778258186638,  3122.766,  3122.766, 0.032842,-0.031690,-0.995208, 0.000329,-0.000312,-0.009950, 0.013192, 0.008603, 0.036926,1, 0.025342,-0.002031, 0.003346,1,-0.308814, 0.320167, 9.796556,1,1
1778258186660,  3122.786,  3122.786, 0.032632,-0.031646,-0.995601, 0.000327,-0.000314,-0.009960, 0.011518, 0.014294, 0.032904,1, 0.027548,-0.001466, 0.002911,1,-0.308444, 0.325492, 9.796392,1,1
1778258186681,  3122.811,  3122.806, 0.030617,-0.033990,-0.995258, 0.000307,-0.000338,-0.009948,-0.000398, 0.012797, 0.033455,1, 0.030345,-0.001584, 0.002778,1,-0.308145, 0.331340, 9.796206,1,1
1778258186708,  3122.836,  3122.836, 0.029896,-0.035455,-0.994608, 0.000301,-0.000355,-0.009948,-0.014578,-0.007995, 0.042153,1, 0.032537,-0.002413, 0.000098,1,-0.307685, 0.340717, 9.795898,1,1
1778258186730,  3122.861,  3122.856, 0.029159,-0.037704,-0.995491, 0.000292,-0.000371,-0.009954,-0.018636,-0.019196, 0.030815,1, 0.033085,-0.001807,-0.001186,1,-0.307323, 0.347124, 9.795685,1,1
1778258186751,  3122.881,  3122.876, 0.027127,-0.038201,-0.994024, 0.000272,-0.000379,-0.009941,-0.035546,-0.010591, 0.037183,1, 0.033537,-0.002534,-0.001886,1,-0.306861, 0.353655, 9.795465,1,1
1778258186778,  3122.906,  3122.906, 0.025261,-0.039429,-0.995058, 0.000253,-0.000390,-0.009949,-0.058668,-0.024041, 0.036967,1, 0.033554,-0.002325,-0.004421,1,-0.306328, 0.363667, 9.795115,1,1
1778258186800,  3122.931,  3122.926, 0.024910,-0.041664,-0.994967, 0.000250,-0.000415,-0.009951,-0.060993,-0.042351, 0.032844,1, 0.034118,-0.002446,-0.005071,1,-0.305635, 0.370316, 9.794888,1,1
1778258186821,  3122.951,  3122.946, 0.025061,-0.039644,-0.993781, 0.000249,-0.000398,-0.009941,-0.060882,-0.032076, 0.044432,1, 0.029819,-0.001082,-0.005541,1,-0.305335, 0.376358, 9.794667,1,1
1778258186848,  3122.976,  3122.976, 0.024093,-0.040244,-0.994599, 0.000242,-0.000403,-0.009946,-0.068667,-0.011499, 0.040735,1, 0.023682,-0.001557,-0.005768,1,-0.304895, 0.383888, 9.794389,1,1
1778258186870,  3123.001,  3122.996, 0.024903,-0.041848,-0.995333, 0.000248,-0.000417,-0.009956,-0.067567,-0.029024, 0.028886,1, 0.019184,-0.000153,-0.005286,1,-0.304855, 0.387817, 9.794235,1,1
1778258186892,  3123.021,  3123.016, 0.026995,-0.038753,-0.994271, 0.000269,-0.000391,-0.009944,-0.052614,-0.009046, 0.038521,1, 0.014793,-0.000781,-0.005254,1,-0.304752, 0.390894, 9.794116,1,1
1778258186919,  3123.046,  3123.046, 0.029490,-0.038297,-0.994405, 0.000294,-0.000383,-0.009944,-0.015396, 0.018009, 0.042234,1, 0.007223,-0.000637,-0.003566,1,-0.304577, 0.393798, 9.794005,1,1
1778258186940,  3123.071,  3123.066, 0.031354,-0.038856,-0.993959, 0.000315,-0.000389,-0.009941, 0.001697, 0.018962, 0.044268,1, 0.002928,-0.000443,-0.001837,1,-0.304498, 0.394629, 9.793974,1,1
1778258186962,  3123.091,  3123.086, 0.032737,-0.038601,-0.994927, 0.000326,-0.000387,-0.009947, 0.016487, 0.020643, 0.041978,1,-0.002183,-0.000258, 0.000074,1,-0.304524, 0.394529, 9.793978,1,1
1778258186989,  3123.116,  3123.116, 0.035407,-0.038754,-0.995558, 0.000350,-0.000389,-0.009958, 0.042718, 0.013387, 0.030929,1,-0.005387, 0.000042, 0.000894,1,-0.304511, 0.393265, 9.794029,1,1
1778258187010,  3123.141,  3123.136, 0.038149,-0.036427,-0.993418, 0.000382,-0.000365,-0.009935, 0.066093, 0.024446, 0.034029,1,-0.007287,-0.000140, 0.002002,1,-0.303560, 0.392200, 9.794101,1,1
1778258187032,  3123.161,  3123.156, 0.038870,-0.038037,-0.994553, 0.000389,-0.000381,-0.009945, 0.083157, 0.030779, 0.059043,1,-0.007460, 0.000409, 0.003360,1,-0.303571, 0.390739, 9.794159,1,1
1778258187059,  3123.186,  3123.186, 0.036890,-0.037740,-0.997186, 0.000370,-0.000377,-0.009968, 0.058119, 0.018824, 0.015175,1,-0.005722, 0.000782, 0.003173,1,-0.303672, 0.388750, 9.794235,1,1
1778258187080,  3123.211,  3123.206, 0.036678,-0.038135,-0.993842, 0.000367,-0.000380,-0.009941, 0.056315, 0.015047, 0.034163,1,-0.004548,-0.000630, 0.002835,1,-0.303639, 0.387713, 9.794277,1,1
1778258187102,  3123.231,  3123.226, 0.036362,-0.038021,-0.994520, 0.000361,-0.000384,-0.009944, 0.050097, 0.015027, 0.048814,1,-0.002018,-0.000866, 0.002525,1,-0.303475, 0.387097, 9.794307,1,1
1778258187129,  3123.256,  3123.256, 0.035881,-0.034128,-0.996411, 0.000357,-0.000344,-0.009964, 0.048436, 0.052461, 0.022855,1, 0.002333, 0.000018, 0.001871,1,-0.303432, 0.387218, 9.794303,1,1
1778258187150,  3123.281,  3123.276, 0.032758,-0.037646,-0.993630, 0.000327,-0.000374,-0.009936, 0.024178, 0.039611, 0.042956,1, 0.005496,-0.000341, 0.002209,1,-0.303363, 0.388082, 9.794271,1,1
1778258187173,  3123.301,  3123.301, 0.032259,-0.038943,-0.995251, 0.000322,-0.000390,-0.009953, 0.013159, 0.008008, 0.034130,1, 0.008030,-0.000615, 0.000927,1,-0.303177, 0.390164, 9.794194,1,1
1778258187199,  3123.326,  3123.326, 0.032272,-0.038302,-0.995595, 0.000320,-0.000384,-0.009959, 0.012946, 0.015874, 0.030677,1, 0.009767,-0.000276, 0.001402,1,-0.304728, 0.391265, 9.794102,1,1
1778258187220,  3123.351,  3123.346, 0.031529,-0.039273,-0.994260, 0.000315,-0.000393,-0.009942,-0.000533,-0.004808, 0.038964,1, 0.010410,-0.001198, 0.000431,1,-0.304567, 0.393183, 9.794030,1,1
1778258187243,  3123.371,  3123.371, 0.030969,-0.036482,-0.994472, 0.000312,-0.000365,-0.009947,-0.000584, 0.038497, 0.041475,1, 0.012849,-0.001136,-0.000276,1,-0.304251, 0.396662, 9.793900,1,1
1778258187269,  3123.396,  3123.396, 0.030088,-0.042944,-0.994235, 0.000299,-0.000424,-0.009942,-0.009089,-0.022546, 0.043707,1, 0.011413,-0.000731, 0.000013,1,-0.304127, 0.398947, 9.793811,1,1
1778258187290,  3123.421,  3123.416, 0.027894,-0.045483,-0.995033, 0.000278,-0.000456,-0.009953,-0.029094,-0.053943, 0.044952,1, 0.011125,-0.000717,-0.002479,1,-0.304021, 0.401115, 9.793726,1,1
1778258187313,  3123.441,  3123.441, 0.027075,-0.044495,-0.995743, 0.000272,-0.000446,-0.009959,-0.038320,-0.032917, 0.028729,1, 0.006754,-0.000934,-0.003661,1,-0.303814, 0.403639, 9.793629,1,1
1778258187339,  3123.466,  3123.466, 0.029142,-0.041688,-0.993951, 0.000290,-0.000420,-0.009942,-0.017943,-0.004311, 0.046270,1, 0.004331, 0.000083,-0.004237,1,-0.303739, 0.404637, 9.793590,1,1
1778258187361,  3123.491,  3123.486, 0.030010,-0.039696,-0.995624, 0.000300,-0.000397,-0.009952,-0.012328, 0.021533, 0.040445,1,-0.000443,-0.000230,-0.003159,1,-0.303665, 0.404858, 9.793583,1,1
1778258187383,  3123.511,  3123.511, 0.028930,-0.041419,-0.994930, 0.000291,-0.000412,-0.009948,-0.020023,-0.002652, 0.036704,1,-0.008768, 0.000629,-0.000069,1,-0.303745, 0.403256, 9.793646,1,1
1778258187409,  3123.536,  3123.536, 0.028695,-0.041184,-0.994611, 0.000282,-0.000412,-0.009947,-0.022170,-0.002347, 0.039919,1,-0.013714, 0.001137, 0.000764,1,-0.303591, 0.401111, 9.793739,1,1
1778258187431,  3123.561,  3123.556, 0.031321,-0.038819,-0.995508, 0.000314,-0.000391,-0.009953,-0.006705, 0.004840, 0.031942,1,-0.017027, 0.000902, 0.000706,1,-0.303765, 0.398002, 9.793860,1,1
1778258187453,  3123.581,  3123.581, 0.032254,-0.038056,-0.994456, 0.000322,-0.000383,-0.009945, 0.012425, 0.019701, 0.041778,1,-0.020697, 0.001705, 0.002437,1,-0.303925, 0.392256, 9.794087,1,1
1778258187479,  3123.606,  3123.606, 0.031674,-0.037746,-0.993631, 0.000317,-0.000379,-0.009933, 0.006391, 0.018592, 0.050025,1,-0.021589, 0.001063, 0.002461,1,-0.304255, 0.388086, 9.794243,1,1
1778258187501,  3123.631,  3123.626, 0.030205,-0.037611,-0.995998, 0.000302,-0.000375,-0.009963,-0.011778, 0.018626, 0.030204,1,-0.022532, 0.001896, 0.003161,1,-0.304644, 0.383761, 9.794402,1,1
1778258187523,  3123.656,  3123.651, 0.030452,-0.037612,-0.995396, 0.000302,-0.000377,-0.009953,-0.006279, 0.009450, 0.033102,1,-0.018907, 0.000872, 0.002420,1,-0.304937, 0.377714, 9.794627,1,1
1778258187549,  3123.676,  3123.676, 0.032179,-0.034603,-0.994564, 0.000322,-0.000351,-0.009946, 0.010581, 0.035387, 0.041397,1,-0.017423, 0.000012, 0.001689,1,-0.304982, 0.374184, 9.794762,1,1
1778258187571,  3123.701,  3123.696, 0.031770,-0.032468,-0.994198, 0.000318,-0.000321,-0.009938, 0.007460, 0.056922, 0.039939,1,-0.014658, 0.001054, 0.002997,1,-0.305171, 0.371100, 9.794873,1,1
