unix_time_ms_sensor,GPS_ts_week,GPS_ts_tow,scaledAccelX,scaledAccelY,scaledAccelZ,deltaVelX,deltaVelY,deltaVelZ,unix_time_ms_filter,fGPS_ts_week,fGPS_ts_tow,estLinAccelX,estLinAccelY,estLinAccelZ,estLinAccel_valid,estAngRateX,estAngRateY,estAngRateZ,estAngRate_valid,estGravityX,estGravityY,estGravityZ,estGravity_valid,flag_sensor,flag_filter
1779140527920.000000000,2419,164545.920000000,-0.006383108,0.042680882,-0.995037735,0.000007630,0.000358244,-0.010049985,1779140527920.000000000,2419,164545.920000000,-0.184554204,0.672851026,0.044606004,1,0.000096378,-0.024159674,0.003811889,1,-0.121230908,0.254423589,9.802599907,1,0,0
1779140527930.000000000,2419,164545.930000000,0.033926174,0.020523928,-0.988500059,0.000212020,0.000249648,-0.009709386,1779140527930.000000000,2419,164545.930000000,0.208692536,0.455439329,0.108697057,1,0.001468036,0.038632676,-0.006132361,1,-0.125221983,0.254219830,9.802554131,1,0,0
1779140527950.000000000,2419,164545.950000000,-0.007815404,-0.034729525,-1.008730888,-0.000130702,-0.000310137,-0.010029585,1779140527950.000000000,2419,164545.950000000,-0.198886782,-0.085507147,-0.089701518,1,0.004099765,0.020427452,-0.009303001,1,-0.122888796,0.255197525,9.802558899,1,0,0
1779140527960.000000000,2419,164545.960000000,0.023543499,-0.026816718,-0.970542848,0.000212095,-0.000340612,-0.009915511,1779140527960.000000000,2419,164545.960000000,0.105459109,-0.008252999,0.284764796,1,-0.007890040,0.026776120,-0.009685582,1,-0.126267090,0.254479140,9.802534103,1,0,0
1779140527980.000000000,2419,164545.980000000,-0.010653984,-0.073209204,-1.015009522,-0.000093327,-0.000810829,-0.010193830,1779140527980.000000000,2419,164545.980000000,-0.228273183,-0.462649703,-0.151298016,1,-0.004930048,0.009455130,-0.002439256,1,-0.124090306,0.255132556,9.802545547,1,0,0
1779140527990.000000000,2419,164545.990000000,0.015246291,-0.075913556,-1.001567364,0.000157333,-0.000850687,-0.009898962,1779140527990.000000000,2419,164545.990000000,0.024279112,-0.489303619,-0.019490808,1,0.001554902,0.005406449,0.005590674,1,-0.125400081,0.255204856,9.802526474,1,0,0
1779140528010.000000000,2419,164546.010000000,-0.004131304,0.006196397,-0.984851062,-0.000077657,0.000018128,-0.009837145,1779140528010.000000000,2419,164546.010000000,-0.164924502,0.315458149,0.144462049,1,-0.006148068,0.019441742,0.008603476,1,-0.125009894,0.254503816,9.802550316,1,0,0
1779140528020.000000000,2419,164546.020000000,0.012188897,0.015193098,-0.986871660,0.000182303,0.000146491,-0.009896686,1779140528020.000000000,2419,164546.020000000,-0.005315149,0.403511137,0.124646083,1,-0.002488378,-0.016343793,0.003409336,1,-0.124334678,0.254441410,9.802559853,1,0,0
1779140528040.000000000,2419,164546.040000000,0.012341403,0.010465295,-0.997528791,0.000078630,0.000110674,-0.010091270,1779140528040.000000000,2419,164546.040000000,-0.003085941,0.357484490,0.020135481,1,-0.002415095,0.016257325,-0.006808802,1,-0.124626569,0.254776955,9.802547455,1,0,0
1779140528050.000000000,2419,164546.050000000,0.013620575,0.000934160,-0.983803809,0.000176358,0.000048921,-0.009770991,1779140528050.000000000,2419,164546.050000000,0.009127939,0.264270484,0.154721335,1,0.007529627,-0.010806832,-0.008982795,1,-0.124114372,0.255340874,9.802539825,1,0,0
1779140528060.000000000,2419,164546.060000000,-0.000770092,-0.019752158,-1.012992740,0.000010255,-0.000170698,-0.010084158,1779140528060.000000000,2419,164546.060000000,-0.131251514,0.061798614,-0.131524593,1,-0.002228079,0.000317087,-0.010160800,1,-0.123717643,0.255427599,9.802542686,1,0,0
1779140528080.000000000,2419,164546.080000000,0.019579550,-0.067548618,-1.000703692,0.000225720,-0.000622242,-0.009987693,1779140528080.000000000,2419,164546.080000000,0.066963866,-0.406508923,-0.011037968,1,0.004908068,-0.016524997,-0.005062331,1,-0.124534450,0.256067932,9.802515030,1,0,0
1779140528090.000000000,2419,164546.090000000,0.011254594,-0.073823363,-0.999846637,0.000072695,-0.000685036,-0.010040366,1779140528090.000000000,2419,164546.090000000,-0.013905969,-0.467482388,-0.002639549,1,0.005407298,0.003791197,-0.000010571,1,-0.124394141,0.256646216,9.802501678,1,0,0
1779140528110.000000000,2419,164546.110000000,0.014435151,-0.034665171,-0.980125427,0.000153075,-0.000356439,-0.009803148,1779140528110.000000000,2419,164546.110000000,0.017238837,-0.083040103,0.190748215,1,0.001155911,-0.009624229,0.005570692,1,-0.124016799,0.256947368,9.802498817,1,0,0
1779140528120.000000000,2419,164546.120000000,0.019199507,-0.011048264,-0.986707747,0.000137957,-0.000119904,-0.009867813,1779140528120.000000000,2419,164546.120000000,0.064180866,0.147476226,0.126228467,1,-0.004983048,0.010102955,0.003800685,1,-0.124386542,0.255618364,9.802528381,1,0,0
1779140528140.000000000,2419,164546.140000000,0.007745779,-0.013433231,-1.016967416,0.000092391,-0.000107680,-0.010173328,1779140528140.000000000,2419,164546.140000000,-0.047473453,0.123472646,-0.170492679,1,0.001407205,-0.001747428,-0.000239981,1,-0.123379156,0.255251229,9.802551270,1,0,0
1779140528150.000000000,2419,164546.150000000,0.015519456,-0.010553105,-0.988433003,0.000124876,-0.000169668,-0.009901314,1779140528150.000000000,2419,164546.150000000,0.027917536,0.151489407,0.109330446,1,-0.002459864,0.013012522,0.000594280,1,-0.124681875,0.254903466,9.802543640,1,0,0
1779140528170.000000000,2419,164546.170000000,0.000827937,-0.013553986,-0.996839821,-0.000007702,-0.000131429,-0.009986253,1779140528170.000000000,2419,164546.170000000,-0.115389273,0.122635804,0.026881870,1,0.001977288,0.003376495,-0.002440714,1,-0.123615898,0.255615741,9.802538872,1,0,0
1779140528180.000000000,2419,164546.180000000,0.015835589,-0.036414921,-1.019243240,0.000163782,-0.000313937,-0.010145620,1779140528180.000000000,2419,164546.180000000,0.031265732,-0.100596167,-0.192853019,1,0.013557386,-0.003432381,-0.002079542,1,-0.123922959,0.256934434,9.802500725,1,0,0
1779140528190.000000000,2419,164546.190000000,-0.000125019,-0.039889526,-0.996099353,0.000029012,-0.000431728,-0.010014464,1779140528190.000000000,2419,164546.190000000,-0.124022931,-0.133656800,0.034100376,1,0.009984659,-0.009390069,-0.000805198,1,-0.122504584,0.257837057,9.802494049,1,0,0
1779140528210.000000000,2419,164546.210000000,0.004453279,-0.030747455,-0.944517076,0.000076243,-0.000333375,-0.009589413,1779140528210.000000000,2419,164546.210000000,-0.079700530,-0.042623460,0.539906204,1,-0.003373253,-0.003851158,-0.000074823,1,-0.123252183,0.258800805,9.802459717,1,0,0
1779140528220.000000000,2419,164546.220000000,0.011773568,-0.048381325,-0.968727767,0.000079709,-0.000481956,-0.009539013,1779140528220.000000000,2419,164546.220000000,-0.008319560,-0.216077656,0.302488685,1,-0.005786751,0.009390268,0.000771252,1,-0.124071181,0.258200824,9.802465439,1,0,0
1779140528240.000000000,2419,164546.240000000,0.035570666,-0.056028746,-1.080972314,0.000324278,-0.000548639,-0.010482062,1779140528240.000000000,2419,164546.240000000,0.224538594,-0.294950068,-0.798158765,1,-0.005479317,-0.005542511,0.010003906,1,-0.124109440,0.254337281,9.802565575,1,0,0
1779140528250.000000000,2419,164546.250000000,0.008390424,-0.034179315,-1.001827955,0.000066619,-0.000538633,-0.010380391,1779140528250.000000000,2419,164546.250000000,-0.041358121,-0.081460521,-0.021989346,1,-0.020681527,0.008449432,0.015768113,1,-0.123890989,0.253084987,9.802600861,1,0,0
1779140528270.000000000,2419,164546.270000000,-0.002760984,0.023619603,-0.978133798,0.000116186,0.000246842,-0.010075692,1779140528270.000000000,2419,164546.270000000,-0.150341898,0.485972434,0.210360408,1,-0.007123394,-0.031726267,0.006207748,1,-0.122270927,0.254123420,9.802594185,1,0,0
1779140528280.000000000,2419,164546.280000000,0.016225839,0.010278327,-0.991873741,0.000052162,0.000225366,-0.009694366,1779140528280.000000000,2419,164546.280000000,0.035321061,0.354275167,0.075632542,1,0.003026258,0.031082969,-0.000432187,1,-0.124770299,0.253573418,9.802577019,1,0,0
1779140528300.000000000,2419,164546.300000000,-0.013203847,-0.017375857,-0.989778101,-0.000165591,-0.000139810,-0.009715758,1779140528300.000000000,2419,164546.300000000,-0.252637774,0.082536787,0.096205831,1,0.006073216,0.013917122,-0.002536495,1,-0.123588540,0.253124237,9.802603722,1,0,0
1779140528310.000000000,2419,164546.310000000,0.015811205,-0.008140562,-0.997561455,0.000131388,-0.000093547,-0.010078410,1779140528310.000000000,2419,164546.310000000,0.029516757,0.173048288,0.019847557,1,-0.008651103,0.011974052,-0.005429478,1,-0.125916198,0.252607822,9.802587509,1,0,0
1779140528330.000000000,2419,164546.330000000,0.001181940,-0.074003816,-1.025723815,-0.000015195,-0.000700752,-0.010317780,1779140528330.000000000,2419,164546.330000000,-0.112713426,-0.474060893,-0.256283820,1,-0.004049922,0.004835020,-0.002800279,1,-0.124457873,0.251534194,9.802633286,1,0,0
1779140528340.000000000,2419,164546.340000000,0.013374562,-0.058276400,-0.992615998,0.000107015,-0.000572182,-0.009941779,1779140528340.000000000,2419,164546.340000000,0.006065533,-0.320217043,0.068393275,1,0.004732005,0.008058629,0.004001387,1,-0.125342414,0.251428038,9.802624702,1,0,0
1779140528350.000000000,2419,164546.350000000,0.010332669,-0.029593712,-0.990924895,0.000117141,-0.000360940,-0.009952764,1779140528350.000000000,2419,164546.350000000,-0.023896428,-0.038833898,0.084973797,1,-0.003184895,-0.001292013,0.005761832,1,-0.125180379,0.251284182,9.802630424,1,0,0
1779140528370.000000000,2419,164546.370000000,0.013672955,-0.025061276,-1.008875251,0.000175964,-0.000254653,-0.010147737,1779140528370.000000000,2419,164546.370000000,0.009237561,0.005622987,-0.091055453,1,-0.001763489,-0.012392708,0.002865528,1,-0.124459349,0.251336277,9.802639008,1,0,0
1779140528380.000000000,2419,164546.380000000,0.009950362,-0.021921221,-0.989381492,0.000076176,-0.000216054,-0.009866407,1779140528380.000000000,2419,164546.380000000,-0.027049439,0.036328632,0.100118712,1,0.001687411,0.008910593,0.002474881,1,-0.124905229,0.251356035,9.802632332,1,0,0
1779140528400.000000000,2419,164546.400000000,0.009911177,0.001473609,-0.980932891,0.000092241,0.000027351,-0.009788224,1779140528400.000000000,2419,164546.400000000,-0.027805597,0.265461177,0.182973549,1,-0.000443049,0.003536905,-0.003463373,1,-0.125114173,0.250994802,9.802639008,1,0,0
1779140528410.000000000,2419,164546.410000000,0.020762388,-0.014521698,-1.008631825,0.000196859,-0.000112286,-0.010065762,1779140528410.000000000,2419,164546.410000000,0.078125164,0.108777396,-0.088671207,1,0.001131813,-0.000686824,-0.006645040,1,-0.125468194,0.251219273,9.802628517,1,0,0
1779140528430.000000000,2419,164546.430000000,0.016746774,-0.052220419,-1.007115364,0.000149532,-0.000503214,-0.010037189,1779140528430.000000000,2419,164546.430000000,0.038773045,-0.260748506,-0.073803246,1,-0.000713630,0.004922470,-0.005660824,1,-0.125614837,0.251334339,9.802623749,1,0,0
1779140528440.000000000,2419,164546.440000000,0.011570173,-0.043315757,-0.987177670,0.000125730,-0.000455084,-0.009923317,1779140528440.000000000,2419,164546.440000000,-0.012106612,-0.173884466,0.121729612,1,-0.004752374,0.001307094,-0.002339321,1,-0.125613913,0.250748813,9.802639008,1,0,0
1779140528460.000000000,2419,164546.460000000,0.011733427,-0.031337440,-0.990729690,0.000129376,-0.000318107,-0.009950314,1779140528460.000000000,2419,164546.460000000,-0.010595557,-0.056543402,0.086897418,1,-0.001045145,-0.004424429,-0.000273447,1,-0.125523344,0.250739187,9.802639961,1,0,0
1779140528470.000000000,2419,164546.470000000,0.015152676,-0.029177787,-0.999958694,0.000140551,-0.000296256,-0.009949584,1779140528470.000000000,2419,164546.470000000,0.023058433,-0.035225421,-0.003609581,1,0.002467729,-0.000074335,-0.000330090,1,-0.125536501,0.250987798,9.802634239,1,0,0
1779140528480.000000000,2419,164546.480000000,0.012695866,-0.018179759,-0.995817661,0.000137986,-0.000212261,-0.010003022,1779140528480.000000000,2419,164546.480000000,-0.000913979,0.072528288,0.037003446,1,-0.003587529,-0.000630383,-0.000559109,1,-0.125398681,0.250698656,9.802642822,1,0,0
1779140528500.000000000,2419,164546.500000000,0.016624244,-0.007540905,-0.994768381,0.000174362,-0.000068093,-0.009970428,1779140528500.000000000,2419,164546.500000000,0.037234269,0.176650807,0.047293846,1,-0.000780343,-0.002077658,-0.004393496,1,-0.125732556,0.250575721,9.802641869,1,0,0
1779140528510.000000000,2419,164546.510000000,0.015337679,-0.024432106,-0.995836794,0.000147075,-0.000207095,-0.009934440,1779140528510.000000000,2419,164546.510000000,0.024740271,0.011063652,0.036817096,1,0.001367515,0.000089723,-0.004764905,1,-0.125677586,0.250701547,9.802639008,1,0,0
1779140528530.000000000,2419,164546.530000000,0.013345280,-0.035819162,-0.994217098,0.000134612,-0.000366864,-0.009946256,1779140528530.000000000,2419,164546.530000000,0.005323423,-0.100193337,0.052692056,1,-0.000532396,0.002153073,0.000239981,1,-0.125615090,0.251058102,9.802631378,1,0,0
1779140528540.000000000,2419,164546.540000000,0.015976509,-0.029738231,-0.993580103,0.000155759,-0.000306706,-0.009951128,1779140528540.000000000,2419,164546.540000000,0.030874550,-0.040673099,0.058938015,1,-0.001323408,0.002111102,0.002356644,1,-0.125865415,0.250919133,9.802631378,1,0,0
1779140528560.000000000,2419,164546.560000000,0.012593112,-0.030733870,-0.997130036,0.000126214,-0.000310175,-0.009973941,1779140528560.000000000,2419,164546.560000000,-0.002025474,-0.050314028,0.024125129,1,0.000343365,-0.001572983,0.001975136,1,-0.125471056,0.251093805,9.802632332,1,0,0
1779140528570.000000000,2419,164546.570000000,0.014127444,-0.026750507,-0.995947659,0.000136870,-0.000277427,-0.009948537,1779140528570.000000000,2419,164546.570000000,0.012935275,-0.011289673,0.035719957,1,-0.001011565,0.001409665,0.002211891,1,-0.125649840,0.251012534,9.802631378,1,0,0
1779140528590.000000000,2419,164546.590000000,0.012288313,-0.017507788,-0.993600428,0.000122878,-0.000169904,-0.009934377,1779140528590.000000000,2419,164546.590000000,-0.005195461,0.079080805,0.058744699,1,-0.000695745,0.001165446,-0.000424981,1,-0.125739351,0.250751674,9.802637100,1,0,0
1779140528600.000000000,2419,164546.600000000,0.013036470,-0.023996558,-0.995855629,0.000133145,-0.000230249,-0.009952144,1779140528600.000000000,2419,164546.600000000,0.002137177,0.015468666,0.036628615,1,0.000847593,-0.001874721,-0.002232210,1,-0.125650227,0.250820100,9.802637100,1,0,0
1779140528620.000000000,2419,164546.620000000,0.012381922,-0.028824564,-0.998315632,0.000116559,-0.000294608,-0.009979682,1779140528620.000000000,2419,164546.620000000,-0.004216241,-0.031908639,0.012505894,1,-0.000819604,0.001167464,-0.001129516,1,-0.125678748,0.250737786,9.802638054,1,0,0
1779140528630.000000000,2419,164546.630000000,0.010702675,-0.023963328,-0.992913365,0.000110180,-0.000249175,-0.009940789,1779140528630.000000000,2419,164546.630000000,-0.020663638,0.015666332,0.065486372,1,-0.001050769,-0.001372411,-0.000806175,1,-0.125578865,0.250633210,9.802642822,1,0,0
1779140528640.000000000,2419,164546.640000000,0.012033227,-0.021888118,-0.996148050,0.000113708,-0.000211963,-0.009946657,1779140528640.000000000,2419,164546.640000000,-0.007638028,0.035981778,0.033765551,1,0.000340553,0.000098059,-0.000808372,1,-0.125647396,0.250641197,9.802640915,1,0,0
1779140528660.000000000,2419,164546.660000000,0.012754221,-0.025134178,-0.995352626,0.000123222,-0.000256214,-0.009951225,1779140528660.000000000,2419,164546.660000000,-0.000460390,0.004297348,0.041563522,1,0.000722828,0.001039172,-0.000342781,1,-0.125569284,0.250801861,9.802638054,1,0,0
1779140528670.000000000,2419,164546.670000000,0.012743960,-0.023762746,-0.996369123,0.000130110,-0.000241773,-0.009967519,1779140528670.000000000,2419,164546.670000000,-0.000730746,0.017742777,0.031592976,1,-0.000787563,0.001187329,-0.000398845,1,-0.125743672,0.250750989,9.802637100,1,0,0
1779140528690.000000000,2419,164546.690000000,0.013296644,-0.026280912,-0.996769190,0.000134563,-0.000251145,-0.009962752,1779140528690.000000000,2419,164546.690000000,0.004639447,-0.006983217,0.027669625,1,0.000730262,-0.000782865,-0.001489796,1,-0.125732854,0.250766695,9.802637100,1,0,0
1779140528700.000000000,2419,164546.700000000,0.011421651,-0.030823236,-0.995196402,0.000114373,-0.000302138,-0.009956600,1779140528700.000000000,2419,164546.700000000,-0.013629114,-0.051450331,0.043093156,1,0.000650077,-0.000752926,-0.001275775,1,-0.125614777,0.250842154,9.802636147,1,0,0
1779140528720.000000000,2419,164546.720000000,0.012237322,-0.025881739,-0.993800282,0.000122503,-0.000266553,-0.009945396,1779140528720.000000000,2419,164546.720000000,-0.005852314,-0.002596248,0.056771930,1,-0.000591040,0.000980607,-0.000678137,1,-0.125899076,0.251224250,9.802622795,1,0,0
1779140528730.000000000,2419,164546.730000000,0.012659816,-0.023133412,-0.995375872,0.000127848,-0.000233071,-0.009952419,1779140528730.000000000,2419,164546.730000000,-0.001755397,0.024390971,0.041318890,1,0.001157638,-0.000028398,-0.000335158,1,-0.125905737,0.251289964,9.802620888,1,0,0
1779140528750.000000000,2419,164546.750000000,0.012911755,-0.024937786,-0.996436596,0.000130523,-0.000251509,-0.009962789,1779140528750.000000000,2419,164546.750000000,0.000812722,0.006792372,0.030915489,1,0.000746275,-0.000426390,-0.000796049,1,-0.125795677,0.251371503,9.802620888,1,0,0
1779140528760.000000000,2419,164546.760000000,0.012883002,-0.023785066,-0.995593905,0.000131653,-0.000241963,-0.009956267,1779140528760.000000000,2419,164546.760000000,0.000509329,0.018097833,0.039179157,1,-0.000594069,0.001059201,-0.000535854,1,-0.125863254,0.251330912,9.802620888,1,0,0
1779140528770.000000000,2419,164546.770000000,0.012420314,-0.023134701,-0.994602680,0.000121965,-0.000233930,-0.009945638,1779140528770.000000000,2419,164546.770000000,-0.004151910,0.024445513,0.048898458,1,-0.000229827,0.000305458,-0.000476478,1,-0.125963509,0.251312077,9.802619934,1,0,0
1779140528790.000000000,2419,164546.790000000,0.012389952,-0.029273264,-0.995632410,0.000121320,-0.000288081,-0.009961758,1779140528790.000000000,2419,164546.790000000,-0.004382615,-0.035683881,0.038799416,1,0.000335035,-0.000954398,-0.000671960,1,-0.125857309,0.251398981,9.802618980,1,0,0
1779140528800.000000000,2419,164546.800000000,0.012391259,-0.029971629,-0.995691776,0.000124203,-0.000299635,-0.009964026,1779140528800.000000000,2419,164546.800000000,-0.004355514,-0.042599302,0.038219549,1,-0.000468944,0.000182487,0.000069077,1,-0.125877902,0.251307398,9.802620888,1,0,0
1779140528820.000000000,2419,164546.820000000,0.012771052,-0.025065685,-0.995874226,0.000124884,-0.000254866,-0.009955900,1779140528820.000000000,2419,164546.820000000,-0.000686143,0.005446644,0.036431208,1,0.000102634,0.000239189,0.000351299,1,-0.125934571,0.251260400,9.802621841,1,0,0
1779140528830.000000000,2419,164546.830000000,0.013346769,-0.025444647,-0.996541858,0.000134700,-0.000250506,-0.009958600,1779140528830.000000000,2419,164546.830000000,0.004966734,0.001754656,0.029883742,1,0.000478279,-0.000692644,-0.000399279,1,-0.125899076,0.251296192,9.802620888,1,0,0
1779140528850.000000000,2419,164546.850000000,0.014106111,-0.024519099,-0.995076239,0.000141785,-0.000246301,-0.009950895,1779140528850.000000000,2419,164546.850000000,0.012525119,0.010885138,0.044256087,1,-0.000518414,0.000378789,-0.000380958,1,-0.125820696,0.251319051,9.802621841,1,0,0
1779140528860.000000000,2419,164546.860000000,0.013923323,-0.023896400,-0.995305002,0.000140876,-0.000237747,-0.009954625,1779140528860.000000000,2419,164546.860000000,0.010706581,0.016928416,0.042014685,1,0.000069511,0.000156597,-0.000424551,1,-0.125839815,0.251274079,9.802622795,1,0,0
1779140528880.000000000,2419,164546.880000000,0.013947692,-0.028591927,-0.996052444,0.000142620,-0.000283937,-0.009959586,1779140528880.000000000,2419,164546.880000000,0.010854992,-0.029201733,0.034685377,1,0.000356479,-0.000008441,-0.000181360,1,-0.125925019,0.251200378,9.802623749,1,0,0
1779140528890.000000000,2419,164546.890000000,0.013405330,-0.029546509,-0.995438159,0.000133055,-0.000300474,-0.009957340,1779140528890.000000000,2419,164546.890000000,0.005554577,-0.038631782,0.040711213,1,-0.000880565,0.000251431,0.000061483,1,-0.125914589,0.251093060,9.802626610,1,0,0
1779140528910.000000000,2419,164546.910000000,0.013904084,-0.026180534,-0.994789243,0.000137554,-0.000262029,-0.009945324,1779140528910.000000000,2419,164546.910000000,0.010446155,-0.005660030,0.047075883,1,-0.000326482,-0.000112965,0.001219248,1,-0.125901848,0.251073629,9.802626610,1,0,0
1779140528920.000000000,2419,164546.920000000,0.013393148,-0.024659755,-0.996068418,0.000132876,-0.000245654,-0.009960268,1779140528920.000000000,2419,164546.920000000,0.005352509,0.009569982,0.034522895,1,-0.000226983,-0.000619348,0.000749792,1,-0.125977591,0.251415193,9.802617073,1,0,0
1779140528930.000000000,2419,164546.930000000,0.013224064,-0.023036234,-0.995424211,0.000131456,-0.000232193,-0.009954979,1779140528930.000000000,2419,164546.930000000,0.003702088,0.025489496,0.040840723,1,-0.000288856,0.000154012,0.000500861,1,-0.125986621,0.251390427,9.802618027,1,0,0
1779140528950.000000000,2419,164546.950000000,0.011413667,-0.021194454,-0.998963594,0.000122873,-0.000209904,-0.009982496,1779140528950.000000000,2419,164546.950000000,-0.014037426,0.043532308,0.006130780,1,0.001145893,-0.000551908,0.000062011,1,-0.125950009,0.251414716,9.802618027,1,0,0
1779140528960.000000000,2419,164546.960000000,0.010878473,-0.019629242,-0.995042026,0.000100499,-0.000210326,-0.009943277,1779140528960.000000000,2419,164546.960000000,-0.019334031,0.058887057,0.044588376,1,-0.000115326,0.001822805,-0.001232212,1,-0.126073271,0.251380086,9.802617073,1,0,0
1779140528980.000000000,2419,164546.980000000,0.010304860,-0.029985849,-0.997550786,0.000100938,-0.000296946,-0.009973495,1779140528980.000000000,2419,164546.980000000,-0.025067661,-0.042620517,0.019983064,1,-0.000316706,0.000571083,-0.000721078,1,-0.126142219,0.251430064,9.802615166,1,0,0
1779140528990.000000000,2419,164546.990000000,0.010970096,-0.031450529,-0.996223211,0.000105527,-0.000313550,-0.009951358,1779140528990.000000000,2419,164546.990000000,-0.018687882,-0.057043549,0.033001374,1,-0.000772676,0.002196186,-0.000741401,1,-0.126336902,0.251356393,9.802614212,1,0,0
1779140529010.000000000,2419,164547.010000000,0.010939750,-0.026272785,-0.996492505,0.000105535,-0.000262877,-0.009955433,1779140529010.000000000,2419,164547.010000000,-0.018900551,-0.006349032,0.030363839,1,0.000193957,0.000682549,0.000469723,1,-0.126203790,0.251305223,9.802617073,1,0,0
1779140529020.000000000,2419,164547.020000000,0.011319644,-0.022822890,-0.995424867,0.000115531,-0.000230886,-0.009967414,1779140529020.000000000,2419,164547.020000000,-0.015211938,0.027484478,0.040833220,1,-0.000381018,-0.000335108,0.000866579,1,-0.126208588,0.251289040,9.802617073,1,0,0
1779140529040.000000000,2419,164547.040000000,0.011902384,-0.019420672,-0.996406555,0.000118066,-0.000195631,-0.009975469,1779140529040.000000000,2419,164547.040000000,-0.009521957,0.060877070,0.031204950,1,-0.000291175,0.000343727,-0.001445255,1,-0.126256347,0.251319140,9.802616119,1,0,0
1779140529050.000000000,2419,164547.050000000,0.013143858,-0.020374121,-0.996593475,0.000130924,-0.000201828,-0.009948900,1779140529050.000000000,2419,164547.050000000,0.002552075,0.051476698,0.029371737,1,-0.000191186,0.000377131,-0.001953210,1,-0.126358479,0.251271844,9.802616119,1,0,0
1779140529060.000000000,2419,164547.060000000,0.010797766,-0.024907181,-0.995769501,0.000111451,-0.000251390,-0.009967586,1779140529060.000000000,2419,164547.060000000,-0.020427249,0.007052474,0.037451722,1,0.000315987,0.000640388,-0.002279709,1,-0.126338974,0.251317441,9.802615166,1,0,0
1779140529080.000000000,2419,164547.080000000,0.010899943,-0.028542032,-0.995897770,0.000115031,-0.000286300,-0.009973516,1779140529080.000000000,2419,164547.080000000,-0.019456835,-0.028538741,0.036191963,1,-0.000325174,-0.001464131,-0.001339279,1,-0.126304165,0.251352310,9.802614212,1,0,0
1779140529090.000000000,2419,164547.090000000,0.011337969,-0.027878333,-0.994738877,0.000105994,-0.000278375,-0.009937075,1779140529090.000000000,2419,164547.090000000,-0.015225388,-0.022015881,0.047556397,1,0.000373875,0.001496785,-0.001116839,1,-0.126460493,0.251388401,9.802611351,1,0,0
1779140529110.000000000,2419,164547.110000000,0.011021010,-0.026983196,-0.995324969,0.000105875,-0.000265217,-0.009946132,1779140529110.000000000,2419,164547.110000000,-0.018299941,-0.013186446,0.041807212,1,0.000074292,-0.000329684,-0.000914053,1,-0.126369581,0.251430273,9.802611351,1,0,0
1779140529120.000000000,2419,164547.120000000,0.012225079,-0.026577907,-0.996367633,0.000121665,-0.000269722,-0.009974139,1779140529120.000000000,2419,164547.120000000,-0.006057297,-0.009467553,0.031594455,1,-0.000438915,0.000236416,-0.001099900,1,-0.125920266,0.251142859,9.802624702,1,0,0
1779140529140.000000000,2419,164547.140000000,0.011769741,-0.023573760,-0.996814907,0.000121840,-0.000240536,-0.009968251,1779140529140.000000000,2419,164547.140000000,-0.010419524,0.019999176,0.027209656,1,0.000424849,-0.000813464,-0.001085863,1,-0.125816599,0.251191556,9.802624702,1,0,0
1779140529150.000000000,2419,164547.150000000,0.011664983,-0.022648700,-0.994516253,0.000115922,-0.000227355,-0.009946036,1779140529150.000000000,2419,164547.150000000,-0.011468414,0.029101994,0.049751084,1,0.000461883,0.000660686,-0.001399868,1,-0.125884548,0.251223713,9.802623749,1,0,0
1779140529170.000000000,2419,164547.170000000,0.011078140,-0.025001436,-0.995898485,0.000110764,-0.000249648,-0.009957348,1779140529170.000000000,2419,164547.170000000,-0.017241657,0.006040888,0.036195297,1,-0.000501343,0.000110155,-0.001529561,1,-0.125885770,0.251204997,9.802623749,1,0,0
1779140529180.000000000,2419,164547.180000000,0.011114575,-0.025975676,-0.996588409,0.000115162,-0.000258764,-0.009966160,1779140529180.000000000,2419,164547.180000000,-0.016914949,-0.003500748,0.029428493,1,0.000621458,0.000675573,-0.001404951,1,-0.125933900,0.251252472,9.802621841,1,0,0
1779140529200.000000000,2419,164547.200000000,0.010654293,-0.027890271,-0.995655417,0.000107473,-0.000280382,-0.009955674,1779140529200.000000000,2419,164547.200000000,-0.021386782,-0.022172170,0.038575772,1,0.000506053,-0.000294641,-0.001581908,1,-0.125861794,0.251353115,9.802619934,1,0,0
1779140529210.000000000,2419,164547.210000000,0.010666950,-0.027842034,-0.995177805,0.000107696,-0.000278292,-0.009950671,1779140529210.000000000,2419,164547.210000000,-0.021262398,-0.021709971,0.043259654,1,-0.000082885,0.000388959,-0.001178977,1,-0.125882536,0.251324058,9.802620888,1,0,0
1779140529220.000000000,2419,164547.220000000,0.010885882,-0.027937477,-0.995707393,0.000110481,-0.000279847,-0.009956609,1779140529220.000000000,2419,164547.220000000,-0.019183652,-0.022649154,0.038065664,1,-0.000150408,0.000325405,-0.000904004,1,-0.125948563,0.251318872,9.802619934,1,0,0
1779140529240.000000000,2419,164547.240000000,0.011717194,-0.024640195,-0.995496035,0.000114483,-0.000249414,-0.009956523,1779140529240.000000000,2419,164547.240000000,-0.011009242,0.009640045,0.040139563,1,-0.000952600,-0.000707429,0.000115186,1,-0.125893503,0.251248151,9.802622795,1,0,0
1779140529250.000000000,2419,164547.250000000,0.012022112,-0.024110930,-0.996215940,0.000121378,-0.000241088,-0.009961075,1779140529250.000000000,2419,164547.250000000,-0.007967172,0.014821335,0.033080317,1,0.000028381,-0.000769081,-0.000680851,1,-0.125840381,0.251269430,9.802622795,1,0,0
1779140529270.000000000,2419,164547.270000000,0.012430583,-0.023622742,-0.994953156,0.000124301,-0.000236361,-0.009950840,1779140529270.000000000,2419,164547.270000000,-0.003983337,0.019520435,0.045466486,1,-0.000239663,0.000491509,-0.000370266,1,-0.125901356,0.251172781,9.802624702,1,0,0
1779140529280.000000000,2419,164547.280000000,0.012364295,-0.024366381,-0.995843172,0.000124192,-0.000240794,-0.009958017,1779140529280.000000000,2419,164547.280000000,-0.004669150,0.012167750,0.036738902,1,-0.000848893,0.000224366,-0.001766840,1,-0.125929892,0.251093119,9.802625656,1,0,0
1779140529300.000000000,2419,164547.300000000,0.013235761,-0.027201483,-0.995200694,0.000129298,-0.000278229,-0.009956490,1779140529300.000000000,2419,164547.300000000,0.003732100,-0.015729213,0.043040313,1,0.000566413,0.000189862,-0.000982157,1,-0.126073092,0.251043499,9.802625656,1,0,0
1779140529310.000000000,2419,164547.310000000,0.012689645,-0.029278178,-0.994901419,0.000125612,-0.000291959,-0.009965486,1779140529310.000000000,2419,164547.310000000,-0.001613077,-0.036098756,0.045975707,1,-0.000327160,0.000035110,-0.001159759,1,-0.126058012,0.251011431,9.802626610,1,0,0
1779140529330.000000000,2419,164547.330000000,0.012200575,-0.026387926,-0.993854642,0.000130468,-0.000262061,-0.009935621,1779140529330.000000000,2419,164547.330000000,-0.005931079,-0.007849674,0.056249686,1,0.000035816,-0.000203218,-0.001182001,1,-0.125570342,0.250928193,9.802635193,1,0,0
1779140529340.000000000,2419,164547.340000000,0.011979180,-0.028302368,-1.000389576,0.000131994,-0.000283380,-0.009986298,1779140529340.000000000,2419,164547.340000000,-0.008056774,-0.026553912,-0.007838524,1,-0.000022198,-0.001040019,-0.000162704,1,-0.125499949,0.250996768,9.802634239,1,0,0
1779140529350.000000000,2419,164547.350000000,0.013473381,-0.025945274,-0.995096207,0.000126857,-0.000259685,-0.009944903,1779140529350.000000000,2419,164547.350000000,0.006519085,-0.003534367,0.044074658,1,-0.000449766,0.002306502,-0.000188539,1,-0.125681773,0.250887752,9.802634239,1,0,0
1779140529370.000000000,2419,164547.370000000,0.011800254,-0.022615310,-0.992100775,0.000115504,-0.000234040,-0.009936955,1779140529370.000000000,2419,164547.370000000,-0.009871988,0.029104436,0.073450454,1,-0.002629037,0.000428813,-0.000733190,1,-0.125606924,0.250802547,9.802638054,1,0,0
1779140529380.000000000,2419,164547.380000000,0.015065205,-0.025894554,-0.996163547,0.000147739,-0.000247807,-0.009963181,1779140529380.000000000,2419,164547.380000000,0.021999352,-0.003074371,0.033606239,1,0.000740740,0.001299879,-0.000411989,1,-0.125780731,0.250887424,9.802633286,1,0,0
1779140529400.000000000,2419,164547.400000000,0.014346614,-0.023622554,-0.996529520,0.000132599,-0.000237010,-0.009953001,1779140529400.000000000,2419,164547.400000000,0.014904846,0.019109903,0.030019250,1,-0.000018129,0.002515330,-0.001054092,1,-0.125866711,0.250767052,9.802635193,1,0,0
1779140529410.000000000,2419,164547.410000000,0.013653129,-0.025382109,-0.995344818,0.000142957,-0.000259202,-0.009964331,1779140529410.000000000,2419,164547.410000000,0.008150984,0.001785211,0.041640215,1,-0.000621644,-0.001896562,-0.001392692,1,-0.125682414,0.250678718,9.802639961,1,0,0
1779140529430.000000000,2419,164547.430000000,0.015462358,-0.026095681,-0.995658278,0.000155840,-0.000269367,-0.009959535,1779140529430.000000000,2419,164547.430000000,0.025834775,-0.005305136,0.038567863,1,-0.000785537,-0.000027586,-0.000320852,1,-0.125798568,0.250581473,9.802640915,1,0,0
1779140529440.000000000,2419,164547.440000000,0.013368225,-0.026054574,-0.995447576,0.000136816,-0.000261132,-0.009943830,1779140529440.000000000,2419,164547.440000000,0.005398128,-0.004905446,0.040634587,1,-0.000235765,-0.000619082,-0.000503341,1,-0.125680462,0.250595093,9.802641869,1,0,0
1779140529460.000000000,2419,164547.460000000,0.015931442,-0.026043722,-0.995460331,0.000162102,-0.000256743,-0.009946112,1779140529460.000000000,2419,164547.460000000,0.030496057,-0.004939734,0.040513430,1,-0.000077923,-0.000803170,-0.000631903,1,-0.125713482,0.250459254,9.802644730,1,0,0
1779140529470.000000000,2419,164547.470000000,0.015490649,-0.026487060,-0.996362567,0.000158561,-0.000268989,-0.009971107,1779140529470.000000000,2419,164547.470000000,0.026216993,-0.009343397,0.031667583,1,-0.001080542,-0.000130846,-0.001008083,1,-0.125691101,0.250371814,9.802647591,1,0,0
1779140529490.000000000,2419,164547.490000000,0.016425919,-0.025020322,-0.996116161,0.000168192,-0.000249680,-0.009964268,1779140529490.000000000,2419,164547.490000000,0.035382256,0.004934155,0.034085985,1,-0.000574937,-0.001461825,-0.000357513,1,-0.125655666,0.250281632,9.802650452,1,0,0
1779140529500.000000000,2419,164547.500000000,0.015629388,-0.025567656,-0.995314777,0.000155546,-0.000253953,-0.009949004,1779140529500.000000000,2419,164547.500000000,0.027592795,-0.000382645,0.041943826,1,0.000799594,0.000643118,-0.000495184,1,-0.125699610,0.250375181,9.802647591,1,0,0
1779140529510.000000000,2419,164547.510000000,0.016724940,-0.026387569,-0.996361792,0.000167375,-0.000261999,-0.009964558,1779140529510.000000000,2419,164547.510000000,0.038236439,-0.008410025,0.031674761,1,0.000067856,0.000591898,-0.000259999,1,-0.125797883,0.250365645,9.802646637,1,0,0
1779140529530.000000000,2419,164547.530000000,0.015865881,-0.026162324,-0.996365964,0.000155792,-0.000262747,-0.009962679,1779140529530.000000000,2419,164547.530000000,0.029190317,-0.006079393,0.031622820,1,-0.000263185,0.000352336,-0.000682717,1,-0.126414731,0.250477493,9.802635193,1,0,0
1779140529540.000000000,2419,164547.540000000,0.014532881,-0.025650641,-0.994817436,0.000150142,-0.000255097,-0.009950776,1779140529540.000000000,2419,164547.540000000,0.016127441,-0.001082631,0.046808906,1,0.000072684,-0.000210720,-0.000898786,1,-0.126385733,0.250466198,9.802636147,1,0,0
1779140529560.000000000,2419,164547.560000000,0.014903950,-0.026805954,-0.994598866,0.000151471,-0.000268331,-0.009948888,1779140529560.000000000,2419,164547.560000000,0.019741368,-0.012414436,0.048952967,1,0.000194585,-0.000467798,-0.000643738,1,-0.126402378,0.250467986,9.802636147,1,0,0
1779140529570.000000000,2419,164547.570000000,0.015619289,-0.026686797,-0.995714009,0.000157046,-0.000267891,-0.009954391,1779140529570.000000000,2419,164547.570000000,0.026831293,-0.011265146,0.038017754,1,0.000073449,-0.000982555,0.000208147,1,-0.126310796,0.250445336,9.802638054,1,0,0
1779140529590.000000000,2419,164547.590000000,0.015960274,-0.025897371,-0.995955348,0.000160604,-0.000257865,-0.009960125,1779140529590.000000000,2419,164547.590000000,0.030353293,-0.003558431,0.035654686,1,0.000457744,-0.000734920,0.000199310,1,-0.126140445,0.250422388,9.802640915,1,0,0
1779140529600.000000000,2419,164547.600000000,0.016252367,-0.025406457,-0.995051444,0.000161848,-0.000258264,-0.009951148,1779140529600.000000000,2419,164547.600000000,0.033230662,0.001265259,0.044518802,1,-0.000129170,0.000295611,-0.000236890,1,-0.126160055,0.250413388,9.802640915,1,0,0
1779140529620.000000000,2419,164547.620000000,0.013554906,-0.025004957,-0.995804906,0.000137976,-0.000248896,-0.009960295,1779140529620.000000000,2419,164547.620000000,0.006822283,0.005134435,0.037131984,1,-0.000654198,-0.000320262,-0.000594650,1,-0.126096427,0.250328660,9.802643776,1,0,0
1779140529630.000000000,2419,164547.630000000,0.012840610,-0.024682455,-0.995435894,0.000127543,-0.000247849,-0.009952288,1779140529630.000000000,2419,164547.630000000,-0.000197387,0.008303779,0.040750362,1,0.000205717,-0.000480738,-0.000623689,1,-0.126106262,0.250362158,9.802642822,1,0,0
1779140529640.000000000,2419,164547.640000000,0.010175801,-0.026846420,-0.994887054,0.000109188,-0.000264386,-0.009956933,1779140529640.000000000,2419,164547.640000000,-0.026279431,-0.012961659,0.046134401,1,-0.001047423,-0.001197067,-0.000045244,1,-0.126032636,0.250279099,9.802645683,1,0,0
1779140529660.000000000,2419,164547.660000000,0.009648792,-0.027097752,-0.995294750,0.000099875,-0.000276833,-0.009962516,1779140529660.000000000,2419,164547.660000000,-0.031406652,-0.015398103,0.042136230,1,-0.000178685,0.000049610,0.000595947,1,-0.126030058,0.250334740,9.802643776,1,0,0
1779140529670.000000000,2419,164547.670000000,0.011210149,-0.025050338,-0.995531797,0.000105852,-0.000252169,-0.009947609,1779140529670.000000000,2419,164547.670000000,-0.016149493,0.004693984,0.039810382,1,0.000779282,0.000826355,0.000712859,1,-0.126108736,0.250378519,9.802641869,1,0,0
1779140529690.000000000,2419,164547.690000000,0.013208808,-0.024239339,-0.995657265,0.000129800,-0.000241079,-0.009952476,1779140529690.000000000,2419,164547.690000000,0.003444389,0.012672027,0.038579356,1,0.000451409,0.000036505,0.000079066,1,-0.126090854,0.250392854,9.802641869,1,0,0
1779140529700.000000000,2419,164547.700000000,0.014367844,-0.024198923,-0.995424569,0.000141801,-0.000246030,-0.009955724,1779140529700.000000000,2419,164547.700000000,0.014793238,0.013081040,0.040861242,1,0.000109913,-0.000636504,-0.000773999,1,-0.126087949,0.250394553,9.802641869,1,0,0
1779140529720.000000000,2419,164547.720000000,0.014322990,-0.025136212,-0.996556282,0.000145198,-0.000248654,-0.009965199,1779140529720.000000000,2419,164547.720000000,0.013895802,0.004009873,0.029753868,1,0.000652088,0.000583588,-0.000767133,1,-0.126615494,0.250542849,9.802631378,1,0,0
1779140529730.000000000,2419,164547.730000000,0.013288139,-0.026381359,-0.994680822,0.000136087,-0.000265311,-0.009947794,1779140529730.000000000,2419,164547.730000000,0.003711984,-0.008153603,0.048143819,1,0.000050383,-0.000253328,-0.000293967,1,-0.126594573,0.250561357,9.802631378,1,0,0
1779140529750.000000000,2419,164547.750000000,0.012012545,-0.027716530,-0.994729102,0.000119384,-0.000281586,-0.009944522,1779140529750.000000000,2419,164547.750000000,-0.008870500,-0.021201026,0.047668032,1,-0.000206863,0.000798312,0.000417557,1,-0.126697913,0.250599027,9.802628517,1,0,0
1779140529760.000000000,2419,164547.760000000,0.011931509,-0.026376296,-0.995673120,0.000121564,-0.000268068,-0.009957565,1779140529760.000000000,2419,164547.760000000,-0.009752269,-0.008079350,0.038410172,1,-0.000736368,0.000877747,0.001295510,1,-0.126786768,0.250561327,9.802628517,1,0,0
1779140529780.000000000,2419,164547.780000000,0.012237043,-0.025738331,-0.995662808,0.000124212,-0.000260747,-0.009960554,1779140529780.000000000,2419,164547.780000000,-0.006716150,-0.001863222,0.038512915,1,-0.000175001,-0.000408334,0.000317388,1,-0.126707569,0.250538260,9.802630424,1,0,0
1779140529790.000000000,2419,164547.790000000,0.012802674,-0.024539402,-0.996494532,0.000127691,-0.000244003,-0.009962075,1779140529790.000000000,2419,164547.790000000,-0.001180962,0.009841226,0.030357564,1,-0.000701332,0.000194785,0.000680541,1,-0.126737833,0.250468940,9.802631378,1,0,0
1779140529800.000000000,2419,164547.800000000,0.013506666,-0.023452835,-0.994586587,0.000133783,-0.000235809,-0.009947101,1779140529800.000000000,2419,164547.800000000,0.005721739,0.020465957,0.049068745,1,-0.000610124,0.000358029,0.000018000,1,-0.126744568,0.250440687,9.802632332,1,0,0
1779140529820.000000000,2419,164547.820000000,0.013604464,-0.024518775,-0.995486677,0.000135722,-0.000244738,-0.009954741,1779140529820.000000000,2419,164547.820000000,0.006704423,0.009986382,0.040242884,1,0.000212735,0.000003420,-0.000373167,1,-0.126710206,0.250439942,9.802632332,1,0,0
1779140529830.000000000,2419,164547.830000000,0.013795155,-0.025826400,-0.995650113,0.000137302,-0.000252692,-0.009958310,1779140529830.000000000,2419,164547.830000000,0.008547712,-0.002860636,0.038640440,1,-0.000392898,0.000296552,-0.000736203,1,-0.126746386,0.250397295,9.802633286,1,0,0
1779140529850.000000000,2419,164547.850000000,0.011879712,-0.025963603,-0.994978905,0.000119671,-0.000262182,-0.009957872,1779140529850.000000000,2419,164547.850000000,-0.010133709,-0.004171516,0.045222986,1,-0.000163217,0.000133839,-0.000121219,1,-0.126638174,0.250439316,9.802633286,1,0,0
1779140529860.000000000,2419,164547.860000000,0.012218598,-0.026308995,-0.996350467,0.000122544,-0.000259496,-0.009958850,1779140529860.000000000,2419,164547.860000000,-0.006862316,-0.007510083,0.031770505,1,0.000859715,-0.000169784,0.000706332,1,-0.126679987,0.250520170,9.802631378,1,0,0
1779140529880.000000000,2419,164547.880000000,0.012580430,-0.025808534,-0.996226072,0.000125678,-0.000253882,-0.009961265,1779140529880.000000000,2419,164547.880000000,-0.003293763,-0.002563771,0.032989923,1,-0.000168878,0.000175942,0.000128677,1,-0.126671031,0.250526279,9.802631378,1,0,0
1779140529890.000000000,2419,164547.890000000,0.012600631,-0.024607109,-0.995568573,0.000124425,-0.000248316,-0.009953639,1779140529890.000000000,2419,164547.890000000,-0.003035760,0.009218128,0.039438833,1,-0.000377950,-0.000449164,-0.000208867,1,-0.126591921,0.250519574,9.802632332,1,0,0
1779140529910.000000000,2419,164547.910000000,0.012981665,-0.024104865,-0.995560884,0.000130599,-0.000239791,-0.009951235,1779140529910.000000000,2419,164547.910000000,0.000700164,0.014174053,0.039513063,1,0.000997770,-0.000056172,-0.000594337,1,-0.126605228,0.250592947,9.802630424,1,0,0
1779140529920.000000000,2419,164547.920000000,0.012357732,-0.024463866,-0.995751858,0.000125279,-0.000244975,-0.009958697,1779140529920.000000000,2419,164547.920000000,-0.005417672,0.010776206,0.037637301,1,0.000755003,-0.000229746,-0.000368770,1,-0.126600519,0.250711203,9.802627563,1,0,0
1779140529930.000000000,2419,164547.930000000,0.013069646,-0.025705956,-0.995426238,0.000132546,-0.000252297,-0.009957338,1779140529930.000000000,2419,164547.930000000,0.001546089,-0.001351983,0.040828370,1,0.000649762,0.000249574,-0.000509443,1,-0.126631662,0.250757605,9.802625656,1,0,0
1779140529940.000000000,2419,164547.940000000,0.012905834,-0.025510555,-0.995063424,0.000125986,-0.000254010,-0.009951293,1779140529940.000000000,2419,164547.940000000,-0.000072263,0.000576120,0.044386618,1,0.000336438,-0.001175286,0.000151080,1,-0.126598492,0.250759780,9.802625656,1,0,0
1779140529950.000000000,2419,164547.950000000,0.012010988,-0.026013073,-0.995567083,0.000122530,-0.000258525,-0.009957059,1779140529950.000000000,2419,164547.950000000,-0.008729137,-0.004347173,0.039448261,1,0.000339142,-0.001229378,-0.001129348,1,-0.126479223,0.250764042,9.802627563,1,0,0
1779140529960.000000000,2419,164547.960000000,0.012857703,-0.025658818,-0.995633662,0.000125758,-0.000255439,-0.009952446,1779140529960.000000000,2419,164547.960000000,-0.000416550,-0.000835839,0.038794864,1,0.001052020,0.000576532,-0.000616773,1,-0.126526043,0.250823796,9.802625656,1,0,0
1779140529980.000000000,2419,164547.980000000,0.013977072,-0.027018569,-0.996489346,0.000135206,-0.000268011,-0.009959703,1779140529980.000000000,2419,164547.980000000,0.010560684,-0.014150081,0.030402260,1,0.000111881,0.001219519,-0.000342953,1,-0.126545906,0.250814945,9.802625656,1,0,0
1779140529990.000000000,2419,164547.990000000,0.013481617,-0.026269089,-0.994539022,0.000135616,-0.000264018,-0.009948159,1779140529990.000000000,2419,164547.990000000,0.005689531,-0.006816018,0.049529381,1,-0.000438458,-0.000123591,-0.000518498,1,-0.126516536,0.250781894,9.802626610,1,0,0
1779140530010.000000000,2419,164548.010000000,0.013683907,-0.024725454,-0.995528758,0.000136821,-0.000249224,-0.009954874,1779140530010.000000000,2419,164548.010000000,0.007660852,0.008300164,0.039823793,1,-0.000091757,0.000684838,-0.000007113,1,-0.126553819,0.250771195,9.802626610,1,0,0
1779140530020.000000000,2419,164548.020000000,0.012706167,-0.025356466,-0.995930135,0.000128521,-0.000254299,-0.009963210,1779140530020.000000000,2419,164548.020000000,-0.001969049,0.002151251,0.035886325,1,-0.000445568,0.000487203,0.000138770,1,-0.126589090,0.250799388,9.802624702,1,0,0
1779140530040.000000000,2419,164548.040000000,0.012666887,-0.025787041,-0.995194018,0.000126934,-0.000259555,-0.009958953,1779140530040.000000000,2419,164548.040000000,-0.002405419,-0.002148181,0.043105654,1,-0.000756347,0.000192653,-0.000163911,1,-0.126631290,0.250712663,9.802626610,1,0,0
1779140530050.000000000,2419,164548.050000000,0.012644558,-0.026358316,-0.995471179,0.000124857,-0.000260203,-0.009956842,1779140530050.000000000,2419,164548.050000000,-0.002647650,-0.007797566,0.040388726,1,0.000311074,0.000147510,0.000078551,1,-0.126652956,0.250698954,9.802626610,1,0,0
1779140530070.000000000,2419,164548.070000000,0.012297570,-0.026391909,-0.995691836,0.000123287,-0.000265662,-0.009957034,1779140530070.000000000,2419,164548.070000000,-0.006012881,-0.008203390,0.038227446,1,-0.000260038,-0.000235151,0.000283689,1,-0.126603290,0.250604838,9.802629471,1,0,0
1779140530080.000000000,2419,164548.080000000,0.012468955,-0.025773179,-0.995595396,0.000122495,-0.000257276,-0.009950448,1779140530080.000000000,2419,164548.080000000,-0.004370846,-0.002121324,0.039172411,1,0.000349884,0.000870276,-0.000127145,1,-0.126676783,0.250638098,9.802628517,1,0,0
1779140530090.000000000,2419,164548.090000000,0.012800296,-0.025362512,-0.995593488,0.000130470,-0.000256392,-0.009959978,1779140530090.000000000,2419,164548.090000000,-0.001145312,0.001896544,0.039190974,1,-0.000432817,-0.000216555,0.000137867,1,-0.126666471,0.250604391,9.802629471,1,0,0
1779140530110.000000000,2419,164548.110000000,0.013056103,-0.024363687,-0.995750666,0.000131811,-0.000248386,-0.009960750,1779140530110.000000000,2419,164548.110000000,0.001343325,0.011659924,0.037650879,1,-0.000288756,0.000642785,0.000474596,1,-0.126712993,0.250577301,9.802629471,1,0,0
1779140530120.000000000,2419,164548.120000000,0.012492032,-0.024898082,-0.996078551,0.000124972,-0.000250031,-0.009956662,1779140530120.000000000,2419,164548.120000000,-0.004212857,0.006544006,0.034431849,1,0.000497059,-0.000315321,-0.000101540,1,-0.126709297,0.250731081,9.802625656,1,0,0
1779140530140.000000000,2419,164548.140000000,0.011947364,-0.024580708,-0.995620012,0.000122714,-0.000247633,-0.009955877,1779140530140.000000000,2419,164548.140000000,-0.009607429,0.009523716,0.038930733,1,-0.001001475,0.000111889,0.000269388,1,-0.126774326,0.250547022,9.802629471,1,0,0
1779140530150.000000000,2419,164548.150000000,0.012313053,-0.024694171,-0.995894611,0.000121961,-0.000248328,-0.009952359,1779140530150.000000000,2419,164548.150000000,-0.006053800,0.008348471,0.036238655,1,-0.001015367,0.000061222,-0.000641413,1,-0.126806036,0.250483632,9.802630424,1,0,0
1779140530170.000000000,2419,164548.170000000,0.012551294,-0.025511825,-0.995656490,0.000123756,-0.000252122,-0.009953718,1779140530170.000000000,2419,164548.170000000,-0.003663066,0.000290446,0.038576096,1,-0.000380420,0.000572297,0.000428004,1,-0.126766741,0.250464320,9.802631378,1,0,0
1779140530180.000000000,2419,164548.180000000,0.012856482,-0.025442405,-0.995285869,0.000130096,-0.000257396,-0.009955072,1779140530180.000000000,2419,164548.180000000,-0.000603277,0.000964019,0.042211909,1,0.000043605,-0.001183239,-0.000581971,1,-0.126645848,0.250469923,9.802632332,1,0,0
1779140530200.000000000,2419,164548.200000000,0.013731128,-0.025210584,-0.995194197,0.000133987,-0.000253680,-0.009953355,1779140530200.000000000,2419,164548.200000000,0.007896625,0.003248233,0.043109056,1,-0.000347988,0.000532728,0.000059615,1,-0.126776323,0.250468761,9.802631378,1,0,0
1779140530210.000000000,2419,164548.210000000,0.013654379,-0.025755534,-0.995534122,0.000138147,-0.000255296,-0.009956757,1779140530210.000000000,2419,164548.210000000,0.007135036,-0.002081106,0.039775845,1,0.000794959,-0.000188843,-0.000214505,1,-0.126762971,0.250519127,9.802630424,1,0,0
1779140530230.000000000,2419,164548.230000000,0.012886380,-0.025769925,-0.995725393,0.000130300,-0.000261427,-0.009962156,1779140530230.000000000,2419,164548.230000000,-0.000425477,-0.002199566,0.037898201,1,0.000560075,-0.000923773,-0.000041140,1,-0.126768902,0.250534534,9.802629471,1,0,0
1779140530240.000000000,2419,164548.240000000,0.013024779,-0.024771411,-0.996705532,0.000128966,-0.000248375,-0.009961374,1779140530240.000000000,2419,164548.240000000,0.000916653,0.007657881,0.028285002,1,0.000564373,0.000288012,-0.000476455,1,-0.126822174,0.250599861,9.802627563,1,0,0
1779140530250.000000000,2419,164548.250000000,0.012290795,-0.024794988,-0.995353937,0.000124202,-0.000249248,-0.009955300,1779140530250.000000000,2419,164548.250000000,-0.006311834,0.007474265,0.041537635,1,0.000144218,0.000344581,-0.000533265,1,-0.126854554,0.250634342,9.802625656,1,0,0
1779140530270.000000000,2419,164548.270000000,0.011849510,-0.025707448,-0.995647430,0.000116875,-0.000257472,-0.009957905,1779140530270.000000000,2419,164548.270000000,-0.010672500,-0.001398463,0.038657371,1,0.000177353,0.000939005,-0.000488200,1,-0.126906201,0.250710845,9.802623749,1,0,0
1779140530280.000000000,2419,164548.280000000,0.012147614,-0.025612213,-0.995910466,0.000123529,-0.000253408,-0.009961350,1779140530280.000000000,2419,164548.280000000,-0.007789580,-0.000471257,0.036077168,1,0.000294756,-0.000373831,-0.000283743,1,-0.126905546,0.250707865,9.802623749,1,0,0
1779140530290.000000000,2419,164548.290000000,0.012564828,-0.025336612,-0.995931745,0.000123474,-0.000252682,-0.009956400,1779140530290.000000000,2419,164548.290000000,-0.003681711,0.002257241,0.035868775,1,-0.000278419,0.000114530,-0.000477656,1,-0.126904547,0.250715673,9.802622795,1,0,0
1779140530300.000000000,2419,164548.300000000,0.012530942,-0.025471061,-0.995370328,0.000127437,-0.000255693,-0.009955183,1779140530300.000000000,2419,164548.300000000,-0.004039911,0.000972967,0.041372906,1,-0.000011009,0.000117220,-0.000141782,1,-0.126930252,0.250758380,9.802621841,1,0,0
1779140530310.000000000,2419,164548.310000000,0.013057244,-0.026003396,-0.995395124,0.000129537,-0.000259857,-0.009956425,1779140530310.000000000,2419,164548.310000000,0.001089179,-0.004193539,0.041128419,1,0.000849118,0.000453369,-0.000010032,1,-0.126972809,0.250839144,9.802618980,1,0,0
1779140530330.000000000,2419,164548.330000000,0.012968437,-0.025432521,-0.995796800,0.000130978,-0.000254197,-0.009962716,1779140530330.000000000,2419,164548.330000000,0.000209675,0.001422526,0.037187766,1,0.000750597,0.000045776,-0.000341982,1,-0.126968697,0.250853539,9.802618980,1,0,0
1779140530340.000000000,2419,164548.340000000,0.012885797,-0.024933591,-0.995302022,0.000128428,-0.000250456,-0.009951968,1779140530340.000000000,2419,164548.340000000,-0.000654895,0.006329891,0.042039271,1,0.000238086,0.000554533,-0.000280666,1,-0.127038911,0.250852227,9.802618027,1,0,0
1779140530360.000000000,2419,164548.360000000,0.012761905,-0.025932554,-0.994433165,0.000125794,-0.000257590,-0.009945722,1779140530360.000000000,2419,164548.360000000,-0.001810569,-0.003429980,0.050560113,1,-0.000115138,0.000604312,0.000360304,1,-0.126980677,0.250878096,9.802618027,1,0,0
1779140530370.000000000,2419,164548.370000000,0.013693158,-0.026011718,-0.995478749,0.000136163,-0.000263385,-0.009955304,1779140530370.000000000,2419,164548.370000000,0.007305777,-0.004214333,0.040305771,1,0.000109935,-0.000706795,-0.000560779,1,-0.126956642,0.250876725,9.802618027,1,0,0
1779140530380.000000000,2419,164548.380000000,0.013633153,-0.025787817,-0.994956911,0.000132938,-0.000257122,-0.009952516,1779140530380.000000000,2419,164548.380000000,0.006751313,-0.002036907,0.045424350,1,-0.000339437,-0.000460234,-0.000133404,1,-0.126930013,0.250844538,9.802619934,1,0,0
1779140530400.000000000,2419,164548.400000000,0.014376304,-0.025287263,-0.995491922,0.000144168,-0.000253048,-0.009955331,1779140530400.000000000,2419,164548.400000000,0.014146809,0.002818153,0.040180229,1,-0.000081496,-0.000570842,0.000018036,1,-0.126818761,0.250798970,9.802621841,1,0,0
1779140530410.000000000,2419,164548.410000000,0.014512871,-0.025428206,-0.997174144,0.000147503,-0.000252450,-0.009965668,1779140530410.000000000,2419,164548.410000000,0.015584431,0.001411274,0.023685642,1,-0.000186073,-0.000995121,-0.000351211,1,-0.126707464,0.250770867,9.802624702,1,0,0
1779140530430.000000000,2419,164548.430000000,0.012580803,-0.025246162,-0.996019959,0.000132872,-0.000252995,-0.009954706,1779140530430.000000000,2419,164548.430000000,-0.003308162,0.003260798,0.035003159,1,0.000330002,0.000467032,-0.001051411,1,-0.126699120,0.250850976,9.802622795,1,0,0
1779140530440.000000000,2419,164548.440000000,0.011669964,-0.025147384,-0.994574845,0.000120613,-0.000250657,-0.009940267,1779140530440.000000000,2419,164548.440000000,-0.012224180,0.004280245,0.049173776,1,0.000541465,0.000282104,-0.000374623,1,-0.126676545,0.250908613,9.802620888,1,0,0
1779140530460.000000000,2419,164548.460000000,0.007943857,-0.025597738,-0.992528915,0.000079725,-0.000253908,-0.009935156,1779140530460.000000000,2419,164548.460000000,-0.048940785,-0.000047410,0.069232747,1,0.001573738,0.002273983,-0.000318342,1,-0.126914620,0.251029640,9.802615166,1,0,0
1779140530470.000000000,2419,164548.470000000,0.008944477,-0.028801730,-0.994291723,0.000089747,-0.000284756,-0.009946675,1779140530470.000000000,2419,164548.470000000,-0.039265364,-0.031444710,0.051943317,1,-0.000504195,-0.000082003,0.000491606,1,-0.126977772,0.250988245,9.802615166,1,0,0
1779140530490.000000000,2419,164548.490000000,0.013393768,-0.029398875,-0.996558547,0.000128137,-0.000301677,-0.009980183,1779140530490.000000000,2419,164548.490000000,0.004302786,-0.037438817,0.029716555,1,-0.000761825,0.000276920,0.001627991,1,-0.127052560,0.250842571,9.802618027,1,0,0
1779140530500.000000000,2419,164548.500000000,0.016525304,-0.025501594,-0.992813051,0.000162914,-0.000256377,-0.009926432,1779140530500.000000000,2419,164548.500000000,0.034910921,0.000719677,0.066446908,1,-0.000067709,0.000690662,0.001192941,1,-0.127167568,0.250803262,9.802617073,1,0,0
1779140530520.000000000,2419,164548.520000000,0.016795626,-0.019894602,-0.996940792,0.000166750,-0.000204851,-0.009968037,1779140530520.000000000,2419,164548.520000000,0.037773736,0.055978782,0.025963442,1,0.000334593,0.001242092,-0.000159815,1,-0.126969188,0.251107603,9.802612305,1,0,0
1779140530530.000000000,2419,164548.530000000,0.016085289,-0.017120928,-0.997429132,0.000162276,-0.000177471,-0.009968413,1779140530530.000000000,2419,164548.530000000,0.030711599,0.083197474,0.021172859,1,0.000181289,0.000207165,-0.000801411,1,-0.127038002,0.251102984,9.802611351,1,0,0
1779140530540.000000000,2419,164548.540000000,0.010246593,-0.020224953,-0.995361984,0.000114016,-0.000182445,-0.009955131,1779140530540.000000000,2419,164548.540000000,-0.026550420,0.052769057,0.041444559,1,-0.000253280,0.000613907,-0.001682863,1,-0.127055645,0.251099616,9.802611351,1,0,0
1779140530560.000000000,2419,164548.560000000,0.007784613,-0.028061114,-0.996332645,0.000079411,-0.000282332,-0.009950558,1779140530560.000000000,2419,164548.560000000,-0.051027928,-0.023930259,0.031917024,1,0.000316645,-0.001020118,-0.001121060,1,-0.127337962,0.251264721,9.802603722,1,0,0
1779140530570.000000000,2419,164548.570000000,0.007523776,-0.030031776,-0.994220614,0.000069639,-0.000303505,-0.009939671,1779140530570.000000000,2419,164548.570000000,-0.053470656,-0.043196451,0.052628912,1,0.000480208,-0.000243555,-0.000728351,1,-0.127246678,0.251329392,9.802602768,1,0,0
1779140530590.000000000,2419,164548.590000000,0.013376920,-0.028307900,-0.993932307,0.000132980,-0.000274576,-0.009946326,1779140530590.000000000,2419,164548.590000000,0.003921314,-0.026179541,0.055453595,1,0.001465813,-0.001720378,-0.000354713,1,-0.127208069,0.251471758,9.802599907,1,0,0
1779140530600.000000000,2419,164548.600000000,0.015820552,-0.027751364,-0.997306705,0.000152894,-0.000277108,-0.009978205,1779140530600.000000000,2419,164548.600000000,0.027991300,-0.020634312,0.022361349,1,0.000277291,-0.000605800,-0.001102799,1,-0.127137303,0.251521826,9.802599907,1,0,0
1779140530620.000000000,2419,164548.620000000,0.017359028,-0.025175499,-0.996145666,0.000173416,-0.000254655,-0.009960041,1779140530620.000000000,2419,164548.620000000,0.043023020,0.004486348,0.033749558,1,-0.000991320,-0.000824884,-0.000995865,1,-0.127185956,0.251342326,9.802603722,1,0,0
1779140530630.000000000,2419,164548.630000000,0.015996499,-0.024142820,-0.996374249,0.000158563,-0.000240985,-0.009960636,1779140530630.000000000,2419,164548.630000000,0.029663038,0.014596809,0.031508170,1,0.000324157,0.000268701,-0.000605191,1,-0.127217919,0.251366884,9.802602768,1,0,0
1779140530650.000000000,2419,164548.650000000,0.013041152,-0.023685681,-0.994985163,0.000129398,-0.000236309,-0.009941402,1779140530650.000000000,2419,164548.650000000,0.000675095,0.019175936,0.045128670,1,0.001397896,-0.001069339,0.000117505,1,-0.127181455,0.251496792,9.802599907,1,0,0
1779140530660.000000000,2419,164548.660000000,0.010971618,-0.024495656,-0.997102737,0.000111722,-0.000248458,-0.009969999,1779140530660.000000000,2419,164548.660000000,-0.019510824,0.011246065,0.024362365,1,-0.000795346,-0.000374867,-0.000011422,1,-0.127093956,0.251441568,9.802601814,1,0,0
1779140530670.000000000,2419,164548.670000000,0.010229536,-0.025006866,-0.993222117,0.000100027,-0.000249049,-0.009936753,1779140530670.000000000,2419,164548.670000000,-0.026822779,0.006145571,0.062420476,1,-0.000945431,0.000380450,-0.000200660,1,-0.127152294,0.251349598,9.802603722,1,0,0
1779140530690.000000000,2419,164548.690000000,0.012467343,-0.031539671,-0.994977415,0.000125770,-0.000310044,-0.009955726,1779140530690.000000000,2419,164548.690000000,-0.004728639,-0.057938270,0.045210339,1,-0.000560790,-0.000943050,-0.000647525,1,-0.126962617,0.251342505,9.802606583,1,0,0
1779140530700.000000000,2419,164548.700000000,0.016222779,-0.033853419,-0.994851172,0.000157281,-0.000338528,-0.009947574,1779140530700.000000000,2419,164548.700000000,0.032073140,-0.080695823,0.046449352,1,-0.000615478,0.000449064,-0.000635579,1,-0.127032518,0.251273364,9.802607536,1,0,0
1779140530720.000000000,2419,164548.720000000,0.018333387,-0.032369141,-0.994739234,0.000175685,-0.000318731,-0.009966359,1779140530720.000000000,2419,164548.720000000,0.052848861,-0.066312537,0.047552429,1,-0.001807645,0.000109092,0.001652039,1,-0.126952752,0.251063734,9.802613258,1,0,0
1779140530730.000000000,2419,164548.730000000,0.018289918,-0.024508605,-0.996574581,0.000192182,-0.000240012,-0.009963507,1779140530730.000000000,2419,164548.730000000,0.052448709,0.010625923,0.029557381,1,0.001903447,-0.002334609,0.002374224,1,-0.126840055,0.251033545,9.802616119,1,0,0
1779140530750.000000000,2419,164548.750000000,0.012181827,-0.013814538,-0.994807661,0.000117234,-0.000125090,-0.009916896,1779140530750.000000000,2419,164548.750000000,-0.007394298,0.115474276,0.046886999,1,0.000700117,0.002952143,0.002215423,1,-0.126947567,0.250971347,9.802616119,1,0,0
1779140530760.000000000,2419,164548.760000000,0.005959374,-0.009351710,-1.006852984,0.000090072,-0.000099494,-0.010035893,1779140530760.000000000,2419,164548.760000000,-0.068249293,0.159409240,-0.071239308,1,0.003609604,-0.006189729,0.000029351,1,-0.126497626,0.251230836,9.802615166,1,0,0
1779140530780.000000000,2419,164548.780000000,0.004831393,-0.022182086,-0.996499717,0.000051728,-0.000167425,-0.009929980,1779140530780.000000000,2419,164548.780000000,-0.080006719,0.033915445,0.030273523,1,0.003465643,0.000085674,-0.004174869,1,-0.127392516,0.251553863,9.802595139,1,0,0
1779140530790.000000000,2419,164548.790000000,-0.004933557,-0.037775420,-0.991681755,-0.000035133,-0.000359104,-0.009962486,1779140530790.000000000,2419,164548.790000000,-0.175251067,-0.118874900,0.077525102,1,-0.000047606,-0.003098491,-0.005062575,1,-0.126776770,0.251571923,9.802602768,1,0,0
1779140530810.000000000,2419,164548.810000000,0.010660321,-0.035132982,-0.990454078,0.000115281,-0.000372965,-0.009950520,1779140530810.000000000,2419,164548.810000000,-0.022976961,-0.092802458,0.089551985,1,-0.000214180,-0.004734767,0.000164491,1,-0.127371147,0.251727819,9.802591324,1,0,0
1779140530820.000000000,2419,164548.820000000,0.016303476,-0.031359248,-0.994401455,0.000134695,-0.000302982,-0.009905537,1779140530820.000000000,2419,164548.820000000,0.032488696,-0.055616651,0.050838299,1,0.003494777,0.002405393,0.001132907,1,-0.127467945,0.252022028,9.802582741,1,0,0
1779140530830.000000000,2419,164548.830000000,0.023756286,-0.027921511,-0.999127388,0.000236465,-0.000285725,-0.010009194,1779140530830.000000000,2419,164548.830000000,0.105569258,-0.021876158,0.004492373,1,-0.001151683,-0.003993901,0.001505834,1,-0.127274498,0.251905024,9.802587509,1,0,0
1779140530850.000000000,2419,164548.850000000,0.025657510,-0.017534437,-0.994988739,0.000251764,-0.000185358,-0.009955408,1779140530850.000000000,2419,164548.850000000,0.124208085,0.079741783,0.045084387,1,-0.002029147,0.002571332,0.000853310,1,-0.127485707,0.251632899,9.802592278,1,0,0
1779140530860.000000000,2419,164548.860000000,0.022484371,-0.019181801,-0.996900082,0.000236254,-0.000184509,-0.009957056,1779140530860.000000000,2419,164548.860000000,0.093205690,0.063542299,0.026343588,1,0.000329148,-0.002701108,0.000581442,1,-0.127205953,0.251662046,9.802595139,1,0,0
1779140530880.000000000,2419,164548.880000000,0.017146563,-0.027926838,-0.994940698,0.000176723,-0.000273121,-0.009945169,1779140530880.000000000,2419,164548.880000000,0.040868837,-0.022160836,0.045557000,1,0.000527902,-0.000750716,0.000406724,1,-0.127257764,0.251724541,9.802592278,1,0,0
1779140530890.000000000,2419,164548.890000000,0.008761458,-0.029227432,-0.996306598,0.000099322,-0.000295424,-0.009970060,1779140530890.000000000,2419,164548.890000000,-0.041119214,-0.034912348,0.032165557,1,-0.000862712,-0.001418990,0.000232380,1,-0.126995310,0.251684040,9.802597046,1,0,0
1779140530910.000000000,2419,164548.910000000,0.007562202,-0.028716626,-0.995697379,0.000085346,-0.000286063,-0.009959641,1779140530910.000000000,2419,164548.910000000,-0.053047072,-0.030076114,0.038142111,1,0.000697531,-0.003336637,0.001091589,1,-0.127101958,0.251560032,9.802598953,1,0,0
1779140530920.000000000,2419,164548.920000000,0.005258900,-0.028839746,-0.994661093,0.000047655,-0.000290056,-0.009942235,1779140530920.000000000,2419,164548.920000000,-0.075620189,-0.031379778,0.048307206,1,-0.000289783,0.000283170,0.001178967,1,-0.127211735,0.251425534,9.802600861,1,0,0
1779140530940.000000000,2419,164548.940000000,0.011086120,-0.023294505,-0.993422687,0.000106993,-0.000236703,-0.009931697,1779140530940.000000000,2419,164548.940000000,-0.018427951,0.022847030,0.060456485,1,-0.001098826,-0.001133629,0.001958125,1,-0.127108768,0.251254588,9.802606583,1,0,0
1779140530950.000000000,2419,164548.950000000,0.016853707,-0.022456743,-0.997239590,0.000157998,-0.000224562,-0.009967856,1779140530950.000000000,2419,164548.950000000,0.038102873,0.030978383,0.023027055,1,-0.001223966,0.000617340,0.000900510,1,-0.127194092,0.251165986,9.802607536,1,0,0
1779140530960.000000000,2419,164548.960000000,0.018550789,-0.022175401,-0.996579468,0.000185862,-0.000219267,-0.009970048,1779140530960.000000000,2419,164548.960000000,0.054843880,0.033655208,0.029503856,1,-0.000523034,-0.001599524,0.000904001,1,-0.127026603,0.251105666,9.802611351,1,0,0
1779140530980.000000000,2419,164548.980000000,0.017506639,-0.024370555,-0.995323777,0.000178110,-0.000243418,-0.009961576,1779140530980.000000000,2419,164548.980000000,0.044636067,0.012134666,0.041818410,1,0.000272861,-0.000884760,-0.000373112,1,-0.127018124,0.251136541,9.802611351,1,0,0
1779140530990.000000000,2419,164548.990000000,0.014427782,-0.026356770,-0.996217549,0.000147069,-0.000260593,-0.009955449,1779140530990.000000000,2419,164548.990000000,0.014493823,-0.007317102,0.033053432,1,0.000068439,-0.000282347,-0.000302888,1,-0.126985833,0.251156539,9.802610397,1,0,0
1779140531010.000000000,2419,164549.010000000,0.010274361,-0.030309986,-0.995462120,0.000104151,-0.000301861,-0.009940332,1779140531010.000000000,2419,164549.010000000,-0.026420349,-0.046198443,0.040461976,1,0.000184242,0.000962690,0.001141367,1,-0.127206549,0.251047224,9.802610397,1,0,0
1779140531020.000000000,2419,164549.020000000,0.008182717,-0.029771477,-0.995473027,0.000086077,-0.000303099,-0.009968398,1779140531020.000000000,2419,164549.020000000,-0.046939176,-0.040945940,0.040355552,1,-0.000747125,0.000253130,0.001699529,1,-0.127190754,0.250989914,9.802612305,1,0,0
1779140531040.000000000,2419,164549.040000000,0.007828292,-0.022175569,-0.995837569,0.000086133,-0.000229287,-0.009971634,1779140531040.000000000,2419,164549.040000000,-0.050487213,0.033577666,0.036779910,1,-0.000343399,-0.001794046,0.001624581,1,-0.127199262,0.251035661,9.802611351,1,0,0
1779140531050.000000000,2419,164549.050000000,0.008870833,-0.019918481,-0.993842423,0.000082220,-0.000197662,-0.009930582,1779140531050.000000000,2419,164549.050000000,-0.040296264,0.055639755,0.056346439,1,-0.000213154,0.001901741,0.000629741,1,-0.127348259,0.250966936,9.802611351,1,0,0
1779140531070.000000000,2419,164549.070000000,0.010925070,-0.021891821,-0.994034410,0.000104415,-0.000213418,-0.009936361,1779140531070.000000000,2419,164549.070000000,-0.020209935,0.036380343,0.054459915,1,0.000966091,0.000738262,-0.000421938,1,-0.127371654,0.251095742,9.802607536,1,0,0
1779140531080.000000000,2419,164549.080000000,0.015791265,-0.024154684,-0.997438192,0.000152286,-0.000235845,-0.009969445,1779140531080.000000000,2419,164549.080000000,0.027356319,0.014206287,0.021078397,1,-0.000468537,0.000881688,-0.000831521,1,-0.127531275,0.251067877,9.802605629,1,0,0
1779140531100.000000000,2419,164549.100000000,0.015971106,-0.028960062,-0.997323632,0.000153675,-0.000287934,-0.009971897,1779140531100.000000000,2419,164549.100000000,0.029191477,-0.032868888,0.022201132,1,-0.000072656,0.000857211,-0.000341664,1,-0.127458587,0.251129925,9.802605629,1,0,0
1779140531110.000000000,2419,164549.110000000,0.016382748,-0.029034214,-0.993611932,0.000167100,-0.000290118,-0.009937907,1779140531110.000000000,2419,164549.110000000,0.033228759,-0.033641856,0.058601577,1,0.000447670,-0.000587785,-0.000179097,1,-0.127412945,0.251100451,9.802606583,1,0,0
1779140531120.000000000,2419,164549.120000000,0.015487748,-0.029311551,-0.997426271,0.000156638,-0.000296470,-0.009972251,1779140531120.000000000,2419,164549.120000000,0.024760466,-0.036444999,0.021201825,1,-0.000210511,0.000101486,0.000771640,1,-0.127105176,0.250989169,9.802613258,1,0,0
1779140531140.000000000,2419,164549.140000000,0.013842805,-0.024037022,-0.996956050,0.000143367,-0.000249179,-0.009963501,1779140531140.000000000,2419,164549.140000000,0.008602487,0.015178160,0.025815947,1,-0.000520997,-0.001167467,0.000413164,1,-0.127112225,0.250884712,9.802616119,1,0,0
1779140531150.000000000,2419,164549.150000000,0.010531351,-0.022050247,-0.994921088,0.000107707,-0.000225385,-0.009953132,1779140531150.000000000,2419,164549.150000000,-0.023794517,0.034633633,0.045773774,1,-0.000231633,-0.000389281,0.000265264,1,-0.127059430,0.250865579,9.802617073,1,0,0
1779140531170.000000000,2419,164549.170000000,0.008445907,-0.021751815,-0.995673239,0.000089656,-0.000219646,-0.009963237,1779140531170.000000000,2419,164549.170000000,-0.044225406,0.037565477,0.038397551,1,0.000158146,-0.001141369,-0.000810852,1,-0.127016515,0.250882536,9.802617073,1,0,0
1779140531180.000000000,2419,164549.180000000,0.009770857,-0.022719318,-0.995183408,0.000092589,-0.000227611,-0.009944226,1779140531180.000000000,2419,164549.180000000,-0.031257290,0.028101079,0.043199658,1,0.000191226,0.001271756,-0.001042722,1,-0.127117187,0.250907034,9.802615166,1,0,0
1779140531200.000000000,2419,164549.200000000,0.010465364,-0.025908865,-0.996074796,0.000100394,-0.000259009,-0.009955614,1779140531200.000000000,2419,164549.200000000,-0.024387576,-0.003078131,0.034456909,1,0.000506045,0.000601511,-0.001279493,1,-0.127037540,0.251016319,9.802614212,1,0,0
1779140531210.000000000,2419,164549.210000000,0.013132803,-0.026288996,-0.994969487,0.000127570,-0.000263188,-0.009956356,1779140531210.000000000,2419,164549.210000000,0.001729490,-0.006749181,0.045294266,1,-0.000217980,-0.000191383,-0.000884493,1,-0.127054051,0.251050651,9.802612305,1,0,0
1779140531230.000000000,2419,164549.230000000,0.014767650,-0.026487285,-0.995977879,0.000144448,-0.000267929,-0.009961407,1779140531230.000000000,2419,164549.230000000,0.017786751,-0.008644532,0.035403837,1,-0.000050955,0.001014306,-0.000643162,1,-0.127066582,0.251105160,9.802611351,1,0,0
1779140531240.000000000,2419,164549.240000000,0.016250033,-0.027291173,-0.995551646,0.000161879,-0.000271514,-0.009955812,1779140531240.000000000,2419,164549.240000000,0.032270748,-0.016487703,0.039582469,1,0.000181126,-0.000472263,-0.000506531,1,-0.127073333,0.251152754,9.802609444,1,0,0
1779140531250.000000000,2419,164549.250000000,0.015137267,-0.026329180,-0.996229768,0.000153513,-0.000264517,-0.009959674,1779140531250.000000000,2419,164549.250000000,0.021413952,-0.007051955,0.032933135,1,0.000091613,0.000032237,-0.000462144,1,-0.127033323,0.251151800,9.802610397,1,0,0
1779140531270.000000000,2419,164549.270000000,0.014221026,-0.026324805,-0.995995939,0.000144763,-0.000265202,-0.009958592,1779140531270.000000000,2419,164549.270000000,0.012349446,-0.007040990,0.035226353,1,0.000106226,-0.000513500,0.000048907,1,-0.127095133,0.251120538,9.802610397,1,0,0
1779140531280.000000000,2419,164549.280000000,0.012870172,-0.026035823,-0.995905757,0.000130845,-0.000261272,-0.009958416,1779140531280.000000000,2419,164549.280000000,-0.000848008,-0.004190295,0.036110744,1,0.000048833,-0.000290646,0.001023988,1,-0.127051398,0.251135886,9.802610397,1,0,0
1779140531300.000000000,2419,164549.300000000,0.011233209,-0.025116846,-0.995842874,0.000110433,-0.000252732,-0.009951956,1779140531300.000000000,2419,164549.300000000,-0.016870657,0.004732090,0.036729883,1,0.000379927,-0.000409029,0.000892150,1,-0.127017334,0.251056433,9.802613258,1,0,0
1779140531310.000000000,2419,164549.310000000,0.010573226,-0.025320938,-0.996245623,0.000109646,-0.000252200,-0.009967377,1779140531310.000000000,2419,164549.310000000,-0.023322895,0.002706922,0.032780979,1,-0.000844400,0.000151624,0.000627994,1,-0.127015054,0.250994414,9.802614212,1,0,0
1779140531330.000000000,2419,164549.330000000,0.011654492,-0.025820257,-0.995820105,0.000119089,-0.000258664,-0.009961262,1779140531330.000000000,2419,164549.330000000,-0.012831474,-0.002067039,0.036949672,1,-0.000625754,-0.001301332,0.000728524,1,-0.127081901,0.251124412,9.802610397,1,0,0
1779140531340.000000000,2419,164549.340000000,0.012710732,-0.026128259,-0.995966315,0.000124279,-0.000258904,-0.009959192,1779140531340.000000000,2419,164549.340000000,-0.002508549,-0.005092330,0.035515137,1,-0.000095868,0.000934252,0.000364885,1,-0.127187118,0.251135558,9.802608490,1,0,0
1779140531360.000000000,2419,164549.360000000,0.014200868,-0.025732106,-0.995168984,0.000143226,-0.000255879,-0.009957266,1779140531360.000000000,2419,164549.360000000,0.012111414,-0.001270110,0.043335650,1,-0.000359540,-0.000365880,0.000478327,1,-0.127139747,0.251064628,9.802611351,1,0,0
1779140531370.000000000,2419,164549.370000000,0.015255710,-0.025731260,-0.995841324,0.000149369,-0.000255607,-0.009956266,1779140531370.000000000,2419,164549.370000000,0.022447709,-0.001292632,0.036743116,1,0.000699867,-0.000484282,0.001227764,1,-0.127143621,0.251067162,9.802611351,1,0,0
1779140531390.000000000,2419,164549.390000000,0.013945938,-0.025593223,-0.996010542,0.000136735,-0.000256028,-0.009952068,1779140531390.000000000,2419,164549.390000000,0.009683894,0.000063456,0.035084952,1,0.000169194,0.001137705,0.000776550,1,-0.127113938,0.251052856,9.802612305,1,0,0
1779140531400.000000000,2419,164549.400000000,0.013294386,-0.025651800,-0.995939255,0.000137846,-0.000258118,-0.009963125,1779140531400.000000000,2419,164549.400000000,0.003267077,-0.000516126,0.035783604,1,-0.000608290,-0.000713151,0.001458763,1,-0.127082914,0.251023710,9.802613258,1,0,0
1779140531410.000000000,2419,164549.410000000,0.012390017,-0.025205484,-0.995865464,0.000123950,-0.000251414,-0.009955336,1779140531410.000000000,2419,164549.410000000,-0.005550275,0.003814610,0.036508769,1,0.000322740,-0.000302031,0.000804710,1,-0.127044767,0.251006395,9.802614212,1,0,0
1779140531430.000000000,2419,164549.430000000,0.010639122,-0.023840331,-0.994947016,0.000109097,-0.000237317,-0.009953655,1779140531430.000000000,2419,164549.430000000,-0.022640206,0.017126260,0.045518894,1,-0.000095721,-0.000417131,0.000605231,1,-0.126960859,0.250917315,9.802617073,1,0,0
1779140531440.000000000,2419,164549.440000000,0.010980905,-0.022529276,-0.996649086,0.000108000,-0.000227704,-0.009964456,1779140531440.000000000,2419,164549.440000000,-0.019233309,0.029880110,0.028831393,1,-0.001116304,-0.000569006,0.000538069,1,-0.126901031,0.250782251,9.802621841,1,0,0
1779140531460.000000000,2419,164549.460000000,0.011078000,-0.022547001,-0.996762693,0.000108909,-0.000225375,-0.009963292,1779140531460.000000000,2419,164549.460000000,-0.018241411,0.029752458,0.027716212,1,0.000593459,0.000317467,-0.000794298,1,-0.126890033,0.250881195,9.802618980,1,0,0
1779140531470.000000000,2419,164549.470000000,0.010945009,-0.023205485,-0.994764507,0.000109689,-0.000231019,-0.009953812,1779140531470.000000000,2419,164549.470000000,-0.019542119,0.023329133,0.047311079,1,0.000264490,0.000291744,-0.001082157,1,-0.126885965,0.250905067,9.802618980,1,0,0
1779140531490.000000000,2419,164549.490000000,0.012670121,-0.025532871,-0.995117903,0.000124163,-0.000254759,-0.009953422,1779140531490.000000000,2419,164549.490000000,-0.002690300,0.000582834,0.043842182,1,0.000685181,-0.000659723,-0.001809557,1,-0.126922607,0.250995427,9.802616119,1,0,0
1779140531500.000000000,2419,164549.500000000,0.013846276,-0.026590075,-0.996010780,0.000134498,-0.000261739,-0.009961160,1779140531500.000000000,2419,164549.500000000,0.008825032,-0.009723244,0.035084669,1,0.000776696,-0.000195225,-0.001385647,1,-0.126955584,0.251060009,9.802613258,1,0,0
1779140531520.000000000,2419,164549.520000000,0.014122782,-0.027295085,-0.996024132,0.000140284,-0.000269698,-0.009960532,1779140531520.000000000,2419,164549.520000000,0.011708703,-0.016718812,0.034957692,1,0.000685535,0.000377775,-0.000899624,1,-0.126787916,0.250958920,9.802618027,1,0,0
1779140531530.000000000,2419,164549.530000000,0.014494327,-0.026416114,-0.995705664,0.000144239,-0.000265610,-0.009957133,1779140531530.000000000,2419,164549.530000000,0.015312660,-0.008092088,0.038079988,1,0.000426675,0.000110519,-0.000682152,1,-0.126831278,0.250973463,9.802617073,1,0,0
1779140531540.000000000,2419,164549.540000000,0.013568939,-0.027428512,-0.995622039,0.000135957,-0.000274379,-0.009956106,1779140531540.000000000,2419,164549.540000000,0.006228653,-0.017995918,0.038899358,1,-0.000045337,0.000565425,-0.000732770,1,-0.126855358,0.250984132,9.802617073,1,0,0
1779140531560.000000000,2419,164549.560000000,0.012966570,-0.026193282,-0.995133340,0.000130578,-0.000264309,-0.009947089,1779140531560.000000000,2419,164549.560000000,0.000290615,-0.005814794,0.043689478,1,-0.000774933,-0.000357639,0.000004213,1,-0.126856849,0.251029372,9.802616119,1,0,0
1779140531570.000000000,2419,164549.570000000,0.012106105,-0.027016439,-0.995772839,0.000124266,-0.000266352,-0.009959354,1779140531570.000000000,2419,164549.570000000,-0.008114692,-0.013876720,0.037418224,1,0.000057868,0.000006137,-0.000004965,1,-0.126835227,0.251065850,9.802615166,1,0,0
1779140531590.000000000,2419,164549.590000000,0.012813871,-0.027620912,-0.994793296,0.000128407,-0.000275547,-0.009951536,1779140531590.000000000,2419,164549.590000000,-0.001143812,-0.019803936,0.047025394,1,-0.000357670,0.000904456,0.000069431,1,-0.126833141,0.251053572,9.802615166,1,0,0
1779140531600.000000000,2419,164549.600000000,0.013249371,-0.027293092,-0.995825291,0.000131887,-0.000274703,-0.009957531,1779140531600.000000000,2419,164549.600000000,0.003084492,-0.016650392,0.036905192,1,0.000068815,-0.000093524,0.000163826,1,-0.126844421,0.251005650,9.802616119,1,0,0
1779140531620.000000000,2419,164549.620000000,0.013556039,-0.026293695,-0.995908976,0.000137777,-0.000264436,-0.009962403,1779140531620.000000000,2419,164549.620000000,0.006102781,-0.006884763,0.036086205,1,-0.000702174,-0.000583933,0.000854108,1,-0.126817644,0.250946760,9.802618027,1,0,0
1779140531630.000000000,2419,164549.630000000,0.013791539,-0.024513001,-0.995264709,0.000137639,-0.000246607,-0.009950965,1779140531630.000000000,2419,164549.630000000,0.008420007,0.010529528,0.042405628,1,-0.000091568,0.000639654,0.001469958,1,-0.126847565,0.250917703,9.802618980,1,0,0
1779140531650.000000000,2419,164549.650000000,0.012680685,-0.024005003,-0.995915055,0.000125965,-0.000237288,-0.009956803,1779140531650.000000000,2419,164549.650000000,-0.002503077,0.015395098,0.036030494,1,-0.000540751,-0.000268223,0.001411051,1,-0.126848638,0.250787467,9.802621841,1,0,0
1779140531660.000000000,2419,164549.660000000,0.012211273,-0.024284471,-0.994721532,0.000121169,-0.000243817,-0.009949958,1779140531660.000000000,2419,164549.660000000,-0.007095511,0.012589171,0.047736771,1,-0.000820483,0.000360176,0.000429352,1,-0.126858100,0.250713080,9.802623749,1,0,0
1779140531680.000000000,2419,164549.680000000,0.011950804,-0.024928931,-0.995092571,0.000117790,-0.000250040,-0.009949549,1779140531680.000000000,2419,164549.680000000,-0.009652968,0.006165911,0.044100877,1,-0.000939196,0.000043394,0.000000928,1,-0.126851678,0.250605941,9.802626610,1,0,0
1779140531690.000000000,2419,164549.690000000,0.011971391,-0.025585769,-0.995528579,0.000119684,-0.000255383,-0.009956943,1779140531690.000000000,2419,164549.690000000,-0.009442324,-0.000324466,0.039826728,1,-0.000574791,-0.000126144,0.000590327,1,-0.126837164,0.250568539,9.802627563,1,0,0
1779140531700.000000000,2419,164549.700000000,0.012296702,-0.024706680,-0.995168328,0.000120134,-0.000248942,-0.009951058,1779140531700.000000000,2419,164549.700000000,-0.006225936,0.008249361,0.043360829,1,-0.000231665,-0.000582990,0.000597997,1,-0.126796722,0.250532150,9.802629471,1,0,0
1779140531720.000000000,2419,164549.720000000,0.012974778,-0.024913512,-0.996292651,0.000130353,-0.000247846,-0.009959525,1779140531720.000000000,2419,164549.720000000,0.000338867,0.006408243,0.032328915,1,-0.000004419,0.000079520,0.000048756,1,-0.126907513,0.250741541,9.802622795,1,0,0
1779140531730.000000000,2419,164549.730000000,0.012780191,-0.024831576,-0.994526625,0.000127604,-0.000251471,-0.009947499,1779140531730.000000000,2419,164549.730000000,-0.001612789,0.007263083,0.049646463,1,0.000238899,0.000447386,0.000457728,1,-0.126957566,0.250786304,9.802620888,1,0,0
1779140531750.000000000,2419,164549.750000000,0.012938547,-0.024466513,-0.995340645,0.000126307,-0.000243044,-0.009955039,1779140531750.000000000,2419,164549.750000000,-0.000045778,0.010931783,0.041660793,1,0.000127363,-0.000473897,-0.000207694,1,-0.126914963,0.250870228,9.802618980,1,0,0
1779140531760.000000000,2419,164549.760000000,0.012565919,-0.025679246,-0.995628417,0.000127356,-0.000257760,-0.009958034,1779140531760.000000000,2419,164549.760000000,-0.003637845,-0.000928042,0.038838714,1,0.000453925,-0.001018009,-0.000051395,1,-0.126835704,0.250913501,9.802618980,1,0,0
1779140531780.000000000,2419,164549.780000000,0.012862097,-0.025776904,-0.994799018,0.000125520,-0.000258569,-0.009949956,1779140531780.000000000,2419,164549.780000000,-0.000733307,-0.001822377,0.046970963,1,0.000369392,0.000802739,0.000360880,1,-0.126892164,0.250974387,9.802617073,1,0,0
1779140531790.000000000,2419,164549.790000000,0.012769243,-0.026103437,-0.996728122,0.000125108,-0.000258638,-0.009966431,1779140531790.000000000,2419,164549.790000000,-0.001667117,-0.005022992,0.028053109,1,-0.000229207,-0.000833850,-0.000181474,1,-0.126864746,0.250957072,9.802617073,1,0,0
1779140531810.000000000,2419,164549.810000000,0.013066707,-0.025923137,-0.996355295,0.000131987,-0.000257825,-0.009962113,1779140531810.000000000,2419,164549.810000000,0.001337114,-0.003248903,0.031709585,1,-0.000440407,-0.000172567,0.000084721,1,-0.126798078,0.250956535,9.802618027,1,0,0
1779140531820.000000000,2419,164549.820000000,0.012481527,-0.025182292,-0.995508850,0.000122339,-0.000251655,-0.009952641,1779140531820.000000000,2419,164549.820000000,-0.004346496,0.004006285,0.040011708,1,0.000120391,-0.000366738,-0.000128291,1,-0.126737133,0.250963926,9.802618980,1,0,0
1779140531830.000000000,2419,164549.830000000,0.013438861,-0.025533212,-0.995323718,0.000134654,-0.000254307,-0.009956487,1779140531830.000000000,2419,164549.830000000,0.005065173,0.000579067,0.041826639,1,-0.000643008,-0.000314012,-0.000101970,1,-0.126715317,0.250954270,9.802619934,1,0,0
1779140531850.000000000,2419,164549.850000000,0.013419594,-0.026016945,-0.995493174,0.000133665,-0.000258538,-0.009955184,1779140531850.000000000,2419,164549.850000000,0.004882900,-0.004233154,0.040166706,1,-0.000490493,0.000006386,-0.000236081,1,-0.126718760,0.250890523,9.802620888,1,0,0
1779140531860.000000000,2419,164549.860000000,0.013484911,-0.025928207,-0.996183097,0.000136238,-0.000258963,-0.009965080,1779140531860.000000000,2419,164549.860000000,0.005534920,-0.003337633,0.033400547,1,0.000088725,-0.001068611,0.000538908,1,-0.126673117,0.250934213,9.802620888,1,0,0
1779140531880.000000000,2419,164549.880000000,0.012393473,-0.026492352,-0.996175706,0.000126574,-0.000264918,-0.009958211,1779140531880.000000000,2419,164549.880000000,-0.005156034,-0.008846398,0.033472683,1,0.000174933,-0.001389082,-0.000174858,1,-0.126651287,0.250960201,9.802619934,1,0,0
1779140531890.000000000,2419,164549.890000000,0.011905292,-0.025896469,-0.996260166,0.000119571,-0.000260882,-0.009959402,1779140531890.000000000,2419,164549.890000000,-0.009883185,-0.003017752,0.032645535,1,-0.000148259,-0.000354185,-0.000638694,1,-0.126623675,0.250934988,9.802620888,1,0,0
1779140531910.000000000,2419,164549.910000000,0.012682876,-0.025218109,-0.996022165,0.000125459,-0.000248510,-0.009955385,1779140531910.000000000,2419,164549.910000000,-0.002244862,0.003658554,0.034978423,1,-0.000079562,-0.000871189,0.000656757,1,-0.126593679,0.250961542,9.802620888,1,0,0
1779140531920.000000000,2419,164549.920000000,0.011647696,-0.025106512,-0.994997561,0.000117224,-0.000250708,-0.009955866,1779140531920.000000000,2419,164549.920000000,-0.012321630,0.004723345,0.045029208,1,-0.000279780,0.000330916,0.000387174,1,-0.126554742,0.250926107,9.802621841,1,0,0
1779140531940.000000000,2419,164549.940000000,0.012918012,-0.024940439,-0.994950235,0.000128419,-0.000247555,-0.009947657,1779140531940.000000000,2419,164549.940000000,0.000040546,0.006340239,0.045491461,1,0.000065980,0.000286458,-0.000258291,1,-0.126651034,0.250924379,9.802620888,1,0,0
1779140531950.000000000,2419,164549.950000000,0.013336052,-0.025516480,-0.995988607,0.000129876,-0.000254578,-0.009961338,1779140531950.000000000,2419,164549.950000000,0.004085923,0.000707273,0.035308231,1,-0.000312180,0.000001289,-0.000442603,1,-0.126696482,0.250928581,9.802620888,1,0,0
1779140531970.000000000,2419,164549.970000000,0.013151689,-0.026154179,-0.996186554,0.000129804,-0.000264634,-0.009959651,1779140531970.000000000,2419,164549.970000000,0.002267948,-0.005526994,0.033366099,1,0.000077752,0.000368644,-0.001003138,1,-0.126718372,0.250959933,9.802618980,1,0,0
1779140531980.000000000,2419,164549.980000000,0.012640244,-0.025995156,-0.996282578,0.000129556,-0.000257200,-0.009962305,1779140531980.000000000,2419,164549.980000000,-0.002823758,-0.003989263,0.032423500,1,-0.000400180,0.000445343,0.000049370,1,-0.126796082,0.250923693,9.802618980,1,0,0
1779140531990.000000000,2419,164549.990000000,0.012597628,-0.024956118,-0.995261252,0.000125815,-0.000251779,-0.009947679,1779140531990.000000000,2419,164549.990000000,-0.003229927,0.006190235,0.042439904,1,-0.000532304,-0.000375655,0.000307409,1,-0.126758501,0.250909686,9.802619934,1,0,0
1779140532010.000000000,2419,164550.010000000,0.012276863,-0.024620282,-0.995184958,0.000118281,-0.000248740,-0.009953736,1779140532010.000000000,2419,164550.010000000,-0.006337378,0.009553527,0.043186624,1,0.000286552,0.000474146,-0.000445916,1,-0.126747429,0.251004785,9.802618027,1,0,0
1779140532020.000000000,2419,164550.020000000,0.012238971,-0.024816673,-0.995538533,0.000123994,-0.000249064,-0.009955817,1779140532020.000000000,2419,164550.020000000,-0.006689623,0.007672193,0.039718695,1,0.001012758,-0.000330907,-0.000384012,1,-0.126702920,0.251072109,9.802617073,1,0,0
1779140532040.000000000,2419,164550.040000000,0.013352802,-0.025372518,-0.994441330,0.000130059,-0.000249410,-0.009954033,1779140532040.000000000,2419,164550.040000000,0.004208355,0.002314905,0.050476290,1,-0.001056172,0.000644269,-0.000367922,1,-0.126758307,0.251101226,9.802615166,1,0,0
1779140532050.000000000,2419,164550.050000000,0.012014748,-0.027582239,-0.994672298,0.000122098,-0.000256077,-0.009954887,1779140532050.000000000,2419,164550.050000000,-0.008896276,-0.019363558,0.048211526,1,-0.001050470,-0.000054749,-0.000527101,1,-0.126719415,0.251092821,9.802616119,1,0,0
1779140532070.000000000,2419,164550.070000000,0.012901977,-0.026814256,-0.996994853,0.000137455,-0.000266763,-0.009970602,1779140532070.000000000,2419,164550.070000000,-0.000180532,-0.011802754,0.025434425,1,-0.000204535,-0.000408070,-0.000639760,1,-0.126693502,0.251148641,9.802615166,1,0,0
1779140532080.000000000,2419,164550.080000000,0.013356272,-0.025897136,-0.994946063,0.000135046,-0.000260140,-0.009942177,1779140532080.000000000,2419,164550.080000000,0.004226198,-0.002845509,0.045526363,1,-0.000462132,0.000322443,-0.000870974,1,-0.126764849,0.251103908,9.802615166,1,0,0
1779140532100.000000000,2419,164550.100000000,0.013138691,-0.027124712,-0.995074213,0.000127423,-0.000262071,-0.009948271,1779140532100.000000000,2419,164550.100000000,0.002078599,-0.014845613,0.044269022,1,0.000226206,0.000684899,-0.000292461,1,-0.126789555,0.251163930,9.802613258,1,0,0
1779140532110.000000000,2419,164550.110000000,0.013181576,-0.026530128,-0.996619880,0.000129649,-0.000264564,-0.009972752,1779140532110.000000000,2419,164550.110000000,0.002496149,-0.009001638,0.029109931,1,0.000330712,-0.001449517,-0.000037702,1,-0.126725763,0.251180381,9.802613258,1,0,0
1779140532120.000000000,2419,164550.120000000,0.013045197,-0.024667760,-0.995414734,0.000122698,-0.000245907,-0.009950723,1779140532120.000000000,2419,164550.120000000,0.001235209,0.009302687,0.040928680,1,0.000401387,0.000086914,-0.000177312,1,-0.126694560,0.251223803,9.802613258,1,0,0
1779140532140.000000000,2419,164550.140000000,0.012818516,-0.023826050,-0.993360877,0.000118329,-0.000237907,-0.009934132,1779140532140.000000000,2419,164550.140000000,-0.000940951,0.017600756,0.061068945,1,-0.000141135,0.000032864,-0.000664846,1,-0.126649216,0.251249850,9.802613258,1,0,0
1779140532150.000000000,2419,164550.150000000,0.013136162,-0.026408968,-0.997806787,0.000125529,-0.000255003,-0.009975369,1779140532150.000000000,2419,164550.150000000,0.002161062,-0.007691711,0.017469142,1,0.000771458,0.000453355,-0.000913632,1,-0.126675576,0.251315504,9.802610397,1,0,0
1779140532170.000000000,2419,164550.170000000,0.012816532,-0.024090935,-0.995356023,0.000131362,-0.000244779,-0.009947713,1779140532170.000000000,2419,164550.170000000,-0.001050865,0.014953155,0.041503936,1,0.000097202,-0.000034746,-0.000388763,1,-0.126737341,0.251207411,9.802612305,1,0,0
1779140532180.000000000,2419,164550.180000000,0.011540467,-0.025376538,-0.996154785,0.000124163,-0.000259017,-0.009957975,1779140532180.000000000,2419,164550.180000000,-0.013439083,0.002380599,0.033671834,1,0.000392291,-0.000813803,-0.000595501,1,-0.126587495,0.251251459,9.802613258,1,0,0
1779140532200.000000000,2419,164550.200000000,0.012529871,-0.024436904,-0.995703697,0.000130916,-0.000247777,-0.009953842,1779140532200.000000000,2419,164550.200000000,-0.003803177,0.011693800,0.038091891,1,0.000020383,-0.000805275,-0.000592110,1,-0.126654610,0.251338392,9.802610397,1,0,0
1779140532210.000000000,2419,164550.210000000,0.011327852,-0.023741052,-0.995788038,0.000115314,-0.000241895,-0.009955095,1779140532210.000000000,2419,164550.210000000,-0.015470703,0.018577036,0.037264839,1,-0.000439271,-0.001044025,-0.000873612,1,-0.126527116,0.251383185,9.802611351,1,0,0
1779140532230.000000000,2419,164550.230000000,0.013275801,-0.026860835,-0.994968474,0.000134791,-0.000268507,-0.009948609,1779140532230.000000000,2419,164550.230000000,0.003728135,-0.011923709,0.045300342,1,-0.000060449,-0.001469315,-0.001036015,1,-0.126417994,0.251488805,9.802609444,1,0,0
1779140532240.000000000,2419,164550.240000000,0.013871143,-0.026221080,-0.996700406,0.000134779,-0.000263886,-0.009962143,1779140532240.000000000,2419,164550.240000000,0.009652128,-0.005595793,0.028315779,1,0.001097258,-0.000948832,-0.000341322,1,-0.126347989,0.251579285,9.802608490,1,0,0
1779140532260.000000000,2419,164550.260000000,0.015701184,-0.028744869,-0.996840060,0.000156832,-0.000273944,-0.009961329,1779140532260.000000000,2419,164550.260000000,0.027605740,-0.030328266,0.026946047,1,0.001957369,-0.000218891,0.000192991,1,-0.126363292,0.251623750,9.802606583,1,0,0
1779140532270.000000000,2419,164550.270000000,0.013863786,-0.024267733,-0.993153691,0.000135127,-0.000266439,-0.009941634,1779140532270.000000000,2419,164550.270000000,0.009661702,0.013508265,0.063099824,1,-0.001177827,0.000661828,0.000341519,1,-0.126315981,0.251456827,9.802611351,1,0,0
1779140532280.000000000,2419,164550.280000000,0.013384608,-0.028092876,-0.996225774,0.000140979,-0.000282504,-0.009970807,1779140532280.000000000,2419,164550.280000000,0.004884284,-0.023956409,0.032970831,1,0.000133995,0.000558733,0.000384535,1,-0.126391008,0.251544952,9.802608490,1,0,0
1779140532300.000000000,2419,164550.300000000,0.013411704,-0.024295574,-1.001784205,0.000131911,-0.000231704,-0.009995062,1779140532300.000000000,2419,164550.300000000,0.005226808,0.013276583,-0.021536704,1,0.001076621,-0.001479671,0.000588777,1,-0.126250446,0.251568615,9.802609444,1,0,0
1779140532310.000000000,2419,164550.310000000,0.011141283,-0.019169191,-0.995404422,0.000104048,-0.000216366,-0.009923244,1779140532310.000000000,2419,164550.310000000,-0.017032480,0.063499674,0.041028071,1,-0.001590007,0.000332478,-0.000237585,1,-0.126301721,0.251435518,9.802612305,1,0,0
1779140532330.000000000,2419,164550.330000000,0.009278814,-0.024287272,-0.990669847,0.000097289,-0.000242282,-0.009914946,1779140532330.000000000,2419,164550.330000000,-0.035188489,0.013375913,0.087457865,1,-0.000724277,0.000779962,-0.000802604,1,-0.126207799,0.251529545,9.802611351,1,0,0
1779140532340.000000000,2419,164550.340000000,0.009343639,-0.029148858,-0.993219137,0.000117819,-0.000299003,-0.009964008,1779140532340.000000000,2419,164550.340000000,-0.034620490,-0.034201536,0.062454365,1,-0.001417388,-0.001313710,-0.001225989,1,-0.126210302,0.251606405,9.802609444,1,0,0
1779140532360.000000000,2419,164550.360000000,0.015307344,-0.028013827,-0.994272828,0.000139513,-0.000304560,-0.009967365,1779140532360.000000000,2419,164550.360000000,0.023890376,-0.023082934,0.052121460,1,-0.000641542,0.001164849,0.000174843,1,-0.126259610,0.251618922,9.802608490,1,0,0
1779140532370.000000000,2419,164550.370000000,0.016512228,-0.030218041,-0.996825755,0.000163952,-0.000275232,-0.009947953,1779140532370.000000000,2419,164550.370000000,0.035699554,-0.044652138,0.027084958,1,0.002431620,-0.001522522,0.000904697,1,-0.126181886,0.251761854,9.802605629,1,0,0
1779140532390.000000000,2419,164550.390000000,0.014006264,-0.024067998,-0.996550322,0.000144683,-0.000237371,-0.009957708,1779140532390.000000000,2419,164550.390000000,0.011072772,0.015620989,0.029786190,1,-0.001492094,0.000772415,0.000498579,1,-0.126305476,0.251601100,9.802608490,1,0,0
1779140532400.000000000,2419,164550.400000000,0.013637814,-0.019229135,-0.997054756,0.000145839,-0.000187816,-0.009951525,1779140532400.000000000,2419,164550.400000000,0.007438506,0.063019119,0.024841098,1,0.000191431,-0.000434169,0.000175744,1,-0.126289085,0.251598567,9.802608490,1,0,0
1779140532410.000000000,2419,164550.410000000,0.010313458,-0.020804280,-0.996787965,0.000108318,-0.000213438,-0.009974333,1779140532410.000000000,2419,164550.410000000,-0.025112588,0.047641128,0.027455967,1,-0.000183716,0.000493790,-0.000706414,1,-0.126269028,0.251655430,9.802607536,1,0,0
1779140532420.000000000,2419,164550.420000000,0.012212389,-0.022984598,-0.993514299,0.000123184,-0.000231196,-0.009931433,1779140532420.000000000,2419,164550.420000000,-0.006673954,0.026182197,0.059559885,1,-0.000314613,0.001274118,-0.001042101,1,-0.126477182,0.251573890,9.802606583,1,0,0
1779140532430.000000000,2419,164550.430000000,0.009683847,-0.029178215,-0.997113883,0.000102937,-0.000280476,-0.009978945,1779140532430.000000000,2419,164550.430000000,-0.031370632,-0.034447566,0.024257245,1,0.000123262,-0.001689785,-0.000478651,1,-0.126284391,0.251696676,9.802605629,1,0,0
1779140532440.000000000,2419,164550.440000000,0.009578933,-0.025256442,-0.996980250,0.000093792,-0.000254902,-0.009954104,1779140532440.000000000,2419,164550.440000000,-0.032456830,0.003936041,0.025569867,1,0.000536607,0.001186421,-0.000187227,1,-0.126431257,0.251633823,9.802605629,1,0,0
1779140532460.000000000,2419,164550.460000000,0.011294127,-0.028745456,-0.994005859,0.000110188,-0.000276814,-0.009918496,1779140532460.000000000,2419,164550.460000000,-0.015511692,-0.030189067,0.054737888,1,0.000477781,-0.000208210,-0.000362203,1,-0.126263037,0.251722336,9.802605629,1,0,0
1779140532470.000000000,2419,164550.470000000,0.013163949,-0.028795088,-0.996658742,0.000136095,-0.000290474,-0.009981578,1779140532470.000000000,2419,164550.470000000,0.002836587,-0.030651834,0.028721735,1,-0.000979865,0.000333444,0.000026081,1,-0.126268044,0.251700968,9.802606583,1,0,0
1779140532490.000000000,2419,164550.490000000,0.015347632,-0.023755966,-0.995809138,0.000160355,-0.000244313,-0.009963680,1779140532490.000000000,2419,164550.490000000,0.024113128,0.018693676,0.037052758,1,-0.001663635,0.000427682,0.000162217,1,-0.126408949,0.251608282,9.802606583,1,0,0
1779140532500.000000000,2419,164550.500000000,0.015262539,-0.024066051,-0.994799674,0.000155855,-0.000237901,-0.009950060,1779140532500.000000000,2419,164550.500000000,0.023298467,0.015632456,0.046953961,1,0.000874720,-0.000195660,-0.000372302,1,-0.126370117,0.251666963,9.802605629,1,0,0
1779140532520.000000000,2419,164550.520000000,0.013450461,-0.023344669,-0.995094061,0.000136708,-0.000232325,-0.009946847,1779140532520.000000000,2419,164550.520000000,0.005481918,0.022723766,0.044065885,1,0.000033724,-0.000240626,-0.000424236,1,-0.126414463,0.251657188,9.802605629,1,0,0
1779140532530.000000000,2419,164550.530000000,0.011522413,-0.023242932,-0.996270597,0.000118451,-0.000240466,-0.009963544,1779140532530.000000000,2419,164550.530000000,-0.013460440,0.023688937,0.032528453,1,-0.001375588,0.000230275,0.000035586,1,-0.126463845,0.251581311,9.802606583,1,0,0
1779140532550.000000000,2419,164550.550000000,0.010378581,-0.026726503,-0.995534778,0.000100250,-0.000278173,-0.009967471,1779140532550.000000000,2419,164550.550000000,-0.024754362,-0.010455824,0.039742433,1,-0.000769451,0.000320680,-0.000166073,1,-0.126543626,0.251617581,9.802604675,1,0,0
1779140532560.000000000,2419,164550.560000000,0.010009484,-0.028822409,-0.995668530,0.000098805,-0.000274852,-0.009951886,1779140532560.000000000,2419,164550.560000000,-0.028389389,-0.031026974,0.038431235,1,-0.000002555,0.000147781,-0.000160694,1,-0.126553640,0.251624167,9.802604675,1,0,0
1779140532570.000000000,2419,164550.570000000,0.010974044,-0.027134923,-0.995586216,0.000107949,-0.000269949,-0.009966599,1779140532570.000000000,2419,164550.570000000,-0.018858561,-0.014541847,0.039240826,1,-0.000597672,-0.000679890,0.000196595,1,-0.126455799,0.251542270,9.802607536,1,0,0
1779140532590.000000000,2419,164550.590000000,0.013608239,-0.025284637,-0.995579720,0.000136246,-0.000256514,-0.009959126,1779140532590.000000000,2419,164550.590000000,0.006984105,0.003605846,0.039305065,1,0.000058140,-0.000155313,0.000099073,1,-0.126462206,0.251565307,9.802607536,1,0,0
1779140532600.000000000,2419,164550.600000000,0.014712243,-0.025034271,-0.996073246,0.000144778,-0.000251247,-0.009956039,1779140532600.000000000,2419,164550.600000000,0.017836086,0.006068317,0.034465156,1,0.000367387,0.000289718,0.000046399,1,-0.126450747,0.251582146,9.802606583,1,0,0
1779140532620.000000000,2419,164550.620000000,0.015569877,-0.025697593,-0.994663179,0.000155783,-0.000263102,-0.009945435,1779140532620.000000000,2419,164550.620000000,0.026290435,-0.000491293,0.048294391,1,-0.000609788,-0.000206600,0.000042628,1,-0.126391426,0.251497000,9.802609444,1,0,0
1779140532630.000000000,2419,164550.630000000,0.015686279,-0.026253846,-0.996729195,0.000159264,-0.000261654,-0.009962457,1779140532630.000000000,2419,164550.630000000,0.027447559,-0.005958940,0.028034896,1,0.000314660,-0.001037466,0.000027262,1,-0.126349911,0.251513183,9.802609444,1,0,0
1779140532650.000000000,2419,164550.650000000,0.012558765,-0.027326366,-0.996383667,0.000128065,-0.000273611,-0.009961734,1779140532650.000000000,2419,164550.650000000,-0.003108948,-0.016537864,0.031426426,1,0.000031208,-0.000440326,0.000573833,1,-0.126254171,0.251443475,9.802613258,1,0,0
1779140532660.000000000,2419,164550.660000000,0.010820756,-0.026215190,-0.994699240,0.000112249,-0.000263300,-0.009955002,1779140532660.000000000,2419,164550.660000000,-0.020082938,-0.005694909,0.047946524,1,-0.000912247,-0.000689634,0.000683915,1,-0.126176238,0.251360118,9.802616119,1,0,0
1779140532680.000000000,2419,164550.680000000,0.011066522,-0.023757473,-0.995904982,0.000110948,-0.000239536,-0.009958956,1779140532680.000000000,2419,164550.680000000,-0.017657397,0.018362461,0.036124360,1,0.000025965,-0.000781126,0.000973207,1,-0.126157761,0.251344919,9.802617073,1,0,0
1779140532690.000000000,2419,164550.690000000,0.010506376,-0.025031051,-0.996736109,0.000104718,-0.000250634,-0.009965099,1779140532690.000000000,2419,164550.690000000,-0.023086965,0.005910601,0.027973253,1,-0.000158338,-0.000185874,0.000170086,1,-0.126113385,0.251376480,9.802616119,1,0,0
1779140532710.000000000,2419,164550.710000000,0.012361538,-0.023304705,-0.995384157,0.000123335,-0.000236826,-0.009949096,1779140532710.000000000,2419,164550.710000000,-0.004961215,0.022871196,0.041229982,1,0.000761063,-0.000176638,-0.000031989,1,-0.126181006,0.251436025,9.802614212,1,0,0
1779140532720.000000000,2419,164550.720000000,0.014257538,-0.024785491,-0.996088743,0.000140094,-0.000241737,-0.009963468,1779140532720.000000000,2419,164550.720000000,0.013769910,0.008423463,0.034320131,1,0.000594073,-0.000758161,-0.000165345,1,-0.126019478,0.251506627,9.802614212,1,0,0
1779140532730.000000000,2419,164550.730000000,0.014977563,-0.026571721,-0.995880783,0.000146081,-0.000265956,-0.009951168,1779140532730.000000000,2419,164550.730000000,0.020826373,-0.009063024,0.036358289,1,0.000447817,0.001041240,-0.000418093,1,-0.126085803,0.251530498,9.802613258,1,0,0
1779140532750.000000000,2419,164550.750000000,0.015071139,-0.026785873,-0.996456265,0.000147149,-0.000276055,-0.009957447,1779140532750.000000000,2419,164550.750000000,0.021766735,-0.011207014,0.030716840,1,-0.001064166,-0.000093289,0.000613372,1,-0.126027256,0.251439720,9.802616119,1,0,0
1779140532760.000000000,2419,164550.760000000,0.013637573,-0.025320854,-0.995483339,0.000139658,-0.000257637,-0.009959672,1779140532760.000000000,2419,164550.760000000,0.007700924,0.003097538,0.040258732,1,-0.000247308,-0.000463843,0.001073157,1,-0.126022652,0.251403034,9.802617073,1,0,0
1779140532770.000000000,2419,164550.770000000,0.013127904,-0.023621507,-0.995373428,0.000132608,-0.000240963,-0.009947806,1779140532770.000000000,2419,164550.770000000,0.002743825,0.019747272,0.041337918,1,0.000373570,-0.000285525,0.000337977,1,-0.125987768,0.251406938,9.802617073,1,0,0
1779140532780.000000000,2419,164550.780000000,0.011532423,-0.024369255,-0.996479094,0.000115850,-0.000244459,-0.009964160,1779140532780.000000000,2419,164550.780000000,-0.012882663,0.012464330,0.030494399,1,0.000143888,-0.000002683,0.000380418,1,-0.125976726,0.251449764,9.802616119,1,0,0
1779140532790.000000000,2419,164550.790000000,0.010720233,-0.023212781,-0.995007515,0.000106690,-0.000229411,-0.009955757,1779140532790.000000000,2419,164550.790000000,-0.020860869,0.023803243,0.044925611,1,0.000312377,0.000378918,-0.000188321,1,-0.126002431,0.251452565,9.802616119,1,0,0
1779140532810.000000000,2419,164550.810000000,0.010395570,-0.024671897,-0.995296478,0.000103037,-0.000245923,-0.009959257,1779140532810.000000000,2419,164550.810000000,-0.024035949,0.009496134,0.042091426,1,-0.000882976,-0.000407173,-0.000332548,1,-0.125969231,0.251417130,9.802617073,1,0,0
1779140532820.000000000,2419,164550.820000000,0.011664771,-0.025968878,-0.996191025,0.000113527,-0.000257261,-0.009956618,1779140532820.000000000,2419,164550.820000000,-0.011651563,-0.003238940,0.033318717,1,-0.000071062,0.000995405,-0.000505598,1,-0.126075357,0.251426339,9.802616119,1,0,0
1779140532840.000000000,2419,164550.840000000,0.013213857,-0.025574092,-0.996195316,0.000129961,-0.000262954,-0.009960873,1779140532840.000000000,2419,164550.840000000,0.003510225,0.000638172,0.033275880,1,-0.000141036,0.000278210,-0.000488167,1,-0.126082525,0.251429766,9.802615166,1,0,0
1779140532850.000000000,2419,164550.850000000,0.014623480,-0.023610668,-0.995195568,0.000144730,-0.000244359,-0.009953879,1779140532850.000000000,2419,164550.850000000,0.017280158,0.019904772,0.043079365,1,0.000098124,0.000560005,-0.000504931,1,-0.126145080,0.251449198,9.802614212,1,0,0
1779140532860.000000000,2419,164550.860000000,0.014916916,-0.023956383,-0.995984137,0.000154297,-0.000237944,-0.009957539,1779140532860.000000000,2419,164550.860000000,0.020180160,0.016555442,0.035345040,1,0.000427426,-0.000582882,-0.000509583,1,-0.126087055,0.251500458,9.802613258,1,0,0
1779140532880.000000000,2419,164550.880000000,0.014926533,-0.027171474,-0.996766925,0.000150646,-0.000267378,-0.009967806,1779140532880.000000000,2419,164550.880000000,0.020323308,-0.014933461,0.027668267,1,-0.000129282,-0.000122132,-0.000682545,1,-0.126052737,0.251523376,9.802613258,1,0,0
1779140532890.000000000,2419,164550.890000000,0.012956866,-0.026483279,-0.995651543,0.000130389,-0.000262930,-0.009956703,1779140532890.000000000,2419,164550.890000000,0.001006045,-0.008272274,0.038608912,1,-0.000314227,0.000365376,-0.000181883,1,-0.126068950,0.251430094,9.802616119,1,0,0
1779140532910.000000000,2419,164550.910000000,0.010819630,-0.026786847,-0.996323824,0.000109311,-0.000266196,-0.009966751,1779140532910.000000000,2419,164550.910000000,-0.019910706,-0.011236954,0.032015663,1,0.000171811,-0.001029561,-0.000069679,1,-0.125982970,0.251457632,9.802616119,1,0,0
1779140532920.000000000,2419,164550.920000000,0.010451180,-0.025402037,-0.994995713,0.000103938,-0.000255046,-0.009948381,1779140532920.000000000,2419,164550.920000000,-0.023657089,0.002289784,0.045039546,1,0.000289981,0.000181658,0.000191971,1,-0.126164764,0.251402646,9.802615166,1,0,0
1779140532940.000000000,2419,164550.940000000,0.010924704,-0.022964699,-0.995829046,0.000104700,-0.000227251,-0.009952757,1779140532940.000000000,2419,164550.940000000,-0.019114260,0.026126258,0.036868781,1,-0.000137360,0.000530714,-0.000337472,1,-0.126265883,0.251328588,9.802616119,1,0,0
1779140532950.000000000,2419,164550.950000000,0.012172299,-0.024059579,-0.995650113,0.000118843,-0.000238476,-0.009959485,1779140532950.000000000,2419,164550.950000000,-0.006940296,0.015383874,0.038622029,1,-0.000488496,0.000379644,-0.000980592,1,-0.126322418,0.251312107,9.802615166,1,0,0
1779140532970.000000000,2419,164550.970000000,0.013272311,-0.026309263,-0.995562315,0.000129955,-0.000266428,-0.009956618,1779140532970.000000000,2419,164550.970000000,0.003788500,-0.006543758,0.039479136,1,-0.000206690,0.000654394,-0.001326200,1,-0.126389891,0.251455009,9.802611351,1,0,0
1779140532980.000000000,2419,164550.980000000,0.014749251,-0.026378959,-0.996226013,0.000148060,-0.000266225,-0.009964379,1779140532980.000000000,2419,164550.980000000,0.018226471,-0.007205781,0.032969184,1,0.000620544,0.000254854,-0.000055928,1,-0.126422286,0.251502812,9.802609444,1,0,0
1779140533000.000000000,2419,164551.000000000,0.014522016,-0.027480837,-0.995430112,0.000146759,-0.000273047,-0.009958800,1779140533000.000000000,2419,164551.000000000,0.015948761,-0.017992035,0.040773220,1,0.000241048,0.000478868,-0.000219929,1,-0.126478687,0.251510382,9.802608490,1,0,0
1779140533010.000000000,2419,164551.010000000,0.014110407,-0.027776692,-0.996454716,0.000141955,-0.000277626,-0.009961192,1779140533010.000000000,2419,164551.010000000,0.011885785,-0.020903841,0.030725295,1,-0.000305321,0.000066918,-0.000484134,1,-0.126492530,0.251482755,9.802608490,1,0,0
1779140533020.000000000,2419,164551.020000000,0.013150129,-0.027086258,-0.995053053,0.000132359,-0.000274572,-0.009952064,1779140533020.000000000,2419,164551.020000000,0.002460790,-0.014160634,0.044471730,1,-0.000834331,0.000380521,0.000083223,1,-0.126509741,0.251438856,9.802609444,1,0,0
1779140533040.000000000,2419,164551.040000000,0.012284175,-0.024436207,-0.995169520,0.000121229,-0.000248018,-0.009950523,1779140533040.000000000,2419,164551.040000000,-0.005982871,0.011739697,0.043332200,1,-0.000444495,-0.000600376,0.000330665,1,-0.126430497,0.251363307,9.802612305,1,0,0
1779140533050.000000000,2419,164551.050000000,0.012402548,-0.025087403,-0.996036172,0.000124777,-0.000249119,-0.009962566,1779140533050.000000000,2419,164551.050000000,-0.004779587,0.005348355,0.034834057,1,0.000024050,-0.000294857,0.000175554,1,-0.126397714,0.251372576,9.802613258,1,0,0
1779140533070.000000000,2419,164551.070000000,0.011666737,-0.023698667,-0.995467126,0.000117011,-0.000238501,-0.009958546,1779140533070.000000000,2419,164551.070000000,-0.012008047,0.018914126,0.040415265,1,-0.000331879,0.000330163,-0.000495813,1,-0.126430362,0.251308143,9.802614212,1,0,0
1779140533080.000000000,2419,164551.080000000,0.012365483,-0.024071639,-0.995832980,0.000121685,-0.000237067,-0.009954244,1779140533080.000000000,2419,164551.080000000,-0.005157864,0.015255698,0.036827158,1,-0.000084212,-0.000470358,-0.000494979,1,-0.126407549,0.251315027,9.802614212,1,0,0
1779140533100.000000000,2419,164551.100000000,0.013902259,-0.027021587,-0.996263504,0.000135897,-0.000266677,-0.009962351,1779140533100.000000000,2419,164551.100000000,0.009937683,-0.013642107,0.032604828,1,0.000127626,0.000035502,-0.000722221,1,-0.126398608,0.251352847,9.802613258,1,0,0
1779140533110.000000000,2419,164551.110000000,0.013296306,-0.026880097,-0.995170295,0.000133261,-0.000270512,-0.009951337,1779140533110.000000000,2419,164551.110000000,0.004032192,-0.012276014,0.043327328,1,0.000086607,-0.000424216,-0.000180960,1,-0.126346946,0.251330316,9.802614212,1,0,0
1779140533130.000000000,2419,164551.130000000,0.014389261,-0.027461899,-0.996816099,0.000141456,-0.000256039,-0.009961968,1779140533130.000000000,2419,164551.130000000,0.014833421,-0.018032663,0.027190229,1,0.000514919,0.000429491,0.000403937,1,-0.126289561,0.251292735,9.802616119,1,0,0
1779140533140.000000000,2419,164551.140000000,0.013815084,-0.025488596,-0.995472789,0.000134255,-0.000265951,-0.009940280,1779140533140.000000000,2419,164551.140000000,0.009191736,0.001257028,0.040364124,1,-0.001374189,0.000315097,0.000616512,1,-0.126297280,0.251172155,9.802618980,1,0,0
1779140533150.000000000,2419,164551.150000000,0.011944341,-0.028011678,-0.997953057,0.000130262,-0.000269639,-0.009989604,1779140533150.000000000,2419,164551.150000000,-0.009118626,-0.023483774,0.016042089,1,-0.001697338,-0.001216148,-0.000234065,1,-0.126214847,0.251163900,9.802620888,1,0,0
1779140533170.000000000,2419,164551.170000000,0.011480927,-0.023736820,-0.998040080,0.000132416,-0.000249197,-0.009992129,1779140533170.000000000,2419,164551.170000000,-0.013638653,0.018391121,0.015189648,1,-0.000602708,-0.002643936,-0.000581260,1,-0.126146063,0.251150787,9.802621841,1,0,0
1779140533180.000000000,2419,164551.180000000,0.011256439,-0.024056990,-0.993820012,0.000109249,-0.000240577,-0.009934684,1779140533180.000000000,2419,164551.180000000,-0.015836284,0.015212098,0.056575973,1,-0.000316457,0.001450134,-0.000118365,1,-0.126269594,0.251120687,9.802620888,1,0,0
1779140533200.000000000,2419,164551.200000000,0.011512376,-0.025115319,-0.996378839,0.000114162,-0.000249313,-0.009940868,1779140533200.000000000,2419,164551.200000000,-0.013376879,0.004772742,0.031483211,1,-0.000173238,-0.000773148,0.000075066,1,-0.126250550,0.251064509,9.802622795,1,0,0
1779140533210.000000000,2419,164551.210000000,0.013023109,-0.027779950,-0.996831119,0.000126384,-0.000287177,-0.009979452,1779140533210.000000000,2419,164551.210000000,0.001417574,-0.021355605,0.027047494,1,-0.002818642,0.001312786,-0.000072079,1,-0.126336530,0.250984669,9.802623749,1,0,0
1779140533230.000000000,2419,164551.230000000,0.012740578,-0.026886372,-0.995468199,0.000132718,-0.000267011,-0.009970265,1779140533230.000000000,2419,164551.230000000,-0.001363310,-0.012636868,0.040414263,1,-0.001524102,0.000078109,0.000057085,1,-0.126308084,0.250980854,9.802623749,1,0,0
1779140533240.000000000,2419,164551.240000000,0.013962197,-0.026775822,-0.995074391,0.000141525,-0.000271793,-0.009955715,1779140533240.000000000,2419,164551.240000000,0.010548031,-0.011614017,0.044276845,1,-0.000293793,-0.000062887,0.000250869,1,-0.126372188,0.250958055,9.802623749,1,0,0
1779140533260.000000000,2419,164551.260000000,0.013004443,-0.025243072,-0.994617462,0.000130147,-0.000243637,-0.009944859,1779140533260.000000000,2419,164551.260000000,0.001172412,0.003385904,0.048758473,1,0.000378445,-0.000261145,0.000350892,1,-0.126349181,0.250947833,9.802624702,1,0,0
1779140533270.000000000,2419,164551.270000000,0.014785530,-0.025990527,-0.996604145,0.000144408,-0.000253656,-0.009971172,1779140533270.000000000,2419,164551.270000000,0.018613743,-0.003968112,0.029275877,1,0.000168520,-0.000397418,0.000615450,1,-0.126369894,0.250917405,9.802624702,1,0,0
1779140533290.000000000,2419,164551.290000000,0.011842911,-0.023260072,-0.996130049,0.000115917,-0.000233851,-0.009964713,1779140533290.000000000,2419,164551.290000000,-0.010201196,0.022924015,0.033923145,1,0.000075543,0.000857658,-0.000015566,1,-0.126367256,0.251029760,9.802621841,1,0,0
1779140533300.000000000,2419,164551.300000000,0.011801309,-0.021496436,-0.995565355,0.000116745,-0.000216497,-0.009952559,1779140533300.000000000,2419,164551.300000000,-0.010610389,0.040139262,0.039462868,1,-0.000427449,-0.000798161,-0.000524069,1,-0.126317218,0.250933737,9.802625656,1,0,0
1779140533310.000000000,2419,164551.310000000,0.011511546,-0.026086733,-0.994434536,0.000107559,-0.000265306,-0.009950100,1779140533310.000000000,2419,164551.310000000,-0.013378941,-0.004887291,0.050553735,1,-0.000610571,0.000038254,-0.000902706,1,-0.126270562,0.250916779,9.802626610,1,0,0
1779140533330.000000000,2419,164551.330000000,0.011156990,-0.024100173,-0.992608070,0.000114523,-0.000233294,-0.009942574,1779140533330.000000000,2419,164551.330000000,-0.016829859,0.014673121,0.068463460,1,0.001835545,0.000307639,-0.000291773,1,-0.126252696,0.251072228,9.802622795,1,0,0
1779140533340.000000000,2419,164551.340000000,0.013207630,-0.025002839,-0.996915042,0.000128808,-0.000248842,-0.009962020,1779140533340.000000000,2419,164551.340000000,0.003204064,0.005865365,0.026224570,1,0.001070954,-0.000198820,-0.000737918,1,-0.126312956,0.251092583,9.802620888,1,0,0
1779140533360.000000000,2419,164551.360000000,0.014902551,-0.028490195,-0.996245623,0.000140767,-0.000273635,-0.009952611,1779140533360.000000000,2419,164551.360000000,0.019803181,-0.028312672,0.032788269,1,0.000337074,0.001142670,-0.000819787,1,-0.126377225,0.251090884,9.802619934,1,0,0
1779140533370.000000000,2419,164551.370000000,0.015108818,-0.027705122,-0.996421576,0.000147281,-0.000275911,-0.009955253,1779140533370.000000000,2419,164551.370000000,0.021847326,-0.020643966,0.031064035,1,-0.000127157,-0.000499001,-0.000332812,1,-0.126304284,0.251046389,9.802622795,1,0,0
1779140533390.000000000,2419,164551.390000000,0.014775121,-0.028810194,-0.995543599,0.000147923,-0.000290804,-0.009956008,1779140533390.000000000,2419,164551.390000000,0.018674262,-0.031482365,0.039675254,1,0.000662096,0.000181614,0.000750231,1,-0.126225248,0.251070112,9.802622795,1,0,0
1779140533400.000000000,2419,164551.400000000,0.013120208,-0.027254669,-0.995489001,0.000136743,-0.000280743,-0.009959731,1779140533400.000000000,2419,164551.400000000,0.002488187,-0.016261468,0.040212188,1,-0.000730391,-0.000002425,0.000535170,1,-0.126176611,0.250992984,9.802625656,1,0,0
1779140533420.000000000,2419,164551.420000000,0.011602328,-0.022662781,-0.995742917,0.000120020,-0.000228555,-0.009957020,1779140533420.000000000,2419,164551.420000000,-0.012501093,0.028697280,0.037722513,1,0.000479179,-0.000012857,0.001010173,1,-0.126279861,0.250958622,9.802624702,1,0,0
1779140533430.000000000,2419,164551.430000000,0.010388995,-0.021275874,-0.995126724,0.000106046,-0.000217121,-0.009952365,1779140533430.000000000,2419,164551.430000000,-0.024365794,0.042306826,0.043766078,1,0.000715150,0.000207376,0.000757089,1,-0.126252905,0.250974506,9.802624702,1,0,0
1779140533440.000000000,2419,164551.440000000,0.011455650,-0.022203941,-0.996869385,0.000114025,-0.000221989,-0.009961812,1779140533440.000000000,2419,164551.440000000,-0.014000072,0.033237513,0.026674109,1,-0.000385770,0.000585724,-0.000137644,1,-0.126360014,0.250971705,9.802623749,1,0,0
1779140533460.000000000,2419,164551.460000000,0.011741422,-0.024415744,-0.995996475,0.000116079,-0.000241727,-0.009958164,1779140533460.000000000,2419,164551.460000000,-0.011283498,0.011545128,0.035233140,1,0.000027456,0.001058542,-0.000229061,1,-0.126460731,0.250982553,9.802621841,1,0,0
1779140533470.000000000,2419,164551.470000000,0.012079960,-0.025605319,-0.994842291,0.000123799,-0.000254887,-0.009951216,1779140533470.000000000,2419,164551.470000000,-0.007961776,-0.000085349,0.046550639,1,0.000440625,-0.000345415,-0.000685814,1,-0.126415491,0.251030535,9.802621841,1,0,0
1779140533490.000000000,2419,164551.490000000,0.012891328,-0.027152471,-0.995026469,0.000127044,-0.000273192,-0.009954223,1779140533490.000000000,2419,164551.490000000,-0.000005271,-0.015144561,0.044741593,1,0.000008960,0.000987236,-0.000475371,1,-0.126457199,0.251130313,9.802618027,1,0,0
1779140533500.000000000,2419,164551.500000000,0.013954357,-0.026926892,-0.995677471,0.000138944,-0.000269575,-0.009954559,1779140533500.000000000,2419,164551.500000000,0.010373398,-0.012880540,0.038355596,1,0.000640482,0.000131088,-0.000592438,1,-0.126476675,0.251201808,9.802616119,1,0,0
1779140533520.000000000,2419,164551.520000000,0.014732496,-0.026521267,-0.996130168,0.000148153,-0.000263266,-0.009960502,1779140533520.000000000,2419,164551.520000000,0.018030206,-0.008725813,0.033912096,1,0.000413666,0.000629624,-0.000395438,1,-0.126459315,0.251377434,9.802612305,1,0,0
1779140533530.000000000,2419,164551.530000000,0.014241969,-0.026347401,-0.995154500,0.000143180,-0.000264873,-0.009954141,1779140533530.000000000,2419,164551.530000000,0.013213342,-0.007041445,0.043481059,1,-0.000451109,0.000082079,-0.000219683,1,-0.126454979,0.251324505,9.802613258,1,0,0
1779140533550.000000000,2419,164551.550000000,0.012729136,-0.025835998,-0.995331049,0.000130039,-0.000258939,-0.009957118,1779140533550.000000000,2419,164551.550000000,-0.001661594,-0.002134790,0.041751631,1,0.000151799,0.000169483,-0.000343418,1,-0.126497358,0.251234442,9.802615166,1,0,0
1779140533560.000000000,2419,164551.560000000,0.013135829,-0.025865650,-0.995455325,0.000129178,-0.000256978,-0.009947957,1779140533560.000000000,2419,164551.560000000,0.002278144,-0.002410953,0.040531565,1,-0.000308766,0.000355540,0.000343704,1,-0.126551151,0.251234949,9.802614212,1,0,0
1779140533580.000000000,2419,164551.580000000,0.011443253,-0.025552256,-0.995627761,0.000113439,-0.000256220,-0.009953363,1779140533580.000000000,2419,164551.580000000,-0.014315654,0.000622957,0.038841456,1,-0.000102154,-0.000418965,0.000165785,1,-0.126522422,0.251201868,9.802616119,1,0,0
1779140533590.000000000,2419,164551.590000000,0.011853053,-0.024815036,-0.995690465,0.000124179,-0.000246165,-0.009964307,1779140533590.000000000,2419,164551.590000000,-0.010229688,0.007881401,0.038226862,1,-0.000177034,-0.000588146,-0.000199378,1,-0.126450241,0.251228184,9.802616119,1,0,0
1779140533600.000000000,2419,164551.600000000,0.010118372,-0.025879499,-0.993709326,0.000111652,-0.000252823,-0.009947633,1779140533600.000000000,2419,164551.600000000,-0.027216911,-0.002574353,0.057656098,1,-0.000568809,-0.000274614,0.000144298,1,-0.126435563,0.251199156,9.802617073,1,0,0
1779140533620.000000000,2419,164551.620000000,0.011926378,-0.023334373,-0.994393706,0.000116575,-0.000248394,-0.009959240,1779140533620.000000000,2419,164551.620000000,-0.009374339,0.022354037,0.050946895,1,-0.000515653,-0.000409100,-0.000006536,1,-0.126319408,0.251169980,9.802618980,1,0,0
1779140533630.000000000,2419,164551.630000000,0.014305624,-0.024842283,-0.995325685,0.000137942,-0.000243804,-0.009938617,1779140533630.000000000,2419,164551.630000000,0.013919169,0.007564220,0.041806862,1,0.000193423,0.000319338,-0.000619130,1,-0.126381561,0.251189590,9.802618027,1,0,0
1779140533650.000000000,2419,164551.650000000,0.012075752,-0.026190089,-0.993843019,0.000123695,-0.000274423,-0.009946255,1779140533650.000000000,2419,164551.650000000,-0.007832456,-0.005764689,0.056351095,1,-0.001221407,0.001419441,-0.000532811,1,-0.126299843,0.251034051,9.802622795,1,0,0
1779140533660.000000000,2419,164551.660000000,0.015371780,-0.025658960,-0.996518552,0.000162559,-0.000266854,-0.009972109,1779140533660.000000000,2419,164551.660000000,0.024468888,-0.000639271,0.030114442,1,-0.000672023,-0.001539603,-0.000146122,1,-0.126228869,0.250968158,9.802625656,1,0,0
1779140533680.000000000,2419,164551.680000000,0.013958372,-0.025324665,-0.996665895,0.000135873,-0.000257214,-0.009959124,1779140533680.000000000,2419,164551.680000000,0.010653913,0.002626099,0.028671451,1,0.000282849,0.000889035,0.000001795,1,-0.126258701,0.250985056,9.802624702,1,0,0
1779140533690.000000000,2419,164551.690000000,0.012165777,-0.023812378,-0.996451676,0.000124274,-0.000245321,-0.009957291,1779140533690.000000000,2419,164551.690000000,-0.006796120,0.017449494,0.030773155,1,-0.000264207,-0.001802117,0.000527849,1,-0.126044989,0.250961125,9.802627563,1,0,0
1779140533710.000000000,2419,164551.710000000,0.012709476,-0.022257328,-0.996351838,0.000128377,-0.000234995,-0.009951445,1779140533710.000000000,2419,164551.710000000,-0.001565079,0.032598972,0.031754080,1,-0.000450391,-0.000616584,-0.000256553,1,-0.126183435,0.250854641,9.802628517,1,0,0
1779140533720.000000000,2419,164551.720000000,0.009234156,-0.025723724,-0.996403575,0.000100451,-0.000258705,-0.009963444,1779140533720.000000000,2419,164551.720000000,-0.035587408,-0.001309275,0.031244950,1,-0.000781201,-0.001176015,-0.000376313,1,-0.126112834,0.250931710,9.802627563,1,0,0
1779140533730.000000000,2419,164551.730000000,0.012433183,-0.024991944,-0.994501591,0.000118726,-0.000242401,-0.009940496,1779140533730.000000000,2419,164551.730000000,-0.004367229,0.005874760,0.049894921,1,0.000015492,0.002267061,-0.000624157,1,-0.126366720,0.250962377,9.802623749,1,0,0
1779140533750.000000000,2419,164551.750000000,0.012346752,-0.024507517,-0.995691121,0.000119815,-0.000249998,-0.009959674,1779140533750.000000000,2419,164551.750000000,-0.005162883,0.010719290,0.038228508,1,-0.000277681,0.001553015,-0.000573448,1,-0.126292080,0.251047045,9.802622795,1,0,0
1779140533760.000000000,2419,164551.760000000,0.014453372,-0.024258561,-0.994992375,0.000145513,-0.000246086,-0.009952888,1779140533760.000000000,2419,164551.760000000,0.015328091,0.013163798,0.045078415,1,-0.000777355,-0.001037812,-0.000850325,1,-0.126379371,0.251034439,9.802621841,1,0,0
1779140533780.000000000,2419,164551.780000000,0.014703889,-0.026821254,-0.994253814,0.000133213,-0.000280604,-0.009952254,1779140533780.000000000,2419,164551.780000000,0.017960154,-0.011910303,0.052321862,1,-0.001008211,0.001238053,-0.000605941,1,-0.126274884,0.251084656,9.802621841,1,0,0
1779140533790.000000000,2419,164551.790000000,0.013901640,-0.028038746,-0.996132553,0.000146369,-0.000270033,-0.009970623,1779140533790.000000000,2419,164551.790000000,0.010111203,-0.023857307,0.033898346,1,0.000348865,-0.002272642,-0.000717633,1,-0.126146987,0.251119494,9.802622795,1,0,0
1779140533810.000000000,2419,164551.810000000,0.014614150,-0.026063841,-0.996654212,0.000138520,-0.000256866,-0.009954794,1779140533810.000000000,2419,164551.810000000,0.017126836,-0.004431595,0.028780635,1,0.001286244,-0.000024664,-0.001121902,1,-0.126189172,0.251207054,9.802619934,1,0,0
1779140533820.000000000,2419,164551.820000000,0.011639702,-0.031437803,-0.996501267,0.000117730,-0.000298451,-0.009958928,1779140533820.000000000,2419,164551.820000000,-0.011875344,-0.057070393,0.030281713,1,0.000490303,-0.001899089,-0.001225909,1,-0.125963569,0.251243979,9.802621841,1,0,0
1779140533840.000000000,2419,164551.840000000,0.013455991,-0.024032885,-0.994477749,0.000135269,-0.000261689,-0.009951125,1779140533840.000000000,2419,164551.840000000,0.005830969,0.015403805,0.050127991,1,-0.000907025,-0.000496732,0.000250447,1,-0.126111537,0.251057714,9.802624702,1,0,0
