Time,reference_time,gps_timestamp,deltaVelX,deltaVelY,deltaVelZ,deltaThetaX,deltaThetaY,deltaThetaZ,estLinearAccelX,estLinearAccelY,estLinearAccelZ,estLinearAccel:valid,estAngularRateX,estAngularRateY,estAngularRateZ,estAngularRate:valid,scaledAccelX,scaledAccelY,scaledAccelZ,scaledGyroX,scaledGyroY,scaledGyroZ,scaledMagX,scaledMagY,scaledMagZ,estGyroBiasX,estGyroBiasY,estGyroBiasZ,estGyroBias:valid,flagStop
1777416176285068246,999983000000,   999.983, 0.000024,-0.000039,-0.009958,-0.000014, 0.000037, 0.000199,-0.084897,-0.029663, 0.041947,1,-0.000536, 0.003737, 0.019562,1, 0.001946,-0.002960,-0.995681,-0.000941, 0.003698, 0.019753, 0.117320, 0.245775,-0.113023,-0.000000, 0.000000, 0.000000,1,0
1777416176295296400,1000173000000,  1015.468, 0.000003, 0.000001,-0.009964,-0.000013, 0.000030, 0.000177,-0.545740,-0.053886, 0.024529,1,-0.001109, 0.003625, 0.020428,1, 0.000027,-0.000804,-0.996010,-0.001347, 0.003222, 0.017835, 0.116772, 0.245863,-0.111625,-0.000000, 0.000000,-0.000000,1,0
1777416176305388100,1000173000000,  1015.468, 0.000003, 0.000001,-0.009964,-0.000013, 0.000030, 0.000177,-0.545740,-0.053886, 0.024529,1,-0.001109, 0.003625, 0.020428,1, 0.000027,-0.000804,-0.996010,-0.001347, 0.003222, 0.017835, 0.116772, 0.245863,-0.111625,-0.000000, 0.000000,-0.000000,1,0
1777416176315010393,1015483000000,  1015.488,-0.000019,-0.000081,-0.009965,-0.000009, 0.000037, 0.000202,-0.550607,-0.097100, 0.022540,1,-0.000909, 0.003619, 0.020336,1,-0.001659,-0.005423,-0.996206,-0.000909, 0.003620, 0.020336, 0.116737, 0.246396,-0.112044,-0.000000, 0.000000,-0.000000,1,0
1777416176325098816,1015483000000,  1015.488,-0.000019,-0.000081,-0.009965,-0.000009, 0.000037, 0.000202,-0.550607,-0.097100, 0.022540,1,-0.000909, 0.003619, 0.020336,1,-0.001659,-0.005423,-0.996206,-0.000909, 0.003620, 0.020336, 0.116737, 0.246396,-0.112044,-0.000000, 0.000000,-0.000000,1,0
1777416176344779701,1015503000000,  1015.508,-0.000007,-0.000076,-0.009951,-0.000011, 0.000024, 0.000174,-0.546969,-0.115305, 0.027579,1,-0.000968, 0.003166, 0.018569,1,-0.001215,-0.007280,-0.995688,-0.000968, 0.003166, 0.018569, 0.116260, 0.246659,-0.111858,-0.000000, 0.000000,-0.000000,1,0
1777416176354470007,1015523000000,  1015.528,-0.000000,-0.000011,-0.009948,-0.000018, 0.000030, 0.000171,-0.539960,-0.079904, 0.028913,1,-0.001295, 0.003057, 0.017411,1,-0.000439,-0.003669,-0.995549,-0.001295, 0.003057, 0.017411, 0.116145, 0.246731,-0.111861,-0.000000, 0.000000,-0.000000,1,0
1777416176364554394,1015523000000,  1015.528,-0.000000,-0.000011,-0.009948,-0.000018, 0.000030, 0.000171,-0.539960,-0.079904, 0.028913,1,-0.001295, 0.003057, 0.017411,1,-0.000439,-0.003669,-0.995549,-0.001295, 0.003057, 0.017411, 0.116145, 0.246731,-0.111861,-0.000000, 0.000000,-0.000000,1,0
1777416176374274883,1015543000000,  1015.548, 0.000014, 0.000012,-0.009961,-0.000008, 0.000034, 0.000172,-0.528273,-0.047732, 0.023878,1,-0.001033, 0.003259, 0.017144,1, 0.000817,-0.000382,-0.996059,-0.001033, 0.003259, 0.017144, 0.116199, 0.246636,-0.111623,-0.000000, 0.000000,-0.000000,1,0
1777416176384360140,1015543000000,  1015.548, 0.000014, 0.000012,-0.009961,-0.000008, 0.000034, 0.000172,-0.528273,-0.047732, 0.023878,1,-0.001033, 0.003259, 0.017144,1, 0.000817,-0.000382,-0.996059,-0.001033, 0.003259, 0.017144, 0.116199, 0.246636,-0.111623,-0.000000, 0.000000,-0.000000,1,0
1777416176404036951,1015563000000,  1015.568, 0.000029, 0.000039,-0.009965,-0.000016, 0.000035, 0.000185,-0.515673,-0.021545, 0.023688,1,-0.001398, 0.003305, 0.017892,1, 0.002108, 0.002271,-0.996078,-0.001398, 0.003305, 0.017892, 0.115917, 0.245959,-0.111694,-0.000000, 0.000000,-0.000000,1,0
1777416176423751407,1015583000000,  1015.588, 0.000026, 0.000020,-0.009965,-0.000006, 0.000039, 0.000203,-0.512278,-0.020743, 0.024251,1,-0.000851, 0.003401, 0.019316,1, 0.002462, 0.002334,-0.996020,-0.000851, 0.003401, 0.019316, 0.116395, 0.246104,-0.112575,-0.000000, 0.000000,-0.000000,1,0
1777416176439345720,1015603000000,  1015.608, 0.000031,-0.000001,-0.009957,-0.000004, 0.000030, 0.000211,-0.508093,-0.034725, 0.026329,1,-0.000341, 0.003131, 0.020436,1, 0.002939, 0.000887,-0.995806,-0.000341, 0.003131, 0.020436, 0.116625, 0.245950,-0.112318,-0.000000, 0.000000,-0.000000,1,0
1777416176449036692,1015623000000,  1015.628, 0.000024,-0.000046,-0.009957,-0.000016, 0.000027, 0.000205,-0.511402,-0.068056, 0.026448,1,-0.001109, 0.002861, 0.020656,1, 0.002657,-0.002521,-0.995790,-0.001109, 0.002861, 0.020656, 0.116648, 0.246115,-0.112934,-0.000000, 0.000000,-0.000000,1,0
1777416176459122005,1015623000000,  1015.628, 0.000024,-0.000046,-0.009957,-0.000016, 0.000027, 0.000205,-0.511402,-0.068056, 0.026448,1,-0.001109, 0.002861, 0.020656,1, 0.002657,-0.002521,-0.995790,-0.001109, 0.002861, 0.020656, 0.116648, 0.246115,-0.112934,-0.000000, 0.000000,-0.000000,1,0
1777416176478817500,1015643000000,  1015.643, 0.000012,-0.000072,-0.009959,-0.000010, 0.000027, 0.000191,-0.520310,-0.098733, 0.024023,1,-0.001173, 0.002754, 0.019746,1, 0.001803,-0.005647,-0.996035,-0.001173, 0.002754, 0.019746, 0.116342, 0.246435,-0.111982,-0.000000, 0.000000,-0.000000,1,0
1777416176488478345,1015663000000,  1015.663, 0.000007,-0.000081,-0.009958,-0.000019, 0.000036, 0.000177,-0.527925,-0.115405, 0.025761,1,-0.001680, 0.003275, 0.018474,1, 0.001088,-0.007341,-0.995854,-0.001680, 0.003275, 0.018474, 0.116250, 0.246333,-0.111782,-0.000000, 0.000000,-0.000000,1,0
1777416176498562083,1015663000000,  1015.663, 0.000007,-0.000081,-0.009958,-0.000019, 0.000036, 0.000177,-0.527925,-0.115405, 0.025761,1,-0.001680, 0.003275, 0.018474,1, 0.001088,-0.007341,-0.995854,-0.001680, 0.003275, 0.018474, 0.116250, 0.246333,-0.111782,-0.000000, 0.000000,-0.000000,1,0
1777416176517967101,1015683000000,  1015.683, 0.000004,-0.000037,-0.009963,-0.000015, 0.000026, 0.000161,-0.532444,-0.111950, 0.025729,1,-0.001946, 0.003075, 0.017787,1, 0.000541,-0.005381,-0.996018,-0.001710, 0.002806, 0.017070, 0.116579, 0.246358,-0.111530,-0.000000, 0.000000,-0.000000,1,0
1777416176527661536,1015703000000,  1015.703, 0.000002, 0.000016,-0.009964,-0.000018, 0.000033, 0.000167,-0.536101,-0.072014, 0.024369,1,-0.001436, 0.002870, 0.016641,1, 0.000257,-0.000832,-0.996200,-0.001612, 0.003048, 0.016692, 0.116614, 0.246623,-0.112141,-0.000000, 0.000000,-0.000000,1,0
1777416176537745571,1015703000000,  1015.703, 0.000002, 0.000016,-0.009964,-0.000018, 0.000033, 0.000167,-0.536101,-0.072014, 0.024369,1,-0.001436, 0.002870, 0.016641,1, 0.000257,-0.000832,-0.996200,-0.001612, 0.003048, 0.016692, 0.116614, 0.246623,-0.112141,-0.000000, 0.000000,-0.000000,1,0
1777416176547355383,1015723000000,  1015.723,-0.000000, 0.000018,-0.009959,-0.000022, 0.000035, 0.000176,-0.536392,-0.041880, 0.028554,1,-0.001485, 0.003226, 0.016901,1, 0.000202, 0.000924,-0.995765,-0.001814, 0.003341, 0.017270, 0.116634, 0.246428,-0.112415,-0.000000, 0.000000,-0.000000,1,0
1777416176557438918,1015723000000,  1015.723,-0.000000, 0.000018,-0.009959,-0.000022, 0.000035, 0.000176,-0.536392,-0.041880, 0.028554,1,-0.001485, 0.003226, 0.016901,1, 0.000202, 0.000924,-0.995765,-0.001814, 0.003341, 0.017270, 0.116634, 0.246428,-0.112415,-0.000000, 0.000000,-0.000000,1,0
1777416176567085950,1015743000000,  1015.743,-0.000007, 0.000030,-0.009950,-0.000008, 0.000028, 0.000181,-0.541294,-0.027501, 0.024854,1,-0.001902, 0.003025, 0.017673,1,-0.000369, 0.002293,-0.995537,-0.001378, 0.002922, 0.017923, 0.116475, 0.246096,-0.113114,-0.000000, 0.000000,-0.000000,1,0
1777416176577169762,1015743000000,  1015.743,-0.000007, 0.000030,-0.009950,-0.000008, 0.000028, 0.000181,-0.541294,-0.027501, 0.024854,1,-0.001902, 0.003025, 0.017673,1,-0.000369, 0.002293,-0.995537,-0.001378, 0.002922, 0.017923, 0.116475, 0.246096,-0.113114,-0.000000, 0.000000,-0.000000,1,0
1777416176596917383,1015763000000,  1015.763,-0.000017, 0.000017,-0.009962,-0.000013, 0.000032, 0.000197,-0.551199,-0.022997, 0.024108,1,-0.001666, 0.003337, 0.018492,1,-0.001232, 0.001979,-0.996118,-0.001529, 0.003242, 0.019066, 0.116259, 0.246077,-0.112287,-0.000000, 0.000000,-0.000000,1,0
1777416176606607189,1015783000000,  1015.783, 0.000007, 0.000019,-0.009943,-0.000004, 0.000033, 0.000210,-0.551433,-0.018102, 0.018981,1,-0.001046, 0.002786, 0.019791,1,-0.000209, 0.002226,-0.995273,-0.000776, 0.003000, 0.020384, 0.116038, 0.246393,-0.111820,-0.000000, 0.000000,-0.000000,1,0
1777416176616720277,1015783000000,  1015.783, 0.000007, 0.000019,-0.009943,-0.000004, 0.000033, 0.000210,-0.551433,-0.018102, 0.018981,1,-0.001046, 0.002786, 0.019791,1,-0.000209, 0.002226,-0.995273,-0.000776, 0.003000, 0.020384, 0.116038, 0.246393,-0.111820,-0.000000, 0.000000,-0.000000,1,0
1777416176626299925,1015803000000,  1015.803,-0.000002,-0.000071,-0.009984,-0.000006, 0.000023, 0.000211,-0.538826,-0.043221, 0.035450,1,-0.000820, 0.003310, 0.021005,1, 0.000053,-0.003296,-0.996216,-0.000692, 0.002786, 0.021011, 0.116391, 0.246071,-0.111935,-0.000000, 0.000000,-0.000000,1,0
1777416176636384348,1015803000000,  1015.803,-0.000002,-0.000071,-0.009984,-0.000006, 0.000023, 0.000211,-0.538826,-0.043221, 0.035450,1,-0.000820, 0.003310, 0.021005,1, 0.000053,-0.003296,-0.996216,-0.000692, 0.002786, 0.021011, 0.116391, 0.246071,-0.111935,-0.000000, 0.000000,-0.000000,1,0
1777416176646028287,1015823000000,  1015.823, 0.000002,-0.000041,-0.009966, 0.000005, 0.000032, 0.000195,-0.546991,-0.084633, 0.023611,1,-0.000743, 0.002800, 0.020400,1,-0.000182,-0.004192,-0.996021,-0.000170, 0.003024, 0.019996, 0.116488, 0.246212,-0.112113,-0.000000, 0.000000,-0.000000,1,0
1777416176656112285,1015823000000,  1015.823, 0.000002,-0.000041,-0.009966, 0.000005, 0.000032, 0.000195,-0.546991,-0.084633, 0.023611,1,-0.000743, 0.002800, 0.020400,1,-0.000182,-0.004192,-0.996021,-0.000170, 0.003024, 0.019996, 0.116488, 0.246212,-0.112113,-0.000000, 0.000000,-0.000000,1,0
1777416176675844703,1015833000000,  1015.838, 0.000014,-0.000055,-0.009945,-0.000011, 0.000038, 0.000192,-0.537031,-0.090590, 0.028801,1,-0.000621, 0.003322, 0.019633,1, 0.000540,-0.004817,-0.995523,-0.000621, 0.003322, 0.019633, 0.116429, 0.246213,-0.112316,-0.000000, 0.000000,-0.000000,1,0
1777416176685540194,1015853000000,  1015.858, 0.000017,-0.000091,-0.009963,-0.000016, 0.000021, 0.000175,-0.530395,-0.119516, 0.023689,1,-0.001066, 0.003019, 0.018357,1, 0.001286,-0.007773,-0.996040,-0.001066, 0.003019, 0.018357, 0.116451, 0.246237,-0.112756,-0.000000, 0.000000,-0.000000,1,0
1777416176695624655,1015853000000,  1015.858, 0.000017,-0.000091,-0.009963,-0.000016, 0.000021, 0.000175,-0.530395,-0.119516, 0.023689,1,-0.001066, 0.003019, 0.018357,1, 0.001286,-0.007773,-0.996040,-0.001066, 0.003019, 0.018357, 0.116451, 0.246237,-0.112756,-0.000000, 0.000000,-0.000000,1,0
1777416176705303869,1015873000000,  1015.878, 0.000021, 0.000005,-0.009962,-0.000017, 0.000028, 0.000163,-0.526255,-0.068947, 0.023675,1,-0.001403, 0.002779, 0.017163,1, 0.001766,-0.002614,-0.996039,-0.001403, 0.002779, 0.017163, 0.116228, 0.246810,-0.111479,-0.000000, 0.000000,-0.000000,1,0
1777416176715388255,1015873000000,  1015.878, 0.000021, 0.000005,-0.009962,-0.000017, 0.000028, 0.000163,-0.526255,-0.068947, 0.023675,1,-0.001403, 0.002779, 0.017163,1, 0.001766,-0.002614,-0.996039,-0.001403, 0.002779, 0.017163, 0.116228, 0.246810,-0.111479,-0.000000, 0.000000,-0.000000,1,0
1777416176725036231,1015893000000,  1015.898, 0.000034,-0.000017,-0.009969,-0.000016, 0.000036, 0.000173,-0.517787,-0.058170, 0.022396,1,-0.001670, 0.003099, 0.017174,1, 0.002687,-0.001499,-0.996166,-0.001670, 0.003099, 0.017174, 0.116275, 0.246444,-0.111604,-0.000000, 0.000000,-0.000000,1,0
1777416176735120174,1015893000000,  1015.898, 0.000034,-0.000017,-0.009969,-0.000016, 0.000036, 0.000173,-0.517787,-0.058170, 0.022396,1,-0.001670, 0.003099, 0.017174,1, 0.002687,-0.001499,-0.996166,-0.001670, 0.003099, 0.017174, 0.116275, 0.246444,-0.111604,-0.000000, 0.000000,-0.000000,1,0
1777416176754803762,1015913000000,  1015.918, 0.000029, 0.000037,-0.009968,-0.000009, 0.000033, 0.000176,-0.517195,-0.029953, 0.022131,1,-0.001070, 0.003239, 0.017416,1, 0.002811, 0.001384,-0.996189,-0.001070, 0.003239, 0.017416, 0.116078, 0.246472,-0.111633,-0.000000, 0.000000,-0.000000,1,0
1777416176764480958,1015933000000,  1015.938, 0.000016, 0.000017,-0.009969,-0.000014, 0.000037, 0.000191,-0.524656,-0.020138, 0.020778,1,-0.001223, 0.003521, 0.018591,1, 0.002117, 0.002386,-0.996323,-0.001223, 0.003521, 0.018591, 0.116300, 0.246486,-0.112401,-0.000000, 0.000000,-0.000000,1,0
1777416176774581491,1015933000000,  1015.938, 0.000016, 0.000017,-0.009969,-0.000014, 0.000037, 0.000191,-0.524656,-0.020138, 0.020778,1,-0.001223, 0.003521, 0.018591,1, 0.002117, 0.002386,-0.996323,-0.001223, 0.003521, 0.018591, 0.116300, 0.246486,-0.112401,-0.000000, 0.000000,-0.000000,1,0
1777416176793853316,1015953000000,  1015.958, 0.000014,-0.000014,-0.009959,-0.000012, 0.000032, 0.000195,-0.529216,-0.047064, 0.023599,1,-0.001219, 0.003195, 0.019447,1, 0.001720,-0.000357,-0.996032,-0.001219, 0.003195, 0.019447, 0.116192, 0.246307,-0.112686,-0.000000, 0.000000,-0.000000,1,0
1777416176803542344,1015973000000,  1015.978,-0.000009,-0.000025,-0.009968,-0.000017, 0.000036, 0.000200,-0.543443,-0.058168, 0.023861,1,-0.001224, 0.003263, 0.019700,1, 0.000220,-0.001527,-0.996008,-0.001224, 0.003263, 0.019700, 0.116034, 0.246295,-0.113160,-0.000000, 0.000000,-0.000000,1,0
1777416176813625601,1015973000000,  1015.978,-0.000009,-0.000025,-0.009968,-0.000017, 0.000036, 0.000200,-0.543443,-0.058168, 0.023861,1,-0.001224, 0.003263, 0.019700,1, 0.000220,-0.001527,-0.996008,-0.001224, 0.003263, 0.019700, 0.116034, 0.246295,-0.113160,-0.000000, 0.000000,-0.000000,1,0
1777416176829148493,1015993000000,  1015.998,-0.000009,-0.000062,-0.009971,-0.000004, 0.000027, 0.000195,-0.551366,-0.088829, 0.019188,1,-0.001162, 0.003126, 0.019529,1,-0.000553,-0.004658,-0.996483,-0.001162, 0.003126, 0.019529, 0.116101, 0.246184,-0.111788,-0.000000, 0.000000,-0.000000,1,0
1777416176848925352,1016003000000,  1016.018,-0.000003,-0.000047,-0.009948,-0.000006, 0.000034, 0.000183,-0.552295,-0.085697, 0.030945,1,-0.001201, 0.003499, 0.018658,1,-0.000407,-0.004672,-0.995719,-0.001007, 0.003291, 0.018953, 0.116214, 0.246077,-0.112007,-0.000000, 0.000000,-0.000000,1,0
1777416176858662025,1016033000000,  1016.033,-0.000015,-0.000036,-0.009959,-0.000012, 0.000032, 0.000171,-0.558017,-0.083274, 0.025053,1,-0.001303, 0.003242, 0.017511,1,-0.001109,-0.004093,-0.995878,-0.001303, 0.003242, 0.017511, 0.116799, 0.246428,-0.111799,-0.000000, 0.000000,-0.000000,1,0
1777416176868749078,1016033000000,  1016.033,-0.000015,-0.000036,-0.009959,-0.000012, 0.000032, 0.000171,-0.558017,-0.083274, 0.025053,1,-0.001303, 0.003242, 0.017511,1,-0.001109,-0.004093,-0.995878,-0.001303, 0.003242, 0.017511, 0.116799, 0.246428,-0.111799,-0.000000, 0.000000,-0.000000,1,0
1777416176888053918,1016053000000,  1016.053, 0.000003, 0.000000,-0.009953,-0.000004, 0.000027, 0.000171,-0.555622,-0.068090, 0.024396,1,-0.000943, 0.003148, 0.017577,1,-0.000325,-0.001313,-0.995638,-0.000689, 0.002848, 0.017385, 0.116386, 0.246522,-0.112172,-0.000000, 0.000000,-0.000000,1,0
1777416176907809926,1016073000000,  1016.073, 0.000008, 0.000001,-0.009962,-0.000015, 0.000033, 0.000181,-0.547936,-0.049460, 0.024375,1,-0.001211, 0.003184, 0.017587,1, 0.000365,-0.000290,-0.996117,-0.001297, 0.003222, 0.017849, 0.116809, 0.246717,-0.112894,-0.000000, 0.000000,-0.000000,1,0
1777416176917508972,1016093000000,  1016.093, 0.000016, 0.000025,-0.009959,-0.000005, 0.000028, 0.000190,-0.544103,-0.035830, 0.025242,1,-0.001090, 0.003290, 0.018225,1, 0.001010, 0.001582,-0.995848,-0.000881, 0.003026, 0.018623, 0.116770, 0.246485,-0.112817,-0.000000, 0.000000,-0.000000,1,0
1777416176927594433,1016093000000,  1016.093, 0.000016, 0.000025,-0.009959,-0.000005, 0.000028, 0.000190,-0.544103,-0.035830, 0.025242,1,-0.001090, 0.003290, 0.018225,1, 0.001010, 0.001582,-0.995848,-0.000881, 0.003026, 0.018623, 0.116770, 0.246485,-0.112817,-0.000000, 0.000000,-0.000000,1,0
1777416176937323106,1016113000000,  1016.113, 0.000014,-0.000015,-0.009963,-0.000009, 0.000041, 0.000200,-0.538090,-0.030475, 0.026822,1,-0.000845, 0.003026, 0.019441,1, 0.001260,-0.000048,-0.995921,-0.000890, 0.003508, 0.019636, 0.116478, 0.246231,-0.111995,-0.000000, 0.000000,-0.000000,1,0
1777416176947407863,1016113000000,  1016.113, 0.000014,-0.000015,-0.009963,-0.000009, 0.000041, 0.000200,-0.538090,-0.030475, 0.026822,1,-0.000845, 0.003026, 0.019441,1, 0.001260,-0.000048,-0.995921,-0.000890, 0.003508, 0.019636, 0.116478, 0.246231,-0.111995,-0.000000, 0.000000,-0.000000,1,0
1777416176967006403,1016133000000,  1016.133, 0.000011,-0.000029,-0.009965,-0.000008, 0.000024, 0.000196,-0.537692,-0.053480, 0.023496,1,-0.000863, 0.003202, 0.019624,1, 0.001181,-0.001887,-0.996245,-0.000882, 0.002868, 0.019658, 0.116121, 0.246499,-0.111506,-0.000000, 0.000000,-0.000000,1,0
1777416176986756171,1016153000000,  1016.153, 0.000009,-0.000044,-0.009958,-0.000008, 0.000031, 0.000196,-0.539575,-0.063842, 0.023102,1,-0.001055, 0.002949, 0.019700,1, 0.001032,-0.003174,-0.995952,-0.000926, 0.003023, 0.019630, 0.115936, 0.246086,-0.112249,-0.000000, 0.000000,-0.000000,1,0
1777416176996445718,1016173000000,  1016.173, 0.000013,-0.000053,-0.009960,-0.000003, 0.000029, 0.000187,-0.540039,-0.087191, 0.023065,1,-0.001060, 0.002852, 0.019365,1, 0.001198,-0.004880,-0.996050,-0.000716, 0.002880, 0.019018, 0.116122, 0.245769,-0.112862,-0.000000, 0.000000,-0.000000,1,0
1777416177006530438,1016173000000,  1016.173, 0.000013,-0.000053,-0.009960,-0.000003, 0.000029, 0.000187,-0.540039,-0.087191, 0.023065,1,-0.001060, 0.002852, 0.019365,1, 0.001198,-0.004880,-0.996050,-0.000716, 0.002880, 0.019018, 0.116122, 0.245769,-0.112862,-0.000000, 0.000000,-0.000000,1,0
1777416177016181730,1016193000000,  1016.193, 0.000007,-0.000024,-0.009963,-0.000018, 0.000030, 0.000180,-0.537579,-0.084344, 0.024055,1,-0.001283, 0.003034, 0.018322,1, 0.001009,-0.003402,-0.996103,-0.001500, 0.003080, 0.018216, 0.116102, 0.245757,-0.113295,-0.000000, 0.000000,-0.000000,1,0
1777416177026265952,1016193000000,  1016.193, 0.000007,-0.000024,-0.009963,-0.000018, 0.000030, 0.000180,-0.537579,-0.084344, 0.024055,1,-0.001283, 0.003034, 0.018322,1, 0.001009,-0.003402,-0.996103,-0.001500, 0.003080, 0.018216, 0.116102, 0.245757,-0.113295,-0.000000, 0.000000,-0.000000,1,0
1777416177045949210,1016203000000,  1016.208, 0.000005,-0.000029,-0.009956,-0.000012, 0.000033, 0.000179,-0.543050,-0.073611, 0.024754,1,-0.001373, 0.003164, 0.018095,1, 0.000795,-0.003167,-0.995887,-0.001373, 0.003164, 0.018095, 0.116220, 0.245585,-0.113111,-0.000000, 0.000000,-0.000000,1,0
1777416177055642665,1016223000000,  1016.228, 0.000013, 0.000001,-0.009948,-0.000012, 0.000026, 0.000176,-0.540829,-0.056338, 0.029939,1,-0.001241, 0.002838, 0.017735,1, 0.001078,-0.001404,-0.995356,-0.001241, 0.002838, 0.017735, 0.116623, 0.245946,-0.113165,-0.000000, 0.000000,-0.000000,1,0
1777416177065728035,1016223000000,  1016.228, 0.000013, 0.000001,-0.009948,-0.000012, 0.000026, 0.000176,-0.540829,-0.056338, 0.029939,1,-0.001241, 0.002838, 0.017735,1, 0.001078,-0.001404,-0.995356,-0.001241, 0.002838, 0.017735, 0.116623, 0.245946,-0.113165,-0.000000, 0.000000,-0.000000,1,0
1777416177075395381,1016243000000,  1016.248, 0.000008, 0.000013,-0.009959,-0.000014, 0.000044, 0.000189,-0.542882,-0.037551, 0.027427,1,-0.001505, 0.003493, 0.018390,1, 0.000928, 0.000521,-0.995608,-0.001505, 0.003493, 0.018390, 0.116741, 0.246187,-0.112318,-0.000000, 0.000000,-0.000000,1,0
1777416177085479861,1016243000000,  1016.248, 0.000008, 0.000013,-0.009959,-0.000014, 0.000044, 0.000189,-0.542882,-0.037551, 0.027427,1,-0.001505, 0.003493, 0.018390,1, 0.000928, 0.000521,-0.995608,-0.001505, 0.003493, 0.018390, 0.116741, 0.246187,-0.112318,-0.000000, 0.000000,-0.000000,1,0
1777416177095122728,1016263000000,  1016.268, 0.000010, 0.000007,-0.009960,-0.000009, 0.000027, 0.000192,-0.544456,-0.038046, 0.026065,1,-0.001167, 0.003058, 0.018961,1, 0.000836, 0.000477,-0.995743,-0.001167, 0.003058, 0.018961, 0.116507, 0.246366,-0.112077,-0.000000, 0.000000,-0.000000,1,0
1777416177105207190,1016263000000,  1016.268, 0.000010, 0.000007,-0.009960,-0.000009, 0.000027, 0.000192,-0.544456,-0.038046, 0.026065,1,-0.001167, 0.003058, 0.018961,1, 0.000836, 0.000477,-0.995743,-0.001167, 0.003058, 0.018961, 0.116507, 0.246366,-0.112077,-0.000000, 0.000000,-0.000000,1,0
1777416177124938723,1016283000000,  1016.288, 0.000005,-0.000007,-0.009956,-0.000014, 0.000030, 0.000191,-0.546917,-0.043613, 0.026267,1,-0.001484, 0.002870, 0.019156,1, 0.000643,-0.000085,-0.995719,-0.001484, 0.002870, 0.019156, 0.116140, 0.246708,-0.111722,-0.000000, 0.000000,-0.000000,1,0
1777416177134582848,1016303000000,  1016.308,-0.000006,-0.000022,-0.009956,-0.000011, 0.000030, 0.000196,-0.554837,-0.058314, 0.025272,1,-0.001156, 0.003196, 0.019497,1,-0.000100,-0.001581,-0.995817,-0.001156, 0.003196, 0.019497, 0.116366, 0.246665,-0.111795,-0.000000, 0.000000,-0.000000,1,0
1777416177144668181,1016303000000,  1016.308,-0.000006,-0.000022,-0.009956,-0.000011, 0.000030, 0.000196,-0.554837,-0.058314, 0.025272,1,-0.001156, 0.003196, 0.019497,1,-0.000100,-0.001581,-0.995817,-0.001156, 0.003196, 0.019497, 0.116366, 0.246665,-0.111795,-0.000000, 0.000000,-0.000000,1,0
1777416177154335675,1016323000000,  1016.328,-0.000002,-0.000036,-0.009956,-0.000017, 0.000038, 0.000187,-0.555970,-0.071948, 0.026225,1,-0.001418, 0.003509, 0.019110,1,-0.000149,-0.002971,-0.995716,-0.001418, 0.003509, 0.019110, 0.116444, 0.246521,-0.112424,-0.000000, 0.000000,-0.000000,1,0
1777416177164419156,1016323000000,  1016.328,-0.000002,-0.000036,-0.009956,-0.000017, 0.000038, 0.000187,-0.555970,-0.071948, 0.026225,1,-0.001418, 0.003509, 0.019110,1,-0.000149,-0.002971,-0.995716,-0.001418, 0.003509, 0.019110, 0.116444, 0.246521,-0.112424,-0.000000, 0.000000,-0.000000,1,0
1777416177174047950,1016343000000,  1016.348, 0.000023,-0.000042,-0.010004,-0.000006, 0.000048, 0.000182,-0.557123,-0.077738, 0.025817,1,-0.001336, 0.002994, 0.018954,1, 0.001115,-0.003891,-0.998010,-0.000934, 0.003806, 0.018645, 0.116465, 0.246163,-0.112734,-0.000000, 0.000000,-0.000000,1,0
1777416177184132227,1016343000000,  1016.348, 0.000023,-0.000042,-0.010004,-0.000006, 0.000048, 0.000182,-0.557123,-0.077738, 0.025817,1,-0.001336, 0.002994, 0.018954,1, 0.001115,-0.003891,-0.998010,-0.000934, 0.003806, 0.018645, 0.116465, 0.246163,-0.112734,-0.000000, 0.000000,-0.000000,1,0
1777416177203873888,1016363000000,  1016.368, 0.000076,-0.000034,-0.010057,-0.000009, 0.000025, 0.000183,-0.521492,-0.074311, 0.011055,1,-0.000926, 0.003238, 0.018279,1, 0.003434,-0.003231,-0.997260,-0.000926, 0.003238, 0.018279, 0.115962, 0.245887,-0.112317,-0.000000, 0.000000,-0.000000,1,0
1777416177213524402,1016383000000,  1016.388, 0.000069,-0.000008,-0.009852,-0.000011, 0.000022, 0.000182,-0.495953,-0.057251, 0.074632,1,-0.000958, 0.003993, 0.018103,1, 0.006055,-0.001517,-0.990776,-0.000958, 0.003993, 0.018103, 0.116371, 0.245775,-0.112064,-0.000000, 0.000000,-0.000000,1,0
1777416177223608123,1016383000000,  1016.388, 0.000069,-0.000008,-0.009852,-0.000011, 0.000022, 0.000182,-0.495953,-0.057251, 0.074632,1,-0.000958, 0.003993, 0.018103,1, 0.006055,-0.001517,-0.990776,-0.000958, 0.003993, 0.018103, 0.116371, 0.245775,-0.112064,-0.000000, 0.000000,-0.000000,1,0
1777416177239158960,1016403000000,  1016.408, 0.000033, 0.000071,-0.009751,-0.000013, 0.000009, 0.000195,-0.509206, 0.005805, 0.090991,1,-0.001154, 0.002102, 0.018776,1, 0.004746, 0.004902,-0.989105,-0.001155, 0.002102, 0.018776, 0.116457, 0.246124,-0.111928,-0.000000, 0.000000,-0.000000,1,0
1777416177258903472,1016423000000,  1016.428,-0.000053,-0.000184,-0.009878,-0.000021, 0.000050, 0.000198,-0.578860,-0.123412, 0.041226,1,-0.002249, 0.003620, 0.019859,1,-0.002309,-0.008258,-0.994177,-0.002249, 0.003620, 0.019859, 0.116733, 0.246098,-0.112820,-0.000000, 0.000000,-0.000000,1,0
1777416177268586910,1016443000000,  1016.443,-0.000066,-0.000159,-0.009884,-0.000014, 0.000032, 0.000139,-0.612686,-0.180955, 0.036866,1,-0.001898, 0.003303, 0.016197,1,-0.005689,-0.014108,-0.994617,-0.001898, 0.003303, 0.016197, 0.116245, 0.246010,-0.112631,-0.000000, 0.000000,-0.000000,1,0
1777416177278669872,1016443000000,  1016.443,-0.000066,-0.000159,-0.009884,-0.000014, 0.000032, 0.000139,-0.612686,-0.180955, 0.036866,1,-0.001898, 0.003303, 0.016197,1,-0.005689,-0.014108,-0.994617,-0.001898, 0.003303, 0.016197, 0.116245, 0.246010,-0.112631,-0.000000, 0.000000,-0.000000,1,0
1777416177288009522,1016463000000,  1016.463,-0.000068,-0.000182,-0.009960,-0.000039, 0.000062, 0.000109,-0.623004,-0.169585, 0.028452,1,-0.002688, 0.003484, 0.014567,1,-0.006554,-0.015452,-0.996313,-0.003304, 0.004683, 0.012872, 0.116359, 0.246082,-0.112668,-0.000000, 0.000000,-0.000000,1,0
1777416177298112482,1016463000000,  1016.463,-0.000068,-0.000182,-0.009960,-0.000039, 0.000062, 0.000109,-0.623004,-0.169585, 0.028452,1,-0.002688, 0.003484, 0.014567,1,-0.006554,-0.015452,-0.996313,-0.003304, 0.004683, 0.012872, 0.116359, 0.246082,-0.112668,-0.000000, 0.000000,-0.000000,1,0
1777416177317809795,1016483000000,  1016.483,-0.000016,-0.000025,-0.009935,-0.000025, 0.000024, 0.000082,-0.617055,-0.185835, 0.005747,1,-0.002991, 0.004253, 0.011278,1,-0.003920,-0.008504,-0.995972,-0.002773, 0.003452, 0.009844, 0.116525, 0.246397,-0.111801,-0.000000, 0.000000,-0.000000,1,0
1777416177327494992,1016503000000,  1016.503, 0.000107, 0.000165,-0.009904,-0.000015, 0.000061, 0.000119,-0.552638,-0.028980, 0.014498,1,-0.001690, 0.004286, 0.009279,1, 0.005247, 0.008308,-0.994193,-0.001601, 0.005123, 0.010558, 0.116713, 0.246257,-0.111891,-0.000000, 0.000000,-0.000000,1,0
1777416177337578176,1016503000000,  1016.503, 0.000107, 0.000165,-0.009904,-0.000015, 0.000061, 0.000119,-0.552638,-0.028980, 0.014498,1,-0.001690, 0.004286, 0.009279,1, 0.005247, 0.008308,-0.994193,-0.001601, 0.005123, 0.010558, 0.116713, 0.246257,-0.111891,-0.000000, 0.000000,-0.000000,1,0
1777416177347223469,1016523000000,  1016.523, 0.000105, 0.000221,-0.009998,-0.000016, 0.000000, 0.000158,-0.478310, 0.054362, 0.038905,1,-0.001881, 0.004485, 0.012017,1, 0.009337, 0.015833,-0.997016,-0.001688, 0.002394, 0.013828, 0.116421, 0.246508,-0.112105,-0.000000, 0.000000,-0.000000,1,0
1777416177357307172,1016523000000,  1016.523, 0.000105, 0.000221,-0.009998,-0.000016, 0.000000, 0.000158,-0.478310, 0.054362, 0.038905,1,-0.001881, 0.004485, 0.012017,1, 0.009337, 0.015833,-0.997016,-0.001688, 0.002394, 0.013828, 0.116421, 0.246508,-0.112105,-0.000000, 0.000000,-0.000000,1,0
1777416177377023594,1016543000000,  1016.543, 0.000054, 0.000411,-0.010035, 0.000001, 0.000009, 0.000257,-0.476122, 0.205222, 0.055034,1,-0.000948, 0.000798, 0.016721,1, 0.007119, 0.032450,-0.997885,-0.000441, 0.000864, 0.020977, 0.116515, 0.246108,-0.112216,-0.000000, 0.000000,-0.000000,1,0
1777416177396742312,1016563000000,  1016.563, 0.000026, 0.000141,-0.009982, 0.000021, 0.000049, 0.000359,-0.508833, 0.259459, 0.040181,1, 0.000555, 0.002341, 0.026062,1, 0.004096, 0.022931,-0.996207, 0.001294, 0.003544, 0.030632, 0.116011, 0.245827,-0.112922,-0.000000, 0.000000,-0.000000,1,0
1777416177406430138,1016583000000,  1016.583, 0.000009,-0.000062,-0.009961, 0.000032, 0.000062, 0.000367,-0.532964, 0.087133, 0.023167,1, 0.002123, 0.004499, 0.033748,1, 0.002032, 0.004200,-0.995997, 0.002605, 0.005317, 0.035077, 0.116029, 0.246171,-0.112422,-0.000000, 0.000000,-0.000000,1,0
1777416177416513953,1016583000000,  1016.583, 0.000009,-0.000062,-0.009961, 0.000032, 0.000062, 0.000367,-0.532964, 0.087133, 0.023167,1, 0.002123, 0.004499, 0.033748,1, 0.002032, 0.004200,-0.995997, 0.002605, 0.005317, 0.035077, 0.116029, 0.246171,-0.112422,-0.000000, 0.000000,-0.000000,1,0
1777416177426173799,1016603000000,  1016.603,-0.000028,-0.000265,-0.009973, 0.000026, 0.000036, 0.000337,-0.552297,-0.089619, 0.020411,1, 0.002481, 0.005273, 0.035350,1,-0.000996,-0.015169,-0.996122, 0.002480, 0.004584, 0.034529, 0.116274, 0.245847,-0.111820,-0.000000, 0.000000,-0.000000,1,0
1777416177436257632,1016603000000,  1016.603,-0.000028,-0.000265,-0.009973, 0.000026, 0.000036, 0.000337,-0.552297,-0.089619, 0.020411,1, 0.002481, 0.005273, 0.035350,1,-0.000996,-0.015169,-0.996122, 0.002480, 0.004584, 0.034529, 0.116274, 0.245847,-0.111820,-0.000000, 0.000000,-0.000000,1,0
1777416177455954167,1016613000000,  1016.618,-0.000019,-0.000346,-0.009931, 0.000022, 0.000039, 0.000292,-0.575421,-0.278847, 0.030677,1, 0.002356, 0.004189, 0.031989,1,-0.001438,-0.024279,-0.995224, 0.002356, 0.004189, 0.031989, 0.116469, 0.246111,-0.111961,-0.000000, 0.000000,-0.000000,1,0
1777416177465648085,1016633000000,  1016.638,-0.000039,-0.000363,-0.009955,-0.000016, 0.000025, 0.000195,-0.594379,-0.361162, 0.025450,1, 0.000041, 0.002925, 0.024019,1,-0.003307,-0.032732,-0.995753, 0.000041, 0.002925, 0.024019, 0.116452, 0.246291,-0.111816,-0.000000, 0.000000,-0.000000,1,0
1777416177475749083,1016633000000,  1016.638,-0.000039,-0.000363,-0.009955,-0.000016, 0.000025, 0.000195,-0.594379,-0.361162, 0.025450,1, 0.000041, 0.002925, 0.024019,1,-0.003307,-0.032732,-0.995753, 0.000041, 0.002925, 0.024019, 0.116452, 0.246291,-0.111816,-0.000000, 0.000000,-0.000000,1,0
1777416177485391894,1016653000000,  1016.658,-0.000048,-0.000263,-0.009856,-0.000040, 0.000003, 0.000109,-0.599754,-0.326209, 0.066630,1,-0.002523, 0.002487, 0.015477,1,-0.003797,-0.029167,-0.991551,-0.002523, 0.002487, 0.015477, 0.116805, 0.246112,-0.112277,-0.000000, 0.000000,-0.000000,1,0
1777416177495476023,1016653000000,  1016.658,-0.000048,-0.000263,-0.009856,-0.000040, 0.000003, 0.000109,-0.599754,-0.326209, 0.066630,1,-0.002523, 0.002487, 0.015477,1,-0.003797,-0.029167,-0.991551,-0.002523, 0.002487, 0.015477, 0.116805, 0.246112,-0.112277,-0.000000, 0.000000,-0.000000,1,0
1777416177505132833,1016673000000,  1016.678,-0.000060,-0.000106,-0.009850,-0.000048, 0.000019, 0.000040,-0.606166,-0.220361, 0.043735,1,-0.004062, 0.001415, 0.007980,1,-0.004422,-0.018319,-0.993883,-0.004062, 0.001415, 0.007980, 0.116806, 0.246283,-0.112347,-0.000000, 0.000000,-0.000000,1,0
1777416177515216221,1016673000000,  1016.678,-0.000060,-0.000106,-0.009850,-0.000048, 0.000019, 0.000040,-0.606166,-0.220361, 0.043735,1,-0.004062, 0.001415, 0.007980,1,-0.004422,-0.018319,-0.993883,-0.004062, 0.001415, 0.007980, 0.116806, 0.246283,-0.112347,-0.000000, 0.000000,-0.000000,1,0
1777416177534941643,1016693000000,  1016.698,-0.000038, 0.000172,-0.009954,-0.000037, 0.000026, 0.000045,-0.599463,-0.008860, 0.009769,1,-0.003966, 0.001908, 0.005301,1,-0.003710, 0.003325,-0.997345,-0.003966, 0.001908, 0.005301, 0.116465, 0.246687,-0.112552,-0.000000, 0.000000,-0.000000,1,0
1777416177544609656,1016713000000,  1016.718,-0.000014, 0.000269,-0.010046,-0.000024, 0.000045, 0.000135,-0.588825, 0.146584,-0.009732,1,-0.002850, 0.003190, 0.010183,1,-0.002578, 0.019234,-0.999331,-0.002850, 0.003190, 0.010182, 0.116711, 0.246728,-0.112348,-0.000000, 0.000000,-0.000000,1,0
1777416177554692914,1016713000000,  1016.718,-0.000014, 0.000269,-0.010046,-0.000024, 0.000045, 0.000135,-0.588825, 0.146584,-0.009732,1,-0.002850, 0.003190, 0.010183,1,-0.002578, 0.019234,-0.999331,-0.002850, 0.003190, 0.010182, 0.116711, 0.246728,-0.112348,-0.000000, 0.000000,-0.000000,1,0
1777416177564365260,1016733000000,  1016.738, 0.000029, 0.000264,-0.010032,-0.000006, 0.000026, 0.000217,-0.558489, 0.194290, 0.001981,1,-0.001102, 0.002729, 0.017588,1, 0.000576, 0.024118,-0.998133,-0.001102, 0.002729, 0.017588, 0.116177, 0.246922,-0.111992,-0.000000, 0.000000,-0.000000,1,0
1777416177574448796,1016733000000,  1016.738, 0.000029, 0.000264,-0.010032,-0.000006, 0.000026, 0.000217,-0.558489, 0.194290, 0.001981,1,-0.001102, 0.002729, 0.017588,1, 0.000576, 0.024118,-0.998133,-0.001102, 0.002729, 0.017588, 0.116177, 0.246922,-0.111992,-0.000000, 0.000000,-0.000000,1,0
1777416177584069794,1016753000000,  1016.758, 0.000023, 0.000178,-0.010013, 0.000003, 0.000023, 0.000286,-0.547479, 0.159860, 0.016342,1,-0.000219, 0.002525, 0.024544,1, 0.001754, 0.020595,-0.996665,-0.000219, 0.002525, 0.024544, 0.116042, 0.246647,-0.112044,-0.000000, 0.000000,-0.000000,1,0
1777416177594152960,1016753000000,  1016.758, 0.000023, 0.000178,-0.010013, 0.000003, 0.000023, 0.000286,-0.547479, 0.159860, 0.016342,1,-0.000219, 0.002525, 0.024544,1, 0.001754, 0.020595,-0.996665,-0.000219, 0.002525, 0.024544, 0.116042, 0.246647,-0.112044,-0.000000, 0.000000,-0.000000,1,0
1777416177613889733,1016773000000,  1016.778, 0.000040,-0.000008,-0.009939, 0.000012, 0.000037, 0.000316,-0.530944, 0.033480, 0.033811,1, 0.000857, 0.003731, 0.029253,1, 0.003378, 0.007629,-0.994888, 0.000857, 0.003731, 0.029253, 0.116275, 0.246138,-0.112248,-0.000000, 0.000000,-0.000000,1,0
1777416177623564986,1016793000000,  1016.798, 0.000016,-0.000277,-0.009902,-0.000013, 0.000034, 0.000284,-0.522803,-0.181433, 0.038232,1, 0.000163, 0.003605, 0.029181,1, 0.004243,-0.014354,-0.994435, 0.000163, 0.003605, 0.029181, 0.116383, 0.246047,-0.113120,-0.000000, 0.000000,-0.000000,1,0
1777416177633664502,1016793000000,  1016.798, 0.000016,-0.000277,-0.009902,-0.000013, 0.000034, 0.000284,-0.522803,-0.181433, 0.038232,1, 0.000163, 0.003605, 0.029181,1, 0.004243,-0.014354,-0.994435, 0.000163, 0.003605, 0.029181, 0.116383, 0.246047,-0.113120,-0.000000, 0.000000,-0.000000,1,0
1777416177649170565,1016813000000,  1016.818,-0.000043,-0.000150,-0.009950, 0.000002,-0.000022, 0.000195,-0.577749,-0.219142, 0.016589,1, 0.000296,-0.000192, 0.023417,1,-0.001343,-0.018238,-0.996641, 0.000296,-0.000192, 0.023417, 0.116730, 0.245781,-0.113211,-0.000000, 0.000000,-0.000000,1,0
1777416177668919225,1016833000000,  1016.838,-0.000007, 0.000058,-0.009932,-0.000009, 0.000067, 0.000214,-0.580613,-0.062507, 0.031414,1,-0.000027, 0.003247, 0.021607,1,-0.001611,-0.002301,-0.995128,-0.000027, 0.003247, 0.021607, 0.116180, 0.246293,-0.112674,-0.000000, 0.000000,-0.000000,1,0
1777416177678598978,1016853000000,  1016.853, 0.000046,-0.000144,-0.009891,-0.000010, 0.000064, 0.000223,-0.535330,-0.122885, 0.041126,1,-0.000353, 0.006675, 0.022114,1, 0.003133,-0.008489,-0.994131,-0.000353, 0.006675, 0.022114, 0.116210, 0.246148,-0.112060,-0.000000, 0.000000,-0.000000,1,0
1777416177688682014,1016853000000,  1016.853, 0.000046,-0.000144,-0.009891,-0.000010, 0.000064, 0.000223,-0.535330,-0.122885, 0.041126,1,-0.000353, 0.006675, 0.022114,1, 0.003133,-0.008489,-0.994131,-0.000353, 0.006675, 0.022114, 0.116210, 0.246148,-0.112060,-0.000000, 0.000000,-0.000000,1,0
1777416177698374525,1016873000000,  1016.873, 0.000045,-0.000129,-0.009841,-0.000010, 0.000132, 0.000184,-0.523462,-0.157132, 0.056907,1,-0.000741, 0.010385, 0.019821,1, 0.004505,-0.011995,-0.992512,-0.000741, 0.010385, 0.019821, 0.116108, 0.246869,-0.112103,-0.000000, 0.000000,-0.000000,1,0
1777416177708458802,1016873000000,  1016.873, 0.000045,-0.000129,-0.009841,-0.000010, 0.000132, 0.000184,-0.523462,-0.157132, 0.056907,1,-0.000741, 0.010385, 0.019821,1, 0.004505,-0.011995,-0.992512,-0.000741, 0.010385, 0.019821, 0.116108, 0.246869,-0.112103,-0.000000, 0.000000,-0.000000,1,0
1777416177727807882,1016893000000,  1016.893, 0.000064,-0.000088,-0.009889, 0.000022, 0.000311, 0.000173,-0.513083,-0.149500,-0.021604,1, 0.000306, 0.016561, 0.018800,1, 0.006147,-0.010041,-0.995523, 0.001158, 0.023309, 0.018103, 0.116660, 0.246821,-0.112095,-0.000000, 0.000000,-0.000000,1,0
1777416177737485395,1016913000000,  1016.913, 0.000139, 0.000003,-0.009898, 0.000040, 0.000475, 0.000173,-0.487607,-0.118122, 0.013465,1, 0.004039, 0.031826, 0.017903,1, 0.011397,-0.003679,-0.993929, 0.004097, 0.039127, 0.017619, 0.116045, 0.246486,-0.112771,-0.000000, 0.000000,-0.000000,1,0
1777416177747569505,1016913000000,  1016.913, 0.000139, 0.000003,-0.009898, 0.000040, 0.000475, 0.000173,-0.487607,-0.118122, 0.013465,1, 0.004039, 0.031826, 0.017903,1, 0.011397,-0.003679,-0.993929, 0.004097, 0.039127, 0.017619, 0.116045, 0.246486,-0.112771,-0.000000, 0.000000,-0.000000,1,0
1777416177757250387,1016933000000,  1016.933, 0.000198, 0.000062,-0.010036, 0.000008, 0.000151, 0.000209,-0.458987,-0.021881, 0.053241,1, 0.002753, 0.035520, 0.018196,1, 0.015873, 0.003492,-0.997462, 0.001994, 0.025169, 0.019436, 0.116263, 0.246410,-0.112732,-0.000000, 0.000000,-0.000000,1,0
1777416177767334886,1016933000000,  1016.933, 0.000198, 0.000062,-0.010036, 0.000008, 0.000151, 0.000209,-0.458987,-0.021881, 0.053241,1, 0.002753, 0.035520, 0.018196,1, 0.015873, 0.003492,-0.997462, 0.001994, 0.025169, 0.019436, 0.116263, 0.246410,-0.112732,-0.000000, 0.000000,-0.000000,1,0
1777416177787033199,1016953000000,  1016.953, 0.001058, 0.001004,-0.009697, 0.000256,-0.000521, 0.000120,-0.146196,-0.395892, 0.039512,1,-0.006634,-0.005822, 0.019385,1, 0.074172, 0.029967,-0.995150, 0.011487,-0.027275, 0.016717, 0.115970, 0.246190,-0.112116,-0.000000, 0.000000,-0.000000,1,0
1777416177806327968,1016973000000,  1016.973, 0.000574, 0.000800,-0.009031,-0.000292, 0.000130, 0.000544, 0.236309, 0.715779, 0.088938,1, 0.021327,-0.023893, 0.023499,1, 0.069788, 0.082675,-0.956210,-0.001969,-0.008283, 0.037636, 0.115876, 0.245880,-0.111828,-0.000000, 0.000000,-0.000000,1,0
1777416177816007295,1016993000000,  1016.993, 0.000430,-0.000192,-0.009598, 0.000057, 0.000297, 0.000673,-0.224097, 0.471000,-0.313687,1, 0.005171,-0.006820, 0.052609,1, 0.039964, 0.019994,-1.004363, 0.005384, 0.009287, 0.059402, 0.116237, 0.246532,-0.111497,-0.000000, 0.000000,-0.000000,1,0
1777416177826091702,1016993000000,  1016.993, 0.000430,-0.000192,-0.009598, 0.000057, 0.000297, 0.000673,-0.224097, 0.471000,-0.313687,1, 0.005171,-0.006820, 0.052609,1, 0.039964, 0.019994,-1.004363, 0.005384, 0.009287, 0.059402, 0.116237, 0.246532,-0.111497,-0.000000, 0.000000,-0.000000,1,0
1777416177845830548,1017003000000,  1017.008, 0.000310,-0.000503,-0.009675,-0.000102,-0.000123, 0.000707,-0.251860,-0.178735, 0.164186,1,-0.001818,-0.001006, 0.064673,1, 0.033151,-0.014779,-0.981519,-0.001818,-0.001006, 0.064673, 0.116767, 0.246326,-0.111594,-0.000000, 0.000000,-0.000000,1,0
1777416177855527985,1017023000000,  1017.028, 0.000471,-0.001305,-0.009371, 0.000043, 0.000162, 0.000404,-0.200259,-0.882407, 0.205677,1,-0.000289, 0.009732, 0.051307,1, 0.038502,-0.086542,-0.977283,-0.000289, 0.009733, 0.051307, 0.117014, 0.246261,-0.111680,-0.000000, 0.000000,-0.000000,1,0
1777416177865618243,1017023000000,  1017.028, 0.000471,-0.001305,-0.009371, 0.000043, 0.000162, 0.000404,-0.200259,-0.882407, 0.205677,1,-0.000289, 0.009732, 0.051307,1, 0.038502,-0.086542,-0.977283,-0.000289, 0.009733, 0.051307, 0.117014, 0.246261,-0.111680,-0.000000, 0.000000,-0.000000,1,0
1777416177875226427,1017043000000,  1017.048, 0.000653,-0.000839,-0.009972,-0.000029, 0.000032, 0.000114,-0.021810,-0.900401,-0.032645,1,-0.005747, 0.000695, 0.026196,1, 0.056727,-0.088290,-1.001583,-0.005747, 0.000695, 0.026196, 0.116838, 0.246718,-0.111725,-0.000000, 0.000000,-0.000000,1,0
1777416177885309482,1017043000000,  1017.048, 0.000653,-0.000839,-0.009972,-0.000029, 0.000032, 0.000114,-0.021810,-0.900401,-0.032645,1,-0.005747, 0.000695, 0.026196,1, 0.056727,-0.088290,-1.001583,-0.005747, 0.000695, 0.026196, 0.116838, 0.246718,-0.111725,-0.000000, 0.000000,-0.000000,1,0
1777416177905041310,1017063000000,  1017.068, 0.000840,-0.000337,-0.010235,-0.000094, 0.000128,-0.000041, 0.114671,-0.560057,-0.026634,1,-0.010541, 0.006374, 0.005910,1, 0.070681,-0.053389,-1.000968,-0.010541, 0.006374, 0.005910, 0.117028, 0.246827,-0.111697,-0.000000, 0.000000,-0.000000,1,0
1777416177924783805,1017083000000,  1017.088, 0.000959,-0.000655,-0.010132,-0.000187,-0.000068,-0.000202, 0.295566,-0.640526,-0.004410,1,-0.016812,-0.000638,-0.010253,1, 0.089191,-0.061298,-0.998697,-0.016812,-0.000638,-0.010253, 0.116527, 0.246751,-0.111069,-0.000000, 0.000000,-0.000000,1,0
1777416177934464224,1017103000000,  1017.108, 0.001346,-0.000444,-0.010057,-0.000169,-0.000027,-0.000387, 0.572058,-0.536512,-0.005512,1,-0.016219,-0.000476,-0.028674,1, 0.117400,-0.050359,-0.998807,-0.016219,-0.000476,-0.028674, 0.116540, 0.246522,-0.110899,-0.000000, 0.000000,-0.000000,1,0
1777416177944548186,1017103000000,  1017.108, 0.001346,-0.000444,-0.010057,-0.000169,-0.000027,-0.000387, 0.572058,-0.536512,-0.005512,1,-0.016219,-0.000476,-0.028674,1, 0.117400,-0.050359,-0.998807,-0.016219,-0.000476,-0.028674, 0.116540, 0.246522,-0.110899,-0.000000, 0.000000,-0.000000,1,0
1777416177954179461,1017123000000,  1017.128, 0.001581,-0.000364,-0.010023,-0.000112,-0.000031,-0.000509, 0.817948,-0.405355, 0.001219,1,-0.012908,-0.003377,-0.042878,1, 0.142415,-0.036654,-0.998122,-0.012909,-0.003376,-0.042878, 0.116535, 0.246575,-0.110892,-0.000000, 0.000000,-0.000000,1,0
1777416177964331214,1017123000000,  1017.128, 0.001581,-0.000364,-0.010023,-0.000112,-0.000031,-0.000509, 0.817948,-0.405355, 0.001219,1,-0.012908,-0.003377,-0.042878,1, 0.142415,-0.036654,-0.998122,-0.012909,-0.003376,-0.042878, 0.116535, 0.246575,-0.110892,-0.000000, 0.000000,-0.000000,1,0
1777416177983972161,1017143000000,  1017.148, 0.001844,-0.000491,-0.010155,-0.000005,-0.000046,-0.000653, 1.064544,-0.417771,-0.028763,1,-0.004315,-0.003462,-0.057038,1, 0.167496,-0.037683,-1.001182,-0.004315,-0.003462,-0.057038, 0.116301, 0.246247,-0.111701,-0.000000, 0.000000,-0.000000,1,0
1777416177993650192,1017163000000,  1017.168, 0.002033, 0.000100,-0.010569, 0.000067,-0.000046,-0.000846, 1.275408,-0.212941,-0.117505,1, 0.003821,-0.004218,-0.074561,1, 0.188965,-0.016825,-1.010233, 0.003821,-0.004218,-0.074561, 0.116176, 0.245701,-0.111840,-0.000000, 0.000000,-0.000000,1,0
1777416178003751097,1017163000000,  1017.168, 0.002033, 0.000100,-0.010569, 0.000067,-0.000046,-0.000846, 1.275408,-0.212941,-0.117505,1, 0.003821,-0.004218,-0.074561,1, 0.188965,-0.016825,-1.010233, 0.003821,-0.004218,-0.074561, 0.116176, 0.245701,-0.111840,-0.000000, 0.000000,-0.000000,1,0
1777416178013390280,1017183000000,  1017.188, 0.002167, 0.000620,-0.010333, 0.000028,-0.000112,-0.000782, 1.463716, 0.229801,-0.101933,1, 0.003501,-0.006364,-0.077244,1, 0.208113, 0.028226,-1.008649, 0.003501,-0.006364,-0.077244, 0.116038, 0.245778,-0.111327,-0.000000, 0.000000,-0.000000,1,0
1777416178023474411,1017183000000,  1017.188, 0.002167, 0.000620,-0.010333, 0.000028,-0.000112,-0.000782, 1.463716, 0.229801,-0.101933,1, 0.003501,-0.006364,-0.077244,1, 0.208113, 0.028226,-1.008649, 0.003501,-0.006364,-0.077244, 0.116038, 0.245778,-0.111327,-0.000000, 0.000000,-0.000000,1,0
1777416178039019250,1017203000000,  1017.208, 0.002215, 0.000218,-0.010013,-0.000042, 0.000016,-0.000641, 1.652524, 0.177861, 0.019788,1, 0.000151,-0.002133,-0.068597,1, 0.227299, 0.022946,-0.996241, 0.000151,-0.002133,-0.068597, 0.115635, 0.245750,-0.110370,-0.000000, 0.000000,-0.000000,1,0
1777416178058771246,1017223000000,  1017.223, 0.002332,-0.000016,-0.010341, 0.000278, 0.000008,-0.000621, 1.585204, 0.042509,-0.049537,1, 0.020277,-0.000872,-0.063799,1, 0.220380, 0.009090,-1.003314, 0.020277,-0.000871,-0.063799, 0.115970, 0.245546,-0.110569,-0.000000, 0.000000,-0.000000,1,0
1777416178068467647,1017243000000,  1017.243, 0.002314, 0.000039,-0.009666, 0.000325,-0.000228,-0.000565, 1.668288,-0.042476, 0.297407,1, 0.026471,-0.006601,-0.058728,1, 0.228874, 0.000101,-0.967935, 0.026471,-0.006601,-0.058728, 0.115872, 0.245481,-0.110684,-0.000000, 0.000000,-0.000000,1,0
1777416178078551778,1017243000000,  1017.243, 0.002314, 0.000039,-0.009666, 0.000325,-0.000228,-0.000565, 1.668288,-0.042476, 0.297407,1, 0.026471,-0.006601,-0.058728,1, 0.228874, 0.000101,-0.967935, 0.026471,-0.006601,-0.058728, 0.115872, 0.245481,-0.110684,-0.000000, 0.000000,-0.000000,1,0
1777416178097914100,1017263000000,  1017.263, 0.002334, 0.000116,-0.008832, 0.000375,-0.000036,-0.000511, 1.734975, 0.084343,-0.306815,1, 0.029183, 0.003910,-0.056056,1, 0.232996, 0.012817,-0.963399, 0.032325, 0.001339,-0.053738, 0.115706, 0.245502,-0.111671,-0.000000, 0.000000,-0.000000,1,0
1777416178107604058,1017283000000,  1017.283, 0.002447, 0.000256,-0.008082, 0.000472,-0.000066,-0.000375, 1.778938, 0.209298,-0.492483,1, 0.038198, 0.011416,-0.049230,1, 0.239526, 0.021987,-0.925307, 0.042344, 0.004149,-0.043660, 0.115385, 0.245154,-0.111331,-0.000000, 0.000000,-0.000000,1,0
1777416178117687114,1017283000000,  1017.283, 0.002447, 0.000256,-0.008082, 0.000472,-0.000066,-0.000375, 1.778938, 0.209298,-0.492483,1, 0.038198, 0.011416,-0.049230,1, 0.239526, 0.021987,-0.925307, 0.042344, 0.004149,-0.043660, 0.115385, 0.245154,-0.111331,-0.000000, 0.000000,-0.000000,1,0
1777416178127402865,1017303000000,  1017.303, 0.002451, 0.001580,-0.009046, 0.000001, 0.000270,-0.000099, 1.713626, 0.230478,-1.022029,1, 0.013625, 0.013365,-0.040795,1, 0.242651, 0.081203,-0.989395, 0.010108, 0.019394,-0.025898, 0.115496, 0.245396,-0.111592,-0.000000, 0.000000,-0.000000,1,0
1777416178137486236,1017303000000,  1017.303, 0.002451, 0.001580,-0.009046, 0.000001, 0.000270,-0.000099, 1.713626, 0.230478,-1.022029,1, 0.013625, 0.013365,-0.040795,1, 0.242651, 0.081203,-0.989395, 0.010108, 0.019394,-0.025898, 0.115496, 0.245396,-0.111592,-0.000000, 0.000000,-0.000000,1,0
1777416178147074072,1017323000000,  1017.323, 0.002810,-0.000534,-0.011340, 0.000441,-0.000045, 0.000084, 1.704697, 0.297378, 0.889241,1,-0.007136, 0.021144,-0.006403,1, 0.255550,-0.009466,-0.979063, 0.020742, 0.006761, 0.000914, 0.115543, 0.245631,-0.110681,-0.000000, 0.000000,-0.000000,1,0
1777416178157176664,1017323000000,  1017.323, 0.002810,-0.000534,-0.011340, 0.000441,-0.000045, 0.000084, 1.704697, 0.297378, 0.889241,1,-0.007136, 0.021144,-0.006403,1, 0.255550,-0.009466,-0.979063, 0.020742, 0.006761, 0.000914, 0.115543, 0.245631,-0.110681,-0.000000, 0.000000,-0.000000,1,0
1777416178176874183,1017343000000,  1017.343, 0.002599, 0.000585,-0.009775, 0.000419,-0.000087,-0.000269, 1.728023,-0.598845,-0.136909,1, 0.034729, 0.005689,-0.003198,1, 0.250533, 0.003176,-1.012088, 0.040192, 0.000716,-0.013863, 0.115395, 0.245358,-0.110191,-0.000000, 0.000000,-0.000000,1,0
1777416178186547826,1017363000000,  1017.363, 0.002828, 0.002312,-0.012380,-0.000235, 0.000143,-0.000174, 1.685558,-0.183260, 0.570107,1, 0.086519,-0.014742,-0.004855,1, 0.260047, 0.107185,-1.108907, 0.039079,-0.005551,-0.009708, 0.115938, 0.244626,-0.110606,-0.000000, 0.000000,-0.000000,1,0
1777416178196630660,1017363000000,  1017.363, 0.002828, 0.002312,-0.012380,-0.000235, 0.000143,-0.000174, 1.685558,-0.183260, 0.570107,1, 0.086519,-0.014742,-0.004855,1, 0.260047, 0.107185,-1.108907, 0.039079,-0.005551,-0.009708, 0.115938, 0.244626,-0.110606,-0.000000, 0.000000,-0.000000,1,0
1777416178206295212,1017383000000,  1017.383, 0.001753,-0.001126,-0.012333, 0.000546, 0.000155, 0.000160, 1.605339, 0.675182, 1.244272,1, 0.029620, 0.006335, 0.006864,1, 0.196500,-0.019232,-1.021899, 0.038627, 0.010200, 0.010617, 0.116532, 0.244377,-0.111299,-0.000000, 0.000000, 0.000001,1,0
1777416178216377787,1017383000000,  1017.383, 0.001753,-0.001126,-0.012333, 0.000546, 0.000155, 0.000160, 1.605339, 0.675182, 1.244272,1, 0.029620, 0.006335, 0.006864,1, 0.196500,-0.019232,-1.021899, 0.038627, 0.010200, 0.010617, 0.116532, 0.244377,-0.111299,-0.000000, 0.000000, 0.000001,1,0
1777416178226031951,1017403000000,  1017.403, 0.001696, 0.000278,-0.005868, 0.000130, 0.000152,-0.000082, 1.508234,-0.606026,-0.756624,1, 0.045392, 0.017956, 0.002749,1, 0.195114,-0.027197,-0.889834, 0.020435, 0.020587,-0.001870, 0.117417, 0.244828,-0.111434,-0.000000, 0.000000, 0.000001,1,0
1777416178236115673,1017403000000,  1017.403, 0.001696, 0.000278,-0.005868, 0.000130, 0.000152,-0.000082, 1.508234,-0.606026,-0.756624,1, 0.045392, 0.017956, 0.002749,1, 0.195114,-0.027197,-0.889834, 0.020435, 0.020587,-0.001870, 0.117417, 0.244828,-0.111434,-0.000000, 0.000000, 0.000001,1,0
1777416178255833395,1017413000000,  1017.418, 0.001535, 0.002067,-0.013802, 0.000342,-0.000344, 0.000142, 1.082752, 0.633769,-0.568916,1, 0.027890,-0.006358, 0.008395,1, 0.170456, 0.063944,-1.056208, 0.027890,-0.006358, 0.008395, 0.117769, 0.244637,-0.111576,-0.000000, 0.000000, 0.000001,1,0
1777416178265497891,1017433000000,  1017.438, 0.001600,-0.000070,-0.011207, 0.000797,-0.000210, 0.000086, 0.838864, 0.207582, 0.002463,1, 0.034352,-0.000738, 0.011472,1, 0.145629, 0.019756,-0.997941, 0.034351,-0.000737, 0.011473, 0.117958, 0.244511,-0.111058,-0.000000, 0.000000, 0.000001,1,0
1777416178275582021,1017433000000,  1017.438, 0.001600,-0.000070,-0.011207, 0.000797,-0.000210, 0.000086, 0.838864, 0.207582, 0.002463,1, 0.034352,-0.000738, 0.011472,1, 0.145629, 0.019756,-0.997941, 0.034351,-0.000737, 0.011473, 0.117958, 0.244511,-0.111058,-0.000000, 0.000000, 0.000001,1,0
1777416178285245962,1017453000000,  1017.458, 0.001133, 0.000639,-0.009936, 0.000603,-0.000096, 0.000195, 0.644463, 0.550380, 0.583037,1, 0.053060,-0.008575, 0.012353,1, 0.125656, 0.053919,-0.938746, 0.053060,-0.008575, 0.012354, 0.119006, 0.244921,-0.110667,-0.000000, 0.000000, 0.000001,1,0
1777416178295329740,1017453000000,  1017.458, 0.001133, 0.000639,-0.009936, 0.000603,-0.000096, 0.000195, 0.644463, 0.550380, 0.583037,1, 0.053060,-0.008575, 0.012353,1, 0.125656, 0.053919,-0.938746, 0.053060,-0.008575, 0.012354, 0.119006, 0.244921,-0.110667,-0.000000, 0.000000, 0.000001,1,0
1777416178315037314,1017473000000,  1017.478, 0.000489, 0.000178,-0.004757, 0.001605,-0.000276, 0.000422, 0.483406,-0.034690, 1.805522,1, 0.097502, 0.004921, 0.026453,1, 0.109230,-0.006438,-0.814086, 0.097502, 0.004921, 0.026454, 0.119106, 0.244477,-0.110004,-0.000000, 0.000000, 0.000001,1,0
1777416178334778941,1017493000000,  1017.498, 0.001110,-0.000673,-0.008283,-0.000343,-0.000258, 0.000160, 0.668108,-0.047547, 0.519965,1, 0.016505,-0.005576, 0.019018,1, 0.128182,-0.008147,-0.945168, 0.016505,-0.005576, 0.019019, 0.119697, 0.244664,-0.110065,-0.000000, 0.000000, 0.000001,1,0
1777416178344451826,1017513000000,  1017.518, 0.000962,-0.000114,-0.008777, 0.000600, 0.000208, 0.000225, 0.557588,-0.136376,-0.161409,1, 0.032533, 0.013182, 0.020220,1, 0.117074,-0.017685,-1.014637, 0.032533, 0.013182, 0.020220, 0.119627, 0.244993,-0.110440,-0.000000, 0.000000, 0.000001,1,0
1777416178354534956,1017513000000,  1017.518, 0.000962,-0.000114,-0.008777, 0.000600, 0.000208, 0.000225, 0.557588,-0.136376,-0.161409,1, 0.032533, 0.013182, 0.020220,1, 0.117074,-0.017685,-1.014637, 0.032533, 0.013182, 0.020220, 0.119627, 0.244993,-0.110440,-0.000000, 0.000000, 0.000001,1,0
1777416178364179324,1017533000000,  1017.538, 0.001195,-0.000416,-0.008504, 0.000321,-0.000162, 0.000340, 0.493081,-0.002148, 0.859698,1, 0.014183,-0.011641, 0.025602,1, 0.110545,-0.004324,-0.910509, 0.014183,-0.011640, 0.025602, 0.120793, 0.244610,-0.109921,-0.000000, 0.000000, 0.000001,1,0
1777416178374262732,1017533000000,  1017.538, 0.001195,-0.000416,-0.008504, 0.000321,-0.000162, 0.000340, 0.493081,-0.002148, 0.859698,1, 0.014183,-0.011641, 0.025602,1, 0.110545,-0.004324,-0.910509, 0.014183,-0.011640, 0.025602, 0.120793, 0.244610,-0.109921,-0.000000, 0.000000, 0.000001,1,0
1777416178393981287,1017553000000,  1017.558, 0.001524,-0.000283,-0.005796,-0.000349, 0.000233, 0.000365, 0.572605, 0.051494, 1.354008,1,-0.018739, 0.018075, 0.031874,1, 0.118837, 0.001336,-0.860093,-0.018739, 0.018076, 0.031875, 0.121547, 0.244067,-0.108969,-0.000000, 0.000000, 0.000001,1,0
1777416178403660485,1017573000000,  1017.578, 0.001315, 0.000239,-0.002362,-0.000048,-0.000026, 0.000389, 0.422246,-0.084784, 3.302513,1,-0.004649, 0.013599, 0.038211,1, 0.103974,-0.011757,-0.661375,-0.004649, 0.013599, 0.038212, 0.122347, 0.244041,-0.108603, 0.000000, 0.000000, 0.000001,1,0
1777416178413744301,1017573000000,  1017.578, 0.001315, 0.000239,-0.002362,-0.000048,-0.000026, 0.000389, 0.422246,-0.084784, 3.302513,1,-0.004649, 0.013599, 0.038211,1, 0.103974,-0.011757,-0.661375,-0.004649, 0.013599, 0.038212, 0.122347, 0.244041,-0.108603, 0.000000, 0.000000, 0.000001,1,0
1777416178423423685,1017593000000,  1017.598, 0.001294,-0.000566,-0.002574,-0.000070, 0.000162, 0.000229, 0.594249,-0.464652, 1.935704,1,-0.038113, 0.018117, 0.030901,1, 0.121805,-0.049334,-0.800736,-0.038113, 0.018118, 0.030902, 0.123541, 0.243596,-0.107723, 0.000000, 0.000000, 0.000001,1,0
1777416178433507112,1017593000000,  1017.598, 0.001294,-0.000566,-0.002574,-0.000070, 0.000162, 0.000229, 0.594249,-0.464652, 1.935704,1,-0.038113, 0.018117, 0.030901,1, 0.121805,-0.049334,-0.800736,-0.038113, 0.018118, 0.030902, 0.123541, 0.243596,-0.107723, 0.000000, 0.000000, 0.000001,1,0
1777416178449049229,1017613000000,  1017.618, 0.001661,-0.000004,-0.001904,-0.000645, 0.000243, 0.000463, 0.425207, 0.435985, 3.112844,1,-0.050555, 0.020372, 0.036497,1, 0.104878, 0.043772,-0.680683,-0.050555, 0.020372, 0.036498, 0.124125, 0.243428,-0.107338, 0.000000, 0.000000, 0.000001,1,0
1777416178468776172,1017633000000,  1017.638, 0.000441,-0.001404,-0.003698,-0.000004, 0.000408, 0.000604, 0.508195,-0.567567, 1.157230,1,-0.030971, 0.025115, 0.057527,1, 0.113652,-0.057449,-0.880081,-0.030970, 0.025115, 0.057528, 0.124297, 0.243171,-0.107067, 0.000000, 0.000000, 0.000001,1,0
1777416178478452741,1017653000000,  1017.653, 0.001604, 0.000231,-0.008173, 0.000282, 0.000277, 0.000390, 0.290980, 0.125554, 0.560071,1, 0.006785, 0.000153, 0.047657,1, 0.091574, 0.013441,-0.940970, 0.006785, 0.000153, 0.047658, 0.124439, 0.242833,-0.106301, 0.000000, 0.000000, 0.000001,1,0
1777416178488536019,1017653000000,  1017.653, 0.001604, 0.000231,-0.008173, 0.000282, 0.000277, 0.000390, 0.290980, 0.125554, 0.560071,1, 0.006785, 0.000153, 0.047657,1, 0.091574, 0.013441,-0.940970, 0.006785, 0.000153, 0.047658, 0.124439, 0.242833,-0.106301, 0.000000, 0.000000, 0.000001,1,0
1777416178507927895,1017673000000,  1017.673, 0.000664, 0.000530,-0.006966, 0.000672,-0.000280, 0.000583, 0.180937, 0.608559,-0.825147,1, 0.010256,-0.014431, 0.038475,1, 0.071124, 0.054989,-0.900599, 0.030258,-0.022456, 0.047263, 0.125406, 0.243163,-0.105324, 0.000000, 0.000000, 0.000001,1,0
1777416178517621260,1017693000000,  1017.693, 0.000460,-0.001516, 0.002418, 0.001012, 0.000931, 0.001035, 0.137694, 1.935042,-2.605518,1,-0.020576,-0.030805, 0.046834,1, 0.067317, 0.026529,-0.598237, 0.022890, 0.030915, 0.071436, 0.126403, 0.243022,-0.104406, 0.000000, 0.000000, 0.000001,1,0
1777416178527720093,1017693000000,  1017.693, 0.000460,-0.001516, 0.002418, 0.001012, 0.000931, 0.001035, 0.137694, 1.935042,-2.605518,1,-0.020576,-0.030805, 0.046834,1, 0.067317, 0.026529,-0.598237, 0.022890, 0.030915, 0.071436, 0.126403, 0.243022,-0.104406, 0.000000, 0.000000, 0.000001,1,0
1777416178537348443,1017713000000,  1017.713, 0.001111,-0.002665,-0.005895, 0.000501, 0.001210, 0.000348,-0.322131,-0.311732,-2.588130,1, 0.042325,-0.045929, 0.078617,1, 0.068413,-0.130514,-0.942032, 0.048059, 0.029392, 0.057119, 0.126469, 0.242868,-0.104460, 0.000000, 0.000000, 0.000001,1,0
1777416178547432814,1017713000000,  1017.713, 0.001111,-0.002665,-0.005895, 0.000501, 0.001210, 0.000348,-0.322131,-0.311732,-2.588130,1, 0.042325,-0.045929, 0.078617,1, 0.068413,-0.130514,-0.942032, 0.048059, 0.029392, 0.057119, 0.126469, 0.242868,-0.104460, 0.000000, 0.000000, 0.000001,1,0
1777416178557079738,1017733000000,  1017.733,-0.000017, 0.000377,-0.010234, 0.000187,-0.000397, 0.000325, 0.330244, 0.064741,-0.093633,1, 0.041790,-0.003883, 0.040121,1, 0.046623, 0.036977,-1.049127, 0.024507,-0.021575, 0.036783, 0.127081, 0.242367,-0.105043, 0.000000, 0.000000, 0.000001,1,0
1777416178567179404,1017733000000,  1017.733,-0.000017, 0.000377,-0.010234, 0.000187,-0.000397, 0.000325, 0.330244, 0.064741,-0.093633,1, 0.041790,-0.003883, 0.040121,1, 0.046623, 0.036977,-1.049127, 0.024507,-0.021575, 0.036783, 0.127081, 0.242367,-0.105043, 0.000000, 0.000000, 0.000001,1,0
1777416178586876664,1017753000000,  1017.753, 0.001647, 0.000198,-0.013935,-0.000713,-0.000543, 0.000191,-0.197781,-0.033490, 1.531775,1, 0.062897,-0.012552, 0.044665,1, 0.096086, 0.019690,-1.147589, 0.004585,-0.043247, 0.033052, 0.127563, 0.241292,-0.105142, 0.000000, 0.000000, 0.000001,1,0
1777416178596564880,1017773000000,  1017.773, 0.000818,-0.001450,-0.010144, 0.000680,-0.000251, 0.000083,-0.216119,-0.457160, 1.049172,1, 0.014738,-0.013134, 0.037586,1, 0.050382,-0.104501,-0.952058, 0.041804,-0.020126, 0.025395, 0.128124, 0.241166,-0.104936, 0.000000, 0.000001, 0.000002,1,0
1777416178606649288,1017773000000,  1017.773, 0.000818,-0.001450,-0.010144, 0.000680,-0.000251, 0.000083,-0.216119,-0.457160, 1.049172,1, 0.014738,-0.013134, 0.037586,1, 0.050382,-0.104501,-0.952058, 0.041804,-0.020126, 0.025395, 0.128124, 0.241166,-0.104936, 0.000000, 0.000001, 0.000002,1,0
1777416178616308433,1017793000000,  1017.793,-0.000250, 0.000623, 0.000747, 0.001623, 0.000656, 0.000129, 0.140567,-0.353932,-4.619107,1, 0.013500, 0.001791, 0.036953,1, 0.034305,-0.013012,-0.703298, 0.109811, 0.045643, 0.030431, 0.129001, 0.241346,-0.104015, 0.000000, 0.000001, 0.000002,1,0
1777416178626392582,1017793000000,  1017.793,-0.000250, 0.000623, 0.000747, 0.001623, 0.000656, 0.000129, 0.140567,-0.353932,-4.619107,1, 0.013500, 0.001791, 0.036953,1, 0.034305,-0.013012,-0.703298, 0.109811, 0.045643, 0.030431, 0.129001, 0.241346,-0.104015, 0.000000, 0.000001, 0.000002,1,0
1777416178636033432,1017813000000,  1017.813,-0.000316,-0.000990,-0.013738, 0.000368, 0.000033, 0.000307, 0.562427, 0.285827,-0.089658,1,-0.009531, 0.003995, 0.016061,1, 0.057818,-0.031850,-1.162000, 0.008853, 0.013437, 0.021498, 0.128686, 0.240603,-0.103446, 0.000000, 0.000001, 0.000002,1,0
1777416178646117543,1017813000000,  1017.813,-0.000316,-0.000990,-0.013738, 0.000368, 0.000033, 0.000307, 0.562427, 0.285827,-0.089658,1,-0.009531, 0.003995, 0.016061,1, 0.057818,-0.031850,-1.162000, 0.008853, 0.013437, 0.021498, 0.128686, 0.240603,-0.103446, 0.000000, 0.000001, 0.000002,1,0
1777416178665834413,1017823000000,  1017.828,-0.000042,-0.001243,-0.004714, 0.000917, 0.000865, 0.000198,-0.305084,-0.725106, 1.397681,1, 0.050215, 0.044532, 0.020615,1, 0.030922,-0.077032,-0.855545, 0.050215, 0.044532, 0.020617, 0.129038, 0.240415,-0.103602, 0.000000, 0.000001, 0.000002,1,0
1777416178675526777,1017843000000,  1017.848, 0.000240,-0.000708,-0.008748, 0.000800, 0.000530, 0.000270,-0.337965, 0.008719, 0.706877,1, 0.015930, 0.032200, 0.009802,1, 0.028190,-0.002395,-0.925948, 0.015930, 0.032200, 0.009804, 0.129505, 0.240021,-0.103777, 0.000000, 0.000001, 0.000002,1,0
1777416178685611000,1017843000000,  1017.848, 0.000240,-0.000708,-0.008748, 0.000800, 0.000530, 0.000270,-0.337965, 0.008719, 0.706877,1, 0.015930, 0.032200, 0.009802,1, 0.028190,-0.002395,-0.925948, 0.015930, 0.032200, 0.009804, 0.129505, 0.240021,-0.103777, 0.000000, 0.000001, 0.000002,1,0
1777416178695258849,1017863000000,  1017.868,-0.000428,-0.001027,-0.007812,-0.000365, 0.000250, 0.000474,-0.299701,-0.234202,-0.151834,1,-0.037346, 0.026577, 0.031143,1, 0.032560,-0.026535,-1.013485,-0.037346, 0.026577, 0.031145, 0.129693, 0.239646,-0.103033, 0.000000, 0.000001, 0.000002,1,0
1777416178705354386,1017863000000,  1017.868,-0.000428,-0.001027,-0.007812,-0.000365, 0.000250, 0.000474,-0.299701,-0.234202,-0.151834,1,-0.037346, 0.026577, 0.031143,1, 0.032560,-0.026535,-1.013485,-0.037346, 0.026577, 0.031145, 0.129693, 0.239646,-0.103033, 0.000000, 0.000001, 0.000002,1,0
1777416178715009198,1017883000000,  1017.888, 0.000347,-0.000135,-0.019273,-0.002033, 0.000241, 0.000431,-0.067514,-0.003427,-2.767842,1,-0.086986, 0.027583, 0.041031,1, 0.056815,-0.001787,-1.280209,-0.086986, 0.027584, 0.041033, 0.130004, 0.239591,-0.102020, 0.000000, 0.000001, 0.000002,1,0
1777416178725093162,1017883000000,  1017.888, 0.000347,-0.000135,-0.019273,-0.002033, 0.000241, 0.000431,-0.067514,-0.003427,-2.767842,1,-0.086986, 0.027583, 0.041031,1, 0.056815,-0.001787,-1.280209,-0.086986, 0.027584, 0.041033, 0.130004, 0.239591,-0.102020, 0.000000, 0.000001, 0.000002,1,0
1777416178744793310,1017903000000,  1017.908, 0.001294, 0.001046,-0.010170,-0.000607, 0.000017, 0.000357,-0.248056,-0.333897, 1.194898,1,-0.064747, 0.031674, 0.046425,1, 0.039008,-0.034075,-0.876084,-0.064746, 0.031675, 0.046427, 0.130530, 0.238949,-0.101659, 0.000000, 0.000001, 0.000002,1,0
1777416178754482082,1017923000000,  1017.928,-0.000559,-0.003089,-0.000507, 0.000569, 0.000352, 0.000493,-0.354320,-1.894962, 2.491990,1,-0.009224, 0.041789, 0.054766,1, 0.028938,-0.192236,-0.743767,-0.009224, 0.041790, 0.054768, 0.130280, 0.238642,-0.101424, 0.000000, 0.000001, 0.000002,1,0
1777416178764566027,1017923000000,  1017.928,-0.000559,-0.003089,-0.000507, 0.000569, 0.000352, 0.000493,-0.354320,-1.894962, 2.491990,1,-0.009224, 0.041789, 0.054766,1, 0.028938,-0.192236,-0.743767,-0.009224, 0.041790, 0.054768, 0.130280, 0.238642,-0.101424, 0.000000, 0.000001, 0.000002,1,0
1777416178774196841,1017943000000,  1017.948,-0.000590, 0.000352,-0.006185, 0.000521, 0.000272, 0.000163,-0.331416,-0.217654, 0.857142,1, 0.033649, 0.003475, 0.024916,1, 0.031301,-0.020743,-0.910473, 0.033650, 0.003476, 0.024918, 0.130576, 0.238171,-0.100680, 0.000000, 0.000001, 0.000002,1,0
1777416178784280971,1017943000000,  1017.948,-0.000590, 0.000352,-0.006185, 0.000521, 0.000272, 0.000163,-0.331416,-0.217654, 0.857142,1, 0.033649, 0.003475, 0.024916,1, 0.031301,-0.020743,-0.910473, 0.033650, 0.003476, 0.024918, 0.130576, 0.238171,-0.100680, 0.000000, 0.000001, 0.000002,1,0
1777416178803576410,1017963000000,  1017.968,-0.000194, 0.000509,-0.012959,-0.001317,-0.000939, 0.000297,-0.190155, 0.794798,-1.425570,1,-0.068721,-0.047621, 0.019696,1, 0.045333, 0.081945,-1.143270,-0.068720,-0.047620, 0.019698, 0.131036, 0.237315,-0.100876, 0.000000, 0.000001, 0.000003,1,0
1777416178819141081,1017983000000,  1017.988, 0.001318,-0.001585,-0.013825,-0.000020,-0.000679, 0.000599,-0.304168,-0.054595,-1.267970,1,-0.014492,-0.043308, 0.047386,1, 0.033584,-0.005056,-1.127208,-0.014492,-0.043308, 0.047388, 0.131494, 0.237053,-0.101588, 0.000000, 0.000001, 0.000003,1,0
1777416178838899726,1018003000000,  1018.008, 0.001290, 0.001419,-0.014736,-0.000458, 0.000464, 0.000367, 0.112052, 0.102416,-1.407287,1, 0.012230, 0.007830, 0.038921,1, 0.076064, 0.010470,-1.141412, 0.012230, 0.007831, 0.038923, 0.131834, 0.236448,-0.101670, 0.000000, 0.000001, 0.000003,1,0
1777416178848685694,1018023000000,  1018.023,-0.000684, 0.000810,-0.010468,-0.000069,-0.000339, 0.000743,-0.801291, 0.975673, 0.175159,1,-0.003801,-0.009832, 0.048913,1,-0.017190, 0.098889,-0.980055,-0.003800,-0.009832, 0.048915, 0.132054, 0.236043,-0.100738, 0.000000, 0.000001, 0.000003,1,0
1777416178858805895,1018023000000,  1018.023,-0.000684, 0.000810,-0.010468,-0.000069,-0.000339, 0.000743,-0.801291, 0.975673, 0.175159,1,-0.003801,-0.009832, 0.048913,1,-0.017190, 0.098889,-0.980055,-0.003800,-0.009832, 0.048915, 0.132054, 0.236043,-0.100738, 0.000000, 0.000001, 0.000003,1,0
1777416178868315885,1018043000000,  1018.043, 0.000252,-0.001106,-0.007993,-0.000011, 0.000173, 0.000460,-0.048108,-0.369930, 0.144556,1, 0.004832,-0.008930, 0.048183,1, 0.059533,-0.039083,-0.983180, 0.004832,-0.008929, 0.048186, 0.132613, 0.235634,-0.100278, 0.000000, 0.000001, 0.000003,1,0
1777416178878401385,1018043000000,  1018.043, 0.000252,-0.001106,-0.007993,-0.000011, 0.000173, 0.000460,-0.048108,-0.369930, 0.144556,1, 0.004832,-0.008930, 0.048183,1, 0.059533,-0.039083,-0.983180, 0.004832,-0.008929, 0.048186, 0.132613, 0.235634,-0.100278, 0.000000, 0.000001, 0.000003,1,0
1777416178897782336,1018063000000,  1018.063, 0.000034, 0.002096,-0.007783,-0.000183, 0.000211, 0.000226,-0.220115,-0.555262,-0.537414,1, 0.024857,-0.009139, 0.043148,1, 0.023087, 0.085651,-0.897433, 0.012385, 0.002183, 0.032579, 0.132793, 0.235486,-0.100419, 0.000000, 0.000001, 0.000003,1,0
1777416178907453962,1018083000000,  1018.083, 0.000552,-0.001191,-0.016736, 0.000510, 0.000330, 0.000523,-0.339376, 0.531626, 1.195502,1,-0.022899, 0.005162, 0.034942,1, 0.050205,-0.028361,-1.210793, 0.010933, 0.020340, 0.041710, 0.132683, 0.235343,-0.100154, 0.000000, 0.000001, 0.000003,1,0
1777416178917538259,1018083000000,  1018.083, 0.000552,-0.001191,-0.016736, 0.000510, 0.000330, 0.000523,-0.339376, 0.531626, 1.195502,1,-0.022899, 0.005162, 0.034942,1, 0.050205,-0.028361,-1.210793, 0.010933, 0.020340, 0.041710, 0.132683, 0.235343,-0.100154, 0.000000, 0.000001, 0.000003,1,0
1777416178927206143,1018103000000,  1018.103,-0.000106, 0.002094,-0.012682,-0.000097,-0.000289, 0.000054,-0.233989,-0.752454, 0.651558,1, 0.012435, 0.040057, 0.038538,1, 0.021172, 0.059623,-1.091605, 0.007118, 0.012036, 0.024978, 0.132855, 0.234747,-0.100198, 0.000000, 0.000001, 0.000003,1,0
1777416178937290292,1018103000000,  1018.103,-0.000106, 0.002094,-0.012682,-0.000097,-0.000289, 0.000054,-0.233989,-0.752454, 0.651558,1, 0.012435, 0.040057, 0.038538,1, 0.021172, 0.059623,-1.091605, 0.007118, 0.012036, 0.024978, 0.132855, 0.234747,-0.100198, 0.000000, 0.000001, 0.000003,1,0
1777416178956998644,1018123000000,  1018.123, 0.001011, 0.001340,-0.013380,-0.000056, 0.000200, 0.000630,-0.798634, 0.232530, 1.533178,1,-0.022797, 0.015228, 0.041724,1, 0.032088, 0.054685,-1.045272,-0.011191, 0.015803, 0.053655, 0.133618, 0.234241,-0.100475, 0.000000, 0.000001, 0.000003,1,0
1777416178966687768,1018143000000,  1018.143, 0.001178,-0.001963,-0.011342,-0.000432,-0.000058, 0.000824,-0.703426, 0.605022, 1.498743,1,-0.067342, 0.025362, 0.070479,1, 0.043494,-0.082737,-0.945663,-0.065438, 0.006299, 0.075213, 0.133476, 0.233510,-0.100380, 0.000000, 0.000001, 0.000003,1,0
1777416178976772342,1018143000000,  1018.143, 0.001178,-0.001963,-0.011342,-0.000432,-0.000058, 0.000824,-0.703426, 0.605022, 1.498743,1,-0.067342, 0.025362, 0.070479,1, 0.043494,-0.082737,-0.945663,-0.065438, 0.006299, 0.075213, 0.133476, 0.233510,-0.100380, 0.000000, 0.000001, 0.000003,1,0
1777416178986455763,1018163000000,  1018.163,-0.000372,-0.000140,-0.005095,-0.000161, 0.000370, 0.000520,-0.512138,-0.322107,-1.010099,1,-0.079425, 0.002423, 0.073518,1,-0.020289,-0.016163,-0.781583,-0.043257, 0.015642, 0.063431, 0.133920, 0.232768,-0.099837, 0.000000, 0.000001, 0.000003,1,0
1777416178996601648,1018163000000,  1018.163,-0.000372,-0.000140,-0.005095,-0.000161, 0.000370, 0.000520,-0.512138,-0.322107,-1.010099,1,-0.079425, 0.002423, 0.073518,1,-0.020289,-0.016163,-0.781583,-0.043257, 0.015642, 0.063431, 0.133920, 0.232768,-0.099837, 0.000000, 0.000001, 0.000003,1,0
1777416179006161393,1018183000000,  1018.183,-0.000272,-0.002031,-0.002125, 0.000359,-0.000062, 0.000468, 0.198107, 0.328726,-2.031345,1,-0.074570, 0.012090, 0.062234,1, 0.035644,-0.057152,-0.722018,-0.024258, 0.009086, 0.052911, 0.134536, 0.232193,-0.099247, 0.000000, 0.000001, 0.000003,1,0
1777416179016245655,1018183000000,  1018.183,-0.000272,-0.002031,-0.002125, 0.000359,-0.000062, 0.000468, 0.198107, 0.328726,-2.031345,1,-0.074570, 0.012090, 0.062234,1, 0.035644,-0.057152,-0.722018,-0.024258, 0.009086, 0.052911, 0.134536, 0.232193,-0.099247, 0.000000, 0.000001, 0.000003,1,0
1777416179035949565,1018203000000,  1018.203, 0.000761,-0.001108,-0.007000, 0.000254,-0.000070,-0.000047, 0.097192,-0.667005,-0.690517,1,-0.014019,-0.009867, 0.039019,1, 0.079387,-0.073388,-0.890446, 0.006070,-0.005476, 0.017376, 0.134105, 0.231701,-0.099287, 0.000000, 0.000001, 0.000003,1,0
1777416179045656671,1018213000000,  1018.218,-0.000173,-0.000487,-0.012111,-0.000102,-0.000088,-0.000287,-0.304024,-0.464618,-0.461852,1,-0.002364,-0.006200,-0.005618,1, 0.035128,-0.044825,-1.044903,-0.002364,-0.006199,-0.005615, 0.133812, 0.231634,-0.099461, 0.000000, 0.000001, 0.000003,1,0
1777416179055740673,1018213000000,  1018.218,-0.000173,-0.000487,-0.012111,-0.000102,-0.000088,-0.000287,-0.304024,-0.464618,-0.461852,1,-0.002364,-0.006200,-0.005618,1, 0.035128,-0.044825,-1.044903,-0.002364,-0.006199,-0.005615, 0.133812, 0.231634,-0.099461, 0.000000, 0.000001, 0.000003,1,0
1777416179065359803,1018233000000,  1018.238,-0.000291, 0.000582,-0.004497, 0.001625, 0.000128, 0.000208,-0.624851, 0.646951, 2.038884,1, 0.026502, 0.016115,-0.001313,1, 0.002442, 0.068492,-0.789897, 0.026502, 0.016116,-0.001310, 0.134030, 0.231001,-0.099569, 0.000000, 0.000001, 0.000003,1,0
1777416179075445083,1018233000000,  1018.238,-0.000291, 0.000582,-0.004497, 0.001625, 0.000128, 0.000208,-0.624851, 0.646951, 2.038884,1, 0.026502, 0.016115,-0.001313,1, 0.002442, 0.068492,-0.789897, 0.026502, 0.016116,-0.001310, 0.134030, 0.231001,-0.099569, 0.000000, 0.000001, 0.000003,1,0
1777416179085104192,1018253000000,  1018.258,-0.000247,-0.000804,-0.004967, 0.000086,-0.000152,-0.000011,-0.210508,-0.256315, 0.930133,1,-0.010786,-0.006244,-0.006104,1, 0.044770,-0.024282,-0.902955,-0.010785,-0.006243,-0.006101, 0.133630, 0.230702,-0.100186, 0.000000, 0.000001, 0.000003,1,0
1777416179095187898,1018253000000,  1018.258,-0.000247,-0.000804,-0.004967, 0.000086,-0.000152,-0.000011,-0.210508,-0.256315, 0.930133,1,-0.010786,-0.006244,-0.006104,1, 0.044770,-0.024282,-0.902955,-0.010785,-0.006243,-0.006101, 0.133630, 0.230702,-0.100186, 0.000000, 0.000001, 0.000003,1,0
1777416179114907696,1018273000000,  1018.278, 0.000169, 0.001227,-0.010440,-0.001816,-0.000302,-0.000139,-0.335613, 0.386492,-1.168361,1,-0.085252,-0.037156,-0.010942,1, 0.031835, 0.040994,-1.116954,-0.085252,-0.037155,-0.010939, 0.133259, 0.230857,-0.099036, 0.000000, 0.000001, 0.000003,1,0
1777416179124589896,1018293000000,  1018.298, 0.000356,-0.001070, 0.001647,-0.000501, 0.001624, 0.000167,-0.329040, 0.092610, 3.177345,1,-0.001954, 0.064883, 0.009058,1, 0.033094, 0.010341,-0.673776,-0.001954, 0.064884, 0.009061, 0.133493, 0.230451,-0.099464, 0.000000, 0.000001, 0.000003,1,0
1777416179134674121,1018293000000,  1018.298, 0.000356,-0.001070, 0.001647,-0.000501, 0.001624, 0.000167,-0.329040, 0.092610, 3.177345,1,-0.001954, 0.064883, 0.009058,1, 0.033094, 0.010341,-0.673776,-0.001954, 0.064884, 0.009061, 0.133493, 0.230451,-0.099464, 0.000000, 0.000001, 0.000003,1,0
1777416179144312750,1018313000000,  1018.318,-0.000246, 0.000773,-0.004625,-0.000226, 0.001494, 0.000009,-0.278054, 0.451132, 0.755817,1, 0.008586, 0.046798, 0.011823,1, 0.038342, 0.046595,-0.920701, 0.008586, 0.046799, 0.011826, 0.133605, 0.230225,-0.100156, 0.000000, 0.000001, 0.000003,1,0
1777416179154410751,1018313000000,  1018.318,-0.000246, 0.000773,-0.004625,-0.000226, 0.001494, 0.000009,-0.278054, 0.451132, 0.755817,1, 0.008586, 0.046798, 0.011823,1, 0.038342, 0.046595,-0.920701, 0.008586, 0.046799, 0.011826, 0.133605, 0.230225,-0.100156, 0.000000, 0.000001, 0.000003,1,0
1777416179164061046,1018333000000,  1018.338, 0.001880, 0.000647,-0.019035, 0.000588, 0.000859, 0.000077,-0.050968, 0.676051,-2.525360,1, 0.038600, 0.030273, 0.002662,1, 0.061917, 0.068918,-1.255260, 0.038600, 0.030274, 0.002664, 0.133538, 0.229691,-0.101173, 0.000000, 0.000001, 0.000003,1,0
1777416179174144252,1018333000000,  1018.338, 0.001880, 0.000647,-0.019035, 0.000588, 0.000859, 0.000077,-0.050968, 0.676051,-2.525360,1, 0.038600, 0.030273, 0.002662,1, 0.061917, 0.068918,-1.255260, 0.038600, 0.030274, 0.002664, 0.133538, 0.229691,-0.101173, 0.000000, 0.000001, 0.000003,1,0
1777416179193860865,1018353000000,  1018.358, 0.001601, 0.002627,-0.016023, 0.000267,-0.000442, 0.000122, 0.174349, 0.694980,-1.571644,1, 0.051037, 0.002931, 0.008575,1, 0.085370, 0.070143,-1.157975, 0.051038, 0.002932, 0.008577, 0.133831, 0.229055,-0.101577, 0.000000, 0.000001, 0.000003,1,0
1777416179203546231,1018373000000,  1018.378, 0.001178, 0.000835,-0.008144,-0.000229, 0.000176, 0.000349, 0.117213, 0.945553, 1.801160,1,-0.036545, 0.021707, 0.018910,1, 0.079198, 0.095864,-0.814069,-0.036545, 0.021708, 0.018912, 0.133920, 0.228223,-0.102295, 0.000000, 0.000001, 0.000003,1,0
1777416179213629548,1018373000000,  1018.378, 0.001178, 0.000835,-0.008144,-0.000229, 0.000176, 0.000349, 0.117213, 0.945553, 1.801160,1,-0.036545, 0.021707, 0.018910,1, 0.079198, 0.095864,-0.814069,-0.036545, 0.021708, 0.018912, 0.133920, 0.228223,-0.102295, 0.000000, 0.000001, 0.000003,1,0
1777416179223284658,1018393000000,  1018.398,-0.000607,-0.000864,-0.010856,-0.000925, 0.000246, 0.000386,-0.659299,-0.217348,-0.531687,1,-0.063001, 0.030596, 0.038534,1, 0.000388,-0.021882,-1.051928,-0.063000, 0.030597, 0.038537, 0.133548, 0.228127,-0.102150, 0.000000, 0.000001, 0.000003,1,0
1777416179233368363,1018393000000,  1018.398,-0.000607,-0.000864,-0.010856,-0.000925, 0.000246, 0.000386,-0.659299,-0.217348,-0.531687,1,-0.063001, 0.030596, 0.038534,1, 0.000388,-0.021882,-1.051928,-0.063000, 0.030597, 0.038537, 0.133548, 0.228127,-0.102150, 0.000000, 0.000001, 0.000003,1,0
1777416179248902965,1018413000000,  1018.418,-0.000823,-0.000387, 0.003201,-0.003097, 0.001481, 0.000873,-0.594061, 0.751173, 3.943951,1,-0.236928, 0.087727, 0.045878,1, 0.008420, 0.077004,-0.595444,-0.236927, 0.087728, 0.045880, 0.133938, 0.227746,-0.101028, 0.000000, 0.000001, 0.000003,1,0
1777416179258582369,1018433000000,  1018.433,-0.001477,-0.001560,-0.000269,-0.000481, 0.000868, 0.000937,-0.699005,-0.216524, 1.737606,1,-0.055191, 0.003798, 0.074236,1,-0.002371,-0.020381,-0.820434,-0.055190, 0.003799, 0.074239, 0.133601, 0.227746,-0.100520, 0.000000, 0.000001, 0.000003,1,0
1777416179268665760,1018433000000,  1018.433,-0.001477,-0.001560,-0.000269,-0.000481, 0.000868, 0.000937,-0.699005,-0.216524, 1.737606,1,-0.055191, 0.003798, 0.074236,1,-0.002371,-0.020381,-0.820434,-0.055190, 0.003799, 0.074239, 0.133601, 0.227746,-0.100520, 0.000000, 0.000001, 0.000003,1,0
1777416179278324110,1018453000000,  1018.453,-0.000274,-0.001615,-0.013476,-0.000039, 0.000526, 0.000374,-0.733589,-0.794020,-0.956349,1, 0.020581,-0.001738, 0.047684,1,-0.006315,-0.079426,-1.095170, 0.020581,-0.001737, 0.047687, 0.133925, 0.227529,-0.101084, 0.000000, 0.000001, 0.000003,1,0
1777416179288407779,1018453000000,  1018.453,-0.000274,-0.001615,-0.013476,-0.000039, 0.000526, 0.000374,-0.733589,-0.794020,-0.956349,1, 0.020581,-0.001738, 0.047684,1,-0.006315,-0.079426,-1.095170, 0.020581,-0.001737, 0.047687, 0.133925, 0.227529,-0.101084, 0.000000, 0.000001, 0.000003,1,0
1777416179307795028,1018473000000,  1018.473, 0.000196,-0.001284,-0.006160, 0.002152, 0.000460, 0.000889,-0.361264, 0.943546,-0.497895,1,-0.048005, 0.003197, 0.023778,1, 0.005378,-0.026790,-0.790385, 0.068099, 0.028451, 0.054052, 0.134248, 0.227014,-0.100977, 0.000000, 0.000001, 0.000003,1,0
1777416179317491857,1018493000000,  1018.493, 0.000045,-0.000523,-0.014690, 0.000482,-0.000021, 0.000733, 0.163883, 0.571684, 0.060704,1, 0.054407,-0.038010, 0.049026,1, 0.065715,-0.001995,-1.217074, 0.064774,-0.011546, 0.061136, 0.133930, 0.227204,-0.101731, 0.000000, 0.000001, 0.000003,1,0
1777416179327577766,1018493000000,  1018.493, 0.000045,-0.000523,-0.014690, 0.000482,-0.000021, 0.000733, 0.163883, 0.571684, 0.060704,1, 0.054407,-0.038010, 0.049026,1, 0.065715,-0.001995,-1.217074, 0.064774,-0.011546, 0.061136, 0.133930, 0.227204,-0.101731, 0.000000, 0.000001, 0.000003,1,0
1777416179337206007,1018513000000,  1018.513, 0.000089, 0.000372,-0.017646,-0.000105,-0.000764, 0.000658,-0.300938, 0.394631, 2.319408,1, 0.068200,-0.017392, 0.053830,1, 0.022016, 0.052255,-1.272613, 0.035509,-0.046658, 0.058556, 0.134301, 0.226974,-0.102330, 0.000000, 0.000001, 0.000003,1,0
1777416179347275992,1018513000000,  1018.513, 0.000089, 0.000372,-0.017646,-0.000105,-0.000764, 0.000658,-0.300938, 0.394631, 2.319408,1, 0.068200,-0.017392, 0.053830,1, 0.022016, 0.052255,-1.272613, 0.035509,-0.046658, 0.058556, 0.134301, 0.226974,-0.102330, 0.000000, 0.000001, 0.000003,1,0
1777416179367011641,1018533000000,  1018.533, 0.001305,-0.000354,-0.013929,-0.000395, 0.000125, 0.000596,-0.672950, 0.216455, 1.711629,1, 0.076719,-0.010587, 0.067482,1, 0.058145,-0.002262,-1.128865, 0.024220,-0.001501, 0.064832, 0.134209, 0.227016,-0.101816, 0.000000, 0.000001, 0.000003,1,0
1777416179386750067,1018553000000,  1018.553, 0.000078, 0.000349,-0.008232, 0.000314,-0.000031, 0.000812,-0.344118,-0.280375,-0.087331,1, 0.034264,-0.017865, 0.066873,1, 0.013656,-0.018170,-0.919732, 0.028069,-0.011543, 0.074147, 0.134402, 0.226165,-0.102651, 0.000000, 0.000001, 0.000003,1,0
1777416179396489114,1018573000000,  1018.573, 0.000511,-0.001145,-0.003319, 0.000589, 0.000342, 0.000818,-0.427127, 0.151428,-1.553328,1, 0.053321,-0.000283, 0.075058,1, 0.030576,-0.062971,-0.785299, 0.059021, 0.019401, 0.080055, 0.135032, 0.226131,-0.103680, 0.000000, 0.000001, 0.000003,1,0
1777416179406572135,1018573000000,  1018.573, 0.000511,-0.001145,-0.003319, 0.000589, 0.000342, 0.000818,-0.427127, 0.151428,-1.553328,1, 0.053321,-0.000283, 0.075058,1, 0.030576,-0.062971,-0.785299, 0.059021, 0.019401, 0.080055, 0.135032, 0.226131,-0.103680, 0.000000, 0.000001, 0.000003,1,0
1777416179416163305,1018593000000,  1018.593, 0.000309, 0.000058,-0.004616,-0.001609, 0.000301, 0.000541,-0.152679, 0.025957,-1.737575,1, 0.043924, 0.003791, 0.075838,1, 0.044514, 0.023335,-0.886600,-0.057522, 0.020260, 0.063935, 0.134919, 0.226098,-0.102949, 0.000000, 0.000001, 0.000003,1,0
1777416179426246992,1018593000000,  1018.593, 0.000309, 0.000058,-0.004616,-0.001609, 0.000301, 0.000541,-0.152679, 0.025957,-1.737575,1, 0.043924, 0.003791, 0.075838,1, 0.044514, 0.023335,-0.886600,-0.057522, 0.020260, 0.063935, 0.134919, 0.226098,-0.102949, 0.000000, 0.000001, 0.000003,1,0
1777416179445964735,1018613000000,  1018.613, 0.002277,-0.001626,-0.011919,-0.001185, 0.000791, 0.000817,-0.926466, 0.471790, 1.566059,1,-0.040636,-0.006312, 0.079337,1, 0.091088,-0.049303,-1.073003,-0.077639, 0.024894, 0.080211, 0.135675, 0.225843,-0.103270, 0.000000, 0.000001, 0.000003,1,0
1777416179455644768,1018623000000,  1018.628,-0.002033,-0.002967,-0.013057, 0.000602,-0.000628, 0.000947,-1.098774,-2.033556,-2.176754,1, 0.002666,-0.008764, 0.089634,1,-0.045367,-0.209157,-1.219740, 0.002667,-0.008763, 0.089637, 0.135041, 0.225920,-0.103174, 0.000000, 0.000001, 0.000003,1,0
1777416179465727752,1018623000000,  1018.628,-0.002033,-0.002967,-0.013057, 0.000602,-0.000628, 0.000947,-1.098774,-2.033556,-2.176754,1, 0.002666,-0.008764, 0.089634,1,-0.045367,-0.209157,-1.219740, 0.002667,-0.008763, 0.089637, 0.135041, 0.225920,-0.103174, 0.000000, 0.000001, 0.000003,1,0
1777416179475374769,1018643000000,  1018.648, 0.001491, 0.000865,-0.020717,-0.005286,-0.001292, 0.000680, 0.223775, 1.908510,-2.653553,1,-0.149110, 0.027024, 0.051325,1, 0.090353, 0.194445,-1.268301,-0.149109, 0.027025, 0.051328, 0.134826, 0.225795,-0.102048, 0.000000, 0.000001, 0.000003,1,0
1777416179485477085,1018643000000,  1018.648, 0.001491, 0.000865,-0.020717,-0.005286,-0.001292, 0.000680, 0.223775, 1.908510,-2.653553,1,-0.149110, 0.027024, 0.051325,1, 0.090353, 0.194445,-1.268301,-0.149109, 0.027025, 0.051328, 0.134826, 0.225795,-0.102048, 0.000000, 0.000001, 0.000003,1,0
1777416179495126602,1018663000000,  1018.668, 0.001802, 0.000276,-0.017939,-0.002432,-0.001204, 0.000317, 0.111390, 0.027308,-2.347677,1,-0.075617,-0.025805, 0.052876,1, 0.078913, 0.003608,-1.237110,-0.075617,-0.025804, 0.052879, 0.134619, 0.225649,-0.101428, 0.000000, 0.000001, 0.000003,1,0
1777416179505210067,1018663000000,  1018.668, 0.001802, 0.000276,-0.017939,-0.002432,-0.001204, 0.000317, 0.111390, 0.027308,-2.347677,1,-0.075617,-0.025805, 0.052876,1, 0.078913, 0.003608,-1.237110,-0.075617,-0.025804, 0.052879, 0.134619, 0.225649,-0.101428, 0.000000, 0.000001, 0.000003,1,0
1777416179524909552,1018683000000,  1018.688, 0.000491,-0.000779,-0.017497,-0.000179,-0.000992, 0.000377,-0.364047,-0.433306,-2.015550,1, 0.005028,-0.056722, 0.037031,1, 0.029794,-0.043450,-1.203286, 0.005029,-0.056721, 0.037033, 0.134829, 0.225444,-0.101112, 0.000000, 0.000001, 0.000003,1,0
1777416179534586067,1018703000000,  1018.708, 0.000499,-0.001798,-0.001070,-0.000427,-0.000467, 0.000626,-0.177958, 0.411810, 4.269681,1, 0.013628,-0.020296, 0.048078,1, 0.048699, 0.042250,-0.562376, 0.013628,-0.020295, 0.048080, 0.135374, 0.225416,-0.101387, 0.000000, 0.000001, 0.000003,1,0
1777416179544669144,1018703000000,  1018.708, 0.000499,-0.001798,-0.001070,-0.000427,-0.000467, 0.000626,-0.177958, 0.411810, 4.269681,1, 0.013628,-0.020296, 0.048078,1, 0.048699, 0.042250,-0.562376, 0.013628,-0.020295, 0.048080, 0.135374, 0.225416,-0.101387, 0.000000, 0.000001, 0.000003,1,0
1777416179554327642,1018723000000,  1018.728, 0.000220, 0.000299,-0.000052, 0.004504, 0.003377, 0.000332,-0.411305,-0.254066, 1.398188,1, 0.157923, 0.109884, 0.051676,1, 0.024505,-0.026467,-0.855212, 0.157923, 0.109885, 0.051679, 0.135758, 0.225539,-0.102787, 0.000000, 0.000001, 0.000003,1,0
1777416179564411070,1018723000000,  1018.728, 0.000220, 0.000299,-0.000052, 0.004504, 0.003377, 0.000332,-0.411305,-0.254066, 1.398188,1, 0.157923, 0.109884, 0.051676,1, 0.024505,-0.026467,-0.855212, 0.157923, 0.109885, 0.051679, 0.135758, 0.225539,-0.102787, 0.000000, 0.000001, 0.000003,1,0
1777416179574071012,1018743000000,  1018.748, 0.002095, 0.003926,-0.017167, 0.000826,-0.001864, 0.000422, 0.175901, 1.513605,-1.694839,1, 0.058566,-0.071960, 0.059545,1, 0.085005, 0.152646,-1.170571, 0.058566,-0.071959, 0.059548, 0.135150, 0.225543,-0.102678, 0.000000, 0.000001, 0.000003,1,0
1777416179584155051,1018743000000,  1018.748, 0.002095, 0.003926,-0.017167, 0.000826,-0.001864, 0.000422, 0.175901, 1.513605,-1.694839,1, 0.058566,-0.071960, 0.059545,1, 0.085005, 0.152646,-1.170571, 0.058566,-0.071959, 0.059548, 0.135150, 0.225543,-0.102678, 0.000000, 0.000001, 0.000003,1,0
1777416179603882016,1018763000000,  1018.768, 0.001098,-0.000938,-0.008594, 0.001202,-0.000135, 0.000697,-0.135039,-0.692105, 0.520899,1, 0.097158, 0.019325, 0.076671,1, 0.053046,-0.073707,-0.944642, 0.097158, 0.019326, 0.076674, 0.135177, 0.225137,-0.102822, 0.000000, 0.000001, 0.000003,1,0
1777416179613541143,1018783000000,  1018.788, 0.000626, 0.000755,-0.009799, 0.000136, 0.001048, 0.000476,-0.481510, 0.101517,-0.354373,1, 0.063019, 0.063187, 0.068825,1, 0.018020, 0.006412,-1.033872, 0.063019, 0.063188, 0.068828, 0.135099, 0.225133,-0.102636, 0.000000, 0.000001, 0.000003,1,0
1777416179623625682,1018783000000,  1018.788, 0.000626, 0.000755,-0.009799, 0.000136, 0.001048, 0.000476,-0.481510, 0.101517,-0.354373,1, 0.063019, 0.063187, 0.068825,1, 0.018020, 0.006412,-1.033872, 0.063019, 0.063188, 0.068828, 0.135099, 0.225133,-0.102636, 0.000000, 0.000001, 0.000003,1,0
1777416179633281384,1018803000000,  1018.808, 0.000162, 0.002100,-0.014996,-0.000418, 0.000098, 0.000672,-0.585921, 1.338025,-0.933648,1, 0.023256, 0.024368, 0.063611,1, 0.007808, 0.131911,-1.092910, 0.023256, 0.024369, 0.063614, 0.135244, 0.225211,-0.103482, 0.000000, 0.000001, 0.000003,1,0
1777416179643380904,1018803000000,  1018.808, 0.000162, 0.002100,-0.014996,-0.000418, 0.000098, 0.000672,-0.585921, 1.338025,-0.933648,1, 0.023256, 0.024368, 0.063611,1, 0.007808, 0.131911,-1.092910, 0.023256, 0.024369, 0.063614, 0.135244, 0.225211,-0.103482, 0.000000, 0.000001, 0.000003,1,0
1777416179658916005,1018823000000,  1018.828, 0.000272, 0.001414,-0.006177, 0.000109, 0.000530, 0.000756,-0.793690, 0.459410, 2.078784,1,-0.039200, 0.063099, 0.071152,1,-0.012862, 0.042440,-0.785693,-0.039200, 0.063100, 0.071155, 0.135866, 0.225322,-0.104047, 0.000000, 0.000001, 0.000003,1,0
1777416179668604686,1018843000000,  1018.843,-0.000115,-0.003030,-0.016050,-0.000577, 0.000455, 0.000899,-0.151764,-1.595679,-3.487148,1,-0.079722, 0.059620, 0.077375,1, 0.053389,-0.165925,-1.353210,-0.079721, 0.059621, 0.077378, 0.135797, 0.225806,-0.103395, 0.000000, 0.000001, 0.000003,1,0
1777416179678689021,1018843000000,  1018.843,-0.000115,-0.003030,-0.016050,-0.000577, 0.000455, 0.000899,-0.151764,-1.595679,-3.487148,1,-0.079722, 0.059620, 0.077375,1, 0.053389,-0.165925,-1.353210,-0.079721, 0.059621, 0.077378, 0.135797, 0.225806,-0.103395, 0.000000, 0.000001, 0.000003,1,0
1777416179688335520,1018863000000,  1018.863, 0.000313, 0.002460,-0.026433,-0.000932,-0.000138, 0.000454,-0.451129, 0.358941,-3.822780,1,-0.019557, 0.019916, 0.068315,1, 0.023605, 0.035078,-1.387387,-0.019557, 0.019917, 0.068318, 0.135539, 0.225911,-0.103324, 0.000000, 0.000001, 0.000003,1,0
1777416179698419541,1018863000000,  1018.863, 0.000313, 0.002460,-0.026433,-0.000932,-0.000138, 0.000454,-0.451129, 0.358941,-3.822780,1,-0.019557, 0.019916, 0.068315,1, 0.023605, 0.035078,-1.387387,-0.019557, 0.019917, 0.068318, 0.135539, 0.225911,-0.103324, 0.000000, 0.000001, 0.000003,1,0
1777416179717825752,1018883000000,  1018.883, 0.000233, 0.001410,-0.018306,-0.000223,-0.001526, 0.000401,-0.521613,-1.517371, 4.033582,1,-0.031987, 0.053822, 0.069897,1, 0.015107,-0.041311,-1.104388, 0.003777,-0.039730, 0.058687, 0.135270, 0.226228,-0.103218, 0.000000, 0.000001, 0.000003,1,0
1777416179727519377,1018903000000,  1018.903, 0.000071,-0.000618,-0.015439,-0.000524,-0.001202, 0.000194,-0.518536,-1.015536, 0.542786,1,-0.010650, 0.019397, 0.038855,1, 0.015205,-0.099573,-1.230456,-0.029532,-0.038723, 0.031101, 0.134828, 0.226589,-0.103190, 0.000000, 0.000001, 0.000003,1,0
1777416179737603435,1018903000000,  1018.903, 0.000071,-0.000618,-0.015439,-0.000524,-0.001202, 0.000194,-0.518536,-1.015536, 0.542786,1,-0.010650, 0.019397, 0.038855,1, 0.015205,-0.099573,-1.230456,-0.029532,-0.038723, 0.031101, 0.134828, 0.226589,-0.103190, 0.000000, 0.000001, 0.000003,1,0
1777416179747229954,1018923000000,  1018.923, 0.000706,-0.001124,-0.002808,-0.000569,-0.000402, 0.000137,-1.033514, 0.310846, 0.094607,1, 0.104398, 0.025127, 0.033535,1, 0.003657,-0.023283,-0.667600, 0.033759,-0.016179, 0.024839, 0.135524, 0.227035,-0.104191, 0.000000, 0.000001, 0.000003,1,0
1777416179757314085,1018923000000,  1018.923, 0.000706,-0.001124,-0.002808,-0.000569,-0.000402, 0.000137,-1.033514, 0.310846, 0.094607,1, 0.104398, 0.025127, 0.033535,1, 0.003657,-0.023283,-0.667600, 0.033759,-0.016179, 0.024839, 0.135524, 0.227035,-0.104191, 0.000000, 0.000001, 0.000003,1,0
1777416179777030532,1018943000000,  1018.943,-0.000910,-0.000810,-0.001890, 0.001108, 0.000403, 0.000108,-0.483703,-0.565892,-3.065316,1, 0.006306,-0.032289, 0.030889,1,-0.024505,-0.092653,-0.824188, 0.037047, 0.006628, 0.022355, 0.135811, 0.226808,-0.105771, 0.000000, 0.000001, 0.000003,1,0
1777416179796340806,1018963000000,  1018.963,-0.000211, 0.001834,-0.007734, 0.000572, 0.000095,-0.000045,-0.483114,-0.896293,-1.616450,1, 0.030059,-0.033459, 0.008462,1, 0.012574, 0.015141,-0.984202, 0.047993,-0.013804, 0.003828, 0.135161, 0.226684,-0.105749, 0.000000, 0.000001, 0.000003,1,0
1777416179806020580,1018983000000,  1018.983, 0.000586,-0.000616,-0.009933,-0.000002, 0.000261, 0.000320,-0.573583, 0.765303,-0.122912,1, 0.054300,-0.015006, 0.001397,1, 0.037809, 0.012550,-1.005521, 0.029331,-0.000392, 0.014969, 0.134649, 0.226964,-0.105624, 0.000000, 0.000001, 0.000003,1,0
1777416179816117933,1018983000000,  1018.983, 0.000586,-0.000616,-0.009933,-0.000002, 0.000261, 0.000320,-0.573583, 0.765303,-0.122912,1, 0.054300,-0.015006, 0.001397,1, 0.037809, 0.012550,-1.005521, 0.029331,-0.000392, 0.014969, 0.134649, 0.226964,-0.105624, 0.000000, 0.000001, 0.000003,1,0
1777416179835802493,1018993000000,  1018.998, 0.000541,-0.000494,-0.013173, 0.000094, 0.000200, 0.000092,-0.003844,-0.204522,-1.772663,1, 0.012475, 0.013220, 0.012558,1, 0.068559,-0.024751,-1.178373, 0.012475, 0.013221, 0.012560, 0.134836, 0.227448,-0.105593, 0.000000, 0.000001, 0.000003,1,0
1777416179845589389,1019013000000,  1019.018,-0.000595,-0.000256,-0.009586, 0.000486, 0.000587, 0.000093,-1.019594, 0.242693, 0.360954,1, 0.028652, 0.022144, 0.003645,1,-0.034801, 0.020116,-0.960787, 0.028653, 0.022145, 0.003648, 0.135285, 0.227212,-0.106384, 0.000000, 0.000001, 0.000003,1,0
1777416179855693315,1019013000000,  1019.018,-0.000595,-0.000256,-0.009586, 0.000486, 0.000587, 0.000093,-1.019594, 0.242693, 0.360954,1, 0.028652, 0.022144, 0.003645,1,-0.034801, 0.020116,-0.960787, 0.028653, 0.022145, 0.003648, 0.135285, 0.227212,-0.106384, 0.000000, 0.000001, 0.000003,1,0
1777416179865237730,1019033000000,  1019.038, 0.000299,-0.000288,-0.011285,-0.001908, 0.000021, 0.000187,-0.411383, 1.072992,-0.378936,1,-0.095487, 0.013871, 0.005169,1, 0.027395, 0.104924,-1.036223,-0.095486, 0.013872, 0.005172, 0.134653, 0.227701,-0.106287, 0.000000, 0.000001, 0.000003,1,0
1777416179875323676,1019033000000,  1019.038, 0.000299,-0.000288,-0.011285,-0.001908, 0.000021, 0.000187,-0.411383, 1.072992,-0.378936,1,-0.095487, 0.013871, 0.005169,1, 0.027395, 0.104924,-1.036223,-0.095486, 0.013872, 0.005172, 0.134653, 0.227701,-0.106287, 0.000000, 0.000001, 0.000003,1,0
1777416179895028661,1019053000000,  1019.058, 0.000218, 0.000408,-0.011120,-0.000261, 0.000340, 0.000742,-0.688452, 0.218687, 0.244340,1,-0.040870, 0.023682, 0.053368,1,-0.000582, 0.018727,-0.972651,-0.040870, 0.023683, 0.053370, 0.134720, 0.228211,-0.106189, 0.000000, 0.000001, 0.000003,1,0
1777416179914761606,1019073000000,  1019.078,-0.001087,-0.002341,-0.004415,-0.001975, 0.000450, 0.001062,-0.855198,-0.755625, 0.172138,1,-0.228992, 0.017748, 0.070244,1,-0.016651,-0.079529,-0.979950,-0.228992, 0.017749, 0.070246, 0.134383, 0.229280,-0.106669, 0.000000, 0.000001, 0.000003,1,0
1777416179924433121,1019093000000,  1019.098, 0.000659,-0.002849,-0.005841,-0.001531, 0.000391, 0.000655,-0.768054,-1.010177, 0.835295,1,-0.102451, 0.019847, 0.059777,1,-0.006977,-0.104082,-0.912273,-0.102450, 0.019848, 0.059780, 0.134686, 0.229803,-0.106533, 0.000000, 0.000001, 0.000003,1,0
1777416179934517068,1019093000000,  1019.098, 0.000659,-0.002849,-0.005841,-0.001531, 0.000391, 0.000655,-0.768054,-1.010177, 0.835295,1,-0.102451, 0.019847, 0.059777,1,-0.006977,-0.104082,-0.912273,-0.102450, 0.019848, 0.059780, 0.134686, 0.229803,-0.106533, 0.000000, 0.000001, 0.000003,1,0
1777416179944188454,1019113000000,  1019.118,-0.000216,-0.000659,-0.007838, 0.000061,-0.000359, 0.000183,-0.435989,-0.766641, 1.256278,1, 0.012397,-0.019176, 0.036124,1, 0.026683,-0.079083,-0.869361, 0.012397,-0.019175, 0.036127, 0.134893, 0.229878,-0.106849, 0.000000, 0.000001, 0.000003,1,0
1777416179954272845,1019113000000,  1019.118,-0.000216,-0.000659,-0.007838, 0.000061,-0.000359, 0.000183,-0.435989,-0.766641, 1.256278,1, 0.012397,-0.019176, 0.036124,1, 0.026683,-0.079083,-0.869361, 0.012397,-0.019175, 0.036127, 0.134893, 0.229878,-0.106849, 0.000000, 0.000001, 0.000003,1,0
1777416179973981496,1019133000000,  1019.138, 0.000606,-0.001448, 0.008023, 0.003603, 0.002193, 0.000196,-0.415543,-0.810921, 4.327727,1, 0.126537, 0.103049, 0.031794,1, 0.029133,-0.084288,-0.556131, 0.126537, 0.103050, 0.031796, 0.135906, 0.230056,-0.107100, 0.000000, 0.000001, 0.000003,1,0
1777416179983660103,1019153000000,  1019.158,-0.001616, 0.000579,-0.022252, 0.000384, 0.001054, 0.000472,-0.957829,-0.110485,-4.057538,1, 0.017683, 0.009708, 0.037469,1,-0.026412,-0.012640,-1.411209, 0.017684, 0.009709, 0.037471, 0.134493, 0.229898,-0.107805, 0.000000, 0.000001, 0.000003,1,0
1777416179993805675,1019153000000,  1019.158,-0.001616, 0.000579,-0.022252, 0.000384, 0.001054, 0.000472,-0.957829,-0.110485,-4.057538,1, 0.017683, 0.009708, 0.037469,1,-0.026412,-0.012640,-1.411209, 0.017684, 0.009709, 0.037471, 0.134493, 0.229898,-0.107805, 0.000000, 0.000001, 0.000003,1,0
1777416180003406103,1019173000000,  1019.178, 0.000139,-0.001278,-0.014812, 0.000028,-0.000345, 0.000000,-0.427520,-0.833590,-1.291296,1, 0.005013,-0.001114, 0.024277,1, 0.027898,-0.086768,-1.129115, 0.005014,-0.001113, 0.024280, 0.134399, 0.230500,-0.107985, 0.000000, 0.000001, 0.000003,1,0
1777416180013490681,1019173000000,  1019.178, 0.000139,-0.001278,-0.014812, 0.000028,-0.000345, 0.000000,-0.427520,-0.833590,-1.291296,1, 0.005013,-0.001114, 0.024277,1, 0.027898,-0.086768,-1.129115, 0.005014,-0.001113, 0.024280, 0.134399, 0.230500,-0.107985, 0.000000, 0.000001, 0.000003,1,0
1777416180029033969,1019193000000,  1019.198, 0.000565,-0.000157,-0.007908, 0.000304, 0.000938,-0.000057,-0.633353,-0.315505, 0.512357,1, 0.046635, 0.017329, 0.009609,1, 0.006551,-0.034599,-0.945218, 0.046635, 0.017330, 0.009612, 0.134473, 0.231091,-0.109517, 0.000000, 0.000001, 0.000003,1,0
1777416180048766139,1019213000000,  1019.218,-0.000217,-0.000839,-0.012903,-0.000037,-0.000433, 0.000044,-0.480585,-0.533745,-1.301613,1, 0.017469,-0.018450, 0.006494,1, 0.022008,-0.057368,-1.130198, 0.017469,-0.018449, 0.006496, 0.134634, 0.231333,-0.109358, 0.000000, 0.000001, 0.000003,1,0
1777416180058473765,1019233000000,  1019.233, 0.001200, 0.001267,-0.011145, 0.000447, 0.000017, 0.000064,-0.265245, 0.908233,-0.128939,1, 0.027118,-0.005083, 0.000467,1, 0.043919, 0.089035,-1.010620, 0.027118,-0.005082, 0.000470, 0.134395, 0.231905,-0.109179, 0.000000, 0.000001, 0.000003,1,0
1777416180068557546,1019233000000,  1019.233, 0.001200, 0.001267,-0.011145, 0.000447, 0.000017, 0.000064,-0.265245, 0.908233,-0.128939,1, 0.027118,-0.005083, 0.000467,1, 0.043919, 0.089035,-1.010620, 0.027118,-0.005082, 0.000470, 0.134395, 0.231905,-0.109179, 0.000000, 0.000001, 0.000003,1,0
1777416180078187510,1019253000000,  1019.253,-0.000091,-0.000848,-0.009293,-0.001414,-0.000273, 0.000257,-0.695222, 0.897668, 0.673019,1,-0.056501,-0.016637, 0.012777,1, 0.000008, 0.087902,-0.928848,-0.056500,-0.016637, 0.012779, 0.133966, 0.232800,-0.109648, 0.000000, 0.000001, 0.000003,1,0
1777416180088272477,1019253000000,  1019.253,-0.000091,-0.000848,-0.009293,-0.001414,-0.000273, 0.000257,-0.695222, 0.897668, 0.673019,1,-0.056501,-0.016637, 0.012777,1, 0.000008, 0.087902,-0.928848,-0.056500,-0.016637, 0.012779, 0.133966, 0.232800,-0.109648, 0.000000, 0.000001, 0.000003,1,0
1777416180107667729,1019273000000,  1019.273,-0.000863,-0.001715,-0.009785, 0.000693,-0.000035, 0.000711,-0.679522, 0.494555, 0.081617,1,-0.069219, 0.013152, 0.032159,1,-0.057820,-0.075610,-1.021099, 0.002560, 0.006858, 0.052871, 0.134145, 0.234277,-0.109868, 0.000000, 0.000001, 0.000003,1,0
1777416180117341468,1019293000000,  1019.293, 0.002804,-0.001738,-0.020234,-0.003752,-0.000736, 0.000786,-1.293065, 1.761773, 4.382678,1, 0.086011, 0.070018, 0.030309,1, 0.092729, 0.093610,-1.300533,-0.098197, 0.013589, 0.048622, 0.134388, 0.234710,-0.110606, 0.000000, 0.000001, 0.000003,1,0
1777416180127426342,1019293000000,  1019.293, 0.002804,-0.001738,-0.020234,-0.003752,-0.000736, 0.000786,-1.293065, 1.761773, 4.382678,1, 0.086011, 0.070018, 0.030309,1, 0.092729, 0.093610,-1.300533,-0.098197, 0.013589, 0.048622, 0.134388, 0.234710,-0.110606, 0.000000, 0.000001, 0.000003,1,0
1777416180137058769,1019313000000,  1019.313, 0.002132,-0.000854,-0.013444,-0.001168,-0.000694, 0.000394,-1.251071, 0.469916, 2.645648,1,-0.010708, 0.023288, 0.043058,1, 0.063149, 0.017332,-1.077989,-0.057532,-0.024561, 0.039036, 0.134780, 0.235283,-0.110957, 0.000000, 0.000001, 0.000003,1,0
1777416180147141810,1019313000000,  1019.313, 0.002132,-0.000854,-0.013444,-0.001168,-0.000694, 0.000394,-1.251071, 0.469916, 2.645648,1,-0.010708, 0.023288, 0.043058,1, 0.063149, 0.017332,-1.077989,-0.057532,-0.024561, 0.039036, 0.134780, 0.235283,-0.110957, 0.000000, 0.000001, 0.000003,1,0
1777416180166875887,1019333000000,  1019.333,-0.001292,-0.000736,-0.010863, 0.000015,-0.001252, 0.000262,-0.034729,-0.221150, 1.293165,1, 0.010134,-0.051416, 0.042074,1,-0.027966,-0.036038,-0.965296, 0.002746,-0.091356, 0.033555, 0.135227, 0.235217,-0.111588, 0.000000, 0.000001, 0.000003,1,0
1777416180176547460,1019353000000,  1019.353,-0.000695, 0.000296,-0.001117, 0.003596, 0.002000, 0.000212,-1.172221,-0.374818,-3.799611,1,-0.067868,-0.103095, 0.022713,1,-0.069902,-0.038624,-0.748896, 0.125295, 0.034042, 0.022743, 0.135590, 0.235557,-0.111879, 0.000000, 0.000001, 0.000003,1,0
1777416180186630463,1019353000000,  1019.353,-0.000695, 0.000296,-0.001117, 0.003596, 0.002000, 0.000212,-1.172221,-0.374818,-3.799611,1,-0.067868,-0.103095, 0.022713,1,-0.069902,-0.038624,-0.748896, 0.125295, 0.034042, 0.022743, 0.135590, 0.235557,-0.111879, 0.000000, 0.000001, 0.000003,1,0
1777416180196298684,1019373000000,  1019.373,-0.000824, 0.001934,-0.017655, 0.000170,-0.001389, 0.000062,-0.398441,-0.239513, 1.696145,1,-0.021494,-0.048056, 0.012656,1,-0.040495, 0.097470,-1.168689,-0.004010,-0.077407, 0.010728, 0.135408, 0.236001,-0.112929, 0.000000, 0.000001, 0.000003,1,0
1777416180206382003,1019373000000,  1019.373,-0.000824, 0.001934,-0.017655, 0.000170,-0.001389, 0.000062,-0.398441,-0.239513, 1.696145,1,-0.021494,-0.048056, 0.012656,1,-0.040495, 0.097470,-1.168689,-0.004010,-0.077407, 0.010728, 0.135408, 0.236001,-0.112929, 0.000000, 0.000001, 0.000003,1,0
1777416180216026744,1019393000000,  1019.393,-0.000377, 0.000318,-0.010358, 0.001071,-0.001299,-0.000002,-0.507518,-0.392695, 0.081528,1, 0.012608,-0.007233, 0.013751,1,-0.024813,-0.015621,-1.011700, 0.055340,-0.059411, 0.009259, 0.136038, 0.237031,-0.112654, 0.000000, 0.000001, 0.000003,1,0
1777416180226110599,1019393000000,  1019.393,-0.000377, 0.000318,-0.010358, 0.001071,-0.001299,-0.000002,-0.507518,-0.392695, 0.081528,1, 0.012608,-0.007233, 0.013751,1,-0.024813,-0.015621,-1.011700, 0.055340,-0.059411, 0.009259, 0.136038, 0.237031,-0.112654, 0.000000, 0.000001, 0.000003,1,0
1777416180245824864,1019413000000,  1019.413,-0.000348, 0.000946,-0.005651, 0.000080,-0.000582, 0.000185,-0.267101, 0.309323,-1.404612,1, 0.082938,-0.052549, 0.021189,1, 0.004672, 0.054971,-0.900945, 0.047359,-0.053473, 0.021505, 0.136415, 0.237657,-0.114207, 0.000000, 0.000001, 0.000003,1,0
1777416180255546988,1019423000000,  1019.428, 0.000398, 0.000629,-0.014761,-0.000043,-0.000748, 0.000463,-0.556495, 0.620362,-1.548261,1, 0.022884,-0.065803, 0.034039,1, 0.008817, 0.059125,-1.155718, 0.022884,-0.065802, 0.034042, 0.136110, 0.238133,-0.114115, 0.000000, 0.000001, 0.000003,1,0
1777416180265630880,1019423000000,  1019.428, 0.000398, 0.000629,-0.014761,-0.000043,-0.000748, 0.000463,-0.556495, 0.620362,-1.548261,1, 0.022884,-0.065803, 0.034039,1, 0.008817, 0.059125,-1.155718, 0.022884,-0.065802, 0.034042, 0.136110, 0.238133,-0.114115, 0.000000, 0.000001, 0.000003,1,0
1777416180275243883,1019443000000,  1019.448, 0.000054, 0.001508,-0.010169, 0.000645, 0.000100, 0.000535,-0.438954, 0.410618,-0.173327,1, 0.072588,-0.000515, 0.050704,1, 0.020192, 0.036543,-1.015548, 0.072588,-0.000515, 0.050707, 0.136847, 0.238840,-0.115310, 0.000000, 0.000001, 0.000003,1,0
1777416180285341997,1019443000000,  1019.448, 0.000054, 0.001508,-0.010169, 0.000645, 0.000100, 0.000535,-0.438954, 0.410618,-0.173327,1, 0.072588,-0.000515, 0.050704,1, 0.020192, 0.036543,-1.015548, 0.072588,-0.000515, 0.050707, 0.136847, 0.238840,-0.115310, 0.000000, 0.000001, 0.000003,1,0
1777416180305038374,1019463000000,  1019.468,-0.000413, 0.000825,-0.010300, 0.000260, 0.000042, 0.000922,-0.735053, 0.169077, 0.192415,1, 0.067163,-0.010499, 0.081207,1,-0.010482, 0.011421,-0.978281, 0.067163,-0.010498, 0.081210, 0.137010, 0.239421,-0.115400, 0.000000, 0.000001, 0.000003,1,0
1777416180324783284,1019483000000,  1019.488, 0.000506,-0.001571,-0.016687,-0.000322, 0.000539, 0.001246,-0.278411,-0.138004,-1.893007,1,-0.021660, 0.025532, 0.107294,1, 0.035878,-0.018660,-1.190954,-0.021660, 0.025533, 0.107296, 0.137504, 0.240624,-0.115200, 0.000000, 0.000001, 0.000003,1,0
1777416180334449264,1019503000000,  1019.508,-0.000997,-0.000540,-0.003580,-0.002375, 0.000010, 0.001169,-0.829443,-0.432147, 0.702677,1,-0.188751,-0.010270, 0.104042,1,-0.019859,-0.048122,-0.926241,-0.188751,-0.010269, 0.104045, 0.138469, 0.241109,-0.114556, 0.000000, 0.000001, 0.000003,1,0
1777416180344533027,1019503000000,  1019.508,-0.000997,-0.000540,-0.003580,-0.002375, 0.000010, 0.001169,-0.829443,-0.432147, 0.702677,1,-0.188751,-0.010270, 0.104042,1,-0.019859,-0.048122,-0.926241,-0.188751,-0.010269, 0.104045, 0.138469, 0.241109,-0.114556, 0.000000, 0.000001, 0.000003,1,0
1777416180354196785,1019523000000,  1019.528, 0.000712,-0.000658,-0.006852,-0.000539, 0.000678, 0.001273,-0.421723,-0.378831, 0.657557,1,-0.058053, 0.003443, 0.117177,1, 0.021767,-0.041304,-0.930844,-0.058053, 0.003444, 0.117179, 0.139533, 0.241646,-0.115225, 0.000000, 0.000001, 0.000003,1,0
1777416180364280085,1019523000000,  1019.528, 0.000712,-0.000658,-0.006852,-0.000539, 0.000678, 0.001273,-0.421723,-0.378831, 0.657557,1,-0.058053, 0.003443, 0.117177,1, 0.021767,-0.041304,-0.930844,-0.058053, 0.003444, 0.117179, 0.139533, 0.241646,-0.115225, 0.000000, 0.000001, 0.000003,1,0
1777416180383999312,1019543000000,  1019.548, 0.000028,-0.001894,-0.012705,-0.000057,-0.000569, 0.000761,-0.557185,-0.694719,-0.131884,1,-0.023636,-0.034768, 0.088923,1, 0.007721,-0.073153,-1.011361,-0.023636,-0.034767, 0.088925, 0.140457, 0.242036,-0.116805, 0.000000, 0.000001, 0.000003,1,0
1777416180393669181,1019563000000,  1019.568,-0.000549, 0.004941,-0.013266, 0.000105, 0.000110, 0.000674,-0.824414, 2.180689,-1.350574,1, 0.019200, 0.013335, 0.078191,1,-0.020015, 0.220101,-1.135664, 0.019201, 0.013336, 0.078194, 0.140979, 0.242137,-0.117248, 0.000000, 0.000001, 0.000003,1,0
1777416180403753462,1019563000000,  1019.568,-0.000549, 0.004941,-0.013266, 0.000105, 0.000110, 0.000674,-0.824414, 2.180689,-1.350574,1, 0.019200, 0.013335, 0.078191,1,-0.020015, 0.220101,-1.135664, 0.019201, 0.013336, 0.078194, 0.140979, 0.242137,-0.117248, 0.000000, 0.000001, 0.000003,1,0
1777416180413415239,1019583000000,  1019.588,-0.000804, 0.000647,-0.024541,-0.000228,-0.002468, 0.001103,-0.592224, 0.420742,-3.671384,1, 0.002288,-0.090929, 0.097872,1, 0.003432, 0.039760,-1.372332, 0.002288,-0.090928, 0.097875, 0.141914, 0.242870,-0.116985, 0.000000, 0.000001, 0.000003,1,0
1777416180423499317,1019583000000,  1019.588,-0.000804, 0.000647,-0.024541,-0.000228,-0.002468, 0.001103,-0.592224, 0.420742,-3.671384,1, 0.002288,-0.090929, 0.097872,1, 0.003432, 0.039760,-1.372332, 0.002288,-0.090928, 0.097875, 0.141914, 0.242870,-0.116985, 0.000000, 0.000001, 0.000003,1,0
1777416180439046920,1019603000000,  1019.608, 0.000265, 0.000902,-0.009174, 0.000619,-0.000550, 0.000521,-0.736789, 0.006514, 1.360133,1, 0.078085,-0.025289, 0.078450,1,-0.011628,-0.003288,-0.859278, 0.078085,-0.025289, 0.078452, 0.142687, 0.243648,-0.116965, 0.000000, 0.000001, 0.000003,1,0
1777416180458783108,1019623000000,  1019.628, 0.000170,-0.000526,-0.003229, 0.001138,-0.000206, 0.000835,-0.462099, 0.229238, 2.479694,1, 0.075575, 0.008578, 0.079533,1, 0.016271, 0.018387,-0.745117, 0.075575, 0.008579, 0.079535, 0.143844, 0.244114,-0.118369, 0.000000, 0.000001, 0.000003,1,0
1777416180468464550,1019643000000,  1019.643,-0.000442,-0.000900,-0.009351, 0.001638, 0.000830, 0.000757,-0.839511,-0.037184, 0.506326,1, 0.113614, 0.023065, 0.079826,1,-0.022412,-0.009484,-0.946354, 0.113614, 0.023066, 0.079829, 0.144755, 0.244484,-0.118084, 0.000000, 0.000001, 0.000003,1,0
1777416180478547961,1019643000000,  1019.643,-0.000442,-0.000900,-0.009351, 0.001638, 0.000830, 0.000757,-0.839511,-0.037184, 0.506326,1, 0.113614, 0.023065, 0.079826,1,-0.022412,-0.009484,-0.946354, 0.113614, 0.023066, 0.079829, 0.144755, 0.244484,-0.118084, 0.000000, 0.000001, 0.000003,1,0
1777416180488188592,1019663000000,  1019.663, 0.000358, 0.000944,-0.012150, 0.000251,-0.000839, 0.000280,-0.591538, 0.508817, 0.215018,1, 0.009417,-0.031274, 0.045635,1, 0.002883, 0.045387,-0.976053, 0.009417,-0.031273, 0.045638, 0.145104, 0.245068,-0.119761, 0.000000, 0.000001, 0.000003,1,0
1777416180498287020,1019663000000,  1019.663, 0.000358, 0.000944,-0.012150, 0.000251,-0.000839, 0.000280,-0.591538, 0.508817, 0.215018,1, 0.009417,-0.031274, 0.045635,1, 0.002883, 0.045387,-0.976053, 0.009417,-0.031273, 0.045638, 0.145104, 0.245068,-0.119761, 0.000000, 0.000001, 0.000003,1,0
1777416180517663514,1019683000000,  1019.683, 0.000768,-0.001760,-0.005691,-0.000158, 0.000494, 0.000393,-1.008610, 0.359915,-1.053811,1,-0.054452,-0.014859, 0.051135,1, 0.009478,-0.073879,-0.863191,-0.063881, 0.024167, 0.044598, 0.145887, 0.245188,-0.119667, 0.000000, 0.000001, 0.000003,1,0
1777416180527348456,1019703000000,  1019.703, 0.000076,-0.002916,-0.012576,-0.000443, 0.000774, 0.000448,-0.046729,-0.207404,-1.165673,1,-0.101031,-0.003503, 0.043989,1, 0.077082,-0.170952,-1.239334,-0.091873, 0.034934, 0.042516, 0.146082, 0.245546,-0.119739, 0.000000, 0.000001, 0.000003,1,0
1777416180537432960,1019703000000,  1019.703, 0.000076,-0.002916,-0.012576,-0.000443, 0.000774, 0.000448,-0.046729,-0.207404,-1.165673,1,-0.101031,-0.003503, 0.043989,1, 0.077082,-0.170952,-1.239334,-0.091873, 0.034934, 0.042516, 0.146082, 0.245546,-0.119739, 0.000000, 0.000001, 0.000003,1,0
1777416180547097847,1019723000000,  1019.723, 0.000470, 0.000190,-0.023939,-0.000056,-0.001158, 0.000276,-0.598650,-1.143713, 3.849313,1,-0.139783, 0.026559, 0.062940,1,-0.000679,-0.088696,-1.269425,-0.052000,-0.036482, 0.049093, 0.147269, 0.246015,-0.119623, 0.000000, 0.000001, 0.000003,1,0
1777416180557181740,1019723000000,  1019.723, 0.000470, 0.000190,-0.023939,-0.000056,-0.001158, 0.000276,-0.598650,-1.143713, 3.849313,1,-0.139783, 0.026559, 0.062940,1,-0.000679,-0.088696,-1.269425,-0.052000,-0.036482, 0.049093, 0.147269, 0.246015,-0.119623, 0.000000, 0.000001, 0.000003,1,0
1777416180576892505,1019743000000,  1019.743,-0.000252, 0.000034,-0.007149, 0.000729,-0.000498, 0.000226,-0.500930,-0.407953, 1.399936,1,-0.077203, 0.022073, 0.036736,1,-0.016220,-0.026009,-0.741409,-0.002826,-0.006866, 0.030824, 0.148304, 0.246162,-0.119995, 0.000000, 0.000001, 0.000003,1,0
1777416180586578724,1019763000000,  1019.763,-0.000858,-0.000524,-0.001876, 0.000505,-0.000437, 0.000253, 0.018628,-0.490740,-2.162772,1,-0.020249,-0.024643, 0.031515,1, 0.009901,-0.070957,-0.786133, 0.008014,-0.027871, 0.028765, 0.148717, 0.245565,-0.120305, 0.000000, 0.000001, 0.000003,1,0
1777416180596662968,1019763000000,  1019.763,-0.000858,-0.000524,-0.001876, 0.000505,-0.000437, 0.000253, 0.018628,-0.490740,-2.162772,1,-0.020249,-0.024643, 0.031515,1, 0.009901,-0.070957,-0.786133, 0.008014,-0.027871, 0.028765, 0.148717, 0.245565,-0.120305, 0.000000, 0.000001, 0.000003,1,0
1777416180606319301,1019783000000,  1019.783,-0.000701, 0.000428, 0.002440, 0.003238, 0.001838, 0.000236,-0.460561,-0.704056,-4.239440,1,-0.104455,-0.072433, 0.014453,1, 0.008202,-0.087566,-0.707734, 0.084733, 0.052140, 0.022686, 0.149513, 0.245662,-0.120702, 0.000000, 0.000001, 0.000003,1,0
1777416180616403305,1019783000000,  1019.783,-0.000701, 0.000428, 0.002440, 0.003238, 0.001838, 0.000236,-0.460561,-0.704056,-4.239440,1,-0.104455,-0.072433, 0.014453,1, 0.008202,-0.087566,-0.707734, 0.084733, 0.052140, 0.022686, 0.149513, 0.245662,-0.120702, 0.000000, 0.000001, 0.000003,1,0
1777416180626071248,1019803000000,  1019.803,-0.001099,-0.000426,-0.014599, 0.000203,-0.000869, 0.000145, 0.054194, 0.513695, 1.140424,1, 0.005221,-0.004537, 0.005809,1,-0.018269, 0.024526,-1.139237, 0.007538,-0.038782, 0.008748, 0.149745, 0.245601,-0.121239, 0.000000, 0.000001, 0.000003,1,0
1777416180636155474,1019803000000,  1019.803,-0.001099,-0.000426,-0.014599, 0.000203,-0.000869, 0.000145, 0.054194, 0.513695, 1.140424,1, 0.005221,-0.004537, 0.005809,1,-0.018269, 0.024526,-1.139237, 0.007538,-0.038782, 0.008748, 0.149745, 0.245601,-0.121239, 0.000000, 0.000001, 0.000003,1,0
1777416180655835315,1019823000000,  1019.823,-0.000141,-0.001985,-0.012444, 0.000909,-0.000365,-0.000058,-0.573659, 0.108733, 1.083715,1, 0.001558,-0.031012, 0.004575,1,-0.016066,-0.074030,-1.090078, 0.021686,-0.034541,-0.001834, 0.150589, 0.245843,-0.122377, 0.000000, 0.000001, 0.000003,1,0
1777416180665574882,1019833000000,  1019.838,-0.000079, 0.001142,-0.013088, 0.001933, 0.000121,-0.000059,-0.705021,-0.028821,-1.418810,1, 0.100041,-0.007152,-0.002016,1,-0.010382,-0.006927,-1.142776, 0.100041,-0.007151,-0.002013, 0.151257, 0.245608,-0.121896, 0.000000, 0.000001, 0.000003,1,0
1777416180675659589,1019833000000,  1019.838,-0.000079, 0.001142,-0.013088, 0.001933, 0.000121,-0.000059,-0.705021,-0.028821,-1.418810,1, 0.100041,-0.007152,-0.002016,1,-0.010382,-0.006927,-1.142776, 0.100041,-0.007151,-0.002013, 0.151257, 0.245608,-0.121896, 0.000000, 0.000001, 0.000003,1,0
1777416180685248298,1019853000000,  1019.858, 0.000664, 0.000878,-0.014660, 0.000314,-0.000299,-0.000121,-0.824387, 0.589142,-1.069014,1, 0.054798,-0.000223,-0.006270,1,-0.022366, 0.054745,-1.107089, 0.054798,-0.000222,-0.006268, 0.151173, 0.245460,-0.122402, 0.000000, 0.000001, 0.000003,1,0
1777416180695331820,1019853000000,  1019.858, 0.000664, 0.000878,-0.014660, 0.000314,-0.000299,-0.000121,-0.824387, 0.589142,-1.069014,1, 0.054798,-0.000223,-0.006270,1,-0.022366, 0.054745,-1.107089, 0.054798,-0.000222,-0.006268, 0.151173, 0.245460,-0.122402, 0.000000, 0.000001, 0.000003,1,0
1777416180715055620,1019873000000,  1019.878, 0.001264, 0.001096,-0.014908, 0.000244,-0.001186, 0.000137,-0.113937, 0.244785,-0.538114,1, 0.044726,-0.014112, 0.004268,1, 0.050300, 0.018782,-1.052934, 0.044726,-0.014111, 0.004271, 0.151914, 0.245628,-0.123506, 0.000000, 0.000001, 0.000003,1,0
1777416180734807586,1019893000000,  1019.898, 0.000877, 0.000404,-0.017278,-0.001619, 0.000506, 0.000161,-0.642878, 0.490668,-1.891454,1,-0.038044, 0.019934, 0.017232,1,-0.003745, 0.044319,-1.190946,-0.038044, 0.019935, 0.017235, 0.152392, 0.245088,-0.123334, 0.000000, 0.000001, 0.000003,1,0
1777416180744476529,1019913000000,  1019.918, 0.000729, 0.000422,-0.016316,-0.001109,-0.000080, 0.000627, 0.022073, 0.412980,-2.515602,1,-0.082754, 0.038954, 0.036335,1, 0.064894, 0.037179,-1.254543,-0.082754, 0.038955, 0.036338, 0.152910, 0.244643,-0.124203, 0.000000, 0.000001, 0.000003,1,0
1777416180754560180,1019913000000,  1019.918, 0.000729, 0.000422,-0.016316,-0.001109,-0.000080, 0.000627, 0.022073, 0.412980,-2.515602,1,-0.082754, 0.038954, 0.036335,1, 0.064894, 0.037179,-1.254543,-0.082754, 0.038955, 0.036338, 0.152910, 0.244643,-0.124203, 0.000000, 0.000001, 0.000003,1,0
1777416180764214013,1019933000000,  1019.938, 0.000682,-0.000286,-0.025371, 0.000501, 0.000943, 0.000884,-0.869706,-0.032355,-3.674584,1,-0.069797, 0.038893, 0.075736,1,-0.025244,-0.006556,-1.372682,-0.069797, 0.038894, 0.075739, 0.153673, 0.244186,-0.124521, 0.000000, 0.000001, 0.000003,1,0
1777416180774297962,1019933000000,  1019.938, 0.000682,-0.000286,-0.025371, 0.000501, 0.000943, 0.000884,-0.869706,-0.032355,-3.674584,1,-0.069797, 0.038893, 0.075736,1,-0.025244,-0.006556,-1.372682,-0.069797, 0.038894, 0.075739, 0.153673, 0.244186,-0.124521, 0.000000, 0.000001, 0.000003,1,0
1777416180793651217,1019953000000,  1019.958, 0.002133, 0.000397,-0.010649, 0.000734,-0.001225, 0.000282,-0.069577,-0.152256, 1.156733,1, 0.018977,-0.023971, 0.061840,1, 0.057498,-0.018106,-0.879953, 0.018977,-0.023971, 0.061843, 0.153975, 0.243286,-0.123864, 0.000000, 0.000001, 0.000003,1,0
1777416180803278089,1019973000000,  1019.978,-0.000170, 0.000647,-0.005747, 0.000017,-0.000569, 0.000588,-0.675870,-0.073706, 1.048343,1, 0.010286,-0.018516, 0.067200,1,-0.004747,-0.010144,-0.891034, 0.010286,-0.018515, 0.067203, 0.154489, 0.242906,-0.124457, 0.000000, 0.000001, 0.000003,1,0
1777416180813362426,1019973000000,  1019.978,-0.000170, 0.000647,-0.005747, 0.000017,-0.000569, 0.000588,-0.675870,-0.073706, 1.048343,1, 0.010286,-0.018516, 0.067200,1,-0.004747,-0.010144,-0.891034, 0.010286,-0.018515, 0.067203, 0.154489, 0.242906,-0.124457, 0.000000, 0.000001, 0.000003,1,0
1777416180828909954,1019993000000,  1019.998, 0.000093, 0.000892, 0.000081, 0.002962, 0.002720, 0.000615,-0.549633,-0.535875, 2.057743,1, 0.081870, 0.097363, 0.063849,1, 0.008278,-0.057457,-0.788093, 0.081870, 0.097364, 0.063851, 0.156030, 0.242799,-0.124421, 0.000000, 0.000001, 0.000003,1,0
1777416180838598581,1020013000000,  1020.018,-0.000208, 0.000710,-0.016499, 0.000488,-0.000101, 0.000523,-0.491956, 0.682662,-2.086761,1, 0.017485,-0.007609, 0.048516,1, 0.014286, 0.066418,-1.210706, 0.017485,-0.007608, 0.048519, 0.156473, 0.241949,-0.125500, 0.000000, 0.000001, 0.000003,1,0
1777416180848699491,1020013000000,  1020.018,-0.000208, 0.000710,-0.016499, 0.000488,-0.000101, 0.000523,-0.491956, 0.682662,-2.086761,1, 0.017485,-0.007609, 0.048516,1, 0.014286, 0.066418,-1.210706, 0.017485,-0.007608, 0.048519, 0.156473, 0.241949,-0.125500, 0.000000, 0.000001, 0.000003,1,0
1777416180858363286,1020033000000,  1020.033,-0.000758,-0.001022,-0.013744, 0.000081,-0.000886, 0.000453,-1.311816,-0.338727,-1.095097,1, 0.018289,-0.043439, 0.049688,1,-0.069750,-0.038842,-1.109608, 0.018289,-0.043439, 0.049691, 0.157574, 0.241842,-0.126149, 0.000000, 0.000001, 0.000003,1,0
1777416180868450604,1020033000000,  1020.033,-0.000758,-0.001022,-0.013744, 0.000081,-0.000886, 0.000453,-1.311816,-0.338727,-1.095097,1, 0.018289,-0.043439, 0.049688,1,-0.069750,-0.038842,-1.109608, 0.018289,-0.043439, 0.049691, 0.157574, 0.241842,-0.126149, 0.000000, 0.000001, 0.000003,1,0
1777416180887796897,1020053000000,  1020.053,-0.000586, 0.000846,-0.009127,-0.000885,-0.000052, 0.000259,-0.994566,-0.044216, 0.532467,1, 0.062596, 0.013111, 0.040948,1,-0.056605, 0.058279,-0.933393,-0.011031,-0.001213, 0.033412, 0.157612, 0.241245,-0.127144, 0.000000, 0.000001, 0.000003,1,0
1777416180897452100,1020073000000,  1020.073,-0.001351,-0.000946,-0.003265, 0.001092,-0.000111, 0.000489,-0.423161, 0.157575,-1.553754,1, 0.005531, 0.031040, 0.036399,1,-0.049560,-0.053974,-0.804017, 0.042021, 0.019438, 0.042581, 0.157593, 0.240848,-0.126824, 0.000000, 0.000001, 0.000003,1,0
1777416180907541214,1020073000000,  1020.073,-0.001351,-0.000946,-0.003265, 0.001092,-0.000111, 0.000489,-0.423161, 0.157575,-1.553754,1, 0.005531, 0.031040, 0.036399,1,-0.049560,-0.053974,-0.804017, 0.042021, 0.019438, 0.042581, 0.157593, 0.240848,-0.126824, 0.000000, 0.000001, 0.000003,1,0
1777416180917258283,1020093000000,  1020.093,-0.000951,-0.000733,-0.007942,-0.000574, 0.000205, 0.000626,-0.629982, 0.366493,-1.059925,1, 0.038339,-0.015738, 0.047645,1,-0.048749,-0.032577,-1.033373,-0.008497, 0.003524, 0.057582, 0.158027, 0.240454,-0.126493, 0.000000, 0.000001, 0.000003,1,0
1777416180927356471,1020093000000,  1020.093,-0.000951,-0.000733,-0.007942,-0.000574, 0.000205, 0.000626,-0.629982, 0.366493,-1.059925,1, 0.038339,-0.015738, 0.047645,1,-0.048749,-0.032577,-1.033373,-0.008497, 0.003524, 0.057582, 0.158027, 0.240454,-0.126493, 0.000000, 0.000001, 0.000003,1,0
1777416180946995297,1020113000000,  1020.113,-0.000620, 0.003316,-0.012277,-0.002038, 0.000030, 0.000678,-0.275887,-0.546183, 0.843478,1, 0.015398, 0.000592, 0.067427,1, 0.001507, 0.104141,-1.078349,-0.057463,-0.001313, 0.071702, 0.158350, 0.240066,-0.125957, 0.000000, 0.000001, 0.000003,1,0
1777416180956682720,1020133000000,  1020.133,-0.000959,-0.001461,-0.001053,-0.002409,-0.000494, 0.001187,-0.160446,-0.194556,-0.909560,1,-0.103497, 0.027988, 0.070745,1,-0.012491,-0.110089,-0.802895,-0.227592,-0.034039, 0.095208, 0.158800, 0.238886,-0.126543, 0.000000, 0.000001, 0.000003,1,0
1777416180966768316,1020133000000,  1020.133,-0.000959,-0.001461,-0.001053,-0.002409,-0.000494, 0.001187,-0.160446,-0.194556,-0.909560,1,-0.103497, 0.027988, 0.070745,1,-0.012491,-0.110089,-0.802895,-0.227592,-0.034039, 0.095208, 0.158800, 0.238886,-0.126543, 0.000000, 0.000001, 0.000003,1,0
1777416180976422501,1020153000000,  1020.153,-0.000790,-0.001408, 0.002334,-0.000766, 0.000480, 0.000676,-0.888117,-0.674363,-3.865685,1,-0.090509,-0.000793, 0.094304,1,-0.044576,-0.133600,-0.758165,-0.114147, 0.001869, 0.087482, 0.159629, 0.237681,-0.126718, 0.000000, 0.000001, 0.000003,1,0
1777416180986506319,1020153000000,  1020.153,-0.000790,-0.001408, 0.002334,-0.000766, 0.000480, 0.000676,-0.888117,-0.674363,-3.865685,1,-0.090509,-0.000793, 0.094304,1,-0.044576,-0.133600,-0.758165,-0.114147, 0.001869, 0.087482, 0.159629, 0.237681,-0.126718, 0.000000, 0.000001, 0.000003,1,0
1777416180996143913,1020173000000,  1020.173,-0.001523, 0.000085,-0.010030, 0.000084, 0.000591, 0.000674,-0.266253,-0.237047, 0.781843,1, 0.003939,-0.028951, 0.072742,1,-0.033219,-0.004791,-0.958559, 0.035227, 0.021640, 0.070869, 0.159837, 0.237097,-0.127223, 0.000000, 0.000001, 0.000003,1,0
1777416181006229158,1020173000000,  1020.173,-0.001523, 0.000085,-0.010030, 0.000084, 0.000591, 0.000674,-0.266253,-0.237047, 0.781843,1, 0.003939,-0.028951, 0.072742,1,-0.033219,-0.004791,-0.958559, 0.035227, 0.021640, 0.070869, 0.159837, 0.237097,-0.127223, 0.000000, 0.000001, 0.000003,1,0
1777416181025951424,1020193000000,  1020.193,-0.000469,-0.003523,-0.016128,-0.000271,-0.000703, 0.000422,-0.334787, 0.502819, 2.121300,1, 0.046768,-0.013991, 0.059350,1, 0.006160,-0.112451,-1.138976, 0.014738,-0.032285, 0.047453, 0.160245, 0.236923,-0.127103, 0.000000, 0.000001, 0.000003,1,0
1777416181035657310,1020203000000,  1020.208,-0.001939, 0.002906,-0.006595,-0.000468,-0.000715, 0.000095,-1.434336, 0.964508, 0.856798,1, 0.003704,-0.037006, 0.029760,1,-0.083419, 0.096696,-0.910652, 0.003705,-0.037005, 0.029763, 0.160619, 0.236329,-0.127387, 0.000000, 0.000001, 0.000003,1,0
1777416181045740908,1020203000000,  1020.208,-0.001939, 0.002906,-0.006595,-0.000468,-0.000715, 0.000095,-1.434336, 0.964508, 0.856798,1, 0.003704,-0.037006, 0.029760,1,-0.083419, 0.096696,-0.910652, 0.003705,-0.037005, 0.029763, 0.160619, 0.236329,-0.127387, 0.000000, 0.000001, 0.000003,1,0
1777416181055359356,1020223000000,  1020.228,-0.000408,-0.000021,-0.013378, 0.000081,-0.001217, 0.000363,-0.693029,-0.736299,-1.824721,1, 0.016621,-0.042977, 0.037637,1,-0.007888,-0.077633,-1.184093, 0.016621,-0.042976, 0.037639, 0.160388, 0.235390,-0.127977, 0.000000, 0.000001, 0.000003,1,0
1777416181065443194,1020223000000,  1020.228,-0.000408,-0.000021,-0.013378, 0.000081,-0.001217, 0.000363,-0.693029,-0.736299,-1.824721,1, 0.016621,-0.042977, 0.037637,1,-0.007888,-0.077633,-1.184093, 0.016621,-0.042976, 0.037639, 0.160388, 0.235390,-0.127977, 0.000000, 0.000001, 0.000003,1,0
1777416181075099843,1020243000000,  1020.248,-0.000515,-0.000853,-0.006227, 0.000667, 0.000016, 0.000107,-0.979620,-0.797602, 1.138866,1, 0.085437,-0.004217, 0.027056,1,-0.037309,-0.084965,-0.881900, 0.085438,-0.004216, 0.027059, 0.160924, 0.234806,-0.127479, 0.000000, 0.000001, 0.000003,1,0
1777416181085183534,1020243000000,  1020.248,-0.000515,-0.000853,-0.006227, 0.000667, 0.000016, 0.000107,-0.979620,-0.797602, 1.138866,1, 0.085437,-0.004217, 0.027056,1,-0.037309,-0.084965,-0.881900, 0.085438,-0.004216, 0.027059, 0.160924, 0.234806,-0.127479, 0.000000, 0.000001, 0.000003,1,0
1777416181104924706,1020263000000,  1020.268, 0.000514, 0.000078,-0.003896,-0.000017, 0.000339, 0.000192,-0.587942, 0.387341, 2.075639,1, 0.032176, 0.003390, 0.018374,1, 0.002563, 0.035026,-0.786377, 0.032176, 0.003391, 0.018377, 0.161474, 0.234032,-0.128469, 0.000000, 0.000001, 0.000003,1,0
1777416181114615297,1020283000000,  1020.288,-0.002263,-0.002124,-0.014352, 0.002748,-0.000115, 0.000651,-1.817124,-1.048383,-2.793179,1, 0.167001, 0.004927, 0.051180,1,-0.122975,-0.112203,-1.282866, 0.167001, 0.004928, 0.051182, 0.161148, 0.233080,-0.128652, 0.000000, 0.000001, 0.000003,1,0
1777416181124699080,1020283000000,  1020.288,-0.002263,-0.002124,-0.014352, 0.002748,-0.000115, 0.000651,-1.817124,-1.048383,-2.793179,1, 0.167001, 0.004927, 0.051180,1,-0.122975,-0.112203,-1.282866, 0.167001, 0.004928, 0.051182, 0.161148, 0.233080,-0.128652, 0.000000, 0.000001, 0.000003,1,0
1777416181134319269,1020303000000,  1020.308, 0.000050, 0.001293,-0.008227,-0.000196,-0.000542,-0.000458,-0.274893, 0.963498, 0.688035,1,-0.005807, 0.003057,-0.013051,1, 0.034909, 0.091824,-0.927836,-0.005806, 0.003058,-0.013048, 0.161462, 0.232638,-0.129046, 0.000000, 0.000001, 0.000003,1,0
1777416181144402700,1020303000000,  1020.308, 0.000050, 0.001293,-0.008227,-0.000196,-0.000542,-0.000458,-0.274893, 0.963498, 0.688035,1,-0.005807, 0.003057,-0.013051,1, 0.034909, 0.091824,-0.927836,-0.005806, 0.003058,-0.013048, 0.161462, 0.232638,-0.129046, 0.000000, 0.000001, 0.000003,1,0
1777416181154058682,1020323000000,  1020.328, 0.000891,-0.001710,-0.009506,-0.000557, 0.000976, 0.001112,-0.387467, 0.687986,-0.363750,1,-0.106083, 0.036407, 0.061274,1, 0.023531, 0.064292,-1.035085,-0.106082, 0.036408, 0.061277, 0.161213, 0.232189,-0.128749, 0.000000, 0.000001, 0.000003,1,0
1777416181164142169,1020323000000,  1020.328, 0.000891,-0.001710,-0.009506,-0.000557, 0.000976, 0.001112,-0.387467, 0.687986,-0.363750,1,-0.106083, 0.036407, 0.061274,1, 0.023531, 0.064292,-1.035085,-0.106082, 0.036408, 0.061277, 0.161213, 0.232189,-0.128749, 0.000000, 0.000001, 0.000003,1,0
1777416181183842567,1020343000000,  1020.348, 0.001065, 0.003071, 0.003946, 0.001305, 0.002043, 0.000505,-0.771400, 0.486430, 6.736075,1, 0.081335, 0.130810, 0.086025,1,-0.014576, 0.044857,-0.311043, 0.081335, 0.130811, 0.086028, 0.161860, 0.231604,-0.128462, 0.000000, 0.000001, 0.000003,1,0
