Time,reference_time,gps_timestamp,deltaVelX,deltaVelY,deltaVelZ,deltaThetaX,deltaThetaY,deltaThetaZ,estLinearAccelX,estLinearAccelY,estLinearAccelZ,estLinearAccel:valid,estAngularRateX,estAngularRateY,estAngularRateZ,estAngularRate:valid,scaledAccelX,scaledAccelY,scaledAccelZ,scaledGyroX,scaledGyroY,scaledGyroZ,scaledMagX,scaledMagY,scaledMagZ,estGyroBiasX,estGyroBiasY,estGyroBiasZ,estGyroBias:valid,flagStop
1777417002082599616,1832046000000,  1832.046, 0.000043, 0.000016,-0.009952,-0.000020, 0.000025, 0.000181,-0.089055,-0.025838, 0.038896,1,-0.001272, 0.003210, 0.018776,1, 0.004290, 0.001623,-0.995588,-0.001622, 0.002926, 0.018470, 0.010995,-0.104934,-0.152707,-0.000000, 0.000000,-0.000000,1,0
1777417002099083019,1841246000000,  1841.251, 0.000058, 0.000008,-0.009975,-0.000020, 0.000039, 0.000185,-0.339373,-0.059948, 0.030088,1,-0.001561, 0.003701, 0.018427,1, 0.004786, 0.001449,-0.996127,-0.001561, 0.003701, 0.018427, 0.012506,-0.105879,-0.151015,-0.000000, 0.000000,-0.000000,1,0
1777417002118732566,1841266000000,  1841.266, 0.000028,-0.000002,-0.009960,-0.000008, 0.000039, 0.000186,-0.354525,-0.065502, 0.032444,1,-0.001333, 0.003739, 0.018390,1, 0.003309, 0.000893,-0.995884,-0.001333, 0.003739, 0.018390, 0.013185,-0.105933,-0.151456,-0.000000, 0.000000,-0.000000,1,0
1777417002128408059,1841286000000,  1841.286, 0.000035, 0.000016,-0.009967,-0.000012, 0.000029, 0.000186,-0.353955,-0.058092, 0.032583,1,-0.001404, 0.003189, 0.018521,1, 0.003435, 0.001662,-0.995867,-0.001404, 0.003189, 0.018521, 0.012386,-0.105912,-0.152527,-0.000000, 0.000000,-0.000000,1,0
1777417002138493616,1841286000000,  1841.286, 0.000035, 0.000016,-0.009967,-0.000012, 0.000029, 0.000186,-0.353955,-0.058092, 0.032583,1,-0.001404, 0.003189, 0.018521,1, 0.003435, 0.001662,-0.995867,-0.001404, 0.003189, 0.018521, 0.012386,-0.105912,-0.152527,-0.000000, 0.000000,-0.000000,1,0
1777417002157892917,1841306000000,  1841.306, 0.000056, 0.000006,-0.009956,-0.000011, 0.000025, 0.000185,-0.346578,-0.058282, 0.032296,1,-0.001355, 0.003149, 0.018634,1, 0.004859, 0.001143,-0.995706,-0.001204, 0.002874, 0.018577, 0.012279,-0.105890,-0.152854,-0.000000, 0.000000,-0.000000,1,0
1777417002167577113,1841326000000,  1841.326, 0.000053, 0.000019,-0.009956,-0.000013, 0.000033, 0.000188,-0.337531,-0.062543, 0.031610,1,-0.000914, 0.003138, 0.018724,1, 0.005195, 0.001551,-0.995756,-0.001106, 0.003177, 0.018783, 0.012807,-0.105934,-0.151957,-0.000000, 0.000000,-0.000000,1,0
1777417002177661059,1841326000000,  1841.326, 0.000053, 0.000019,-0.009956,-0.000013, 0.000033, 0.000188,-0.337531,-0.062543, 0.031610,1,-0.000914, 0.003138, 0.018724,1, 0.005195, 0.001551,-0.995756,-0.001106, 0.003177, 0.018783, 0.012807,-0.105934,-0.151957,-0.000000, 0.000000,-0.000000,1,0
1777417002187314662,1841346000000,  1841.346, 0.000035, 0.000019,-0.009954,-0.000017, 0.000032, 0.000191,-0.342103,-0.058360, 0.033484,1,-0.001254, 0.003325, 0.018761,1, 0.004208, 0.001782,-0.995656,-0.001452, 0.003317, 0.018918, 0.012751,-0.105731,-0.150251,-0.000000, 0.000000,-0.000000,1,0
1777417002197399034,1841346000000,  1841.346, 0.000035, 0.000019,-0.009954,-0.000017, 0.000032, 0.000191,-0.342103,-0.058360, 0.033484,1,-0.001254, 0.003325, 0.018761,1, 0.004208, 0.001782,-0.995656,-0.001452, 0.003317, 0.018918, 0.012751,-0.105731,-0.150251,-0.000000, 0.000000,-0.000000,1,0
1777417002207050674,1841366000000,  1841.366, 0.000026, 0.000013,-0.009965,-0.000017, 0.000034, 0.000190,-0.353879,-0.063561, 0.037681,1,-0.001446, 0.003384, 0.018993,1, 0.003171, 0.001279,-0.995918,-0.001509, 0.003412, 0.019017, 0.012496,-0.105582,-0.151193,-0.000000, 0.000000,-0.000000,1,0
1777417002217136287,1841366000000,  1841.366, 0.000026, 0.000013,-0.009965,-0.000017, 0.000034, 0.000190,-0.353879,-0.063561, 0.037681,1,-0.001446, 0.003384, 0.018993,1, 0.003171, 0.001279,-0.995918,-0.001509, 0.003412, 0.019017, 0.012496,-0.105582,-0.151193,-0.000000, 0.000000,-0.000000,1,0
1777417002236842817,1841386000000,  1841.386, 0.000030, 0.000009,-0.009960,-0.000008, 0.000030, 0.000191,-0.361094,-0.063414, 0.035792,1,-0.001660, 0.003044, 0.019123,1, 0.002991, 0.000968,-0.995793,-0.001231, 0.003044, 0.019084, 0.011716,-0.105174,-0.151746,-0.000000, 0.000000,-0.000000,1,0
1777417002246536273,1841406000000,  1841.406, 0.000044, 0.000007,-0.009961,-0.000017, 0.000026, 0.000180,-0.358548,-0.069749, 0.036120,1,-0.001243, 0.003224, 0.018740,1, 0.003843, 0.000594,-0.995816,-0.001430, 0.002957, 0.018402, 0.011482,-0.105785,-0.152554,-0.000000, 0.000000,-0.000000,1,0
1777417002256621867,1841406000000,  1841.406, 0.000044, 0.000007,-0.009961,-0.000017, 0.000026, 0.000180,-0.358548,-0.069749, 0.036120,1,-0.001243, 0.003224, 0.018740,1, 0.003843, 0.000594,-0.995816,-0.001430, 0.002957, 0.018402, 0.011482,-0.105785,-0.152554,-0.000000, 0.000000,-0.000000,1,0
1777417002266267173,1841426000000,  1841.426, 0.000049, 0.000006,-0.009966,-0.000015, 0.000038, 0.000181,-0.349972,-0.070466, 0.034385,1,-0.001817, 0.002986, 0.018283,1, 0.004550, 0.000574,-0.996085,-0.001630, 0.003355, 0.018162, 0.012306,-0.106281,-0.151953,-0.000000, 0.000000,-0.000000,1,0
1777417002276352953,1841426000000,  1841.426, 0.000049, 0.000006,-0.009966,-0.000015, 0.000038, 0.000181,-0.349972,-0.070466, 0.034385,1,-0.001817, 0.002986, 0.018283,1, 0.004550, 0.000574,-0.996085,-0.001630, 0.003355, 0.018162, 0.012306,-0.106281,-0.151953,-0.000000, 0.000000,-0.000000,1,0
1777417002286032575,1841446000000,  1841.446, 0.000042, 0.000013,-0.009963,-0.000010, 0.000035, 0.000181,-0.346397,-0.066773, 0.033118,1,-0.001657, 0.003214, 0.018078,1, 0.004449, 0.001049,-0.996052,-0.001381, 0.003334, 0.018077, 0.012628,-0.105985,-0.151545,-0.000000, 0.000000,-0.000000,1,0
1777417002296116373,1841446000000,  1841.446, 0.000042, 0.000013,-0.009963,-0.000010, 0.000035, 0.000181,-0.346397,-0.066773, 0.033118,1,-0.001657, 0.003214, 0.018078,1, 0.004449, 0.001049,-0.996052,-0.001381, 0.003334, 0.018077, 0.012628,-0.105985,-0.151545,-0.000000, 0.000000,-0.000000,1,0
1777417002315804717,1841456000000,  1841.461, 0.000037, 0.000021,-0.009956,-0.000017, 0.000027, 0.000184,-0.352830,-0.059920, 0.032544,1,-0.001582, 0.003037, 0.018259,1, 0.004050, 0.001554,-0.995851,-0.001582, 0.003038, 0.018259, 0.011656,-0.105769,-0.152780,-0.000000, 0.000000,-0.000000,1,0
1777417002325488025,1841476000000,  1841.481, 0.000040, 0.000026,-0.009952,-0.000017, 0.000026, 0.000184,-0.354445,-0.054192, 0.035901,1,-0.001487, 0.002811, 0.018311,1, 0.003944, 0.002149,-0.995506,-0.001487, 0.002811, 0.018311, 0.011640,-0.105963,-0.151472,-0.000000, 0.000000,-0.000000,1,0
1777417002335572100,1841476000000,  1841.481, 0.000040, 0.000026,-0.009952,-0.000017, 0.000026, 0.000184,-0.354445,-0.054192, 0.035901,1,-0.001487, 0.002811, 0.018311,1, 0.003944, 0.002149,-0.995506,-0.001487, 0.002811, 0.018311, 0.011640,-0.105963,-0.151472,-0.000000, 0.000000,-0.000000,1,0
1777417002345229166,1841496000000,  1841.501, 0.000043, 0.000024,-0.009958,-0.000011, 0.000032, 0.000184,-0.352708,-0.053194, 0.033481,1,-0.001257, 0.003171, 0.018327,1, 0.004185, 0.002266,-0.995750,-0.001258, 0.003171, 0.018327, 0.012652,-0.106132,-0.149874,-0.000000, 0.000000,-0.000000,1,0
1777417002355313557,1841496000000,  1841.501, 0.000043, 0.000024,-0.009958,-0.000011, 0.000032, 0.000184,-0.352708,-0.053194, 0.033481,1,-0.001257, 0.003171, 0.018327,1, 0.004185, 0.002266,-0.995750,-0.001258, 0.003171, 0.018327, 0.012652,-0.106132,-0.149874,-0.000000, 0.000000,-0.000000,1,0
1777417002365042254,1841516000000,  1841.521, 0.000050, 0.000020,-0.009958,-0.000010, 0.000029, 0.000188,-0.347872,-0.054402, 0.033917,1,-0.001186, 0.002991, 0.018747,1, 0.004742, 0.002150,-0.995703,-0.001186, 0.002991, 0.018747, 0.012667,-0.105688,-0.150648,-0.000000, 0.000000,-0.000000,1,0
1777417002375126571,1841516000000,  1841.521, 0.000050, 0.000020,-0.009958,-0.000010, 0.000029, 0.000188,-0.347872,-0.054402, 0.033917,1,-0.001186, 0.002991, 0.018747,1, 0.004742, 0.002150,-0.995703,-0.001186, 0.002991, 0.018747, 0.012667,-0.105688,-0.150648,-0.000000, 0.000000,-0.000000,1,0
1777417002394764377,1841536000000,  1841.541, 0.000043, 0.000010,-0.009953,-0.000021, 0.000041, 0.000194,-0.349702,-0.061117, 0.035104,1,-0.001378, 0.003517, 0.019039,1, 0.004622, 0.001470,-0.995579,-0.001378, 0.003517, 0.019039, 0.011930,-0.105444,-0.151972,-0.000000, 0.000000,-0.000000,1,0
1777417002404460925,1841556000000,  1841.561, 0.000034, 0.000006,-0.009960,-0.000014, 0.000030, 0.000189,-0.358111,-0.066998, 0.034270,1,-0.001396, 0.003122, 0.018920,1, 0.003833, 0.000883,-0.995661,-0.001396, 0.003122, 0.018920, 0.011904,-0.105730,-0.152594,-0.000000, 0.000000,-0.000000,1,0
1777417002414545575,1841556000000,  1841.561, 0.000034, 0.000006,-0.009960,-0.000014, 0.000030, 0.000189,-0.358111,-0.066998, 0.034270,1,-0.001396, 0.003122, 0.018920,1, 0.003833, 0.000883,-0.995661,-0.001396, 0.003122, 0.018920, 0.011904,-0.105730,-0.152594,-0.000000, 0.000000,-0.000000,1,0
1777417002424191826,1841576000000,  1841.581, 0.000030, 0.000002,-0.009966,-0.000008, 0.000036, 0.000188,-0.363633,-0.071970, 0.028881,1,-0.000964, 0.003321, 0.018854,1, 0.003337, 0.000382,-0.996208,-0.000964, 0.003321, 0.018854, 0.012633,-0.105784,-0.151549,-0.000000, 0.000000,-0.000000,1,0
1777417002434277661,1841576000000,  1841.581, 0.000030, 0.000002,-0.009966,-0.000008, 0.000036, 0.000188,-0.363633,-0.071970, 0.028881,1,-0.000964, 0.003321, 0.018854,1, 0.003337, 0.000382,-0.996208,-0.000964, 0.003321, 0.018854, 0.012633,-0.105784,-0.151549,-0.000000, 0.000000,-0.000000,1,0
1777417002453996469,1841576000000,  1841.601, 0.000030, 0.000002,-0.009966,-0.000008, 0.000036, 0.000188,-0.366125,-0.073488, 0.031024,1,-0.001339, 0.003474, 0.018470,1, 0.003337, 0.000382,-0.996208,-0.000964, 0.003321, 0.018854, 0.012633,-0.105784,-0.151549,-0.000000, 0.000000,-0.000000,1,0
1777417002463686536,1841616000000,  1841.621, 0.000033, 0.000002,-0.009947,-0.000018, 0.000028, 0.000183,-0.361670,-0.075195, 0.033890,1,-0.001665, 0.002791, 0.018213,1, 0.003656, 0.000073,-0.995692,-0.001665, 0.002791, 0.018213, 0.012797,-0.106013,-0.150392,-0.000000, 0.000000,-0.000000,1,0
1777417002473770482,1841616000000,  1841.621, 0.000033, 0.000002,-0.009947,-0.000018, 0.000028, 0.000183,-0.361670,-0.075195, 0.033890,1,-0.001665, 0.002791, 0.018213,1, 0.003656, 0.000073,-0.995692,-0.001665, 0.002791, 0.018213, 0.012797,-0.106013,-0.150392,-0.000000, 0.000000,-0.000000,1,0
1777417002489312327,1841636000000,  1841.641, 0.000058, 0.000034,-0.009966,-0.000017, 0.000035, 0.000174,-0.352610,-0.057112, 0.028660,1,-0.001585, 0.003315, 0.017712,1, 0.004607, 0.001913,-0.996224,-0.001585, 0.003315, 0.017712, 0.012535,-0.105784,-0.151989,-0.000000, 0.000000,-0.000000,1,0
1777417002509048987,1841656000000,  1841.661, 0.000073, 0.000039,-0.009955,-0.000021, 0.000035, 0.000187,-0.336509,-0.039084, 0.034584,1,-0.001602, 0.003760, 0.018328,1, 0.006316, 0.003757,-0.995618,-0.001602, 0.003760, 0.018328, 0.012054,-0.105896,-0.152254,-0.000000, 0.000000,-0.000000,1,0
1777417002528793351,1841676000000,  1841.676, 0.000031, 0.000040,-0.009966,-0.000024, 0.000020, 0.000188,-0.354294,-0.041080, 0.033625,1,-0.001948, 0.002898, 0.018746,1, 0.004572, 0.003571,-0.995712,-0.001948, 0.002898, 0.018746, 0.012657,-0.106142,-0.151610,-0.000000, 0.000000,-0.000000,1,0
1777417002538468492,1841696000000,  1841.696, 0.000027, 0.000019,-0.009951,-0.000005, 0.000033, 0.000199,-0.371640,-0.043484, 0.035373,1,-0.000809, 0.003166, 0.019518,1, 0.002864, 0.003334,-0.995532,-0.000809, 0.003166, 0.019518, 0.013023,-0.106231,-0.150371,-0.000000, 0.000000,-0.000000,1,0
1777417002548552401,1841696000000,  1841.696, 0.000027, 0.000019,-0.009951,-0.000005, 0.000033, 0.000199,-0.371640,-0.043484, 0.035373,1,-0.000809, 0.003166, 0.019518,1, 0.002864, 0.003334,-0.995532,-0.000809, 0.003166, 0.019518, 0.013023,-0.106231,-0.150371,-0.000000, 0.000000,-0.000000,1,0
1777417002567962257,1841716000000,  1841.716, 0.000056,-0.000035,-0.009938,-0.000019, 0.000019, 0.000194,-0.361300,-0.063770, 0.029557,1,-0.000620, 0.003175, 0.019874,1, 0.004681,-0.000864,-0.995003,-0.001210, 0.002614, 0.019676, 0.012914,-0.105615,-0.150888,-0.000000, 0.000000,-0.000000,1,0
1777417002577642805,1841736000000,  1841.736, 0.000030,-0.000006,-0.009947,-0.000017, 0.000027, 0.000186,-0.358567,-0.088529, 0.026123,1,-0.001134, 0.002904, 0.019439,1, 0.003681,-0.000864,-0.995640,-0.001398, 0.002882, 0.019028, 0.012312,-0.105514,-0.152064,-0.000000, 0.000000,-0.000000,1,0
1777417002587753030,1841736000000,  1841.736, 0.000030,-0.000006,-0.009947,-0.000017, 0.000027, 0.000186,-0.358567,-0.088529, 0.026123,1,-0.001134, 0.002904, 0.019439,1, 0.003681,-0.000864,-0.995640,-0.001398, 0.002882, 0.019028, 0.012312,-0.105514,-0.152064,-0.000000, 0.000000,-0.000000,1,0
1777417002597373762,1841756000000,  1841.756, 0.000047,-0.000027,-0.009943,-0.000018, 0.000047, 0.000180,-0.365657,-0.081312, 0.022532,1,-0.001095, 0.003822, 0.018758,1, 0.004128,-0.001466,-0.995665,-0.001464, 0.004185, 0.018388, 0.012142,-0.105587,-0.152281,-0.000000, 0.000000,-0.000000,1,0
1777417002607458671,1841756000000,  1841.756, 0.000047,-0.000027,-0.009943,-0.000018, 0.000047, 0.000180,-0.365657,-0.081312, 0.022532,1,-0.001095, 0.003822, 0.018758,1, 0.004128,-0.001466,-0.995665,-0.001464, 0.004185, 0.018388, 0.012142,-0.105587,-0.152281,-0.000000, 0.000000,-0.000000,1,0
1777417002617106274,1841776000000,  1841.776, 0.000026, 0.000031,-0.009949,-0.000018, 0.000029, 0.000177,-0.362991,-0.085972, 0.031579,1,-0.001991, 0.003859, 0.018071,1, 0.003331, 0.000981,-0.995519,-0.001870, 0.003434, 0.017929, 0.012620,-0.105743,-0.151655,-0.000000, 0.000000,-0.000000,1,0
1777417002627212498,1841776000000,  1841.776, 0.000026, 0.000031,-0.009949,-0.000018, 0.000029, 0.000177,-0.362991,-0.085972, 0.031579,1,-0.001991, 0.003859, 0.018071,1, 0.003331, 0.000981,-0.995519,-0.001870, 0.003434, 0.017929, 0.012620,-0.105743,-0.151655,-0.000000, 0.000000,-0.000000,1,0
1777417002646898416,1841796000000,  1841.796, 0.000040, 0.000024,-0.009960,-0.000012, 0.000041, 0.000185,-0.374989,-0.050207, 0.034885,1,-0.001338, 0.003451, 0.017975,1, 0.003447, 0.002504,-0.995709,-0.001292, 0.003742, 0.018242, 0.013058,-0.105955,-0.151440,-0.000000, 0.000000,-0.000000,1,0
1777417002656604261,1841816000000,  1841.816, 0.000068, 0.000034,-0.009958,-0.000013, 0.000023, 0.000184,-0.359351,-0.051955, 0.036401,1,-0.001120, 0.003320, 0.018154,1, 0.005579, 0.002914,-0.995504,-0.001192, 0.002856, 0.018278, 0.012651,-0.106088,-0.152224,-0.000000, 0.000000,-0.000000,1,0
1777417002666688467,1841816000000,  1841.816, 0.000068, 0.000034,-0.009958,-0.000013, 0.000023, 0.000184,-0.359351,-0.051955, 0.036401,1,-0.001120, 0.003320, 0.018154,1, 0.005579, 0.002914,-0.995504,-0.001192, 0.002856, 0.018278, 0.012651,-0.106088,-0.152224,-0.000000, 0.000000,-0.000000,1,0
1777417002676337514,1841836000000,  1841.836, 0.000060, 0.000025,-0.009967,-0.000012, 0.000032, 0.000192,-0.344807,-0.044075, 0.037931,1,-0.001511, 0.002973, 0.018609,1, 0.005968, 0.002889,-0.995776,-0.001336, 0.003071, 0.018859, 0.012477,-0.105823,-0.152354,-0.000000, 0.000000,-0.000000,1,0
1777417002686421367,1841836000000,  1841.836, 0.000060, 0.000025,-0.009967,-0.000012, 0.000032, 0.000192,-0.344807,-0.044075, 0.037931,1,-0.001511, 0.002973, 0.018609,1, 0.005968, 0.002889,-0.995776,-0.001336, 0.003071, 0.018859, 0.012477,-0.105823,-0.152354,-0.000000, 0.000000,-0.000000,1,0
1777417002696103916,1841856000000,  1841.856, 0.000046, 0.000012,-0.009958,-0.000007, 0.000029, 0.000193,-0.350116,-0.052511, 0.031440,1,-0.001268, 0.003011, 0.019050,1, 0.005076, 0.001864,-0.995742,-0.001029, 0.002980, 0.019129, 0.012309,-0.105995,-0.151654,-0.000000, 0.000000,-0.000000,1,0
1777417002706187306,1841856000000,  1841.856, 0.000046, 0.000012,-0.009958,-0.000007, 0.000029, 0.000193,-0.350116,-0.052511, 0.031440,1,-0.001268, 0.003011, 0.019050,1, 0.005076, 0.001864,-0.995742,-0.001029, 0.002980, 0.019129, 0.012309,-0.105995,-0.151654,-0.000000, 0.000000,-0.000000,1,0
1777417002725876169,1841866000000,  1841.871, 0.000035, 0.000011,-0.009958,-0.000012, 0.000024, 0.000198,-0.362093,-0.061357, 0.033096,1,-0.001128, 0.002738, 0.019411,1, 0.004347, 0.001563,-0.995742,-0.001128, 0.002738, 0.019411, 0.012985,-0.105755,-0.151000,-0.000000, 0.000000,-0.000000,1,0
1777417002735559328,1841886000000,  1841.891, 0.000016,-0.000002,-0.009961,-0.000007, 0.000031, 0.000189,-0.379744,-0.072468, 0.032384,1,-0.000928, 0.003036, 0.019127,1, 0.002607, 0.000432,-0.995813,-0.000928, 0.003036, 0.019127, 0.012377,-0.105766,-0.152673,-0.000000, 0.000000,-0.000000,1,0
1777417002745658330,1841886000000,  1841.891, 0.000016,-0.000002,-0.009961,-0.000007, 0.000031, 0.000189,-0.379744,-0.072468, 0.032384,1,-0.000928, 0.003036, 0.019127,1, 0.002607, 0.000432,-0.995813,-0.000928, 0.003036, 0.019127, 0.012377,-0.105766,-0.152673,-0.000000, 0.000000,-0.000000,1,0
1777417002755302248,1841906000000,  1841.911, 0.000033, 0.000001,-0.009954,-0.000015, 0.000030, 0.000187,-0.378791,-0.075976, 0.034858,1,-0.001067, 0.003095, 0.018879,1, 0.002771, 0.000076,-0.995558,-0.001067, 0.003095, 0.018879, 0.012126,-0.105821,-0.152937,-0.000000, 0.000000,-0.000000,1,0
1777417002765385620,1841906000000,  1841.911, 0.000033, 0.000001,-0.009954,-0.000015, 0.000030, 0.000187,-0.378791,-0.075976, 0.034858,1,-0.001067, 0.003095, 0.018879,1, 0.002771, 0.000076,-0.995558,-0.001067, 0.003095, 0.018879, 0.012126,-0.105821,-0.152937,-0.000000, 0.000000,-0.000000,1,0
1777417002775029482,1841926000000,  1841.931, 0.000051, 0.000000,-0.009953,-0.000015, 0.000026, 0.000184,-0.364734,-0.075878, 0.035083,1,-0.001319, 0.002852, 0.018455,1, 0.004268, 0.000094,-0.995532,-0.001319, 0.002852, 0.018455, 0.013014,-0.106202,-0.152314,-0.000000, 0.000000,-0.000000,1,0
1777417002785114632,1841926000000,  1841.931, 0.000051, 0.000000,-0.009953,-0.000015, 0.000026, 0.000184,-0.364734,-0.075878, 0.035083,1,-0.001319, 0.002852, 0.018455,1, 0.004268, 0.000094,-0.995532,-0.001319, 0.002852, 0.018455, 0.013014,-0.106202,-0.152314,-0.000000, 0.000000,-0.000000,1,0
1777417002804832217,1841946000000,  1841.951, 0.000044, 0.000027,-0.009958,-0.000016, 0.000031, 0.000180,-0.362986,-0.063991, 0.031740,1,-0.001450, 0.002888, 0.018084,1, 0.004504, 0.001316,-0.995870,-0.001450, 0.002888, 0.018084, 0.013111,-0.106327,-0.150936,-0.000000, 0.000000,-0.000000,1,0
1777417002814513654,1841966000000,  1841.971, 0.000051, 0.000025,-0.009952,-0.000017, 0.000032, 0.000182,-0.360261,-0.055090, 0.034123,1,-0.001524, 0.003046, 0.018366,1, 0.004844, 0.002238,-0.995625,-0.001524, 0.003046, 0.018366, 0.013139,-0.106112,-0.150940,-0.000000, 0.000000,-0.000000,1,0
1777417002824598712,1841966000000,  1841.971, 0.000051, 0.000025,-0.009952,-0.000017, 0.000032, 0.000182,-0.360261,-0.055090, 0.034123,1,-0.001524, 0.003046, 0.018366,1, 0.004844, 0.002238,-0.995625,-0.001524, 0.003046, 0.018366, 0.013139,-0.106112,-0.150940,-0.000000, 0.000000,-0.000000,1,0
1777417002834240259,1841986000000,  1841.991, 0.000038, 0.000037,-0.009963,-0.000013, 0.000030, 0.000187,-0.366491,-0.047420, 0.031738,1,-0.001413, 0.003103, 0.018370,1, 0.004275, 0.003033,-0.995865,-0.001413, 0.003103, 0.018370, 0.012670,-0.105928,-0.151584,-0.000000, 0.000000,-0.000000,1,0
1777417002844326872,1841986000000,  1841.991, 0.000038, 0.000037,-0.009963,-0.000013, 0.000030, 0.000187,-0.366491,-0.047420, 0.031738,1,-0.001413, 0.003103, 0.018370,1, 0.004275, 0.003033,-0.995865,-0.001413, 0.003103, 0.018370, 0.012670,-0.105928,-0.151584,-0.000000, 0.000000,-0.000000,1,0
1777417002854027087,1842006000000,  1842.011, 0.000048, 0.000019,-0.009962,-0.000011, 0.000042, 0.000196,-0.366043,-0.052757, 0.032300,1,-0.001167, 0.003504, 0.019133,1, 0.004385, 0.002498,-0.995805,-0.001167, 0.003504, 0.019133, 0.012501,-0.106339,-0.152489,-0.000000, 0.000000,-0.000000,1,0
1777417002864130033,1842006000000,  1842.011, 0.000048, 0.000019,-0.009962,-0.000011, 0.000042, 0.000196,-0.366043,-0.052757, 0.032300,1,-0.001167, 0.003504, 0.019133,1, 0.004385, 0.002498,-0.995805,-0.001167, 0.003504, 0.019133, 0.012501,-0.106339,-0.152489,-0.000000, 0.000000,-0.000000,1,0
1777417002879194886,1842026000000,  1842.031, 0.000048, 0.000006,-0.009962,-0.000018, 0.000028, 0.000184,-0.364611,-0.063947, 0.030328,1,-0.001393, 0.002886, 0.018621,1, 0.004558, 0.001345,-0.996005,-0.001393, 0.002886, 0.018621, 0.012537,-0.106659,-0.151939,-0.000000, 0.000000,-0.000000,1,0
1777417002898948547,1842046000000,  1842.051, 0.000032, 0.000002,-0.009967,-0.000010, 0.000038, 0.000187,-0.372196,-0.071196, 0.026802,1,-0.001064, 0.003327, 0.018753,1, 0.003829, 0.000600,-0.996363,-0.001064, 0.003327, 0.018753, 0.013248,-0.106491,-0.151582,-0.000000, 0.000000,-0.000000,1,0
1777417002908611261,1842066000000,  1842.066, 0.000038,-0.000004,-0.009955,-0.000011, 0.000028, 0.000187,-0.373195,-0.077987, 0.032350,1,-0.000987, 0.003000, 0.018728,1, 0.003788,-0.000092,-0.995794,-0.000987, 0.003000, 0.018728, 0.012725,-0.106182,-0.151030,-0.000000, 0.000000,-0.000000,1,0
1777417002918704689,1842066000000,  1842.066, 0.000038,-0.000004,-0.009955,-0.000011, 0.000028, 0.000187,-0.373195,-0.077987, 0.032350,1,-0.000987, 0.003000, 0.018728,1, 0.003788,-0.000092,-0.995794,-0.000987, 0.003000, 0.018728, 0.012725,-0.106182,-0.151030,-0.000000, 0.000000,-0.000000,1,0
1777417002928043970,1842086000000,  1842.086, 0.000036, 0.000013,-0.009959,-0.000015, 0.000024, 0.000176,-0.374512,-0.072527, 0.034645,1,-0.001305, 0.002901, 0.018461,1, 0.003681, 0.000883,-0.995739,-0.001399, 0.002718, 0.018068, 0.012085,-0.106141,-0.151882,-0.000000, 0.000000,-0.000000,1,0
1777417002938130472,1842086000000,  1842.086, 0.000036, 0.000013,-0.009959,-0.000015, 0.000024, 0.000176,-0.374512,-0.072527, 0.034645,1,-0.001305, 0.002901, 0.018461,1, 0.003681, 0.000883,-0.995739,-0.001399, 0.002718, 0.018068, 0.012085,-0.106141,-0.151882,-0.000000, 0.000000,-0.000000,1,0
1777417002957855761,1842106000000,  1842.106, 0.000045, 0.000017,-0.009963,-0.000015, 0.000034, 0.000185,-0.375237,-0.064986, 0.032119,1,-0.001570, 0.003005, 0.018182,1, 0.004090, 0.001472,-0.996034,-0.001477, 0.003188, 0.018355, 0.011955,-0.106249,-0.151995,-0.000000, 0.000000,-0.000000,1,0
1777417002967525180,1842126000000,  1842.126, 0.000053, 0.000022,-0.009958,-0.000011, 0.000036, 0.000189,-0.368319,-0.059000, 0.033345,1,-0.001488, 0.003314, 0.018592,1, 0.004817, 0.002043,-0.995773,-0.001305, 0.003458, 0.018710, 0.012831,-0.106498,-0.151998,-0.000000, 0.000000,-0.000000,1,0
1777417002977610348,1842126000000,  1842.126, 0.000053, 0.000022,-0.009958,-0.000011, 0.000036, 0.000189,-0.368319,-0.059000, 0.033345,1,-0.001488, 0.003314, 0.018592,1, 0.004817, 0.002043,-0.995773,-0.001305, 0.003458, 0.018710, 0.012831,-0.106498,-0.151998,-0.000000, 0.000000,-0.000000,1,0
1777417002987247432,1842146000000,  1842.146, 0.000046, 0.000018,-0.009960,-0.000020, 0.000030, 0.000186,-0.365194,-0.056596, 0.033538,1,-0.001577, 0.003513, 0.018701,1, 0.004713, 0.001949,-0.995826,-0.001763, 0.003268, 0.018674, 0.013511,-0.106308,-0.151460,-0.000000, 0.000000,-0.000000,1,0
1777417002997347656,1842146000000,  1842.146, 0.000046, 0.000018,-0.009960,-0.000020, 0.000030, 0.000186,-0.365194,-0.056596, 0.033538,1,-0.001577, 0.003513, 0.018701,1, 0.004713, 0.001949,-0.995826,-0.001763, 0.003268, 0.018674, 0.013511,-0.106308,-0.151460,-0.000000, 0.000000,-0.000000,1,0
1777417003017053146,1842166000000,  1842.166, 0.000044, 0.000021,-0.009950,-0.000016, 0.000041, 0.000190,-0.370370,-0.056434, 0.030547,1,-0.001182, 0.003347, 0.018927,1, 0.004398, 0.002146,-0.995518,-0.001329, 0.003655, 0.019002, 0.012916,-0.106355,-0.151166,-0.000000, 0.000000,-0.000000,1,0
1777417003036788821,1842186000000,  1842.186, 0.000054, 0.000047,-0.009965, 0.000003, 0.000046, 0.000195,-0.372659,-0.060218, 0.032296,1,-0.001275, 0.003381, 0.019262,1, 0.004755, 0.003262,-0.995973,-0.000532, 0.003983, 0.019346, 0.012130,-0.105843,-0.151706,-0.000000, 0.000000,-0.000000,1,0
1777417003046474163,1842206000000,  1842.206, 0.000070, 0.000023,-0.009927,-0.000007, 0.000036, 0.000201,-0.359099,-0.040887, 0.028329,1, 0.000273, 0.005281, 0.019469,1, 0.006217, 0.003005,-0.994456,-0.000175, 0.004534, 0.019781, 0.011982,-0.106223,-0.151852,-0.000000, 0.000000,-0.000000,1,0
1777417003056559756,1842206000000,  1842.206, 0.000070, 0.000023,-0.009927,-0.000007, 0.000036, 0.000201,-0.359099,-0.040887, 0.028329,1, 0.000273, 0.005281, 0.019469,1, 0.006217, 0.003005,-0.994456,-0.000175, 0.004534, 0.019781, 0.011982,-0.106223,-0.151852,-0.000000, 0.000000,-0.000000,1,0
1777417003066211209,1842226000000,  1842.226, 0.000015, 0.000026,-0.009970, 0.000006, 0.000067, 0.000200,-0.365347,-0.056482, 0.039652,1,-0.000333, 0.003666, 0.020134,1, 0.003422, 0.002388,-0.996192, 0.000106, 0.005286, 0.020059, 0.012904,-0.106167,-0.151397,-0.000000, 0.000000,-0.000000,1,0
1777417003076357172,1842226000000,  1842.226, 0.000015, 0.000026,-0.009970, 0.000006, 0.000067, 0.000200,-0.365347,-0.056482, 0.039652,1,-0.000333, 0.003666, 0.020134,1, 0.003422, 0.002388,-0.996192, 0.000106, 0.005286, 0.020059, 0.012904,-0.106167,-0.151397,-0.000000, 0.000000,-0.000000,1,0
1777417003096014531,1842236000000,  1842.241,-0.000011, 0.000055,-0.009992, 0.000025, 0.000139, 0.000209,-0.402992,-0.039757, 0.018366,1, 0.001284, 0.009438, 0.020446,1, 0.001365, 0.003804,-0.997194, 0.001284, 0.009438, 0.020446, 0.012509,-0.105672,-0.152313,-0.000000, 0.000000,-0.000000,1,0
1777417003115756705,1842256000000,  1842.261, 0.000093, 0.000039,-0.009889, 0.000039, 0.000160, 0.000219,-0.358368,-0.031407, 0.066029,1, 0.003221, 0.015620, 0.021316,1, 0.006198, 0.004579,-0.992323, 0.003221, 0.015620, 0.021316, 0.012242,-0.106084,-0.152684,-0.000000, 0.000000,-0.000000,1,0
1777417003125436196,1842276000000,  1842.281, 0.000058, 0.000110,-0.009992, 0.000020, 0.000041, 0.000232,-0.351180,-0.002598, 0.029264,1, 0.002042, 0.007696, 0.022350,1, 0.007154, 0.007447,-0.996063, 0.002042, 0.007696, 0.022350, 0.012589,-0.106458,-0.152458,-0.000000, 0.000000,-0.000000,1,0
1777417003135521103,1842276000000,  1842.281, 0.000058, 0.000110,-0.009992, 0.000020, 0.000041, 0.000232,-0.351180,-0.002598, 0.029264,1, 0.002042, 0.007696, 0.022350,1, 0.007154, 0.007447,-0.996063, 0.002042, 0.007696, 0.022350, 0.012589,-0.106458,-0.152458,-0.000000, 0.000000,-0.000000,1,0
1777417003145176297,1842296000000,  1842.301, 0.000050, 0.000056,-0.009946, 0.000023, 0.000046, 0.000255,-0.370135,-0.000084, 0.038563,1, 0.002105, 0.005280, 0.024258,1, 0.005344, 0.007643,-0.995110, 0.002105, 0.005280, 0.024258, 0.013110,-0.106521,-0.151166,-0.000000, 0.000000,-0.000000,1,0
1777417003155275741,1842296000000,  1842.301, 0.000050, 0.000056,-0.009946, 0.000023, 0.000046, 0.000255,-0.370135,-0.000084, 0.038563,1, 0.002105, 0.005280, 0.024258,1, 0.005344, 0.007643,-0.995110, 0.002105, 0.005280, 0.024258, 0.013110,-0.106521,-0.151166,-0.000000, 0.000000,-0.000000,1,0
1777417003174981526,1842316000000,  1842.321, 0.000047,-0.000075,-0.009939, 0.000003,-0.000018, 0.000245,-0.370534,-0.095618, 0.040219,1, 0.001241, 0.001161, 0.024555,1, 0.005376,-0.002154,-0.994938, 0.001241, 0.001161, 0.024555, 0.012996,-0.106471,-0.151677,-0.000000, 0.000000,-0.000000,1,0
1777417003184645664,1842336000000,  1842.341,-0.000005,-0.000055,-0.009975,-0.000028,-0.000031, 0.000227,-0.405329,-0.118494, 0.019601,1,-0.001226,-0.002519, 0.023263,1, 0.001797,-0.004506,-0.997042,-0.001226,-0.002519, 0.023263, 0.011659,-0.106084,-0.152260,-0.000000, 0.000000,-0.000000,1,0
1777417003194730553,1842336000000,  1842.341,-0.000005,-0.000055,-0.009975,-0.000028,-0.000031, 0.000227,-0.405329,-0.118494, 0.019601,1,-0.001226,-0.002519, 0.023263,1, 0.001797,-0.004506,-0.997042,-0.001226,-0.002519, 0.023263, 0.011659,-0.106084,-0.152260,-0.000000, 0.000000,-0.000000,1,0
1777417003204388673,1842356000000,  1842.361,-0.000003,-0.000353,-0.010017,-0.000043, 0.000026, 0.000170,-0.420638,-0.300142,-0.007696,1,-0.003200,-0.000223, 0.019864,1, 0.000194,-0.023003,-0.999827,-0.003200,-0.000223, 0.019864, 0.011945,-0.106346,-0.152361,-0.000000, 0.000000,-0.000000,1,0
1777417003214472894,1842356000000,  1842.361,-0.000003,-0.000353,-0.010017,-0.000043, 0.000026, 0.000170,-0.420638,-0.300142,-0.007696,1,-0.003200,-0.000223, 0.019864,1, 0.000194,-0.023003,-0.999827,-0.003200,-0.000223, 0.019864, 0.011945,-0.106346,-0.152361,-0.000000, 0.000000,-0.000000,1,0
1777417003224192645,1842376000000,  1842.381,-0.000010,-0.000316,-0.009988,-0.000071, 0.000098, 0.000052,-0.430682,-0.388425,-0.004961,1,-0.005292, 0.006683, 0.010812,1,-0.000751,-0.031938,-0.999544,-0.005292, 0.006683, 0.010812, 0.012531,-0.106423,-0.151600,-0.000000, 0.000000,-0.000000,1,0
1777417003234276570,1842376000000,  1842.381,-0.000010,-0.000316,-0.009988,-0.000071, 0.000098, 0.000052,-0.430682,-0.388425,-0.004961,1,-0.005292, 0.006683, 0.010812,1,-0.000751,-0.031938,-0.999544,-0.005292, 0.006683, 0.010812, 0.012531,-0.106423,-0.151600,-0.000000, 0.000000,-0.000000,1,0
1777417003253928243,1842396000000,  1842.401, 0.000025,-0.000033,-0.009986,-0.000096, 0.000092, 0.000017,-0.423944,-0.221465, 0.003256,1,-0.007597, 0.009195, 0.004619,1, 0.000120,-0.014793,-0.998697,-0.007597, 0.009195, 0.004619, 0.012655,-0.106638,-0.151566,-0.000000, 0.000000,-0.000000,1,0
1777417003263602197,1842416000000,  1842.421, 0.000040, 0.000423,-0.009901,-0.000067, 0.000062, 0.000074,-0.404927, 0.126755, 0.063686,1,-0.006859, 0.007189, 0.005855,1, 0.002210, 0.020855,-0.992528,-0.006859, 0.007189, 0.005855, 0.013105,-0.106598,-0.151467,-0.000000, 0.000000,-0.000000,1,0
1777417003273686215,1842416000000,  1842.421, 0.000040, 0.000423,-0.009901,-0.000067, 0.000062, 0.000074,-0.404927, 0.126755, 0.063686,1,-0.006859, 0.007189, 0.005855,1, 0.002210, 0.020855,-0.992528,-0.006859, 0.007189, 0.005855, 0.013105,-0.106598,-0.151467,-0.000000, 0.000000,-0.000000,1,0
1777417003289260224,1842436000000,  1842.441, 0.000110, 0.000387,-0.009765, 0.000006, 0.000086, 0.000166,-0.361215, 0.256339, 0.116790,1,-0.001811, 0.007938, 0.012577,1, 0.006777, 0.034133,-0.987107,-0.001811, 0.007938, 0.012577, 0.012164,-0.106466,-0.152095,-0.000000, 0.000000,-0.000000,1,0
1777417003308984009,1842456000000,  1842.461, 0.000217, 0.000304,-0.009845, 0.000055, 0.000053, 0.000248,-0.261272, 0.245028, 0.082148,1, 0.002408, 0.006266, 0.020224,1, 0.017104, 0.032963,-0.990634, 0.002408, 0.006266, 0.020224, 0.011937,-0.106300,-0.152801,-0.000000, 0.000000,-0.000000,1,0
1777417003318658667,1842476000000,  1842.476, 0.000207, 0.000181,-0.010019, 0.000064, 0.000081, 0.000343,-0.238396, 0.164846, 0.025441,1, 0.005045, 0.007050, 0.028993,1, 0.019560, 0.024688,-0.996412, 0.005045, 0.007050, 0.028993, 0.012748,-0.106984,-0.152512,-0.000000, 0.000000,-0.000000,1,0
1777417003328742573,1842476000000,  1842.476, 0.000207, 0.000181,-0.010019, 0.000064, 0.000081, 0.000343,-0.238396, 0.164846, 0.025441,1, 0.005045, 0.007050, 0.028993,1, 0.019560, 0.024688,-0.996412, 0.005045, 0.007050, 0.028993, 0.012748,-0.106984,-0.152512,-0.000000, 0.000000,-0.000000,1,0
1777417003338098983,1842496000000,  1842.496, 0.000088,-0.000014,-0.009963, 0.000092, 0.000154, 0.000359,-0.253544, 0.089983, 0.041149,1, 0.007035, 0.009645, 0.032490,1, 0.013805, 0.008281,-0.996408, 0.008195, 0.012349, 0.033987, 0.013239,-0.106569,-0.152015,-0.000000, 0.000000,-0.000000,1,0
1777417003348183056,1842496000000,  1842.496, 0.000088,-0.000014,-0.009963, 0.000092, 0.000154, 0.000359,-0.253544, 0.089983, 0.041149,1, 0.007035, 0.009645, 0.032490,1, 0.013805, 0.008281,-0.996408, 0.008195, 0.012349, 0.033987, 0.013239,-0.106569,-0.152015,-0.000000, 0.000000,-0.000000,1,0
1777417003367901305,1842516000000,  1842.516,-0.000026,-0.000117,-0.009980, 0.000094, 0.000241, 0.000327,-0.356560,-0.064436, 0.007331,1, 0.010625, 0.014971, 0.034049,1, 0.003276,-0.004608,-0.998222, 0.010145, 0.019097, 0.033381, 0.012849,-0.106133,-0.152127,-0.000000, 0.000000,-0.000000,1,0
1777417003377565554,1842536000000,  1842.536,-0.000016,-0.000096,-0.009990, 0.000092, 0.000251, 0.000307,-0.431334,-0.139025, 0.043165,1, 0.009632, 0.021546, 0.032191,1,-0.000456,-0.008100,-0.996517, 0.009547, 0.023296, 0.031478, 0.012146,-0.106031,-0.153474,-0.000000, 0.000000,-0.000000,1,0
1777417003387650350,1842536000000,  1842.536,-0.000016,-0.000096,-0.009990, 0.000092, 0.000251, 0.000307,-0.431334,-0.139025, 0.043165,1, 0.009632, 0.021546, 0.032191,1,-0.000456,-0.008100,-0.996517, 0.009547, 0.023296, 0.031478, 0.012146,-0.106031,-0.153474,-0.000000, 0.000000,-0.000000,1,0
1777417003397312563,1842556000000,  1842.556,-0.000013,-0.000033,-0.009901, 0.000089, 0.000255, 0.000285,-0.434445,-0.170086, 0.016233,1, 0.009954, 0.024624, 0.030763,1, 0.000151,-0.007184,-0.994607, 0.009484, 0.025165, 0.029711, 0.011789,-0.105779,-0.152268,-0.000000, 0.000000,-0.000000,1,0
1777417003407397414,1842556000000,  1842.556,-0.000013,-0.000033,-0.009901, 0.000089, 0.000255, 0.000285,-0.434445,-0.170086, 0.016233,1, 0.009954, 0.024624, 0.030763,1, 0.000151,-0.007184,-0.994607, 0.009484, 0.025165, 0.029711, 0.011789,-0.105779,-0.152268,-0.000000, 0.000000,-0.000000,1,0
1777417003417053700,1842576000000,  1842.576, 0.000279, 0.000127,-0.009981, 0.000080, 0.000272, 0.000278,-0.422500,-0.117811, 0.001506,1, 0.008756, 0.025457, 0.028783,1, 0.015766, 0.004547,-1.000141, 0.008267, 0.026148, 0.028386, 0.012414,-0.106140,-0.151148,-0.000000, 0.000000,-0.000000,1,0
1777417003427138718,1842576000000,  1842.576, 0.000279, 0.000127,-0.009981, 0.000080, 0.000272, 0.000278,-0.422500,-0.117811, 0.001506,1, 0.008756, 0.025457, 0.028783,1, 0.015766, 0.004547,-1.000141, 0.008267, 0.026148, 0.028386, 0.012414,-0.106140,-0.151148,-0.000000, 0.000000,-0.000000,1,0
1777417003446855467,1842596000000,  1842.596, 0.000910, 0.000425,-0.008896,-0.000109,-0.000194, 0.000457,-0.118855, 0.335842, 0.024703,1, 0.020201, 0.000640, 0.031642,1, 0.061619, 0.039121,-0.967476, 0.005453,-0.009804, 0.038549, 0.013301,-0.105798,-0.151016,-0.000000, 0.000000,-0.000000,1,0
1777417003456545254,1842616000000,  1842.616, 0.000450, 0.000727,-0.009504, 0.000140, 0.000026, 0.000550, 0.064440, 0.203612,-0.304876,1, 0.006208,-0.008974, 0.044491,1, 0.047001, 0.052062,-0.986262, 0.010830,-0.002637, 0.049469, 0.012299,-0.105714,-0.152249,-0.000000, 0.000000,-0.000000,1,0
1777417003466629457,1842616000000,  1842.616, 0.000450, 0.000727,-0.009504, 0.000140, 0.000026, 0.000550, 0.064440, 0.203612,-0.304876,1, 0.006208,-0.008974, 0.044491,1, 0.047001, 0.052062,-0.986262, 0.010830,-0.002637, 0.049469, 0.012299,-0.105714,-0.152249,-0.000000, 0.000000,-0.000000,1,0
1777417003476280503,1842636000000,  1842.636, 0.000427,-0.000011,-0.010205,-0.000188, 0.000037, 0.000782, 0.075294, 0.543220, 0.000533,1, 0.007902, 0.007785, 0.059083,1, 0.048959, 0.034145,-1.012621,-0.005372, 0.005671, 0.067631, 0.011634,-0.105458,-0.152313,-0.000000, 0.000000,-0.000000,1,0
1777417003486364261,1842636000000,  1842.636, 0.000427,-0.000011,-0.010205,-0.000188, 0.000037, 0.000782, 0.075294, 0.543220, 0.000533,1, 0.007902, 0.007785, 0.059083,1, 0.048959, 0.034145,-1.012621,-0.005372, 0.005671, 0.067631, 0.011634,-0.105458,-0.152313,-0.000000, 0.000000,-0.000000,1,0
1777417003506061843,1842646000000,  1842.651, 0.000420,-0.000295,-0.010528,-0.000048, 0.000180, 0.000738, 0.006757,-0.013806,-0.274101,1,-0.005172, 0.012390, 0.070137,1, 0.046606, 0.004902,-1.026876,-0.005172, 0.012391, 0.070137, 0.012845,-0.105727,-0.150725,-0.000000, 0.000000,-0.000000,1,0
1777417003525823684,1842666000000,  1842.671, 0.000777,-0.000080,-0.010291,-0.000404, 0.000102, 0.000631, 0.229533,-0.148068,-0.160603,1,-0.028885, 0.012317, 0.065733,1, 0.069603,-0.008492,-1.015287,-0.028885, 0.012317, 0.065733, 0.012304,-0.105161,-0.150523,-0.000000, 0.000000,-0.000000,1,0
1777417003535496601,1842686000000,  1842.691, 0.001383,-0.000051,-0.009954,-0.000289,-0.000040, 0.000585, 0.615106,-0.190137, 0.001341,1,-0.028986, 0.005499, 0.061057,1, 0.109165,-0.012273,-0.998759,-0.028986, 0.005499, 0.061057, 0.011228,-0.104764,-0.151727,-0.000000, 0.000000,-0.000000,1,0
1777417003545580637,1842686000000,  1842.691, 0.001383,-0.000051,-0.009954,-0.000289,-0.000040, 0.000585, 0.615106,-0.190137, 0.001341,1,-0.028986, 0.005499, 0.061057,1, 0.109165,-0.012273,-0.998759,-0.028986, 0.005499, 0.061057, 0.011228,-0.104764,-0.151727,-0.000000, 0.000000,-0.000000,1,0
1777417003555243998,1842706000000,  1842.711, 0.001668,-0.000104,-0.012036, 0.000419, 0.000113, 0.000685, 1.038033,-0.139362,-1.117214,1, 0.008170, 0.002725, 0.065446,1, 0.152218,-0.006828,-1.112821, 0.008170, 0.002725, 0.065446, 0.010968,-0.104497,-0.152262,-0.000000, 0.000000,-0.000000,1,0
1777417003565342053,1842706000000,  1842.711, 0.001668,-0.000104,-0.012036, 0.000419, 0.000113, 0.000685, 1.038033,-0.139362,-1.117214,1, 0.008170, 0.002725, 0.065446,1, 0.152218,-0.006828,-1.112821, 0.008170, 0.002725, 0.065446, 0.010968,-0.104497,-0.152262,-0.000000, 0.000000,-0.000000,1,0
1777417003585038375,1842726000000,  1842.731, 0.002628,-0.000593,-0.011065, 0.001334, 0.000237, 0.000449, 1.702410,-0.744957,-0.957349,1, 0.094441, 0.018303, 0.057605,1, 0.220232,-0.069798,-1.096515, 0.094441, 0.018303, 0.057605, 0.012131,-0.104396,-0.152270,-0.000000, 0.000000,-0.000000,1,0
1777417003604777957,1842746000000,  1842.751, 0.003108, 0.000291,-0.009525, 0.001224, 0.000716, 0.000372, 2.211521,-0.057933,-0.511131,1, 0.126937, 0.046372, 0.045066,1, 0.272684,-0.002085,-1.050999, 0.126936, 0.046372, 0.045066, 0.013174,-0.104436,-0.151766,-0.000000, 0.000000,-0.000000,1,0
1777417003614452781,1842766000000,  1842.771, 0.003191,-0.000565,-0.011421, 0.000473, 0.001158, 0.000473, 2.527384,-0.346849,-1.475872,1, 0.085141, 0.092318, 0.047838,1, 0.306260,-0.033640,-1.149315, 0.085141, 0.092318, 0.047838, 0.012850,-0.104232,-0.151926,-0.000000, 0.000000,-0.000000,1,0
1777417003624537670,1842766000000,  1842.771, 0.003191,-0.000565,-0.011421, 0.000473, 0.001158, 0.000473, 2.527384,-0.346849,-1.475872,1, 0.085141, 0.092318, 0.047838,1, 0.306260,-0.033640,-1.149315, 0.085141, 0.092318, 0.047838, 0.012850,-0.104232,-0.151926,-0.000000, 0.000000,-0.000000,1,0
1777417003634257254,1842786000000,  1842.791, 0.003521,-0.000182,-0.010835, 0.000196, 0.001753, 0.000385, 2.731206,-0.313358,-1.163496,1, 0.045829, 0.145876, 0.041800,1, 0.329412,-0.031449,-1.117344, 0.045829, 0.145876, 0.041800, 0.012225,-0.103587,-0.153314,-0.000000, 0.000000,-0.000000,1,0
1777417003644341938,1842786000000,  1842.791, 0.003521,-0.000182,-0.010835, 0.000196, 0.001753, 0.000385, 2.731206,-0.313358,-1.163496,1, 0.045829, 0.145876, 0.041800,1, 0.329412,-0.031449,-1.117344, 0.045829, 0.145876, 0.041800, 0.012225,-0.103587,-0.153314,-0.000000, 0.000000,-0.000000,1,0
1777417003664016945,1842806000000,  1842.811, 0.003532, 0.000205,-0.010080, 0.000052, 0.002110, 0.000506, 2.850889, 0.024956,-0.242847,1, 0.020334, 0.187987, 0.047041,1, 0.344985, 0.002410,-1.023286, 0.020334, 0.187987, 0.047041, 0.012317,-0.103629,-0.154173,-0.000000, 0.000000,-0.000000,1,0
1777417003683725582,1842826000000,  1842.831, 0.003278, 0.000314,-0.009964,-0.000034, 0.002023, 0.000637, 2.692897, 0.216785, 0.004762,1, 0.005222, 0.198523, 0.057522,1, 0.332786, 0.021710,-0.997815, 0.005222, 0.198523, 0.057522, 0.012848,-0.103508,-0.154638,-0.000000, 0.000000,-0.000000,1,0
1777417003699326944,1842846000000,  1842.851, 0.003030, 0.000530,-0.009236,-0.000021, 0.001843, 0.000770, 2.478473, 0.430300, 0.536329,1,-0.000174, 0.193190, 0.069655,1, 0.314893, 0.043395,-0.943371,-0.000174, 0.193190, 0.069655, 0.013285,-0.103005,-0.155076,-0.000000, 0.000000,-0.000000,1,0
1777417003719044692,1842866000000,  1842.871, 0.002803, 0.000788,-0.009160, 0.000179, 0.001453, 0.000855, 2.278761, 0.583025, 0.946987,1, 0.011208, 0.167692, 0.080369,1, 0.298199, 0.058766,-0.901260, 0.011208, 0.167692, 0.080369, 0.013052,-0.102181,-0.156961,-0.000000, 0.000000,-0.000000,1,0
1777417003738788478,1842886000000,  1842.886, 0.002659, 0.000313,-0.009051, 0.000267, 0.001044, 0.000878, 2.051808, 0.400117, 0.927003,1, 0.024544, 0.126087, 0.085981,1, 0.277955, 0.039602,-0.903103, 0.024544, 0.126087, 0.085981, 0.012164,-0.101932,-0.158342,-0.000000, 0.000000,-0.000000,1,0
1777417003748470265,1842906000000,  1842.906, 0.002765, 0.000082,-0.009082,-0.000131, 0.000858, 0.000966, 2.007818, 0.170167, 1.068004,1, 0.002972, 0.098935, 0.092750,1, 0.275676, 0.015729,-0.888571, 0.002972, 0.098935, 0.092750, 0.011586,-0.101570,-0.158931,-0.000000, 0.000000,-0.000000,1,0
1777417003758555246,1842906000000,  1842.906, 0.002765, 0.000082,-0.009082,-0.000131, 0.000858, 0.000966, 2.007818, 0.170167, 1.068004,1, 0.002972, 0.098935, 0.092750,1, 0.275676, 0.015729,-0.888571, 0.002972, 0.098935, 0.092750, 0.011586,-0.101570,-0.158931,-0.000000, 0.000000,-0.000000,1,0
1777417003777943080,1842926000000,  1842.926, 0.002721, 0.000387,-0.009176,-0.000539, 0.000602, 0.001049, 2.020325, 0.212701, 1.245670,1,-0.016243, 0.087427, 0.096062,1, 0.275788, 0.029020,-0.891600,-0.033826, 0.074609, 0.100136, 0.012073,-0.101248,-0.158152,-0.000000, 0.000000,-0.000000,1,0
1777417003787631719,1842946000000,  1842.946, 0.002573,-0.000393,-0.009596,-0.000794, 0.000380, 0.001042, 1.895762, 0.166746, 1.016494,1,-0.049376, 0.062255, 0.103808,1, 0.262558,-0.009423,-0.922689,-0.063398, 0.050279, 0.103958, 0.012146,-0.099965,-0.158811,-0.000000, 0.000000,-0.000000,1,0
1777417003797730089,1842946000000,  1842.946, 0.002573,-0.000393,-0.009596,-0.000794, 0.000380, 0.001042, 1.895762, 0.166746, 1.016494,1,-0.049376, 0.062255, 0.103808,1, 0.262558,-0.009423,-0.922689,-0.063398, 0.050279, 0.103958, 0.012146,-0.099965,-0.158811,-0.000000, 0.000000,-0.000000,1,0
1777417003807366616,1842966000000,  1842.966, 0.002731,-0.000322,-0.009649,-0.000626, 0.000279, 0.001001, 1.773800,-0.164768, 0.636509,1,-0.070834, 0.044220, 0.102413,1, 0.263254,-0.024613,-0.946357,-0.066953, 0.036734, 0.101328, 0.011744,-0.099135,-0.159768,-0.000000, 0.000000,-0.000000,1,0
1777417003817451411,1842966000000,  1842.966, 0.002731,-0.000322,-0.009649,-0.000626, 0.000279, 0.001001, 1.773800,-0.164768, 0.636509,1,-0.070834, 0.044220, 0.102413,1, 0.263254,-0.024613,-0.946357,-0.066953, 0.036734, 0.101328, 0.011744,-0.099135,-0.159768,-0.000000, 0.000000,-0.000000,1,0
1777417003827114272,1842986000000,  1842.986, 0.002588,-0.000287,-0.009906,-0.000154, 0.000219, 0.000971, 1.896738,-0.262028, 0.198621,1,-0.053235, 0.027527, 0.100551,1, 0.264535,-0.026884,-0.991499,-0.036150, 0.024776, 0.098761, 0.010870,-0.098541,-0.160892,-0.000000, 0.000000,-0.000000,1,0
1777417003837199031,1842986000000,  1842.986, 0.002588,-0.000287,-0.009906,-0.000154, 0.000219, 0.000971, 1.896738,-0.262028, 0.198621,1,-0.053235, 0.027527, 0.100551,1, 0.264535,-0.026884,-0.991499,-0.036150, 0.024776, 0.098761, 0.010870,-0.098541,-0.160892,-0.000000, 0.000000,-0.000000,1,0
1777417003856961706,1843006000000,  1843.006, 0.002498,-0.000335,-0.010081, 0.000319, 0.000281, 0.000787, 1.702977,-0.451621, 0.115306,1,-0.007997, 0.019841, 0.095015,1, 0.248778,-0.037657,-0.998631, 0.011210, 0.022926, 0.087533, 0.010310,-0.098189,-0.161658,-0.000000, 0.000000,-0.000000,1,0
1777417003866196594,1843026000000,  1843.026, 0.002345,-0.000330,-0.009770, 0.000505, 0.000154, 0.000784, 1.668537,-0.221704, 0.047491,1, 0.025797, 0.028167, 0.082900,1, 0.239763,-0.028596,-0.978403, 0.036770, 0.021977, 0.080761, 0.010939,-0.098265,-0.159982,-0.000000, 0.000000,-0.000000,1,0
1777417003876282668,1843026000000,  1843.026, 0.002345,-0.000330,-0.009770, 0.000505, 0.000154, 0.000784, 1.668537,-0.221704, 0.047491,1, 0.025797, 0.028167, 0.082900,1, 0.239763,-0.028596,-0.978403, 0.036770, 0.021977, 0.080761, 0.010939,-0.098265,-0.159982,-0.000000, 0.000000,-0.000000,1,0
1777417003895949471,1843036000000,  1843.041, 0.002238,-0.000071,-0.009262, 0.000384, 0.000103, 0.000721, 1.519230,-0.159940, 0.405020,1, 0.037220, 0.017077, 0.076775,1, 0.231414,-0.015860,-0.955769, 0.037220, 0.017077, 0.076775, 0.010254,-0.097587,-0.160554,-0.000000, 0.000000,-0.000000,1,0
1777417003905624998,1843056000000,  1843.061, 0.002082, 0.000089,-0.009103, 0.000005,-0.000099, 0.000857, 1.378532, 0.048616, 0.588444,1, 0.017253, 0.000343, 0.081833,1, 0.217251, 0.004697,-0.937051, 0.017253, 0.000343, 0.081833, 0.010321,-0.097065,-0.160334,-0.000000, 0.000000,-0.000000,1,0
1777417003915712053,1843056000000,  1843.061, 0.002082, 0.000089,-0.009103, 0.000005,-0.000099, 0.000857, 1.378532, 0.048616, 0.588444,1, 0.017253, 0.000343, 0.081833,1, 0.217251, 0.004697,-0.937051, 0.017253, 0.000343, 0.081833, 0.010321,-0.097065,-0.160334,-0.000000, 0.000000,-0.000000,1,0
1777417003925383581,1843076000000,  1843.081, 0.002006, 0.000113,-0.009659,-0.000351,-0.000415, 0.000902, 1.224680, 0.081987, 0.552000,1,-0.014818,-0.024624, 0.086925,1, 0.201336, 0.007921,-0.940785,-0.014818,-0.024624, 0.086925, 0.010492,-0.097064,-0.159973,-0.000000, 0.000000,-0.000000,1,0
1777417003935470617,1843076000000,  1843.081, 0.002006, 0.000113,-0.009659,-0.000351,-0.000415, 0.000902, 1.224680, 0.081987, 0.552000,1,-0.014818,-0.024624, 0.086925,1, 0.201336, 0.007921,-0.940785,-0.014818,-0.024624, 0.086925, 0.010492,-0.097064,-0.159973,-0.000000, 0.000000,-0.000000,1,0
1777417003945112626,1843096000000,  1843.101, 0.001881, 0.000136,-0.009643,-0.000346,-0.000175, 0.000973, 1.069899, 0.132196, 0.556063,1,-0.030316,-0.025207, 0.092929,1, 0.184983, 0.013396,-0.940414,-0.030316,-0.025207, 0.092929, 0.011230,-0.096554,-0.159540,-0.000000, 0.000000,-0.000000,1,0
1777417003955258812,1843096000000,  1843.101, 0.001881, 0.000136,-0.009643,-0.000346,-0.000175, 0.000973, 1.069899, 0.132196, 0.556063,1,-0.030316,-0.025207, 0.092929,1, 0.184983, 0.013396,-0.940414,-0.030316,-0.025207, 0.092929, 0.011230,-0.096554,-0.159540,-0.000000, 0.000000,-0.000000,1,0
1777417003974926244,1843116000000,  1843.121, 0.001991,-0.000646,-0.009915,-0.000407,-0.000328, 0.000882, 1.108861,-0.273278, 0.139143,1,-0.035836,-0.032516, 0.091487,1, 0.188385,-0.027499,-0.982971,-0.035836,-0.032516, 0.091487, 0.010306,-0.095736,-0.160217,-0.000000, 0.000000,-0.000000,1,0
1777417003984582493,1843136000000,  1843.141, 0.001749, 0.000172,-0.010256,-0.000188,-0.000408, 0.000798, 1.057905,-0.148782, 0.045594,1,-0.026202,-0.039883, 0.084321,1, 0.182434,-0.014261,-0.992567,-0.026202,-0.039883, 0.084321, 0.009845,-0.094962,-0.160151,-0.000000, 0.000000,-0.000000,1,0
1777417003994666289,1843136000000,  1843.141, 0.001749, 0.000172,-0.010256,-0.000188,-0.000408, 0.000798, 1.057905,-0.148782, 0.045594,1,-0.026202,-0.039883, 0.084321,1, 0.182434,-0.014261,-0.992567,-0.026202,-0.039883, 0.084321, 0.009845,-0.094962,-0.160151,-0.000000, 0.000000,-0.000000,1,0
1777417004004331798,1843156000000,  1843.161, 0.001736,-0.000504,-0.009938, 0.000176,-0.000408, 0.000700, 0.988381,-0.334586, 0.118958,1, 0.001787,-0.038426, 0.076323,1, 0.174631,-0.033105,-0.985139, 0.001787,-0.038426, 0.076323, 0.009446,-0.095192,-0.159666,-0.000000, 0.000000,-0.000000,1,0
1777417004014416481,1843156000000,  1843.161, 0.001736,-0.000504,-0.009938, 0.000176,-0.000408, 0.000700, 0.988381,-0.334586, 0.118958,1, 0.001787,-0.038426, 0.076323,1, 0.174631,-0.033105,-0.985139, 0.001787,-0.038426, 0.076323, 0.009446,-0.095192,-0.159666,-0.000000, 0.000000,-0.000000,1,0
1777417004024076024,1843176000000,  1843.181, 0.001845,-0.000116,-0.009907, 0.000044,-0.000656, 0.000605, 1.047205,-0.210039, 0.165924,1, 0.007760,-0.050023, 0.065626,1, 0.179805,-0.020648,-0.980410, 0.007760,-0.050023, 0.065626, 0.009797,-0.094843,-0.158715,-0.000000, 0.000000,-0.000000,1,0
1777417004034160466,1843176000000,  1843.181, 0.001845,-0.000116,-0.009907, 0.000044,-0.000656, 0.000605, 1.047205,-0.210039, 0.165924,1, 0.007760,-0.050023, 0.065626,1, 0.179805,-0.020648,-0.980410, 0.007760,-0.050023, 0.065626, 0.009797,-0.094843,-0.158715,-0.000000, 0.000000,-0.000000,1,0
1777417004053886748,1843196000000,  1843.201, 0.001793,-0.000287,-0.009958,-0.000007,-0.000611, 0.000590, 0.986142,-0.178013, 0.183743,1, 0.004667,-0.054591, 0.061232,1, 0.172581,-0.017643,-0.978666, 0.004667,-0.054591, 0.061232, 0.009683,-0.094699,-0.158085,-0.000000, 0.000000,-0.000000,1,0
1777417004063667665,1843216000000,  1843.221, 0.001928,-0.000007,-0.010492,-0.000234,-0.000579, 0.000538, 1.038184,-0.077244, 0.015005,1,-0.012993,-0.055029, 0.056594,1, 0.176832,-0.007334,-0.995948,-0.012993,-0.055028, 0.056594, 0.009341,-0.094516,-0.159597,-0.000000, 0.000000,-0.000000,1,0
1777417004073752644,1843216000000,  1843.221, 0.001928,-0.000007,-0.010492,-0.000234,-0.000579, 0.000538, 1.038184,-0.077244, 0.015005,1,-0.012993,-0.055029, 0.056594,1, 0.176832,-0.007334,-0.995948,-0.012993,-0.055028, 0.056594, 0.009341,-0.094516,-0.159597,-0.000000, 0.000000,-0.000000,1,0
1777417004089179683,1843236000000,  1843.241, 0.001549,-0.000619,-0.010856,-0.000264,-0.000454, 0.000493, 0.880621,-0.364498,-0.381594,1,-0.020993,-0.048268, 0.053006,1, 0.159802,-0.036329,-1.036458,-0.020994,-0.048268, 0.053006, 0.008697,-0.094061,-0.159715,-0.000000, 0.000000,-0.000000,1,0
1777417004108938280,1843256000000,  1843.256, 0.001328,-0.000251,-0.012319,-0.000124,-0.000281, 0.000364, 0.726659,-0.360820,-1.160973,1,-0.018536,-0.036353, 0.043205,1, 0.143281,-0.035550,-1.115989,-0.018536,-0.036353, 0.043205, 0.008659,-0.094072,-0.158789,-0.000000, 0.000000,-0.000000,1,0
1777417004118615028,1843276000000,  1843.276, 0.001253,-0.000412,-0.010991, 0.000218, 0.000212, 0.000182, 0.470176,-0.381157,-0.869525,1, 0.006642,-0.000952, 0.028635,1, 0.116789,-0.037525,-1.086293, 0.006642,-0.000952, 0.028635, 0.008609,-0.094251,-0.157284,-0.000000, 0.000000,-0.000000,1,0
1777417004128719711,1843276000000,  1843.276, 0.001253,-0.000412,-0.010991, 0.000218, 0.000212, 0.000182, 0.470176,-0.381157,-0.869525,1, 0.006642,-0.000952, 0.028635,1, 0.116789,-0.037525,-1.086293, 0.006642,-0.000952, 0.028635, 0.008609,-0.094251,-0.157284,-0.000000, 0.000000,-0.000000,1,0
1777417004138042803,1843296000000,  1843.296, 0.001458,-0.000053,-0.010088, 0.000443, 0.000232, 0.000070, 0.537495,-0.326967,-0.685987,1, 0.019018, 0.015349, 0.020588,1, 0.132547,-0.020915,-1.035100, 0.031674, 0.019205, 0.014542, 0.008684,-0.094152,-0.156629,-0.000000, 0.000000,-0.000000,1,0
1777417004148127171,1843296000000,  1843.296, 0.001458,-0.000053,-0.010088, 0.000443, 0.000232, 0.000070, 0.537495,-0.326967,-0.685987,1, 0.019018, 0.015349, 0.020588,1, 0.132547,-0.020915,-1.035100, 0.031674, 0.019205, 0.014542, 0.008684,-0.094152,-0.156629,-0.000000, 0.000000,-0.000000,1,0
1777417004167829730,1843316000000,  1843.316, 0.001259,-0.000054,-0.010129, 0.000220, 0.000234, 0.000005, 0.537495,-0.326967,-0.685987,1, 0.019018, 0.015349, 0.020588,1, 0.134269,-0.012730,-1.016557, 0.031539, 0.026588, 0.005678, 0.008343,-0.093741,-0.157805,-0.000000, 0.000000,-0.000000,1,0
1777417004177502311,1843336000000,  1843.336, 0.000950,-0.000269,-0.010206, 0.000165, 0.000482, 0.000051, 0.630443,-0.100247,-0.471994,1, 0.023640, 0.033995, 0.004082,1, 0.113559,-0.020389,-1.027468, 0.021077, 0.041768, 0.004777, 0.008552,-0.093784,-0.158261,-0.000000, 0.000000,-0.000000,1,0
1777417004187587068,1843336000000,  1843.336, 0.000950,-0.000269,-0.010206, 0.000165, 0.000482, 0.000051, 0.630443,-0.100247,-0.471994,1, 0.023640, 0.033995, 0.004082,1, 0.113559,-0.020389,-1.027468, 0.021077, 0.041768, 0.004777, 0.008552,-0.093784,-0.158261,-0.000000, 0.000000,-0.000000,1,0
1777417004197263353,1843356000000,  1843.356, 0.000936,-0.000015,-0.010245, 0.000047, 0.000692, 0.000028, 0.460849,-0.087038,-0.552818,1, 0.006511, 0.056507, 0.002325,1, 0.105678,-0.007753,-1.039746, 0.006605, 0.064599, 0.002753, 0.008358,-0.094725,-0.158989,-0.000000, 0.000000,-0.000000,1,0
1777417004207347702,1843356000000,  1843.356, 0.000936,-0.000015,-0.010245, 0.000047, 0.000692, 0.000028, 0.460849,-0.087038,-0.552818,1, 0.006511, 0.056507, 0.002325,1, 0.105678,-0.007753,-1.039746, 0.006605, 0.064599, 0.002753, 0.008358,-0.094725,-0.158989,-0.000000, 0.000000,-0.000000,1,0
1777417004227048261,1843376000000,  1843.376, 0.001113,-0.000214,-0.010564,-0.000063, 0.000949, 0.000035, 0.522133,-0.139568,-0.777355,1, 0.002447, 0.076112, 0.002737,1, 0.122360,-0.021073,-1.069657,-0.001744, 0.085216, 0.003201, 0.008336,-0.094834,-0.158056,-0.000000, 0.000000,-0.000000,1,0
1777417004246800043,1843396000000,  1843.396, 0.001105,-0.000167,-0.010416,-0.000229, 0.001287,-0.000027, 0.463746,-0.318257,-0.696214,1,-0.013254, 0.091518, 0.000373,1, 0.117700,-0.027108,-1.058903,-0.018271, 0.107844,-0.001101, 0.008184,-0.095003,-0.158194,-0.000000, 0.000000,-0.000000,1,0
1777417004256459957,1843416000000,  1843.416, 0.001557,-0.000374,-0.010215,-0.000175, 0.001230,-0.000060, 0.358274,-0.180518,-0.486055,1,-0.017353, 0.118097,-0.001765,1, 0.132263,-0.026059,-1.037786,-0.016279, 0.120117,-0.003669, 0.007585,-0.095200,-0.160504,-0.000000, 0.000000,-0.000000,1,0
1777417004266543158,1843416000000,  1843.416, 0.001557,-0.000374,-0.010215,-0.000175, 0.001230,-0.000060, 0.358274,-0.180518,-0.486055,1,-0.017353, 0.118097,-0.001765,1, 0.132263,-0.026059,-1.037786,-0.016279, 0.120117,-0.003669, 0.007585,-0.095200,-0.160504,-0.000000, 0.000000,-0.000000,1,0
1777417004276206276,1843436000000,  1843.436, 0.001030,-0.000271,-0.009441,-0.000374, 0.000849,-0.000081, 0.447721,-0.312262,-0.177721,1,-0.021122, 0.110122,-0.005608,1, 0.113043,-0.027027,-0.978041,-0.029285, 0.098457,-0.006657, 0.007773,-0.095553,-0.161824,-0.000000, 0.000000,-0.000000,1,0
1777417004286290366,1843436000000,  1843.436, 0.001030,-0.000271,-0.009441,-0.000374, 0.000849,-0.000081, 0.447721,-0.312262,-0.177721,1,-0.021122, 0.110122,-0.005608,1, 0.113043,-0.027027,-0.978041,-0.029285, 0.098457,-0.006657, 0.007773,-0.095553,-0.161824,-0.000000, 0.000000,-0.000000,1,0
1777417004306008684,1843446000000,  1843.451, 0.001098, 0.000187,-0.009422,-0.000622, 0.001233, 0.000075, 0.343442,-0.033999, 0.322473,1,-0.046179, 0.110812,-0.000116,1, 0.115386,-0.002636,-0.963880,-0.046179, 0.110812,-0.000116, 0.008594,-0.095693,-0.160778,-0.000000, 0.000000,-0.000000,1,0
1777417004325753429,1843466000000,  1843.471, 0.000848, 0.000311,-0.009979,-0.000435, 0.001157, 0.000167, 0.210571, 0.043702, 0.017183,1,-0.052459, 0.110587, 0.012341,1, 0.104027, 0.006182,-0.994831,-0.052459, 0.110587, 0.012341, 0.008398,-0.095949,-0.161526,-0.000000, 0.000000,-0.000000,1,0
1777417004335428196,1843486000000,  1843.491, 0.000613, 0.000171,-0.009793, 0.000147, 0.000775, 0.000377, 0.103181, 0.295343,-0.093426,1,-0.009934, 0.087832, 0.028398,1, 0.094989, 0.032269,-1.005949,-0.009934, 0.087832, 0.028398, 0.007748,-0.096103,-0.163009,-0.000000, 0.000000,-0.000000,1,0
1777417004345512415,1843486000000,  1843.491, 0.000613, 0.000171,-0.009793, 0.000147, 0.000775, 0.000377, 0.103181, 0.295343,-0.093426,1,-0.009934, 0.087832, 0.028398,1, 0.094989, 0.032269,-1.005949,-0.009934, 0.087832, 0.028398, 0.007748,-0.096103,-0.163009,-0.000000, 0.000000,-0.000000,1,0
1777417004355177848,1843506000000,  1843.511, 0.000588, 0.000051,-0.009984,-0.000047, 0.000955, 0.000353,-0.094197, 0.158281,-0.071584,1,-0.000197, 0.091132, 0.033324,1, 0.076630, 0.018292,-1.003571,-0.000198, 0.091132, 0.033324, 0.007320,-0.096455,-0.163890,-0.000000, 0.000000,-0.000000,1,0
1777417004365261197,1843506000000,  1843.511, 0.000588, 0.000051,-0.009984,-0.000047, 0.000955, 0.000353,-0.094197, 0.158281,-0.071584,1,-0.000197, 0.091132, 0.033324,1, 0.076630, 0.018292,-1.003571,-0.000198, 0.091132, 0.033324, 0.007320,-0.096455,-0.163890,-0.000000, 0.000000,-0.000000,1,0
1777417004384970830,1843526000000,  1843.531, 0.000681, 0.000053,-0.010359,-0.000007, 0.001286, 0.000403,-0.034771, 0.130083,-0.232688,1, 0.001459, 0.109276, 0.037765,1, 0.084602, 0.015314,-1.019832, 0.001459, 0.109276, 0.037765, 0.007411,-0.096508,-0.163929,-0.000000, 0.000000,-0.000000,1,0
1777417004394648893,1843546000000,  1843.551, 0.000870,-0.000097,-0.010593,-0.000233, 0.001043, 0.000337,-0.025218, 0.003185,-0.355073,1,-0.007743, 0.106933, 0.035966,1, 0.087725, 0.002349,-1.032119,-0.007743, 0.106933, 0.035966, 0.007609,-0.096870,-0.163607,-0.000000, 0.000000,-0.000000,1,0
1777417004404734205,1843546000000,  1843.551, 0.000870,-0.000097,-0.010593,-0.000233, 0.001043, 0.000337,-0.025218, 0.003185,-0.355073,1,-0.007743, 0.106933, 0.035966,1, 0.087725, 0.002349,-1.032119,-0.007743, 0.106933, 0.035966, 0.007609,-0.096870,-0.163607,-0.000000, 0.000000,-0.000000,1,0
1777417004414392453,1843566000000,  1843.571, 0.000612, 0.000612,-0.010632,-0.000423, 0.001144, 0.000442,-0.095460, 0.276469,-0.131738,1,-0.027130, 0.113152, 0.041774,1, 0.082736, 0.030606,-1.009144,-0.027131, 0.113153, 0.041774, 0.006391,-0.096867,-0.165331,-0.000000, 0.000000,-0.000000,1,0
1777417004424477839,1843566000000,  1843.571, 0.000612, 0.000612,-0.010632,-0.000423, 0.001144, 0.000442,-0.095460, 0.276469,-0.131738,1,-0.027130, 0.113152, 0.041774,1, 0.082736, 0.030606,-1.009144,-0.027131, 0.113153, 0.041774, 0.006391,-0.096867,-0.165331,-0.000000, 0.000000,-0.000000,1,0
1777417004434136864,1843586000000,  1843.591, 0.001015,-0.000199,-0.009306,-0.000265, 0.001012, 0.000465, 0.072950,-0.023246, 0.539317,1,-0.028714, 0.111766, 0.045146,1, 0.102179, 0.000638,-0.940501,-0.028714, 0.111767, 0.045146, 0.006106,-0.097227,-0.166772,-0.000000, 0.000000,-0.000000,1,0
1777417004444220529,1843586000000,  1843.591, 0.001015,-0.000199,-0.009306,-0.000265, 0.001012, 0.000465, 0.072950,-0.023246, 0.539317,1,-0.028714, 0.111766, 0.045146,1, 0.102179, 0.000638,-0.940501,-0.028714, 0.111767, 0.045146, 0.006106,-0.097227,-0.166772,-0.000000, 0.000000,-0.000000,1,0
1777417004463936458,1843606000000,  1843.611, 0.000835,-0.000094,-0.009294,-0.000174, 0.000810, 0.000432, 0.039644, 0.006261, 0.534783,1,-0.026191, 0.092244, 0.042835,1, 0.100813, 0.004174,-0.940766,-0.026191, 0.092244, 0.042835, 0.005810,-0.097984,-0.167944,-0.000000, 0.000000,-0.000000,1,0
1777417004473613224,1843626000000,  1843.631, 0.001107,-0.000234,-0.009646,-0.000078, 0.000632, 0.000389, 0.054322,-0.037451, 0.406359,1,-0.008479, 0.076410, 0.040735,1, 0.104463,-0.000093,-0.953649,-0.008479, 0.076410, 0.040735, 0.005506,-0.098619,-0.167718,-0.000000, 0.000000,-0.000000,1,0
1777417004483698796,1843626000000,  1843.631, 0.001107,-0.000234,-0.009646,-0.000078, 0.000632, 0.000389, 0.054322,-0.037451, 0.406359,1,-0.008479, 0.076410, 0.040735,1, 0.104463,-0.000093,-0.953649,-0.008479, 0.076410, 0.040735, 0.005506,-0.098619,-0.167718,-0.000000, 0.000000,-0.000000,1,0
1777417004499238301,1843626000000,  1843.651, 0.001107,-0.000234,-0.009646,-0.000078, 0.000632, 0.000389,-0.149509, 0.020810, 0.597814,1,-0.008128, 0.061603, 0.034602,1, 0.104463,-0.000093,-0.953649,-0.008479, 0.076410, 0.040735, 0.005506,-0.098619,-0.167718,-0.000000, 0.000000,-0.000000,1,0
1777417004518986379,1843666000000,  1843.671, 0.000811,-0.000165,-0.009779, 0.000016, 0.000369, 0.000314,-0.146434,-0.097439, 0.335877,1,-0.003374, 0.051048, 0.031288,1, 0.086890,-0.006179,-0.960545,-0.003374, 0.051049, 0.031288, 0.005154,-0.099290,-0.167856,-0.000000, 0.000000,-0.000000,1,0
1777417004528675757,1843686000000,  1843.686, 0.000454,-0.000315,-0.009876,-0.000487, 0.000283, 0.000302,-0.445498,-0.188659, 0.309659,1,-0.029929, 0.034060, 0.030360,1, 0.057244,-0.015316,-0.963131,-0.029929, 0.034060, 0.030360, 0.004464,-0.099863,-0.168725,-0.000000, 0.000000,-0.000000,1,0
1777417004538759440,1843686000000,  1843.686, 0.000454,-0.000315,-0.009876,-0.000487, 0.000283, 0.000302,-0.445498,-0.188659, 0.309659,1,-0.029929, 0.034060, 0.030360,1, 0.057244,-0.015316,-0.963131,-0.029929, 0.034060, 0.030360, 0.004464,-0.099863,-0.168725,-0.000000, 0.000000,-0.000000,1,0
1777417004548075643,1843706000000,  1843.706, 0.000885, 0.000076,-0.009155,-0.000417, 0.000289, 0.000375,-0.425943,-0.093161, 0.811175,1,-0.034764, 0.035993, 0.033129,1, 0.073690,-0.001335,-0.913875,-0.037333, 0.032196, 0.035335, 0.003951,-0.100144,-0.169192,-0.000000, 0.000000,-0.000000,1,0
1777417004558158862,1843706000000,  1843.706, 0.000885, 0.000076,-0.009155,-0.000417, 0.000289, 0.000375,-0.425943,-0.093161, 0.811175,1,-0.034764, 0.035993, 0.033129,1, 0.073690,-0.001335,-0.913875,-0.037333, 0.032196, 0.035335, 0.003951,-0.100144,-0.169192,-0.000000, 0.000000,-0.000000,1,0
1777417004577909200,1843726000000,  1843.726, 0.000843, 0.000189,-0.008788, 0.000216,-0.000144, 0.000369,-0.272413,-0.092480, 0.876584,1,-0.034101, 0.023765, 0.032847,1, 0.077555, 0.006488,-0.888534,-0.009198, 0.005591, 0.034656, 0.003368,-0.100856,-0.168765,-0.000000, 0.000000,-0.000000,1,0
1777417004587558244,1843746000000,  1843.746, 0.000580,-0.000524,-0.009011, 0.000276,-0.000258, 0.000319,-0.287225,-0.047019, 0.678836,1, 0.004660,-0.003596, 0.032771,1, 0.068024,-0.025308,-0.909864, 0.012800,-0.013935, 0.032183, 0.002936,-0.101284,-0.168383,-0.000000, 0.000000,-0.000000,1,0
1777417004597641982,1843746000000,  1843.746, 0.000580,-0.000524,-0.009011, 0.000276,-0.000258, 0.000319,-0.287225,-0.047019, 0.678836,1, 0.004660,-0.003596, 0.032771,1, 0.068024,-0.025308,-0.909864, 0.012800,-0.013935, 0.032183, 0.002936,-0.101284,-0.168383,-0.000000, 0.000000,-0.000000,1,0
1777417004607297137,1843766000000,  1843.766, 0.000719,-0.000062,-0.009474,-0.000082,-0.000365, 0.000211,-0.337175,-0.034934, 0.654544,1, 0.013782,-0.024071, 0.028024,1, 0.072734, 0.000224,-0.937896, 0.003245,-0.030036, 0.024517, 0.002310,-0.101928,-0.168116,-0.000000, 0.000000,-0.000000,1,0
1777417004617381430,1843766000000,  1843.766, 0.000719,-0.000062,-0.009474,-0.000082,-0.000365, 0.000211,-0.337175,-0.034934, 0.654544,1, 0.013782,-0.024071, 0.028024,1, 0.072734, 0.000224,-0.937896, 0.003245,-0.030036, 0.024517, 0.002310,-0.101928,-0.168116,-0.000000, 0.000000,-0.000000,1,0
1777417004627054715,1843786000000,  1843.786, 0.001037, 0.000170,-0.008996,-0.000136,-0.000627, 0.000205,-0.422396,-0.226634, 0.804428,1, 0.005925,-0.039051, 0.024342,1, 0.078629,-0.002195,-0.905136,-0.001991,-0.050681, 0.023004, 0.001676,-0.102383,-0.168432,-0.000000, 0.000000,-0.000000,1,0
1777417004637158176,1843786000000,  1843.786, 0.001037, 0.000170,-0.008996,-0.000136,-0.000627, 0.000205,-0.422396,-0.226634, 0.804428,1, 0.005925,-0.039051, 0.024342,1, 0.078629,-0.002195,-0.905136,-0.001991,-0.050681, 0.023004, 0.001676,-0.102383,-0.168432,-0.000000, 0.000000,-0.000000,1,0
1777417004656847383,1843806000000,  1843.806, 0.001028, 0.000278,-0.009546, 0.000140,-0.000976, 0.000321,-0.422396,-0.226634, 0.804428,1, 0.005925,-0.039051, 0.024342,1, 0.085358, 0.015420,-0.932535, 0.001266,-0.076266, 0.026101, 0.000744,-0.103703,-0.169030,-0.000000, 0.000000,-0.000000,1,0
1777417004666533131,1843826000000,  1843.826, 0.000530,-0.000247,-0.009506, 0.000267,-0.001103, 0.000387,-0.185238, 0.173156, 0.345294,1, 0.001701,-0.088998, 0.028731,1, 0.069684, 0.000916,-0.956386, 0.009334,-0.099177, 0.032656, 0.000212,-0.104617,-0.168712,-0.000000, 0.000000,-0.000000,1,0
1777417004676617517,1843826000000,  1843.826, 0.000530,-0.000247,-0.009506, 0.000267,-0.001103, 0.000387,-0.185238, 0.173156, 0.345294,1, 0.001701,-0.088998, 0.028731,1, 0.069684, 0.000916,-0.956386, 0.009334,-0.099177, 0.032656, 0.000212,-0.104617,-0.168712,-0.000000, 0.000000,-0.000000,1,0
1777417004686264709,1843846000000,  1843.846, 0.000951,-0.000068,-0.010343,-0.000091,-0.000949, 0.000229,-0.417966,-0.125800, 0.041052,1, 0.008684,-0.093245, 0.030766,1, 0.074704,-0.001587,-1.021960,-0.001711,-0.096098, 0.026527,-0.000186,-0.105177,-0.167402,-0.000000, 0.000000,-0.000000,1,0
1777417004696349799,1843846000000,  1843.846, 0.000951,-0.000068,-0.010343,-0.000091,-0.000949, 0.000229,-0.417966,-0.125800, 0.041052,1, 0.008684,-0.093245, 0.030766,1, 0.074704,-0.001587,-1.021960,-0.001711,-0.096098, 0.026527,-0.000186,-0.105177,-0.167402,-0.000000, 0.000000,-0.000000,1,0
1777417004706001694,1843856000000,  1843.861, 0.000019, 0.000080,-0.010783, 0.000282,-0.001094, 0.000272,-0.527916,-0.000500,-0.408273,1, 0.009639,-0.101556, 0.026274,1, 0.042397, 0.003673,-1.036983, 0.009639,-0.101556, 0.026274,-0.000936,-0.105564,-0.166951,-0.000000, 0.000000,-0.000000,1,0
1777417004716086654,1843856000000,  1843.861, 0.000019, 0.000080,-0.010783, 0.000282,-0.001094, 0.000272,-0.527916,-0.000500,-0.408273,1, 0.009639,-0.101556, 0.026274,1, 0.042397, 0.003673,-1.036983, 0.009639,-0.101556, 0.026274,-0.000936,-0.105564,-0.166951,-0.000000, 0.000000,-0.000000,1,0
1777417004735820029,1843876000000,  1843.881, 0.000175,-0.000293,-0.011223, 0.000040,-0.000794, 0.000237,-0.623475,-0.146809,-0.833187,1, 0.010272,-0.086492, 0.025194,1, 0.030774,-0.011677,-1.080494, 0.010272,-0.086492, 0.025194,-0.001824,-0.106440,-0.166166,-0.000000, 0.000000,-0.000000,1,0
1777417004745484813,1843896000000,  1843.901, 0.000015, 0.000464,-0.011517, 0.000168,-0.000633, 0.000163,-0.738783, 0.126056,-0.882142,1, 0.014224,-0.067773, 0.019747,1, 0.017554, 0.015797,-1.085625, 0.014224,-0.067773, 0.019747,-0.002990,-0.107052,-0.164690,-0.000000, 0.000000,-0.000000,1,0
1777417004755569515,1843896000000,  1843.901, 0.000015, 0.000464,-0.011517, 0.000168,-0.000633, 0.000163,-0.738783, 0.126056,-0.882142,1, 0.014224,-0.067773, 0.019747,1, 0.017554, 0.015797,-1.085625, 0.014224,-0.067773, 0.019747,-0.002990,-0.107052,-0.164690,-0.000000, 0.000000,-0.000000,1,0
1777417004765224966,1843916000000,  1843.921, 0.000356, 0.000033,-0.009997, 0.000285,-0.000227, 0.000147,-0.556765,-0.001515,-0.311541,1, 0.022775,-0.036965, 0.015608,1, 0.035099, 0.002356,-1.027535, 0.022775,-0.036964, 0.015608,-0.003534,-0.107543,-0.166018,-0.000000, 0.000000,-0.000000,1,0
1777417004775309722,1843916000000,  1843.921, 0.000356, 0.000033,-0.009997, 0.000285,-0.000227, 0.000147,-0.556765,-0.001515,-0.311541,1, 0.022775,-0.036965, 0.015608,1, 0.035099, 0.002356,-1.027535, 0.022775,-0.036964, 0.015608,-0.003534,-0.107543,-0.166018,-0.000000, 0.000000,-0.000000,1,0
1777417004795024300,1843936000000,  1843.941, 0.000435, 0.000159,-0.009952, 0.000289,-0.000272, 0.000158,-0.444157, 0.189151,-0.307403,1, 0.021203,-0.029042, 0.013943,1, 0.045976, 0.021359,-1.027170, 0.021203,-0.029042, 0.013943,-0.004380,-0.108199,-0.165820,-0.000000, 0.000000,-0.000000,1,0
1777417004814775712,1843956000000,  1843.961, 0.000400, 0.000291,-0.010592,-0.000046,-0.000183, 0.000232,-0.531196, 0.314749,-0.512246,1, 0.011036,-0.022814, 0.020036,1, 0.036606, 0.033733,-1.048105, 0.011036,-0.022814, 0.020036,-0.005316,-0.108922,-0.165125,-0.000000, 0.000000,-0.000000,1,0
1777417004824460626,1843976000000,  1843.981, 0.000110, 0.000346,-0.011227,-0.000148, 0.000073, 0.000361,-0.674377, 0.244257,-0.738929,1,-0.004431,-0.004428, 0.031216,1, 0.021756, 0.026408,-1.071243,-0.004431,-0.004427, 0.031216,-0.006353,-0.109451,-0.164503,-0.000000, 0.000000,-0.000000,1,0
1777417004834545439,1843976000000,  1843.981, 0.000110, 0.000346,-0.011227,-0.000148, 0.000073, 0.000361,-0.674377, 0.244257,-0.738929,1,-0.004431,-0.004428, 0.031216,1, 0.021756, 0.026408,-1.071243,-0.004431,-0.004427, 0.031216,-0.006353,-0.109451,-0.164503,-0.000000, 0.000000,-0.000000,1,0
1777417004844188704,1843996000000,  1844.001,-0.000030,-0.000195,-0.010683,-0.000314, 0.000397, 0.000503,-0.793741,-0.142156,-0.621875,1,-0.028566, 0.023982, 0.042021,1, 0.009825,-0.012734,-1.059284,-0.028566, 0.023982, 0.042021,-0.006794,-0.109989,-0.164227,-0.000000, 0.000000,-0.000000,1,0
1777417004854281035,1843996000000,  1844.001,-0.000030,-0.000195,-0.010683,-0.000314, 0.000397, 0.000503,-0.793741,-0.142156,-0.621875,1,-0.028566, 0.023982, 0.042021,1, 0.009825,-0.012734,-1.059284,-0.028566, 0.023982, 0.042021,-0.006794,-0.109989,-0.164227,-0.000000, 0.000000,-0.000000,1,0
1777417004869566479,1844016000000,  1844.021, 0.000088,-0.000193,-0.010671,-0.000443, 0.000706, 0.000615,-0.799107,-0.041784,-0.895340,1,-0.042358, 0.053540, 0.053567,1, 0.010034,-0.001888,-1.087099,-0.042358, 0.053540, 0.053567,-0.008245,-0.110324,-0.166155,-0.000000, 0.000000,-0.000000,1,0
1777417004879070260,1844036000000,  1844.041, 0.000298, 0.000227,-0.010796,-0.000422, 0.000796, 0.000586,-0.711836, 0.139759,-0.785273,1,-0.038617, 0.069961, 0.058248,1, 0.020115, 0.017232,-1.075764,-0.038617, 0.069961, 0.058248,-0.009281,-0.110371,-0.167616,-0.000000, 0.000000,-0.000000,1,0
1777417004889157110,1844036000000,  1844.041, 0.000298, 0.000227,-0.010796,-0.000422, 0.000796, 0.000586,-0.711836, 0.139759,-0.785273,1,-0.038617, 0.069961, 0.058248,1, 0.020115, 0.017232,-1.075764,-0.038617, 0.069961, 0.058248,-0.009281,-0.110371,-0.167616,-0.000000, 0.000000,-0.000000,1,0
1777417004908879854,1844056000000,  1844.056, 0.000059, 0.000255,-0.009784, 0.000112, 0.000968, 0.000590,-0.797640, 0.164464,-0.051501,1,-0.008379, 0.086001, 0.058664,1, 0.012888, 0.020089,-1.000796,-0.008379, 0.086002, 0.058664,-0.010823,-0.110445,-0.168511,-0.000000, 0.000000,-0.000000,1,0
1777417004918553750,1844076000000,  1844.076, 0.000098, 0.000152,-0.010085,-0.000012, 0.000703, 0.000510,-0.706075, 0.137086, 0.056837,1,-0.005391, 0.084500, 0.053666,1, 0.024043, 0.017298,-0.989575,-0.005391, 0.084500, 0.053666,-0.011930,-0.110267,-0.169025,-0.000000, 0.000000,-0.000000,1,0
1777417004928638803,1844076000000,  1844.076, 0.000098, 0.000152,-0.010085,-0.000012, 0.000703, 0.000510,-0.706075, 0.137086, 0.056837,1,-0.005391, 0.084500, 0.053666,1, 0.024043, 0.017298,-0.989575,-0.005391, 0.084500, 0.053666,-0.011930,-0.110267,-0.169025,-0.000000, 0.000000,-0.000000,1,0
1777417004948047411,1844096000000,  1844.096, 0.000175, 0.000235,-0.009600,-0.000418, 0.000785, 0.000611,-0.776026, 0.215994, 0.504369,1,-0.004017, 0.078631, 0.055790,1, 0.018089, 0.027081,-0.953415,-0.022780, 0.078162, 0.058043,-0.012254,-0.109790,-0.168716,-0.000000, 0.000000,-0.000000,1,0
1777417004967764285,1844116000000,  1844.116, 0.000337, 0.000253,-0.008691,-0.000588, 0.000388, 0.000706,-0.634221, 0.167190, 0.786026,1,-0.029563, 0.072958, 0.062923,1, 0.031763, 0.024185,-0.892951,-0.042924, 0.056323, 0.066539,-0.013239,-0.109095,-0.168914,-0.000000, 0.000000,-0.000000,1,0
1777417004977491534,1844136000000,  1844.136, 0.000228, 0.000033,-0.008860,-0.000469,-0.000047, 0.000809,-0.494670, 0.114012, 1.269920,1,-0.048220, 0.045111, 0.070193,1, 0.036800, 0.009671,-0.868981,-0.047256, 0.022875, 0.075048,-0.014280,-0.108569,-0.169980,-0.000000, 0.000000,-0.000000,1,0
1777417004987599088,1844136000000,  1844.136, 0.000228, 0.000033,-0.008860,-0.000469,-0.000047, 0.000809,-0.494670, 0.114012, 1.269920,1,-0.048220, 0.045111, 0.070193,1, 0.036800, 0.009671,-0.868981,-0.047256, 0.022875, 0.075048,-0.014280,-0.108569,-0.169980,-0.000000, 0.000000,-0.000000,1,0
1777417004997190111,1844156000000,  1844.156, 0.000103,-0.000235,-0.008935,-0.000578,-0.000374, 0.000809,-0.484006,-0.034473, 1.317573,1,-0.054672, 0.002256, 0.077038,1, 0.033173,-0.011017,-0.876335,-0.058007,-0.015872, 0.078554,-0.015114,-0.108100,-0.171038,-0.000000, 0.000000,-0.000000,1,0
1777417005007275868,1844156000000,  1844.156, 0.000103,-0.000235,-0.008935,-0.000578,-0.000374, 0.000809,-0.484006,-0.034473, 1.317573,1,-0.054672, 0.002256, 0.077038,1, 0.033173,-0.011017,-0.876335,-0.058007,-0.015872, 0.078554,-0.015114,-0.108100,-0.171038,-0.000000, 0.000000,-0.000000,1,0
1777417005026996664,1844176000000,  1844.176, 0.000433,-0.000327,-0.009293,-0.000667,-0.000525, 0.000585,-0.731626,-0.324104, 1.298320,1,-0.050437,-0.035236, 0.076174,1, 0.035547,-0.026599,-0.893607,-0.055778,-0.044422, 0.067948,-0.015533,-0.107878,-0.171705,-0.000000, 0.000000,-0.000000,1,0
1777417005036672151,1844196000000,  1844.196, 0.000488,-0.000708,-0.009773,-0.000250,-0.001046, 0.000380,-0.763992,-0.469781, 1.127396,1,-0.051308,-0.052572, 0.060091,1, 0.029649,-0.054917,-0.912893,-0.036625,-0.076906, 0.050110,-0.016506,-0.107738,-0.171763,-0.000000, 0.000000,-0.000000,1,0
1777417005046757331,1844196000000,  1844.196, 0.000488,-0.000708,-0.009773,-0.000250,-0.001046, 0.000380,-0.763992,-0.469781, 1.127396,1,-0.051308,-0.052572, 0.060091,1, 0.029649,-0.054917,-0.912893,-0.036625,-0.076906, 0.050110,-0.016506,-0.107738,-0.171763,-0.000000, 0.000000,-0.000000,1,0
1777417005056405114,1844216000000,  1844.216,-0.000228,-0.000954,-0.008685,-0.000010,-0.001286, 0.000137,-0.666990,-0.509576, 0.385561,1,-0.030528,-0.091029, 0.036132,1, 0.004743,-0.068929,-0.909823,-0.017764,-0.106921, 0.025463,-0.017109,-0.107832,-0.172032,-0.000000, 0.000000,-0.000000,1,0
1777417005066490276,1844216000000,  1844.216,-0.000228,-0.000954,-0.008685,-0.000010,-0.001286, 0.000137,-0.666990,-0.509576, 0.385561,1,-0.030528,-0.091029, 0.036132,1, 0.004743,-0.068929,-0.909823,-0.017764,-0.106921, 0.025463,-0.017109,-0.107832,-0.172032,-0.000000, 0.000000,-0.000000,1,0
1777417005076183466,1844236000000,  1844.236,-0.000047,-0.000845,-0.010568,-0.001010,-0.002196,-0.000091,-0.832123,-0.968492, 0.046376,1,-0.031690,-0.124301, 0.009360,1, 0.010050,-0.086024,-1.020219,-0.067900,-0.172148, 0.000739,-0.017741,-0.107347,-0.171387,-0.000000, 0.000000,-0.000000,1,0
1777417005086268165,1844236000000,  1844.236,-0.000047,-0.000845,-0.010568,-0.001010,-0.002196,-0.000091,-0.832123,-0.968492, 0.046376,1,-0.031690,-0.124301, 0.009360,1, 0.010050,-0.086024,-1.020219,-0.067900,-0.172148, 0.000739,-0.017741,-0.107347,-0.171387,-0.000000, 0.000000,-0.000000,1,0
1777417005105956516,1844246000000,  1844.251,-0.000643,-0.000216,-0.009134,-0.000779,-0.002105, 0.000280,-1.129005,-0.628387, 0.177343,1,-0.075591,-0.188355, 0.013157,1,-0.023332,-0.055038,-0.977649,-0.075591,-0.188355, 0.013157,-0.017862,-0.107392,-0.170014,-0.000000, 0.000000,-0.000000,1,0
1777417005115629632,1844266000000,  1844.271,-0.000332,-0.000937,-0.007686,-0.001315,-0.000959, 0.000077,-1.065426,-0.691775, 1.038872,1,-0.108894,-0.142520, 0.014593,1,-0.020264,-0.059823,-0.890089,-0.108895,-0.142520, 0.014593,-0.017781,-0.107580,-0.169941,-0.000000, 0.000000,-0.000000,1,0
1777417005125713961,1844266000000,  1844.271,-0.000332,-0.000937,-0.007686,-0.001315,-0.000959, 0.000077,-1.065426,-0.691775, 1.038872,1,-0.108894,-0.142520, 0.014593,1,-0.020264,-0.059823,-0.890089,-0.108895,-0.142520, 0.014593,-0.017781,-0.107580,-0.169941,-0.000000, 0.000000,-0.000000,1,0
1777417005135370133,1844286000000,  1844.291, 0.000432, 0.001124,-0.010588,-0.000324,-0.001419,-0.000024,-0.532099, 0.173614, 0.173962,1,-0.082608,-0.134825,-0.000828,1, 0.031611, 0.030661,-0.978479,-0.082608,-0.134825,-0.000828,-0.018683,-0.107225,-0.170506,-0.000000, 0.000000,-0.000000,1,0
1777417005145482869,1844286000000,  1844.291, 0.000432, 0.001124,-0.010588,-0.000324,-0.001419,-0.000024,-0.532099, 0.173614, 0.173962,1,-0.082608,-0.134825,-0.000828,1, 0.031611, 0.030661,-0.978479,-0.082608,-0.134825,-0.000828,-0.018683,-0.107225,-0.170506,-0.000000, 0.000000,-0.000000,1,0
1777417005155109410,1844306000000,  1844.311,-0.000464,-0.001189,-0.009563, 0.000220,-0.001676,-0.000171,-0.764766,-0.537540, 0.120503,1,-0.004671,-0.164388,-0.009303,1, 0.004605,-0.041101,-0.984197,-0.004671,-0.164388,-0.009303,-0.019608,-0.107016,-0.170045,-0.000000, 0.000000,-0.000000,1,0
1777417005165193443,1844306000000,  1844.311,-0.000464,-0.001189,-0.009563, 0.000220,-0.001676,-0.000171,-0.764766,-0.537540, 0.120503,1,-0.004671,-0.164388,-0.009303,1, 0.004605,-0.041101,-0.984197,-0.004671,-0.164388,-0.009303,-0.019608,-0.107016,-0.170045,-0.000000, 0.000000,-0.000000,1,0
1777417005184924350,1844326000000,  1844.331,-0.000050, 0.000311,-0.011336,-0.000702,-0.001271,-0.000556,-0.926732,-0.423005,-0.798944,1,-0.038185,-0.142698,-0.037765,1,-0.015028,-0.028906,-1.078201,-0.038186,-0.142698,-0.037765,-0.019827,-0.107566,-0.169634,-0.000000, 0.000000,-0.000000,1,0
1777417005194588559,1844346000000,  1844.351,-0.000232,-0.000950,-0.010972,-0.000257,-0.001209,-0.000745,-0.930810,-0.763474,-1.021924,1,-0.024990,-0.127243,-0.059429,1,-0.018194,-0.062943,-1.101145,-0.024990,-0.127243,-0.059429,-0.019535,-0.107801,-0.168321,-0.000000, 0.000000,-0.000000,1,0
1777417005204671887,1844346000000,  1844.351,-0.000232,-0.000950,-0.010972,-0.000257,-0.001209,-0.000745,-0.930810,-0.763474,-1.021924,1,-0.024990,-0.127243,-0.059429,1,-0.018194,-0.062943,-1.101145,-0.024990,-0.127243,-0.059429,-0.019535,-0.107801,-0.168321,-0.000000, 0.000000,-0.000000,1,0
1777417005214343966,1844366000000,  1844.371, 0.000385,-0.000243,-0.011169,-0.000262,-0.000839,-0.001040,-0.615027,-0.543823,-0.995332,1,-0.024780,-0.096704,-0.087516,1, 0.011775,-0.039823,-1.098593,-0.024780,-0.096704,-0.087516,-0.019849,-0.108454,-0.167482,-0.000000, 0.000000,-0.000000,1,0
1777417005224427499,1844366000000,  1844.371, 0.000385,-0.000243,-0.011169,-0.000262,-0.000839,-0.001040,-0.615027,-0.543823,-0.995332,1,-0.024780,-0.096704,-0.087516,1, 0.011775,-0.039823,-1.098593,-0.024780,-0.096704,-0.087516,-0.019849,-0.108454,-0.167482,-0.000000, 0.000000,-0.000000,1,0
1777417005234096874,1844386000000,  1844.391, 0.000200,-0.000530,-0.011141, 0.000256,-0.000541,-0.001216,-0.474904,-0.610350,-0.780560,1, 0.008232,-0.071269,-0.109705,1, 0.024349,-0.046342,-1.076815, 0.008232,-0.071269,-0.109705,-0.019726,-0.109030,-0.168098,-0.000000, 0.000000,-0.000000,1,0
1777417005244181870,1844386000000,  1844.391, 0.000200,-0.000530,-0.011141, 0.000256,-0.000541,-0.001216,-0.474904,-0.610350,-0.780560,1, 0.008232,-0.071269,-0.109705,1, 0.024349,-0.046342,-1.076815, 0.008232,-0.071269,-0.109705,-0.019726,-0.109030,-0.168098,-0.000000, 0.000000,-0.000000,1,0
1777417005263863109,1844406000000,  1844.411, 0.000051,-0.000426,-0.011563, 0.000228,-0.000330,-0.001389,-0.433194,-0.574841,-1.075161,1, 0.019154,-0.048168,-0.127986,1, 0.027369,-0.042910,-1.106949, 0.019153,-0.048168,-0.127986,-0.019840,-0.110434,-0.168571,-0.000000, 0.000000,-0.000000,1,0
1777417005273549541,1844426000000,  1844.431, 0.000384,-0.000037,-0.011886,-0.000049,-0.000086,-0.001491,-0.434429,-0.331771,-1.198046,1, 0.002083,-0.026270,-0.142278,1, 0.026427,-0.018163,-1.119539, 0.002083,-0.026270,-0.142278,-0.019398,-0.111340,-0.168730,-0.000000, 0.000000,-0.000000,1,0
1777417005283634443,1844426000000,  1844.431, 0.000384,-0.000037,-0.011886,-0.000049,-0.000086,-0.001491,-0.434429,-0.331771,-1.198046,1, 0.002083,-0.026270,-0.142278,1, 0.026427,-0.018163,-1.119539, 0.002083,-0.026270,-0.142278,-0.019398,-0.111340,-0.168730,-0.000000, 0.000000,-0.000000,1,0
1777417005299193538,1844446000000,  1844.451, 0.000448, 0.000098,-0.010765, 0.000152, 0.000176,-0.001422,-0.344058,-0.142907,-0.565966,1, 0.013598, 0.003664,-0.141522,1, 0.035372, 0.001167,-1.055103, 0.013598, 0.003664,-0.141522,-0.018805,-0.112584,-0.167834,-0.000000, 0.000000,-0.000000,1,0
1777417005318937261,1844466000000,  1844.466, 0.000326, 0.000810,-0.011001, 0.000602, 0.000181,-0.001108,-0.309664, 0.271948,-0.626242,1, 0.035987, 0.018438,-0.125722,1, 0.039109, 0.043211,-1.061237, 0.035987, 0.018438,-0.125722,-0.019034,-0.113425,-0.167609,-0.000000, 0.000000,-0.000000,1,0
1777417005328618173,1844486000000,  1844.486, 0.000251, 0.000736,-0.010711, 0.000745, 0.000423,-0.000802,-0.319654, 0.422284,-0.686073,1, 0.057719, 0.031463,-0.097842,1, 0.038573, 0.057699,-1.067317, 0.057719, 0.031463,-0.097842,-0.018522,-0.114719,-0.168238,-0.000000, 0.000000,-0.000000,1,0
1777417005338702687,1844486000000,  1844.486, 0.000251, 0.000736,-0.010711, 0.000745, 0.000423,-0.000802,-0.319654, 0.422284,-0.686073,1, 0.057719, 0.031463,-0.097842,1, 0.038573, 0.057699,-1.067317, 0.057719, 0.031463,-0.097842,-0.018522,-0.114719,-0.168238,-0.000000, 0.000000,-0.000000,1,0
1777417005348025037,1844506000000,  1844.506, 0.000155, 0.000612,-0.010355, 0.000194, 0.000702,-0.000626,-0.417344, 0.542706,-1.067845,1, 0.055492, 0.035657,-0.086320,1, 0.023151, 0.069785,-1.071335, 0.038247, 0.052228,-0.075564,-0.018434,-0.115651,-0.168576,-0.000000, 0.000000,-0.000000,1,0
1777417005358108439,1844506000000,  1844.506, 0.000155, 0.000612,-0.010355, 0.000194, 0.000702,-0.000626,-0.417344, 0.542706,-1.067845,1, 0.055492, 0.035657,-0.086320,1, 0.023151, 0.069785,-1.071335, 0.038247, 0.052228,-0.075564,-0.018434,-0.115651,-0.168576,-0.000000, 0.000000,-0.000000,1,0
1777417005377832347,1844526000000,  1844.526, 0.000425, 0.001109,-0.010453,-0.000296, 0.001218,-0.000327,-0.456161, 0.616161,-0.794897,1, 0.017413, 0.072546,-0.061888,1, 0.033945, 0.094186,-1.061253,-0.004185, 0.095011,-0.048444,-0.018012,-0.115864,-0.169188,-0.000000, 0.000000,-0.000000,1,0
1777417005387561908,1844546000000,  1844.546, 0.000399, 0.001246,-0.010250,-0.000281, 0.001086, 0.000046,-0.200206, 0.862046,-0.545501,1,-0.021222, 0.108608,-0.033709,1, 0.046155, 0.113591,-1.038392,-0.023904, 0.108735,-0.015966,-0.017417,-0.116252,-0.171153,-0.000000, 0.000000,-0.000000,1,0
1777417005397646311,1844546000000,  1844.546, 0.000399, 0.001246,-0.010250,-0.000281, 0.001086, 0.000046,-0.200206, 0.862046,-0.545501,1,-0.021222, 0.108608,-0.033709,1, 0.046155, 0.113591,-1.038392,-0.023904, 0.108735,-0.015966,-0.017417,-0.116252,-0.171153,-0.000000, 0.000000,-0.000000,1,0
1777417005407255889,1844556000000,  1844.561, 0.000577, 0.000739,-0.009206,-0.000350, 0.001145, 0.000203,-0.243616, 0.808790, 0.133113,1,-0.029929, 0.110455, 0.000843,1, 0.051789, 0.096673,-0.983383,-0.029929, 0.110455, 0.000843,-0.017599,-0.116410,-0.172178,-0.000000, 0.000000,-0.000000,1,0
1777417005417358070,1844556000000,  1844.561, 0.000577, 0.000739,-0.009206,-0.000350, 0.001145, 0.000203,-0.243616, 0.808790, 0.133113,1,-0.029929, 0.110455, 0.000843,1, 0.051789, 0.096673,-0.983383,-0.029929, 0.110455, 0.000843,-0.017599,-0.116410,-0.172178,-0.000000, 0.000000,-0.000000,1,0
1777417005427003019,1844586000000,  1844.586, 0.000448, 0.001230,-0.009410,-0.000695, 0.000820, 0.000754,-0.254145, 0.817278, 0.740137,1,-0.051514, 0.107551, 0.035280,1, 0.049457, 0.108816,-0.934209,-0.060537, 0.094568, 0.053885,-0.017763,-0.115979,-0.172313,-0.000000, 0.000000,-0.000000,1,0
1777417005437087181,1844586000000,  1844.586, 0.000448, 0.001230,-0.009410,-0.000695, 0.000820, 0.000754,-0.254145, 0.817278, 0.740137,1,-0.051514, 0.107551, 0.035280,1, 0.049457, 0.108816,-0.934209,-0.060537, 0.094568, 0.053885,-0.017763,-0.115979,-0.172313,-0.000000, 0.000000,-0.000000,1,0
1777417005456796977,1844606000000,  1844.606, 0.000953, 0.000853,-0.008777,-0.000948, 0.000559, 0.000991,-0.471310, 0.811482, 1.021631,1,-0.065580, 0.084366, 0.069963,1, 0.060398, 0.094703,-0.895168,-0.080018, 0.069892, 0.083495,-0.017769,-0.116076,-0.173191,-0.000000, 0.000000,-0.000000,1,0
1777417005466475686,1844626000000,  1844.626, 0.000836, 0.000287,-0.008507,-0.001055, 0.000404, 0.001163,-0.495512, 0.651807, 1.258884,1,-0.085901, 0.057014, 0.096689,1, 0.053083, 0.058438,-0.862964,-0.095017, 0.047748, 0.105947,-0.017322,-0.115907,-0.173817,-0.000000, 0.000000,-0.000000,1,0
1777417005476575033,1844626000000,  1844.626, 0.000836, 0.000287,-0.008507,-0.001055, 0.000404, 0.001163,-0.495512, 0.651807, 1.258884,1,-0.085901, 0.057014, 0.096689,1, 0.053083, 0.058438,-0.862964,-0.095017, 0.047748, 0.105947,-0.017322,-0.115907,-0.173817,-0.000000, 0.000000,-0.000000,1,0
1777417005486207519,1844646000000,  1844.646, 0.000511, 0.000301,-0.008573,-0.000397,-0.000087, 0.001338,-0.478171, 0.694846, 0.649606,1,-0.100341, 0.013131, 0.111756,1, 0.041403, 0.061187,-0.888324,-0.072577, 0.003079, 0.121870,-0.016871,-0.115332,-0.174467,-0.000000, 0.000000,-0.000000,1,0
1777417005496308200,1844646000000,  1844.646, 0.000511, 0.000301,-0.008573,-0.000397,-0.000087, 0.001338,-0.478171, 0.694846, 0.649606,1,-0.100341, 0.013131, 0.111756,1, 0.041403, 0.061187,-0.888324,-0.072577, 0.003079, 0.121870,-0.016871,-0.115332,-0.174467,-0.000000, 0.000000,-0.000000,1,0
1777417005516003643,1844656000000,  1844.661, 0.000109,-0.000019,-0.008654,-0.000833,-0.000402, 0.001287,-0.563793, 0.114872, 1.144110,1,-0.076801,-0.016967, 0.124909,1, 0.025417, 0.032537,-0.879672,-0.076801,-0.016967, 0.124909,-0.016652,-0.115000,-0.175898,-0.000000, 0.000000,-0.000000,1,0
1777417005535763274,1844676000000,  1844.681, 0.000035, 0.002101,-0.009133, 0.001051,-0.000110, 0.001478,-0.502607, 1.138238, 1.314792,1, 0.016147,-0.003658, 0.136102,1, 0.031577, 0.137703,-0.862257, 0.016147,-0.003658, 0.136102,-0.016890,-0.114850,-0.176630,-0.000000, 0.000000,-0.000000,1,0
1777417005545422519,1844696000000,  1844.701,-0.000435,-0.002049,-0.007591, 0.004211, 0.001082, 0.001198,-0.792460,-0.552027, 2.089329,1, 0.273791, 0.075153, 0.125409,1, 0.002856,-0.037919,-0.783268, 0.273791, 0.075153, 0.125409,-0.016387,-0.114500,-0.175601,-0.000000, 0.000000,-0.000000,1,0
1777417005555507200,1844696000000,  1844.701,-0.000435,-0.002049,-0.007591, 0.004211, 0.001082, 0.001198,-0.792460,-0.552027, 2.089329,1, 0.273791, 0.075153, 0.125409,1, 0.002856,-0.037919,-0.783268, 0.273791, 0.075153, 0.125409,-0.016387,-0.114500,-0.175601,-0.000000, 0.000000,-0.000000,1,0
1777417005565166630,1844716000000,  1844.721,-0.003814, 0.000978,-0.000693, 0.004892,-0.000462,-0.000232,-1.173418,-0.475510, 2.609450,1, 0.303102,-0.038822, 0.014958,1,-0.036310,-0.035591,-0.730338, 0.303102,-0.038822, 0.014958,-0.015181,-0.113705,-0.174892,-0.000000, 0.000000,-0.000000,1,0
1777417005575250311,1844716000000,  1844.721,-0.003814, 0.000978,-0.000693, 0.004892,-0.000462,-0.000232,-1.173418,-0.475510, 2.609450,1, 0.303102,-0.038822, 0.014958,1,-0.036310,-0.035591,-0.730338, 0.303102,-0.038822, 0.014958,-0.015181,-0.113705,-0.174892,-0.000000, 0.000000,-0.000000,1,0
1777417005594965662,1844736000000,  1844.741,-0.000979,-0.002877,-0.007157, 0.001266,-0.001394,-0.000654,-1.336423,-0.753544,-0.030501,1, 0.189337,-0.146261,-0.044351,1,-0.055118,-0.069959,-0.999775, 0.189337,-0.146261,-0.044351,-0.014635,-0.114270,-0.173598,-0.000000, 0.000000,-0.000000,1,0
1777417005604663372,1844756000000,  1844.761, 0.000815, 0.002729,-0.008084,-0.001395,-0.000714,-0.001175,-0.295279, 0.346025, 0.721713,1, 0.014828,-0.051798,-0.090667,1, 0.049770, 0.039752,-0.923195, 0.014828,-0.051798,-0.090667,-0.013579,-0.114941,-0.172992,-0.000000, 0.000000,-0.000000,1,0
1777417005614746682,1844756000000,  1844.761, 0.000815, 0.002729,-0.008084,-0.001395,-0.000714,-0.001175,-0.295279, 0.346025, 0.721713,1, 0.014828,-0.051798,-0.090667,1, 0.049770, 0.039752,-0.923195, 0.014828,-0.051798,-0.090667,-0.013579,-0.114941,-0.172992,-0.000000, 0.000000,-0.000000,1,0
1777417005624384075,1844776000000,  1844.781, 0.002399,-0.000546,-0.008301,-0.000656,-0.000992,-0.000070, 0.274293, 0.098714, 0.261656,1,-0.052151,-0.082278,-0.038497,1, 0.106688, 0.014567,-0.970203,-0.052151,-0.082278,-0.038497,-0.012914,-0.115535,-0.172813,-0.000000, 0.000000,-0.000000,1,0
1777417005634468163,1844776000000,  1844.781, 0.002399,-0.000546,-0.008301,-0.000656,-0.000992,-0.000070, 0.274293, 0.098714, 0.261656,1,-0.052151,-0.082278,-0.038497,1, 0.106688, 0.014567,-0.970203,-0.052151,-0.082278,-0.038497,-0.012914,-0.115535,-0.172813,-0.000000, 0.000000,-0.000000,1,0
1777417005644136020,1844796000000,  1844.801, 0.001069,-0.000597,-0.011238,-0.000440,-0.001153, 0.000317, 0.118037,-0.415232, 0.075475,1,-0.038130,-0.091121, 0.009743,1, 0.089310,-0.037302,-0.989300,-0.038130,-0.091121, 0.009743,-0.011989,-0.115483,-0.172294,-0.000000, 0.000000,-0.000000,1,0
1777417005654220793,1844796000000,  1844.801, 0.001069,-0.000597,-0.011238,-0.000440,-0.001153, 0.000317, 0.118037,-0.415232, 0.075475,1,-0.038130,-0.091121, 0.009743,1, 0.089310,-0.037302,-0.989300,-0.038130,-0.091121, 0.009743,-0.011989,-0.115483,-0.172294,-0.000000, 0.000000,-0.000000,1,0
1777417005673930366,1844816000000,  1844.821, 0.000411,-0.000306,-0.011171,-0.000172,-0.000898, 0.000473,-0.248408,-0.416404,-0.212727,1,-0.026024,-0.096509, 0.036748,1, 0.049941,-0.036972,-1.018839,-0.026024,-0.096509, 0.036748,-0.011436,-0.115463,-0.172099,-0.000000, 0.000000,-0.000000,1,0
1777417005683610242,1844836000000,  1844.841, 0.000246,-0.000645,-0.012063,-0.000734,-0.000491, 0.000275,-0.483726,-0.606704,-1.429430,1,-0.055181,-0.069102, 0.031661,1, 0.024058,-0.055620,-1.143044,-0.055181,-0.069102, 0.031661,-0.011089,-0.114823,-0.170943,-0.000000, 0.000000,-0.000000,1,0
1777417005693694719,1844836000000,  1844.841, 0.000246,-0.000645,-0.012063,-0.000734,-0.000491, 0.000275,-0.483726,-0.606704,-1.429430,1,-0.055181,-0.069102, 0.031661,1, 0.024058,-0.055620,-1.143044,-0.055181,-0.069102, 0.031661,-0.011089,-0.114823,-0.170943,-0.000000, 0.000000,-0.000000,1,0
1777417005709235628,1844856000000,  1844.861,-0.000216,-0.000993,-0.012148,-0.000507, 0.000332,-0.000095,-0.891003,-0.911401,-2.032485,1,-0.052021,-0.006889, 0.006883,1,-0.018372,-0.085627,-1.204597,-0.052021,-0.006889, 0.006883,-0.010866,-0.114763,-0.170847,-0.000000, 0.000000,-0.000000,1,0
1777417005728995110,1844876000000,  1844.876, 0.000277, 0.000026,-0.011420, 0.000596, 0.000817,-0.000445,-0.662893,-0.388111,-1.735592,1, 0.012043, 0.058983,-0.025624,1, 0.005530,-0.031630,-1.174271, 0.012043, 0.058983,-0.025624,-0.010166,-0.115011,-0.171698,-0.000000, 0.000000,-0.000000,1,0
1777417005738655819,1844896000000,  1844.896, 0.000328,-0.000239,-0.009277, 0.001637, 0.001093,-0.000655,-0.454275,-0.334962,-0.524076,1, 0.112449, 0.095705,-0.051305,1, 0.028375,-0.027496,-1.050623, 0.112449, 0.095705,-0.051305,-0.008474,-0.115304,-0.171544,-0.000000, 0.000000,-0.000000,1,0
1777417005748740574,1844896000000,  1844.896, 0.000328,-0.000239,-0.009277, 0.001637, 0.001093,-0.000655,-0.454275,-0.334962,-0.524076,1, 0.112449, 0.095705,-0.051305,1, 0.028375,-0.027496,-1.050623, 0.112449, 0.095705,-0.051305,-0.008474,-0.115304,-0.171544,-0.000000, 0.000000,-0.000000,1,0
1777417005758086905,1844916000000,  1844.916, 0.000328, 0.001238,-0.009654, 0.001863, 0.001227,-0.000407,-0.250412, 0.270446,-0.701114,1, 0.137485, 0.105817,-0.058258,1, 0.042247, 0.076963,-1.023017, 0.159639, 0.113469,-0.050070,-0.007163,-0.115418,-0.171008,-0.000000, 0.000000,-0.000000,1,0
1777417005768171882,1844916000000,  1844.916, 0.000328, 0.001238,-0.009654, 0.001863, 0.001227,-0.000407,-0.250412, 0.270446,-0.701114,1, 0.137485, 0.105817,-0.058258,1, 0.042247, 0.076963,-1.023017, 0.159639, 0.113469,-0.050070,-0.007163,-0.115418,-0.171008,-0.000000, 0.000000,-0.000000,1,0
1777417005787879715,1844936000000,  1844.936, 0.000207, 0.001240,-0.009148, 0.001450, 0.000935, 0.000080,-0.266367, 1.213954,-0.466597,1, 0.167360, 0.102622,-0.035487,1, 0.037521, 0.128434,-0.980947, 0.154682, 0.099609,-0.015848,-0.007084,-0.115469,-0.171646,-0.000000, 0.000000,-0.000000,1,0
1777417005797626703,1844956000000,  1844.956, 0.000345, 0.000983,-0.009362, 0.000081, 0.001116, 0.000490,-0.243238, 1.159825, 0.485044,1, 0.118821, 0.101504, 0.004928,1, 0.045815, 0.109393,-0.944318, 0.065536, 0.105932, 0.025244,-0.005993,-0.115127,-0.171837,-0.000000, 0.000000,-0.000000,1,0
1777417005807711772,1844956000000,  1844.956, 0.000345, 0.000983,-0.009362, 0.000081, 0.001116, 0.000490,-0.243238, 1.159825, 0.485044,1, 0.118821, 0.101504, 0.004928,1, 0.045815, 0.109393,-0.944318, 0.065536, 0.105932, 0.025244,-0.005993,-0.115127,-0.171837,-0.000000, 0.000000,-0.000000,1,0
1777417005817318850,1844976000000,  1844.976, 0.000023, 0.001342,-0.009859,-0.000979, 0.001010, 0.001030,-0.262816, 1.040365, 0.791878,1, 0.010334, 0.108845, 0.045799,1, 0.027585, 0.120012,-0.949221,-0.041141, 0.104393, 0.072075,-0.005658,-0.114437,-0.171387,-0.000000, 0.000000,-0.000000,1,0
1777417005827404549,1844976000000,  1844.976, 0.000023, 0.001342,-0.009859,-0.000979, 0.001010, 0.001030,-0.262816, 1.040365, 0.791878,1, 0.010334, 0.108845, 0.045799,1, 0.027585, 0.120012,-0.949221,-0.041141, 0.104393, 0.072075,-0.005658,-0.114437,-0.171387,-0.000000, 0.000000,-0.000000,1,0
1777417005837046035,1844996000000,  1844.996, 0.000223, 0.000642,-0.010164,-0.001199, 0.000896, 0.001352,-0.367884, 1.170974, 0.342438,1,-0.072838, 0.108156, 0.094270,1, 0.033464, 0.094415,-0.989107,-0.094282, 0.098877, 0.113030,-0.004514,-0.113606,-0.172095,-0.000000, 0.000000,-0.000000,1,0
1777417005847142419,1844996000000,  1844.996, 0.000223, 0.000642,-0.010164,-0.001199, 0.000896, 0.001352,-0.367884, 1.170974, 0.342438,1,-0.072838, 0.108156, 0.094270,1, 0.033464, 0.094415,-0.989107,-0.094282, 0.098877, 0.113030,-0.004514,-0.113606,-0.172095,-0.000000, 0.000000,-0.000000,1,0
1777417005866879401,1845016000000,  1845.016, 0.000142, 0.000152,-0.010454,-0.001137, 0.001108, 0.001495,-0.417777, 0.700797, 0.304344,1,-0.108585, 0.099651, 0.126209,1, 0.031968, 0.046087,-1.005872,-0.111314, 0.105180, 0.137068,-0.003797,-0.112320,-0.174791,-0.000000, 0.000000,-0.000000,1,0
1777417005876091674,1845026000000,  1845.031, 0.000314, 0.000316,-0.010264,-0.001081, 0.001136, 0.001570,-0.553771, 0.352851,-0.144533,1,-0.109887, 0.109681, 0.146154,1, 0.031867, 0.038715,-1.010822,-0.109887, 0.109681, 0.146154,-0.003364,-0.112018,-0.175590,-0.000000, 0.000000,-0.000000,1,0
1777417005886175780,1845026000000,  1845.031, 0.000314, 0.000316,-0.010264,-0.001081, 0.001136, 0.001570,-0.553771, 0.352851,-0.144533,1,-0.109887, 0.109681, 0.146154,1, 0.031867, 0.038715,-1.010822,-0.109887, 0.109681, 0.146154,-0.003364,-0.112018,-0.175590,-0.000000, 0.000000,-0.000000,1,0
1777417005905893447,1845046000000,  1845.051,-0.000159, 0.000634,-0.010423,-0.000232, 0.000910, 0.001657,-0.763293, 0.347873,-0.471322,1,-0.062657, 0.100901, 0.159712,1, 0.012641, 0.039977,-1.043947,-0.062657, 0.100901, 0.159712,-0.002504,-0.110670,-0.175935,-0.000000, 0.000000,-0.000000,1,0
1777417005915564766,1845066000000,  1845.071,-0.000159,-0.000312,-0.008275,-0.000223, 0.001240, 0.001572,-0.879071,-0.150789, 0.535601,1,-0.035028, 0.111570, 0.159060,1, 0.002857,-0.010221,-0.941082,-0.035028, 0.111570, 0.159060,-0.002270,-0.109539,-0.175503,-0.000000, 0.000000,-0.000000,1,0
1777417005925650077,1845066000000,  1845.071,-0.000159,-0.000312,-0.008275,-0.000223, 0.001240, 0.001572,-0.879071,-0.150789, 0.535601,1,-0.035028, 0.111570, 0.159060,1, 0.002857,-0.010221,-0.941082,-0.035028, 0.111570, 0.159060,-0.002270,-0.109539,-0.175503,-0.000000, 0.000000,-0.000000,1,0
1777417005935312526,1845086000000,  1845.091, 0.000892, 0.001749,-0.010610, 0.000771, 0.000631, 0.001657,-0.431893, 0.859264,-0.213217,1, 0.021498, 0.086477, 0.160883,1, 0.050559, 0.092952,-1.017241, 0.021498, 0.086477, 0.160883,-0.001317,-0.108244,-0.176817,-0.000000, 0.000000,-0.000000,1,0
1777417005945397651,1845086000000,  1845.091, 0.000892, 0.001749,-0.010610, 0.000771, 0.000631, 0.001657,-0.431893, 0.859264,-0.213217,1, 0.021498, 0.086477, 0.160883,1, 0.050559, 0.092952,-1.017241, 0.021498, 0.086477, 0.160883,-0.001317,-0.108244,-0.176817,-0.000000, 0.000000,-0.000000,1,0
1777417005955055971,1845106000000,  1845.111, 0.000114,-0.001438,-0.007174, 0.001164, 0.000020, 0.001574,-0.737329,-0.378631, 1.256749,1, 0.098772, 0.017030, 0.161799,1, 0.020193,-0.035082,-0.867280, 0.098772, 0.017030, 0.161799,-0.000818,-0.106836,-0.176850,-0.000000, 0.000000,-0.000000,1,0
1777417005965142466,1845106000000,  1845.111, 0.000114,-0.001438,-0.007174, 0.001164, 0.000020, 0.001574,-0.737329,-0.378631, 1.256749,1, 0.098772, 0.017030, 0.161799,1, 0.020193,-0.035082,-0.867280, 0.098772, 0.017030, 0.161799,-0.000818,-0.106836,-0.176850,-0.000000, 0.000000,-0.000000,1,0
1777417005984862336,1845126000000,  1845.131, 0.000096,-0.000079,-0.008595,-0.000354, 0.000483, 0.001290,-1.019642,-0.229226, 1.277308,1, 0.022934, 0.033197, 0.140550,1,-0.008100,-0.021493,-0.865141, 0.022934, 0.033197, 0.140550, 0.000286,-0.105221,-0.177178,-0.000000, 0.000000,-0.000000,1,0
1777417005994530526,1845146000000,  1845.151, 0.000146, 0.001652,-0.009134,-0.001050,-0.000055, 0.001424,-0.948260, 0.827190, 1.032893,1,-0.059773, 0.013648, 0.140187,1,-0.000136, 0.086395,-0.889999,-0.059773, 0.013648, 0.140187, 0.000646,-0.104464,-0.177836,-0.000000, 0.000000,-0.000000,1,0
1777417006004616855,1845146000000,  1845.151, 0.000146, 0.001652,-0.009134,-0.001050,-0.000055, 0.001424,-0.948260, 0.827190, 1.032893,1,-0.059773, 0.013648, 0.140187,1,-0.000136, 0.086395,-0.889999,-0.059773, 0.013648, 0.140187, 0.000646,-0.104464,-0.177836,-0.000000, 0.000000,-0.000000,1,0
1777417006014288747,1845166000000,  1845.171, 0.000592,-0.000594,-0.007758,-0.000676,-0.001081, 0.001736,-0.440155, 0.266680, 1.437457,1,-0.057894,-0.045115, 0.162133,1, 0.051359, 0.030271,-0.848773,-0.057894,-0.045115, 0.162133, 0.001496,-0.102896,-0.177862,-0.000000, 0.000000,-0.000000,1,0
1777417006024374129,1845166000000,  1845.171, 0.000592,-0.000594,-0.007758,-0.000676,-0.001081, 0.001736,-0.440155, 0.266680, 1.437457,1,-0.057894,-0.045115, 0.162133,1, 0.051359, 0.030271,-0.848773,-0.057894,-0.045115, 0.162133, 0.001496,-0.102896,-0.177862,-0.000000, 0.000000,-0.000000,1,0
1777417006034017280,1845186000000,  1845.191, 0.000111,-0.000597,-0.009097,-0.000880,-0.000847, 0.001500,-0.727637,-0.382544, 1.124699,1,-0.082395,-0.072628, 0.155918,1, 0.020706,-0.034661,-0.880789,-0.082395,-0.072628, 0.155918, 0.001323,-0.100906,-0.177028,-0.000000, 0.000000,-0.000000,1,0
1777417006044102014,1845186000000,  1845.191, 0.000111,-0.000597,-0.009097,-0.000880,-0.000847, 0.001500,-0.727637,-0.382544, 1.124699,1,-0.082395,-0.072628, 0.155918,1, 0.020706,-0.034661,-0.880789,-0.082395,-0.072628, 0.155918, 0.001323,-0.100906,-0.177028,-0.000000, 0.000000,-0.000000,1,0
1777417006063822102,1845206000000,  1845.211, 0.000018,-0.000499,-0.010554,-0.000246,-0.001295, 0.001211,-0.826037,-0.421668, 0.068527,1,-0.049613,-0.112326, 0.133284,1, 0.008799,-0.037551,-0.988659,-0.049613,-0.112325, 0.133284, 0.002626,-0.099494,-0.176264,-0.000000, 0.000000,-0.000000,1,0
1777417006079447140,1845226000000,  1845.231, 0.000102,-0.000073,-0.010946,-0.000349,-0.001255, 0.000773,-0.997113,-0.471809, 0.129382,1,-0.031603,-0.120914, 0.099919,1,-0.011172,-0.042241,-0.982683,-0.031603,-0.120914, 0.099919, 0.002948,-0.098557,-0.176073,-0.000000, 0.000000,-0.000000,1,0
1777417006089073290,1845246000000,  1845.251, 0.000095,-0.000827,-0.009622, 0.000235,-0.001450, 0.000550,-0.811493,-0.675119, 0.290320,1, 0.001191,-0.130061, 0.071111,1, 0.005248,-0.062822,-0.966496, 0.001191,-0.130061, 0.071111, 0.003958,-0.097610,-0.175918,-0.000000, 0.000000,-0.000000,1,0
1777417006099157543,1845246000000,  1845.251, 0.000095,-0.000827,-0.009622, 0.000235,-0.001450, 0.000550,-0.811493,-0.675119, 0.290320,1, 0.001191,-0.130061, 0.071111,1, 0.005248,-0.062822,-0.966496, 0.001191,-0.130061, 0.071111, 0.003958,-0.097610,-0.175918,-0.000000, 0.000000,-0.000000,1,0
1777417006118871520,1845266000000,  1845.266, 0.000202,-0.000623,-0.009794, 0.000486,-0.001392, 0.000149,-0.765836,-0.673183, 0.379725,1, 0.035646,-0.131966, 0.035063,1, 0.007317,-0.063135,-0.957607, 0.035646,-0.131966, 0.035063, 0.004772,-0.096758,-0.175729,-0.000000, 0.000000,-0.000000,1,0
1777417006128563986,1845286000000,  1845.286, 0.000057,-0.000061,-0.009441, 0.000660,-0.001523,-0.000068,-0.718650,-0.374142, 0.291509,1, 0.057047,-0.141464, 0.007911,1, 0.009406,-0.033553,-0.966836, 0.057047,-0.141464, 0.007911, 0.005530,-0.096122,-0.175075,-0.000000, 0.000000,-0.000000,1,0
1777417006138647924,1845286000000,  1845.286, 0.000057,-0.000061,-0.009441, 0.000660,-0.001523,-0.000068,-0.718650,-0.374142, 0.291509,1, 0.057047,-0.141464, 0.007911,1, 0.009406,-0.033553,-0.966836, 0.057047,-0.141464, 0.007911, 0.005530,-0.096122,-0.175075,-0.000000, 0.000000,-0.000000,1,0
1777417006158031005,1845306000000,  1845.306,-0.000227,-0.000358,-0.009132, 0.000369,-0.001460,-0.000153,-0.626294,-0.361449,-0.192927,1, 0.050710,-0.151110,-0.000139,1,-0.000139,-0.037617,-0.969606, 0.043241,-0.147044,-0.007277, 0.006117,-0.095133,-0.173179,-0.000000, 0.000000,-0.000000,1,0
1777417006177775761,1845326000000,  1845.326, 0.000244,-0.000316,-0.009475,-0.000009,-0.001199,-0.000163,-0.588863,-0.526945, 0.018513,1, 0.025362,-0.142200,-0.015176,1, 0.023520,-0.043936,-0.981957, 0.013734,-0.132025,-0.015042, 0.007290,-0.094465,-0.171969,-0.000000, 0.000000,-0.000000,1,0
1777417006187456931,1845346000000,  1845.346,-0.000035,-0.000243,-0.009315, 0.000066,-0.001414, 0.000014,-0.366337,-0.503848,-0.207718,1, 0.010770,-0.148916,-0.009471,1, 0.021915,-0.037124,-0.985620, 0.007249,-0.145140,-0.004654, 0.008692,-0.093456,-0.170641,-0.000000, 0.000000,-0.000000,1,0
1777417006197540776,1845346000000,  1845.346,-0.000035,-0.000243,-0.009315, 0.000066,-0.001414, 0.000014,-0.366337,-0.503848,-0.207718,1, 0.010770,-0.148916,-0.009471,1, 0.021915,-0.037124,-0.985620, 0.007249,-0.145140,-0.004654, 0.008692,-0.093456,-0.170641,-0.000000, 0.000000,-0.000000,1,0
1777417006207187075,1845366000000,  1845.366, 0.000213,-0.000213,-0.010865,-0.000175,-0.001379, 0.000041,-0.553666,-0.298487, 0.169647,1, 0.000987,-0.149600, 0.001545,1, 0.018935,-0.023428,-1.040018,-0.009218,-0.145547, 0.002267, 0.009230,-0.092687,-0.171071,-0.000000, 0.000000,-0.000000,1,0
1777417006217271087,1845366000000,  1845.366, 0.000213,-0.000213,-0.010865,-0.000175,-0.001379, 0.000041,-0.553666,-0.298487, 0.169647,1, 0.000987,-0.149600, 0.001545,1, 0.018935,-0.023428,-1.040018,-0.009218,-0.145547, 0.002267, 0.009230,-0.092687,-0.171071,-0.000000, 0.000000,-0.000000,1,0
1777417006236989379,1845386000000,  1845.386, 0.000417, 0.000137,-0.011172,-0.000110,-0.001203, 0.000099,-0.622322,-0.047148, 0.224342,1,-0.007435,-0.145168, 0.007079,1, 0.020497, 0.007401,-1.046790,-0.008803,-0.135018, 0.008145, 0.010437,-0.091228,-0.170802,-0.000000, 0.000000,-0.000000,1,0
1777417006246702457,1845406000000,  1845.406, 0.000634,-0.000218,-0.010907,-0.000329,-0.001301, 0.000044,-0.494535,-0.236771, 0.111540,1,-0.004578,-0.122083, 0.009937,1, 0.036422,-0.020063,-1.030611,-0.016506,-0.126348, 0.007536, 0.010514,-0.090533,-0.170295,-0.000000, 0.000000,-0.000000,1,0
1777417006256786505,1845406000000,  1845.406, 0.000634,-0.000218,-0.010907,-0.000329,-0.001301, 0.000044,-0.494535,-0.236771, 0.111540,1,-0.004578,-0.122083, 0.009937,1, 0.036422,-0.020063,-1.030611,-0.016506,-0.126348, 0.007536, 0.010514,-0.090533,-0.170295,-0.000000, 0.000000,-0.000000,1,0
1777417006266417322,1845426000000,  1845.426, 0.000419,-0.000422,-0.010670, 0.000083,-0.001256,-0.000043,-0.334525,-0.030949,-0.208297,1,-0.003799,-0.120058, 0.005568,1, 0.034314,-0.021873,-1.034298, 0.000955,-0.122987, 0.001032, 0.012121,-0.089737,-0.169754,-0.000000, 0.000000,-0.000000,1,0
1777417006276502205,1845426000000,  1845.426, 0.000419,-0.000422,-0.010670, 0.000083,-0.001256,-0.000043,-0.334525,-0.030949,-0.208297,1,-0.003799,-0.120058, 0.005568,1, 0.034314,-0.021873,-1.034298, 0.000955,-0.122987, 0.001032, 0.012121,-0.089737,-0.169754,-0.000000, 0.000000,-0.000000,1,0
1777417006286153856,1845446000000,  1845.446, 0.000340, 0.000332,-0.010526, 0.000192,-0.000820,-0.000181,-0.341364,-0.467625,-0.183029,1,-0.008253,-0.105482,-0.006325,1, 0.029576,-0.006600,-1.033681, 0.004360,-0.095114,-0.011790, 0.013516,-0.088625,-0.167555,-0.000000, 0.000000,-0.000000,1,0
1777417006296238960,1845446000000,  1845.446, 0.000340, 0.000332,-0.010526, 0.000192,-0.000820,-0.000181,-0.341364,-0.467625,-0.183029,1,-0.008253,-0.105482,-0.006325,1, 0.029576,-0.006600,-1.033681, 0.004360,-0.095114,-0.011790, 0.013516,-0.088625,-0.167555,-0.000000, 0.000000,-0.000000,1,0
1777417006315962400,1845456000000,  1845.461, 0.000316, 0.000052,-0.012781, 0.000439,-0.000992,-0.000173,-0.302222,-0.084014,-1.424860,1, 0.021614,-0.097666,-0.014402,1, 0.029104,-0.005400,-1.143492, 0.021614,-0.097666,-0.014402, 0.013465,-0.087975,-0.168112,-0.000000, 0.000000,-0.000000,1,0
1777417006325630366,1845476000000,  1845.481,-0.000008,-0.000056,-0.012294, 0.000101,-0.000279,-0.000356,-0.519287,-0.193932,-1.360388,1, 0.021341,-0.055411,-0.026893,1, 0.005445,-0.017180,-1.137010, 0.021341,-0.055411,-0.026893, 0.015148,-0.086884,-0.168366,-0.000000, 0.000000,-0.000000,1,0
1777417006335715897,1845476000000,  1845.481,-0.000008,-0.000056,-0.012294, 0.000101,-0.000279,-0.000356,-0.519287,-0.193932,-1.360388,1, 0.021341,-0.055411,-0.026893,1, 0.005445,-0.017180,-1.137010, 0.021341,-0.055411,-0.026893, 0.015148,-0.086884,-0.168366,-0.000000, 0.000000,-0.000000,1,0
1777417006345367325,1845496000000,  1845.501, 0.000210,-0.000122,-0.011732, 0.000376,-0.000248,-0.000259,-0.417178, 0.000962,-1.637345,1, 0.035517,-0.032249,-0.026566,1, 0.015023, 0.002115,-1.165302, 0.035517,-0.032249,-0.026566, 0.016604,-0.085948,-0.168568,-0.000000, 0.000000,-0.000000,1,0
1777417006355452059,1845496000000,  1845.501, 0.000210,-0.000122,-0.011732, 0.000376,-0.000248,-0.000259,-0.417178, 0.000962,-1.637345,1, 0.035517,-0.032249,-0.026566,1, 0.015023, 0.002115,-1.165302, 0.035517,-0.032249,-0.026566, 0.016604,-0.085948,-0.168568,-0.000000, 0.000000,-0.000000,1,0
1777417006365099340,1845516000000,  1845.521, 0.000318, 0.000498,-0.011806, 0.000136, 0.000325,-0.000171,-0.327461, 0.233358,-1.434551,1, 0.022296, 0.011668,-0.020463,1, 0.023993, 0.025297,-1.144634, 0.022296, 0.011669,-0.020463, 0.017969,-0.084870,-0.168277,-0.000000, 0.000000,-0.000000,1,0
1777417006375182981,1845516000000,  1845.521, 0.000318, 0.000498,-0.011806, 0.000136, 0.000325,-0.000171,-0.327461, 0.233358,-1.434551,1, 0.022296, 0.011668,-0.020463,1, 0.023993, 0.025297,-1.144634, 0.022296, 0.011669,-0.020463, 0.017969,-0.084870,-0.168277,-0.000000, 0.000000,-0.000000,1,0
1777417006394907366,1845536000000,  1845.541, 0.000341, 0.001008,-0.011210, 0.000952, 0.000537,-0.000105,-0.381049, 0.480282,-1.186112,1, 0.059901, 0.043118,-0.011940,1, 0.019141, 0.049999,-1.119265, 0.059901, 0.043118,-0.011940, 0.018438,-0.084022,-0.169009,-0.000000, 0.000000,-0.000000,1,0
1777417006404600943,1845556000000,  1845.561, 0.000078,-0.000913,-0.009516, 0.000726, 0.000641,-0.000108,-0.339563,-0.334872,-0.153799,1, 0.078495, 0.061066,-0.011753,1, 0.024470,-0.034586,-1.013934, 0.078495, 0.061067,-0.011753, 0.020160,-0.083036,-0.168714,-0.000000, 0.000000,-0.000000,1,0
1777417006414684529,1845556000000,  1845.561, 0.000078,-0.000913,-0.009516, 0.000726, 0.000641,-0.000108,-0.339563,-0.334872,-0.153799,1, 0.078495, 0.061066,-0.011753,1, 0.024470,-0.034586,-1.013934, 0.078495, 0.061067,-0.011753, 0.020160,-0.083036,-0.168714,-0.000000, 0.000000,-0.000000,1,0
1777417006424324050,1845576000000,  1845.581, 0.000354, 0.000884,-0.010323, 0.000189, 0.001047,-0.000012,-0.354843, 0.458503, 0.027317,1, 0.043684, 0.091045,-0.008424,1, 0.024520, 0.045139,-0.995368, 0.043684, 0.091045,-0.008424, 0.021029,-0.081754,-0.168874,-0.000000, 0.000000,-0.000000,1,0
1777417006434407951,1845576000000,  1845.581, 0.000354, 0.000884,-0.010323, 0.000189, 0.001047,-0.000012,-0.354843, 0.458503, 0.027317,1, 0.043684, 0.091045,-0.008424,1, 0.024520, 0.045139,-0.995368, 0.043684, 0.091045,-0.008424, 0.021029,-0.081754,-0.168874,-0.000000, 0.000000,-0.000000,1,0
1777417006444076028,1845596000000,  1845.601, 0.000657, 0.000599,-0.008817,-0.000236, 0.000888, 0.000252,-0.206593, 0.594294, 0.530421,1, 0.001405, 0.089665, 0.013528,1, 0.041449, 0.058574,-0.943953, 0.001405, 0.089665, 0.013528, 0.023217,-0.080968,-0.170071,-0.000000, 0.000000,-0.000000,1,0
1777417006454160151,1845596000000,  1845.601, 0.000657, 0.000599,-0.008817,-0.000236, 0.000888, 0.000252,-0.206593, 0.594294, 0.530421,1, 0.001405, 0.089665, 0.013528,1, 0.041449, 0.058574,-0.943953, 0.001405, 0.089665, 0.013528, 0.023217,-0.080968,-0.170071,-0.000000, 0.000000,-0.000000,1,0
1777417006473867295,1845616000000,  1845.621, 0.000510, 0.000714,-0.009260,-0.000307, 0.000319, 0.000612,-0.231869, 0.787102, 0.765342,1,-0.022230, 0.054451, 0.043598,1, 0.040205, 0.078418,-0.919914,-0.022230, 0.054451, 0.043598, 0.024477,-0.079495,-0.170866,-0.000000, 0.000000,-0.000000,1,0
1777417006489446683,1845636000000,  1845.641, 0.000210, 0.001043,-0.009374,-0.000031, 0.000139, 0.000875,-0.377568, 0.770942, 0.956626,1,-0.013513, 0.029211, 0.071908,1, 0.025750, 0.076962,-0.900383,-0.013513, 0.029211, 0.071908, 0.025794,-0.078159,-0.171888,-0.000000, 0.000000,-0.000000,1,0
1777417006499126427,1845656000000,  1845.661,-0.000089, 0.000479,-0.009131,-0.000045,-0.000034, 0.001111,-0.504045, 0.490840, 0.774943,1,-0.008226, 0.006774, 0.097244,1, 0.012973, 0.048496,-0.918903,-0.008226, 0.006774, 0.097244, 0.026556,-0.076703,-0.171526,-0.000000, 0.000000,-0.000000,1,0
1777417006509211069,1845656000000,  1845.661,-0.000089, 0.000479,-0.009131,-0.000045,-0.000034, 0.001111,-0.504045, 0.490840, 0.774943,1,-0.008226, 0.006774, 0.097244,1, 0.012973, 0.048496,-0.918903,-0.008226, 0.006774, 0.097244, 0.026556,-0.076703,-0.171526,-0.000000, 0.000000,-0.000000,1,0
1777417006528931083,1845676000000,  1845.676,-0.000239, 0.000683,-0.009658,-0.000384,-0.000152, 0.001323,-0.600215, 0.571525, 0.100735,1,-0.031357,-0.008847, 0.117371,1, 0.003027, 0.057050,-0.987662,-0.031357,-0.008847, 0.117371, 0.028220,-0.075363,-0.170920,-0.000000, 0.000000,-0.000000,1,0
1777417006538604401,1845696000000,  1845.696, 0.000038, 0.000062,-0.008979,-0.000490, 0.000035, 0.001333,-0.460098, 0.284579, 0.417558,1,-0.042150,-0.002404, 0.128218,1, 0.017149, 0.028352,-0.955366,-0.042150,-0.002404, 0.128218, 0.029757,-0.073635,-0.170952,-0.000000, 0.000000,-0.000000,1,0
1777417006548688839,1845696000000,  1845.696, 0.000038, 0.000062,-0.008979,-0.000490, 0.000035, 0.001333,-0.460098, 0.284579, 0.417558,1,-0.042150,-0.002404, 0.128218,1, 0.017149, 0.028352,-0.955366,-0.042150,-0.002404, 0.128218, 0.029757,-0.073635,-0.170952,-0.000000, 0.000000,-0.000000,1,0
1777417006558018723,1845716000000,  1845.716, 0.000538, 0.000813,-0.009817, 0.000011,-0.000190, 0.001362,-0.437456, 0.230083, 0.669530,1,-0.037366,-0.004122, 0.133066,1, 0.036615, 0.049524,-0.956185,-0.018671,-0.011607, 0.134633, 0.031344,-0.071873,-0.171378,-0.000000, 0.000000,-0.000000,1,0
1777417006568104495,1845716000000,  1845.716, 0.000538, 0.000813,-0.009817, 0.000011,-0.000190, 0.001362,-0.437456, 0.230083, 0.669530,1,-0.037366,-0.004122, 0.133066,1, 0.036615, 0.049524,-0.956185,-0.018671,-0.011607, 0.134633, 0.031344,-0.071873,-0.171378,-0.000000, 0.000000,-0.000000,1,0
1777417006587826676,1845736000000,  1845.736, 0.000384,-0.000067,-0.009588, 0.000442,-0.000468, 0.001472,-0.382180, 0.461834, 0.213260,1, 0.015890,-0.024254, 0.142755,1, 0.030920, 0.022094,-0.968741, 0.029214,-0.034188, 0.144910, 0.032659,-0.070416,-0.171906,-0.000000, 0.000000,-0.000000,1,0
1777417006597503290,1845756000000,  1845.756, 0.000120, 0.000300,-0.010652,-0.000014,-0.000338, 0.001482,-0.490171, 0.184016, 0.183532,1, 0.030173,-0.025610, 0.146636,1, 0.010152, 0.022944,-1.013931, 0.016005,-0.029559, 0.147787, 0.033820,-0.068982,-0.171960,-0.000000, 0.000000,-0.000000,1,0
1777417006607588487,1845756000000,  1845.756, 0.000120, 0.000300,-0.010652,-0.000014,-0.000338, 0.001482,-0.490171, 0.184016, 0.183532,1, 0.030173,-0.025610, 0.146636,1, 0.010152, 0.022944,-1.013931, 0.016005,-0.029559, 0.147787, 0.033820,-0.068982,-0.171960,-0.000000, 0.000000,-0.000000,1,0
1777417006617258583,1845776000000,  1845.776, 0.000090, 0.000795,-0.009831, 0.000063,-0.000258, 0.001712,-0.344340, 0.433342,-0.187604,1, 0.005152,-0.025061, 0.153135,1, 0.018162, 0.056512,-0.996416, 0.005609,-0.024438, 0.161822, 0.035571,-0.067783,-0.170487,-0.000000, 0.000000,-0.000000,1,0
1777417006627344206,1845776000000,  1845.776, 0.000090, 0.000795,-0.009831, 0.000063,-0.000258, 0.001712,-0.344340, 0.433342,-0.187604,1, 0.005152,-0.025061, 0.153135,1, 0.018162, 0.056512,-0.996416, 0.005609,-0.024438, 0.161822, 0.035571,-0.067783,-0.170487,-0.000000, 0.000000,-0.000000,1,0
1777417006647045442,1845796000000,  1845.796,-0.000023, 0.000095,-0.009263,-0.000260,-0.000204, 0.001718,-0.182468, 0.382555,-0.137445,1,-0.004095,-0.019659, 0.167514,1, 0.024229, 0.025445,-0.973930,-0.014570,-0.019629, 0.169299, 0.037364,-0.066285,-0.169604,-0.000000, 0.000000,-0.000000,1,0
1777417006666837161,1845816000000,  1845.816, 0.000038, 0.000447,-0.010032,-0.000328,-0.000153, 0.001858,-0.273124, 0.398995, 0.024247,1,-0.017251,-0.020675, 0.169885,1, 0.021487, 0.041288,-1.002159,-0.024657,-0.017955, 0.177331, 0.038535,-0.065244,-0.170185,-0.000000, 0.000000,-0.000000,1,0
1777417006676481052,1845836000000,  1845.836, 0.000236, 0.000419,-0.009908,-0.000235, 0.000043, 0.001890,-0.337110, 0.483002,-0.067004,1,-0.027549,-0.019406, 0.181476,1, 0.026218, 0.045768,-1.002840,-0.026879,-0.008765, 0.184607, 0.039574,-0.063966,-0.171078,-0.000000, 0.000000,-0.000000,1,0
1777417006686565879,1845836000000,  1845.836, 0.000236, 0.000419,-0.009908,-0.000235, 0.000043, 0.001890,-0.337110, 0.483002,-0.067004,1,-0.027549,-0.019406, 0.181476,1, 0.026218, 0.045768,-1.002840,-0.026879,-0.008765, 0.184607, 0.039574,-0.063966,-0.171078,-0.000000, 0.000000,-0.000000,1,0
1777417006696201159,1845856000000,  1845.856, 0.000613, 0.000141,-0.011141,-0.000074,-0.000114, 0.001857,-0.317745, 0.290643,-0.263902,1,-0.022614,-0.009172, 0.185795,1, 0.044123, 0.023413,-1.066115,-0.014982,-0.010584, 0.185550, 0.040837,-0.062672,-0.171167,-0.000000, 0.000000,-0.000000,1,0
1777417006706286282,1845856000000,  1845.856, 0.000613, 0.000141,-0.011141,-0.000074,-0.000114, 0.001857,-0.317745, 0.290643,-0.263902,1,-0.022614,-0.009172, 0.185795,1, 0.044123, 0.023413,-1.066115,-0.014982,-0.010584, 0.185550, 0.040837,-0.062672,-0.171167,-0.000000, 0.000000,-0.000000,1,0
1777417006726033834,1845866000000,  1845.871, 0.000019,-0.000142,-0.009918,-0.000056, 0.000055, 0.001836,-0.335364, 0.050957,-0.310899,1,-0.010966,-0.001519, 0.184446,1, 0.026563, 0.004430,-1.029855,-0.010967,-0.001519, 0.184446, 0.041613,-0.062022,-0.170809,-0.000000, 0.000000,-0.000000,1,0
1777417006745753330,1845886000000,  1845.891, 0.000250,-0.000082,-0.010654,-0.000229, 0.000286, 0.001748,-0.308000, 0.018376,-0.666596,1,-0.019645, 0.016551, 0.177553,1, 0.029499, 0.001244,-1.066117,-0.019645, 0.016552, 0.177553, 0.042475,-0.061288,-0.171603,-0.000000, 0.000000,-0.000000,1,0
1777417006755424944,1845906000000,  1845.911, 0.000722, 0.000095,-0.010713,-0.000258, 0.000524, 0.001646,-0.077517, 0.020500,-0.393998,1,-0.023959, 0.038801, 0.169669,1, 0.053593, 0.001687,-1.038284,-0.023959, 0.038801, 0.169669, 0.043607,-0.060256,-0.170601,-0.000000, 0.000000,-0.000000,1,0
1777417006765509697,1845906000000,  1845.911, 0.000722, 0.000095,-0.010713,-0.000258, 0.000524, 0.001646,-0.077517, 0.020500,-0.393998,1,-0.023959, 0.038801, 0.169669,1, 0.053593, 0.001687,-1.038284,-0.023959, 0.038801, 0.169669, 0.043607,-0.060256,-0.170601,-0.000000, 0.000000,-0.000000,1,0
1777417006775161607,1845926000000,  1845.931, 0.000652,-0.000460,-0.010504, 0.000225, 0.000259, 0.001586,-0.135200,-0.140218,-0.397928,1, 0.007256, 0.030101, 0.163348,1, 0.048455,-0.014798,-1.038638, 0.007256, 0.030101, 0.163348, 0.044792,-0.059808,-0.170328,-0.000000, 0.000000,-0.000000,1,0
1777417006785246470,1845926000000,  1845.931, 0.000652,-0.000460,-0.010504, 0.000225, 0.000259, 0.001586,-0.135200,-0.140218,-0.397928,1, 0.007256, 0.030101, 0.163348,1, 0.048455,-0.014798,-1.038638, 0.007256, 0.030101, 0.163348, 0.044792,-0.059808,-0.170328,-0.000000, 0.000000,-0.000000,1,0
1777417006804985541,1845946000000,  1845.951, 0.000457, 0.000041,-0.010806,-0.000249, 0.000606, 0.001481,-0.312533,-0.058740,-0.446315,1,-0.007739, 0.050120, 0.153929,1, 0.031185,-0.006741,-1.043521,-0.007739, 0.050120, 0.153929, 0.046715,-0.059008,-0.170761,-0.000000, 0.000000,-0.000000,1,0
1777417006814647969,1845966000000,  1845.971, 0.000207, 0.000675,-0.011556, 0.000731,-0.000020, 0.001535,-0.353329, 0.391865,-1.133040,1, 0.030180, 0.021027, 0.153126,1, 0.027777, 0.039063,-1.113499, 0.030180, 0.021027, 0.153126, 0.047301,-0.058541,-0.171570,-0.000000, 0.000000,-0.000000,1,0
1777417006824732722,1845966000000,  1845.971, 0.000207, 0.000675,-0.011556, 0.000731,-0.000020, 0.001535,-0.353329, 0.391865,-1.133040,1, 0.030180, 0.021027, 0.153126,1, 0.027777, 0.039063,-1.113499, 0.030180, 0.021027, 0.153126, 0.047301,-0.058541,-0.171570,-0.000000, 0.000000,-0.000000,1,0
1777417006834392521,1845986000000,  1845.991,-0.000478,-0.001742,-0.009235, 0.000185, 0.000753, 0.001140,-0.730387,-0.908747, 0.207032,1, 0.028387, 0.050647, 0.130409,1,-0.010043,-0.094562,-0.976808, 0.028387, 0.050647, 0.130409, 0.048276,-0.058079,-0.172265,-0.000000, 0.000000,-0.000000,1,0
1777417006844482052,1845986000000,  1845.991,-0.000478,-0.001742,-0.009235, 0.000185, 0.000753, 0.001140,-0.730387,-0.908747, 0.207032,1, 0.028387, 0.050647, 0.130409,1,-0.010043,-0.094562,-0.976808, 0.028387, 0.050647, 0.130409, 0.048276,-0.058079,-0.172265,-0.000000, 0.000000,-0.000000,1,0
1777417006854186352,1846006000000,  1846.011, 0.000213, 0.000425,-0.011309,-0.000168, 0.001344, 0.000919,-0.430393,-0.241125,-0.409451,1,-0.000088, 0.108870, 0.102781,1, 0.022328,-0.026846,-1.039554,-0.000088, 0.108870, 0.102781, 0.049442,-0.058084,-0.172221,-0.000000, 0.000000,-0.000000,1,0
1777417006864287660,1846006000000,  1846.011, 0.000213, 0.000425,-0.011309,-0.000168, 0.001344, 0.000919,-0.430393,-0.241125,-0.409451,1,-0.000088, 0.108870, 0.102781,1, 0.022328,-0.026846,-1.039554,-0.000088, 0.108870, 0.102781, 0.049442,-0.058084,-0.172221,-0.000000, 0.000000,-0.000000,1,0
1777417006879336686,1846026000000,  1846.031, 0.000432,-0.000092,-0.009961, 0.000077, 0.000661, 0.001065,-0.213123, 0.095642,-0.236304,1, 0.012858, 0.090942, 0.103758,1, 0.046032, 0.007262,-1.021794, 0.012858, 0.090942, 0.103758, 0.050531,-0.057907,-0.171844,-0.000000, 0.000000,-0.000000,1,0
1777417006889037375,1846046000000,  1846.051, 0.000366,-0.000591,-0.009810,-0.000532, 0.000775, 0.001000,-0.305726,-0.308326, 0.136052,1,-0.021759, 0.087631, 0.099672,1, 0.038115,-0.033987,-0.983719,-0.021759, 0.087631, 0.099672, 0.051886,-0.057804,-0.171454,-0.000000, 0.000000,-0.000000,1,0
1777417006899122886,1846046000000,  1846.051, 0.000366,-0.000591,-0.009810,-0.000532, 0.000775, 0.001000,-0.305726,-0.308326, 0.136052,1,-0.021759, 0.087631, 0.099672,1, 0.038115,-0.033987,-0.983719,-0.021759, 0.087631, 0.099672, 0.051886,-0.057804,-0.171454,-0.000000, 0.000000,-0.000000,1,0
1777417006918888494,1846066000000,  1846.066, 0.000236, 0.000107,-0.008329,-0.000341, 0.000821, 0.000877,-0.374571,-0.006229, 0.873576,1,-0.040771, 0.081087, 0.090249,1, 0.032701,-0.002517,-0.908401,-0.040771, 0.081087, 0.090249, 0.053043,-0.057929,-0.171910,-0.000000, 0.000000,-0.000000,1,0
1777417006928194156,1846086000000,  1846.086, 0.000337,-0.000540,-0.008670,-0.000305, 0.000427, 0.000854,-0.188247,-0.010902, 0.310857,1,-0.040044, 0.074093, 0.092386,1, 0.045450,-0.024578,-0.917632,-0.034180, 0.060505, 0.088865, 0.053628,-0.058448,-0.173451,-0.000000, 0.000000,-0.000000,1,0
1777417006938279038,1846086000000,  1846.086, 0.000337,-0.000540,-0.008670,-0.000305, 0.000427, 0.000854,-0.188247,-0.010902, 0.310857,1,-0.040044, 0.074093, 0.092386,1, 0.045450,-0.024578,-0.917632,-0.034180, 0.060505, 0.088865, 0.053628,-0.058448,-0.173451,-0.000000, 0.000000,-0.000000,1,0
1777417006957971552,1846106000000,  1846.106, 0.000100,-0.000407,-0.008417,-0.000221, 0.000389, 0.000711,-0.352014,-0.340485, 0.377176,1,-0.033854, 0.048392, 0.083636,1, 0.024597,-0.037089,-0.905278,-0.028713, 0.045110, 0.077488, 0.054250,-0.058799,-0.173870,-0.000000, 0.000000,-0.000000,1,0
1777417006967652555,1846126000000,  1846.126, 0.000328,-0.001168,-0.009121,-0.000230, 0.000321, 0.000454,-0.391671,-0.432549, 0.603271,1,-0.021452, 0.045093, 0.069171,1, 0.032924,-0.075598,-0.933072,-0.023277, 0.038583, 0.057724, 0.055376,-0.059020,-0.173584,-0.000000, 0.000000,-0.000000,1,0
1777417006977737030,1846126000000,  1846.126, 0.000328,-0.001168,-0.009121,-0.000230, 0.000321, 0.000454,-0.391671,-0.432549, 0.603271,1,-0.021452, 0.045093, 0.069171,1, 0.032924,-0.075598,-0.933072,-0.023277, 0.038583, 0.057724, 0.055376,-0.059020,-0.173584,-0.000000, 0.000000,-0.000000,1,0
1777417006987392422,1846146000000,  1846.146, 0.000232,-0.000432,-0.009808, 0.000150,-0.000019, 0.000210,-0.421348,-0.472326, 0.824711,1,-0.003896, 0.023657, 0.048407,1, 0.026963,-0.043940,-0.950931, 0.005394, 0.011711, 0.035565, 0.056172,-0.058957,-0.172205,-0.000000, 0.000000,-0.000000,1,0
1777417006997534620,1846146000000,  1846.146, 0.000232,-0.000432,-0.009808, 0.000150,-0.000019, 0.000210,-0.421348,-0.472326, 0.824711,1,-0.003896, 0.023657, 0.048407,1, 0.026963,-0.043940,-0.950931, 0.005394, 0.011711, 0.035565, 0.056172,-0.058957,-0.172205,-0.000000, 0.000000,-0.000000,1,0
1777417007007131788,1846166000000,  1846.166, 0.000243,-0.000914,-0.009121, 0.000219,-0.000098,-0.000019,-0.553010,-0.600959, 0.735508,1, 0.022980, 0.005177, 0.026601,1, 0.019807,-0.074880,-0.913073, 0.023894,-0.001417, 0.013759, 0.056918,-0.060175,-0.172200,-0.000000, 0.000000,-0.000000,1,0
1777417007017216983,1846166000000,  1846.166, 0.000243,-0.000914,-0.009121, 0.000219,-0.000098,-0.000019,-0.553010,-0.600959, 0.735508,1, 0.022980, 0.005177, 0.026601,1, 0.019807,-0.074880,-0.913073, 0.023894,-0.001417, 0.013759, 0.056918,-0.060175,-0.172200,-0.000000, 0.000000,-0.000000,1,0
