Time,reference_time,gps_timestamp,deltaVelX,deltaVelY,deltaVelZ,deltaThetaX,deltaThetaY,deltaThetaZ,estLinearAccelX,estLinearAccelY,estLinearAccelZ,estLinearAccel:valid,estAngularRateX,estAngularRateY,estAngularRateZ,estAngularRate:valid,scaledAccelX,scaledAccelY,scaledAccelZ,scaledGyroX,scaledGyroY,scaledGyroZ,scaledMagX,scaledMagY,scaledMagZ,estGyroBiasX,estGyroBiasY,estGyroBiasZ,estGyroBias:valid,flagStop
1777416075841836857,900807000000,   900.807, 0.000012,-0.000106,-0.009961,-0.000018, 0.000037, 0.000188,-0.081019,-0.020207, 0.039471,1,-0.001120, 0.003560, 0.018487,1, 0.001007,-0.010622,-0.995974,-0.001451, 0.003659, 0.018629, 0.125950, 0.254443,-0.117186,-0.000000, 0.000000, 0.000000,1,0
1777416075860969028,915017000000,   915.022, 0.000014,-0.000112,-0.009950,-0.000014, 0.000029, 0.000188,-0.457225,-0.073757, 0.032948,1,-0.001431, 0.003116, 0.018790,1, 0.001175,-0.011602,-0.995489,-0.001431, 0.003116, 0.018790, 0.125230, 0.254453,-0.115644,-0.000000, 0.000000,-0.000000,1,0
1777416075870616344,915037000000,   915.037, 0.000005,-0.000130,-0.009954,-0.000016, 0.000029, 0.000183,-0.458609,-0.082197, 0.027768,1,-0.001483, 0.002880, 0.018384,1, 0.001086,-0.012453,-0.996015,-0.001483, 0.002880, 0.018384, 0.125332, 0.254884,-0.115637,-0.000000, 0.000000,-0.000000,1,0
1777416075880701648,915037000000,   915.037, 0.000005,-0.000130,-0.009954,-0.000016, 0.000029, 0.000183,-0.458609,-0.082197, 0.027768,1,-0.001483, 0.002880, 0.018384,1, 0.001086,-0.012453,-0.996015,-0.001483, 0.002880, 0.018384, 0.125332, 0.254884,-0.115637,-0.000000, 0.000000,-0.000000,1,0
1777416075890340428,915057000000,   915.057,-0.000012,-0.000117,-0.009985,-0.000019, 0.000025, 0.000177,-0.474629,-0.078206, 0.019617,1,-0.001663, 0.002702, 0.017953,1,-0.000493,-0.012036,-0.996843,-0.001663, 0.002702, 0.017953, 0.125284, 0.254989,-0.115589,-0.000000, 0.000000,-0.000000,1,0
1777416075900425009,915057000000,   915.057,-0.000012,-0.000117,-0.009985,-0.000019, 0.000025, 0.000177,-0.474629,-0.078206, 0.019617,1,-0.001663, 0.002702, 0.017953,1,-0.000493,-0.012036,-0.996843,-0.001663, 0.002702, 0.017953, 0.125284, 0.254989,-0.115589,-0.000000, 0.000000,-0.000000,1,0
1777416075919802096,915077000000,   915.077, 0.000004,-0.000113,-0.009974,-0.000016, 0.000034, 0.000179,-0.475159,-0.074650, 0.027946,1,-0.001764, 0.002904, 0.017918,1,-0.000050,-0.011460,-0.996547,-0.001613, 0.003187, 0.017898, 0.125667, 0.254884,-0.115843,-0.000000, 0.000000,-0.000000,1,0
1777416075929544846,915097000000,   915.097, 0.000027,-0.000093,-0.009973,-0.000019, 0.000029, 0.000174,-0.462102,-0.070123, 0.028117,1,-0.001758, 0.003196, 0.017736,1, 0.001738,-0.010282,-0.996466,-0.001863, 0.003061, 0.017579, 0.125696, 0.255246,-0.116480,-0.000000, 0.000000,-0.000000,1,0
1777416075939630094,915097000000,   915.097, 0.000027,-0.000093,-0.009973,-0.000019, 0.000029, 0.000174,-0.462102,-0.070123, 0.028117,1,-0.001758, 0.003196, 0.017736,1, 0.001738,-0.010282,-0.996466,-0.001863, 0.003061, 0.017579, 0.125696, 0.255246,-0.116480,-0.000000, 0.000000,-0.000000,1,0
1777416075949219288,915117000000,   915.117, 0.000032,-0.000078,-0.009961,-0.000014, 0.000023, 0.000182,-0.447230,-0.048213, 0.033824,1,-0.001795, 0.003780, 0.017725,1, 0.002765,-0.008412,-0.995662,-0.001649, 0.003075, 0.017960, 0.125498, 0.254560,-0.116944,-0.000000, 0.000000,-0.000000,1,0
1777416075959304017,915117000000,   915.117, 0.000032,-0.000078,-0.009961,-0.000014, 0.000023, 0.000182,-0.447230,-0.048213, 0.033824,1,-0.001795, 0.003780, 0.017725,1, 0.002765,-0.008412,-0.995662,-0.001649, 0.003075, 0.017960, 0.125498, 0.254560,-0.116944,-0.000000, 0.000000,-0.000000,1,0
1777416075979043210,915137000000,   915.137, 0.000004,-0.000097,-0.009958,-0.000015, 0.000031, 0.000202,-0.447916,-0.047862, 0.033953,1,-0.001352, 0.002813, 0.018316,1, 0.001485,-0.009267,-0.995604,-0.001499, 0.002911, 0.019165, 0.125582, 0.254288,-0.116810,-0.000000, 0.000000,-0.000000,1,0
1777416075998732076,915157000000,   915.157,-0.000012,-0.000117,-0.009968,-0.000016, 0.000030, 0.000195,-0.467256,-0.057090, 0.030217,1,-0.001134, 0.002851, 0.019439,1,-0.000243,-0.010698,-0.996269,-0.001342, 0.002937, 0.019498, 0.125934, 0.254364,-0.116330,-0.000000, 0.000000,-0.000000,1,0
1777416076008407042,915177000000,   915.177, 0.000004,-0.000121,-0.009956,-0.000015, 0.000041, 0.000193,-0.478539,-0.073253, 0.027896,1,-0.001284, 0.003037, 0.019736,1,-0.000116,-0.011719,-0.995837,-0.001412, 0.003503, 0.019590, 0.125819, 0.253945,-0.116885,-0.000000, 0.000000,-0.000000,1,0
1777416076018491964,915177000000,   915.177, 0.000004,-0.000121,-0.009956,-0.000015, 0.000041, 0.000193,-0.478539,-0.073253, 0.027896,1,-0.001284, 0.003037, 0.019736,1,-0.000116,-0.011719,-0.995837,-0.001412, 0.003503, 0.019590, 0.125819, 0.253945,-0.116885,-0.000000, 0.000000,-0.000000,1,0
1777416076028163396,915197000000,   915.197, 0.000014,-0.000123,-0.009953,-0.000010, 0.000032, 0.000191,-0.469265,-0.073721, 0.028845,1,-0.001506, 0.003171, 0.019288,1, 0.000886,-0.011900,-0.995647,-0.001268, 0.003158, 0.019182, 0.125681, 0.254210,-0.116713,-0.000000, 0.000000,-0.000000,1,0
1777416076038247485,915197000000,   915.197, 0.000014,-0.000123,-0.009953,-0.000010, 0.000032, 0.000191,-0.469265,-0.073721, 0.028845,1,-0.001506, 0.003171, 0.019288,1, 0.000886,-0.011900,-0.995647,-0.001268, 0.003158, 0.019182, 0.125681, 0.254210,-0.116713,-0.000000, 0.000000,-0.000000,1,0
1777416076057979508,915217000000,   915.217, 0.000011,-0.000142,-0.009963,-0.000013, 0.000032, 0.000179,-0.461937,-0.085458, 0.032944,1,-0.001410, 0.003235, 0.018765,1, 0.001121,-0.013401,-0.995786,-0.001313, 0.003255, 0.018380, 0.125703, 0.254377,-0.116747,-0.000000, 0.000000,-0.000000,1,0
1777416076067668475,915227000000,   915.232, 0.000004,-0.000129,-0.009964,-0.000008, 0.000037, 0.000180,-0.466186,-0.089707, 0.026395,1,-0.001102, 0.003422, 0.018154,1, 0.000802,-0.013151,-0.996131,-0.001102, 0.003422, 0.018154, 0.125490, 0.254727,-0.116548,-0.000000, 0.000000,-0.000000,1,0
1777416076077752120,915227000000,   915.232, 0.000004,-0.000129,-0.009964,-0.000008, 0.000037, 0.000180,-0.466186,-0.089707, 0.026395,1,-0.001102, 0.003422, 0.018154,1, 0.000802,-0.013151,-0.996131,-0.001102, 0.003422, 0.018154, 0.125490, 0.254727,-0.116548,-0.000000, 0.000000,-0.000000,1,0
1777416076087405202,915247000000,   915.252, 0.000009,-0.000106,-0.009959,-0.000012, 0.000033, 0.000180,-0.468096,-0.073991, 0.028919,1,-0.001231, 0.003292, 0.017921,1, 0.000669,-0.011541,-0.995871,-0.001231, 0.003292, 0.017921, 0.125284, 0.255018,-0.117139,-0.000000, 0.000000,-0.000000,1,0
1777416076097488976,915247000000,   915.252, 0.000009,-0.000106,-0.009959,-0.000012, 0.000033, 0.000180,-0.468096,-0.073991, 0.028919,1,-0.001231, 0.003292, 0.017921,1, 0.000669,-0.011541,-0.995871,-0.001231, 0.003292, 0.017921, 0.125284, 0.255018,-0.117139,-0.000000, 0.000000,-0.000000,1,0
1777416076107093823,915267000000,   915.272, 0.000010,-0.000085,-0.009959,-0.000015, 0.000026, 0.000183,-0.467093,-0.054133, 0.030078,1,-0.001352, 0.003013, 0.018042,1, 0.000833,-0.009509,-0.995750,-0.001352, 0.003013, 0.018042, 0.125133, 0.255025,-0.116920,-0.000000, 0.000000,-0.000000,1,0
1777416076117178023,915267000000,   915.272, 0.000010,-0.000085,-0.009959,-0.000015, 0.000026, 0.000183,-0.467093,-0.054133, 0.030078,1,-0.001352, 0.003013, 0.018042,1, 0.000833,-0.009509,-0.995750,-0.001352, 0.003013, 0.018042, 0.125133, 0.255025,-0.116920,-0.000000, 0.000000,-0.000000,1,0
1777416076136921064,915287000000,   915.292, 0.000015,-0.000096,-0.009959,-0.000008, 0.000033, 0.000183,-0.463329,-0.052629, 0.031251,1,-0.001025, 0.003191, 0.018222,1, 0.001279,-0.009348,-0.995627,-0.001025, 0.003191, 0.018222, 0.124864, 0.254765,-0.116172,-0.000000, 0.000000,-0.000000,1,0
1777416076146592440,915307000000,   915.312, 0.000009,-0.000109,-0.009952,-0.000016, 0.000031, 0.000190,-0.465000,-0.063380, 0.034195,1,-0.001444, 0.003174, 0.018685,1, 0.001170,-0.010437,-0.995324,-0.001444, 0.003174, 0.018685, 0.125331, 0.254754,-0.115951,-0.000000, 0.000000,-0.000000,1,0
1777416076156675344,915307000000,   915.312, 0.000009,-0.000109,-0.009952,-0.000016, 0.000031, 0.000190,-0.465000,-0.063380, 0.034195,1,-0.001444, 0.003174, 0.018685,1, 0.001170,-0.010437,-0.995324,-0.001444, 0.003174, 0.018685, 0.125331, 0.254754,-0.115951,-0.000000, 0.000000,-0.000000,1,0
1777416076166310021,915327000000,   915.332, 0.000006,-0.000106,-0.009965,-0.000008, 0.000034, 0.000194,-0.469065,-0.064783, 0.026762,1,-0.001002, 0.003058, 0.019062,1, 0.000815,-0.010575,-0.996079,-0.001002, 0.003058, 0.019062, 0.125572, 0.254454,-0.116879,-0.000000, 0.000000,-0.000000,1,0
1777416076176393406,915327000000,   915.332, 0.000006,-0.000106,-0.009965,-0.000008, 0.000034, 0.000194,-0.469065,-0.064783, 0.026762,1,-0.001002, 0.003058, 0.019062,1, 0.000815,-0.010575,-0.996079,-0.001002, 0.003058, 0.019062, 0.125572, 0.254454,-0.116879,-0.000000, 0.000000,-0.000000,1,0
1777416076186061783,915347000000,   915.352, 0.000005,-0.000113,-0.009960,-0.000017, 0.000027, 0.000186,-0.472205,-0.069403, 0.029178,1,-0.001219, 0.003175, 0.018711,1, 0.000557,-0.011043,-0.995830,-0.001219, 0.003176, 0.018711, 0.125545, 0.254574,-0.116890,-0.000000, 0.000000,-0.000000,1,0
1777416076196145427,915347000000,   915.352, 0.000005,-0.000113,-0.009960,-0.000017, 0.000027, 0.000186,-0.472205,-0.069403, 0.029178,1,-0.001219, 0.003175, 0.018711,1, 0.000557,-0.011043,-0.995830,-0.001219, 0.003176, 0.018711, 0.125545, 0.254574,-0.116890,-0.000000, 0.000000,-0.000000,1,0
1777416076215870100,915367000000,   915.372, 0.000006,-0.000110,-0.009970,-0.000015, 0.000024, 0.000186,-0.472191,-0.068083, 0.024244,1,-0.001292, 0.002938, 0.018516,1, 0.000623,-0.010904,-0.996330,-0.001292, 0.002938, 0.018516, 0.125508, 0.254553,-0.116920,-0.000000, 0.000000,-0.000000,1,0
1777416076225553716,915387000000,   915.392, 0.000013,-0.000117,-0.009969,-0.000011, 0.000026, 0.000186,-0.468600,-0.071741, 0.024794,1,-0.001356, 0.002702, 0.018612,1, 0.000992,-0.011287,-0.996273,-0.001356, 0.002702, 0.018612, 0.125308, 0.254256,-0.116578,-0.000000, 0.000000,-0.000000,1,0
1777416076235637286,915387000000,   915.392, 0.000013,-0.000117,-0.009969,-0.000011, 0.000026, 0.000186,-0.468600,-0.071741, 0.024794,1,-0.001356, 0.002702, 0.018612,1, 0.000992,-0.011287,-0.996273,-0.001356, 0.002702, 0.018612, 0.125308, 0.254256,-0.116578,-0.000000, 0.000000,-0.000000,1,0
1777416076251174307,915407000000,   915.412, 0.000010,-0.000105,-0.009963,-0.000019, 0.000038, 0.000188,-0.469620,-0.067506, 0.027877,1,-0.001523, 0.003373, 0.018811,1, 0.000918,-0.010858,-0.995958,-0.001523, 0.003373, 0.018811, 0.125448, 0.254720,-0.117040,-0.000000, 0.000000,-0.000000,1,0
1777416076270906516,915427000000,   915.432, 0.000011,-0.000107,-0.009951,-0.000017, 0.000031, 0.000186,-0.469823,-0.066382, 0.032154,1,-0.001519, 0.003134, 0.018676,1, 0.000952,-0.010738,-0.995519,-0.001519, 0.003134, 0.018676, 0.125536, 0.254549,-0.116579,-0.000000, 0.000000,-0.000000,1,0
1777416076280588891,915447000000,   915.447, 0.000008,-0.000105,-0.009953,-0.000011, 0.000039, 0.000185,-0.472067,-0.065868, 0.030826,1,-0.001095, 0.003543, 0.018496,1, 0.000786,-0.010683,-0.995651,-0.001095, 0.003543, 0.018496, 0.125695, 0.254825,-0.116500,-0.000000, 0.000000,-0.000000,1,0
1777416076290671943,915447000000,   915.447, 0.000008,-0.000105,-0.009953,-0.000011, 0.000039, 0.000185,-0.472067,-0.065868, 0.030826,1,-0.001095, 0.003543, 0.018496,1, 0.000786,-0.010683,-0.995651,-0.001095, 0.003543, 0.018496, 0.125695, 0.254825,-0.116500,-0.000000, 0.000000,-0.000000,1,0
1777416076300310064,915467000000,   915.467, 0.000008,-0.000108,-0.009953,-0.000012, 0.000027, 0.000183,-0.471175,-0.066522, 0.030608,1,-0.001270, 0.003072, 0.018409,1, 0.000941,-0.010741,-0.995670,-0.001270, 0.003072, 0.018409, 0.125073, 0.254830,-0.116784,-0.000000, 0.000000,-0.000000,1,0
1777416076310392986,915467000000,   915.467, 0.000008,-0.000108,-0.009953,-0.000012, 0.000027, 0.000183,-0.471175,-0.066522, 0.030608,1,-0.001270, 0.003072, 0.018409,1, 0.000941,-0.010741,-0.995670,-0.001270, 0.003072, 0.018409, 0.125073, 0.254830,-0.116784,-0.000000, 0.000000,-0.000000,1,0
1777416076329803176,915487000000,   915.487, 0.000009,-0.000108,-0.009961,-0.000015, 0.000037, 0.000189,-0.472418,-0.067591, 0.029425,1,-0.001209, 0.002911, 0.018528,1, 0.000868,-0.010811,-0.996011,-0.001305, 0.003246, 0.018747, 0.125504, 0.255014,-0.116567,-0.000000, 0.000000,-0.000000,1,0
1777416076339462239,915507000000,   915.507, 0.000008,-0.000112,-0.009960,-0.000013, 0.000033, 0.000189,-0.472362,-0.069565, 0.028661,1,-0.001117, 0.003266, 0.018621,1, 0.000866,-0.011058,-0.996020,-0.001218, 0.003249, 0.018690, 0.125401, 0.254552,-0.115882,-0.000000, 0.000000,-0.000000,1,0
1777416076349545995,915507000000,   915.507, 0.000008,-0.000112,-0.009960,-0.000013, 0.000033, 0.000189,-0.472362,-0.069565, 0.028661,1,-0.001117, 0.003266, 0.018621,1, 0.000866,-0.011058,-0.996020,-0.001218, 0.003249, 0.018690, 0.125401, 0.254552,-0.115882,-0.000000, 0.000000,-0.000000,1,0
1777416076359220260,915527000000,   915.527, 0.000008,-0.000109,-0.009965,-0.000015, 0.000035, 0.000183,-0.474479,-0.069087, 0.030563,1,-0.001316, 0.003258, 0.018714,1, 0.000814,-0.010941,-0.996085,-0.001360, 0.003333, 0.018494, 0.125259, 0.254218,-0.115877,-0.000000, 0.000000,-0.000000,1,0
1777416076369303589,915527000000,   915.527, 0.000008,-0.000109,-0.009965,-0.000015, 0.000035, 0.000183,-0.474479,-0.069087, 0.030563,1,-0.001316, 0.003258, 0.018714,1, 0.000814,-0.010941,-0.996085,-0.001360, 0.003333, 0.018494, 0.125259, 0.254218,-0.115877,-0.000000, 0.000000,-0.000000,1,0
1777416076388994988,915547000000,   915.547, 0.000010,-0.000110,-0.009960,-0.000007, 0.000038, 0.000186,-0.475040,-0.067149, 0.028007,1,-0.001528, 0.003295, 0.018567,1, 0.000844,-0.010918,-0.995866,-0.001186, 0.003523, 0.018568, 0.125155, 0.254504,-0.116141,-0.000000, 0.000000,-0.000000,1,0
1777416076398689936,915567000000,   915.567, 0.000009,-0.000107,-0.009957,-0.000013, 0.000028, 0.000184,-0.475779,-0.067689, 0.026743,1,-0.000857, 0.003443, 0.018596,1, 0.000819,-0.010836,-0.995831,-0.001065, 0.003108, 0.018476, 0.125421, 0.254040,-0.115998,-0.000000, 0.000000,-0.000000,1,0
1777416076408791504,915567000000,   915.567, 0.000009,-0.000107,-0.009957,-0.000013, 0.000028, 0.000184,-0.475779,-0.067689, 0.026743,1,-0.000857, 0.003443, 0.018596,1, 0.000819,-0.010836,-0.995831,-0.001065, 0.003108, 0.018476, 0.125421, 0.254040,-0.115998,-0.000000, 0.000000,-0.000000,1,0
1777416076418406757,915587000000,   915.587, 0.000011,-0.000112,-0.009960,-0.000011, 0.000033, 0.000189,-0.473253,-0.066956, 0.028516,1,-0.001045, 0.002859, 0.018598,1, 0.001048,-0.010993,-0.995915,-0.001088, 0.003068, 0.018723, 0.125511, 0.254336,-0.116981,-0.000000, 0.000000,-0.000000,1,0
1777416076428489365,915587000000,   915.587, 0.000011,-0.000112,-0.009960,-0.000011, 0.000033, 0.000189,-0.473253,-0.066956, 0.028516,1,-0.001045, 0.002859, 0.018598,1, 0.001048,-0.010993,-0.995915,-0.001088, 0.003068, 0.018723, 0.125511, 0.254336,-0.116981,-0.000000, 0.000000,-0.000000,1,0
1777416076438186220,915607000000,   915.607, 0.000009,-0.000107,-0.009957,-0.000020, 0.000037, 0.000181,-0.474013,-0.067456, 0.027323,1,-0.001287, 0.003402, 0.018808,1, 0.000986,-0.010807,-0.995903,-0.001595, 0.003531, 0.018471, 0.125244, 0.254696,-0.116800,-0.000000, 0.000000,-0.000000,1,0
1777416076448269697,915607000000,   915.607, 0.000009,-0.000107,-0.009957,-0.000020, 0.000037, 0.000181,-0.474013,-0.067456, 0.027323,1,-0.001287, 0.003402, 0.018808,1, 0.000986,-0.010807,-0.995903,-0.001595, 0.003531, 0.018471, 0.125244, 0.254696,-0.116800,-0.000000, 0.000000,-0.000000,1,0
1777416076467957633,915627000000,   915.627, 0.000009,-0.000106,-0.009962,-0.000006, 0.000039, 0.000183,-0.474370,-0.067999, 0.028335,1,-0.001461, 0.003427, 0.018621,1, 0.000968,-0.010775,-0.996061,-0.001059, 0.003647, 0.018459, 0.124910, 0.254992,-0.116523,-0.000000, 0.000000,-0.000000,1,0
1777416076477621918,915637000000,   915.642, 0.000006,-0.000110,-0.009953,-0.000016, 0.000028, 0.000190,-0.477008,-0.067856, 0.030074,1,-0.001321, 0.003254, 0.018715,1, 0.000796,-0.010867,-0.995703,-0.001321, 0.003254, 0.018715, 0.124769, 0.255012,-0.115703,-0.000000, 0.000000,-0.000000,1,0
1777416076487705470,915637000000,   915.642, 0.000006,-0.000110,-0.009953,-0.000016, 0.000028, 0.000190,-0.477008,-0.067856, 0.030074,1,-0.001321, 0.003254, 0.018715,1, 0.000796,-0.010867,-0.995703,-0.001321, 0.003254, 0.018715, 0.124769, 0.255012,-0.115703,-0.000000, 0.000000,-0.000000,1,0
1777416076497360108,915657000000,   915.662, 0.000010,-0.000113,-0.009955,-0.000013, 0.000020, 0.000182,-0.477876,-0.070802, 0.029791,1,-0.001467, 0.002594, 0.018546,1, 0.000763,-0.011156,-0.995729,-0.001467, 0.002594, 0.018546, 0.124655, 0.254943,-0.115761,-0.000000, 0.000000,-0.000000,1,0
1777416076507444326,915657000000,   915.662, 0.000010,-0.000113,-0.009955,-0.000013, 0.000020, 0.000182,-0.477876,-0.070802, 0.029791,1,-0.001467, 0.002594, 0.018546,1, 0.000763,-0.011156,-0.995729,-0.001467, 0.002594, 0.018546, 0.124655, 0.254943,-0.115761,-0.000000, 0.000000,-0.000000,1,0
1777416076517125312,915677000000,   915.682, 0.000011,-0.000108,-0.009956,-0.000013, 0.000037, 0.000187,-0.476307,-0.069348, 0.029517,1,-0.001375, 0.003105, 0.018667,1, 0.000975,-0.010998,-0.995754,-0.001375, 0.003105, 0.018667, 0.125151, 0.254742,-0.116577,-0.000000, 0.000000,-0.000000,1,0
1777416076527207790,915677000000,   915.682, 0.000011,-0.000108,-0.009956,-0.000013, 0.000037, 0.000187,-0.476307,-0.069348, 0.029517,1,-0.001375, 0.003105, 0.018667,1, 0.000975,-0.010998,-0.995754,-0.001375, 0.003105, 0.018667, 0.125151, 0.254742,-0.116577,-0.000000, 0.000000,-0.000000,1,0
1777416076546903744,915697000000,   915.702, 0.000008,-0.000110,-0.009963,-0.000011, 0.000031, 0.000181,-0.478459,-0.069683, 0.027938,1,-0.001220, 0.003093, 0.018312,1, 0.000817,-0.011027,-0.995912,-0.001220, 0.003093, 0.018312, 0.125429, 0.254325,-0.116697,-0.000000, 0.000000,-0.000000,1,0
1777416076556563381,915717000000,   915.722, 0.000004,-0.000108,-0.009959,-0.000016, 0.000030, 0.000180,-0.480688,-0.068215, 0.030748,1,-0.001404, 0.003209, 0.018238,1, 0.000654,-0.010869,-0.995623,-0.001404, 0.003209, 0.018238, 0.125561, 0.254481,-0.116399,-0.000000, 0.000000,-0.000000,1,0
1777416076566645822,915717000000,   915.722, 0.000004,-0.000108,-0.009959,-0.000016, 0.000030, 0.000180,-0.480688,-0.068215, 0.030748,1,-0.001404, 0.003209, 0.018238,1, 0.000654,-0.010869,-0.995623,-0.001404, 0.003209, 0.018238, 0.125561, 0.254481,-0.116399,-0.000000, 0.000000,-0.000000,1,0
1777416076576319716,915737000000,   915.742, 0.000007,-0.000109,-0.009960,-0.000002, 0.000028, 0.000178,-0.481482,-0.068401, 0.028325,1,-0.000787, 0.003045, 0.018252,1, 0.000636,-0.010884,-0.995867,-0.000787, 0.003045, 0.018252, 0.125631, 0.254112,-0.116278,-0.000000, 0.000000,-0.000000,1,0
1777416076586402268,915737000000,   915.742, 0.000007,-0.000109,-0.009960,-0.000002, 0.000028, 0.000178,-0.481482,-0.068401, 0.028325,1,-0.000787, 0.003045, 0.018252,1, 0.000636,-0.010884,-0.995867,-0.000787, 0.003045, 0.018252, 0.125631, 0.254112,-0.116278,-0.000000, 0.000000,-0.000000,1,0
1777416076596062887,915757000000,   915.762, 0.000008,-0.000109,-0.009964,-0.000008, 0.000032, 0.000188,-0.480576,-0.067043, 0.025804,1,-0.000972, 0.003036, 0.018581,1, 0.000787,-0.010745,-0.996121,-0.000972, 0.003036, 0.018581, 0.125634, 0.254308,-0.116370,-0.000000, 0.000000,-0.000000,1,0
1777416076606146383,915757000000,   915.762, 0.000008,-0.000109,-0.009964,-0.000008, 0.000032, 0.000188,-0.480576,-0.067043, 0.025804,1,-0.000972, 0.003036, 0.018581,1, 0.000787,-0.010745,-0.996121,-0.000972, 0.003036, 0.018581, 0.125634, 0.254308,-0.116370,-0.000000, 0.000000,-0.000000,1,0
1777416076625411941,915777000000,   915.782, 0.000012,-0.000109,-0.009950,-0.000012, 0.000036, 0.000187,-0.478996,-0.068654, 0.030806,1,-0.001204, 0.003390, 0.018702,1, 0.000988,-0.010915,-0.995609,-0.001204, 0.003390, 0.018702, 0.125747, 0.253942,-0.116407,-0.000000, 0.000000,-0.000000,1,0
1777416076640989180,915797000000,   915.802, 0.000008,-0.000110,-0.009955,-0.000009, 0.000031, 0.000189,-0.481203,-0.068110, 0.029606,1,-0.001110, 0.002961, 0.018639,1, 0.000765,-0.010880,-0.995731,-0.001110, 0.002961, 0.018639, 0.125690, 0.254203,-0.117329,-0.000000, 0.000000,-0.000000,1,0
1777416076650657909,915817000000,   915.822, 0.000010,-0.000105,-0.009954,-0.000019, 0.000032, 0.000186,-0.481244,-0.066882, 0.030133,1,-0.001601, 0.003149, 0.018649,1, 0.000802,-0.010752,-0.995675,-0.001601, 0.003149, 0.018649, 0.126000, 0.254688,-0.117017,-0.000000, 0.000000,-0.000000,1,0
1777416076660757181,915817000000,   915.822, 0.000010,-0.000105,-0.009954,-0.000019, 0.000032, 0.000186,-0.481244,-0.066882, 0.030133,1,-0.001601, 0.003149, 0.018649,1, 0.000802,-0.010752,-0.995675,-0.001601, 0.003149, 0.018649, 0.126000, 0.254688,-0.117017,-0.000000, 0.000000,-0.000000,1,0
1777416076670414930,915837000000,   915.837, 0.000061,-0.000118,-0.010093,-0.000013,-0.000001, 0.000181,-0.476444,-0.059758, 0.004608,1,-0.000947, 0.000453, 0.018621,1, 0.001338,-0.010013,-0.998276,-0.000947, 0.000453, 0.018621, 0.126019, 0.254792,-0.117090,-0.000000, 0.000000,-0.000000,1,0
1777416076680498444,915837000000,   915.837, 0.000061,-0.000118,-0.010093,-0.000013,-0.000001, 0.000181,-0.476444,-0.059758, 0.004608,1,-0.000947, 0.000453, 0.018621,1, 0.001338,-0.010013,-0.998276,-0.000947, 0.000453, 0.018621, 0.126019, 0.254792,-0.117090,-0.000000, 0.000000,-0.000000,1,0
1777416076699877267,915857000000,   915.857, 0.000068,-0.000153,-0.010145, 0.000014, 0.000087, 0.000187,-0.461266,-0.070392, 0.033249,1,-0.001154, 0.007654, 0.018367,1, 0.004000,-0.012531,-1.001448, 0.000704, 0.007674, 0.018524, 0.126088, 0.254221,-0.116937,-0.000000, 0.000000,-0.000000,1,0
1777416076709569438,915877000000,   915.877,-0.000060, 0.000145,-0.010293, 0.000055, 0.000005, 0.000203,-0.418343,-0.012016, 0.193516,1, 0.000619, 0.005753, 0.017799,1, 0.002013, 0.004249,-1.002496, 0.003412, 0.003669, 0.018969, 0.125643, 0.254588,-0.116246,-0.000000, 0.000000,-0.000000,1,0
1777416076719652860,915877000000,   915.877,-0.000060, 0.000145,-0.010293, 0.000055, 0.000005, 0.000203,-0.418343,-0.012016, 0.193516,1, 0.000619, 0.005753, 0.017799,1, 0.002013, 0.004249,-1.002496, 0.003412, 0.003669, 0.018969, 0.125643, 0.254588,-0.116246,-0.000000, 0.000000,-0.000000,1,0
1777416076729289074,915897000000,   915.897,-0.000011, 0.000179,-0.009910, 0.000004, 0.000161, 0.000273,-0.543873, 0.097421, 0.024493,1, 0.002725, 0.002135, 0.021086,1,-0.003224, 0.010189,-0.993554, 0.001963, 0.009454, 0.024239, 0.125253, 0.254422,-0.115608,-0.000000, 0.000000,-0.000000,1,0
1777416076739372459,915897000000,   915.897,-0.000011, 0.000179,-0.009910, 0.000004, 0.000161, 0.000273,-0.543873, 0.097421, 0.024493,1, 0.002725, 0.002135, 0.021086,1,-0.003224, 0.010189,-0.993554, 0.001963, 0.009454, 0.024239, 0.125253, 0.254422,-0.115608,-0.000000, 0.000000,-0.000000,1,0
1777416076749028245,915917000000,   915.917,-0.000045,-0.000162,-0.010096, 0.000065, 0.000005, 0.000262,-0.512621, 0.013879, 0.102795,1, 0.000802,-0.000145, 0.026206,1,-0.003259,-0.008607,-1.000199, 0.003485, 0.000324, 0.026201, 0.125830, 0.254657,-0.116162,-0.000000, 0.000000,-0.000000,1,0
1777416076759110815,915917000000,   915.917,-0.000045,-0.000162,-0.010096, 0.000065, 0.000005, 0.000262,-0.512621, 0.013879, 0.102795,1, 0.000802,-0.000145, 0.026206,1,-0.003259,-0.008607,-1.000199, 0.003485, 0.000324, 0.026201, 0.125830, 0.254657,-0.116162,-0.000000, 0.000000,-0.000000,1,0
1777416076778820304,915937000000,   915.937,-0.000195,-0.000337,-0.009864,-0.000026,-0.000019, 0.000288,-0.500659,-0.091832,-0.026597,1, 0.000327,-0.002083, 0.027092,1,-0.008987,-0.023915,-0.995252,-0.000869,-0.001218, 0.027726, 0.125915, 0.254072,-0.117170,-0.000000, 0.000000,-0.000000,1,0
1777416076788568468,915957000000,   915.957, 0.000093,-0.000748,-0.010266,-0.000049, 0.000089, 0.000104,-0.530674,-0.413487, 0.048869,1, 0.001682, 0.002926, 0.024128,1, 0.002831,-0.059543,-1.010934,-0.001251, 0.005377, 0.017668, 0.125474, 0.254344,-0.116924,-0.000000, 0.000000,-0.000000,1,0
1777416076798651501,915957000000,   915.957, 0.000093,-0.000748,-0.010266,-0.000049, 0.000089, 0.000104,-0.530674,-0.413487, 0.048869,1, 0.001682, 0.002926, 0.024128,1, 0.002831,-0.059543,-1.010934,-0.001251, 0.005377, 0.017668, 0.125474, 0.254344,-0.116924,-0.000000, 0.000000,-0.000000,1,0
1777416076808230055,915977000000,   915.977, 0.000077,-0.000223,-0.010085,-0.000042, 0.000237,-0.000003,-0.448136,-0.506998, 0.072177,1,-0.002410, 0.009270, 0.010854,1, 0.006507,-0.039853,-0.999341,-0.003186, 0.015973, 0.005811, 0.125796, 0.254220,-0.116853,-0.000000, 0.000000,-0.000000,1,0
1777416076818331327,915977000000,   915.977, 0.000077,-0.000223,-0.010085,-0.000042, 0.000237,-0.000003,-0.448136,-0.506998, 0.072177,1,-0.002410, 0.009270, 0.010854,1, 0.006507,-0.039853,-0.999341,-0.003186, 0.015973, 0.005811, 0.125796, 0.254220,-0.116853,-0.000000, 0.000000,-0.000000,1,0
1777416076838028262,915997000000,   915.997, 0.000074,-0.000006,-0.009977,-0.000058, 0.000162, 0.000011,-0.385519,-0.223073, 0.040612,1,-0.003077, 0.019112, 0.003918,1, 0.009938,-0.014385,-0.995774,-0.004191, 0.018301, 0.002551, 0.125434, 0.254339,-0.116231,-0.000000, 0.000000,-0.000000,1,0
1777416076857970799,916007000000,   916.012, 0.000204, 0.000221,-0.009959,-0.000065, 0.000114, 0.000040,-0.358757, 0.069608, 0.034857,1,-0.005326, 0.014557, 0.003336,1, 0.014372, 0.003076,-0.995138,-0.005326, 0.014558, 0.003336, 0.125301, 0.253965,-0.115724,-0.000000, 0.000000,-0.000000,1,0
1777416076867460733,916027000000,   916.032, 0.000066, 0.000433,-0.009960,-0.000001, 0.000101, 0.000156,-0.407076, 0.349644, 0.048171,1,-0.002639, 0.010971, 0.010836,1, 0.009669, 0.031708,-0.993770,-0.002639, 0.010971, 0.010836, 0.125077, 0.254409,-0.116272,-0.000000, 0.000000,-0.000000,1,0
1777416076877544081,916027000000,   916.032, 0.000066, 0.000433,-0.009960,-0.000001, 0.000101, 0.000156,-0.407076, 0.349644, 0.048171,1,-0.002639, 0.010971, 0.010836,1, 0.009669, 0.031708,-0.993770,-0.002639, 0.010971, 0.010836, 0.125077, 0.254409,-0.116272,-0.000000, 0.000000,-0.000000,1,0
1777416076887188442,916047000000,   916.052,-0.000045, 0.000216,-0.009849, 0.000033, 0.000086, 0.000267,-0.493453, 0.309277, 0.085054,1, 0.001247, 0.009324, 0.021510,1, 0.001061, 0.027582,-0.989998, 0.001247, 0.009324, 0.021510, 0.125325, 0.254467,-0.116806,-0.000000, 0.000000,-0.000000,1,0
1777416076897272346,916047000000,   916.052,-0.000045, 0.000216,-0.009849, 0.000033, 0.000086, 0.000267,-0.493453, 0.309277, 0.085054,1, 0.001247, 0.009324, 0.021510,1, 0.001061, 0.027582,-0.989998, 0.001247, 0.009324, 0.021510, 0.125325, 0.254467,-0.116806,-0.000000, 0.000000,-0.000000,1,0
1777416076917014127,916067000000,   916.072,-0.000277,-0.000070,-0.009860, 0.000055, 0.000123, 0.000289,-0.669329, 0.094120, 0.077134,1, 0.004260, 0.010870, 0.026914,1,-0.016694, 0.005561,-0.990796, 0.004260, 0.010870, 0.026914, 0.125391, 0.254493,-0.116300,-0.000000, 0.000000,-0.000000,1,0
1777416076936734226,916087000000,   916.092,-0.000260,-0.000544,-0.009875, 0.000034, 0.000094, 0.000253,-0.665123,-0.297927,-0.006456,1, 0.004427, 0.012370, 0.026066,1,-0.016018,-0.034542,-0.999307, 0.004426, 0.012370, 0.026066, 0.125113, 0.254505,-0.115874,-0.000000, 0.000000,-0.000000,1,0
1777416076946421046,916107000000,   916.112,-0.000008,-0.000419,-0.009941,-0.000040,-0.000110, 0.000126,-0.574620,-0.370390, 0.028177,1, 0.000194,-0.001535, 0.017541,1,-0.006665,-0.042039,-0.995768, 0.000194,-0.001535, 0.017541, 0.125044, 0.254234,-0.115775,-0.000000, 0.000000,-0.000000,1,0
1777416076956506541,916107000000,   916.112,-0.000008,-0.000419,-0.009941,-0.000040,-0.000110, 0.000126,-0.574620,-0.370390, 0.028177,1, 0.000194,-0.001535, 0.017541,1,-0.006665,-0.042039,-0.995768, 0.000194,-0.001535, 0.017541, 0.125044, 0.254234,-0.115775,-0.000000, 0.000000,-0.000000,1,0
1777416076966145644,916127000000,   916.132, 0.000070,-0.000215,-0.009949,-0.000086,-0.000138, 0.000083,-0.503948,-0.248554, 0.056127,1,-0.004361,-0.009367, 0.011847,1, 0.000410,-0.029604,-0.992925,-0.004361,-0.009367, 0.011847, 0.125219, 0.254234,-0.115353,-0.000000, 0.000000,-0.000000,1,0
1777416076976229936,916127000000,   916.132, 0.000070,-0.000215,-0.009949,-0.000086,-0.000138, 0.000083,-0.503948,-0.248554, 0.056127,1,-0.004361,-0.009367, 0.011847,1, 0.000410,-0.029604,-0.992925,-0.004361,-0.009367, 0.011847, 0.125219, 0.254234,-0.115353,-0.000000, 0.000000,-0.000000,1,0
1777416076995951979,916147000000,   916.152, 0.000575,-0.000488,-0.010080,-0.000082,-0.000099, 0.000035,-0.202836,-0.237508,-0.018874,1,-0.005741,-0.007376, 0.006399,1, 0.030982,-0.028396,-1.000580,-0.005741,-0.007376, 0.006399, 0.125232, 0.254235,-0.116084,-0.000000, 0.000000,-0.000000,1,0
1777416077005613339,916167000000,   916.172, 0.001044, 0.000219,-0.009950, 0.000097,-0.000160, 0.000078, 0.247792, 0.099553, 0.063387,1, 0.005364,-0.012089, 0.006635,1, 0.076732, 0.005907,-0.992202, 0.005364,-0.012089, 0.006635, 0.125032, 0.254105,-0.116309,-0.000000, 0.000000,-0.000000,1,0
1777416077015697805,916167000000,   916.172, 0.001044, 0.000219,-0.009950, 0.000097,-0.000160, 0.000078, 0.247792, 0.099553, 0.063387,1, 0.005364,-0.012089, 0.006635,1, 0.076732, 0.005907,-0.992202, 0.005364,-0.012089, 0.006635, 0.125032, 0.254105,-0.116309,-0.000000, 0.000000,-0.000000,1,0
1777416077025358931,916187000000,   916.192, 0.000652, 0.000385,-0.009676,-0.000013,-0.000145, 0.000197, 0.225319, 0.294837, 0.146924,1, 0.002356,-0.011375, 0.014904,1, 0.074163, 0.025690,-0.983697, 0.002356,-0.011375, 0.014904, 0.124994, 0.253753,-0.116411,-0.000000, 0.000000,-0.000000,1,0
1777416077035442341,916187000000,   916.192, 0.000652, 0.000385,-0.009676,-0.000013,-0.000145, 0.000197, 0.225319, 0.294837, 0.146924,1, 0.002356,-0.011375, 0.014904,1, 0.074163, 0.025690,-0.983697, 0.002356,-0.011375, 0.014904, 0.124994, 0.253753,-0.116411,-0.000000, 0.000000,-0.000000,1,0
1777416077050976504,916207000000,   916.212, 0.000030, 0.000007,-0.010514,-0.000040,-0.000168, 0.000196,-0.185903, 0.050752,-0.174847,1,-0.003817,-0.012579, 0.017255,1, 0.031971, 0.000742,-1.016522,-0.003817,-0.012579, 0.017255, 0.124540, 0.254010,-0.115859,-0.000000, 0.000000,-0.000000,1,0
1777416077060676551,916227000000,   916.232, 0.000293,-0.000042,-0.010359, 0.000011, 0.000084, 0.000115,-0.315151, 0.009244,-0.090335,1,-0.000658, 0.000987, 0.014283,1, 0.018715,-0.003507,-1.007908,-0.000658, 0.000987, 0.014283, 0.124872, 0.254328,-0.115862,-0.000000, 0.000000,-0.000000,1,0
1777416077070759258,916227000000,   916.232, 0.000293,-0.000042,-0.010359, 0.000011, 0.000084, 0.000115,-0.315151, 0.009244,-0.090335,1,-0.000658, 0.000987, 0.014283,1, 0.018715,-0.003507,-1.007908,-0.000658, 0.000987, 0.014283, 0.124872, 0.254328,-0.115862,-0.000000, 0.000000,-0.000000,1,0
1777416077080401367,916247000000,   916.247, 0.000583,-0.000181,-0.009961,-0.000026,-0.000110, 0.000146,-0.071944,-0.111667,-0.007533,1,-0.000086,-0.004805, 0.014350,1, 0.043499,-0.015870,-0.999465,-0.000086,-0.004805, 0.014350, 0.124999, 0.254499,-0.115177,-0.000000, 0.000000,-0.000000,1,0
1777416077090482964,916247000000,   916.247, 0.000583,-0.000181,-0.009961,-0.000026,-0.000110, 0.000146,-0.071944,-0.111667,-0.007533,1,-0.000086,-0.004805, 0.014350,1, 0.043499,-0.015870,-0.999465,-0.000086,-0.004805, 0.014350, 0.124999, 0.254499,-0.115177,-0.000000, 0.000000,-0.000000,1,0
1777416077109922498,916267000000,   916.267, 0.000944,-0.000457,-0.009598, 0.000134,-0.000015, 0.000160, 0.069962,-0.102285, 0.101867,1, 0.005354,-0.005856, 0.015431,1, 0.074789,-0.029246,-0.976450, 0.009258,-0.003921, 0.015584, 0.125479, 0.254273,-0.115719,-0.000000, 0.000000,-0.000000,1,0
1777416077119580420,916287000000,   916.287, 0.001222, 0.000146,-0.009788, 0.000089,-0.000028, 0.000136, 0.339894,-0.120462,-0.128065,1, 0.004751,-0.008717, 0.013242,1, 0.101943,-0.001984,-0.994951, 0.006631,-0.005826, 0.013456, 0.124936, 0.254450,-0.115785,-0.000000, 0.000000,-0.000000,1,0
1777416077129663720,916287000000,   916.287, 0.001222, 0.000146,-0.009788, 0.000089,-0.000028, 0.000136, 0.339894,-0.120462,-0.128065,1, 0.004751,-0.008717, 0.013242,1, 0.101943,-0.001984,-0.994951, 0.006631,-0.005826, 0.013456, 0.124936, 0.254450,-0.115785,-0.000000, 0.000000,-0.000000,1,0
1777416077139296330,916307000000,   916.307, 0.001416, 0.000176,-0.010433,-0.000112,-0.000154, 0.000252, 0.661049, 0.161089, 0.117578,1, 0.002549,-0.001515, 0.016692,1, 0.126907, 0.015358,-1.011108,-0.003387,-0.008207, 0.020717, 0.124961, 0.254241,-0.116290,-0.000000, 0.000000,-0.000000,1,0
1777416077149379037,916307000000,   916.307, 0.001416, 0.000176,-0.010433,-0.000112,-0.000154, 0.000252, 0.661049, 0.161089, 0.117578,1, 0.002549,-0.001515, 0.016692,1, 0.126907, 0.015358,-1.011108,-0.003387,-0.008207, 0.020717, 0.124961, 0.254241,-0.116290,-0.000000, 0.000000,-0.000000,1,0
1777416077159037219,916327000000,   916.327, 0.001414,-0.000069,-0.010359,-0.000083,-0.000175, 0.000243, 0.757237,-0.032846, 0.137920,1,-0.002677,-0.007473, 0.022381,1, 0.132772,-0.008130,-1.005667,-0.004155,-0.011590, 0.023321, 0.125311, 0.254444,-0.116467,-0.000000, 0.000000,-0.000000,1,0
1777416077169121741,916327000000,   916.327, 0.001414,-0.000069,-0.010359,-0.000083,-0.000175, 0.000243, 0.757237,-0.032846, 0.137920,1,-0.002677,-0.007473, 0.022381,1, 0.132772,-0.008130,-1.005667,-0.004155,-0.011590, 0.023321, 0.125311, 0.254444,-0.116467,-0.000000, 0.000000,-0.000000,1,0
1777416077188830818,916347000000,   916.347, 0.001493,-0.000450,-0.009776, 0.000013,-0.000024, 0.000185, 0.899970,-0.161350,-0.072136,1,-0.007341,-0.012604, 0.021369,1, 0.146395,-0.035038,-0.995780,-0.004094,-0.007858, 0.019852, 0.125400, 0.254610,-0.116087,-0.000000, 0.000000,-0.000000,1,0
1777416077198583526,916367000000,   916.367, 0.001932,-0.000466,-0.009910,-0.000108,-0.000201, 0.000068, 1.075988,-0.241686, 0.061304,1, 0.001810,-0.009158, 0.016991,1, 0.174806,-0.037928,-0.996482,-0.005008,-0.015289, 0.012355, 0.126013, 0.254344,-0.115836,-0.000000, 0.000000,-0.000000,1,0
1777416077208665622,916367000000,   916.367, 0.001932,-0.000466,-0.009910,-0.000108,-0.000201, 0.000068, 1.075988,-0.241686, 0.061304,1, 0.001810,-0.009158, 0.016991,1, 0.174806,-0.037928,-0.996482,-0.005008,-0.015289, 0.012355, 0.126013, 0.254344,-0.115836,-0.000000, 0.000000,-0.000000,1,0
1777416077218243775,916387000000,   916.387, 0.001946,-0.000062,-0.009105, 0.000174,-0.000015, 0.000063, 1.228239,-0.132121,-0.037133,1,-0.004832,-0.018598, 0.007506,1, 0.186196,-0.017011,-0.963804, 0.005910,-0.010070, 0.007184, 0.126269, 0.253956,-0.115827,-0.000000, 0.000000,-0.000000,1,0
1777416077228328205,916387000000,   916.387, 0.001946,-0.000062,-0.009105, 0.000174,-0.000015, 0.000063, 1.228239,-0.132121,-0.037133,1,-0.004832,-0.018598, 0.007506,1, 0.186196,-0.017011,-0.963804, 0.005910,-0.010070, 0.007184, 0.126269, 0.253956,-0.115827,-0.000000, 0.000000,-0.000000,1,0
1777416077248049485,916407000000,   916.407, 0.001659,-0.000008,-0.010094,-0.000171,-0.000141, 0.000046, 1.302640,-0.089643,-0.053678,1,-0.002417,-0.015733, 0.005917,1, 0.174489,-0.009725,-1.007353,-0.010316,-0.015683, 0.005461, 0.126297, 0.254248,-0.115674,-0.000000, 0.000000,-0.000000,1,0
1777416077267769283,916417000000,   916.422, 0.001505, 0.000640,-0.010018,-0.000236,-0.000030, 0.000076, 1.122358, 0.287284,-0.041538,1,-0.016182,-0.009363, 0.006756,1, 0.163763, 0.025009,-1.003010,-0.016182,-0.009363, 0.006756, 0.126332, 0.254499,-0.116163,-0.000000, 0.000000,-0.000000,1,0
1777416077277465756,916437000000,   916.442, 0.001735,-0.000078,-0.010337,-0.000348, 0.000087, 0.000211, 1.196814, 0.116495,-0.114083,1,-0.027386, 0.005699, 0.017203,1, 0.171382, 0.008058,-1.010408,-0.027386, 0.005699, 0.017203, 0.125815, 0.254537,-0.115784,-0.000000, 0.000000,-0.000000,1,0
1777416077287549408,916437000000,   916.442, 0.001735,-0.000078,-0.010337,-0.000348, 0.000087, 0.000211, 1.196814, 0.116495,-0.114083,1,-0.027386, 0.005699, 0.017203,1, 0.171382, 0.008058,-1.010408,-0.027386, 0.005699, 0.017203, 0.125815, 0.254537,-0.115784,-0.000000, 0.000000,-0.000000,1,0
1777416077297188388,916457000000,   916.462, 0.001691,-0.000225,-0.011061,-0.000349,-0.000022, 0.000149, 1.176199,-0.094621,-0.283185,1,-0.031093, 0.005234, 0.016935,1, 0.169469,-0.012865,-1.027644,-0.031093, 0.005234, 0.016935, 0.126132, 0.254546,-0.114406,-0.000000, 0.000000,-0.000000,1,0
1777416077307271891,916457000000,   916.462, 0.001691,-0.000225,-0.011061,-0.000349,-0.000022, 0.000149, 1.176199,-0.094621,-0.283185,1,-0.031093, 0.005234, 0.016935,1, 0.169469,-0.012865,-1.027644,-0.031093, 0.005234, 0.016935, 0.126132, 0.254546,-0.114406,-0.000000, 0.000000,-0.000000,1,0
1777416077326988894,916477000000,   916.482, 0.001402, 0.000292,-0.010394,-0.000546, 0.000181, 0.000262, 1.014799, 0.140495,-0.163607,1,-0.043774, 0.011594, 0.020601,1, 0.153148, 0.011846,-1.015446,-0.043774, 0.011595, 0.020601, 0.126797, 0.254436,-0.114131,-0.000000, 0.000000,-0.000000,1,0
1777416077336674813,916497000000,   916.502, 0.001452,-0.000704,-0.009385, 0.000054, 0.000205, 0.000176, 0.864307,-0.456418, 0.297954,1,-0.009439, 0.019509, 0.022532,1, 0.138156,-0.048466,-0.968363,-0.009439, 0.019509, 0.022532, 0.126706, 0.254188,-0.113635,-0.000000, 0.000000,-0.000000,1,0
1777416077346758372,916497000000,   916.502, 0.001452,-0.000704,-0.009385, 0.000054, 0.000205, 0.000176, 0.864307,-0.456418, 0.297954,1,-0.009439, 0.019509, 0.022532,1, 0.138156,-0.048466,-0.968363,-0.009439, 0.019509, 0.022532, 0.126706, 0.254188,-0.113635,-0.000000, 0.000000,-0.000000,1,0
1777416077356409943,916517000000,   916.522, 0.001429, 0.000689,-0.010867,-0.000354,-0.000069, 0.000278, 0.984080, 0.298958,-0.431726,1,-0.034583,-0.001822, 0.020931,1, 0.150450, 0.029166,-1.042767,-0.034583,-0.001821, 0.020931, 0.127139, 0.253977,-0.113418,-0.000000, 0.000000,-0.000000,1,0
1777416077366492502,916517000000,   916.522, 0.001429, 0.000689,-0.010867,-0.000354,-0.000069, 0.000278, 0.984080, 0.298958,-0.431726,1,-0.034583,-0.001822, 0.020931,1, 0.150450, 0.029166,-1.042767,-0.034583,-0.001821, 0.020931, 0.127139, 0.253977,-0.113418,-0.000000, 0.000000,-0.000000,1,0
1777416077376156868,916537000000,   916.542, 0.002208,-0.000653,-0.010498,-0.000401, 0.000216, 0.000376, 1.265542,-0.214518, 0.028063,1,-0.030125, 0.018879, 0.034065,1, 0.179448,-0.022539,-0.995867,-0.030125, 0.018879, 0.034065, 0.127671, 0.253755,-0.113042,-0.000000, 0.000000,-0.000000,1,0
1777416077386239224,916537000000,   916.542, 0.002208,-0.000653,-0.010498,-0.000401, 0.000216, 0.000376, 1.265542,-0.214518, 0.028063,1,-0.030125, 0.018879, 0.034065,1, 0.179448,-0.022539,-0.995867,-0.030125, 0.018879, 0.034065, 0.127671, 0.253755,-0.113042,-0.000000, 0.000000,-0.000000,1,0
1777416077405940783,916557000000,   916.562, 0.001660,-0.000717,-0.009005,-0.000129, 0.000089, 0.000082, 1.180190,-0.375713, 0.408331,1,-0.031676, 0.012640, 0.018284,1, 0.171051,-0.038320,-0.957075,-0.031676, 0.012640, 0.018284, 0.127813, 0.253976,-0.112974,-0.000000, 0.000000,-0.000000,1,0
1777416077415626943,916577000000,   916.582, 0.001946,-0.000975,-0.008487,-0.000056, 0.000518, 0.000238, 1.336766,-0.236461, 0.589482,1,-0.028011, 0.028830, 0.016534,1, 0.187423,-0.023585,-0.938582,-0.028011, 0.028830, 0.016534, 0.127929, 0.253509,-0.113120,-0.000000, 0.000000,-0.000000,1,0
1777416077425709669,916577000000,   916.582, 0.001946,-0.000975,-0.008487,-0.000056, 0.000518, 0.000238, 1.336766,-0.236461, 0.589482,1,-0.028011, 0.028830, 0.016534,1, 0.187423,-0.023585,-0.938582,-0.028011, 0.028830, 0.016534, 0.127929, 0.253509,-0.113120,-0.000000, 0.000000,-0.000000,1,0
1777416077435345001,916597000000,   916.602, 0.002018,-0.000194,-0.008908,-0.000329, 0.000482, 0.000193, 1.408696, 0.009491, 0.071604,1,-0.031163, 0.021173, 0.019145,1, 0.195022, 0.002149,-0.991377,-0.031163, 0.021173, 0.019145, 0.128368, 0.253578,-0.111705,-0.000000, 0.000000,-0.000000,1,0
1777416077445427301,916597000000,   916.602, 0.002018,-0.000194,-0.008908,-0.000329, 0.000482, 0.000193, 1.408696, 0.009491, 0.071604,1,-0.031163, 0.021173, 0.019145,1, 0.195022, 0.002149,-0.991377,-0.031163, 0.021173, 0.019145, 0.128368, 0.253578,-0.111705,-0.000000, 0.000000,-0.000000,1,0
1777416077460989220,916617000000,   916.622, 0.001236,-0.000800,-0.009437,-0.000323, 0.000065, 0.000059, 1.010404,-0.431621, 0.175724,1,-0.049494, 0.006635, 0.004268,1, 0.154649,-0.042373,-0.980747,-0.049494, 0.006635, 0.004268, 0.128956, 0.253997,-0.110724,-0.000000, 0.000000,-0.000000,1,0
1777416077470664825,916637000000,   916.642, 0.001372, 0.001098,-0.011258,-0.000900, 0.000271,-0.000056, 0.923769, 0.355090,-0.811960,1,-0.071954, 0.016931,-0.002765,1, 0.146076, 0.038374,-1.081448,-0.071954, 0.016931,-0.002765, 0.129418, 0.254238,-0.110563,-0.000000, 0.000000,-0.000000,1,0
1777416077480765030,916637000000,   916.642, 0.001372, 0.001098,-0.011258,-0.000900, 0.000271,-0.000056, 0.923769, 0.355090,-0.811960,1,-0.071954, 0.016931,-0.002765,1, 0.146076, 0.038374,-1.081448,-0.071954, 0.016931,-0.002765, 0.129418, 0.254238,-0.110563,-0.000000, 0.000000,-0.000000,1,0
1777416077490415990,916657000000,   916.657, 0.001576,-0.000722,-0.010582,-0.000710, 0.000027, 0.000032, 0.772953,-0.290363, 0.007055,1,-0.052812, 0.015960, 0.009209,1, 0.131358,-0.026626,-0.997895,-0.052812, 0.015960, 0.009209, 0.129581, 0.253847,-0.110613,-0.000000, 0.000000,-0.000000,1,0
1777416077500498568,916657000000,   916.657, 0.001576,-0.000722,-0.010582,-0.000710, 0.000027, 0.000032, 0.772953,-0.290363, 0.007055,1,-0.052812, 0.015960, 0.009209,1, 0.131358,-0.026626,-0.997895,-0.052812, 0.015960, 0.009209, 0.129581, 0.253847,-0.110613,-0.000000, 0.000000,-0.000000,1,0
1777416077510132159,916677000000,   916.677, 0.000529,-0.000327,-0.011980,-0.000146,-0.000460,-0.000686, 0.306135,-0.575599,-0.735196,1,-0.020125,-0.021490,-0.036998,1, 0.083822,-0.055385,-1.073579,-0.020125,-0.021490,-0.036998, 0.129873, 0.253277,-0.110038,-0.000000, 0.000000,-0.000000,1,0
1777416077520229606,916677000000,   916.677, 0.000529,-0.000327,-0.011980,-0.000146,-0.000460,-0.000686, 0.306135,-0.575599,-0.735196,1,-0.020125,-0.021490,-0.036998,1, 0.083822,-0.055385,-1.073579,-0.020125,-0.021490,-0.036998, 0.129873, 0.253277,-0.110038,-0.000000, 0.000000,-0.000000,1,0
1777416077539660326,916697000000,   916.697, 0.001453, 0.000452,-0.008353, 0.000164, 0.000724,-0.000508, 0.170845,-0.020576, 0.202867,1, 0.028064, 0.002217,-0.044001,1, 0.105107, 0.036785,-0.918380, 0.013176, 0.028392,-0.049363, 0.130488, 0.253173,-0.109973,-0.000000, 0.000000,-0.000000,1,0
1777416077549309064,916717000000,   916.717, 0.000001, 0.000631,-0.012776,-0.000050,-0.000928,-0.000467, 0.969006,-0.355020, 0.389306,1, 0.006478,-0.015295,-0.031741,1, 0.081040, 0.012369,-1.098862,-0.002954,-0.046897,-0.039210, 0.130032, 0.252771,-0.109396,-0.000000, 0.000000,-0.000000,1,0
1777416077559391642,916717000000,   916.717, 0.000001, 0.000631,-0.012776,-0.000050,-0.000928,-0.000467, 0.969006,-0.355020, 0.389306,1, 0.006478,-0.015295,-0.031741,1, 0.081040, 0.012369,-1.098862,-0.002954,-0.046897,-0.039210, 0.130032, 0.252771,-0.109396,-0.000000, 0.000000,-0.000000,1,0
1777416077569033547,916737000000,   916.737, 0.001526,-0.001217,-0.012210,-0.000456,-0.000831,-0.000550, 0.578547,-0.626746, 1.032784,1, 0.028821, 0.022368,-0.048464,1, 0.120234,-0.095884,-1.054138,-0.018070,-0.030111,-0.051796, 0.130733, 0.252170,-0.109501,-0.000000, 0.000000,-0.000000,1,0
1777416077579116254,916737000000,   916.737, 0.001526,-0.001217,-0.012210,-0.000456,-0.000831,-0.000550, 0.578547,-0.626746, 1.032784,1, 0.028821, 0.022368,-0.048464,1, 0.120234,-0.095884,-1.054138,-0.018070,-0.030111,-0.051796, 0.130733, 0.252170,-0.109501,-0.000000, 0.000000,-0.000000,1,0
1777416077598848607,916757000000,   916.757, 0.001172,-0.000703,-0.006989, 0.000551, 0.002224, 0.000011, 0.277309, 0.997387,-0.536551,1,-0.016122,-0.023184,-0.040527,1, 0.104966, 0.000936,-0.926188, 0.013293, 0.084274,-0.019369, 0.131159, 0.251808,-0.109631,-0.000000, 0.000000,-0.000000,1,0
1777416077608500993,916777000000,   916.777,-0.000066,-0.002172,-0.016420,-0.000874,-0.000689,-0.001150, 0.854720,-1.148403, 1.422100,1, 0.032564, 0.004930,-0.029007,1, 0.084010,-0.114028,-1.306294,-0.034997,-0.034702,-0.074236, 0.131028, 0.251651,-0.110650,-0.000000, 0.000000,-0.000000,1,0
1777416077618583034,916777000000,   916.777,-0.000066,-0.002172,-0.016420,-0.000874,-0.000689,-0.001150, 0.854720,-1.148403, 1.422100,1, 0.032564, 0.004930,-0.029007,1, 0.084010,-0.114028,-1.306294,-0.034997,-0.034702,-0.074236, 0.131028, 0.251651,-0.110650,-0.000000, 0.000000,-0.000000,1,0
1777416077637870511,916797000000,   916.797, 0.001590, 0.003636,-0.018252,-0.001683,-0.000570,-0.000670,-0.718358,-0.820012, 2.704899,1, 0.079999, 0.005339,-0.063224,1, 0.052487, 0.146901,-1.202197,-0.017845,-0.032281,-0.062944, 0.131784, 0.251014,-0.108910,-0.000000, 0.000000, 0.000001,1,0
1777416077647601499,916807000000,   916.812, 0.000319,-0.002277,-0.003351, 0.001686, 0.001883,-0.000321, 0.015844,-0.230488, 1.394977,1, 0.044142, 0.071448,-0.050528,1, 0.054363,-0.022292,-0.856358, 0.044141, 0.071448,-0.050527, 0.131775, 0.251097,-0.108414,-0.000000, 0.000000, 0.000001,1,0
1777416077657699464,916807000000,   916.812, 0.000319,-0.002277,-0.003351, 0.001686, 0.001883,-0.000321, 0.015844,-0.230488, 1.394977,1, 0.044142, 0.071448,-0.050528,1, 0.054363,-0.022292,-0.856358, 0.044141, 0.071448,-0.050527, 0.131775, 0.251097,-0.108414,-0.000000, 0.000000, 0.000001,1,0
1777416077667289079,916827000000,   916.832, 0.000475,-0.000561,-0.007512, 0.000909, 0.000828,-0.000420, 0.230483,-1.446613, 0.812559,1, 0.053929, 0.008812,-0.042897,1, 0.076180,-0.146924,-0.915753, 0.053929, 0.008812,-0.042897, 0.131793, 0.250773,-0.108305,-0.000000, 0.000000, 0.000001,1,0
1777416077677371490,916827000000,   916.832, 0.000475,-0.000561,-0.007512, 0.000909, 0.000828,-0.000420, 0.230483,-1.446613, 0.812559,1, 0.053929, 0.008812,-0.042897,1, 0.076180,-0.146924,-0.915753, 0.053929, 0.008812,-0.042897, 0.131793, 0.250773,-0.108305,-0.000000, 0.000000, 0.000001,1,0
1777416077687011136,916847000000,   916.852,-0.000106,-0.000585,-0.003046, 0.001173, 0.002625,-0.000395,-0.311105, 0.113320, 1.207343,1, 0.043284, 0.081400,-0.049226,1, 0.020689, 0.011802,-0.875510, 0.043283, 0.081400,-0.049225, 0.132689, 0.250522,-0.107248,-0.000000, 0.000000, 0.000001,1,0
1777416077697094010,916847000000,   916.852,-0.000106,-0.000585,-0.003046, 0.001173, 0.002625,-0.000395,-0.311105, 0.113320, 1.207343,1, 0.043284, 0.081400,-0.049226,1, 0.020689, 0.011802,-0.875510, 0.043283, 0.081400,-0.049225, 0.132689, 0.250522,-0.107248,-0.000000, 0.000000, 0.000001,1,0
1777416077716826159,916867000000,   916.872, 0.000813,-0.000152,-0.012333,-0.001293,-0.000094,-0.000594,-0.005343,-0.055293,-1.142701,1,-0.006345,-0.003338,-0.047364,1, 0.052568,-0.006234,-1.115111,-0.006345,-0.003338,-0.047363, 0.132310, 0.250213,-0.107360,-0.000000, 0.000000, 0.000001,1,0
1777416077726490118,916887000000,   916.892, 0.000610,-0.001018,-0.008956, 0.001298, 0.000750,-0.000527,-0.434623,-0.727918, 0.769836,1, 0.054639, 0.010337,-0.048300,1, 0.008252,-0.075463,-0.920114, 0.054639, 0.010337,-0.048299, 0.133056, 0.249788,-0.107675,-0.000000, 0.000000, 0.000001,1,0
1777416077736573399,916887000000,   916.892, 0.000610,-0.001018,-0.008956, 0.001298, 0.000750,-0.000527,-0.434623,-0.727918, 0.769836,1, 0.054639, 0.010337,-0.048300,1, 0.008252,-0.075463,-0.920114, 0.054639, 0.010337,-0.048299, 0.133056, 0.249788,-0.107675,-0.000000, 0.000000, 0.000001,1,0
1777416077746239376,916907000000,   916.912,-0.000659, 0.000580,-0.005962, 0.000884, 0.001219, 0.000275,-0.749747, 0.227234, 1.002530,1, 0.005693, 0.031101,-0.025603,1,-0.024174, 0.021640,-0.896401, 0.005693, 0.031101,-0.025603, 0.132854, 0.249285,-0.108046,-0.000000, 0.000000, 0.000001,1,0
1777416077756322342,916907000000,   916.912,-0.000659, 0.000580,-0.005962, 0.000884, 0.001219, 0.000275,-0.749747, 0.227234, 1.002530,1, 0.005693, 0.031101,-0.025603,1,-0.024174, 0.021640,-0.896401, 0.005693, 0.031101,-0.025603, 0.132854, 0.249285,-0.108046,-0.000000, 0.000000, 0.000001,1,0
1777416077776028772,916927000000,   916.932, 0.000291,-0.000935,-0.010830,-0.000918,-0.000414, 0.000028,-0.333654,-0.242146,-0.266762,1,-0.034089,-0.018846,-0.002533,1, 0.018504,-0.025806,-1.025821,-0.034090,-0.018846,-0.002532, 0.133200, 0.248887,-0.107758,-0.000000, 0.000000, 0.000001,1,0
1777416077795769475,916947000000,   916.952, 0.001210, 0.000246,-0.010104,-0.000482, 0.000209,-0.000265, 0.028845,-0.031496, 0.475515,1,-0.029070, 0.007893,-0.015287,1, 0.055407,-0.003587,-0.950133,-0.029070, 0.007893,-0.015286, 0.133676, 0.248001,-0.106382,-0.000000, 0.000000, 0.000001,1,0
1777416077805452858,916967000000,   916.972,-0.000695, 0.000827,-0.002471, 0.000792, 0.001627, 0.000135,-0.608666, 0.362408, 2.565840,1, 0.006051, 0.071757, 0.001042,1,-0.009410, 0.037213,-0.736969, 0.006051, 0.071757, 0.001043, 0.134138, 0.247670,-0.105907,-0.000000, 0.000000, 0.000001,1,0
1777416077815537768,916967000000,   916.972,-0.000695, 0.000827,-0.002471, 0.000792, 0.001627, 0.000135,-0.608666, 0.362408, 2.565840,1, 0.006051, 0.071757, 0.001042,1,-0.009410, 0.037213,-0.736969, 0.006051, 0.071757, 0.001043, 0.134138, 0.247670,-0.105907,-0.000000, 0.000000, 0.000001,1,0
1777416077825178007,916987000000,   916.992,-0.001138,-0.000731,-0.007031,-0.000007, 0.000599, 0.000281,-0.580601, 0.106839, 0.241271,1,-0.036002, 0.010113, 0.016417,1,-0.006838, 0.011913,-0.974024,-0.036003, 0.010114, 0.016418, 0.134000, 0.247803,-0.105636,-0.000000, 0.000000, 0.000001,1,0
1777416077835270862,916987000000,   916.992,-0.001138,-0.000731,-0.007031,-0.000007, 0.000599, 0.000281,-0.580601, 0.106839, 0.241271,1,-0.036002, 0.010113, 0.016417,1,-0.006838, 0.011913,-0.974024,-0.036003, 0.010114, 0.016418, 0.134000, 0.247803,-0.105636,-0.000000, 0.000000, 0.000001,1,0
1777416077850863592,917007000000,   917.012, 0.001071, 0.001009,-0.009738,-0.000759, 0.000147, 0.000201,-0.073401, 0.590864,-0.150938,1,-0.048594, 0.001183, 0.019054,1, 0.044956, 0.061825,-1.014014,-0.048595, 0.001184, 0.019056, 0.134473, 0.247973,-0.105369,-0.000000, 0.000000, 0.000001,1,0
1777416077860516440,917027000000,   917.027, 0.000567, 0.000137,-0.010467,-0.000377, 0.000442, 0.000298,-0.305174, 0.122051,-0.297598,1,-0.047501, 0.021625, 0.027419,1, 0.021464, 0.014556,-1.028960,-0.047502, 0.021625, 0.027420, 0.134410, 0.247698,-0.105398,-0.000000, 0.000000, 0.000001,1,0
1777416077870601481,917027000000,   917.027, 0.000567, 0.000137,-0.010467,-0.000377, 0.000442, 0.000298,-0.305174, 0.122051,-0.297598,1,-0.047501, 0.021625, 0.027419,1, 0.021464, 0.014556,-1.028960,-0.047502, 0.021625, 0.027420, 0.134410, 0.247698,-0.105398,-0.000000, 0.000000, 0.000001,1,0
1777416077880226499,917047000000,   917.047, 0.000652, 0.000417,-0.009458,-0.000410, 0.000150, 0.000436,-0.260592,-0.031568, 0.386826,1,-0.024519, 0.026796, 0.042555,1, 0.026608,-0.000451,-0.959135,-0.024519, 0.026796, 0.042556, 0.135080, 0.246843,-0.104757,-0.000000, 0.000000, 0.000001,1,0
1777416077890309632,917047000000,   917.047, 0.000652, 0.000417,-0.009458,-0.000410, 0.000150, 0.000436,-0.260592,-0.031568, 0.386826,1,-0.024519, 0.026796, 0.042555,1, 0.026608,-0.000451,-0.959135,-0.024519, 0.026796, 0.042556, 0.135080, 0.246843,-0.104757,-0.000000, 0.000000, 0.000001,1,0
1777416077909713059,917067000000,   917.067, 0.000608, 0.000502,-0.008612,-0.000214, 0.000092, 0.000539,-0.361075,-0.208601, 0.068798,1,-0.050129, 0.013684, 0.045461,1, 0.038600,-0.002059,-0.929288,-0.029007, 0.014642, 0.050973, 0.135575, 0.246557,-0.103087,-0.000000, 0.000000, 0.000001,1,0
1777416077919387757,917087000000,   917.087, 0.001141,-0.001108,-0.010469, 0.000435,-0.000342, 0.000259, 0.152014,-0.519387, 0.518351,1,-0.018953,-0.005350, 0.048684,1, 0.096289,-0.076851,-1.002005, 0.007770,-0.019805, 0.037378, 0.136038, 0.246757,-0.103048,-0.000000, 0.000000, 0.000001,1,0
1777416077929471279,917087000000,   917.087, 0.001141,-0.001108,-0.010469, 0.000435,-0.000342, 0.000259, 0.152014,-0.519387, 0.518351,1,-0.018953,-0.005350, 0.048684,1, 0.096289,-0.076851,-1.002005, 0.007770,-0.019805, 0.037378, 0.136038, 0.246757,-0.103048,-0.000000, 0.000000, 0.000001,1,0
1777416077939118314,917107000000,   917.107, 0.000216, 0.000632,-0.004068, 0.002186, 0.001749, 0.000279, 0.050635, 0.815070,-2.139205,1,-0.046264,-0.073850, 0.029238,1, 0.048405, 0.086404,-0.775774, 0.074997, 0.049678, 0.026151, 0.136364, 0.246348,-0.102245,-0.000000, 0.000000, 0.000001,1,0
1777416077949201354,917107000000,   917.107, 0.000216, 0.000632,-0.004068, 0.002186, 0.001749, 0.000279, 0.050635, 0.815070,-2.139205,1,-0.046264,-0.073850, 0.029238,1, 0.048405, 0.086404,-0.775774, 0.074997, 0.049678, 0.026151, 0.136364, 0.246348,-0.102245,-0.000000, 0.000000, 0.000001,1,0
1777416077968924190,917127000000,   917.127, 0.000342,-0.000472,-0.010453,-0.000140,-0.000981, 0.000214, 0.548978, 0.355458,-0.188236,1, 0.051243, 0.027863, 0.034320,1, 0.077253, 0.018514,-1.071021, 0.012627,-0.028998, 0.027553, 0.136420, 0.245923,-0.102769,-0.000000, 0.000000, 0.000001,1,0
1777416077978611868,917147000000,   917.147,-0.000167, 0.001336,-0.006968, 0.001422, 0.002474, 0.000565,-0.345022, 0.905082,-0.833492,1,-0.057963,-0.066527, 0.021287,1, 0.003031, 0.107534,-0.873376, 0.032442, 0.080915, 0.036647, 0.137290, 0.245612,-0.102710,-0.000000, 0.000000, 0.000001,1,0
1777416077988760067,917147000000,   917.147,-0.000167, 0.001336,-0.006968, 0.001422, 0.002474, 0.000565,-0.345022, 0.905082,-0.833492,1,-0.057963,-0.066527, 0.021287,1, 0.003031, 0.107534,-0.873376, 0.032442, 0.080915, 0.036647, 0.137290, 0.245612,-0.102710,-0.000000, 0.000000, 0.000001,1,0
1777416077998351793,917167000000,   917.167, 0.000466,-0.001567,-0.014566,-0.000095,-0.001471, 0.000217, 0.466450,-0.491769, 1.560702,1, 0.038295, 0.065613, 0.038250,1, 0.064848,-0.095828,-1.152595, 0.016102,-0.028852, 0.030700, 0.137197, 0.245344,-0.102567,-0.000000, 0.000000, 0.000001,1,0
1777416078008434560,917167000000,   917.167, 0.000466,-0.001567,-0.014566,-0.000095,-0.001471, 0.000217, 0.466450,-0.491769, 1.560702,1, 0.038295, 0.065613, 0.038250,1, 0.064848,-0.095828,-1.152595, 0.016102,-0.028852, 0.030700, 0.137197, 0.245344,-0.102567,-0.000000, 0.000000, 0.000001,1,0
1777416078018074546,917187000000,   917.187,-0.000171, 0.001188,-0.011260, 0.000609,-0.000487, 0.000072,-0.234399,-0.516916, 0.166861,1, 0.001566,-0.003242, 0.026681,1,-0.000375, 0.027567,-1.004702, 0.038626,-0.014563, 0.019615, 0.137272, 0.245178,-0.102441,-0.000001, 0.000001, 0.000002,1,0
1777416078028176092,917187000000,   917.187,-0.000171, 0.001188,-0.011260, 0.000609,-0.000487, 0.000072,-0.234399,-0.516916, 0.166861,1, 0.001566,-0.003242, 0.026681,1,-0.000375, 0.027567,-1.004702, 0.038626,-0.014563, 0.019615, 0.137272, 0.245178,-0.102441,-0.000001, 0.000001, 0.000002,1,0
1777416078047885684,917207000000,   917.207, 0.000874, 0.000834,-0.007430, 0.000791,-0.000063, 0.000228, 0.002429,-0.410393,-0.360940,1, 0.044939, 0.069032, 0.014012,1, 0.064321, 0.001568,-0.870088, 0.058826, 0.035821, 0.019116, 0.137472, 0.244427,-0.102681,-0.000001, 0.000001, 0.000002,1,0
1777416078057611698,917217000000,   917.222,-0.000483, 0.000270,-0.016861,-0.000126,-0.001492, 0.000269,-0.515993, 0.202438,-2.645123,1, 0.033700,-0.046318, 0.023274,1, 0.001002, 0.021213,-1.268288, 0.033700,-0.046318, 0.023276, 0.137474, 0.244117,-0.102334,-0.000001, 0.000001, 0.000002,1,0
1777416078067695319,917217000000,   917.222,-0.000483, 0.000270,-0.016861,-0.000126,-0.001492, 0.000269,-0.515993, 0.202438,-2.645123,1, 0.033700,-0.046318, 0.023274,1, 0.001002, 0.021213,-1.268288, 0.033700,-0.046318, 0.023276, 0.137474, 0.244117,-0.102334,-0.000001, 0.000001, 0.000002,1,0
1777416078077288145,917237000000,   917.242, 0.001103,-0.000161,-0.009570, 0.000447, 0.000017,-0.000040,-0.092069,-0.216834, 0.942518,1, 0.054319, 0.025368, 0.006207,1, 0.044411,-0.022459,-0.902441, 0.054318, 0.025368, 0.006209, 0.137922, 0.243579,-0.103279,-0.000001, 0.000001, 0.000002,1,0
1777416078087372118,917237000000,   917.242, 0.001103,-0.000161,-0.009570, 0.000447, 0.000017,-0.000040,-0.092069,-0.216834, 0.942518,1, 0.054319, 0.025368, 0.006207,1, 0.044411,-0.022459,-0.902441, 0.054318, 0.025368, 0.006209, 0.137922, 0.243579,-0.103279,-0.000001, 0.000001, 0.000002,1,0
1777416078097025215,917257000000,   917.262, 0.000187, 0.000657,-0.009635, 0.000164,-0.000099, 0.000319,-0.054867, 0.526425,-0.004544,1, 0.030968,-0.003398, 0.024653,1, 0.048232, 0.052759,-0.999013, 0.030967,-0.003397, 0.024654, 0.138108, 0.243532,-0.102573,-0.000001, 0.000001, 0.000002,1,0
1777416078107108077,917257000000,   917.262, 0.000187, 0.000657,-0.009635, 0.000164,-0.000099, 0.000319,-0.054867, 0.526425,-0.004544,1, 0.030968,-0.003398, 0.024653,1, 0.048232, 0.052759,-0.999013, 0.030967,-0.003397, 0.024654, 0.138108, 0.243532,-0.102573,-0.000001, 0.000001, 0.000002,1,0
1777416078126814095,917277000000,   917.282, 0.000371, 0.000671,-0.009381,-0.000249, 0.000415, 0.000474,-0.104832, 0.419416, 0.128599,1, 0.000160, 0.014553, 0.039779,1, 0.043295, 0.041525,-0.985427, 0.000159, 0.014553, 0.039780, 0.138819, 0.243183,-0.102583,-0.000001, 0.000001, 0.000002,1,0
1777416078136500632,917297000000,   917.302, 0.000548,-0.000840,-0.009445, 0.000135,-0.000055, 0.000618,-0.245949,-0.494433, 0.630214,1,-0.006249, 0.015079, 0.055583,1, 0.029218,-0.051617,-0.934260,-0.006250, 0.015080, 0.055585, 0.139203, 0.242897,-0.102070,-0.000001, 0.000001, 0.000002,1,0
1777416078146596771,917297000000,   917.302, 0.000548,-0.000840,-0.009445, 0.000135,-0.000055, 0.000618,-0.245949,-0.494433, 0.630214,1,-0.006249, 0.015079, 0.055583,1, 0.029218,-0.051617,-0.934260,-0.006250, 0.015080, 0.055585, 0.139203, 0.242897,-0.102070,-0.000001, 0.000001, 0.000002,1,0
1777416078156241146,917317000000,   917.322, 0.000062,-0.001953,-0.012084,-0.000783,-0.000141, 0.000624,-0.274254,-1.036374,-1.405380,1,-0.067049,-0.015325, 0.056496,1, 0.026385,-0.106259,-1.141830,-0.067050,-0.015324, 0.056498, 0.138454, 0.242466,-0.101236,-0.000001, 0.000001, 0.000002,1,0
1777416078166323638,917317000000,   917.322, 0.000062,-0.001953,-0.012084,-0.000783,-0.000141, 0.000624,-0.274254,-1.036374,-1.405380,1,-0.067049,-0.015325, 0.056496,1, 0.026385,-0.106259,-1.141830,-0.067050,-0.015324, 0.056498, 0.138454, 0.242466,-0.101236,-0.000001, 0.000001, 0.000002,1,0
1777416078186031489,917337000000,   917.342, 0.001279,-0.000700,-0.016277,-0.001833, 0.000003, 0.000396,-0.126650,-0.331910,-1.902318,1,-0.093267,-0.001907, 0.047161,1, 0.041471,-0.033427,-1.192502,-0.093268,-0.001907, 0.047163, 0.139064, 0.242179,-0.100843,-0.000001, 0.000001, 0.000002,1,0
1777416078205762671,917357000000,   917.362,-0.000198,-0.000768,-0.008321,-0.000259, 0.000465, 0.000073,-0.756124,-0.793458, 0.882704,1,-0.038741, 0.022820, 0.030810,1,-0.022577,-0.079422,-0.908500,-0.038741, 0.022821, 0.030811, 0.140018, 0.241097,-0.101595,-0.000001, 0.000001, 0.000002,1,0
1777416078215465558,917377000000,   917.382,-0.000673,-0.000727,-0.010523,-0.000629,-0.000005,-0.000175,-0.626289,-0.587106,-0.338892,1,-0.053567, 0.002187,-0.000542,1,-0.009264,-0.057332,-1.033062,-0.053568, 0.002188,-0.000540, 0.140010, 0.240383,-0.101607,-0.000001, 0.000001, 0.000002,1,0
1777416078225548532,917377000000,   917.382,-0.000673,-0.000727,-0.010523,-0.000629,-0.000005,-0.000175,-0.626289,-0.587106,-0.338892,1,-0.053567, 0.002187,-0.000542,1,-0.009264,-0.057332,-1.033062,-0.053568, 0.002188,-0.000540, 0.140010, 0.240383,-0.101607,-0.000001, 0.000001, 0.000002,1,0
1777416078235181205,917397000000,   917.402,-0.000812, 0.000707,-0.010744,-0.000613, 0.000211, 0.000012,-0.746064, 0.163581,-0.092853,1,-0.065449, 0.023781,-0.004257,1,-0.021385, 0.020292,-1.007965,-0.065450, 0.023782,-0.004255, 0.139851, 0.240011,-0.101025,-0.000001, 0.000001, 0.000002,1,0
1777416078245263530,917397000000,   917.402,-0.000812, 0.000707,-0.010744,-0.000613, 0.000211, 0.000012,-0.746064, 0.163581,-0.092853,1,-0.065449, 0.023781,-0.004257,1,-0.021385, 0.020292,-1.007965,-0.065450, 0.023782,-0.004255, 0.139851, 0.240011,-0.101025,-0.000001, 0.000001, 0.000002,1,0
1777416078260815905,917417000000,   917.422,-0.000576, 0.001280,-0.012013,-0.000402,-0.000838, 0.000155,-0.794504, 0.223604,-0.635648,1,-0.040946,-0.007482, 0.011430,1,-0.026021, 0.027725,-1.063292,-0.040947,-0.007482, 0.011433, 0.139506, 0.239657,-0.099708,-0.000001, 0.000001, 0.000002,1,0
1777416078270504572,917437000000,   917.442, 0.000875,-0.000099,-0.011051, 0.000112,-0.000848,-0.000252,-0.289216,-0.529582, 0.372585,1,-0.004841,-0.017299,-0.007117,1, 0.025769,-0.048660,-0.960464,-0.004842,-0.017298,-0.007115, 0.139412, 0.239278,-0.099312,-0.000001, 0.000001, 0.000002,1,0
1777416078280588508,917437000000,   917.442, 0.000875,-0.000099,-0.011051, 0.000112,-0.000848,-0.000252,-0.289216,-0.529582, 0.372585,1,-0.004841,-0.017299,-0.007117,1, 0.025769,-0.048660,-0.960464,-0.004842,-0.017298,-0.007115, 0.139412, 0.239278,-0.099312,-0.000001, 0.000001, 0.000002,1,0
1777416078290238253,917457000000,   917.457, 0.000383, 0.001318,-0.008044, 0.000871, 0.000535, 0.000054,-0.421071, 0.617382,-0.266294,1,-0.028408,-0.021056,-0.016639,1, 0.030808, 0.101843,-0.925615, 0.023173, 0.014395,-0.007320, 0.139761, 0.238816,-0.098997,-0.000001, 0.000001, 0.000002,1,0
1777416078300321338,917457000000,   917.457, 0.000383, 0.001318,-0.008044, 0.000871, 0.000535, 0.000054,-0.421071, 0.617382,-0.266294,1,-0.028408,-0.021056,-0.016639,1, 0.030808, 0.101843,-0.925615, 0.023173, 0.014395,-0.007320, 0.139761, 0.238816,-0.098997,-0.000001, 0.000001, 0.000002,1,0
1777416078319726519,917477000000,   917.477,-0.000729, 0.000107,-0.012097,-0.000324,-0.001135, 0.000078,-0.421295, 0.202881, 0.416640,1, 0.054910,-0.012750, 0.000804,1,-0.035106, 0.028037,-1.088430, 0.009265,-0.061390, 0.003343, 0.139884, 0.238257,-0.100014,-0.000001, 0.000001, 0.000002,1,0
1777416078329387041,917497000000,   917.497, 0.000992,-0.001021,-0.002823, 0.001844, 0.002232, 0.000285,-1.238093, 1.142328,-1.245990,1, 0.015844,-0.035805, 0.011062,1, 0.019243,-0.000627,-0.752852, 0.085325, 0.076823, 0.018503, 0.139899, 0.238120,-0.100111,-0.000001, 0.000001, 0.000002,1,0
1777416078339471533,917497000000,   917.497, 0.000992,-0.001021,-0.002823, 0.001844, 0.002232, 0.000285,-1.238093, 1.142328,-1.245990,1, 0.015844,-0.035805, 0.011062,1, 0.019243,-0.000627,-0.752852, 0.085325, 0.076823, 0.018503, 0.139899, 0.238120,-0.100111,-0.000001, 0.000001, 0.000002,1,0
1777416078349125148,917517000000,   917.517,-0.000941,-0.000390,-0.012195,-0.000253,-0.000277,-0.000054, 0.171196, 0.092667,-0.142984,1, 0.042131,-0.053620, 0.019511,1, 0.007208, 0.008584,-1.140972, 0.002340,-0.039432, 0.004947, 0.139858, 0.237708,-0.100413,-0.000001, 0.000001, 0.000002,1,0
1777416078359208158,917517000000,   917.517,-0.000941,-0.000390,-0.012195,-0.000253,-0.000277,-0.000054, 0.171196, 0.092667,-0.142984,1, 0.042131,-0.053620, 0.019511,1, 0.007208, 0.008584,-1.140972, 0.002340,-0.039432, 0.004947, 0.139858, 0.237708,-0.100413,-0.000001, 0.000001, 0.000002,1,0
1777416078378936952,917537000000,   917.537, 0.000122, 0.000073,-0.009349, 0.000835, 0.000752, 0.000015,-0.390542,-0.472768, 0.716469,1, 0.066703, 0.000364, 0.010698,1, 0.018848,-0.032929,-0.950937, 0.076853, 0.033424, 0.006280, 0.140133, 0.237268,-0.100648,-0.000001, 0.000001, 0.000002,1,0
1777416078388626488,917557000000,   917.557, 0.000289,-0.000995,-0.011228, 0.000026,-0.000497, 0.000278,-0.086863, 0.576422,-0.020146,1, 0.062066, 0.003059, 0.010560,1, 0.037470, 0.001900,-1.060747, 0.035053,-0.022376, 0.016531, 0.140077, 0.236851,-0.101007,-0.000001, 0.000001, 0.000002,1,0
1777416078398709203,917557000000,   917.557, 0.000289,-0.000995,-0.011228, 0.000026,-0.000497, 0.000278,-0.086863, 0.576422,-0.020146,1, 0.062066, 0.003059, 0.010560,1, 0.037470, 0.001900,-1.060747, 0.035053,-0.022376, 0.016531, 0.140077, 0.236851,-0.101007,-0.000001, 0.000001, 0.000002,1,0
1777416078408342209,917577000000,   917.577, 0.000832,-0.000841,-0.008913, 0.000475, 0.000319,-0.000291,-0.223375,-0.763287,-0.171265,1, 0.035851,-0.032938, 0.010426,1, 0.051758,-0.074310,-0.952035, 0.037273,-0.001874,-0.008177, 0.139945, 0.236149,-0.101146,-0.000001, 0.000001, 0.000002,1,0
1777416078418424590,917577000000,   917.577, 0.000832,-0.000841,-0.008913, 0.000475, 0.000319,-0.000291,-0.223375,-0.763287,-0.171265,1, 0.035851,-0.032938, 0.010426,1, 0.051758,-0.074310,-0.952035, 0.037273,-0.001874,-0.008177, 0.139945, 0.236149,-0.101146,-0.000001, 0.000001, 0.000002,1,0
1777416078428085611,917597000000,   917.597, 0.000874, 0.000814,-0.009735,-0.000006,-0.000446,-0.000273, 0.261644,-0.217913,-0.252909,1, 0.040581,-0.016523,-0.012767,1, 0.084311, 0.021605,-0.999045, 0.026994,-0.027691,-0.018545, 0.140031, 0.235892,-0.100990,-0.000001, 0.000001, 0.000003,1,0
1777416078438167400,917597000000,   917.597, 0.000874, 0.000814,-0.009735,-0.000006,-0.000446,-0.000273, 0.261644,-0.217913,-0.252909,1, 0.040581,-0.016523,-0.012767,1, 0.084311, 0.021605,-0.999045, 0.026994,-0.027691,-0.018545, 0.140031, 0.235892,-0.100990,-0.000001, 0.000001, 0.000003,1,0
1777416078457882657,917617000000,   917.617, 0.001054,-0.000915,-0.009090, 0.000162, 0.000236,-0.000424, 0.380819,-0.126951, 0.493040,1,-0.000643,-0.021165,-0.023135,1, 0.096253,-0.047302,-0.928161, 0.006547,-0.001365,-0.033009, 0.139788, 0.235027,-0.101632,-0.000001, 0.000001, 0.000003,1,0
1777416078467626558,917627000000,   917.632, 0.001655,-0.000132,-0.011026,-0.000631,-0.000370,-0.000566, 0.779327,-0.238575,-0.171648,1,-0.028703,-0.021878,-0.044586,1, 0.132043,-0.024877,-1.016120,-0.028703,-0.021878,-0.044583, 0.139770, 0.234868,-0.101692,-0.000001, 0.000001, 0.000003,1,0
1777416078477708977,917627000000,   917.632, 0.001655,-0.000132,-0.011026,-0.000631,-0.000370,-0.000566, 0.779327,-0.238575,-0.171648,1,-0.028703,-0.021878,-0.044586,1, 0.132043,-0.024877,-1.016120,-0.028703,-0.021878,-0.044583, 0.139770, 0.234868,-0.101692,-0.000001, 0.000001, 0.000003,1,0
1777416078487288970,917647000000,   917.652, 0.001693, 0.000523,-0.010915,-0.000356,-0.000255,-0.000622, 0.745934,-0.171452, 0.071913,1,-0.013707,-0.015386,-0.050898,1, 0.128131,-0.017543,-0.991310,-0.013708,-0.015385,-0.050895, 0.139558, 0.234293,-0.101289,-0.000001, 0.000001, 0.000003,1,0
1777416078497371185,917647000000,   917.652, 0.001693, 0.000523,-0.010915,-0.000356,-0.000255,-0.000622, 0.745934,-0.171452, 0.071913,1,-0.013707,-0.015386,-0.050898,1, 0.128131,-0.017543,-0.991310,-0.013708,-0.015385,-0.050895, 0.139558, 0.234293,-0.101289,-0.000001, 0.000001, 0.000003,1,0
1777416078507025447,917667000000,   917.672, 0.001016,-0.000973,-0.005932,-0.000671, 0.001444,-0.000239, 0.641013,-0.071981, 0.360323,1,-0.070008, 0.051572,-0.046903,1, 0.117442,-0.006225,-0.961899,-0.070009, 0.051573,-0.046900, 0.138858, 0.234089,-0.100488,-0.000001, 0.000001, 0.000003,1,0
1777416078517109310,917667000000,   917.672, 0.001016,-0.000973,-0.005932,-0.000671, 0.001444,-0.000239, 0.641013,-0.071981, 0.360323,1,-0.070008, 0.051572,-0.046903,1, 0.117442,-0.006225,-0.961899,-0.070009, 0.051573,-0.046900, 0.138858, 0.234089,-0.100488,-0.000001, 0.000001, 0.000003,1,0
1777416078536825475,917687000000,   917.692, 0.001598,-0.000931,-0.010504,-0.001113, 0.000026,-0.000662, 0.927335,-0.670442, 0.101649,1,-0.076859, 0.018560,-0.053081,1, 0.147339,-0.065733,-0.988237,-0.076860, 0.018561,-0.053078, 0.139007, 0.233590,-0.099627,-0.000001, 0.000001, 0.000003,1,0
1777416078546508882,917707000000,   917.712, 0.000945, 0.000249,-0.010553,-0.000493,-0.000197,-0.000907, 0.722875,-0.482785, 0.073102,1,-0.067263, 0.004119,-0.079379,1, 0.126720,-0.045222,-0.991131,-0.067264, 0.004120,-0.079376, 0.138404, 0.233068,-0.098762,-0.000001, 0.000001, 0.000003,1,0
1777416078556592375,917707000000,   917.712, 0.000945, 0.000249,-0.010553,-0.000493,-0.000197,-0.000907, 0.722875,-0.482785, 0.073102,1,-0.067263, 0.004119,-0.079379,1, 0.126720,-0.045222,-0.991131,-0.067264, 0.004120,-0.079376, 0.138404, 0.233068,-0.098762,-0.000001, 0.000001, 0.000003,1,0
1777416078566256303,917727000000,   917.732, 0.000354, 0.001200,-0.010810,-0.001801, 0.000146,-0.000615, 0.035869, 0.594100,-0.412946,1,-0.133484, 0.021300,-0.073325,1, 0.057148, 0.066271,-1.040660,-0.133485, 0.021301,-0.073322, 0.137866, 0.232454,-0.099494,-0.000001, 0.000001, 0.000003,1,0
1777416078576340702,917727000000,   917.732, 0.000354, 0.001200,-0.010810,-0.001801, 0.000146,-0.000615, 0.035869, 0.594100,-0.412946,1,-0.133484, 0.021300,-0.073325,1, 0.057148, 0.066271,-1.040660,-0.133485, 0.021301,-0.073322, 0.137866, 0.232454,-0.099494,-0.000001, 0.000001, 0.000003,1,0
1777416078596041406,917747000000,   917.752, 0.001607,-0.003771,-0.006773, 0.000371, 0.001495,-0.000942, 0.363113,-1.702447, 0.663164,1,-0.011958, 0.091393,-0.072812,1, 0.091649,-0.166571,-0.930857,-0.011959, 0.091394,-0.072809, 0.137666, 0.231708,-0.099738,-0.000001, 0.000001, 0.000003,1,0
1777416078615780439,917767000000,   917.772,-0.000145, 0.001716,-0.011319, 0.000120,-0.000439,-0.001200,-0.084726, 0.228653,-0.081280,1, 0.005818,-0.030939,-0.112998,1, 0.045952, 0.030529,-1.006770, 0.005817,-0.030938,-0.112995, 0.137412, 0.231312,-0.099337,-0.000001, 0.000001, 0.000003,1,0
1777416078630913047,917787000000,   917.792, 0.000516, 0.001212,-0.011724, 0.000285, 0.000924,-0.000932, 0.249734, 0.665860,-0.934160,1, 0.037671, 0.036419,-0.104092,1, 0.079895, 0.074024,-1.093756, 0.037670, 0.036420,-0.104090, 0.136634, 0.230723,-0.099726,-0.000001, 0.000001, 0.000003,1,0
1777416078640633487,917807000000,   917.812, 0.002430,-0.001752,-0.007856,-0.000073, 0.001059,-0.000140, 1.016670, 0.445702, 0.654366,1, 0.059543, 0.045120,-0.044173,1, 0.158856, 0.050733,-0.931735, 0.059542, 0.045121,-0.044170, 0.136079, 0.229981,-0.099905,-0.000001, 0.000001, 0.000003,1,0
1777416078650730904,917807000000,   917.812, 0.002430,-0.001752,-0.007856,-0.000073, 0.001059,-0.000140, 1.016670, 0.445702, 0.654366,1, 0.059543, 0.045120,-0.044173,1, 0.158856, 0.050733,-0.931735, 0.059542, 0.045121,-0.044170, 0.136079, 0.229981,-0.099905,-0.000001, 0.000001, 0.000003,1,0
1777416078660333524,917827000000,   917.827, 0.000823, 0.001012,-0.012283, 0.000877,-0.000151,-0.000405, 0.535308, 0.045740,-0.634569,1, 0.089115, 0.007380,-0.036578,1, 0.109438, 0.009198,-1.063192, 0.089113, 0.007381,-0.036575, 0.135933, 0.230027,-0.100233,-0.000001, 0.000001, 0.000003,1,0
1777416078670416442,917827000000,   917.827, 0.000823, 0.001012,-0.012283, 0.000877,-0.000151,-0.000405, 0.535308, 0.045740,-0.634569,1, 0.089115, 0.007380,-0.036578,1, 0.109438, 0.009198,-1.063192, 0.089113, 0.007381,-0.036575, 0.135933, 0.230027,-0.100233,-0.000001, 0.000001, 0.000003,1,0
1777416078680077371,917847000000,   917.847, 0.000977, 0.000499,-0.011971, 0.000434,-0.001530,-0.000032, 0.673823, 0.266269,-0.485413,1, 0.036010,-0.032043,-0.025034,1, 0.124277, 0.030039,-1.047948, 0.036008,-0.032042,-0.025031, 0.135525, 0.229413,-0.101193,-0.000001, 0.000001, 0.000003,1,0
1777416078690159975,917847000000,   917.847, 0.000977, 0.000499,-0.011971, 0.000434,-0.001530,-0.000032, 0.673823, 0.266269,-0.485413,1, 0.036010,-0.032043,-0.025034,1, 0.124277, 0.030039,-1.047948, 0.036008,-0.032042,-0.025031, 0.135525, 0.229413,-0.101193,-0.000001, 0.000001, 0.000003,1,0
1777416078709536659,917867000000,   917.867, 0.001250, 0.000125,-0.007445, 0.000502, 0.000821,-0.000017,-0.134790,-0.006477, 0.055908,1, 0.096345, 0.025209,-0.004314,1, 0.076615, 0.010291,-0.884173, 0.073098, 0.044215,-0.002382, 0.135715, 0.228909,-0.102223,-0.000001, 0.000001, 0.000003,1,0
1777416078719222437,917887000000,   917.887, 0.000476,-0.000706,-0.009775, 0.000114, 0.000636, 0.000353, 0.156373, 0.512307,-0.056650,1, 0.045013,-0.007973, 0.001337,1, 0.074999, 0.002838,-0.998100, 0.024366, 0.024222, 0.015230, 0.135604, 0.228844,-0.102984,-0.000001, 0.000001, 0.000003,1,0
1777416078729304540,917887000000,   917.887, 0.000476,-0.000706,-0.009775, 0.000114, 0.000636, 0.000353, 0.156373, 0.512307,-0.056650,1, 0.045013,-0.007973, 0.001337,1, 0.074999, 0.002838,-0.998100, 0.024366, 0.024222, 0.015230, 0.135604, 0.228844,-0.102984,-0.000001, 0.000001, 0.000003,1,0
1777416078749023483,917907000000,   917.907,-0.000090, 0.000391,-0.012310,-0.000360,-0.000643, 0.000607, 0.002271,-0.731169, 1.015191,1, 0.015594, 0.009409, 0.033161,1, 0.026353,-0.026310,-1.029185, 0.005727,-0.022073, 0.046896, 0.135104, 0.228563,-0.101686,-0.000001, 0.000001, 0.000003,1,0
1777416078768769089,917927000000,   917.927, 0.000132,-0.000404,-0.014072,-0.001656,-0.000746, 0.000337, 0.041340,-0.532401, 0.502821,1,-0.004175, 0.016842, 0.047129,1, 0.050470,-0.013071,-1.158416,-0.080614,-0.027874, 0.037700, 0.134998, 0.228802,-0.101589,-0.000001, 0.000001, 0.000003,1,0
1777416078778459125,917947000000,   917.947, 0.000716,-0.000377,-0.013648, 0.000231,-0.000545, 0.000504,-0.813770,-1.013055, 0.940931,1,-0.118083, 0.033607, 0.046405,1,-0.000858,-0.094262,-1.047560,-0.049197, 0.001338, 0.048537, 0.135243, 0.227923,-0.102532,-0.000001, 0.000001, 0.000003,1,0
1777416078788542062,917947000000,   917.947, 0.000716,-0.000377,-0.013648, 0.000231,-0.000545, 0.000504,-0.813770,-1.013055, 0.940931,1,-0.118083, 0.033607, 0.046405,1,-0.000858,-0.094262,-1.047560,-0.049197, 0.001338, 0.048537, 0.135243, 0.227923,-0.102532,-0.000001, 0.000001, 0.000003,1,0
1777416078798178105,917967000000,   917.967,-0.000098,-0.002354,-0.007942,-0.000985, 0.000230, 0.000132,-0.161725,-1.000864,-0.149457,1,-0.077126, 0.045279, 0.038339,1, 0.022736,-0.166217,-0.943248,-0.096737, 0.033604, 0.025601, 0.135567, 0.227819,-0.102261,-0.000001, 0.000001, 0.000003,1,0
1777416078808261097,917967000000,   917.967,-0.000098,-0.002354,-0.007942,-0.000985, 0.000230, 0.000132,-0.161725,-1.000864,-0.149457,1,-0.077126, 0.045279, 0.038339,1, 0.022736,-0.166217,-0.943248,-0.096737, 0.033604, 0.025601, 0.135567, 0.227819,-0.102261,-0.000001, 0.000001, 0.000003,1,0
1777416078827970503,917987000000,   917.987, 0.000357,-0.000247,-0.008966,-0.000946, 0.000919,-0.000210,-0.924869,-1.136266,-0.215705,1,-0.048845, 0.003996, 0.023608,1, 0.006712,-0.067013,-0.988524,-0.061252, 0.042837, 0.003616, 0.135505, 0.227585,-0.101803,-0.000001, 0.000001, 0.000003,1,0
1777416078837644394,918007000000,   918.007, 0.000090,-0.003332,-0.008116, 0.000868, 0.000736, 0.000157,-0.403864, 0.634676, 0.224603,1,-0.080792, 0.009625,-0.002863,1, 0.015683,-0.123164,-0.902892,-0.009146, 0.038505, 0.002608, 0.135141, 0.226412,-0.101595,-0.000001, 0.000001, 0.000003,1,0
1777416078847746624,918007000000,   918.007, 0.000090,-0.003332,-0.008116, 0.000868, 0.000736, 0.000157,-0.403864, 0.634676, 0.224603,1,-0.080792, 0.009625,-0.002863,1, 0.015683,-0.123164,-0.902892,-0.009146, 0.038505, 0.002608, 0.135141, 0.226412,-0.101595,-0.000001, 0.000001, 0.000003,1,0
1777416078857435420,918017000000,   918.022, 0.000541,-0.000918,-0.009880, 0.000170,-0.001200,-0.000438,-0.426248,-1.167509, 0.965312,1, 0.011174,-0.031449,-0.017051,1, 0.015099,-0.113747,-0.899835, 0.011173,-0.031447,-0.017048, 0.135226, 0.226335,-0.101334,-0.000001, 0.000001, 0.000003,1,0
1777416078867521709,918017000000,   918.022, 0.000541,-0.000918,-0.009880, 0.000170,-0.001200,-0.000438,-0.426248,-1.167509, 0.965312,1, 0.011174,-0.031449,-0.017051,1, 0.015099,-0.113747,-0.899835, 0.011173,-0.031447,-0.017048, 0.135226, 0.226335,-0.101334,-0.000001, 0.000001, 0.000003,1,0
1777416078877122459,918037000000,   918.042, 0.001331, 0.000364,-0.008653, 0.000694,-0.000143,-0.000752, 0.263384, 0.144040, 0.352074,1, 0.044870,-0.018009,-0.053408,1, 0.084916, 0.019579,-0.962399, 0.044869,-0.018008,-0.053405, 0.135135, 0.226511,-0.101390,-0.000001, 0.000001, 0.000003,1,0
1777416078887206581,918037000000,   918.042, 0.001331, 0.000364,-0.008653, 0.000694,-0.000143,-0.000752, 0.263384, 0.144040, 0.352074,1, 0.044870,-0.018009,-0.053408,1, 0.084916, 0.019579,-0.962399, 0.044869,-0.018008,-0.053405, 0.135135, 0.226511,-0.101390,-0.000001, 0.000001, 0.000003,1,0
1777416078906922708,918057000000,   918.062, 0.000117,-0.000354,-0.000301, 0.003374, 0.003452, 0.000142,-0.039763, 0.860955, 2.922386,1, 0.093039, 0.124699,-0.024229,1, 0.053630, 0.092312,-0.700323, 0.093038, 0.124701,-0.024226, 0.134852, 0.226460,-0.101515,-0.000001, 0.000001, 0.000003,1,0
1777416078916710975,918077000000,   918.082,-0.001036, 0.000209,-0.015411,-0.000133, 0.000008, 0.000087,-0.140797, 0.891815,-2.711287,1,-0.012067,-0.011114,-0.004179,1, 0.043556, 0.094696,-1.274788,-0.012069,-0.011113,-0.004176, 0.134172, 0.226415,-0.102657,-0.000001, 0.000001, 0.000003,1,0
1777416078926809576,918077000000,   918.082,-0.001036, 0.000209,-0.015411,-0.000133, 0.000008, 0.000087,-0.140797, 0.891815,-2.711287,1,-0.012067,-0.011114,-0.004179,1, 0.043556, 0.094696,-1.274788,-0.012069,-0.011113,-0.004176, 0.134172, 0.226415,-0.102657,-0.000001, 0.000001, 0.000003,1,0
1777416078936348834,918097000000,   918.102, 0.001502, 0.001429,-0.013594, 0.000499,-0.001146, 0.000153, 0.915868, 0.041664,-1.311053,1, 0.071609,-0.017095, 0.011090,1, 0.151485, 0.006587,-1.131998, 0.071608,-0.017094, 0.011093, 0.134387, 0.226243,-0.103537,-0.000001, 0.000001, 0.000003,1,0
1777416078946433677,918097000000,   918.102, 0.001502, 0.001429,-0.013594, 0.000499,-0.001146, 0.000153, 0.915868, 0.041664,-1.311053,1, 0.071609,-0.017095, 0.011090,1, 0.151485, 0.006587,-1.131998, 0.071608,-0.017094, 0.011093, 0.134387, 0.226243,-0.103537,-0.000001, 0.000001, 0.000003,1,0
1777416078956068313,918117000000,   918.122, 0.002004, 0.000363,-0.008896, 0.001256, 0.000934, 0.000486, 0.163215, 0.791785, 0.539073,1, 0.102991, 0.017751, 0.038243,1, 0.074271, 0.081410,-0.943366, 0.102989, 0.017752, 0.038246, 0.134760, 0.226197,-0.103611,-0.000001, 0.000001, 0.000003,1,0
1777416078966153138,918117000000,   918.122, 0.002004, 0.000363,-0.008896, 0.001256, 0.000934, 0.000486, 0.163215, 0.791785, 0.539073,1, 0.102991, 0.017751, 0.038243,1, 0.074271, 0.081410,-0.943366, 0.102989, 0.017752, 0.038246, 0.134760, 0.226197,-0.103611,-0.000001, 0.000001, 0.000003,1,0
1777416078985871340,918137000000,   918.142, 0.000151, 0.000877,-0.009281, 0.000546,-0.000107, 0.000492,-0.206647, 0.373375,-0.032607,1, 0.093271,-0.025395, 0.052241,1, 0.035758, 0.037428,-1.001708, 0.093269,-0.025393, 0.052244, 0.134371, 0.226026,-0.103343,-0.000001, 0.000001, 0.000003,1,0
1777416078995551192,918157000000,   918.162, 0.000129, 0.000919,-0.012498,-0.000454,-0.001116, 0.000938,-0.135939, 0.478676,-0.523209,1, 0.020657,-0.064241, 0.076810,1, 0.042166, 0.047440,-1.051780, 0.020655,-0.064240, 0.076813, 0.134453, 0.226159,-0.103427,-0.000001, 0.000001, 0.000003,1,0
1777416079005636629,918157000000,   918.162, 0.000129, 0.000919,-0.012498,-0.000454,-0.001116, 0.000938,-0.135939, 0.478676,-0.523209,1, 0.020657,-0.064241, 0.076810,1, 0.042166, 0.047440,-1.051780, 0.020655,-0.064240, 0.076813, 0.134453, 0.226159,-0.103427,-0.000001, 0.000001, 0.000003,1,0
1777416079015294824,918177000000,   918.182, 0.000714, 0.002914,-0.008703,-0.000017,-0.000198, 0.001036,-0.189222, 0.934255, 1.477284,1, 0.032769,-0.018713, 0.102647,1, 0.036045, 0.094300,-0.847825, 0.032768,-0.018712, 0.102650, 0.134799, 0.226120,-0.104105,-0.000002, 0.000001, 0.000003,1,0
1777416079025379342,918177000000,   918.182, 0.000714, 0.002914,-0.008703,-0.000017,-0.000198, 0.001036,-0.189222, 0.934255, 1.477284,1, 0.032769,-0.018713, 0.102647,1, 0.036045, 0.094300,-0.847825, 0.032768,-0.018712, 0.102650, 0.134799, 0.226120,-0.104105,-0.000002, 0.000001, 0.000003,1,0
1777416079035032223,918197000000,   918.202, 0.000440,-0.002547,-0.003668, 0.000377, 0.000829, 0.000840,-0.045315,-0.782938, 2.365210,1,-0.042949, 0.032084, 0.092633,1, 0.050699,-0.080100,-0.757284,-0.042950, 0.032085, 0.092636, 0.134351, 0.226138,-0.103885,-0.000002, 0.000001, 0.000003,1,0
1777416079045115981,918197000000,   918.202, 0.000440,-0.002547,-0.003668, 0.000377, 0.000829, 0.000840,-0.045315,-0.782938, 2.365210,1,-0.042949, 0.032084, 0.092633,1, 0.050699,-0.080100,-0.757284,-0.042950, 0.032085, 0.092636, 0.134351, 0.226138,-0.103885,-0.000002, 0.000001, 0.000003,1,0
1777416079060704956,918217000000,   918.222, 0.000646,-0.001182,-0.013414,-0.001241, 0.001295, 0.000966,-0.073277, 0.273773,-1.538279,1,-0.117847, 0.049846, 0.088264,1, 0.048103, 0.029487,-1.155313,-0.117848, 0.049848, 0.088267, 0.134825, 0.226211,-0.103984,-0.000002, 0.000001, 0.000003,1,0
1777416079070402128,918237000000,   918.237, 0.001710,-0.000222,-0.013009,-0.001492, 0.000801, 0.000900, 0.483753,-0.313877,-0.816858,1,-0.117126, 0.088645, 0.088083,1, 0.106617,-0.028858,-1.081647,-0.117128, 0.088647, 0.088086, 0.134857, 0.226424,-0.103896,-0.000002, 0.000001, 0.000003,1,0
1777416079080485831,918237000000,   918.237, 0.001710,-0.000222,-0.013009,-0.001492, 0.000801, 0.000900, 0.483753,-0.313877,-0.816858,1,-0.117126, 0.088645, 0.088083,1, 0.106617,-0.028858,-1.081647,-0.117128, 0.088647, 0.088086, 0.134857, 0.226424,-0.103896,-0.000002, 0.000001, 0.000003,1,0
1777416079090093050,918257000000,   918.257, 0.001049,-0.001135,-0.008085,-0.000176,-0.000052, 0.000331, 0.175624,-1.702490, 0.753346,1,-0.039827, 0.050663, 0.065722,1, 0.076900,-0.169848,-0.921430,-0.039829, 0.050664, 0.065725, 0.134370, 0.226770,-0.102851,-0.000002, 0.000001, 0.000003,1,0
1777416079100176624,918257000000,   918.257, 0.001049,-0.001135,-0.008085,-0.000176,-0.000052, 0.000331, 0.175624,-1.702490, 0.753346,1,-0.039827, 0.050663, 0.065722,1, 0.076900,-0.169848,-0.921430,-0.039829, 0.050664, 0.065725, 0.134370, 0.226770,-0.102851,-0.000002, 0.000001, 0.000003,1,0
1777416079119548082,918277000000,   918.277,-0.000376,-0.000039,-0.009028, 0.000155, 0.000320, 0.000014,-0.409997,-1.293386,-0.657081,1, 0.043796, 0.017708, 0.049081,1, 0.007411,-0.090763,-1.043933, 0.023689, 0.022214, 0.029198, 0.134385, 0.226850,-0.103444,-0.000002, 0.000001, 0.000003,1,0
1777416079129226386,918297000000,   918.297,-0.000505,-0.003646,-0.000050, 0.001241, 0.003362, 0.000589,-0.277747, 1.573485,-2.136467,1, 0.056290,-0.024062, 0.028356,1, 0.019613,-0.087872,-0.746207, 0.058096, 0.128805, 0.041122, 0.134689, 0.226842,-0.103408,-0.000002, 0.000001, 0.000003,1,0
1777416079139310867,918297000000,   918.297,-0.000505,-0.003646,-0.000050, 0.001241, 0.003362, 0.000589,-0.277747, 1.573485,-2.136467,1, 0.056290,-0.024062, 0.028356,1, 0.019613,-0.087872,-0.746207, 0.058096, 0.128805, 0.041122, 0.134689, 0.226842,-0.103408,-0.000002, 0.000001, 0.000003,1,0
1777416079159026045,918317000000,   918.317,-0.000377, 0.000378,-0.007413, 0.001511, 0.001479, 0.000250,-0.496342,-0.738585,-1.889735,1, 0.079191,-0.072425, 0.044080,1,-0.003127,-0.052616,-0.965117, 0.134171, 0.034578, 0.038991, 0.134823, 0.227645,-0.104286,-0.000002, 0.000001, 0.000003,1,0
1777416079178776739,918337000000,   918.337,-0.001231, 0.002378,-0.012809,-0.000065,-0.000965, 0.000186,-0.033254,-0.021899, 0.190432,1, 0.079439, 0.034299, 0.017653,1,-0.028278, 0.112176,-1.095024, 0.049494,-0.027034, 0.018698, 0.134334, 0.227819,-0.104701,-0.000002, 0.000001, 0.000003,1,0
1777416079188422843,918357000000,   918.357, 0.000260, 0.000034,-0.011536, 0.000161,-0.000626, 0.000658,-0.033254,-0.021899, 0.190432,1, 0.079439, 0.034299, 0.017653,1, 0.001044, 0.022053,-1.003246, 0.042911,-0.005362, 0.046357, 0.133634, 0.227803,-0.105270,-0.000002, 0.000001, 0.000003,1,0
1777416079198505101,918357000000,   918.357, 0.000260, 0.000034,-0.011536, 0.000161,-0.000626, 0.000658,-0.033254,-0.021899, 0.190432,1, 0.079439, 0.034299, 0.017653,1, 0.001044, 0.022053,-1.003246, 0.042911,-0.005362, 0.046357, 0.133634, 0.227803,-0.105270,-0.000002, 0.000001, 0.000003,1,0
1777416079208165074,918377000000,   918.377, 0.000475,-0.000588,-0.008617,-0.000130, 0.000432, 0.000293,-1.171582, 0.451933, 0.235105,1, 0.038011,-0.015153, 0.042297,1,-0.008063, 0.011574,-0.939343, 0.009679, 0.009264, 0.034861, 0.133737, 0.227788,-0.105823,-0.000002, 0.000001, 0.000003,1,0
1777416079218264535,918377000000,   918.377, 0.000475,-0.000588,-0.008617,-0.000130, 0.000432, 0.000293,-1.171582, 0.451933, 0.235105,1, 0.038011,-0.015153, 0.042297,1,-0.008063, 0.011574,-0.939343, 0.009679, 0.009264, 0.034861, 0.133737, 0.227788,-0.105823,-0.000002, 0.000001, 0.000003,1,0
1777416079237991768,918397000000,   918.397,-0.000116,-0.001635,-0.011683,-0.000710,-0.000051, 0.000423,-0.624363, 0.316224,-0.145459,1, 0.003400,-0.021701, 0.045256,1, 0.007344,-0.067693,-1.138044,-0.031850,-0.013535, 0.043511, 0.134107, 0.228601,-0.105593,-0.000002, 0.000002, 0.000003,1,0
1777416079247653907,918417000000,   918.417,-0.000135,-0.000067,-0.015110,-0.002055, 0.000150, 0.000223,-1.009137,-0.155074, 1.618794,1,-0.021047, 0.021446, 0.048628,1,-0.030342, 0.009520,-1.115785,-0.095925, 0.015560, 0.035574, 0.133683, 0.228353,-0.105679,-0.000002, 0.000002, 0.000003,1,0
1777416079257736573,918417000000,   918.417,-0.000135,-0.000067,-0.015110,-0.002055, 0.000150, 0.000223,-1.009137,-0.155074, 1.618794,1,-0.021047, 0.021446, 0.048628,1,-0.030342, 0.009520,-1.115785,-0.095925, 0.015560, 0.035574, 0.133683, 0.228353,-0.105679,-0.000002, 0.000002, 0.000003,1,0
1777416079267390528,918427000000,   918.432,-0.000690,-0.002214,-0.004846,-0.000052, 0.001723, 0.000484,-0.969419,-0.979835, 1.662156,1,-0.067493, 0.089775, 0.040096,1,-0.038214,-0.100062,-0.828666,-0.067494, 0.089777, 0.040099, 0.133896, 0.228348,-0.105857,-0.000002, 0.000002, 0.000003,1,0
1777416079277473342,918427000000,   918.432,-0.000690,-0.002214,-0.004846,-0.000052, 0.001723, 0.000484,-0.969419,-0.979835, 1.662156,1,-0.067493, 0.089775, 0.040096,1,-0.038214,-0.100062,-0.828666,-0.067494, 0.089777, 0.040099, 0.133896, 0.228348,-0.105857,-0.000002, 0.000002, 0.000003,1,0
1777416079287123556,918447000000,   918.452,-0.000358,-0.000650,-0.013401,-0.001444,-0.000324,-0.000300,-0.851950,-0.855139,-1.669711,1,-0.087501, 0.007700, 0.005250,1,-0.025193,-0.085905,-1.168357,-0.087502, 0.007702, 0.005254, 0.133327, 0.228359,-0.106631,-0.000002, 0.000002, 0.000003,1,0
1777416079297206907,918447000000,   918.452,-0.000358,-0.000650,-0.013401,-0.001444,-0.000324,-0.000300,-0.851950,-0.855139,-1.669711,1,-0.087501, 0.007700, 0.005250,1,-0.025193,-0.085905,-1.168357,-0.087502, 0.007702, 0.005254, 0.133327, 0.228359,-0.106631,-0.000002, 0.000002, 0.000003,1,0
1777416079316915050,918467000000,   918.472, 0.000355, 0.002184,-0.014165,-0.001034, 0.000123,-0.000135,-0.933715, 0.920909,-0.896195,1,-0.083444, 0.014649,-0.009423,1,-0.032981, 0.097038,-1.089442,-0.083445, 0.014651,-0.009419, 0.133688, 0.228251,-0.106427,-0.000002, 0.000002, 0.000003,1,0
1777416079326656051,918487000000,   918.492, 0.000385,-0.001289,-0.010971,-0.001006,-0.001349,-0.000424,-0.810547,-0.749461,-0.231034,1,-0.055701,-0.040918,-0.020827,1,-0.020045,-0.073002,-1.021590,-0.055703,-0.040916,-0.020823, 0.133221, 0.228304,-0.106251,-0.000002, 0.000002, 0.000003,1,0
1777416079336739235,918487000000,   918.492, 0.000385,-0.001289,-0.010971,-0.001006,-0.001349,-0.000424,-0.810547,-0.749461,-0.231034,1,-0.055701,-0.040918,-0.020827,1,-0.020045,-0.073002,-1.021590,-0.055703,-0.040916,-0.020823, 0.133221, 0.228304,-0.106251,-0.000002, 0.000002, 0.000003,1,0
1777416079346344881,918507000000,   918.512,-0.001176,-0.000281,-0.009495, 0.000119, 0.000227,-0.000890,-1.584441,-0.597550, 0.392391,1, 0.007835,-0.017736,-0.065651,1,-0.099498,-0.057895,-0.958054, 0.007833,-0.017734,-0.065647, 0.133166, 0.229057,-0.105828,-0.000002, 0.000002, 0.000003,1,0
1777416079356427343,918507000000,   918.512,-0.001176,-0.000281,-0.009495, 0.000119, 0.000227,-0.000890,-1.584441,-0.597550, 0.392391,1, 0.007835,-0.017736,-0.065651,1,-0.099498,-0.057895,-0.958054, 0.007833,-0.017734,-0.065647, 0.133166, 0.229057,-0.105828,-0.000002, 0.000002, 0.000003,1,0
1777416079366080817,918527000000,   918.532,-0.001671,-0.002198, 0.003836, 0.003095, 0.002365,-0.000109,-1.430057,-0.196211, 4.306304,1, 0.099048, 0.098161,-0.048159,1,-0.083708,-0.017764,-0.558944, 0.099046, 0.098163,-0.048156, 0.132593, 0.229696,-0.106215,-0.000002, 0.000002, 0.000003,1,0
1777416079376164427,918527000000,   918.532,-0.001671,-0.002198, 0.003836, 0.003095, 0.002365,-0.000109,-1.430057,-0.196211, 4.306304,1, 0.099048, 0.098161,-0.048159,1,-0.083708,-0.017764,-0.558944, 0.099046, 0.098163,-0.048156, 0.132593, 0.229696,-0.106215,-0.000002, 0.000002, 0.000003,1,0
1777416079395868496,918547000000,   918.552,-0.002203,-0.000654,-0.012976, 0.000306,-0.000238,-0.000416,-0.981322, 0.242201,-1.447162,1, 0.058066,-0.035188,-0.044089,1,-0.038667, 0.026413,-1.145680, 0.058064,-0.035186,-0.044086, 0.132360, 0.229849,-0.107250,-0.000002, 0.000002, 0.000003,1,0
1777416079405564613,918567000000,   918.572, 0.000386, 0.001188,-0.015524, 0.000519,-0.002333,-0.000079,-0.054059, 0.089199,-1.490970,1, 0.045849,-0.077340,-0.032027,1, 0.056125, 0.009453,-1.150134, 0.045848,-0.077339,-0.032024, 0.131782, 0.230246,-0.108557,-0.000002, 0.000002, 0.000003,1,0
1777416079415648427,918567000000,   918.572, 0.000386, 0.001188,-0.015524, 0.000519,-0.002333,-0.000079,-0.054059, 0.089199,-1.490970,1, 0.045849,-0.077340,-0.032027,1, 0.056125, 0.009453,-1.150134, 0.045848,-0.077339,-0.032024, 0.131782, 0.230246,-0.108557,-0.000002, 0.000002, 0.000003,1,0
1777416079425289309,918587000000,   918.592, 0.002852, 0.000959,-0.008789, 0.000024, 0.000542,-0.000114, 0.806784, 0.962035, 0.086496,1, 0.060518, 0.001806,-0.012264,1, 0.143371, 0.096938,-0.989309, 0.060516, 0.001808,-0.012261, 0.130970, 0.230336,-0.109085,-0.000002, 0.000002, 0.000003,1,0
1777416079435372864,918587000000,   918.592, 0.002852, 0.000959,-0.008789, 0.000024, 0.000542,-0.000114, 0.806784, 0.962035, 0.086496,1, 0.060518, 0.001806,-0.012264,1, 0.143371, 0.096938,-0.989309, 0.060516, 0.001808,-0.012261, 0.130970, 0.230336,-0.109085,-0.000002, 0.000002, 0.000003,1,0
1777416079445036503,918607000000,   918.612, 0.000580, 0.000157,-0.008998, 0.000699, 0.000605, 0.000171, 0.089314, 0.136828, 0.352774,1, 0.053510,-0.004961, 0.007218,1, 0.069462, 0.011874,-0.962201, 0.053508,-0.004959, 0.007221, 0.131133, 0.230842,-0.108940,-0.000002, 0.000002, 0.000003,1,0
1777416079455119298,918607000000,   918.612, 0.000580, 0.000157,-0.008998, 0.000699, 0.000605, 0.000171, 0.089314, 0.136828, 0.352774,1, 0.053510,-0.004961, 0.007218,1, 0.069462, 0.011874,-0.962201, 0.053508,-0.004959, 0.007221, 0.131133, 0.230842,-0.108940,-0.000002, 0.000002, 0.000003,1,0
1777416079470712773,918607000000,   918.632, 0.000580, 0.000157,-0.008998, 0.000699, 0.000605, 0.000171,-0.188076,-0.341134, 0.424537,1,-0.001039,-0.002542, 0.021232,1, 0.069462, 0.011874,-0.962201, 0.053508,-0.004959, 0.007221, 0.131133, 0.230842,-0.108940,-0.000002, 0.000002, 0.000003,1,0
1777416079480334564,918647000000,   918.647,-0.002436, 0.001933,-0.010594,-0.001259,-0.000562, 0.000233,-1.421581, 0.223147,-1.333155,1,-0.076062,-0.026281, 0.018980,1,-0.084800, 0.021528,-1.134131,-0.076064,-0.026279, 0.018983, 0.130902, 0.230676,-0.109731,-0.000002, 0.000002, 0.000003,1,0
1777416079490417212,918647000000,   918.647,-0.002436, 0.001933,-0.010594,-0.001259,-0.000562, 0.000233,-1.421581, 0.223147,-1.333155,1,-0.076062,-0.026281, 0.018980,1,-0.084800, 0.021528,-1.134131,-0.076064,-0.026279, 0.018983, 0.130902, 0.230676,-0.109731,-0.000002, 0.000002, 0.000003,1,0
1777416079500081332,918667000000,   918.667, 0.003289,-0.000793,-0.014487,-0.003635,-0.000535,-0.000350, 0.768016,-0.615786,-0.421917,1,-0.133452, 0.039795,-0.017195,1, 0.140075,-0.063169,-1.041113,-0.133453, 0.039797,-0.017192, 0.130143, 0.231224,-0.109324,-0.000002, 0.000002, 0.000003,1,0
1777416079510164147,918667000000,   918.667, 0.003289,-0.000793,-0.014487,-0.003635,-0.000535,-0.000350, 0.768016,-0.615786,-0.421917,1,-0.133452, 0.039795,-0.017195,1, 0.140075,-0.063169,-1.041113,-0.133453, 0.039797,-0.017192, 0.130143, 0.231224,-0.109324,-0.000002, 0.000002, 0.000003,1,0
1777416079529546863,918687000000,   918.687, 0.001218, 0.000295,-0.012453,-0.000837,-0.000073,-0.000559,-0.557659,-1.438953, 0.571177,1,-0.081733, 0.032029,-0.010084,1, 0.053751,-0.058174,-1.045830,-0.071921, 0.008410,-0.030397, 0.130386, 0.231623,-0.109687,-0.000002, 0.000002, 0.000003,1,0
1777416079539231073,918707000000,   918.707, 0.000846, 0.001585,-0.012209,-0.000733,-0.000444,-0.000152,-0.015688,-0.082170, 0.491344,1,-0.094164, 0.059017,-0.035012,1, 0.075944, 0.089983,-1.039531,-0.082930, 0.013607,-0.028279, 0.129360, 0.232254,-0.110170,-0.000002, 0.000002, 0.000003,1,0
1777416079549314054,918707000000,   918.707, 0.000846, 0.001585,-0.012209,-0.000733,-0.000444,-0.000152,-0.015688,-0.082170, 0.491344,1,-0.094164, 0.059017,-0.035012,1, 0.075944, 0.089983,-1.039531,-0.082930, 0.013607,-0.028279, 0.129360, 0.232254,-0.110170,-0.000002, 0.000002, 0.000003,1,0
1777416079569023882,918727000000,   918.727, 0.001334, 0.000152,-0.011168, 0.000116,-0.001792,-0.000498, 0.516045,-0.899776, 0.941205,1,-0.027476, 0.062061,-0.026263,1, 0.128422,-0.035119,-1.025926,-0.010061,-0.049718,-0.037562, 0.129200, 0.232707,-0.110400,-0.000002, 0.000002, 0.000003,1,0
1777416079588758744,918747000000,   918.747, 0.001551, 0.000301,-0.012457,-0.000291,-0.000174,-0.000676, 0.020228,-0.484468, 0.923821,1, 0.062676,-0.023235,-0.044845,1, 0.109062,-0.003900,-1.082791, 0.014734,-0.030900,-0.055995, 0.128691, 0.233495,-0.110071,-0.000002, 0.000002, 0.000003,1,0
1777416079598433678,918767000000,   918.767, 0.002403,-0.002726,-0.000882, 0.000335, 0.003095, 0.000220,-0.066185, 3.114287,-0.868167,1, 0.085009,-0.013561,-0.046014,1, 0.163474, 0.086343,-0.710656, 0.019372, 0.117299,-0.019543, 0.128826, 0.234255,-0.111079,-0.000002, 0.000002, 0.000003,1,0
1777416079608518084,918767000000,   918.767, 0.002403,-0.002726,-0.000882, 0.000335, 0.003095, 0.000220,-0.066185, 3.114287,-0.868167,1, 0.085009,-0.013561,-0.046014,1, 0.163474, 0.086343,-0.710656, 0.019372, 0.117299,-0.019543, 0.128826, 0.234255,-0.111079,-0.000002, 0.000002, 0.000003,1,0
1777416079627813366,918787000000,   918.787,-0.000820,-0.000881,-0.007453, 0.001101, 0.001156, 0.000040, 0.607755, 0.033114,-2.132539,1, 0.073785,-0.117298, 0.000541,1, 0.044909,-0.054829,-0.982998, 0.103479,-0.011646, 0.001858, 0.128313, 0.234888,-0.111828,-0.000002, 0.000002, 0.000004,1,0
1777416079637481078,918797000000,   918.802, 0.001174, 0.000698,-0.009217,-0.000255,-0.000138,-0.000208, 0.120061, 0.217758, 0.220459,1, 0.044080,-0.029684,-0.009347,1, 0.075688, 0.021517,-0.975503, 0.044078,-0.029682,-0.009343, 0.127599, 0.235522,-0.112733,-0.000002, 0.000002, 0.000004,1,0
1777416079647564967,918797000000,   918.802, 0.001174, 0.000698,-0.009217,-0.000255,-0.000138,-0.000208, 0.120061, 0.217758, 0.220459,1, 0.044080,-0.029684,-0.009347,1, 0.075688, 0.021517,-0.975503, 0.044078,-0.029682,-0.009343, 0.127599, 0.235522,-0.112733,-0.000002, 0.000002, 0.000004,1,0
1777416079657218570,918817000000,   918.822, 0.000098, 0.000449,-0.006889, 0.001371, 0.000698, 0.000162,-0.296574, 1.195742, 0.841989,1, 0.089666, 0.012662, 0.001874,1, 0.032940, 0.119466,-0.912139, 0.089664, 0.012664, 0.001878, 0.128007, 0.235922,-0.114296,-0.000002, 0.000002, 0.000004,1,0
1777416079667302791,918817000000,   918.822, 0.000098, 0.000449,-0.006889, 0.001371, 0.000698, 0.000162,-0.296574, 1.195742, 0.841989,1, 0.089666, 0.012662, 0.001874,1, 0.032940, 0.119466,-0.912139, 0.089664, 0.012664, 0.001878, 0.128007, 0.235922,-0.114296,-0.000002, 0.000002, 0.000004,1,0
1777416079687011563,918837000000,   918.842,-0.001856,-0.000351,-0.008467, 0.000669,-0.000481, 0.000363,-0.827686,-0.006746, 0.884691,1, 0.057718,-0.057669, 0.020197,1,-0.022208,-0.004235,-0.907843, 0.057716,-0.057667, 0.020201, 0.128565, 0.236153,-0.114227,-0.000002, 0.000002, 0.000004,1,0
1777416079706752887,918857000000,   918.862,-0.000995, 0.000476,-0.008113,-0.000004,-0.001173, 0.000417,-0.867997, 0.351308, 1.037877,1,-0.024695,-0.069474, 0.026688,1,-0.027294, 0.031982,-0.892282,-0.024696,-0.069471, 0.026692, 0.128704, 0.236622,-0.115126,-0.000002, 0.000002, 0.000004,1,0
1777416079716420415,918877000000,   918.882,-0.000656,-0.001562,-0.009355,-0.000786, 0.000106, 0.000606,-0.557878,-0.697017,-0.916488,1,-0.101288,-0.016584, 0.034732,1, 0.003653,-0.074212,-1.091616,-0.101290,-0.016582, 0.034736, 0.128516, 0.237805,-0.114982,-0.000002, 0.000002, 0.000004,1,0
1777416079726503229,918877000000,   918.882,-0.000656,-0.001562,-0.009355,-0.000786, 0.000106, 0.000606,-0.557878,-0.697017,-0.916488,1,-0.101288,-0.016584, 0.034732,1, 0.003653,-0.074212,-1.091616,-0.101290,-0.016582, 0.034736, 0.128516, 0.237805,-0.114982,-0.000002, 0.000002, 0.000004,1,0
1777416079736165572,918897000000,   918.902, 0.001701,-0.000447,-0.008084,-0.001360, 0.000958, 0.000123, 0.018030,-0.327580, 0.900918,1,-0.069433, 0.043544, 0.025292,1, 0.062758,-0.035056,-0.906272,-0.069435, 0.043547, 0.025295, 0.128343, 0.238695,-0.114567,-0.000002, 0.000002, 0.000004,1,0
1777416079746248349,918897000000,   918.902, 0.001701,-0.000447,-0.008084,-0.001360, 0.000958, 0.000123, 0.018030,-0.327580, 0.900918,1,-0.069433, 0.043544, 0.025292,1, 0.062758,-0.035056,-0.906272,-0.069435, 0.043547, 0.025295, 0.128343, 0.238695,-0.114567,-0.000002, 0.000002, 0.000004,1,0
1777416079765982470,918917000000,   918.922,-0.000368,-0.000204,-0.008674,-0.000823,-0.000199, 0.000305,-0.645026,-0.509338, 0.878057,1,-0.130312,-0.006372, 0.022166,1,-0.004707,-0.051729,-0.908595,-0.130313,-0.006369, 0.022169, 0.128818, 0.239588,-0.114825,-0.000002, 0.000002, 0.000004,1,0
1777416079775679846,918937000000,   918.942, 0.000149,-0.001453,-0.005727, 0.001587, 0.000389, 0.000493,-0.596608,-0.817229, 1.389507,1,-0.016944, 0.025454, 0.038992,1, 0.000324,-0.081558,-0.856435,-0.016945, 0.025456, 0.038996, 0.129506, 0.240329,-0.115438,-0.000002, 0.000002, 0.000004,1,0
1777416079785779936,918937000000,   918.942, 0.000149,-0.001453,-0.005727, 0.001587, 0.000389, 0.000493,-0.596608,-0.817229, 1.389507,1,-0.016944, 0.025454, 0.038992,1, 0.000324,-0.081558,-0.856435,-0.016945, 0.025456, 0.038996, 0.129506, 0.240329,-0.115438,-0.000002, 0.000002, 0.000004,1,0
1777416079795374953,918957000000,   918.962, 0.000075,-0.002168,-0.011063, 0.001208,-0.000985, 0.000057,-0.304646,-1.190574, 0.133512,1, 0.029254,-0.065215, 0.010092,1, 0.029421,-0.119341,-0.984552, 0.029252,-0.065212, 0.010095, 0.129938, 0.241690,-0.115925,-0.000002, 0.000002, 0.000004,1,0
1777416079805458137,918957000000,   918.962, 0.000075,-0.002168,-0.011063, 0.001208,-0.000985, 0.000057,-0.304646,-1.190574, 0.133512,1, 0.029254,-0.065215, 0.010092,1, 0.029421,-0.119341,-0.984552, 0.029252,-0.065212, 0.010095, 0.129938, 0.241690,-0.115925,-0.000002, 0.000002, 0.000004,1,0
1777416079815124813,918977000000,   918.982,-0.000719, 0.007202,-0.014397, 0.000595,-0.001069,-0.000377,-0.685188, 2.913072,-1.646803,1, 0.052560,-0.071029,-0.023660,1,-0.010794, 0.299179,-1.166177, 0.052558,-0.071027,-0.023657, 0.129470, 0.242416,-0.116330,-0.000002, 0.000003, 0.000004,1,0
1777416079825220237,918977000000,   918.982,-0.000719, 0.007202,-0.014397, 0.000595,-0.001069,-0.000377,-0.685188, 2.913072,-1.646803,1, 0.052560,-0.071029,-0.023660,1,-0.010794, 0.299179,-1.166177, 0.052558,-0.071027,-0.023657, 0.129470, 0.242416,-0.116330,-0.000002, 0.000003, 0.000004,1,0
1777416079840760439,918997000000,   919.002, 0.000490, 0.000127,-0.019437, 0.000762,-0.003886, 0.000109,-0.244132,-0.343663,-1.962448,1, 0.058169,-0.127117, 0.007992,1, 0.034025,-0.034491,-1.198375, 0.058167,-0.127115, 0.007996, 0.130072, 0.243023,-0.116914,-0.000002, 0.000003, 0.000004,1,0
1777416079850491237,919017000000,   919.022, 0.001303,-0.002309,-0.012503, 0.000037,-0.000505,-0.000298, 0.228200,-1.240704,-0.916278,1, 0.051497,-0.023127,-0.010438,1, 0.081171,-0.127079,-1.091755, 0.051495,-0.023124,-0.010434, 0.129843, 0.243670,-0.117711,-0.000002, 0.000003, 0.000004,1,0
1777416079860594235,919017000000,   919.022, 0.001303,-0.002309,-0.012503, 0.000037,-0.000505,-0.000298, 0.228200,-1.240704,-0.916278,1, 0.051497,-0.023127,-0.010438,1, 0.081171,-0.127079,-1.091755, 0.051495,-0.023124,-0.010434, 0.129843, 0.243670,-0.117711,-0.000002, 0.000003, 0.000004,1,0
1777416079870184900,919037000000,   919.037,-0.001103,-0.000958, 0.002589, 0.001188, 0.003775, 0.000296,-1.339638, 1.062412, 2.813234,1, 0.067598, 0.109508,-0.002989,1,-0.079198, 0.105924,-0.711475, 0.067597, 0.109511,-0.002985, 0.131720, 0.243879,-0.119101,-0.000002, 0.000003, 0.000004,1,0
1777416079880268936,919037000000,   919.037,-0.001103,-0.000958, 0.002589, 0.001188, 0.003775, 0.000296,-1.339638, 1.062412, 2.813234,1, 0.067598, 0.109508,-0.002989,1,-0.079198, 0.105924,-0.711475, 0.067597, 0.109511,-0.002985, 0.131720, 0.243879,-0.119101,-0.000002, 0.000003, 0.000004,1,0
1777416079899959285,919057000000,   919.057,-0.003027, 0.000265,-0.011068, 0.001041,-0.000599, 0.000759,-1.077167, 0.668653,-0.003843,1, 0.053096,-0.032687, 0.041941,1,-0.052811, 0.065129,-0.998758, 0.053095,-0.032684, 0.041945, 0.131285, 0.244663,-0.119866,-0.000002, 0.000003, 0.000004,1,0
1777416079909324957,919077000000,   919.077, 0.000595, 0.000367,-0.011292, 0.000497,-0.000376, 0.000653,-0.664258, 0.482828, 0.480552,1,-0.070512, 0.002338, 0.045834,1,-0.000290, 0.030676,-1.004081,-0.021070,-0.007892, 0.057221, 0.132047, 0.245956,-0.120478,-0.000002, 0.000003, 0.000004,1,0
1777416079919411808,919077000000,   919.077, 0.000595, 0.000367,-0.011292, 0.000497,-0.000376, 0.000653,-0.664258, 0.482828, 0.480552,1,-0.070512, 0.002338, 0.045834,1,-0.000290, 0.030676,-1.004081,-0.021070,-0.007892, 0.057221, 0.132047, 0.245956,-0.120478,-0.000002, 0.000003, 0.000004,1,0
1777416079929055134,919097000000,   919.097, 0.000381,-0.001446,-0.014165,-0.001421,-0.000604, 0.001288,-0.371838, 1.196703, 0.574596,1,-0.058144,-0.000680, 0.063976,1, 0.012013,-0.010327,-1.177415,-0.108106,-0.032508, 0.093646, 0.132559, 0.246578,-0.119892,-0.000002, 0.000003, 0.000004,1,0
1777416079939139485,919097000000,   919.097, 0.000381,-0.001446,-0.014165,-0.001421,-0.000604, 0.001288,-0.371838, 1.196703, 0.574596,1,-0.058144,-0.000680, 0.063976,1, 0.012013,-0.010327,-1.177415,-0.108106,-0.032508, 0.093646, 0.132559, 0.246578,-0.119892,-0.000002, 0.000003, 0.000004,1,0
1777416079958849757,919117000000,   919.117, 0.002490, 0.000438,-0.009197,-0.000585, 0.000998, 0.000911,-0.685813,-0.778717, 0.952584,1,-0.060403, 0.018297, 0.101717,1, 0.103921,-0.038911,-0.927116,-0.044713, 0.050650, 0.100449, 0.133439, 0.247802,-0.119788,-0.000002, 0.000003, 0.000004,1,0
1777416079968530191,919137000000,   919.137, 0.000288,-0.000852,-0.004971,-0.000128, 0.000397, 0.000858,-0.015910, 0.213454,-1.708154,1,-0.096583, 0.015593, 0.085356,1, 0.035995,-0.010117,-0.820545,-0.075281, 0.029816, 0.082851, 0.134564, 0.248988,-0.119868,-0.000002, 0.000003, 0.000004,1,0
1777416079978613412,919137000000,   919.137, 0.000288,-0.000852,-0.004971,-0.000128, 0.000397, 0.000858,-0.015910, 0.213454,-1.708154,1,-0.096583, 0.015593, 0.085356,1, 0.035995,-0.010117,-0.820545,-0.075281, 0.029816, 0.082851, 0.134564, 0.248988,-0.119868,-0.000002, 0.000003, 0.000004,1,0
1777416079988278903,919157000000,   919.157,-0.000024,-0.001474,-0.001135, 0.001795, 0.001428, 0.000802, 0.122681, 0.219526,-1.598740,1,-0.087204,-0.001668, 0.082841,1, 0.036829,-0.046539,-0.637503, 0.027047, 0.063369, 0.079479, 0.136029, 0.249316,-0.120408,-0.000002, 0.000003, 0.000004,1,0
1777416079998362402,919157000000,   919.157,-0.000024,-0.001474,-0.001135, 0.001795, 0.001428, 0.000802, 0.122681, 0.219526,-1.598740,1,-0.087204,-0.001668, 0.082841,1, 0.036829,-0.046539,-0.637503, 0.027047, 0.063369, 0.079479, 0.136029, 0.249316,-0.120408,-0.000002, 0.000003, 0.000004,1,0
1777416080008021265,919177000000,   919.177, 0.000247,-0.001353,-0.001688, 0.000997,-0.000150, 0.000624, 0.390137, 0.254939,-2.409250,1,-0.004312,-0.004556, 0.073444,1, 0.068302,-0.041176,-0.725182, 0.044383,-0.003918, 0.066975, 0.135897, 0.249992,-0.121617,-0.000002, 0.000003, 0.000004,1,0
1777416080018104086,919177000000,   919.177, 0.000247,-0.001353,-0.001688, 0.000997,-0.000150, 0.000624, 0.390137, 0.254939,-2.409250,1,-0.004312,-0.004556, 0.073444,1, 0.068302,-0.041176,-0.725182, 0.044383,-0.003918, 0.066975, 0.135897, 0.249992,-0.121617,-0.000002, 0.000003, 0.000004,1,0
1777416080037812576,919197000000,   919.197,-0.000838, 0.005452,-0.001897, 0.003834, 0.000854, 0.000646,-0.209777,-0.797392,-3.909622,1,-0.054751,-0.068260, 0.055184,1,-0.011999, 0.165288,-0.750695, 0.176391, 0.017472, 0.061551, 0.137513, 0.251021,-0.121717,-0.000002, 0.000003, 0.000004,1,0
1777416080047469352,919217000000,   919.217,-0.000924,-0.000300,-0.014958, 0.001776,-0.001315, 0.000641,-0.167899,-0.222269, 0.322698,1, 0.003620,-0.010515, 0.070551,1,-0.034465,-0.041102,-1.162052, 0.085169,-0.044185, 0.068520, 0.137558, 0.251804,-0.122429,-0.000002, 0.000003, 0.000004,1,0
1777416080057552395,919217000000,   919.217,-0.000924,-0.000300,-0.014958, 0.001776,-0.001315, 0.000641,-0.167899,-0.222269, 0.322698,1, 0.003620,-0.010515, 0.070551,1,-0.034465,-0.041102,-1.162052, 0.085169,-0.044185, 0.068520, 0.137558, 0.251804,-0.122429,-0.000002, 0.000003, 0.000004,1,0
1777416080067215893,919227000000,   919.232, 0.000312,-0.000770,-0.006716,-0.000098, 0.000721, 0.000400,-0.516524,-0.702889, 0.079350,1, 0.039335, 0.010199, 0.056844,1, 0.004350,-0.072090,-0.990280, 0.039334, 0.010202, 0.056849, 0.138279, 0.252056,-0.122708,-0.000002, 0.000003, 0.000004,1,0
1777416080077298325,919227000000,   919.232, 0.000312,-0.000770,-0.006716,-0.000098, 0.000721, 0.000400,-0.516524,-0.702889, 0.079350,1, 0.039335, 0.010199, 0.056844,1, 0.004350,-0.072090,-0.990280, 0.039334, 0.010202, 0.056849, 0.138279, 0.252056,-0.122708,-0.000002, 0.000003, 0.000004,1,0
1777416080087010021,919247000000,   919.252,-0.000883, 0.000652,-0.008399, 0.001177, 0.000281, 0.000702,-0.852031, 0.030244, 0.555761,1, 0.066119, 0.021599, 0.054272,1,-0.029636, 0.001555,-0.941686, 0.066117, 0.021602, 0.054276, 0.139128, 0.252496,-0.123059,-0.000002, 0.000003, 0.000004,1,0
1777416080097092787,919247000000,   919.252,-0.000883, 0.000652,-0.008399, 0.001177, 0.000281, 0.000702,-0.852031, 0.030244, 0.555761,1, 0.066119, 0.021599, 0.054272,1,-0.029636, 0.001555,-0.941686, 0.066117, 0.021602, 0.054276, 0.139128, 0.252496,-0.123059,-0.000002, 0.000003, 0.000004,1,0
1777416080116748449,919267000000,   919.272,-0.000731, 0.000654,-0.012675,-0.001124,-0.001291, 0.000687,-1.046526, 0.558408,-0.959295,1,-0.051060,-0.040983, 0.064816,1,-0.049208, 0.055067,-1.096164,-0.051062,-0.040980, 0.064821, 0.140043, 0.252724,-0.124050,-0.000002, 0.000003, 0.000004,1,0
1777416080126424704,919287000000,   919.292,-0.000541,-0.000502,-0.011548,-0.000237,-0.000283, 0.000535,-1.378532,-0.537346,-0.114298,1,-0.023607,-0.015110, 0.057599,1,-0.083191,-0.056538,-1.010006,-0.023609,-0.015107, 0.057603, 0.140904, 0.252943,-0.125083,-0.000002, 0.000003, 0.000004,1,0
1777416080136507988,919287000000,   919.292,-0.000541,-0.000502,-0.011548,-0.000237,-0.000283, 0.000535,-1.378532,-0.537346,-0.114298,1,-0.023607,-0.015110, 0.057599,1,-0.083191,-0.056538,-1.010006,-0.023609,-0.015107, 0.057603, 0.140904, 0.252943,-0.125083,-0.000002, 0.000003, 0.000004,1,0
1777416080146186539,919307000000,   919.312, 0.000454,-0.000696,-0.013537,-0.000480, 0.000053, 0.000546,-0.781855,-1.018463,-1.437276,1,-0.001308,-0.003180, 0.060214,1,-0.022291,-0.104816,-1.144910,-0.001310,-0.003177, 0.060219, 0.141706, 0.253141,-0.125395,-0.000002, 0.000003, 0.000004,1,0
1777416080156269601,919307000000,   919.312, 0.000454,-0.000696,-0.013537,-0.000480, 0.000053, 0.000546,-0.781855,-1.018463,-1.437276,1,-0.001308,-0.003180, 0.060214,1,-0.022291,-0.104816,-1.144910,-0.001310,-0.003177, 0.060219, 0.141706, 0.253141,-0.125395,-0.000002, 0.000003, 0.000004,1,0
1777416080175965963,919327000000,   919.332,-0.000396,-0.000625,-0.007147,-0.000664, 0.000411, 0.000225,-1.001612,-0.365128, 1.230343,1,-0.047663, 0.017682, 0.039038,1,-0.044745,-0.036780,-0.872891,-0.047665, 0.017685, 0.039042, 0.142656, 0.253241,-0.125424,-0.000002, 0.000003, 0.000004,1,0
1777416080185689324,919347000000,   919.352,-0.001051,-0.000778,-0.011502,-0.000416, 0.000012, 0.000118,-1.279485,-0.933729,-0.133209,1,-0.071606, 0.003264, 0.017774,1,-0.072917,-0.093497,-1.011924,-0.071607, 0.003266, 0.017778, 0.143800, 0.253419,-0.125387,-0.000002, 0.000003, 0.000004,1,0
1777416080195772756,919347000000,   919.352,-0.001051,-0.000778,-0.011502,-0.000416, 0.000012, 0.000118,-1.279485,-0.933729,-0.133209,1,-0.071606, 0.003264, 0.017774,1,-0.072917,-0.093497,-1.011924,-0.071607, 0.003266, 0.017778, 0.143800, 0.253419,-0.125387,-0.000002, 0.000003, 0.000004,1,0
1777416080205381871,919367000000,   919.372,-0.000866,-0.000206,-0.006705, 0.001263, 0.000456,-0.000183,-1.252956,-0.241292, 1.752921,1,-0.018018, 0.023145,-0.009959,1,-0.069782,-0.021458,-0.819564,-0.018020, 0.023148,-0.009954, 0.144768, 0.253456,-0.124500,-0.000002, 0.000003, 0.000004,1,0
1777416080215464081,919367000000,   919.372,-0.000866,-0.000206,-0.006705, 0.001263, 0.000456,-0.000183,-1.252956,-0.241292, 1.752921,1,-0.018018, 0.023145,-0.009959,1,-0.069782,-0.021458,-0.819564,-0.018020, 0.023148,-0.009954, 0.144768, 0.253456,-0.124500,-0.000002, 0.000003, 0.000004,1,0
1777416080225128671,919387000000,   919.392,-0.000482,-0.000375,-0.005338, 0.001933, 0.000004,-0.000506,-1.091137,-0.139624, 1.954813,1, 0.045908,-0.013528,-0.038637,1,-0.053291,-0.011002,-0.798977, 0.045906,-0.013525,-0.038633, 0.144792, 0.253077,-0.125044,-0.000002, 0.000003, 0.000005,1,0
1777416080235212233,919387000000,   919.392,-0.000482,-0.000375,-0.005338, 0.001933, 0.000004,-0.000506,-1.091137,-0.139624, 1.954813,1, 0.045908,-0.013528,-0.038637,1,-0.053291,-0.011002,-0.798977, 0.045906,-0.013525,-0.038633, 0.144792, 0.253077,-0.125044,-0.000002, 0.000003, 0.000005,1,0
1777416080250752576,919407000000,   919.412,-0.001327, 0.002748,-0.011665, 0.000219,-0.000069,-0.000801,-1.636949, 1.347049,-0.462816,1, 0.003601,-0.019612,-0.066698,1,-0.109563, 0.140286,-1.045543, 0.003600,-0.019610,-0.066693, 0.145259, 0.252863,-0.126266,-0.000002, 0.000003, 0.000005,1,0
1777416080260444829,919427000000,   919.432, 0.000659, 0.000321,-0.019356,-0.001556,-0.002316,-0.000927,-0.558480, 0.063051,-2.203267,1,-0.031644,-0.090585,-0.080761,1, 0.000584, 0.008263,-1.223012,-0.031645,-0.090582,-0.080756, 0.145567, 0.252457,-0.127326,-0.000002, 0.000003, 0.000005,1,0
1777416080270527428,919427000000,   919.432, 0.000659, 0.000321,-0.019356,-0.001556,-0.002316,-0.000927,-0.558480, 0.063051,-2.203267,1,-0.031644,-0.090585,-0.080761,1, 0.000584, 0.008263,-1.223012,-0.031645,-0.090582,-0.080756, 0.145567, 0.252457,-0.127326,-0.000002, 0.000003, 0.000005,1,0
1777416080280167947,919447000000,   919.447,-0.000454,-0.002739,-0.002741, 0.001973, 0.002293,-0.001041,-1.214236,-0.943947, 1.711365,1, 0.106116, 0.071092,-0.095705,1,-0.066567,-0.095424,-0.823847, 0.106114, 0.071095,-0.095700, 0.146864, 0.252101,-0.128475,-0.000002, 0.000003, 0.000005,1,0
1777416080290250972,919447000000,   919.447,-0.000454,-0.002739,-0.002741, 0.001973, 0.002293,-0.001041,-1.214236,-0.943947, 1.711365,1, 0.106116, 0.071092,-0.095705,1,-0.066567,-0.095424,-0.823847, 0.106114, 0.071095,-0.095700, 0.146864, 0.252101,-0.128475,-0.000002, 0.000003, 0.000005,1,0
1777416080309959887,919467000000,   919.467,-0.000829, 0.001791,-0.008031, 0.000547,-0.000890,-0.000531,-0.640419, 1.322759, 0.940449,1, 0.056033,-0.030840,-0.090033,1,-0.007790, 0.134815,-0.902445, 0.056032,-0.030837,-0.090028, 0.147242, 0.251540,-0.127999,-0.000002, 0.000003, 0.000005,1,0
1777416080319321751,919487000000,   919.487,-0.002421, 0.000837,-0.008672, 0.000441,-0.000109,-0.000414, 0.497428, 0.901667,-0.418809,1,-0.004605,-0.031214,-0.084775,1,-0.053814, 0.103392,-0.906911, 0.021600,-0.012416,-0.067290, 0.147621, 0.250999,-0.128309,-0.000002, 0.000003, 0.000005,1,0
1777416080329420830,919487000000,   919.487,-0.002421, 0.000837,-0.008672, 0.000441,-0.000109,-0.000414, 0.497428, 0.901667,-0.418809,1,-0.004605,-0.031214,-0.084775,1,-0.053814, 0.103392,-0.906911, 0.021600,-0.012416,-0.067290, 0.147621, 0.250999,-0.128309,-0.000002, 0.000003, 0.000005,1,0
1777416080339061089,919507000000,   919.507,-0.000846,-0.000378,-0.011731,-0.000098,-0.000995,-0.000030,-0.068858, 0.085436, 0.716267,1,-0.032504, 0.060147,-0.059328,1,-0.029119,-0.031132,-1.028391,-0.022325,-0.009013,-0.031382, 0.147292, 0.250293,-0.129595,-0.000002, 0.000003, 0.000005,1,0
1777416080349143744,919507000000,   919.507,-0.000846,-0.000378,-0.011731,-0.000098,-0.000995,-0.000030,-0.068858, 0.085436, 0.716267,1,-0.032504, 0.060147,-0.059328,1,-0.029119,-0.031132,-1.028391,-0.022325,-0.009013,-0.031382, 0.147292, 0.250293,-0.129595,-0.000002, 0.000003, 0.000005,1,0
1777416080368863492,919527000000,   919.527, 0.000379,-0.000976,-0.014069,-0.000277, 0.000277,-0.000016,-0.733810,-0.651277, 0.481986,1,-0.049754, 0.019706,-0.025075,1, 0.002004,-0.113151,-1.170939,-0.023528, 0.028789,-0.012050, 0.148100, 0.250091,-0.128962,-0.000002, 0.000003, 0.000005,1,0
1777416080378532859,919547000000,   919.547,-0.000253,-0.000745,-0.007379,-0.000840, 0.001454,-0.000065,-0.916359,-0.545534, 0.112715,1,-0.025750, 0.037901,-0.005504,1,-0.027961,-0.070013,-0.883966,-0.043521, 0.084096,-0.004284, 0.149092, 0.249789,-0.129437,-0.000002, 0.000003, 0.000005,1,0
1777416080388616402,919547000000,   919.547,-0.000253,-0.000745,-0.007379,-0.000840, 0.001454,-0.000065,-0.916359,-0.545534, 0.112715,1,-0.025750, 0.037901,-0.005504,1,-0.027961,-0.070013,-0.883966,-0.043521, 0.084096,-0.004284, 0.149092, 0.249789,-0.129437,-0.000002, 0.000003, 0.000005,1,0
1777416080398261791,919567000000,   919.567,-0.000743,-0.001226,-0.011496,-0.000976,-0.000648,-0.000223,-0.758411,-1.149346,-0.097793,1,-0.069429, 0.049944,-0.012849,1,-0.057131,-0.114584,-1.042918,-0.084637, 0.003554,-0.015826, 0.149671, 0.248807,-0.129470,-0.000002, 0.000003, 0.000005,1,0
1777416080408344001,919567000000,   919.567,-0.000743,-0.001226,-0.011496,-0.000976,-0.000648,-0.000223,-0.758411,-1.149346,-0.097793,1,-0.069429, 0.049944,-0.012849,1,-0.057131,-0.114584,-1.042918,-0.084637, 0.003554,-0.015826, 0.149671, 0.248807,-0.129470,-0.000002, 0.000003, 0.000005,1,0
1777416080418018590,919587000000,   919.587,-0.000680, 0.000449,-0.006522, 0.001456, 0.000541,-0.000211,-0.773516,-0.672438,-1.412540,1,-0.118569, 0.005310,-0.021349,1,-0.034837,-0.039332,-0.899305, 0.002516, 0.034816,-0.019802, 0.149588, 0.248084,-0.129071,-0.000002, 0.000003, 0.000005,1,0
1777416080428101929,919587000000,   919.587,-0.000680, 0.000449,-0.006522, 0.001456, 0.000541,-0.000211,-0.773516,-0.672438,-1.412540,1,-0.118569, 0.005310,-0.021349,1,-0.034837,-0.039332,-0.899305, 0.002516, 0.034816,-0.019802, 0.149588, 0.248084,-0.129071,-0.000002, 0.000003, 0.000005,1,0
1777416080447810382,919607000000,   919.607, 0.000090, 0.000895,-0.011534, 0.001098,-0.001266,-0.000343,-0.481089,-0.888755, 0.864077,1,-0.066722, 0.010734,-0.030978,1,-0.004837,-0.018001,-0.943264, 0.017229,-0.036946,-0.031074, 0.149924, 0.246949,-0.129357,-0.000002, 0.000003, 0.000005,1,0
1777416080457476990,919627000000,   919.627, 0.000597, 0.003387,-0.014880,-0.000833,-0.000718,-0.000776,-0.380087,-0.615752,-0.800950,1, 0.005933,-0.015920,-0.042203,1, 0.048034, 0.149045,-1.263725,-0.042740,-0.042947,-0.059463, 0.150206, 0.246642,-0.129549,-0.000002, 0.000003, 0.000005,1,0
1777416080467575124,919627000000,   919.627, 0.000597, 0.003387,-0.014880,-0.000833,-0.000718,-0.000776,-0.380087,-0.615752,-0.800950,1, 0.005933,-0.015920,-0.042203,1, 0.048034, 0.149045,-1.263725,-0.042740,-0.042947,-0.059463, 0.150206, 0.246642,-0.129549,-0.000002, 0.000003, 0.000005,1,0
1777416080477216791,919637000000,   919.642,-0.000940,-0.000085, 0.000840, 0.003338, 0.001672, 0.000325,-0.749016, 0.275994, 3.585361,1, 0.109801, 0.055194,-0.016615,1,-0.016578, 0.032045,-0.632597, 0.109799, 0.055197,-0.016609, 0.150516, 0.245932,-0.130274,-0.000002, 0.000003, 0.000005,1,0
1777416080487300464,919637000000,   919.642,-0.000940,-0.000085, 0.000840, 0.003338, 0.001672, 0.000325,-0.749016, 0.275994, 3.585361,1, 0.109801, 0.055194,-0.016615,1,-0.016578, 0.032045,-0.632597, 0.109799, 0.055197,-0.016609, 0.150516, 0.245932,-0.130274,-0.000002, 0.000003, 0.000005,1,0
1777416080507011435,919657000000,   919.662,-0.001168,-0.000323,-0.010289, 0.000187,-0.000638,-0.000116,-0.202826, 0.715155,-0.526572,1, 0.031833,-0.066053,-0.019323,1, 0.038352, 0.076171,-1.051945, 0.031831,-0.066050,-0.019317, 0.150431, 0.245104,-0.131483,-0.000002, 0.000003, 0.000005,1,0
1777416080526761994,919677000000,   919.682, 0.000749, 0.001624,-0.012227, 0.000194,-0.000383,-0.000070,-0.065839, 1.050307,-0.394371,1, 0.016551,-0.037590,-0.024372,1, 0.052116, 0.109059,-1.038480, 0.016549,-0.037587,-0.024367, 0.151111, 0.244232,-0.131351,-0.000002, 0.000003, 0.000005,1,0
1777416080536449896,919697000000,   919.702, 0.000503,-0.000232,-0.008178, 0.000234, 0.000069, 0.000230,-0.542284, 0.337645, 0.736003,1, 0.015008, 0.005032, 0.009250,1, 0.003426, 0.035057,-0.923222, 0.015006, 0.005035, 0.009255, 0.151541, 0.242804,-0.131365,-0.000002, 0.000003, 0.000005,1,0
1777416080546532550,919697000000,   919.702, 0.000503,-0.000232,-0.008178, 0.000234, 0.000069, 0.000230,-0.542284, 0.337645, 0.736003,1, 0.015008, 0.005032, 0.009250,1, 0.003426, 0.035057,-0.923222, 0.015006, 0.005035, 0.009255, 0.151541, 0.242804,-0.131365,-0.000002, 0.000003, 0.000005,1,0
1777416080556176050,919717000000,   919.722, 0.000423,-0.001935,-0.005992, 0.000346, 0.000953, 0.000219,-0.281157,-0.436780, 0.976220,1,-0.022476, 0.022503, 0.015598,1, 0.029811,-0.044207,-0.898741,-0.022478, 0.022506, 0.015603, 0.151513, 0.242046,-0.131157,-0.000002, 0.000003, 0.000005,1,0
1777416080566259779,919717000000,   919.722, 0.000423,-0.001935,-0.005992, 0.000346, 0.000953, 0.000219,-0.281157,-0.436780, 0.976220,1,-0.022476, 0.022503, 0.015598,1, 0.029811,-0.044207,-0.898741,-0.022478, 0.022506, 0.015603, 0.151513, 0.242046,-0.131157,-0.000002, 0.000003, 0.000005,1,0
1777416080585979452,919737000000,   919.742, 0.000339,-0.000991,-0.008020, 0.000077, 0.000037, 0.000504,-0.652005,-0.453871, 0.674140,1,-0.001346,-0.016629, 0.042354,1,-0.008193,-0.045522,-0.929556,-0.001348,-0.016626, 0.042360, 0.152439, 0.241670,-0.131345,-0.000002, 0.000003, 0.000005,1,0
1777416080595705924,919757000000,   919.762,-0.001655, 0.000014,-0.006775,-0.000678, 0.000250, 0.000502,-1.168217, 0.237717, 0.774555,1,-0.038499, 0.007285, 0.050262,1,-0.061142, 0.026282,-0.919332,-0.038501, 0.007288, 0.050268, 0.152864, 0.240810,-0.131087,-0.000002, 0.000003, 0.000005,1,0
1777416080605789282,919757000000,   919.762,-0.001655, 0.000014,-0.006775,-0.000678, 0.000250, 0.000502,-1.168217, 0.237717, 0.774555,1,-0.038499, 0.007285, 0.050262,1,-0.061142, 0.026282,-0.919332,-0.038501, 0.007288, 0.050268, 0.152864, 0.240810,-0.131087,-0.000002, 0.000003, 0.000005,1,0
1777416080625017862,919777000000,   919.782,-0.000347,-0.001996,-0.009726,-0.000427, 0.000010, 0.000495,-0.833395,-1.266666, 0.501140,1,-0.059782, 0.013771, 0.048831,1,-0.026738,-0.126267,-0.947196,-0.059784, 0.013774, 0.048837, 0.152810, 0.239718,-0.131823,-0.000002, 0.000003, 0.000006,1,0
1777416080640585147,919797000000,   919.802,-0.000856,-0.000447,-0.006566,-0.000998, 0.000796, 0.000386,-0.861447,-0.385543, 0.393832,1,-0.082947, 0.033503, 0.035255,1,-0.029740,-0.035110,-0.958141,-0.082949, 0.033506, 0.035261, 0.153269, 0.239040,-0.131499,-0.000002, 0.000003, 0.000006,1,0
1777416080650266790,919817000000,   919.822,-0.000176,-0.001893,-0.002714,-0.000146, 0.000582, 0.000343,-0.467366,-1.095440, 2.678475,1,-0.033375, 0.030441, 0.033261,1, 0.011024,-0.106931,-0.725136,-0.033377, 0.030444, 0.033267, 0.153596, 0.237901,-0.131611,-0.000002, 0.000003, 0.000006,1,0
1777416080660351611,919817000000,   919.822,-0.000176,-0.001893,-0.002714,-0.000146, 0.000582, 0.000343,-0.467366,-1.095440, 2.678475,1,-0.033375, 0.030441, 0.033261,1, 0.011024,-0.106931,-0.725136,-0.033377, 0.030444, 0.033267, 0.153596, 0.237901,-0.131611,-0.000002, 0.000003, 0.000006,1,0
1777416080670022423,919837000000,   919.837, 0.000442,-0.001484,-0.004336, 0.000871, 0.000839,-0.000115,-0.298756,-1.627534, 1.400433,1, 0.063083, 0.012348, 0.014675,1, 0.027694,-0.161614,-0.855493, 0.063081, 0.012351, 0.014681, 0.153635, 0.236926,-0.131288,-0.000002, 0.000003, 0.000006,1,0
