Time,reference_time,gps_timestamp,deltaVelX,deltaVelY,deltaVelZ,deltaThetaX,deltaThetaY,deltaThetaZ,estLinearAccelX,estLinearAccelY,estLinearAccelZ,estLinearAccel:valid,estAngularRateX,estAngularRateY,estAngularRateZ,estAngularRate:valid,scaledAccelX,scaledAccelY,scaledAccelZ,scaledGyroX,scaledGyroY,scaledGyroZ,scaledMagX,scaledMagY,scaledMagZ,estGyroBiasX,estGyroBiasY,estGyroBiasZ,estGyroBias:valid,flagStop
1777415925181850257,740403000000,   740.403,-0.000006,-0.000034,-0.009960,-0.000012, 0.000032, 0.000189,-0.088746,-0.028401, 0.040616,1,-0.001074, 0.003072, 0.018376,1,-0.000539,-0.003601,-0.995921,-0.001112, 0.003125, 0.018658, 0.117927, 0.246103,-0.112604,-0.000000, 0.000000, 0.000000,1,0
1777415925201720431,764333000000,   764.338,-0.000000,-0.000028,-0.009961,-0.000029, 0.000027, 0.000170,-0.554480,-0.039150, 0.026243,1,-0.002381, 0.002979, 0.017112,1,-0.000616,-0.003935,-0.995759,-0.002381, 0.002979, 0.017112, 0.117370, 0.246407,-0.111196,-0.000000, 0.000000,-0.000000,1,0
1777415925211391229,764353000000,   764.353, 0.000021,-0.000021,-0.009974,-0.000022, 0.000035, 0.000170,-0.538609,-0.030868, 0.018346,1,-0.002129, 0.003301, 0.016995,1, 0.001067,-0.003065,-0.996560,-0.002129, 0.003301, 0.016995, 0.117388, 0.246361,-0.110940,-0.000000, 0.000000,-0.000000,1,0
1777415925221477275,764353000000,   764.353, 0.000021,-0.000021,-0.009974,-0.000022, 0.000035, 0.000170,-0.538609,-0.030868, 0.018346,1,-0.002129, 0.003301, 0.016995,1, 0.001067,-0.003065,-0.996560,-0.002129, 0.003301, 0.016995, 0.117388, 0.246361,-0.110940,-0.000000, 0.000000,-0.000000,1,0
1777415925240891312,764373000000,   764.373,-0.000011,-0.000003,-0.009979,-0.000018, 0.000034, 0.000177,-0.554117,-0.009894, 0.021499,1,-0.001797, 0.003225, 0.017526,1,-0.000449,-0.000906,-0.996235,-0.001797, 0.003225, 0.017526, 0.117042, 0.245968,-0.110763,-0.000000, 0.000000,-0.000000,1,0
1777415925250153639,764393000000,   764.393,-0.000010,-0.000025,-0.009951,-0.000011, 0.000035, 0.000183,-0.554874,-0.009867, 0.024550,1,-0.001605, 0.002935, 0.018030,1,-0.001018,-0.001705,-0.995650,-0.001343, 0.003190, 0.018167, 0.117224, 0.245806,-0.111249,-0.000000, 0.000000,-0.000000,1,0
1777415925260239444,764393000000,   764.393,-0.000010,-0.000025,-0.009951,-0.000011, 0.000035, 0.000183,-0.554874,-0.009867, 0.024550,1,-0.001605, 0.002935, 0.018030,1,-0.001018,-0.001705,-0.995650,-0.001343, 0.003190, 0.018167, 0.117224, 0.245806,-0.111249,-0.000000, 0.000000,-0.000000,1,0
1777415925280026528,764413000000,   764.413, 0.000003,-0.000023,-0.009958,-0.000005, 0.000031, 0.000193,-0.547106,-0.023137, 0.025506,1,-0.000793, 0.003227, 0.018404,1,-0.000240,-0.002331,-0.995892,-0.000667, 0.003101, 0.018821, 0.117458, 0.246292,-0.111225,-0.000000, 0.000000,-0.000000,1,0
1777415925299716206,764433000000,   764.433,-0.000000,-0.000037,-0.009952,-0.000007, 0.000036, 0.000190,-0.539819,-0.026582, 0.022442,1,-0.000571, 0.003259, 0.019093,1,-0.000095,-0.003107,-0.995704,-0.000647, 0.003427, 0.019062, 0.116965, 0.246707,-0.111105,-0.000000, 0.000000,-0.000000,1,0
1777415925309344709,764453000000,   764.453,-0.000006,-0.000028,-0.009953,-0.000014, 0.000030, 0.000194,-0.538799,-0.029627, 0.024287,1,-0.000861, 0.003318, 0.018831,1,-0.000289,-0.002918,-0.995737,-0.001106, 0.003191, 0.019119, 0.117595, 0.246384,-0.110852,-0.000000, 0.000000,-0.000000,1,0
1777415925319429421,764453000000,   764.453,-0.000006,-0.000028,-0.009953,-0.000014, 0.000030, 0.000194,-0.538799,-0.029627, 0.024287,1,-0.000861, 0.003318, 0.018831,1,-0.000289,-0.002918,-0.995737,-0.001106, 0.003191, 0.019119, 0.117595, 0.246384,-0.110852,-0.000000, 0.000000,-0.000000,1,0
1777415925329094848,764473000000,   764.473,-0.000002,-0.000035,-0.009952,-0.000006, 0.000030, 0.000197,-0.540381,-0.030982, 0.020733,1,-0.000603, 0.003201, 0.019276,1,-0.000172,-0.003342,-0.995811,-0.000564, 0.003077, 0.019460, 0.117029, 0.246339,-0.110638,-0.000000, 0.000000,-0.000000,1,0
1777415925339178950,764473000000,   764.473,-0.000002,-0.000035,-0.009952,-0.000006, 0.000030, 0.000197,-0.540381,-0.030982, 0.020733,1,-0.000603, 0.003201, 0.019276,1,-0.000172,-0.003342,-0.995811,-0.000564, 0.003077, 0.019460, 0.117029, 0.246339,-0.110638,-0.000000, 0.000000,-0.000000,1,0
1777415925358896961,764493000000,   764.493,-0.000008,-0.000044,-0.009962,-0.000004, 0.000034, 0.000193,-0.540434,-0.036067, 0.024065,1,-0.000821, 0.003359, 0.019638,1,-0.000439,-0.004021,-0.996164,-0.000595, 0.003432, 0.019495, 0.117461, 0.246475,-0.110787,-0.000000, 0.000000,-0.000000,1,0
1777415925368584147,764503000000,   764.508,-0.000008,-0.000055,-0.009953,-0.000007, 0.000035, 0.000197,-0.546017,-0.046106, 0.026378,1,-0.000605, 0.003491, 0.019618,1,-0.000574,-0.004710,-0.995791,-0.000605, 0.003491, 0.019618, 0.116980, 0.246664,-0.110384,-0.000000, 0.000000,-0.000000,1,0
1777415925378667619,764503000000,   764.508,-0.000008,-0.000055,-0.009953,-0.000007, 0.000035, 0.000197,-0.546017,-0.046106, 0.026378,1,-0.000605, 0.003491, 0.019618,1,-0.000574,-0.004710,-0.995791,-0.000605, 0.003491, 0.019618, 0.116980, 0.246664,-0.110384,-0.000000, 0.000000,-0.000000,1,0
1777415925388290362,764523000000,   764.528,-0.000014,-0.000067,-0.009950,-0.000016, 0.000028, 0.000188,-0.550607,-0.058360, 0.027812,1,-0.001327, 0.003017, 0.018972,1,-0.000979,-0.005961,-0.995641,-0.001328, 0.003017, 0.018972, 0.117005, 0.245958,-0.111044,-0.000000, 0.000000,-0.000000,1,0
1777415925398374723,764523000000,   764.528,-0.000014,-0.000067,-0.009950,-0.000016, 0.000028, 0.000188,-0.550607,-0.058360, 0.027812,1,-0.001327, 0.003017, 0.018972,1,-0.000979,-0.005961,-0.995641,-0.001328, 0.003017, 0.018972, 0.117005, 0.245958,-0.111044,-0.000000, 0.000000,-0.000000,1,0
1777415925408048742,764543000000,   764.548,-0.000016,-0.000062,-0.009945,-0.000013, 0.000034, 0.000179,-0.555248,-0.061373, 0.029554,1,-0.001527, 0.003396, 0.018278,1,-0.001385,-0.006260,-0.995460,-0.001527, 0.003396, 0.018278, 0.116586, 0.246439,-0.111353,-0.000000, 0.000000,-0.000000,1,0
1777415925418133047,764543000000,   764.548,-0.000016,-0.000062,-0.009945,-0.000013, 0.000034, 0.000179,-0.555248,-0.061373, 0.029554,1,-0.001527, 0.003396, 0.018278,1,-0.001385,-0.006260,-0.995460,-0.001527, 0.003396, 0.018278, 0.116586, 0.246439,-0.111353,-0.000000, 0.000000,-0.000000,1,0
1777415925437838670,764563000000,   764.568,-0.000010,-0.000036,-0.009948,-0.000019, 0.000024, 0.000174,-0.553299,-0.045875, 0.028805,1,-0.001805, 0.002937, 0.017687,1,-0.001121,-0.004666,-0.995532,-0.001805, 0.002937, 0.017687, 0.116982, 0.246537,-0.111041,-0.000000, 0.000000,-0.000000,1,0
1777415925447532541,764583000000,   764.588, 0.000001,-0.000007,-0.009957,-0.000018, 0.000030, 0.000178,-0.540321,-0.021535, 0.027017,1,-0.001864, 0.002954, 0.017692,1,-0.000333,-0.002207,-0.995744,-0.001864, 0.002954, 0.017692, 0.117356, 0.246548,-0.110831,-0.000000, 0.000000,-0.000000,1,0
1777415925457616772,764583000000,   764.588, 0.000001,-0.000007,-0.009957,-0.000018, 0.000030, 0.000178,-0.540321,-0.021535, 0.027017,1,-0.001864, 0.002954, 0.017692,1,-0.000333,-0.002207,-0.995744,-0.001864, 0.002954, 0.017692, 0.117356, 0.246548,-0.110831,-0.000000, 0.000000,-0.000000,1,0
1777415925467302310,764603000000,   764.608, 0.000012, 0.000014,-0.009957,-0.000008, 0.000029, 0.000193,-0.524711, 0.002340, 0.028205,1,-0.001219, 0.003106, 0.018626,1, 0.000747, 0.000199,-0.995651,-0.001220, 0.003106, 0.018626, 0.117492, 0.246619,-0.110440,-0.000000, 0.000000,-0.000000,1,0
1777415925477386560,764603000000,   764.608, 0.000012, 0.000014,-0.009957,-0.000008, 0.000029, 0.000193,-0.524711, 0.002340, 0.028205,1,-0.001219, 0.003106, 0.018626,1, 0.000747, 0.000199,-0.995651,-0.001220, 0.003106, 0.018626, 0.117492, 0.246619,-0.110440,-0.000000, 0.000000,-0.000000,1,0
1777415925497051109,764623000000,   764.628,-0.000002,-0.000004,-0.009962,-0.000005, 0.000036, 0.000201,-0.528822,-0.000918, 0.026600,1,-0.000838, 0.003430, 0.019515,1, 0.000225,-0.000142,-0.995820,-0.000838, 0.003430, 0.019515, 0.117617, 0.246374,-0.111117,-0.000000, 0.000000,-0.000000,1,0
1777415925516793305,764643000000,   764.648,-0.000008,-0.000036,-0.009968,-0.000009, 0.000029, 0.000210,-0.535167,-0.021514, 0.024202,1,-0.000739, 0.003205, 0.020475,1,-0.000405,-0.002255,-0.996064,-0.000739, 0.003205, 0.020475, 0.117847, 0.246429,-0.111505,-0.000000, 0.000000,-0.000000,1,0
1777415925526485268,764663000000,   764.668,-0.000009,-0.000064,-0.009970, 0.000001, 0.000038, 0.000201,-0.539059,-0.048116, 0.023689,1,-0.000283, 0.003561, 0.020354,1,-0.000749,-0.004979,-0.996113,-0.000283, 0.003561, 0.020354, 0.117719, 0.246669,-0.111274,-0.000000, 0.000000,-0.000000,1,0
1777415925536569555,764663000000,   764.668,-0.000009,-0.000064,-0.009970, 0.000001, 0.000038, 0.000201,-0.539059,-0.048116, 0.023689,1,-0.000283, 0.003561, 0.020354,1,-0.000749,-0.004979,-0.996113,-0.000283, 0.003561, 0.020354, 0.117719, 0.246669,-0.111274,-0.000000, 0.000000,-0.000000,1,0
1777415925546246908,764683000000,   764.688,-0.000017,-0.000087,-0.009972,-0.000009, 0.000030, 0.000191,-0.544631,-0.071643, 0.022968,1,-0.000644, 0.003186, 0.019610,1,-0.001256,-0.007392,-0.996183,-0.000644, 0.003186, 0.019610, 0.117582, 0.246503,-0.111268,-0.000000, 0.000000,-0.000000,1,0
1777415925556330880,764683000000,   764.688,-0.000017,-0.000087,-0.009972,-0.000009, 0.000030, 0.000191,-0.544631,-0.071643, 0.022968,1,-0.000644, 0.003186, 0.019610,1,-0.001256,-0.007392,-0.996183,-0.000644, 0.003186, 0.019610, 0.117582, 0.246503,-0.111268,-0.000000, 0.000000,-0.000000,1,0
1777415925571856577,764703000000,   764.708,-0.000022,-0.000089,-0.009969,-0.000019, 0.000026, 0.000177,-0.551126,-0.082831, 0.023811,1,-0.001291, 0.002907, 0.018389,1,-0.001858,-0.008537,-0.996094,-0.001291, 0.002907, 0.018389, 0.117495, 0.246200,-0.110854,-0.000000, 0.000000,-0.000000,1,0
1777415925581554762,764723000000,   764.723,-0.000010,-0.000057,-0.009959,-0.000028, 0.000039, 0.000164,-0.548242,-0.067140, 0.026036,1,-0.002050, 0.003249, 0.017218,1,-0.001506,-0.006924,-0.995864,-0.002050, 0.003250, 0.017218, 0.117039, 0.245963,-0.110395,-0.000000, 0.000000,-0.000000,1,0
1777415925591640160,764723000000,   764.723,-0.000010,-0.000057,-0.009959,-0.000028, 0.000039, 0.000164,-0.548242,-0.067140, 0.026036,1,-0.002050, 0.003249, 0.017218,1,-0.001506,-0.006924,-0.995864,-0.002050, 0.003250, 0.017218, 0.117039, 0.245963,-0.110395,-0.000000, 0.000000,-0.000000,1,0
1777415925601253459,764743000000,   764.743,-0.000002,-0.000022,-0.009953,-0.000026, 0.000035, 0.000163,-0.541498,-0.039153, 0.028815,1,-0.002360, 0.003355, 0.016643,1,-0.000752,-0.004043,-0.995577,-0.002360, 0.003355, 0.016643, 0.117044, 0.246205,-0.110725,-0.000000, 0.000000,-0.000000,1,0
1777415925611337598,764743000000,   764.743,-0.000002,-0.000022,-0.009953,-0.000026, 0.000035, 0.000163,-0.541498,-0.039153, 0.028815,1,-0.002360, 0.003355, 0.016643,1,-0.000752,-0.004043,-0.995577,-0.002360, 0.003355, 0.016643, 0.117044, 0.246205,-0.110725,-0.000000, 0.000000,-0.000000,1,0
1777415925630756950,764763000000,   764.763, 0.000002,-0.000001,-0.009946,-0.000014, 0.000042, 0.000177,-0.538451,-0.023666, 0.026581,1,-0.001680, 0.003277, 0.016712,1,-0.000122,-0.001361,-0.995299,-0.001587, 0.003686, 0.017152, 0.117873, 0.246224,-0.111562,-0.000000, 0.000000,-0.000000,1,0
1777415925640445692,764783000000,   764.783, 0.000011, 0.000010,-0.009957,-0.000009, 0.000035, 0.000183,-0.533837,-0.002320, 0.027061,1,-0.001622, 0.003419, 0.017500,1, 0.000604, 0.000350,-0.995744,-0.001276, 0.003471, 0.017880, 0.117210, 0.246362,-0.112089,-0.000000, 0.000000,-0.000000,1,0
1777415925650530812,764783000000,   764.783, 0.000011, 0.000010,-0.009957,-0.000009, 0.000035, 0.000183,-0.533837,-0.002320, 0.027061,1,-0.001622, 0.003419, 0.017500,1, 0.000604, 0.000350,-0.995744,-0.001276, 0.003471, 0.017880, 0.117210, 0.246362,-0.112089,-0.000000, 0.000000,-0.000000,1,0
1777415925660204405,764803000000,   764.803, 0.000007,-0.000003,-0.009958,-0.000003, 0.000035, 0.000196,-0.518704, 0.005414, 0.027016,1,-0.001135, 0.003280, 0.018419,1, 0.000721, 0.000069,-0.995817,-0.000724, 0.003392, 0.018997, 0.117460, 0.246367,-0.111713,-0.000000, 0.000000,-0.000000,1,0
1777415925670288636,764803000000,   764.803, 0.000007,-0.000003,-0.009958,-0.000003, 0.000035, 0.000196,-0.518704, 0.005414, 0.027016,1,-0.001135, 0.003280, 0.018419,1, 0.000721, 0.000069,-0.995817,-0.000724, 0.003392, 0.018997, 0.117460, 0.246367,-0.111713,-0.000000, 0.000000,-0.000000,1,0
1777415925680019062,764823000000,   764.823,-0.000004,-0.000032,-0.009956,-0.000005, 0.000032, 0.000205,-0.517137,-0.008611, 0.026310,1,-0.000406, 0.003152, 0.019281,1, 0.000110,-0.002059,-0.995754,-0.000427, 0.003175, 0.019826, 0.117103, 0.246409,-0.110876,-0.000000, 0.000000,-0.000000,1,0
1777415925690104904,764823000000,   764.823,-0.000004,-0.000032,-0.009956,-0.000005, 0.000032, 0.000205,-0.517137,-0.008611, 0.026310,1,-0.000406, 0.003152, 0.019281,1, 0.000110,-0.002059,-0.995754,-0.000427, 0.003175, 0.019826, 0.117103, 0.246409,-0.110876,-0.000000, 0.000000,-0.000000,1,0
1777415925709748362,764843000000,   764.843,-0.000011,-0.000065,-0.009957,-0.000004, 0.000025, 0.000197,-0.526928,-0.034518, 0.026224,1,-0.000732, 0.003119, 0.020043,1,-0.000701,-0.004943,-0.995793,-0.000579, 0.002828, 0.019910, 0.117170, 0.246628,-0.109687,-0.000000, 0.000000,-0.000000,1,0
1777415925719389771,764863000000,   764.863,-0.000015,-0.000080,-0.009962,-0.000009, 0.000028, 0.000194,-0.534031,-0.056595, 0.025563,1,-0.000941, 0.002920, 0.019696,1,-0.001312,-0.006848,-0.996093,-0.000904, 0.002870, 0.019512, 0.117176, 0.246561,-0.110104,-0.000000, 0.000000,-0.000000,1,0
1777415925729500242,764863000000,   764.863,-0.000015,-0.000080,-0.009962,-0.000009, 0.000028, 0.000194,-0.534031,-0.056595, 0.025563,1,-0.000941, 0.002920, 0.019696,1,-0.001312,-0.006848,-0.996093,-0.000904, 0.002870, 0.019512, 0.117176, 0.246561,-0.110104,-0.000000, 0.000000,-0.000000,1,0
1777415925739145800,764883000000,   764.883,-0.000018,-0.000069,-0.009966,-0.000021, 0.000031, 0.000184,-0.538884,-0.068621, 0.026070,1,-0.001354, 0.002761, 0.018955,1,-0.001658,-0.007020,-0.996206,-0.001703, 0.002936, 0.018698, 0.117256, 0.246378,-0.111092,-0.000000, 0.000000,-0.000000,1,0
1777415925749249586,764883000000,   764.883,-0.000018,-0.000069,-0.009966,-0.000021, 0.000031, 0.000184,-0.538884,-0.068621, 0.026070,1,-0.001354, 0.002761, 0.018955,1,-0.001658,-0.007020,-0.996206,-0.001703, 0.002936, 0.018698, 0.117256, 0.246378,-0.111092,-0.000000, 0.000000,-0.000000,1,0
1777415925768948560,764903000000,   764.903,-0.000011,-0.000049,-0.009959,-0.000011, 0.000040, 0.000171,-0.540855,-0.061924, 0.026501,1,-0.001895, 0.003401, 0.018324,1,-0.001400,-0.005710,-0.995929,-0.001540, 0.003688, 0.017788, 0.117137, 0.246368,-0.111307,-0.000000, 0.000000,-0.000000,1,0
1777415925778633691,764913000000,   764.918,-0.000005,-0.000032,-0.009957,-0.000017, 0.000029, 0.000175,-0.534444,-0.043161, 0.026848,1,-0.001608, 0.003342, 0.017601,1,-0.000942,-0.004508,-0.995827,-0.001608, 0.003342, 0.017601, 0.117578, 0.246284,-0.111198,-0.000000, 0.000000,-0.000000,1,0
1777415925788716959,764913000000,   764.918,-0.000005,-0.000032,-0.009957,-0.000017, 0.000029, 0.000175,-0.534444,-0.043161, 0.026848,1,-0.001608, 0.003342, 0.017601,1,-0.000942,-0.004508,-0.995827,-0.001608, 0.003342, 0.017601, 0.117578, 0.246284,-0.111198,-0.000000, 0.000000,-0.000000,1,0
1777415925798338184,764933000000,   764.938, 0.000008,-0.000014,-0.009958,-0.000024, 0.000024, 0.000175,-0.523570,-0.022876, 0.025747,1,-0.001772, 0.003062, 0.017624,1, 0.000234,-0.002428,-0.995936,-0.001772, 0.003062, 0.017624, 0.117127, 0.246219,-0.110509,-0.000000, 0.000000,-0.000000,1,0
1777415925808421859,764933000000,   764.938, 0.000008,-0.000014,-0.009958,-0.000024, 0.000024, 0.000175,-0.523570,-0.022876, 0.025747,1,-0.001772, 0.003062, 0.017624,1, 0.000234,-0.002428,-0.995936,-0.001772, 0.003062, 0.017624, 0.117127, 0.246219,-0.110509,-0.000000, 0.000000,-0.000000,1,0
1777415925818092749,764953000000,   764.958, 0.000003,-0.000014,-0.009958,-0.000013, 0.000036, 0.000182,-0.523358,-0.014597, 0.026808,1,-0.001373, 0.003353, 0.018155,1, 0.000320,-0.001573,-0.995824,-0.001373, 0.003353, 0.018155, 0.117638, 0.246206,-0.110865,-0.000000, 0.000000,-0.000000,1,0
1777415925828176851,764953000000,   764.958, 0.000003,-0.000014,-0.009958,-0.000013, 0.000036, 0.000182,-0.523358,-0.014597, 0.026808,1,-0.001373, 0.003353, 0.018155,1, 0.000320,-0.001573,-0.995824,-0.001373, 0.003353, 0.018155, 0.117638, 0.246206,-0.110865,-0.000000, 0.000000,-0.000000,1,0
1777415925847905510,764973000000,   764.978,-0.000000,-0.000019,-0.009957,-0.000007, 0.000032, 0.000187,-0.526094,-0.015499, 0.028070,1,-0.001062, 0.003234, 0.018532,1, 0.000107,-0.001661,-0.995692,-0.001062, 0.003234, 0.018532, 0.117370, 0.246003,-0.110731,-0.000000, 0.000000,-0.000000,1,0
1777415925857631010,764993000000,   764.998,-0.000004,-0.000036,-0.009959,-0.000008, 0.000033, 0.000193,-0.521045,-0.027952, 0.027456,1,-0.001085, 0.003380, 0.019184,1,-0.000339,-0.002993,-0.995805,-0.001085, 0.003380, 0.019184, 0.117067, 0.246302,-0.111221,-0.000000, 0.000000,-0.000000,1,0
1777415925867719740,764993000000,   764.998,-0.000004,-0.000036,-0.009959,-0.000008, 0.000033, 0.000193,-0.521045,-0.027952, 0.027456,1,-0.001085, 0.003380, 0.019184,1,-0.000339,-0.002993,-0.995805,-0.001085, 0.003380, 0.019184, 0.117067, 0.246302,-0.111221,-0.000000, 0.000000,-0.000000,1,0
1777415925877291059,765013000000,   765.018,-0.000013,-0.000053,-0.009956,-0.000006, 0.000030, 0.000184,-0.523611,-0.042347, 0.028227,1,-0.000787, 0.003316, 0.018742,1,-0.000866,-0.004483,-0.995741,-0.000787, 0.003316, 0.018742, 0.117035, 0.246559,-0.111418,-0.000000, 0.000000,-0.000000,1,0
1777415925887375735,765013000000,   765.018,-0.000013,-0.000053,-0.009956,-0.000006, 0.000030, 0.000184,-0.523611,-0.042347, 0.028227,1,-0.000787, 0.003316, 0.018742,1,-0.000866,-0.004483,-0.995741,-0.000787, 0.003316, 0.018742, 0.117035, 0.246559,-0.111418,-0.000000, 0.000000,-0.000000,1,0
1777415925897041421,765033000000,   765.038,-0.000013,-0.000049,-0.009955,-0.000007, 0.000027, 0.000188,-0.525536,-0.045514, 0.028666,1,-0.000673, 0.003001, 0.018871,1,-0.001097,-0.004820,-0.995698,-0.000673, 0.003001, 0.018871, 0.116971, 0.246711,-0.111149,-0.000000, 0.000000,-0.000000,1,0
1777415925907124708,765033000000,   765.038,-0.000013,-0.000049,-0.009955,-0.000007, 0.000027, 0.000188,-0.525536,-0.045514, 0.028666,1,-0.000673, 0.003001, 0.018871,1,-0.001097,-0.004820,-0.995698,-0.000673, 0.003001, 0.018871, 0.116971, 0.246711,-0.111149,-0.000000, 0.000000,-0.000000,1,0
1777415925926836923,765053000000,   765.058,-0.000011,-0.000046,-0.009958,-0.000008, 0.000034, 0.000180,-0.525352,-0.044837, 0.027388,1,-0.000780, 0.003154, 0.018334,1,-0.001045,-0.004759,-0.995827,-0.000780, 0.003154, 0.018334, 0.117103, 0.246507,-0.111105,-0.000000, 0.000000,-0.000000,1,0
1777415925936537146,765073000000,   765.078, 0.000000,-0.000043,-0.009960,-0.000021, 0.000032, 0.000186,-0.520827,-0.040155, 0.026502,1,-0.001492, 0.003257, 0.018522,1,-0.000526,-0.004279,-0.995914,-0.001492, 0.003257, 0.018522, 0.116836, 0.246322,-0.111077,-0.000000, 0.000000,-0.000000,1,0
1777415925946621080,765073000000,   765.078, 0.000000,-0.000043,-0.009960,-0.000021, 0.000032, 0.000186,-0.520827,-0.040155, 0.026502,1,-0.001492, 0.003257, 0.018522,1,-0.000526,-0.004279,-0.995914,-0.001492, 0.003257, 0.018522, 0.116836, 0.246322,-0.111077,-0.000000, 0.000000,-0.000000,1,0
1777415925956240250,765093000000,   765.098,-0.000003,-0.000037,-0.009964,-0.000010, 0.000037, 0.000183,-0.518865,-0.037330, 0.024945,1,-0.001344, 0.003532, 0.018466,1,-0.000262,-0.003982,-0.996069,-0.001344, 0.003532, 0.018466, 0.117458, 0.246355,-0.110593,-0.000000, 0.000000,-0.000000,1,0
1777415925966324944,765093000000,   765.098,-0.000003,-0.000037,-0.009964,-0.000010, 0.000037, 0.000183,-0.518865,-0.037330, 0.024945,1,-0.001344, 0.003532, 0.018466,1,-0.000262,-0.003982,-0.996069,-0.001344, 0.003532, 0.018466, 0.117458, 0.246355,-0.110593,-0.000000, 0.000000,-0.000000,1,0
1777415925981928694,765113000000,   765.118, 0.000001,-0.000032,-0.009957,-0.000014, 0.000038, 0.000179,-0.517628,-0.031659, 0.028556,1,-0.001370, 0.003758, 0.018193,1,-0.000062,-0.003395,-0.995697,-0.001370, 0.003758, 0.018193, 0.117012, 0.246543,-0.111773,-0.000000, 0.000000,-0.000000,1,0
1777415925991621899,765133000000,   765.138,-0.000008,-0.000034,-0.009964,-0.000012, 0.000031, 0.000182,-0.523119,-0.031112, 0.023935,1,-0.001264, 0.003328, 0.018232,1,-0.000551,-0.003332,-0.996165,-0.001264, 0.003329, 0.018232, 0.117603, 0.246063,-0.111610,-0.000000, 0.000000,-0.000000,1,0
1777415926001769498,765133000000,   765.138,-0.000008,-0.000034,-0.009964,-0.000012, 0.000031, 0.000182,-0.523119,-0.031112, 0.023935,1,-0.001264, 0.003328, 0.018232,1,-0.000551,-0.003332,-0.996165,-0.001264, 0.003329, 0.018232, 0.117603, 0.246063,-0.111610,-0.000000, 0.000000,-0.000000,1,0
1777415926011304596,765153000000,   765.153,-0.000006,-0.000027,-0.009953,-0.000006, 0.000038, 0.000188,-0.523577,-0.026283, 0.028833,1,-0.000921, 0.003572, 0.018513,1,-0.000528,-0.002835,-0.995662,-0.000921, 0.003572, 0.018513, 0.117566, 0.246288,-0.111191,-0.000000, 0.000000,-0.000000,1,0
1777415926021389160,765153000000,   765.153,-0.000006,-0.000027,-0.009953,-0.000006, 0.000038, 0.000188,-0.523577,-0.026283, 0.028833,1,-0.000921, 0.003572, 0.018513,1,-0.000528,-0.002835,-0.995662,-0.000921, 0.003572, 0.018513, 0.117566, 0.246288,-0.111191,-0.000000, 0.000000,-0.000000,1,0
1777415926040782661,765173000000,   765.173,-0.000003,-0.000036,-0.009959,-0.000011, 0.000029, 0.000193,-0.523000,-0.029100, 0.029159,1,-0.000647, 0.003636, 0.018875,1,-0.000410,-0.003374,-0.995767,-0.000858, 0.003259, 0.019088, 0.117262, 0.246433,-0.110983,-0.000000, 0.000000,-0.000000,1,0
1777415926050495439,765193000000,   765.193,-0.000010,-0.000047,-0.009958,-0.000009, 0.000036, 0.000187,-0.518146,-0.032624, 0.027613,1,-0.000987, 0.002780, 0.019403,1,-0.000751,-0.004090,-0.995784,-0.000956, 0.003192, 0.019123, 0.116881, 0.246603,-0.110951,-0.000000, 0.000000,-0.000000,1,0
1777415926060579410,765193000000,   765.193,-0.000010,-0.000047,-0.009958,-0.000009, 0.000036, 0.000187,-0.518146,-0.032624, 0.027613,1,-0.000987, 0.002780, 0.019403,1,-0.000751,-0.004090,-0.995784,-0.000956, 0.003192, 0.019123, 0.116881, 0.246603,-0.110951,-0.000000, 0.000000,-0.000000,1,0
1777415926070183524,765213000000,   765.213,-0.000010,-0.000051,-0.009957,-0.000016, 0.000033, 0.000185,-0.515299,-0.040753, 0.026577,1,-0.000984, 0.003585, 0.019307,1,-0.000860,-0.004712,-0.995862,-0.001217, 0.003468, 0.018906, 0.117071, 0.246509,-0.110444,-0.000000, 0.000000,-0.000000,1,0
1777415926080267200,765213000000,   765.213,-0.000010,-0.000051,-0.009957,-0.000016, 0.000033, 0.000185,-0.515299,-0.040753, 0.026577,1,-0.000984, 0.003585, 0.019307,1,-0.000860,-0.004712,-0.995862,-0.001217, 0.003468, 0.018906, 0.117071, 0.246509,-0.110444,-0.000000, 0.000000,-0.000000,1,0
1777415926099995247,765233000000,   765.233,-0.000006,-0.000044,-0.009959,-0.000002, 0.000033, 0.000187,-0.513731,-0.043761, 0.026742,1,-0.000956, 0.003324, 0.018756,1,-0.000710,-0.004578,-0.995902,-0.000626, 0.003260, 0.018748, 0.117406, 0.246315,-0.110887,-0.000000, 0.000000,-0.000000,1,0
1777415926109673804,765253000000,   765.253,-0.000011,-0.000040,-0.009960,-0.000014, 0.000039, 0.000182,-0.512881,-0.039601, 0.027147,1,-0.000959, 0.003287, 0.018500,1,-0.000844,-0.004106,-0.995957,-0.001160, 0.003587, 0.018369, 0.117476, 0.246393,-0.110788,-0.000000, 0.000000,-0.000000,1,0
1777415926119757942,765253000000,   765.253,-0.000011,-0.000040,-0.009960,-0.000014, 0.000039, 0.000182,-0.512881,-0.039601, 0.027147,1,-0.000959, 0.003287, 0.018500,1,-0.000844,-0.004106,-0.995957,-0.001160, 0.003587, 0.018369, 0.117476, 0.246393,-0.110788,-0.000000, 0.000000,-0.000000,1,0
1777415926129432536,765273000000,   765.273,-0.000006,-0.000041,-0.009963,-0.000008, 0.000032, 0.000186,-0.515470,-0.038023, 0.027134,1,-0.001346, 0.003776, 0.018509,1,-0.000739,-0.004075,-0.996076,-0.001081, 0.003454, 0.018521, 0.117806, 0.246581,-0.111498,-0.000000, 0.000000,-0.000000,1,0
1777415926139515822,765273000000,   765.273,-0.000006,-0.000041,-0.009963,-0.000008, 0.000032, 0.000186,-0.515470,-0.038023, 0.027134,1,-0.001346, 0.003776, 0.018509,1,-0.000739,-0.004075,-0.996076,-0.001081, 0.003454, 0.018521, 0.117806, 0.246581,-0.111498,-0.000000, 0.000000,-0.000000,1,0
1777415926149194046,765293000000,   765.293,-0.000002,-0.000040,-0.009967,-0.000021, 0.000037, 0.000182,-0.514119,-0.036645, 0.026858,1,-0.001254, 0.003231, 0.018506,1,-0.000414,-0.003984,-0.996251,-0.001650, 0.003458, 0.018367, 0.117105, 0.246798,-0.110748,-0.000000, 0.000000,-0.000000,1,0
1777415926159298646,765293000000,   765.293,-0.000002,-0.000040,-0.009967,-0.000021, 0.000037, 0.000182,-0.514119,-0.036645, 0.026858,1,-0.001254, 0.003231, 0.018506,1,-0.000414,-0.003984,-0.996251,-0.001650, 0.003458, 0.018367, 0.117105, 0.246798,-0.110748,-0.000000, 0.000000,-0.000000,1,0
1777415926178991732,765313000000,   765.313,-0.000001,-0.000034,-0.009963,-0.000006, 0.000035, 0.000181,-0.512103,-0.034478, 0.026778,1,-0.001318, 0.003422, 0.018354,1,-0.000245,-0.003579,-0.996098,-0.000975, 0.003410, 0.018269, 0.116816, 0.246777,-0.110331,-0.000000, 0.000000,-0.000000,1,0
1777415926188683362,765323000000,   765.328,-0.000010,-0.000027,-0.009959,-0.000010, 0.000026, 0.000184,-0.514772,-0.029127, 0.025769,1,-0.001007, 0.003037, 0.018348,1,-0.000582,-0.003183,-0.996024,-0.001007, 0.003037, 0.018348, 0.116714, 0.246462,-0.110494,-0.000000, 0.000000,-0.000000,1,0
1777415926198766649,765323000000,   765.328,-0.000010,-0.000027,-0.009959,-0.000010, 0.000026, 0.000184,-0.514772,-0.029127, 0.025769,1,-0.001007, 0.003037, 0.018348,1,-0.000582,-0.003183,-0.996024,-0.001007, 0.003037, 0.018348, 0.116714, 0.246462,-0.110494,-0.000000, 0.000000,-0.000000,1,0
1777415926208426835,765343000000,   765.348,-0.000009,-0.000028,-0.009959,-0.000009, 0.000024, 0.000186,-0.516977,-0.026054, 0.026102,1,-0.001151, 0.002797, 0.018474,1,-0.000746,-0.002865,-0.995987,-0.001151, 0.002797, 0.018474, 0.117113, 0.246494,-0.111199,-0.000000, 0.000000,-0.000000,1,0
1777415926218510807,765343000000,   765.348,-0.000009,-0.000028,-0.009959,-0.000009, 0.000024, 0.000186,-0.516977,-0.026054, 0.026102,1,-0.001151, 0.002797, 0.018474,1,-0.000746,-0.002865,-0.995987,-0.001151, 0.002797, 0.018474, 0.117113, 0.246494,-0.111199,-0.000000, 0.000000,-0.000000,1,0
1777415926228147180,765363000000,   765.368,-0.000005,-0.000025,-0.009961,-0.000008, 0.000032, 0.000191,-0.514868,-0.023889, 0.027099,1,-0.000716, 0.003117, 0.018836,1,-0.000473,-0.002647,-0.995882,-0.000716, 0.003118, 0.018836, 0.116789, 0.246651,-0.111237,-0.000000, 0.000000,-0.000000,1,0
1777415926238231151,765363000000,   765.368,-0.000005,-0.000025,-0.009961,-0.000008, 0.000032, 0.000191,-0.514868,-0.023889, 0.027099,1,-0.000716, 0.003117, 0.018836,1,-0.000473,-0.002647,-0.995882,-0.000716, 0.003118, 0.018836, 0.116789, 0.246651,-0.111237,-0.000000, 0.000000,-0.000000,1,0
1777415926257514785,765383000000,   765.388,-0.000001,-0.000026,-0.009959,-0.000008, 0.000031, 0.000191,-0.505396,-0.021814, 0.028396,1,-0.000791, 0.003177, 0.019040,1,-0.000103,-0.002465,-0.995780,-0.000791, 0.003177, 0.019040, 0.117436, 0.246275,-0.111929,-0.000000, 0.000000,-0.000000,1,0
1777415926267212008,765403000000,   765.408, 0.000003,-0.000030,-0.009958,-0.000011, 0.000032, 0.000200,-0.496267,-0.023523, 0.029601,1,-0.000648, 0.003283, 0.019733,1, 0.000259,-0.002673,-0.995687,-0.000648, 0.003283, 0.019733, 0.117443, 0.245888,-0.111700,-0.000000, 0.000000,-0.000000,1,0
1777415926277296294,765403000000,   765.408, 0.000003,-0.000030,-0.009958,-0.000011, 0.000032, 0.000200,-0.496267,-0.023523, 0.029601,1,-0.000648, 0.003283, 0.019733,1, 0.000259,-0.002673,-0.995687,-0.000648, 0.003283, 0.019733, 0.117443, 0.245888,-0.111700,-0.000000, 0.000000,-0.000000,1,0
1777415926296946270,765423000000,   765.428,-0.000012,-0.000040,-0.009960,-0.000005, 0.000024, 0.000199,-0.503419,-0.030855, 0.028385,1,-0.000550, 0.002850, 0.019778,1,-0.000595,-0.003437,-0.995817,-0.000550, 0.002850, 0.019778, 0.117526, 0.246450,-0.110763,-0.000000, 0.000000,-0.000000,1,0
1777415926306635844,765443000000,   765.448,-0.000021,-0.000065,-0.009961,-0.000017, 0.000029, 0.000193,-0.512714,-0.049621, 0.026430,1,-0.000937, 0.002858, 0.019770,1,-0.001542,-0.005361,-0.996017,-0.000938, 0.002858, 0.019770, 0.117368, 0.246798,-0.110703,-0.000000, 0.000000,-0.000000,1,0
1777415926316718927,765443000000,   765.448,-0.000021,-0.000065,-0.009961,-0.000017, 0.000029, 0.000193,-0.512714,-0.049621, 0.026430,1,-0.000937, 0.002858, 0.019770,1,-0.001542,-0.005361,-0.996017,-0.000938, 0.002858, 0.019770, 0.117368, 0.246798,-0.110703,-0.000000, 0.000000,-0.000000,1,0
1777415926326405150,765463000000,   765.468,-0.000017,-0.000102,-0.009958,-0.000017, 0.000029, 0.000190,-0.514456,-0.079427, 0.028147,1,-0.001222, 0.002882, 0.019281,1,-0.001679,-0.008400,-0.995840,-0.001222, 0.002882, 0.019281, 0.117287, 0.246586,-0.110594,-0.000000, 0.000000,-0.000000,1,0
1777415926336490400,765463000000,   765.468,-0.000017,-0.000102,-0.009958,-0.000017, 0.000029, 0.000190,-0.514456,-0.079427, 0.028147,1,-0.001222, 0.002882, 0.019281,1,-0.001679,-0.008400,-0.995840,-0.001222, 0.002882, 0.019281, 0.117287, 0.246586,-0.110594,-0.000000, 0.000000,-0.000000,1,0
1777415926352013133,765483000000,   765.488,-0.000008,-0.000092,-0.009962,-0.000023, 0.000033, 0.000170,-0.509525,-0.086668, 0.024784,1,-0.001802, 0.003144, 0.017745,1,-0.001124,-0.009129,-0.996180,-0.001802, 0.003144, 0.017745, 0.117828, 0.246533,-0.111811,-0.000000, 0.000000,-0.000000,1,0
1777415926371776014,765503000000,   765.508,-0.000014,-0.000061,-0.009966,-0.000029, 0.000038, 0.000158,-0.512602,-0.069076, 0.025199,1,-0.002254, 0.003611, 0.016486,1,-0.001372,-0.007315,-0.996134,-0.002254, 0.003611, 0.016486, 0.117875, 0.246677,-0.111703,-0.000000, 0.000000,-0.000000,1,0
1777415926381465366,765523000000,   765.523,-0.000016,-0.000051,-0.009959,-0.000036, 0.000045, 0.000151,-0.512665,-0.055962, 0.023392,1,-0.003069, 0.004014, 0.015521,1,-0.001301,-0.005936,-0.996314,-0.003069, 0.004014, 0.015521, 0.117841, 0.246314,-0.111707,-0.000000, 0.000000,-0.000000,1,0
1777415926391549634,765523000000,   765.523,-0.000016,-0.000051,-0.009959,-0.000036, 0.000045, 0.000151,-0.512665,-0.055962, 0.023392,1,-0.003069, 0.004014, 0.015521,1,-0.001301,-0.005936,-0.996314,-0.003069, 0.004014, 0.015521, 0.117841, 0.246314,-0.111707,-0.000000, 0.000000,-0.000000,1,0
1777415926401165692,765543000000,   765.543,-0.000017,-0.000045,-0.009963,-0.000023, 0.000033, 0.000151,-0.514314,-0.047947, 0.027811,1,-0.002868, 0.003683, 0.015189,1,-0.001389,-0.005073,-0.995860,-0.002869, 0.003683, 0.015189, 0.117424, 0.246613,-0.111158,-0.000000, 0.000000,-0.000000,1,0
1777415926411249386,765543000000,   765.543,-0.000017,-0.000045,-0.009963,-0.000023, 0.000033, 0.000151,-0.514314,-0.047947, 0.027811,1,-0.002868, 0.003683, 0.015189,1,-0.001389,-0.005073,-0.995860,-0.002869, 0.003683, 0.015189, 0.117424, 0.246613,-0.111158,-0.000000, 0.000000,-0.000000,1,0
1777415926430656535,765563000000,   765.563, 0.000005,-0.000035,-0.009972,-0.000022, 0.000051, 0.000153,-0.509117,-0.045771, 0.025296,1,-0.002786, 0.003924, 0.015249,1,-0.000137,-0.004233,-0.996522,-0.002530, 0.004526, 0.015248, 0.117151, 0.246255,-0.110662,-0.000000, 0.000000,-0.000000,1,0
1777415926440352072,765583000000,   765.583, 0.000011,-0.000047,-0.009972,-0.000023, 0.000047, 0.000141,-0.496992,-0.035539, 0.027784,1,-0.002735, 0.004761, 0.014973,1, 0.000713,-0.004255,-0.996353,-0.002526, 0.004739, 0.014570, 0.116859, 0.246096,-0.110624,-0.000000, 0.000000,-0.000000,1,0
1777415926450435563,765583000000,   765.583, 0.000011,-0.000047,-0.009972,-0.000023, 0.000047, 0.000141,-0.496992,-0.035539, 0.027784,1,-0.002735, 0.004761, 0.014973,1, 0.000713,-0.004255,-0.996353,-0.002526, 0.004739, 0.014570, 0.116859, 0.246096,-0.110624,-0.000000, 0.000000,-0.000000,1,0
1777415926460106916,765603000000,   765.603,-0.000011,-0.000058,-0.009959,-0.000034, 0.000053, 0.000146,-0.485552,-0.051069, 0.027568,1,-0.002401, 0.005262, 0.014543,1,-0.000074,-0.005485,-0.995742,-0.002870, 0.005218, 0.014604, 0.116953, 0.246242,-0.111305,-0.000000, 0.000000,-0.000000,1,0
1777415926470190832,765603000000,   765.603,-0.000011,-0.000058,-0.009959,-0.000034, 0.000053, 0.000146,-0.485552,-0.051069, 0.027568,1,-0.002401, 0.005262, 0.014543,1,-0.000074,-0.005485,-0.995742,-0.002870, 0.005218, 0.014604, 0.116953, 0.246242,-0.111305,-0.000000, 0.000000,-0.000000,1,0
1777415926489858325,765623000000,   765.623,-0.000030,-0.000022,-0.009956,-0.000030, 0.000035, 0.000140,-0.497532,-0.048826, 0.026672,1,-0.003531, 0.004670, 0.014241,1,-0.001778,-0.003628,-0.995764,-0.003289, 0.004133, 0.014143, 0.117459, 0.246331,-0.111028,-0.000000, 0.000000,-0.000000,1,0
1777415926499551326,765643000000,   765.643, 0.000009, 0.000070,-0.009958,-0.000018, 0.000039, 0.000159,-0.508423,-0.002026, 0.023637,1,-0.002883, 0.004279, 0.014240,1,-0.000534, 0.003132,-0.996001,-0.002338, 0.004131, 0.015052, 0.117246, 0.246309,-0.111589,-0.000000, 0.000000,-0.000000,1,0
1777415926509636427,765643000000,   765.643, 0.000009, 0.000070,-0.009958,-0.000018, 0.000039, 0.000159,-0.508423,-0.002026, 0.023637,1,-0.002883, 0.004279, 0.014240,1,-0.000534, 0.003132,-0.996001,-0.002338, 0.004131, 0.015052, 0.117246, 0.246309,-0.111589,-0.000000, 0.000000,-0.000000,1,0
1777415926519306873,765663000000,   765.663, 0.000065, 0.000183,-0.009924, 0.000009, 0.000087, 0.000196,-0.469793, 0.059071, 0.019508,1,-0.001292, 0.004784, 0.016432,1, 0.004009, 0.011752,-0.995211,-0.000216, 0.006962, 0.017973, 0.117325, 0.246279,-0.111352,-0.000000, 0.000000,-0.000000,1,0
1777415926529390567,765663000000,   765.663, 0.000065, 0.000183,-0.009924, 0.000009, 0.000087, 0.000196,-0.469793, 0.059071, 0.019508,1,-0.001292, 0.004784, 0.016432,1, 0.004009, 0.011752,-0.995211,-0.000216, 0.006962, 0.017973, 0.117325, 0.246279,-0.111352,-0.000000, 0.000000,-0.000000,1,0
1777415926539116455,765683000000,   765.683, 0.000059, 0.000058,-0.010098, 0.000017, 0.000134, 0.000250,-0.442805, 0.120881, 0.072853,1, 0.000736, 0.009114, 0.020591,1, 0.005263, 0.008594,-0.999388, 0.001266, 0.011286, 0.022661, 0.117168, 0.246133,-0.110886,-0.000000, 0.000000,-0.000000,1,0
1777415926549199798,765683000000,   765.683, 0.000059, 0.000058,-0.010098, 0.000017, 0.000134, 0.000250,-0.442805, 0.120881, 0.072853,1, 0.000736, 0.009114, 0.020591,1, 0.005263, 0.008594,-0.999388, 0.001266, 0.011286, 0.022661, 0.117168, 0.246133,-0.110886,-0.000000, 0.000000,-0.000000,1,0
1777415926568855921,765703000000,   765.703,-0.000009, 0.000087,-0.009923, 0.000039, 0.000083, 0.000252,-0.469519, 0.031731, 0.020221,1, 0.001794, 0.009821, 0.023625,1, 0.000178, 0.006016,-0.993167, 0.002870, 0.008866, 0.024443, 0.117204, 0.246341,-0.110465,-0.000000, 0.000000,-0.000000,1,0
1777415926578483220,765713000000,   765.718, 0.000032, 0.000117,-0.010006, 0.000043, 0.000099, 0.000271,-0.484056, 0.086189, 0.014386,1, 0.003348, 0.009104, 0.025743,1, 0.001129, 0.008674,-0.997258, 0.003347, 0.009104, 0.025743, 0.117218, 0.246372,-0.110808,-0.000000, 0.000000,-0.000000,1,0
1777415926588568099,765713000000,   765.718, 0.000032, 0.000117,-0.010006, 0.000043, 0.000099, 0.000271,-0.484056, 0.086189, 0.014386,1, 0.003348, 0.009104, 0.025743,1, 0.001129, 0.008674,-0.997258, 0.003347, 0.009104, 0.025743, 0.117218, 0.246372,-0.110808,-0.000000, 0.000000,-0.000000,1,0
1777415926598249026,765733000000,   765.738, 0.000016,-0.000173,-0.010009,-0.000001, 0.000061, 0.000301,-0.477422,-0.046693,-0.001925,1, 0.001783, 0.007389, 0.028958,1, 0.001968,-0.004966,-0.998913, 0.001783, 0.007389, 0.028958, 0.117290, 0.245969,-0.111178,-0.000000, 0.000000,-0.000000,1,0
1777415926608333553,765733000000,   765.738, 0.000016,-0.000173,-0.010009,-0.000001, 0.000061, 0.000301,-0.477422,-0.046693,-0.001925,1, 0.001783, 0.007389, 0.028958,1, 0.001968,-0.004966,-0.998913, 0.001783, 0.007389, 0.028958, 0.117290, 0.245969,-0.111178,-0.000000, 0.000000,-0.000000,1,0
1777415926628051045,765753000000,   765.758,-0.000001,-0.000334,-0.010216,-0.000008, 0.000022, 0.000225,-0.497466,-0.222549,-0.040176,1,-0.000383, 0.002609, 0.025296,1, 0.000018,-0.022942,-1.002808,-0.000384, 0.002609, 0.025296, 0.117425, 0.246125,-0.111014,-0.000000, 0.000000,-0.000000,1,0
1777415926647811036,765773000000,   765.778,-0.000116,-0.000099,-0.010099,-0.000013, 0.000121, 0.000172,-0.561853,-0.167427,-0.011754,1,-0.000017, 0.008691, 0.019883,1,-0.006439,-0.017350,-0.999905,-0.000017, 0.008691, 0.019883, 0.116719, 0.246037,-0.111121,-0.000000, 0.000000,-0.000000,1,0
1777415926657446316,765793000000,   765.798, 0.000024,-0.000189,-0.010154,-0.000023, 0.000116, 0.000169,-0.499553,-0.157790,-0.041197,1,-0.001214, 0.011963, 0.018082,1,-0.000974,-0.016434,-1.002952,-0.001214, 0.011963, 0.018082, 0.116710, 0.246178,-0.110310,-0.000000, 0.000000,-0.000000,1,0
1777415926667546843,765793000000,   765.798, 0.000024,-0.000189,-0.010154,-0.000023, 0.000116, 0.000169,-0.499553,-0.157790,-0.041197,1,-0.001214, 0.011963, 0.018082,1,-0.000974,-0.016434,-1.002952,-0.001214, 0.011963, 0.018082, 0.116710, 0.246178,-0.110310,-0.000000, 0.000000,-0.000000,1,0
1777415926677202178,765813000000,   765.818, 0.000205,-0.000076,-0.010246,-0.000080,-0.000154, 0.000117,-0.391809,-0.098905,-0.037262,1,-0.004003,-0.005048, 0.013915,1, 0.009705,-0.010417,-1.002566,-0.004003,-0.005048, 0.013915, 0.117199, 0.246580,-0.110330,-0.000000, 0.000000,-0.000000,1,0
1777415926687287094,765813000000,   765.818, 0.000205,-0.000076,-0.010246,-0.000080,-0.000154, 0.000117,-0.391809,-0.098905,-0.037262,1,-0.004003,-0.005048, 0.013915,1, 0.009705,-0.010417,-1.002566,-0.004003,-0.005048, 0.013915, 0.117199, 0.246580,-0.110330,-0.000000, 0.000000,-0.000000,1,0
1777415926706992235,765833000000,   765.838, 0.000157, 0.000180,-0.010101, 0.000039, 0.000005, 0.000168,-0.342683, 0.120372, 0.042815,1, 0.000197,-0.000296, 0.014313,1, 0.014553, 0.011985,-0.994408, 0.000197,-0.000295, 0.014313, 0.116836, 0.246530,-0.110787,-0.000000, 0.000000,-0.000000,1,0
1777415926716700328,765853000000,   765.858, 0.000012, 0.000183,-0.009688, 0.000013,-0.000005, 0.000262,-0.425066, 0.182330, 0.132467,1, 0.000078, 0.001132, 0.021392,1, 0.006157, 0.018289,-0.985266, 0.000078, 0.001132, 0.021392, 0.117547, 0.246373,-0.111019,-0.000000, 0.000000,-0.000000,1,0
1777415926726784540,765853000000,   765.858, 0.000012, 0.000183,-0.009688, 0.000013,-0.000005, 0.000262,-0.425066, 0.182330, 0.132467,1, 0.000078, 0.001132, 0.021392,1, 0.006157, 0.018289,-0.985266, 0.000078, 0.001132, 0.021392, 0.117547, 0.246373,-0.111019,-0.000000, 0.000000,-0.000000,1,0
1777415926736455745,765873000000,   765.878,-0.000077,-0.000162,-0.009737, 0.000001, 0.000070, 0.000270,-0.506476,-0.018045, 0.078371,1,-0.000164, 0.004451, 0.025343,1,-0.002108,-0.002167,-0.990781,-0.000165, 0.004451, 0.025343, 0.117598, 0.246125,-0.110812,-0.000000, 0.000000,-0.000000,1,0
1777415926746540569,765873000000,   765.878,-0.000077,-0.000162,-0.009737, 0.000001, 0.000070, 0.000270,-0.506476,-0.018045, 0.078371,1,-0.000164, 0.004451, 0.025343,1,-0.002108,-0.002167,-0.990781,-0.000165, 0.004451, 0.025343, 0.117598, 0.246125,-0.110812,-0.000000, 0.000000,-0.000000,1,0
1777415926756141998,765893000000,   765.898,-0.000063,-0.000298,-0.009863, 0.000003, 0.000055, 0.000193,-0.542315,-0.192290, 0.054988,1,-0.000478, 0.004549, 0.021912,1,-0.005676,-0.019946,-0.993161,-0.000478, 0.004549, 0.021912, 0.117321, 0.246801,-0.110623,-0.000000, 0.000000,-0.000000,1,0
1777415926766226562,765893000000,   765.898,-0.000063,-0.000298,-0.009863, 0.000003, 0.000055, 0.000193,-0.542315,-0.192290, 0.054988,1,-0.000478, 0.004549, 0.021912,1,-0.005676,-0.019946,-0.993161,-0.000478, 0.004549, 0.021912, 0.117321, 0.246801,-0.110623,-0.000000, 0.000000,-0.000000,1,0
1777415926781834516,765913000000,   765.918,-0.000128,-0.000129,-0.009850,-0.000009, 0.000037, 0.000161,-0.584935,-0.153544, 0.068409,1,-0.001326, 0.003533, 0.017951,1,-0.009957,-0.015995,-0.991789,-0.001326, 0.003533, 0.017951, 0.117775, 0.246378,-0.111240,-0.000000, 0.000000,-0.000000,1,0
1777415926791464333,765933000000,   765.933,-0.000102,-0.000022,-0.009855,-0.000014, 0.000024, 0.000171,-0.585057,-0.063438, 0.058996,1,-0.001934, 0.003050, 0.017073,1,-0.009904,-0.006788,-0.992745,-0.001934, 0.003050, 0.017073, 0.117120, 0.246283,-0.111183,-0.000000, 0.000000,-0.000000,1,0
1777415926801548082,765933000000,   765.933,-0.000102,-0.000022,-0.009855,-0.000014, 0.000024, 0.000171,-0.585057,-0.063438, 0.058996,1,-0.001934, 0.003050, 0.017073,1,-0.009904,-0.006788,-0.992745,-0.001934, 0.003050, 0.017073, 0.117120, 0.246283,-0.111183,-0.000000, 0.000000,-0.000000,1,0
1777415926811216509,765953000000,   765.953,-0.000073, 0.000052,-0.009924,-0.000011, 0.000017, 0.000183,-0.577004, 0.016219, 0.037208,1,-0.001541, 0.002058, 0.017623,1,-0.009037, 0.001352,-0.994965,-0.001542, 0.002058, 0.017623, 0.117252, 0.246643,-0.111099,-0.000000, 0.000000,-0.000000,1,0
1777415926821314777,765953000000,   765.953,-0.000073, 0.000052,-0.009924,-0.000011, 0.000017, 0.000183,-0.577004, 0.016219, 0.037208,1,-0.001541, 0.002058, 0.017623,1,-0.009037, 0.001352,-0.994965,-0.001542, 0.002058, 0.017623, 0.117252, 0.246643,-0.111099,-0.000000, 0.000000,-0.000000,1,0
1777415926840705315,765973000000,   765.973, 0.000041,-0.000070,-0.009970,-0.000019, 0.000032, 0.000190,-0.545177, 0.005081, 0.024777,1,-0.001171, 0.002355, 0.018187,1,-0.001139,-0.002935,-0.996442,-0.001521, 0.002796, 0.018552, 0.117149, 0.245888,-0.111238,-0.000000, 0.000000,-0.000000,1,0
1777415926850467129,765993000000,   765.993, 0.000119,-0.000139,-0.009908,-0.000022, 0.000055, 0.000180,-0.459549,-0.046004, 0.014404,1,-0.001242, 0.004382, 0.018744,1, 0.006724,-0.009039,-0.994208,-0.001677, 0.004814, 0.018353, 0.117589, 0.246419,-0.111343,-0.000000, 0.000000,-0.000000,1,0
1777415926860691597,765993000000,   765.993, 0.000119,-0.000139,-0.009908,-0.000022, 0.000055, 0.000180,-0.459549,-0.046004, 0.014404,1,-0.001242, 0.004382, 0.018744,1, 0.006724,-0.009039,-0.994208,-0.001677, 0.004814, 0.018353, 0.117589, 0.246419,-0.111343,-0.000000, 0.000000,-0.000000,1,0
1777415926870174936,766013000000,   766.013, 0.000064,-0.000041,-0.009942,-0.000025, 0.000047, 0.000162,-0.396880,-0.093989, 0.014662,1,-0.001925, 0.005442, 0.017679,1, 0.007312,-0.006868,-0.995723,-0.002207, 0.005103, 0.016993, 0.117399, 0.246420,-0.111204,-0.000000, 0.000000,-0.000000,1,0
1777415926880260148,766013000000,   766.013, 0.000064,-0.000041,-0.009942,-0.000025, 0.000047, 0.000162,-0.396880,-0.093989, 0.014662,1,-0.001925, 0.005442, 0.017679,1, 0.007312,-0.006868,-0.995723,-0.002207, 0.005103, 0.016993, 0.117399, 0.246420,-0.111204,-0.000000, 0.000000,-0.000000,1,0
1777415926899900624,766033000000,   766.033, 0.000011, 0.000046,-0.009963,-0.000013, 0.000047, 0.000168,-0.433214,-0.012519, 0.030402,1,-0.002145, 0.004738, 0.016784,1, 0.002916, 0.001200,-0.996396,-0.001785, 0.004767, 0.016813, 0.117380, 0.246433,-0.110805,-0.000000, 0.000000,-0.000000,1,0
1777415926909587532,766053000000,   766.053, 0.000009,-0.000009,-0.009970,-0.000009, 0.000039, 0.000189,-0.465673, 0.018694, 0.035824,1,-0.001724, 0.004330, 0.017620,1, 0.001165, 0.000422,-0.996391,-0.001434, 0.004121, 0.018206, 0.117281, 0.246335,-0.110502,-0.000000, 0.000000,-0.000000,1,0
1777415926919672874,766053000000,   766.053, 0.000009,-0.000009,-0.009970,-0.000009, 0.000039, 0.000189,-0.465673, 0.018694, 0.035824,1,-0.001724, 0.004330, 0.017620,1, 0.001165, 0.000422,-0.996391,-0.001434, 0.004121, 0.018206, 0.117281, 0.246335,-0.110502,-0.000000, 0.000000,-0.000000,1,0
1777415926929352375,766073000000,   766.073, 0.000040,-0.000093,-0.009942,-0.000023, 0.000031, 0.000193,-0.466748,-0.014077, 0.027593,1,-0.001254, 0.003558, 0.018821,1, 0.002475,-0.005296,-0.995296,-0.001650, 0.003323, 0.019012, 0.117203, 0.246312,-0.111093,-0.000000, 0.000000,-0.000000,1,0
1777415926939437532,766073000000,   766.073, 0.000040,-0.000093,-0.009942,-0.000023, 0.000031, 0.000193,-0.466748,-0.014077, 0.027593,1,-0.001254, 0.003558, 0.018821,1, 0.002475,-0.005296,-0.995296,-0.001650, 0.003323, 0.019012, 0.117203, 0.246312,-0.111093,-0.000000, 0.000000,-0.000000,1,0
1777415926949169958,766093000000,   766.093, 0.000092,-0.000145,-0.009942,-0.000030, 0.000007, 0.000164,-0.428776,-0.084223, 0.018638,1,-0.002101, 0.003071, 0.018503,1, 0.006930,-0.011416,-0.995814,-0.002515, 0.001971, 0.017494, 0.117443, 0.246226,-0.110987,-0.000000, 0.000000,-0.000000,1,0
1777415926959254429,766093000000,   766.093, 0.000092,-0.000145,-0.009942,-0.000030, 0.000007, 0.000164,-0.428776,-0.084223, 0.018638,1,-0.002101, 0.003071, 0.018503,1, 0.006930,-0.011416,-0.995814,-0.002515, 0.001971, 0.017494, 0.117443, 0.246226,-0.110987,-0.000000, 0.000000,-0.000000,1,0
1777415926978853536,766113000000,   766.113, 0.000186,-0.000136,-0.009928,-0.000048, 0.000010, 0.000128,-0.373513,-0.128795, 0.013177,1,-0.003352, 0.000995, 0.016167,1, 0.014444,-0.013573,-0.995561,-0.004040, 0.001089, 0.014592, 0.117389, 0.246202,-0.111403,-0.000000, 0.000000,-0.000000,1,0
1777415926988541222,766123000000,   766.128, 0.000237,-0.000146,-0.009979,-0.000063, 0.000011, 0.000112,-0.295283,-0.135791, 0.024650,1,-0.005012, 0.001121, 0.012968,1, 0.018680,-0.013984,-0.996295,-0.005012, 0.001121, 0.012968, 0.117399, 0.246137,-0.111078,-0.000000, 0.000000,-0.000000,1,0
1777415926998628008,766123000000,   766.128, 0.000237,-0.000146,-0.009979,-0.000063, 0.000011, 0.000112,-0.295283,-0.135791, 0.024650,1,-0.005012, 0.001121, 0.012968,1, 0.018680,-0.013984,-0.996295,-0.005012, 0.001121, 0.012968, 0.117399, 0.246137,-0.111078,-0.000000, 0.000000,-0.000000,1,0
1777415927008296898,766143000000,   766.148, 0.000319,-0.000010,-0.009965,-0.000034, 0.000022, 0.000084,-0.212674,-0.056749, 0.021362,1,-0.003415, 0.001786, 0.009762,1, 0.027134,-0.005849,-0.996629,-0.003415, 0.001786, 0.009762, 0.117161, 0.246242,-0.110775,-0.000000, 0.000000,-0.000000,1,0
1777415927018381259,766143000000,   766.148, 0.000319,-0.000010,-0.009965,-0.000034, 0.000022, 0.000084,-0.212674,-0.056749, 0.021362,1,-0.003415, 0.001786, 0.009762,1, 0.027134,-0.005849,-0.996629,-0.003415, 0.001786, 0.009762, 0.117161, 0.246242,-0.110775,-0.000000, 0.000000,-0.000000,1,0
1777415927028030575,766163000000,   766.168, 0.000386, 0.000099,-0.009999,-0.000052, 0.000037, 0.000096,-0.130696, 0.036785, 0.012800,1,-0.004665, 0.002977, 0.009290,1, 0.035538, 0.003763,-0.997500,-0.004665, 0.002977, 0.009290, 0.117086, 0.246245,-0.110457,-0.000000, 0.000000,-0.000000,1,0
1777415927038115251,766163000000,   766.168, 0.000386, 0.000099,-0.009999,-0.000052, 0.000037, 0.000096,-0.130696, 0.036785, 0.012800,1,-0.004665, 0.002977, 0.009290,1, 0.035538, 0.003763,-0.997500,-0.004665, 0.002977, 0.009290, 0.117086, 0.246245,-0.110457,-0.000000, 0.000000,-0.000000,1,0
1777415927057860149,766183000000,   766.188, 0.000494, 0.000077,-0.009988,-0.000046, 0.000046, 0.000112,-0.035571, 0.053137, 0.007956,1,-0.004425, 0.004038, 0.010658,1, 0.044377, 0.005557,-0.998035,-0.004425, 0.004039, 0.010658, 0.116960, 0.246107,-0.111187,-0.000000, 0.000000,-0.000000,1,0
1777415927067492429,766203000000,   766.208, 0.000489,-0.000005,-0.010112,-0.000037, 0.000061, 0.000123,-0.003714, 0.034955,-0.019646,1,-0.003722, 0.005539, 0.011782,1, 0.046830, 0.003816,-1.000888,-0.003722, 0.005539, 0.011782, 0.117271, 0.246414,-0.110888,-0.000000, 0.000000,-0.000000,1,0
1777415927077576549,766203000000,   766.208, 0.000489,-0.000005,-0.010112,-0.000037, 0.000061, 0.000123,-0.003714, 0.034955,-0.019646,1,-0.003722, 0.005539, 0.011782,1, 0.046830, 0.003816,-1.000888,-0.003722, 0.005539, 0.011782, 0.117271, 0.246414,-0.110888,-0.000000, 0.000000,-0.000000,1,0
1777415927087254031,766223000000,   766.228, 0.000494,-0.000156,-0.009967,-0.000027, 0.000018, 0.000157, 0.023128,-0.060598, 0.052040,1,-0.002801, 0.003502, 0.013787,1, 0.049394,-0.005865,-0.993586,-0.002801, 0.003503, 0.013787, 0.117061, 0.246407,-0.110603,-0.000000, 0.000000,-0.000000,1,0
1777415927097354077,766223000000,   766.228, 0.000494,-0.000156,-0.009967,-0.000027, 0.000018, 0.000157, 0.023128,-0.060598, 0.052040,1,-0.002801, 0.003502, 0.013787,1, 0.049394,-0.005865,-0.993586,-0.002801, 0.003503, 0.013787, 0.117061, 0.246407,-0.110603,-0.000000, 0.000000,-0.000000,1,0
1777415927117058310,766243000000,   766.248, 0.000490,-0.000028,-0.009919,-0.000025, 0.000063, 0.000205, 0.032071,-0.045022, 0.036359,1,-0.002637, 0.004938, 0.017838,1, 0.050295,-0.004227,-0.995186,-0.002637, 0.004938, 0.017838, 0.117021, 0.246604,-0.110838,-0.000000, 0.000000,-0.000000,1,0
1777415927136795746,766263000000,   766.268, 0.000598, 0.000017,-0.009984,-0.000025, 0.000061, 0.000213, 0.092129,-0.000544,-0.000025,1,-0.002490, 0.006381, 0.020354,1, 0.056522, 0.000347,-0.998891,-0.002490, 0.006381, 0.020354, 0.116785, 0.246840,-0.110733,-0.000000, 0.000000,-0.000000,1,0
1777415927146434359,766283000000,   766.288, 0.000750, 0.000035,-0.010248,-0.000041, 0.000032, 0.000210, 0.201736, 0.010674,-0.107414,1,-0.003357, 0.004348, 0.020682,1, 0.067796, 0.001531,-1.009837,-0.003357, 0.004348, 0.020682, 0.117075, 0.246291,-0.109926,-0.000000, 0.000000,-0.000000,1,0
1777415927156543904,766283000000,   766.288, 0.000750, 0.000035,-0.010248,-0.000041, 0.000032, 0.000210, 0.201736, 0.010674,-0.107414,1,-0.003357, 0.004348, 0.020682,1, 0.067796, 0.001531,-1.009837,-0.003357, 0.004348, 0.020682, 0.117075, 0.246291,-0.109926,-0.000000, 0.000000,-0.000000,1,0
1777415927166191794,766303000000,   766.308, 0.000903,-0.000035,-0.009993,-0.000096, 0.000144, 0.000248, 0.345313,-0.009090, 0.031299,1,-0.006501, 0.010493, 0.022656,1, 0.082583,-0.000422,-0.995685,-0.006501, 0.010493, 0.022656, 0.117297, 0.246004,-0.109767,-0.000000, 0.000000,-0.000000,1,0
1777415927176276192,766303000000,   766.308, 0.000903,-0.000035,-0.009993,-0.000096, 0.000144, 0.000248, 0.345313,-0.009090, 0.031299,1,-0.006501, 0.010493, 0.022656,1, 0.082583,-0.000422,-0.995685,-0.006501, 0.010493, 0.022656, 0.117297, 0.246004,-0.109767,-0.000000, 0.000000,-0.000000,1,0
1777415927191816684,766323000000,   766.328, 0.000839,-0.000154,-0.009962,-0.000072, 0.000084, 0.000227, 0.364365,-0.126397, 0.050473,1,-0.007772, 0.010033, 0.023270,1, 0.084743,-0.012253,-0.993720,-0.007772, 0.010034, 0.023270, 0.117818, 0.245905,-0.110752,-0.000000, 0.000000,-0.000000,1,0
1777415927201512463,766343000000,   766.343, 0.000810,-0.000301,-0.009443, 0.000017, 0.000045, 0.000162, 0.349539,-0.215805, 0.210819,1,-0.001713, 0.006605, 0.019015,1, 0.083387,-0.021306,-0.977362,-0.001713, 0.006605, 0.019015, 0.117757, 0.245904,-0.110797,-0.000000, 0.000000,-0.000000,1,0
1777415927211596767,766343000000,   766.343, 0.000810,-0.000301,-0.009443, 0.000017, 0.000045, 0.000162, 0.349539,-0.215805, 0.210819,1,-0.001713, 0.006605, 0.019015,1, 0.083387,-0.021306,-0.977362,-0.001713, 0.006605, 0.019015, 0.117757, 0.245904,-0.110797,-0.000000, 0.000000,-0.000000,1,0
1777415927221269194,766363000000,   766.363, 0.000919, 0.000087,-0.009421,-0.000033, 0.000175, 0.000185, 0.413022, 0.034653, 0.111706,1,-0.003168, 0.012111, 0.017268,1, 0.090015, 0.004273,-0.987461,-0.003168, 0.012111, 0.017268, 0.117622, 0.246561,-0.110677,-0.000000, 0.000000,-0.000000,1,0
1777415927231354351,766363000000,   766.363, 0.000919, 0.000087,-0.009421,-0.000033, 0.000175, 0.000185, 0.413022, 0.034653, 0.111706,1,-0.003168, 0.012111, 0.017268,1, 0.090015, 0.004273,-0.987461,-0.003168, 0.012111, 0.017268, 0.117622, 0.246561,-0.110677,-0.000000, 0.000000,-0.000000,1,0
1777415927250330733,766383000000,   766.383, 0.000995,-0.000350,-0.010050,-0.000170, 0.000113, 0.000237, 0.483887, 0.038471,-0.000350,1,-0.006214, 0.014820, 0.019727,1, 0.098069,-0.014556,-1.007408,-0.010839, 0.012959, 0.021435, 0.117755, 0.246488,-0.110515,-0.000000, 0.000000,-0.000000,1,0
1777415927260006086,766403000000,   766.403, 0.000973,-0.000495,-0.009671,-0.000054, 0.000212, 0.000070, 0.389126,-0.221771, 0.033005,1,-0.015670, 0.006516, 0.017882,1, 0.093067,-0.034379,-0.984182,-0.011040, 0.012880, 0.012691, 0.117941, 0.246377,-0.110202,-0.000000, 0.000000,-0.000000,1,0
1777415927270089743,766403000000,   766.403, 0.000973,-0.000495,-0.009671,-0.000054, 0.000212, 0.000070, 0.389126,-0.221771, 0.033005,1,-0.015670, 0.006516, 0.017882,1, 0.093067,-0.034379,-0.984182,-0.011040, 0.012880, 0.012691, 0.117941, 0.246377,-0.110202,-0.000000, 0.000000,-0.000000,1,0
1777415927289757755,766423000000,   766.423, 0.000895,-0.000399,-0.009890,-0.000060,-0.000017,-0.000125, 0.460331,-0.529980, 0.153477,1,-0.007092, 0.013228, 0.004962,1, 0.093902,-0.045464,-0.992140,-0.007518, 0.006183,-0.003257, 0.117786, 0.246641,-0.109889,-0.000000, 0.000000,-0.000000,1,0
1777415927299455866,766443000000,   766.443, 0.000960, 0.000267,-0.010407,-0.000060, 0.000192,-0.000195, 0.433723,-0.451417, 0.117617,1,-0.002166,-0.000199,-0.007626,1, 0.099300,-0.012371,-1.022638,-0.003253, 0.009073,-0.012790, 0.117928, 0.246338,-0.110264,-0.000000, 0.000000,-0.000000,1,0
1777415927309539227,766443000000,   766.443, 0.000960, 0.000267,-0.010407,-0.000060, 0.000192,-0.000195, 0.433723,-0.451417, 0.117617,1,-0.002166,-0.000199,-0.007626,1, 0.099300,-0.012371,-1.022638,-0.003253, 0.009073,-0.012790, 0.117928, 0.246338,-0.110264,-0.000000, 0.000000,-0.000000,1,0
1777415927319216432,766463000000,   766.463, 0.001253,-0.000699,-0.009939,-0.000130,-0.000004,-0.000101, 0.416965, 0.090538, 0.290853,1,-0.004251, 0.011706,-0.009958,1, 0.106014,-0.023637,-0.972600,-0.008314, 0.005390,-0.010266, 0.117936, 0.246354,-0.110319,-0.000000, 0.000000,-0.000000,1,0
1777415927329300681,766463000000,   766.463, 0.001253,-0.000699,-0.009939,-0.000130,-0.000004,-0.000101, 0.416965, 0.090538, 0.290853,1,-0.004251, 0.011706,-0.009958,1, 0.106014,-0.023637,-0.972600,-0.008314, 0.005390,-0.010266, 0.117936, 0.246354,-0.110319,-0.000000, 0.000000,-0.000000,1,0
1777415927349007877,766483000000,   766.483, 0.000790, 0.000202,-0.007978,-0.000043, 0.000026,-0.000182, 0.603920,-0.228393,-0.582406,1,-0.005645, 0.004744,-0.015130,1, 0.096813,-0.001374,-0.938984,-0.006307, 0.006052,-0.016774, 0.118178, 0.246239,-0.109846,-0.000000, 0.000000,-0.000000,1,0
1777415927368712092,766493000000,   766.498, 0.001282, 0.000201,-0.010948, 0.000029, 0.000207,-0.000151, 0.572693, 0.042792, 0.041550,1,-0.001696, 0.012398,-0.015682,1, 0.110790, 0.006589,-0.994387,-0.001696, 0.012398,-0.015682, 0.117954, 0.246312,-0.109447,-0.000000, 0.000000,-0.000000,1,0
1777415927378409018,766513000000,   766.518, 0.000863, 0.000155,-0.009271,-0.000003, 0.000018,-0.000118, 0.380354, 0.101183, 0.412200,1, 0.000863, 0.016268,-0.013045,1, 0.091545, 0.012613,-0.956572, 0.000863, 0.016268,-0.013045, 0.117912, 0.246209,-0.109862,-0.000000, 0.000000,-0.000000,1,0
1777415927388493453,766513000000,   766.518, 0.000863, 0.000155,-0.009271,-0.000003, 0.000018,-0.000118, 0.380354, 0.101183, 0.412200,1, 0.000863, 0.016268,-0.013045,1, 0.091545, 0.012613,-0.956572, 0.000863, 0.016268,-0.013045, 0.117912, 0.246209,-0.109862,-0.000000, 0.000000,-0.000000,1,0
1777415927398223008,766533000000,   766.538, 0.000554, 0.000959,-0.009675,-0.000080,-0.000031,-0.000001, 0.197133, 0.531145, 0.186974,1,-0.011625, 0.003642,-0.007077,1, 0.073060, 0.056637,-0.979528,-0.011625, 0.003642,-0.007077, 0.117914, 0.245870,-0.109312,-0.000000, 0.000000,-0.000000,1,0
1777415927408307794,766533000000,   766.538, 0.000554, 0.000959,-0.009675,-0.000080,-0.000031,-0.000001, 0.197133, 0.531145, 0.186974,1,-0.011625, 0.003642,-0.007077,1, 0.073060, 0.056637,-0.979528,-0.011625, 0.003642,-0.007077, 0.117914, 0.245870,-0.109312,-0.000000, 0.000000,-0.000000,1,0
1777415927427961214,766553000000,   766.558, 0.000452, 0.000210,-0.009618, 0.000008, 0.000136, 0.000181, 0.057997, 0.293754,-0.035452,1,-0.004892, 0.011199, 0.008040,1, 0.059099, 0.032520,-1.002196,-0.004892, 0.011199, 0.008040, 0.117811, 0.245706,-0.109419,-0.000000, 0.000000,-0.000000,1,0
1777415927437662307,766573000000,   766.578, 0.000509, 0.000338,-0.009350,-0.000023,-0.000004, 0.000232,-0.032677, 0.260679, 0.294930,1,-0.001507, 0.003465, 0.018919,1, 0.050033, 0.029179,-0.968497,-0.001507, 0.003465, 0.018919, 0.117762, 0.245858,-0.109834,-0.000000, 0.000000,-0.000000,1,0
1777415927447747352,766573000000,   766.578, 0.000509, 0.000338,-0.009350,-0.000023,-0.000004, 0.000232,-0.032677, 0.260679, 0.294930,1,-0.001507, 0.003465, 0.018919,1, 0.050033, 0.029179,-0.968497,-0.001507, 0.003465, 0.018919, 0.117762, 0.245858,-0.109834,-0.000000, 0.000000,-0.000000,1,0
1777415927457348503,766593000000,   766.598, 0.000377, 0.000514,-0.009734, 0.000242,-0.000043, 0.000287,-0.127013, 0.171694, 0.198806,1, 0.013527, 0.003655, 0.026034,1, 0.041617, 0.020146,-0.978234, 0.013527, 0.003655, 0.026035, 0.118324, 0.245933,-0.109822,-0.000000, 0.000000, 0.000001,1,0
1777415927467433234,766593000000,   766.598, 0.000377, 0.000514,-0.009734, 0.000242,-0.000043, 0.000287,-0.127013, 0.171694, 0.198806,1, 0.013527, 0.003655, 0.026034,1, 0.041617, 0.020146,-0.978234, 0.013527, 0.003655, 0.026035, 0.118324, 0.245933,-0.109822,-0.000000, 0.000000, 0.000001,1,0
1777415927477091569,766613000000,   766.618, 0.000305, 0.000489,-0.008587,-0.000052,-0.000061, 0.000215,-0.217573, 0.053897, 0.295083,1, 0.011075, 0.004729, 0.024529,1, 0.032855, 0.007897,-0.968391, 0.011075, 0.004729, 0.024530, 0.118202, 0.246381,-0.109198,-0.000000, 0.000000, 0.000001,1,0
1777415927487189596,766613000000,   766.618, 0.000305, 0.000489,-0.008587,-0.000052,-0.000061, 0.000215,-0.217573, 0.053897, 0.295083,1, 0.011075, 0.004729, 0.024529,1, 0.032855, 0.007897,-0.968391, 0.011075, 0.004729, 0.024530, 0.118202, 0.246381,-0.109198,-0.000000, 0.000000, 0.000001,1,0
1777415927506913884,766633000000,   766.638, 0.000625, 0.000963,-0.010893,-0.000047, 0.000027, 0.000305,-0.047307, 0.436389,-0.228935,1, 0.004843, 0.005826, 0.028255,1, 0.050521, 0.046643,-1.021810, 0.004843, 0.005827, 0.028256, 0.118462, 0.246392,-0.109264,-0.000000, 0.000000, 0.000001,1,0
1777415927516603088,766653000000,   766.658, 0.000710, 0.000266,-0.009883, 0.000021, 0.000279, 0.000571,-0.085559, 0.301480, 0.178241,1, 0.001898, 0.014700, 0.049213,1, 0.046696, 0.032859,-0.980285, 0.001898, 0.014701, 0.049214, 0.118980, 0.246182,-0.108848,-0.000000, 0.000000, 0.000001,1,0
1777415927526686486,766653000000,   766.658, 0.000710, 0.000266,-0.009883, 0.000021, 0.000279, 0.000571,-0.085559, 0.301480, 0.178241,1, 0.001898, 0.014700, 0.049213,1, 0.046696, 0.032859,-0.980285, 0.001898, 0.014701, 0.049214, 0.118980, 0.246182,-0.108848,-0.000000, 0.000000, 0.000001,1,0
1777415927536303988,766673000000,   766.678, 0.000365, 0.000131,-0.010002, 0.000080, 0.000105, 0.000808,-0.134811, 0.252310,-0.087131,1, 0.001451, 0.007693, 0.068274,1, 0.041853, 0.027958,-1.007336, 0.001451, 0.007694, 0.068275, 0.119530, 0.246346,-0.108289,-0.000000, 0.000000, 0.000001,1,0
1777415927546387515,766673000000,   766.678, 0.000365, 0.000131,-0.010002, 0.000080, 0.000105, 0.000808,-0.134811, 0.252310,-0.087131,1, 0.001451, 0.007693, 0.068274,1, 0.041853, 0.027958,-1.007336, 0.001451, 0.007694, 0.068275, 0.119530, 0.246346,-0.108289,-0.000000, 0.000000, 0.000001,1,0
1777415927561987932,766693000000,   766.698, 0.000306, 0.000374,-0.010349,-0.000179, 0.000037, 0.000762,-0.266624, 0.213533,-0.018278,1,-0.006508, 0.009698, 0.073185,1, 0.028627, 0.024019,-1.000302,-0.006508, 0.009698, 0.073186, 0.120801, 0.246432,-0.108779,-0.000000, 0.000000, 0.000001,1,0
1777415927571684136,766713000000,   766.718, 0.000477,-0.000235,-0.008427, 0.000303, 0.000231, 0.000812,-0.137507,-0.154052, 0.774303,1, 0.015471, 0.021152, 0.079202,1, 0.042107,-0.013561,-0.919464, 0.015471, 0.021152, 0.079203, 0.121089, 0.246287,-0.108486,-0.000000, 0.000000, 0.000001,1,0
1777415927581767478,766713000000,   766.718, 0.000477,-0.000235,-0.008427, 0.000303, 0.000231, 0.000812,-0.137507,-0.154052, 0.774303,1, 0.015471, 0.021152, 0.079202,1, 0.042107,-0.013561,-0.919464, 0.015471, 0.021152, 0.079203, 0.121089, 0.246287,-0.108486,-0.000000, 0.000000, 0.000001,1,0
1777415927591374277,766733000000,   766.733,-0.000166, 0.000163,-0.009802, 0.000128,-0.000107, 0.000680,-0.486975,-0.068788, 0.018045,1, 0.013147,-0.004222, 0.071559,1, 0.006415,-0.005051,-0.996585, 0.013147,-0.004221, 0.071560, 0.121300, 0.245704,-0.108283,-0.000000, 0.000000, 0.000001,1,0
1777415927601457619,766733000000,   766.733,-0.000166, 0.000163,-0.009802, 0.000128,-0.000107, 0.000680,-0.486975,-0.068788, 0.018045,1, 0.013147,-0.004222, 0.071559,1, 0.006415,-0.005051,-0.996585, 0.013147,-0.004221, 0.071560, 0.121300, 0.245704,-0.108283,-0.000000, 0.000000, 0.000001,1,0
1777415927611110936,766753000000,   766.753, 0.000314, 0.000393,-0.013309, 0.000182, 0.000226, 0.000716,-0.287082, 0.260505,-1.085532,1, 0.011538, 0.015755, 0.069707,1, 0.026964, 0.028338,-1.109109, 0.011538, 0.015755, 0.069708, 0.121315, 0.246159,-0.108003,-0.000000, 0.000000, 0.000001,1,0
1777415927621194592,766753000000,   766.753, 0.000314, 0.000393,-0.013309, 0.000182, 0.000226, 0.000716,-0.287082, 0.260505,-1.085532,1, 0.011538, 0.015755, 0.069707,1, 0.026964, 0.028338,-1.109109, 0.011538, 0.015755, 0.069708, 0.121315, 0.246159,-0.108003,-0.000000, 0.000000, 0.000001,1,0
1777415927640622666,766773000000,   766.773, 0.000138, 0.000022,-0.010161, 0.000005, 0.000126, 0.000571,-0.296197,-0.378937, 0.651605,1, 0.026858, 0.004122, 0.072157,1, 0.021910,-0.016031,-0.969653, 0.013793, 0.005848, 0.065325, 0.121793, 0.245784,-0.108529,-0.000000, 0.000000, 0.000001,1,0
1777415927650251409,766793000000,   766.793,-0.000060, 0.000094,-0.006942, 0.000527, 0.000071, 0.000714,-0.191781, 0.064205,-0.698533,1, 0.009184,-0.000487, 0.067844,1, 0.018013, 0.009841,-0.885249, 0.031113, 0.006492, 0.069112, 0.122583, 0.246018,-0.107770,-0.000000, 0.000000, 0.000001,1,0
1777415927660353380,766793000000,   766.793,-0.000060, 0.000094,-0.006942, 0.000527, 0.000071, 0.000714,-0.191781, 0.064205,-0.698533,1, 0.009184,-0.000487, 0.067844,1, 0.018013, 0.009841,-0.885249, 0.031113, 0.006492, 0.069112, 0.122583, 0.246018,-0.107770,-0.000000, 0.000000, 0.000001,1,0
1777415927670048621,766813000000,   766.813, 0.000129, 0.000633,-0.009819, 0.000149,-0.000367, 0.000569,-0.065428,-0.608373,-0.311404,1, 0.027466, 0.004028, 0.062876,1, 0.031766,-0.008538,-1.003784, 0.022497,-0.013859, 0.061124, 0.123456, 0.246638,-0.107803,-0.000000, 0.000000, 0.000001,1,0
1777415927680132019,766813000000,   766.813, 0.000129, 0.000633,-0.009819, 0.000149,-0.000367, 0.000569,-0.065428,-0.608373,-0.311404,1, 0.027466, 0.004028, 0.062876,1, 0.031766,-0.008538,-1.003784, 0.022497,-0.013859, 0.061124, 0.123456, 0.246638,-0.107803,-0.000000, 0.000000, 0.000001,1,0
1777415927699809345,766833000000,   766.833, 0.000473, 0.000386,-0.009569, 0.000336, 0.000361, 0.000594,-0.149907,-0.138117,-0.182376,1, 0.020511,-0.006980, 0.056188,1, 0.045316, 0.004871,-0.999052, 0.025747, 0.012664, 0.058091, 0.123555, 0.246472,-0.107836,-0.000000, 0.000000, 0.000001,1,0
1777415927709511346,766853000000,   766.853, 0.000255,-0.001499,-0.008151, 0.000256,-0.000065, 0.000516,-0.060625, 0.007330,-0.109262,1, 0.020773, 0.003062, 0.055692,1, 0.035140,-0.070615,-0.943303, 0.018089,-0.003077, 0.052634, 0.123949, 0.246273,-0.107582,-0.000000, 0.000000, 0.000001,1,0
1777415927719596114,766853000000,   766.853, 0.000255,-0.001499,-0.008151, 0.000256,-0.000065, 0.000516,-0.060625, 0.007330,-0.109262,1, 0.020773, 0.003062, 0.055692,1, 0.035140,-0.070615,-0.943303, 0.018089,-0.003077, 0.052634, 0.123949, 0.246273,-0.107582,-0.000000, 0.000000, 0.000001,1,0
1777415927729260985,766873000000,   766.873, 0.000134, 0.001688,-0.012497,-0.000393,-0.000178, 0.000211,-0.255133,-0.668303,-0.055175,1, 0.023593,-0.016630, 0.040760,1, 0.023556, 0.053420,-1.112733,-0.004379,-0.014357, 0.032129, 0.124187, 0.245980,-0.107522,-0.000000, 0.000000, 0.000001,1,0
1777415927739345660,766873000000,   766.873, 0.000134, 0.001688,-0.012497,-0.000393,-0.000178, 0.000211,-0.255133,-0.668303,-0.055175,1, 0.023593,-0.016630, 0.040760,1, 0.023556, 0.053420,-1.112733,-0.004379,-0.014357, 0.032129, 0.124187, 0.245980,-0.107522,-0.000000, 0.000000, 0.000001,1,0
1777415927749005458,766893000000,   766.893, 0.000424,-0.000495,-0.011492,-0.000076, 0.000073, 0.000659,-0.180395, 0.420454, 1.013878,1,-0.005255, 0.031969, 0.047702,1, 0.037593,-0.006794,-1.015404,-0.002276, 0.020953, 0.056137, 0.125108, 0.246018,-0.107876,-0.000000, 0.000000, 0.000001,1,0
1777415927759088541,766893000000,   766.893, 0.000424,-0.000495,-0.011492,-0.000076, 0.000073, 0.000659,-0.180395, 0.420454, 1.013878,1,-0.005255, 0.031969, 0.047702,1, 0.037593,-0.006794,-1.015404,-0.002276, 0.020953, 0.056137, 0.125108, 0.246018,-0.107876,-0.000000, 0.000000, 0.000001,1,0
1777415927778796089,766913000000,   766.913,-0.000159,-0.002289,-0.007344, 0.000002,-0.000238, 0.000250,-0.036147,-0.523923,-0.233627,1, 0.005796, 0.016498, 0.052573,1, 0.020714,-0.128805,-0.932447,-0.004891,-0.002404, 0.037697, 0.125631, 0.245590,-0.108221,-0.000000, 0.000000, 0.000001,1,0
1777415927788454738,766913000000,   766.928,-0.000159,-0.002289,-0.007344, 0.000002,-0.000238, 0.000250,-0.181691, 0.041399, 0.194057,1, 0.005915,-0.020770, 0.024603,1, 0.020714,-0.128805,-0.932447,-0.004891,-0.002404, 0.037697, 0.125631, 0.245590,-0.108221,-0.000000, 0.000000, 0.000001,1,0
1777415927798539525,766913000000,   766.928,-0.000159,-0.002289,-0.007344, 0.000002,-0.000238, 0.000250,-0.181691, 0.041399, 0.194057,1, 0.005915,-0.020770, 0.024603,1, 0.020714,-0.128805,-0.932447,-0.004891,-0.002404, 0.037697, 0.125631, 0.245590,-0.108221,-0.000000, 0.000000, 0.000001,1,0
1777415927808272617,766943000000,   766.948, 0.000122, 0.000414,-0.004903, 0.000869, 0.000579, 0.000330,-0.400519, 0.139432, 1.625039,1, 0.033452, 0.022215, 0.030225,1, 0.013721, 0.011989,-0.832800, 0.033452, 0.022216, 0.030226, 0.126147, 0.245890,-0.107581,-0.000000, 0.000000, 0.000001,1,0
1777415927818389013,766943000000,   766.948, 0.000122, 0.000414,-0.004903, 0.000869, 0.000579, 0.000330,-0.400519, 0.139432, 1.625039,1, 0.033452, 0.022215, 0.030225,1, 0.013721, 0.011989,-0.832800, 0.033452, 0.022216, 0.030226, 0.126147, 0.245890,-0.107581,-0.000000, 0.000000, 0.000001,1,0
1777415927838022767,766963000000,   766.968, 0.000002,-0.001408,-0.010120,-0.000007,-0.000669,-0.000042,-0.200115,-0.675568,-0.607244,1, 0.021471,-0.030370, 0.013624,1, 0.034175,-0.071917,-1.060426, 0.021470,-0.030369, 0.013625, 0.125795, 0.245845,-0.107410,-0.000000, 0.000000, 0.000001,1,0
1777415927857920051,766983000000,   766.988, 0.001174, 0.001530,-0.012483, 0.000244, 0.000160, 0.000159, 0.052957, 0.884265,-0.357946,1, 0.026604,-0.008680, 0.014270,1, 0.058901, 0.087014,-1.035063, 0.026604,-0.008679, 0.014271, 0.125852, 0.245875,-0.107610,-0.000000, 0.000000, 0.000001,1,0
1777415927867413316,767003000000,   767.008,-0.000047,-0.000305,-0.010377, 0.000800,-0.000357, 0.000458,-0.187911,-0.267491, 0.704320,1, 0.027150,-0.000633, 0.032013,1, 0.033833,-0.030669,-0.926768, 0.027150,-0.000632, 0.032014, 0.126470, 0.245457,-0.107366,-0.000000, 0.000000, 0.000001,1,0
1777415927877498176,767003000000,   767.008,-0.000047,-0.000305,-0.010377, 0.000800,-0.000357, 0.000458,-0.187911,-0.267491, 0.704320,1, 0.027150,-0.000633, 0.032013,1, 0.033833,-0.030669,-0.926768, 0.027150,-0.000632, 0.032014, 0.126470, 0.245457,-0.107366,-0.000000, 0.000000, 0.000001,1,0
1777415927887145030,767023000000,   767.028,-0.000243,-0.000222,-0.005956, 0.000113, 0.000232, 0.000324,-0.409240,-0.107026, 1.085062,1, 0.000206, 0.001601, 0.023975,1, 0.010859,-0.014601,-0.887964, 0.000205, 0.001602, 0.023976, 0.127101, 0.245291,-0.107479,-0.000000, 0.000000, 0.000001,1,0
1777415927897228723,767023000000,   767.028,-0.000243,-0.000222,-0.005956, 0.000113, 0.000232, 0.000324,-0.409240,-0.107026, 1.085062,1, 0.000206, 0.001601, 0.023975,1, 0.010859,-0.014601,-0.887964, 0.000205, 0.001602, 0.023976, 0.127101, 0.245291,-0.107479,-0.000000, 0.000000, 0.000001,1,0
1777415927916969696,767043000000,   767.048, 0.000393,-0.000146,-0.009387,-0.000640, 0.000030, 0.000293,-0.023460, 0.276788,-0.410138,1,-0.023977, 0.001652, 0.028787,1, 0.050217, 0.024536,-1.040431,-0.023978, 0.001652, 0.028788, 0.127854, 0.245593,-0.107241,-0.000000, 0.000000, 0.000001,1,0
1777415927926651901,767063000000,   767.068, 0.000438, 0.000194,-0.011595,-0.000102,-0.000093, 0.000510,-0.179830, 0.176807,-0.177939,1,-0.009976, 0.000002, 0.043717,1, 0.034369, 0.014563,-1.016749,-0.009976, 0.000002, 0.043718, 0.128174, 0.245527,-0.107121,-0.000000, 0.000000, 0.000001,1,0
1777415927936737002,767063000000,   767.068, 0.000438, 0.000194,-0.011595,-0.000102,-0.000093, 0.000510,-0.179830, 0.176807,-0.177939,1,-0.009976, 0.000002, 0.043717,1, 0.034369, 0.014563,-1.016749,-0.009976, 0.000002, 0.043718, 0.128174, 0.245527,-0.107121,-0.000000, 0.000000, 0.000001,1,0
1777415927946355245,767083000000,   767.088, 0.000316, 0.000537,-0.010983,-0.000123,-0.000327, 0.000395,-0.169542, 0.364053,-0.117170,1,-0.004165,-0.006139, 0.041281,1, 0.035433, 0.033816,-1.010552,-0.004165,-0.006138, 0.041282, 0.127956, 0.245642,-0.106206,-0.000000, 0.000000, 0.000001,1,0
1777415927956440291,767083000000,   767.088, 0.000316, 0.000537,-0.010983,-0.000123,-0.000327, 0.000395,-0.169542, 0.364053,-0.117170,1,-0.004165,-0.006139, 0.041281,1, 0.035433, 0.033816,-1.010552,-0.004165,-0.006138, 0.041282, 0.127956, 0.245642,-0.106206,-0.000000, 0.000000, 0.000001,1,0
1777415927971970821,767103000000,   767.108, 0.000533,-0.000282,-0.009052, 0.000004, 0.000197, 0.000586,-0.060361,-0.218126, 0.487924,1,-0.019542, 0.000936, 0.047897,1, 0.046523,-0.025450,-0.948852,-0.019543, 0.000937, 0.047898, 0.128491, 0.245283,-0.105677,-0.000000, 0.000000, 0.000001,1,0
1777415927981664673,767123000000,   767.128, 0.000601,-0.000413,-0.004487,-0.000297, 0.000431, 0.000347, 0.043888, 0.259657, 1.543033,1,-0.026989, 0.013897, 0.039213,1, 0.057165, 0.023412,-0.841261,-0.026989, 0.013897, 0.039214, 0.129294, 0.245358,-0.105831,-0.000000, 0.000000, 0.000001,1,0
1777415927991765774,767123000000,   767.128, 0.000601,-0.000413,-0.004487,-0.000297, 0.000431, 0.000347, 0.043888, 0.259657, 1.543033,1,-0.026989, 0.013897, 0.039213,1, 0.057165, 0.023412,-0.841261,-0.026989, 0.013897, 0.039214, 0.129294, 0.245358,-0.105831,-0.000000, 0.000000, 0.000001,1,0
1777415928001419590,767143000000,   767.143, 0.000325, 0.001063,-0.012221,-0.000214,-0.000434, 0.000343,-0.171733, 0.509144,-0.508434,1,-0.044312,-0.026565, 0.036295,1, 0.034920, 0.049047,-1.050466,-0.044312,-0.026565, 0.036296, 0.129652, 0.245170,-0.105757,-0.000000, 0.000000, 0.000001,1,0
1777415928011503821,767143000000,   767.143, 0.000325, 0.001063,-0.012221,-0.000214,-0.000434, 0.000343,-0.171733, 0.509144,-0.508434,1,-0.044312,-0.026565, 0.036295,1, 0.034920, 0.049047,-1.050466,-0.044312,-0.026565, 0.036296, 0.129652, 0.245170,-0.105757,-0.000000, 0.000000, 0.000001,1,0
1777415928021163767,767163000000,   767.163, 0.000774, 0.001118,-0.011181, 0.000196, 0.000411, 0.000796,-0.062467, 0.510366,-0.267702,1,-0.018071, 0.027123, 0.061356,1, 0.045947, 0.049549,-1.025925,-0.018071, 0.027123, 0.061357, 0.129815, 0.245262,-0.106221,-0.000000, 0.000000, 0.000001,1,0
1777415928031247516,767163000000,   767.163, 0.000774, 0.001118,-0.011181, 0.000196, 0.000411, 0.000796,-0.062467, 0.510366,-0.267702,1,-0.018071, 0.027123, 0.061356,1, 0.045947, 0.049549,-1.025925,-0.018071, 0.027123, 0.061357, 0.129815, 0.245262,-0.106221,-0.000000, 0.000000, 0.000001,1,0
1777415928050608369,767183000000,   767.183, 0.000550,-0.000326,-0.008635, 0.000010,-0.000316, 0.000522,-0.309080,-0.466854,-0.327379,1,-0.035774, 0.018059, 0.071441,1, 0.037270,-0.052092,-0.928767,-0.023429,-0.006675, 0.063308, 0.130450, 0.244488,-0.106705,-0.000000, 0.000000, 0.000001,1,0
1777415928060304073,767203000000,   767.203, 0.000377, 0.001837,-0.008492, 0.000085, 0.000055, 0.000586,-0.526530,-0.353045,-0.942166,1,-0.028308,-0.008436, 0.061379,1, 0.017656, 0.059858,-0.945155,-0.008046,-0.001306, 0.062017, 0.130695, 0.244518,-0.106066,-0.000000, 0.000000, 0.000001,1,0
1777415928070387359,767203000000,   767.203, 0.000377, 0.001837,-0.008492, 0.000085, 0.000055, 0.000586,-0.526530,-0.353045,-0.942166,1,-0.028308,-0.008436, 0.061379,1, 0.017656, 0.059858,-0.945155,-0.008046,-0.001306, 0.062017, 0.130695, 0.244518,-0.106066,-0.000000, 0.000000, 0.000001,1,0
1777415928080040453,767223000000,   767.223, 0.000704,-0.000113,-0.009988, 0.000136, 0.000376, 0.000795,-0.451282, 0.457800,-0.023146,1,-0.019387, 0.008530, 0.066693,1, 0.040576, 0.022438,-0.982535,-0.004424, 0.022488, 0.072061, 0.131257, 0.244634,-0.104315,-0.000000, 0.000000, 0.000001,1,0
1777415928090124666,767223000000,   767.223, 0.000704,-0.000113,-0.009988, 0.000136, 0.000376, 0.000795,-0.451282, 0.457800,-0.023146,1,-0.019387, 0.008530, 0.066693,1, 0.040576, 0.022438,-0.982535,-0.004424, 0.022488, 0.072061, 0.131257, 0.244634,-0.104315,-0.000000, 0.000000, 0.000001,1,0
1777415928109866398,767243000000,   767.243, 0.000653, 0.001470,-0.009713,-0.000157,-0.000171, 0.000774,-0.415833,-0.258277,-0.258252,1,-0.012692, 0.007206, 0.069312,1, 0.038356, 0.049612,-0.965237,-0.010278,-0.001147, 0.074103, 0.131710, 0.245177,-0.103873,-0.000000, 0.000000, 0.000001,1,0
1777415928119559713,767263000000,   767.263, 0.000392, 0.000073,-0.010268,-0.000011, 0.000047, 0.000988,-0.201484, 0.363180, 0.114832,1,-0.030168, 0.001985, 0.077627,1, 0.039163, 0.022347,-0.963456,-0.011919, 0.004824, 0.086879, 0.131603, 0.245448,-0.103677,-0.000000, 0.000000, 0.000001,1,0
1777415928129643110,767263000000,   767.263, 0.000392, 0.000073,-0.010268,-0.000011, 0.000047, 0.000988,-0.201484, 0.363180, 0.114832,1,-0.030168, 0.001985, 0.077627,1, 0.039163, 0.022347,-0.963456,-0.011919, 0.004824, 0.086879, 0.131603, 0.245448,-0.103677,-0.000000, 0.000000, 0.000001,1,0
1777415928139309408,767283000000,   767.283, 0.000154, 0.000417,-0.009764,-0.000318, 0.000278, 0.001006,-0.169271, 0.393215,-0.165645,1,-0.041551,-0.001178, 0.086385,1, 0.032345, 0.045031,-0.982358,-0.036997, 0.012821, 0.092196, 0.132197, 0.245165,-0.103424,-0.000000, 0.000000, 0.000001,1,0
1777415928149412267,767283000000,   767.283, 0.000154, 0.000417,-0.009764,-0.000318, 0.000278, 0.001006,-0.169271, 0.393215,-0.165645,1,-0.041551,-0.001178, 0.086385,1, 0.032345, 0.045031,-0.982358,-0.036997, 0.012821, 0.092196, 0.132197, 0.245165,-0.103424,-0.000000, 0.000000, 0.000001,1,0
1777415928159002345,767303000000,   767.303, 0.000125,-0.000420,-0.009784,-0.000075, 0.000035, 0.001035,-0.279683, 0.164046,-0.094755,1,-0.042795, 0.013414, 0.099541,1, 0.018647,-0.013848,-0.992304,-0.029189, 0.007928, 0.100777, 0.133059, 0.245348,-0.103347,-0.000000, 0.000000, 0.000001,1,0
1777415928169086409,767303000000,   767.303, 0.000125,-0.000420,-0.009784,-0.000075, 0.000035, 0.001035,-0.279683, 0.164046,-0.094755,1,-0.042795, 0.013414, 0.099541,1, 0.018647,-0.013848,-0.992304,-0.029189, 0.007928, 0.100777, 0.133059, 0.245348,-0.103347,-0.000000, 0.000000, 0.000001,1,0
1777415928188802678,767323000000,   767.323, 0.000072, 0.000513,-0.006141, 0.000054, 0.000081, 0.000844,-0.398516,-0.273007,-0.695390,1,-0.014181, 0.008890, 0.096896,1, 0.010967, 0.005167,-0.869938,-0.007825, 0.008190, 0.091812, 0.134184, 0.244988,-0.102865,-0.000000, 0.000000, 0.000001,1,0
1777415928198504808,767333000000,   767.338, 0.000204, 0.000431,-0.013355,-0.000040,-0.000063, 0.000953,-0.392174, 0.170538,-1.071305,1,-0.004487,-0.001365, 0.094557,1, 0.013781, 0.019076,-1.107794,-0.004487,-0.001365, 0.094558, 0.134291, 0.244838,-0.102449,-0.000000, 0.000000, 0.000001,1,0
1777415928208589280,767333000000,   767.338, 0.000204, 0.000431,-0.013355,-0.000040,-0.000063, 0.000953,-0.392174, 0.170538,-1.071305,1,-0.004487,-0.001365, 0.094557,1, 0.013781, 0.019076,-1.107794,-0.004487,-0.001365, 0.094558, 0.134291, 0.244838,-0.102449,-0.000000, 0.000000, 0.000001,1,0
1777415928218323557,767353000000,   767.358,-0.000274,-0.000459,-0.010582,-0.000034, 0.000415, 0.000875,-0.844999,-0.218345,-0.083655,1,-0.008718, 0.007392, 0.090741,1,-0.032421,-0.020674,-1.007084,-0.008718, 0.007392, 0.090742, 0.134583, 0.244505,-0.102172,-0.000000, 0.000000, 0.000001,1,0
1777415928228407621,767353000000,   767.358,-0.000274,-0.000459,-0.010582,-0.000034, 0.000415, 0.000875,-0.844999,-0.218345,-0.083655,1,-0.008718, 0.007392, 0.090741,1,-0.032421,-0.020674,-1.007084,-0.008718, 0.007392, 0.090742, 0.134583, 0.244505,-0.102172,-0.000000, 0.000000, 0.000001,1,0
1777415928247576646,767373000000,   767.378,-0.000359,-0.000054,-0.009715,-0.000206, 0.000061, 0.000860,-0.738346,-0.197141, 0.108399,1,-0.012738, 0.003144, 0.088650,1,-0.021464,-0.018448,-0.987495,-0.012739, 0.003145, 0.088651, 0.135071, 0.244285,-0.102682,-0.000000, 0.000000, 0.000001,1,0
1777415928257328552,767393000000,   767.398,-0.000536,-0.000221,-0.011434,-0.000403, 0.000074, 0.000866,-0.909839, 0.068701,-0.439481,1,-0.031420, 0.006566, 0.084389,1,-0.039218, 0.008877,-1.043377,-0.031421, 0.006566, 0.084390, 0.135837, 0.244271,-0.103273,-0.000000, 0.000000, 0.000001,1,0
1777415928267413135,767393000000,   767.398,-0.000536,-0.000221,-0.011434,-0.000403, 0.000074, 0.000866,-0.909839, 0.068701,-0.439481,1,-0.031420, 0.006566, 0.084389,1,-0.039218, 0.008877,-1.043377,-0.031421, 0.006566, 0.084390, 0.135837, 0.244271,-0.103273,-0.000000, 0.000000, 0.000001,1,0
1777415928277002619,767413000000,   767.418, 0.000202,-0.001164,-0.011128, 0.000228, 0.000012, 0.000910,-0.595620,-0.545640, 0.227614,1,-0.012465, 0.006525, 0.085330,1,-0.007101,-0.053463,-0.975348,-0.012465, 0.006526, 0.085331, 0.136849, 0.244503,-0.102332,-0.000000, 0.000000, 0.000001,1,0
1777415928287086498,767413000000,   767.418, 0.000202,-0.001164,-0.011128, 0.000228, 0.000012, 0.000910,-0.595620,-0.545640, 0.227614,1,-0.012465, 0.006525, 0.085330,1,-0.007101,-0.053463,-0.975348,-0.012465, 0.006526, 0.085331, 0.136849, 0.244503,-0.102332,-0.000000, 0.000000, 0.000001,1,0
1777415928306828508,767433000000,   767.438,-0.000236, 0.000067,-0.010692, 0.000073,-0.000057, 0.000657,-0.680986,-0.251309, 0.042326,1,-0.009044,-0.007169, 0.069673,1,-0.015945,-0.023312,-0.994249,-0.009045,-0.007168, 0.069674, 0.136959, 0.244593,-0.102068,-0.000000, 0.000000, 0.000001,1,0
1777415928316525823,767453000000,   767.458,-0.000038,-0.000612,-0.009490,-0.000005, 0.000016, 0.000611,-0.481965,-0.362015, 0.203083,1, 0.005142, 0.003049, 0.063744,1, 0.004402,-0.034632,-0.977854, 0.005142, 0.003049, 0.063745, 0.136907, 0.244610,-0.100992,-0.000000, 0.000000, 0.000001,1,0
1777415928326610702,767453000000,   767.458,-0.000038,-0.000612,-0.009490,-0.000005, 0.000016, 0.000611,-0.481965,-0.362015, 0.203083,1, 0.005142, 0.003049, 0.063744,1, 0.004402,-0.034632,-0.977854, 0.005142, 0.003049, 0.063745, 0.136907, 0.244610,-0.100992,-0.000000, 0.000000, 0.000001,1,0
1777415928336333701,767473000000,   767.478,-0.000314,-0.001167,-0.010232, 0.001153, 0.000434, 0.000571,-0.233379,-0.588196,-0.491435,1, 0.052704, 0.013018, 0.056911,1, 0.029619,-0.057896,-1.048682, 0.052703, 0.013018, 0.056912, 0.137224, 0.244662,-0.099990,-0.000000, 0.000000, 0.000001,1,0
1777415928346417784,767473000000,   767.478,-0.000314,-0.001167,-0.010232, 0.001153, 0.000434, 0.000571,-0.233379,-0.588196,-0.491435,1, 0.052704, 0.013018, 0.056911,1, 0.029619,-0.057896,-1.048682, 0.052703, 0.013018, 0.056912, 0.137224, 0.244662,-0.099990,-0.000000, 0.000000, 0.000001,1,0
1777415928361892834,767493000000,   767.498,-0.000219, 0.000669,-0.009640, 0.000251, 0.000094, 0.000082,-0.522849,-0.287956,-0.317073,1, 0.030263,-0.004913, 0.025275,1,-0.000103,-0.028176,-1.030915, 0.030263,-0.004913, 0.025276, 0.137335, 0.244586,-0.100507,-0.000000, 0.000000, 0.000001,1,0
1777415928371534706,767513000000,   767.518, 0.000796,-0.001342,-0.011243, 0.000822, 0.000434, 0.000529, 0.035237,-0.551522,-0.733201,1, 0.044662, 0.025512, 0.034147,1, 0.057134,-0.055881,-1.073331, 0.044662, 0.025512, 0.034148, 0.137900, 0.244666,-0.101145,-0.000000, 0.000000, 0.000001,1,0
1777415928381619177,767513000000,   767.518, 0.000796,-0.001342,-0.011243, 0.000822, 0.000434, 0.000529, 0.035237,-0.551522,-0.733201,1, 0.044662, 0.025512, 0.034147,1, 0.057134,-0.055881,-1.073331, 0.044662, 0.025512, 0.034148, 0.137900, 0.244666,-0.101145,-0.000000, 0.000000, 0.000001,1,0
1777415928391343121,767533000000,   767.533, 0.000021, 0.001710,-0.006601, 0.000139, 0.000063, 0.000259,-0.561138,-0.027167, 0.654826,1, 0.007694, 0.000891, 0.029993,1,-0.003697,-0.002932,-0.931793, 0.007694, 0.000891, 0.029994, 0.138089, 0.243976,-0.101083,-0.000000, 0.000000, 0.000001,1,0
1777415928401427296,767533000000,   767.533, 0.000021, 0.001710,-0.006601, 0.000139, 0.000063, 0.000259,-0.561138,-0.027167, 0.654826,1, 0.007694, 0.000891, 0.029993,1,-0.003697,-0.002932,-0.931793, 0.007694, 0.000891, 0.029994, 0.138089, 0.243976,-0.101083,-0.000000, 0.000000, 0.000001,1,0
1777415928420771224,767553000000,   767.553, 0.000719,-0.003031,-0.007159, 0.000120, 0.000663, 0.000418,-0.391471, 0.318972,-0.179119,1, 0.018316, 0.015883, 0.035009,1, 0.042979,-0.134564,-0.916903, 0.011443, 0.033532, 0.037971, 0.138522, 0.243473,-0.102108,-0.000000, 0.000000, 0.000001,1,0
1777415928430408745,767573000000,   767.573, 0.000556,-0.001662,-0.009452, 0.000329,-0.000045, 0.000107,-0.171031,-0.696804,-0.067058,1, 0.014279, 0.005344, 0.029635,1, 0.053597,-0.138337,-1.013931, 0.022097,-0.001355, 0.021758, 0.137981, 0.243271,-0.101962,-0.000000, 0.000000, 0.000001,1,0
1777415928440493271,767573000000,   767.573, 0.000556,-0.001662,-0.009452, 0.000329,-0.000045, 0.000107,-0.171031,-0.696804,-0.067058,1, 0.014279, 0.005344, 0.029635,1, 0.053597,-0.138337,-1.013931, 0.022097,-0.001355, 0.021758, 0.137981, 0.243271,-0.101962,-0.000000, 0.000000, 0.000001,1,0
1777415928450168569,767593000000,   767.593, 0.000337,-0.002146,-0.010478, 0.000527, 0.000158, 0.000125,-0.249504, 0.019011, 0.337179,1, 0.044897, 0.010065, 0.006571,1, 0.032887,-0.102785,-1.023790, 0.050246, 0.008637, 0.007850, 0.138058, 0.243126,-0.101045,-0.000000, 0.000000, 0.000001,1,0
1777415928460254059,767593000000,   767.593, 0.000337,-0.002146,-0.010478, 0.000527, 0.000158, 0.000125,-0.249504, 0.019011, 0.337179,1, 0.044897, 0.010065, 0.006571,1, 0.032887,-0.102785,-1.023790, 0.050246, 0.008637, 0.007850, 0.138058, 0.243126,-0.101045,-0.000000, 0.000000, 0.000001,1,0
1777415928479961606,767613000000,   767.613,-0.000393,-0.001011,-0.008262,-0.000269,-0.000258,-0.000260,-0.102600,-0.270105, 0.071919,1, 0.055407, 0.009876,-0.002081,1, 0.011669,-0.061437,-0.915920, 0.021951,-0.005501,-0.014540, 0.138437, 0.243173,-0.100727,-0.000000, 0.000000, 0.000001,1,0
1777415928489669347,767633000000,   767.633,-0.000024,-0.001726,-0.008278, 0.000292,-0.000107,-0.000204,-0.269620,-0.462881,-0.855999,1, 0.005810, 0.000058,-0.023568,1, 0.010092,-0.125010,-0.967334, 0.010475,-0.005001,-0.022018, 0.138558, 0.242984,-0.101865,-0.000000, 0.000000, 0.000001,1,0
1777415928499753948,767633000000,   767.633,-0.000024,-0.001726,-0.008278, 0.000292,-0.000107,-0.000204,-0.269620,-0.462881,-0.855999,1, 0.005810, 0.000058,-0.023568,1, 0.010092,-0.125010,-0.967334, 0.010475,-0.005001,-0.022018, 0.138558, 0.242984,-0.101865,-0.000000, 0.000000, 0.000001,1,0
1777415928509419116,767653000000,   767.653,-0.000509,-0.000297,-0.012417,-0.000572,-0.000168,-0.000541,-0.211728,-0.238619, 0.175828,1, 0.025138,-0.002585,-0.030782,1,-0.004754,-0.003073,-1.129024,-0.010735,-0.009899,-0.043180, 0.137976, 0.242828,-0.101660,-0.000000, 0.000000, 0.000001,1,0
1777415928519503328,767653000000,   767.653,-0.000509,-0.000297,-0.012417,-0.000572,-0.000168,-0.000541,-0.211728,-0.238619, 0.175828,1, 0.025138,-0.002585,-0.030782,1,-0.004754,-0.003073,-1.129024,-0.010735,-0.009899,-0.043180, 0.137976, 0.242828,-0.101660,-0.000000, 0.000000, 0.000001,1,0
1777415928529159385,767673000000,   767.673, 0.000540, 0.001522,-0.013200,-0.000981,-0.000241,-0.000430,-0.598334,-0.401178, 1.271819,1, 0.009173, 0.023576,-0.034638,1, 0.018310, 0.063305,-1.065777,-0.030743, 0.001678,-0.038122, 0.138399, 0.243172,-0.100746,-0.000000, 0.000000, 0.000001,1,0
1777415928539243060,767673000000,   767.673, 0.000540, 0.001522,-0.013200,-0.000981,-0.000241,-0.000430,-0.598334,-0.401178, 1.271819,1, 0.009173, 0.023576,-0.034638,1, 0.018310, 0.063305,-1.065777,-0.030743, 0.001678,-0.038122, 0.138399, 0.243172,-0.100746,-0.000000, 0.000000, 0.000001,1,0
1777415928558923998,767693000000,   767.693, 0.000378,-0.001142,-0.014751,-0.000135,-0.000346,-0.000310,-0.377969,-0.533758, 0.928920,1,-0.022516, 0.024674,-0.024663,1, 0.029843,-0.087841,-1.146185,-0.013976, 0.001267,-0.027238, 0.137644, 0.243004,-0.100347,-0.000000, 0.000000, 0.000001,1,0
1777415928568602128,767703000000,   767.708,-0.000136,-0.000952,-0.004589, 0.000164, 0.000238,-0.000418,-0.385109,-1.114716, 1.519458,1,-0.001239, 0.013211,-0.032497,1, 0.014602,-0.114720,-0.843606,-0.001239, 0.013212,-0.032496, 0.137729, 0.242614,-0.099930,-0.000000, 0.000000, 0.000001,1,0
1777415928578687285,767703000000,   767.708,-0.000136,-0.000952,-0.004589, 0.000164, 0.000238,-0.000418,-0.385109,-1.114716, 1.519458,1,-0.001239, 0.013211,-0.032497,1, 0.014602,-0.114720,-0.843606,-0.001239, 0.013212,-0.032496, 0.137729, 0.242614,-0.099930,-0.000000, 0.000000, 0.000001,1,0
1777415928588369211,767723000000,   767.728,-0.000102,-0.000922,-0.011521, 0.000118, 0.000107,-0.000527,-0.380601,-0.507776,-0.960458,1,-0.019885,-0.004598,-0.052972,1, 0.015025,-0.052320,-1.096489,-0.019885,-0.004597,-0.052971, 0.138127, 0.241921,-0.099959,-0.000000, 0.000000, 0.000001,1,0
1777415928598452868,767723000000,   767.728,-0.000102,-0.000922,-0.011521, 0.000118, 0.000107,-0.000527,-0.380601,-0.507776,-0.960458,1,-0.019885,-0.004598,-0.052972,1, 0.015025,-0.052320,-1.096489,-0.019885,-0.004597,-0.052971, 0.138127, 0.241921,-0.099959,-0.000000, 0.000000, 0.000001,1,0
1777415928608110610,767743000000,   767.748, 0.001239,-0.002917,-0.012624,-0.000486, 0.000311,-0.000612,-0.065353,-0.890041,-0.802981,1,-0.045198, 0.016788,-0.067501,1, 0.047528,-0.091032,-1.080411,-0.045198, 0.016788,-0.067500, 0.137809, 0.241073,-0.100273,-0.000000, 0.000000, 0.000001,1,0
1777415928618195026,767743000000,   767.748, 0.001239,-0.002917,-0.012624,-0.000486, 0.000311,-0.000612,-0.065353,-0.890041,-0.802981,1,-0.045198, 0.016788,-0.067501,1, 0.047528,-0.091032,-1.080411,-0.045198, 0.016788,-0.067500, 0.137809, 0.241073,-0.100273,-0.000000, 0.000000, 0.000001,1,0
1777415928637870574,767763000000,   767.768, 0.000767,-0.000462,-0.010140,-0.001064, 0.000158,-0.000673, 0.089252, 0.051419, 0.069678,1,-0.052615, 0.005115,-0.070169,1, 0.063329, 0.005455,-0.991423,-0.052616, 0.005115,-0.070168, 0.137655, 0.240871,-0.100174,-0.000000, 0.000000, 0.000001,1,0
1777415928647559093,767783000000,   767.788, 0.000933,-0.000319,-0.011391, 0.000080,-0.000014,-0.000699, 0.191778,-0.271824,-0.275898,1,-0.004311, 0.015963,-0.065582,1, 0.073924,-0.026965,-1.026654,-0.004312, 0.015963,-0.065581, 0.137830, 0.240457,-0.100642,-0.000000, 0.000000, 0.000001,1,0
1777415928657642676,767783000000,   767.788, 0.000933,-0.000319,-0.011391, 0.000080,-0.000014,-0.000699, 0.191778,-0.271824,-0.275898,1,-0.004311, 0.015963,-0.065582,1, 0.073924,-0.026965,-1.026654,-0.004312, 0.015963,-0.065581, 0.137830, 0.240457,-0.100642,-0.000000, 0.000000, 0.000001,1,0
1777415928667374175,767803000000,   767.808,-0.000187, 0.001583,-0.010329,-0.000121,-0.000418,-0.000789,-0.237880, 0.240617, 0.158964,1,-0.021535,-0.012211,-0.077584,1, 0.029969, 0.025642,-0.982318,-0.021535,-0.012210,-0.077583, 0.136834, 0.240150,-0.100248,-0.000000, 0.000000, 0.000001,1,0
1777415928677458702,767803000000,   767.808,-0.000187, 0.001583,-0.010329,-0.000121,-0.000418,-0.000789,-0.237880, 0.240617, 0.158964,1,-0.021535,-0.012211,-0.077584,1, 0.029969, 0.025642,-0.982318,-0.021535,-0.012210,-0.077583, 0.136834, 0.240150,-0.100248,-0.000000, 0.000000, 0.000001,1,0
1777415928687051483,767823000000,   767.828, 0.000080,-0.000535,-0.009841,-0.000417,-0.000090,-0.000569,-0.333343, 0.017225,-0.095159,1,-0.031498, 0.002826,-0.063231,1, 0.020353, 0.003121,-1.008225,-0.031499, 0.002826,-0.063230, 0.136680, 0.240017,-0.099323,-0.000000, 0.000000, 0.000001,1,0
1777415928697135825,767823000000,   767.828, 0.000080,-0.000535,-0.009841,-0.000417,-0.000090,-0.000569,-0.333343, 0.017225,-0.095159,1,-0.031498, 0.002826,-0.063231,1, 0.020353, 0.003121,-1.008225,-0.031499, 0.002826,-0.063230, 0.136680, 0.240017,-0.099323,-0.000000, 0.000000, 0.000001,1,0
1777415928716877113,767843000000,   767.848, 0.000238, 0.000868,-0.008371,-0.000501, 0.000178,-0.000436,-0.381417, 0.432275, 0.315064,1,-0.043861,-0.005831,-0.055146,1, 0.015211, 0.046082,-0.966405,-0.043861,-0.005831,-0.055145, 0.136055, 0.240176,-0.098633,-0.000000, 0.000000, 0.000001,1,0
1777415928726500318,767863000000,   767.868, 0.000310,-0.000606,-0.010191,-0.000480,-0.000089,-0.000375,-0.263389,-0.186545,-0.256887,1,-0.040524, 0.002170,-0.040895,1, 0.027452,-0.016357,-1.024715,-0.040524, 0.002171,-0.040894, 0.136229, 0.240050,-0.098182,-0.000000, 0.000000, 0.000001,1,0
1777415928736585734,767863000000,   767.868, 0.000310,-0.000606,-0.010191,-0.000480,-0.000089,-0.000375,-0.263389,-0.186545,-0.256887,1,-0.040524, 0.002170,-0.040895,1, 0.027452,-0.016357,-1.024715,-0.040524, 0.002171,-0.040894, 0.136229, 0.240050,-0.098182,-0.000000, 0.000000, 0.000001,1,0
1777415928746246087,767883000000,   767.888, 0.000292,-0.000178,-0.007715, 0.000184, 0.000483,-0.000426,-0.262520,-0.111157, 0.807874,1,-0.010420, 0.022235,-0.043520,1, 0.027742,-0.008199,-0.916128,-0.010420, 0.022235,-0.043519, 0.135777, 0.239460,-0.098950,-0.000000, 0.000000, 0.000001,1,0
1777415928756329874,767883000000,   767.888, 0.000292,-0.000178,-0.007715, 0.000184, 0.000483,-0.000426,-0.262520,-0.111157, 0.807874,1,-0.010420, 0.022235,-0.043520,1, 0.027742,-0.008199,-0.916128,-0.010420, 0.022235,-0.043519, 0.135777, 0.239460,-0.098950,-0.000000, 0.000000, 0.000001,1,0
1777415928771884736,767903000000,   767.908, 0.000589,-0.001209,-0.011882,-0.000387,-0.000063,-0.000215, 0.070707,-0.112435,-0.446508,1,-0.023798, 0.006645,-0.033261,1, 0.062035,-0.007674,-1.044020,-0.023799, 0.006645,-0.033260, 0.136169, 0.239366,-0.099115,-0.000000, 0.000000, 0.000001,1,0
1777415928781580625,767923000000,   767.928, 0.000347,-0.000132,-0.008505, 0.000132, 0.000053,-0.000393,-0.226913,-0.508763, 0.548918,1,-0.005172, 0.008249,-0.033290,1, 0.031799,-0.047704,-0.942507,-0.005172, 0.008250,-0.033289, 0.135586, 0.238839,-0.098530,-0.000000, 0.000000, 0.000001,1,0
1777415928791681152,767923000000,   767.928, 0.000347,-0.000132,-0.008505, 0.000132, 0.000053,-0.000393,-0.226913,-0.508763, 0.548918,1,-0.005172, 0.008249,-0.033290,1, 0.031799,-0.047704,-0.942507,-0.005172, 0.008250,-0.033289, 0.135586, 0.238839,-0.098530,-0.000000, 0.000000, 0.000001,1,0
1777415928801396263,767943000000,   767.943,-0.000879,-0.000760,-0.007409, 0.000010, 0.000310,-0.000232,-0.767235,-0.267710, 0.336458,1,-0.039696, 0.005910,-0.030133,1,-0.023344,-0.022928,-0.964173,-0.039696, 0.005911,-0.030132, 0.135145, 0.238299,-0.098117,-0.000000, 0.000000, 0.000001,1,0
1777415928811480734,767943000000,   767.943,-0.000879,-0.000760,-0.007409, 0.000010, 0.000310,-0.000232,-0.767235,-0.267710, 0.336458,1,-0.039696, 0.005910,-0.030133,1,-0.023344,-0.022928,-0.964173,-0.039696, 0.005911,-0.030132, 0.135145, 0.238299,-0.098117,-0.000000, 0.000000, 0.000001,1,0
1777415928830819903,767963000000,   767.963,-0.000449,-0.000862,-0.009754,-0.000278, 0.000408, 0.000027,-0.655406, 1.200504,-0.979142,1,-0.041852,-0.001568,-0.027567,1,-0.032327, 0.045810,-1.090570,-0.050277, 0.015786,-0.016371, 0.135274, 0.237923,-0.098579,-0.000000, 0.000000, 0.000001,1,0
1777415928840462979,767983000000,   767.983, 0.000135, 0.000555,-0.013308, 0.000016, 0.000222, 0.000045,-0.793971, 0.483991, 1.359363,1, 0.003072, 0.023416, 0.000021,1,-0.012729, 0.062202,-1.081188, 0.015348, 0.023612, 0.003035, 0.135181, 0.237731,-0.098920,-0.000000, 0.000000, 0.000001,1,0
1777415928850556265,767983000000,   767.983, 0.000135, 0.000555,-0.013308, 0.000016, 0.000222, 0.000045,-0.793971, 0.483991, 1.359363,1, 0.003072, 0.023416, 0.000021,1,-0.012729, 0.062202,-1.081188, 0.015348, 0.023612, 0.003035, 0.135181, 0.237731,-0.098920,-0.000000, 0.000000, 0.000001,1,0
1777415928860268153,768003000000,   768.003,-0.000282, 0.000933,-0.012614,-0.000034,-0.000368, 0.000079,-0.596697, 0.077507, 1.022355,1,-0.001857, 0.010119, 0.003025,1,-0.018897, 0.042136,-1.052429, 0.003851,-0.010549, 0.006335, 0.135399, 0.237952,-0.098165,-0.000000, 0.000000, 0.000001,1,0
1777415928870357032,768003000000,   768.003,-0.000282, 0.000933,-0.012614,-0.000034,-0.000368, 0.000079,-0.596697, 0.077507, 1.022355,1,-0.001857, 0.010119, 0.003025,1,-0.018897, 0.042136,-1.052429, 0.003851,-0.010549, 0.006335, 0.135399, 0.237952,-0.098165,-0.000000, 0.000000, 0.000001,1,0
1777415928890037747,768023000000,   768.023, 0.000033,-0.000151,-0.009661, 0.000495,-0.000013,-0.000042,-0.631458,-0.023162, 0.223908,1, 0.016254, 0.021200, 0.014025,1,-0.007674,-0.009673,-0.977789, 0.029993, 0.012897, 0.007368, 0.135529, 0.237543,-0.098116,-0.000000, 0.000000, 0.000001,1,0
1777415928909804368,768043000000,   768.043,-0.000036,-0.000225,-0.006205, 0.001117, 0.000296, 0.000101,-0.531298, 0.021274,-0.444159,1, 0.017807,-0.011662,-0.002893,1, 0.004165,-0.026708,-0.853280, 0.064233, 0.009236, 0.004205, 0.135782, 0.237612,-0.098405,-0.000000, 0.000000, 0.000001,1,0
1777415928919469795,768063000000,   768.063,-0.000251, 0.000238,-0.004088, 0.000873, 0.000294, 0.000043,-0.700967,-0.461902,-2.657788,1, 0.035084,-0.025284,-0.010652,1,-0.024352,-0.037509,-0.869921, 0.064553,-0.000188,-0.002514, 0.135453, 0.237471,-0.097900,-0.000000, 0.000000, 0.000001,1,0
1777415928929573562,768063000000,   768.063,-0.000251, 0.000238,-0.004088, 0.000873, 0.000294, 0.000043,-0.700967,-0.461902,-2.657788,1, 0.035084,-0.025284,-0.010652,1,-0.024352,-0.037509,-0.869921, 0.064553,-0.000188,-0.002514, 0.135453, 0.237471,-0.097900,-0.000000, 0.000000, 0.000001,1,0
1777415928939178898,768083000000,   768.083, 0.000994,-0.003781,-0.010561, 0.000560, 0.000311, 0.000188,-0.550612, 0.713803, 0.346309,1, 0.049032, 0.010205,-0.010082,1, 0.044423,-0.148968,-1.042170, 0.039634, 0.012241, 0.001895, 0.134990, 0.237296,-0.097349,-0.000000, 0.000000, 0.000001,1,0
1777415928949263869,768083000000,   768.083, 0.000994,-0.003781,-0.010561, 0.000560, 0.000311, 0.000188,-0.550612, 0.713803, 0.346309,1, 0.049032, 0.010205,-0.010082,1, 0.044423,-0.148968,-1.042170, 0.039634, 0.012241, 0.001895, 0.134990, 0.237296,-0.097349,-0.000000, 0.000000, 0.000001,1,0
1777415928968975861,768103000000,   768.103, 0.000861, 0.001364,-0.007120,-0.000618, 0.000807, 0.000124,-0.720635, 0.219285,-0.645566,1, 0.035832,-0.037827,-0.006890,1, 0.030300, 0.065532,-0.966063,-0.014941, 0.009956, 0.003748, 0.135018, 0.236932,-0.097991,-0.000000, 0.000000, 0.000001,1,0
1777415928978653307,768113000000,   768.118, 0.000137, 0.000638,-0.008771, 0.000866, 0.000315, 0.000447,-0.307507, 0.391796, 1.215300,1, 0.035573, 0.029286, 0.023731,1, 0.023073, 0.041527,-0.874590, 0.035573, 0.029286, 0.023732, 0.135547, 0.237107,-0.098735,-0.000000, 0.000000, 0.000001,1,0
1777415928988774610,768113000000,   768.118, 0.000137, 0.000638,-0.008771, 0.000866, 0.000315, 0.000447,-0.307507, 0.391796, 1.215300,1, 0.035573, 0.029286, 0.023731,1, 0.023073, 0.041527,-0.874590, 0.035573, 0.029286, 0.023732, 0.135547, 0.237107,-0.098735,-0.000000, 0.000000, 0.000001,1,0
1777415928998418223,768133000000,   768.138,-0.000249,-0.002096,-0.005276, 0.000786,-0.000076, 0.000241,-0.351275,-1.107508, 1.342894,1, 0.021880, 0.005647, 0.018086,1, 0.019015,-0.111737,-0.861557, 0.021880, 0.005647, 0.018087, 0.135752, 0.237137,-0.098879,-0.000000, 0.000000, 0.000001,1,0
1777415929008502306,768133000000,   768.138,-0.000249,-0.002096,-0.005276, 0.000786,-0.000076, 0.000241,-0.351275,-1.107508, 1.342894,1, 0.021880, 0.005647, 0.018086,1, 0.019015,-0.111737,-0.861557, 0.021880, 0.005647, 0.018087, 0.135752, 0.237137,-0.098879,-0.000000, 0.000000, 0.000001,1,0
1777415929018157270,768153000000,   768.158,-0.000012, 0.001579,-0.013905,-0.000239,-0.000039,-0.000073,-0.325712, 0.254026,-1.594040,1, 0.013818,-0.013170, 0.004719,1, 0.021331, 0.026795,-1.161058, 0.013818,-0.013169, 0.004720, 0.135367, 0.236845,-0.098883,-0.000000, 0.000000, 0.000001,1,0
1777415929028242371,768153000000,   768.158,-0.000012, 0.001579,-0.013905,-0.000239,-0.000039,-0.000073,-0.325712, 0.254026,-1.594040,1, 0.013818,-0.013170, 0.004719,1, 0.021331, 0.026795,-1.161058, 0.013818,-0.013169, 0.004720, 0.135367, 0.236845,-0.098883,-0.000000, 0.000000, 0.000001,1,0
1777415929047920549,768173000000,   768.178, 0.000662,-0.001469,-0.009058,-0.000196, 0.000181, 0.000241,-0.179063,-0.220349, 0.610574,1,-0.006478, 0.010492, 0.013714,1, 0.036496,-0.022006,-0.936238,-0.006478, 0.010493, 0.013715, 0.135238, 0.235816,-0.098838,-0.000000, 0.000000, 0.000001,1,0
1777415929057609234,768193000000,   768.198,-0.000274, 0.000448,-0.012625,-0.000637,-0.000572,-0.000223,-0.395767,-0.052773,-0.940636,1,-0.034123,-0.031651,-0.005839,1, 0.013736,-0.005213,-1.094454,-0.034124,-0.031651,-0.005838, 0.135125, 0.235517,-0.098935,-0.000000, 0.000000, 0.000001,1,0
1777415929067692613,768193000000,   768.198,-0.000274, 0.000448,-0.012625,-0.000637,-0.000572,-0.000223,-0.395767,-0.052773,-0.940636,1,-0.034123,-0.031651,-0.005839,1, 0.013736,-0.005213,-1.094454,-0.034124,-0.031651,-0.005838, 0.135125, 0.235517,-0.098935,-0.000000, 0.000000, 0.000001,1,0
1777415929077427946,768213000000,   768.218, 0.000052, 0.000598,-0.012331, 0.000092,-0.000000, 0.000182,-0.490489, 0.282002,-0.593908,1,-0.005659,-0.006692, 0.008684,1, 0.003681, 0.029097,-1.059119,-0.005659,-0.006692, 0.008685, 0.135251, 0.235984,-0.098543,-0.000000, 0.000000, 0.000001,1,0
1777415929087513380,768213000000,   768.218, 0.000052, 0.000598,-0.012331, 0.000092,-0.000000, 0.000182,-0.490489, 0.282002,-0.593908,1,-0.005659,-0.006692, 0.008684,1, 0.003681, 0.029097,-1.059119,-0.005659,-0.006692, 0.008685, 0.135251, 0.235984,-0.098543,-0.000000, 0.000000, 0.000001,1,0
1777415929097122031,768233000000,   768.238, 0.000233,-0.000430,-0.014475,-0.000061,-0.000934, 0.000241,-0.425829,-0.405951,-1.020477,1,-0.009980,-0.019669, 0.018532,1, 0.010392,-0.040961,-1.102610,-0.009980,-0.019669, 0.018533, 0.135588, 0.235515,-0.099219,-0.000000, 0.000000, 0.000001,1,0
1777415929107205132,768233000000,   768.238, 0.000233,-0.000430,-0.014475,-0.000061,-0.000934, 0.000241,-0.425829,-0.405951,-1.020477,1,-0.009980,-0.019669, 0.018532,1, 0.010392,-0.040961,-1.102610,-0.009980,-0.019669, 0.018533, 0.135588, 0.235515,-0.099219,-0.000000, 0.000000, 0.000001,1,0
1777415929126864236,768253000000,   768.258, 0.000520,-0.000085,-0.010629,-0.000193, 0.000048,-0.000133,-0.277140,-0.454424,-0.017095,1,-0.006533, 0.007314, 0.001068,1, 0.025672,-0.045787,-1.000288,-0.006533, 0.007314, 0.001069, 0.135855, 0.235192,-0.098757,-0.000000, 0.000000, 0.000001,1,0
1777415929136556829,768273000000,   768.278, 0.000277, 0.001102,-0.006612, 0.000960, 0.000306, 0.000000,-0.413940, 0.166114, 1.386150,1, 0.041186, 0.010784, 0.000350,1, 0.011542, 0.017530,-0.857206, 0.041186, 0.010785, 0.000351, 0.135391, 0.234958,-0.098939,-0.000000, 0.000000, 0.000001,1,0
1777415929146640634,768273000000,   768.278, 0.000277, 0.001102,-0.006612, 0.000960, 0.000306, 0.000000,-0.413940, 0.166114, 1.386150,1, 0.041186, 0.010784, 0.000350,1, 0.011542, 0.017530,-0.857206, 0.041186, 0.010785, 0.000351, 0.135391, 0.234958,-0.098939,-0.000000, 0.000000, 0.000001,1,0
1777415929156288320,768293000000,   768.298,-0.000844, 0.001853,-0.006242, 0.000047, 0.000223,-0.000021,-0.826258, 0.531731, 1.036160,1, 0.008705, 0.007364,-0.005186,1,-0.030639, 0.054827,-0.892902, 0.008704, 0.007364,-0.005185, 0.135254, 0.234780,-0.098790,-0.000000, 0.000000, 0.000001,1,0
1777415929166371940,768293000000,   768.298,-0.000844, 0.001853,-0.006242, 0.000047, 0.000223,-0.000021,-0.826258, 0.531731, 1.036160,1, 0.008705, 0.007364,-0.005186,1,-0.030639, 0.054827,-0.892902, 0.008704, 0.007364,-0.005185, 0.135254, 0.234780,-0.098790,-0.000000, 0.000000, 0.000001,1,0
1777415929181933505,768313000000,   768.318, 0.000204,-0.001124,-0.013471,-0.000474,-0.000049, 0.000222,-0.368335,-0.009599,-1.478168,1,-0.020664, 0.007894, 0.008748,1, 0.016429,-0.000183,-1.149272,-0.020664, 0.007895, 0.008749, 0.135248, 0.234477,-0.098607,-0.000000, 0.000000, 0.000001,1,0
1777415929191631320,768333000000,   768.338, 0.000430, 0.002523,-0.014618,-0.000766,-0.000108, 0.000021,-0.420820, 0.716641,-1.140792,1,-0.029672,-0.006974, 0.011537,1, 0.010960, 0.074517,-1.114875,-0.029672,-0.006973, 0.011538, 0.135420, 0.234279,-0.098103,-0.000000, 0.000000, 0.000001,1,0
1777415929201714755,768333000000,   768.338, 0.000430, 0.002523,-0.014618,-0.000766,-0.000108, 0.000021,-0.420820, 0.716641,-1.140792,1,-0.029672,-0.006974, 0.011537,1, 0.010960, 0.074517,-1.114875,-0.029672,-0.006973, 0.011538, 0.135420, 0.234279,-0.098103,-0.000000, 0.000000, 0.000001,1,0
1777415929211450791,768353000000,   768.353,-0.000115,-0.001202,-0.010460, 0.000116, 0.000161, 0.000491,-0.556826,-0.265314, 0.025813,1,-0.003166, 0.020128, 0.033761,1,-0.002691,-0.025121,-0.995902,-0.003166, 0.020129, 0.033762, 0.135419, 0.233834,-0.098632,-0.000000, 0.000000, 0.000001,1,0
1777415929221534170,768353000000,   768.353,-0.000115,-0.001202,-0.010460, 0.000116, 0.000161, 0.000491,-0.556826,-0.265314, 0.025813,1,-0.003166, 0.020128, 0.033761,1,-0.002691,-0.025121,-0.995902,-0.003166, 0.020129, 0.033762, 0.135419, 0.233834,-0.098632,-0.000000, 0.000000, 0.000001,1,0
1777415929240823988,768373000000,   768.373,-0.000280,-0.000071,-0.008753, 0.000785, 0.000455, 0.000333,-0.604612,-0.012134, 0.482713,1, 0.019598, 0.028233, 0.025645,1,-0.007268, 0.001048,-0.949294, 0.019598, 0.028233, 0.025646, 0.135427, 0.233261,-0.098993,-0.000000, 0.000000, 0.000001,1,0
1777415929250061296,768393000000,   768.393,-0.000243, 0.002277,-0.013769,-0.000870,-0.000559, 0.000471,-0.044686,-0.121753, 0.709728,1,-0.022674, 0.009657, 0.018027,1, 0.019717, 0.094243,-1.125546,-0.046996,-0.014945, 0.033334, 0.135769, 0.233136,-0.098955,-0.000000, 0.000000, 0.000001,1,0
1777415929260145231,768393000000,   768.393,-0.000243, 0.002277,-0.013769,-0.000870,-0.000559, 0.000471,-0.044686,-0.121753, 0.709728,1,-0.022674, 0.009657, 0.018027,1, 0.019717, 0.094243,-1.125546,-0.046996,-0.014945, 0.033334, 0.135769, 0.233136,-0.098955,-0.000000, 0.000000, 0.000001,1,0
1777415929279879759,768413000000,   768.413, 0.001275, 0.001036,-0.013489,-0.000480, 0.000065, 0.000523,-0.657852, 0.280909, 1.343933,1,-0.013062, 0.034883, 0.043981,1, 0.048620, 0.069253,-1.082006,-0.021099, 0.022099, 0.048696, 0.136069, 0.233083,-0.098223,-0.000000, 0.000000, 0.000001,1,0
1777415929289571759,768433000000,   768.433, 0.000637,-0.000037,-0.008272,-0.000067,-0.000163, 0.000684,-0.108260, 0.257642, 0.876492,1,-0.007919, 0.017972, 0.054912,1, 0.051459, 0.010451,-0.857861, 0.001490, 0.004978, 0.061501, 0.136304, 0.233117,-0.098138,-0.000000, 0.000000, 0.000001,1,0
1777415929299656194,768433000000,   768.433, 0.000637,-0.000037,-0.008272,-0.000067,-0.000163, 0.000684,-0.108260, 0.257642, 0.876492,1,-0.007919, 0.017972, 0.054912,1, 0.051459, 0.010451,-0.857861, 0.001490, 0.004978, 0.061501, 0.136304, 0.233117,-0.098138,-0.000000, 0.000000, 0.000001,1,0
1777415929309307547,768453000000,   768.453,-0.001828, 0.001100,-0.009382,-0.000990,-0.000410, 0.000740, 0.113718, 0.613576,-1.459852,1,-0.014786,-0.009250, 0.058556,1,-0.045111, 0.107753,-1.067550,-0.055790,-0.021136, 0.063489, 0.135852, 0.233279,-0.098203,-0.000000, 0.000000, 0.000001,1,0
1777415929319392074,768453000000,   768.453,-0.001828, 0.001100,-0.009382,-0.000990,-0.000410, 0.000740, 0.113718, 0.613576,-1.459852,1,-0.014786,-0.009250, 0.058556,1,-0.045111, 0.107753,-1.067550,-0.055790,-0.021136, 0.063489, 0.135852, 0.233279,-0.098203,-0.000000, 0.000000, 0.000001,1,0
1777415929329019354,768473000000,   768.473, 0.000281,-0.001458,-0.009183,-0.000527, 0.001196, 0.001094,-0.736823, 1.639231,-0.047809,1, 0.000579, 0.029879, 0.078259,1, 0.008078, 0.045954,-1.008775,-0.030904, 0.065491, 0.090925, 0.136425, 0.233154,-0.097906,-0.000000, 0.000000, 0.000001,1,0
1777415929339103621,768473000000,   768.473, 0.000281,-0.001458,-0.009183,-0.000527, 0.001196, 0.001094,-0.736823, 1.639231,-0.047809,1, 0.000579, 0.029879, 0.078259,1, 0.008078, 0.045954,-1.008775,-0.030904, 0.065491, 0.090925, 0.136425, 0.233154,-0.097906,-0.000000, 0.000000, 0.000001,1,0
1777415929358835335,768493000000,   768.493,-0.000303,-0.000657,-0.014421,-0.000754,-0.000356, 0.000853,-0.361684, 0.179169, 1.174853,1,-0.006041, 0.043589, 0.098080,1,-0.001355,-0.005594,-1.152945,-0.037442, 0.008146, 0.091306, 0.136693, 0.233283,-0.098096,-0.000000, 0.000000, 0.000001,1,0
1777415929368519928,768503000000,   768.508, 0.000500,-0.000258,-0.003775, 0.001043, 0.001016, 0.000893,-0.334870,-0.248368, 1.958360,1, 0.028646, 0.057556, 0.090608,1, 0.021730,-0.020623,-0.798729, 0.028645, 0.057557, 0.090609, 0.136828, 0.232881,-0.098183,-0.000000, 0.000000, 0.000001,1,0
1777415929378603770,768503000000,   768.508, 0.000500,-0.000258,-0.003775, 0.001043, 0.001016, 0.000893,-0.334870,-0.248368, 1.958360,1, 0.028646, 0.057556, 0.090608,1, 0.021730,-0.020623,-0.798729, 0.028645, 0.057557, 0.090609, 0.136828, 0.232881,-0.098183,-0.000000, 0.000000, 0.000001,1,0
1777415929388261882,768523000000,   768.528, 0.000433, 0.000143,-0.004739, 0.000635, 0.000443, 0.000894,-0.157920, 0.012182, 1.696119,1, 0.035903, 0.016287, 0.083645,1, 0.040124, 0.005774,-0.825451, 0.035903, 0.016288, 0.083646, 0.137007, 0.232606,-0.098886,-0.000000, 0.000000, 0.000001,1,0
1777415929398345631,768523000000,   768.528, 0.000433, 0.000143,-0.004739, 0.000635, 0.000443, 0.000894,-0.157920, 0.012182, 1.696119,1, 0.035903, 0.016287, 0.083645,1, 0.040124, 0.005774,-0.825451, 0.035903, 0.016288, 0.083646, 0.137007, 0.232606,-0.098886,-0.000000, 0.000000, 0.000001,1,0
1777415929408015632,768543000000,   768.548, 0.000822,-0.000529,-0.012630, 0.000413, 0.000593, 0.000677,-0.075505, 0.090876,-1.087260,1, 0.032169, 0.019981, 0.071616,1, 0.048604, 0.013391,-1.109275, 0.032168, 0.019982, 0.071617, 0.136930, 0.232825,-0.098365,-0.000000, 0.000000, 0.000001,1,0
1777415929418098344,768543000000,   768.548, 0.000822,-0.000529,-0.012630, 0.000413, 0.000593, 0.000677,-0.075505, 0.090876,-1.087260,1, 0.032169, 0.019981, 0.071616,1, 0.048604, 0.013391,-1.109275, 0.032168, 0.019982, 0.071617, 0.136930, 0.232825,-0.098365,-0.000000, 0.000000, 0.000001,1,0
1777415929437780337,768563000000,   768.568, 0.001413,-0.001451,-0.015883, 0.000194,-0.000558, 0.000389, 0.255616,-0.531303,-1.560777,1, 0.070987,-0.008685, 0.058207,1, 0.082778,-0.051246,-1.157541, 0.070986,-0.008685, 0.058208, 0.137224, 0.232500,-0.098694,-0.000000, 0.000000, 0.000001,1,0
1777415929447473948,768583000000,   768.588, 0.000220, 0.002210,-0.013218, 0.000176, 0.000021, 0.000565,-0.234580, 0.833879,-0.639684,1, 0.057211, 0.001550, 0.061951,1, 0.032115, 0.086816,-1.063656, 0.057211, 0.001550, 0.061952, 0.137336, 0.232329,-0.099421,-0.000000, 0.000000, 0.000001,1,0
1777415929457558105,768583000000,   768.588, 0.000220, 0.002210,-0.013218, 0.000176, 0.000021, 0.000565,-0.234580, 0.833879,-0.639684,1, 0.057211, 0.001550, 0.061951,1, 0.032115, 0.086816,-1.063656, 0.057211, 0.001550, 0.061952, 0.137336, 0.232329,-0.099421,-0.000000, 0.000000, 0.000001,1,0
1777415929467211587,768603000000,   768.608,-0.000413, 0.003441,-0.008013, 0.000846,-0.000039, 0.000817,-0.557654, 0.914756, 0.758664,1, 0.049046, 0.025287, 0.079321,1,-0.000887, 0.094117,-0.921069, 0.049046, 0.025288, 0.079322, 0.138315, 0.231964,-0.099505,-0.000000, 0.000000, 0.000001,1,0
1777415929477294577,768603000000,   768.608,-0.000413, 0.003441,-0.008013, 0.000846,-0.000039, 0.000817,-0.557654, 0.914756, 0.758664,1, 0.049046, 0.025287, 0.079321,1,-0.000887, 0.094117,-0.921069, 0.049046, 0.025288, 0.079322, 0.138315, 0.231964,-0.099505,-0.000000, 0.000000, 0.000001,1,0
1777415929497026346,768623000000,   768.628,-0.000060,-0.001382,-0.008631, 0.000475, 0.000273, 0.000971,-0.387410,-0.606701, 0.860529,1, 0.008766, 0.029503, 0.089850,1, 0.017095,-0.061253,-0.910647, 0.008766, 0.029504, 0.089851, 0.138087, 0.232160,-0.099739,-0.000000, 0.000000, 0.000001,1,0
1777415929516728209,768643000000,   768.648,-0.000159,-0.000525,-0.006405, 0.000528, 0.000078, 0.000522,-0.455029,-1.003255, 1.070209,1, 0.017936, 0.002106, 0.068206,1, 0.010166,-0.101872,-0.889268, 0.017935, 0.002107, 0.068207, 0.137972, 0.232452,-0.099870,-0.000000, 0.000000, 0.000001,1,0
1777415929526480374,768663000000,   768.668,-0.000154, 0.000975,-0.004915, 0.000928, 0.001349, 0.000608,-0.703527, 0.330380, 1.431786,1, 0.025503, 0.046383, 0.053126,1,-0.015329, 0.033977,-0.852406, 0.025503, 0.046383, 0.053127, 0.138547, 0.232761,-0.098949,-0.000000, 0.000000, 0.000001,1,0
1777415929536579345,768663000000,   768.668,-0.000154, 0.000975,-0.004915, 0.000928, 0.001349, 0.000608,-0.703527, 0.330380, 1.431786,1, 0.025503, 0.046383, 0.053126,1,-0.015329, 0.033977,-0.852406, 0.025503, 0.046383, 0.053127, 0.138547, 0.232761,-0.098949,-0.000000, 0.000000, 0.000001,1,0
1777415929546167996,768683000000,   768.688, 0.000359,-0.000621,-0.009603, 0.000278,-0.000022, 0.000181,-0.345781,-0.369396, 0.594805,1, 0.018479, 0.011320, 0.035463,1, 0.021617,-0.037677,-0.937728, 0.018478, 0.011321, 0.035464, 0.138365, 0.232349,-0.099152,-0.000000, 0.000000, 0.000001,1,0
1777415929556252227,768683000000,   768.688, 0.000359,-0.000621,-0.009603, 0.000278,-0.000022, 0.000181,-0.345781,-0.369396, 0.594805,1, 0.018479, 0.011320, 0.035463,1, 0.021617,-0.037677,-0.937728, 0.018478, 0.011321, 0.035464, 0.138365, 0.232349,-0.099152,-0.000000, 0.000000, 0.000001,1,0
1777415929571788127,768703000000,   768.708,-0.000003, 0.000542,-0.012356, 0.000389,-0.000391,-0.000030,-0.457752,-0.527199,-0.224985,1,-0.004621,-0.022591, 0.007024,1, 0.010064,-0.053681,-1.021331,-0.004622,-0.022591, 0.007025, 0.138560, 0.231976,-0.099155,-0.000000, 0.000000, 0.000001,1,0
1777415929581490479,768723000000,   768.723, 0.000232,-0.000727,-0.009437, 0.000228, 0.000727,-0.000270,-0.569899,-0.565225, 0.300188,1,-0.003733, 0.043138,-0.015454,1,-0.000916,-0.057474,-0.967752,-0.003733, 0.043139,-0.015453, 0.138561, 0.232021,-0.099308,-0.000000, 0.000000, 0.000001,1,0
1777415929591574061,768723000000,   768.723, 0.000232,-0.000727,-0.009437, 0.000228, 0.000727,-0.000270,-0.569899,-0.565225, 0.300188,1,-0.003733, 0.043138,-0.015454,1,-0.000916,-0.057474,-0.967752,-0.003733, 0.043139,-0.015453, 0.138561, 0.232021,-0.099308,-0.000000, 0.000000, 0.000001,1,0
1777415929601229877,768743000000,   768.743, 0.000024,-0.001613,-0.009465, 0.000253,-0.000191,-0.000381,-0.475280,-1.024515, 0.115482,1, 0.005126, 0.002763,-0.028644,1, 0.009024,-0.104219,-0.986570, 0.005126, 0.002764,-0.028643, 0.138418, 0.231537,-0.099831,-0.000000, 0.000000, 0.000001,1,0
1777415929611329830,768743000000,   768.743, 0.000024,-0.001613,-0.009465, 0.000253,-0.000191,-0.000381,-0.475280,-1.024515, 0.115482,1, 0.005126, 0.002763,-0.028644,1, 0.009024,-0.104219,-0.986570, 0.005126, 0.002764,-0.028643, 0.138418, 0.231537,-0.099831,-0.000000, 0.000000, 0.000001,1,0
1777415929630675202,768763000000,   768.763, 0.000503,-0.001539,-0.007029, 0.001051, 0.000310,-0.000424,-0.494810,-0.291232,-0.471957,1,-0.002444,-0.019867,-0.039426,1, 0.029014,-0.103506,-0.883242, 0.051331, 0.005052,-0.040425, 0.138003, 0.231543,-0.100104,-0.000000, 0.000000, 0.000001,1,0
1777415929640357758,768783000000,   768.783,-0.000701,-0.000584,-0.005976, 0.000099, 0.000327,-0.000308,-0.049214, 0.243111,-1.695966,1,-0.016642,-0.058387,-0.064795,1,-0.004375,-0.028270,-0.921571,-0.011847,-0.018464,-0.049158, 0.137765, 0.231084,-0.099277,-0.000000, 0.000000, 0.000001,1,0
1777415929650440840,768783000000,   768.783,-0.000701,-0.000584,-0.005976, 0.000099, 0.000327,-0.000308,-0.049214, 0.243111,-1.695966,1,-0.016642,-0.058387,-0.064795,1,-0.004375,-0.028270,-0.921571,-0.011847,-0.018464,-0.049158, 0.137765, 0.231084,-0.099277,-0.000000, 0.000000, 0.000001,1,0
1777415929660113415,768803000000,   768.803,-0.000089,-0.000356,-0.012746,-0.000840,-0.000139,-0.000183,-0.037599, 0.500282, 0.378074,1,-0.001925, 0.017101,-0.045737,1, 0.023782, 0.012175,-1.141788,-0.031402,-0.002296,-0.032688, 0.137740, 0.231029,-0.099192,-0.000000, 0.000000, 0.000001,1,0
1777415929670197016,768803000000,   768.803,-0.000089,-0.000356,-0.012746,-0.000840,-0.000139,-0.000183,-0.037599, 0.500282, 0.378074,1,-0.001925, 0.017101,-0.045737,1, 0.023782, 0.012175,-1.141788,-0.031402,-0.002296,-0.032688, 0.137740, 0.231029,-0.099192,-0.000000, 0.000000, 0.000001,1,0
1777415929689927878,768823000000,   768.823, 0.000357, 0.000321,-0.013642,-0.000461,-0.000434,-0.000699,-0.555515,-0.811451, 1.241195,1,-0.009993, 0.008703,-0.034285,1, 0.010761,-0.026468,-1.110335,-0.018183,-0.016610,-0.049495, 0.137514, 0.230701,-0.099820,-0.000000, 0.000000, 0.000001,1,0
1777415929699623230,768843000000,   768.843, 0.000072,-0.001026,-0.007476,-0.000500, 0.000404,-0.000487,-0.354509, 0.297671, 0.144235,1, 0.005116, 0.017163,-0.048907,1, 0.017616,-0.013897,-0.903755,-0.029548, 0.023164,-0.051061, 0.137364, 0.230452,-0.100399,-0.000000, 0.000000, 0.000001,1,0
1777415929709706201,768843000000,   768.843, 0.000072,-0.001026,-0.007476,-0.000500, 0.000404,-0.000487,-0.354509, 0.297671, 0.144235,1, 0.005116, 0.017163,-0.048907,1, 0.017616,-0.013897,-0.903755,-0.029548, 0.023164,-0.051061, 0.137364, 0.230452,-0.100399,-0.000000, 0.000000, 0.000001,1,0
1777415929719365740,768863000000,   768.863,-0.001023,-0.002116,-0.008082, 0.000276, 0.000331,-0.000175,-0.731353, 0.700160,-0.912111,1,-0.029219,-0.007072,-0.038799,1,-0.061642,-0.069804,-0.965668,-0.001812, 0.014900,-0.029537, 0.136562, 0.230574,-0.100544,-0.000000, 0.000000, 0.000001,1,0
1777415929729449322,768863000000,   768.863,-0.001023,-0.002116,-0.008082, 0.000276, 0.000331,-0.000175,-0.731353, 0.700160,-0.912111,1,-0.029219,-0.007072,-0.038799,1,-0.061642,-0.069804,-0.965668,-0.001812, 0.014900,-0.029537, 0.136562, 0.230574,-0.100544,-0.000000, 0.000000, 0.000001,1,0
1777415929739069824,768883000000,   768.883,-0.000440, 0.000493,-0.008090,-0.000491,-0.000565,-0.000582,-0.525685,-0.461112,-0.607703,1,-0.019150, 0.016980,-0.045660,1,-0.020428, 0.001277,-0.930122,-0.027575,-0.012712,-0.050488, 0.136668, 0.230345,-0.099875,-0.000000, 0.000000, 0.000001,1,0
1777415929749154259,768883000000,   768.883,-0.000440, 0.000493,-0.008090,-0.000491,-0.000565,-0.000582,-0.525685,-0.461112,-0.607703,1,-0.019150, 0.016980,-0.045660,1,-0.020428, 0.001277,-0.930122,-0.027575,-0.012712,-0.050488, 0.136668, 0.230345,-0.099875,-0.000000, 0.000000, 0.000001,1,0
1777415929768885194,768903000000,   768.903,-0.000634, 0.000546,-0.010524,-0.000257, 0.000069,-0.000593,-0.502980,-0.406252,-0.393549,1,-0.033765,-0.009177,-0.058351,1,-0.023835, 0.009358,-1.061496,-0.029380,-0.000271,-0.059304, 0.136438, 0.230075,-0.099203,-0.000000, 0.000000, 0.000001,1,0
1777415929778574010,768913000000,   768.918,-0.000489,-0.001305,-0.006489, 0.000715, 0.000367,-0.000595,-0.906781,-0.535002, 1.645489,1, 0.017006, 0.018565,-0.061287,1,-0.036087,-0.050408,-0.830607, 0.017006, 0.018565,-0.061286, 0.136235, 0.229825,-0.098928,-0.000000, 0.000000, 0.000001,1,0
1777415929788658814,768913000000,   768.918,-0.000489,-0.001305,-0.006489, 0.000715, 0.000367,-0.000595,-0.906781,-0.535002, 1.645489,1, 0.017006, 0.018565,-0.061287,1,-0.036087,-0.050408,-0.830607, 0.017006, 0.018565,-0.061286, 0.136235, 0.229825,-0.098928,-0.000000, 0.000000, 0.000001,1,0
1777415929798308130,768933000000,   768.938,-0.000908,-0.000677,-0.007294, 0.000346,-0.000398,-0.000562,-1.020643,-0.437507, 0.919845,1, 0.020410,-0.008523,-0.068396,1,-0.047724,-0.040273,-0.904603, 0.020410,-0.008522,-0.068395, 0.136136, 0.228954,-0.099593,-0.000000, 0.000000, 0.000001,1,0
1777415929808392546,768933000000,   768.938,-0.000908,-0.000677,-0.007294, 0.000346,-0.000398,-0.000562,-1.020643,-0.437507, 0.919845,1, 0.020410,-0.008523,-0.068396,1,-0.047724,-0.040273,-0.904603, 0.020410,-0.008522,-0.068395, 0.136136, 0.228954,-0.099593,-0.000000, 0.000000, 0.000001,1,0
1777415929818008512,768953000000,   768.958,-0.000816,-0.000103,-0.009537, 0.000270, 0.000150,-0.000404,-0.871230,-0.175053, 0.002574,1, 0.007136, 0.015651,-0.054796,1,-0.032382,-0.013218,-0.998132, 0.007136, 0.015651,-0.054795, 0.135317, 0.228435,-0.099880,-0.000000, 0.000000, 0.000001,1,0
1777415929828092557,768953000000,   768.958,-0.000816,-0.000103,-0.009537, 0.000270, 0.000150,-0.000404,-0.871230,-0.175053, 0.002574,1, 0.007136, 0.015651,-0.054796,1,-0.032382,-0.013218,-0.998132, 0.007136, 0.015651,-0.054795, 0.135317, 0.228435,-0.099880,-0.000000, 0.000000, 0.000001,1,0
1777415929847843696,768973000000,   768.978,-0.000428, 0.000212,-0.008722,-0.000028, 0.000014,-0.000483,-0.741755,-0.089355, 0.474343,1,-0.023935, 0.007760,-0.057544,1,-0.018951,-0.004199,-0.950010,-0.023935, 0.007760,-0.057543, 0.134783, 0.228541,-0.100161,-0.000000, 0.000000, 0.000001,1,0
1777415929857563973,768993000000,   768.998, 0.000227,-0.000277,-0.012091, 0.000470,-0.000226,-0.000712,-0.540824,-0.058345,-0.846816,1, 0.015372,-0.006551,-0.061519,1, 0.001399,-0.000832,-1.084738, 0.015371,-0.006550,-0.061517, 0.134848, 0.227980,-0.100575,-0.000001, 0.000001, 0.000002,1,0
1777415929867648945,768993000000,   768.998, 0.000227,-0.000277,-0.012091, 0.000470,-0.000226,-0.000712,-0.540824,-0.058345,-0.846816,1, 0.015372,-0.006551,-0.061519,1, 0.001399,-0.000832,-1.084738, 0.015371,-0.006550,-0.061517, 0.134848, 0.227980,-0.100575,-0.000001, 0.000001, 0.000002,1,0
1777415929877266614,769013000000,   769.018, 0.001155,-0.000517,-0.011203, 0.000528,-0.000019,-0.001129, 0.007374,-0.553839,-0.037219,1, 0.046326,-0.002601,-0.089505,1, 0.057247,-0.052022,-1.002188, 0.046325,-0.002600,-0.089503, 0.134373, 0.228382,-0.100320,-0.000001, 0.000001, 0.000002,1,0
1777415929887351214,769013000000,   769.018, 0.001155,-0.000517,-0.011203, 0.000528,-0.000019,-0.001129, 0.007374,-0.553839,-0.037219,1, 0.046326,-0.002601,-0.089505,1, 0.057247,-0.052022,-1.002188, 0.046325,-0.002600,-0.089503, 0.134373, 0.228382,-0.100320,-0.000001, 0.000001, 0.000002,1,0
1777415929897016808,769033000000,   769.038, 0.000638,-0.000379,-0.006657, 0.001378, 0.000393,-0.000641, 0.115718,-0.398787, 1.193321,1, 0.086338, 0.009050,-0.078936,1, 0.068117,-0.037150,-0.876721, 0.086337, 0.009050,-0.078934, 0.134162, 0.227825,-0.099863,-0.000001, 0.000001, 0.000002,1,0
1777415929907101261,769033000000,   769.038, 0.000638,-0.000379,-0.006657, 0.001378, 0.000393,-0.000641, 0.115718,-0.398787, 1.193321,1, 0.086338, 0.009050,-0.078936,1, 0.068117,-0.037150,-0.876721, 0.086337, 0.009050,-0.078934, 0.134162, 0.227825,-0.099863,-0.000001, 0.000001, 0.000002,1,0
1777415929926780476,769053000000,   769.058,-0.000043,-0.002860,-0.002964, 0.000383, 0.000872,-0.000732,-0.303676,-1.080430, 1.253210,1, 0.014744, 0.009351,-0.086666,1, 0.025072,-0.107741,-0.870633, 0.014744, 0.009352,-0.086664, 0.133337, 0.227830,-0.099914,-0.000001, 0.000001, 0.000002,1,0
1777415929936530530,769073000000,   769.078, 0.000416, 0.000078,-0.017876,-0.002622,-0.000804,-0.001082, 0.006806, 0.069873,-3.567353,1,-0.053788,-0.053541,-0.095364,1, 0.056379, 0.009162,-1.362214,-0.053788,-0.053541,-0.095362, 0.132643, 0.228064,-0.100212,-0.000001, 0.000001, 0.000002,1,0
1777415929946616002,769073000000,   769.078, 0.000416, 0.000078,-0.017876,-0.002622,-0.000804,-0.001082, 0.006806, 0.069873,-3.567353,1,-0.053788,-0.053541,-0.095364,1, 0.056379, 0.009162,-1.362214,-0.053788,-0.053541,-0.095362, 0.132643, 0.228064,-0.100212,-0.000001, 0.000001, 0.000002,1,0
1777415929956217652,769093000000,   769.098, 0.002276, 0.000875,-0.012948,-0.001329, 0.000620,-0.000149, 0.288668, 1.048303,-0.034319,1,-0.055542, 0.033618,-0.047534,1, 0.085451, 0.109459,-1.001926,-0.055543, 0.033618,-0.047532, 0.132723, 0.228092,-0.099624,-0.000001, 0.000001, 0.000002,1,0
