Time,reference_time,gps_timestamp,deltaVelX,deltaVelY,deltaVelZ,deltaThetaX,deltaThetaY,deltaThetaZ,estLinearAccelX,estLinearAccelY,estLinearAccelZ,estLinearAccel:valid,estAngularRateX,estAngularRateY,estAngularRateZ,estAngularRate:valid,scaledAccelX,scaledAccelY,scaledAccelZ,scaledGyroX,scaledGyroY,scaledGyroZ,scaledMagX,scaledMagY,scaledMagZ,estGyroBiasX,estGyroBiasY,estGyroBiasZ,estGyroBias:valid,flagStop
1777415753006350596,567211000000,   567.216, 0.000017,-0.000029,-0.009913,-0.000009, 0.000028, 0.000174,-0.005004, 0.029466, 0.055045,1,-0.001042, 0.003331, 0.016892,1, 0.001073,-0.004540,-0.994347,-0.001042, 0.003331, 0.016892, 0.132494, 0.246381,-0.109614, 0.000000, 0.000000, 0.000000,1,0
1777415753016559684,567411000000,   592.156, 0.000037, 0.000150,-0.009939, 0.000041,-0.000008, 0.000260,-0.545940,-0.106244, 0.026371,1,-0.001580, 0.001981, 0.018396,1, 0.001849, 0.018192,-0.991648, 0.002633, 0.000331, 0.021081, 0.132204, 0.246804,-0.108461,-0.000001, 0.000001, 0.000002,1,0
1777415753026651662,567411000000,   592.156, 0.000037, 0.000150,-0.009939, 0.000041,-0.000008, 0.000260,-0.545940,-0.106244, 0.026371,1,-0.001580, 0.001981, 0.018396,1, 0.001849, 0.018192,-0.991648, 0.002633, 0.000331, 0.021081, 0.132204, 0.246804,-0.108461,-0.000001, 0.000001, 0.000002,1,0
1777415753036301759,592171000000,   592.176,-0.000003,-0.000039,-0.009968,-0.000012, 0.000040, 0.000187,-0.555377,-0.059631, 0.015700,1,-0.001255, 0.002622, 0.018263,1, 0.000674,-0.007616,-0.996754,-0.001255, 0.002623, 0.018264, 0.123987, 0.244095,-0.108678,-0.000001, 0.000001, 0.000002,1,0
1777415753046387868,592171000000,   592.176,-0.000003,-0.000039,-0.009968,-0.000012, 0.000040, 0.000187,-0.555377,-0.059631, 0.015700,1,-0.001255, 0.002622, 0.018263,1, 0.000674,-0.007616,-0.996754,-0.001255, 0.002623, 0.018264, 0.123987, 0.244095,-0.108678,-0.000001, 0.000001, 0.000002,1,0
1777415753056052835,592191000000,   592.196, 0.000005,-0.000094,-0.009981,-0.000010, 0.000033, 0.000197,-0.558302,-0.064261, 0.020169,1,-0.000963, 0.003266, 0.019145,1, 0.000438,-0.008086,-0.996295,-0.000964, 0.003267, 0.019147, 0.123602, 0.244025,-0.107371,-0.000001, 0.000001, 0.000002,1,0
1777415753066139795,592191000000,   592.196, 0.000005,-0.000094,-0.009981,-0.000010, 0.000033, 0.000197,-0.558302,-0.064261, 0.020169,1,-0.000963, 0.003266, 0.019145,1, 0.000438,-0.008086,-0.996295,-0.000964, 0.003267, 0.019147, 0.123602, 0.244025,-0.107371,-0.000001, 0.000001, 0.000002,1,0
1777415753081690126,592211000000,   592.216, 0.000024,-0.000090,-0.009960,-0.000004, 0.000036, 0.000188,-0.546874,-0.074010, 0.026169,1,-0.000755, 0.003313, 0.018950,1, 0.001668,-0.009078,-0.995680,-0.000756, 0.003314, 0.018952, 0.124069, 0.244085,-0.107776,-0.000001, 0.000001, 0.000002,1,0
1777415753091363334,592231000000,   592.231, 0.000033,-0.000122,-0.009978,-0.000008, 0.000034, 0.000186,-0.537275,-0.090240, 0.020864,1,-0.000768, 0.003695, 0.018725,1, 0.002721,-0.010738,-0.996216,-0.000769, 0.003696, 0.018727, 0.123891, 0.243432,-0.107465,-0.000001, 0.000001, 0.000002,1,0
1777415753101448980,592231000000,   592.231, 0.000033,-0.000122,-0.009978,-0.000008, 0.000034, 0.000186,-0.537275,-0.090240, 0.020864,1,-0.000768, 0.003695, 0.018725,1, 0.002721,-0.010738,-0.996216,-0.000769, 0.003696, 0.018727, 0.123891, 0.243432,-0.107465,-0.000001, 0.000001, 0.000002,1,0
1777415753111055966,592251000000,   592.251,-0.000008,-0.000080,-0.009975,-0.000013, 0.000037, 0.000186,-0.557318,-0.078663, 0.023240,1,-0.001181, 0.003573, 0.018653,1, 0.000602,-0.009572,-0.995978,-0.001182, 0.003574, 0.018654, 0.123582, 0.243184,-0.108856,-0.000001, 0.000001, 0.000002,1,0
1777415753121142408,592251000000,   592.251,-0.000008,-0.000080,-0.009975,-0.000013, 0.000037, 0.000186,-0.557318,-0.078663, 0.023240,1,-0.001181, 0.003573, 0.018653,1, 0.000602,-0.009572,-0.995978,-0.001182, 0.003574, 0.018654, 0.123582, 0.243184,-0.108856,-0.000001, 0.000001, 0.000002,1,0
1777415753140633136,592271000000,   592.271,-0.000020,-0.000062,-0.009969,-0.000004, 0.000036, 0.000184,-0.565547,-0.058421, 0.024862,1,-0.001404, 0.003438, 0.018745,1,-0.001093,-0.007017,-0.996211,-0.000948, 0.003486, 0.018578, 0.123717, 0.243194,-0.108988,-0.000001, 0.000001, 0.000002,1,0
1777415753150238845,592291000000,   592.291, 0.000001,-0.000099,-0.009969,-0.000006, 0.000040, 0.000188,-0.571572,-0.062295, 0.021407,1,-0.000952, 0.003246, 0.018711,1,-0.000444,-0.008813,-0.996455,-0.000808, 0.003560, 0.018765, 0.124512, 0.243224,-0.109120,-0.000001, 0.000001, 0.000002,1,0
1777415753160325768,592291000000,   592.291, 0.000001,-0.000099,-0.009969,-0.000006, 0.000040, 0.000188,-0.571572,-0.062295, 0.021407,1,-0.000952, 0.003246, 0.018711,1,-0.000444,-0.008813,-0.996455,-0.000808, 0.003560, 0.018765, 0.124512, 0.243224,-0.109120,-0.000001, 0.000001, 0.000002,1,0
1777415753180013808,592311000000,   592.311, 0.000012,-0.000118,-0.009952,-0.000015, 0.000037, 0.000187,-0.563183,-0.079504, 0.024591,1,-0.000891, 0.003838, 0.018611,1, 0.000580,-0.010681,-0.995524,-0.001195, 0.003852, 0.018667, 0.124734, 0.243055,-0.108076,-0.000001, 0.000001, 0.000002,1,0
1777415753199765643,592331000000,   592.331, 0.000026,-0.000102,-0.009954,-0.000010, 0.000035, 0.000187,-0.552672,-0.093914, 0.026642,1,-0.001470, 0.003714, 0.018526,1, 0.001786,-0.010640,-0.995546,-0.001286, 0.003610, 0.018584, 0.124249, 0.243016,-0.107708,-0.000001, 0.000001, 0.000002,1,0
1777415753209444147,592351000000,   592.351, 0.000024,-0.000061,-0.009956,-0.000011, 0.000032, 0.000180,-0.543051,-0.073726, 0.027318,1,-0.001575, 0.003505, 0.018212,1, 0.002233,-0.007712,-0.995610,-0.001373, 0.003319, 0.018127, 0.123709, 0.243315,-0.107884,-0.000001, 0.000001, 0.000002,1,0
1777415753219529329,592351000000,   592.351, 0.000024,-0.000061,-0.009956,-0.000011, 0.000032, 0.000180,-0.543051,-0.073726, 0.027318,1,-0.001575, 0.003505, 0.018212,1, 0.002233,-0.007712,-0.995610,-0.001373, 0.003319, 0.018127, 0.123709, 0.243315,-0.107884,-0.000001, 0.000001, 0.000002,1,0
1777415753229192204,592371000000,   592.371,-0.000007,-0.000193,-0.009897,-0.000010, 0.000004, 0.000209,-0.547819,-0.051489, 0.029389,1,-0.001478, 0.003305, 0.018091,1, 0.000905,-0.014763,-0.992018,-0.000982, 0.001734, 0.019540, 0.124252, 0.244166,-0.108203,-0.000001, 0.000001, 0.000002,1,0
1777415753239277590,592371000000,   592.371,-0.000007,-0.000193,-0.009897,-0.000010, 0.000004, 0.000209,-0.547819,-0.051489, 0.029389,1,-0.001478, 0.003305, 0.018091,1, 0.000905,-0.014763,-0.992018,-0.000982, 0.001734, 0.019540, 0.124252, 0.244166,-0.108203,-0.000001, 0.000001, 0.000002,1,0
1777415753259014351,592391000000,   592.391, 0.000110, 0.000044,-0.009841, 0.000042, 0.000246, 0.000167,-0.557254,-0.150534,-0.019535,1, 0.003607, 0.005556, 0.019792,1, 0.008299,-0.008301,-0.998870, 0.006240, 0.013101, 0.018414, 0.124213, 0.244001,-0.108941,-0.000001, 0.000001, 0.000002,1,0
1777415753278712686,592411000000,   592.411, 0.000111,-0.000056,-0.009947,-0.000014, 0.000079, 0.000218,-0.490616, 0.013110, 0.033598,1, 0.007572, 0.008654, 0.019981,1, 0.009793,-0.002035,-0.994225, 0.005522, 0.007364, 0.020666, 0.124469, 0.243862,-0.109169,-0.000001, 0.000001, 0.000002,1,0
1777415753288441227,592421000000,   592.426, 0.000083, 0.000006,-0.009968, 0.000008, 0.000115, 0.000219,-0.473946, 0.015370, 0.048685,1, 0.005171, 0.008995, 0.021150,1, 0.009797,-0.000056,-0.993343, 0.005170, 0.008996, 0.021152, 0.124478, 0.243676,-0.108442,-0.000001, 0.000001, 0.000002,1,0
1777415753298525150,592421000000,   592.426, 0.000083, 0.000006,-0.009968, 0.000008, 0.000115, 0.000219,-0.473946, 0.015370, 0.048685,1, 0.005171, 0.008995, 0.021150,1, 0.009797,-0.000056,-0.993343, 0.005170, 0.008996, 0.021152, 0.124478, 0.243676,-0.108442,-0.000001, 0.000001, 0.000002,1,0
1777415753308140785,592441000000,   592.446, 0.000029,-0.000121,-0.009958, 0.000013, 0.000018, 0.000253,-0.522338,-0.021718, 0.040450,1, 0.003293, 0.004291, 0.023821,1, 0.004970,-0.003886,-0.994177, 0.003292, 0.004292, 0.023823, 0.123945, 0.243640,-0.107888,-0.000001, 0.000001, 0.000002,1,0
1777415753318224486,592441000000,   592.446, 0.000029,-0.000121,-0.009958, 0.000013, 0.000018, 0.000253,-0.522338,-0.021718, 0.040450,1, 0.003293, 0.004291, 0.023821,1, 0.004970,-0.003886,-0.994177, 0.003292, 0.004292, 0.023823, 0.123945, 0.243640,-0.107888,-0.000001, 0.000001, 0.000002,1,0
1777415753337969209,592461000000,   592.466,-0.000051,-0.000222,-0.009891, 0.000015, 0.000056, 0.000229,-0.578792,-0.154632, 0.051036,1, 0.001954, 0.005601, 0.023597,1,-0.000960,-0.017537,-0.993107, 0.001954, 0.005602, 0.023599, 0.124038, 0.243641,-0.107913,-0.000001, 0.000001, 0.000002,1,0
1777415753347659232,592481000000,   592.486,-0.000021,-0.000209,-0.009893, 0.000003, 0.000012, 0.000185,-0.589592,-0.174064, 0.036029,1, 0.000583, 0.002249, 0.020602,1,-0.002087,-0.019566,-0.994639, 0.000582, 0.002250, 0.020604, 0.123917, 0.243330,-0.108124,-0.000001, 0.000001, 0.000002,1,0
1777415753357743136,592481000000,   592.486,-0.000021,-0.000209,-0.009893, 0.000003, 0.000012, 0.000185,-0.589592,-0.174064, 0.036029,1, 0.000583, 0.002249, 0.020602,1,-0.002087,-0.019566,-0.994639, 0.000582, 0.002250, 0.020604, 0.123917, 0.243330,-0.108124,-0.000001, 0.000001, 0.000002,1,0
1777415753367399233,592501000000,   592.506,-0.000001,-0.000269,-0.009850,-0.000016, 0.000073, 0.000174,-0.574195,-0.189267, 0.040828,1,-0.000265, 0.004399, 0.018276,1,-0.000486,-0.021150,-0.994148,-0.000265, 0.004400, 0.018278, 0.123961, 0.243066,-0.109331,-0.000001, 0.000001, 0.000002,1,0
1777415753377483305,592501000000,   592.506,-0.000001,-0.000269,-0.009850,-0.000016, 0.000073, 0.000174,-0.574195,-0.189267, 0.040828,1,-0.000265, 0.004399, 0.018276,1,-0.000486,-0.021150,-0.994148,-0.000265, 0.004400, 0.018278, 0.123961, 0.243066,-0.109331,-0.000001, 0.000001, 0.000002,1,0
1777415753387094014,592521000000,   592.526,-0.000001,-0.000266,-0.009965,-0.000087, 0.000017, 0.000093,-0.567847,-0.241302, 0.014574,1,-0.005120, 0.002515, 0.012985,1, 0.000219,-0.026422,-0.996821,-0.005121, 0.002516, 0.012987, 0.124246, 0.242989,-0.108570,-0.000001, 0.000001, 0.000002,1,0
1777415753397177992,592521000000,   592.526,-0.000001,-0.000266,-0.009965,-0.000087, 0.000017, 0.000093,-0.567847,-0.241302, 0.014574,1,-0.005120, 0.002515, 0.012985,1, 0.000219,-0.026422,-0.996821,-0.005121, 0.002516, 0.012987, 0.124246, 0.242989,-0.108570,-0.000001, 0.000001, 0.000002,1,0
1777415753416911346,592541000000,   592.546,-0.000029,-0.000101,-0.010065,-0.000053, 0.000076, 0.000077,-0.587551,-0.153068,-0.006737,1,-0.005465, 0.004731, 0.009290,1,-0.001736,-0.017321,-0.998992,-0.005465, 0.004732, 0.009292, 0.124218, 0.243443,-0.108494,-0.000001, 0.000001, 0.000002,1,0
1777415753426610553,592561000000,   592.566, 0.000001, 0.000097,-0.010054,-0.000037, 0.000032, 0.000109,-0.578796, 0.014195, 0.003750,1,-0.004360, 0.005003, 0.009857,1,-0.000723,-0.000174,-0.997916,-0.004361, 0.005004, 0.009859, 0.123870, 0.243835,-0.107986,-0.000001, 0.000001, 0.000002,1,0
1777415753436694458,592561000000,   592.566, 0.000001, 0.000097,-0.010054,-0.000037, 0.000032, 0.000109,-0.578796, 0.014195, 0.003750,1,-0.004360, 0.005003, 0.009857,1,-0.000723,-0.000174,-0.997916,-0.004361, 0.005004, 0.009859, 0.123870, 0.243835,-0.107986,-0.000001, 0.000001, 0.000002,1,0
1777415753446342000,592581000000,   592.586,-0.000025, 0.000254,-0.009999,-0.000025, 0.000011, 0.000178,-0.589037, 0.172411, 0.016899,1,-0.003251, 0.002413, 0.014616,1,-0.001702, 0.016027,-0.996571,-0.003252, 0.002414, 0.014617, 0.123435, 0.244024,-0.107892,-0.000001, 0.000001, 0.000002,1,0
1777415753456425701,592581000000,   592.586,-0.000025, 0.000254,-0.009999,-0.000025, 0.000011, 0.000178,-0.589037, 0.172411, 0.016899,1,-0.003251, 0.002413, 0.014616,1,-0.001702, 0.016027,-0.996571,-0.003252, 0.002414, 0.014617, 0.123435, 0.244024,-0.107892,-0.000001, 0.000001, 0.000002,1,0
1777415753466047354,592601000000,   592.606, 0.000014, 0.000010,-0.010003, 0.000016, 0.000051, 0.000236,-0.572290, 0.102815, 0.006837,1,-0.000205, 0.003896, 0.020356,1, 0.000069, 0.008949,-0.997593,-0.000205, 0.003897, 0.020358, 0.123996, 0.243386,-0.107129,-0.000001, 0.000001, 0.000002,1,0
1777415753476132703,592601000000,   592.606, 0.000014, 0.000010,-0.010003, 0.000016, 0.000051, 0.000236,-0.572290, 0.102815, 0.006837,1,-0.000205, 0.003896, 0.020356,1, 0.000069, 0.008949,-0.997593,-0.000205, 0.003897, 0.020358, 0.123996, 0.243386,-0.107129,-0.000001, 0.000001, 0.000002,1,0
1777415753491682460,592621000000,   592.626, 0.000020,-0.000200,-0.010004,-0.000009,-0.000004, 0.000238,-0.560891,-0.081945, 0.014750,1,-0.000479, 0.001205, 0.022908,1, 0.001282,-0.009916,-0.996783,-0.000480, 0.001206, 0.022910, 0.124042, 0.243468,-0.108299,-0.000001, 0.000001, 0.000002,1,0
1777415753501415389,592641000000,   592.641, 0.000012,-0.000140,-0.009972, 0.000006, 0.000031, 0.000230,-0.562326,-0.119069, 0.025215,1,-0.000139, 0.001718, 0.022851,1, 0.001148,-0.013715,-0.995715,-0.000140, 0.001719, 0.022853, 0.123693, 0.243172,-0.108693,-0.000001, 0.000001, 0.000002,1,0
1777415753511499683,592641000000,   592.641, 0.000012,-0.000140,-0.009972, 0.000006, 0.000031, 0.000230,-0.562326,-0.119069, 0.025215,1,-0.000139, 0.001718, 0.022851,1, 0.001148,-0.013715,-0.995715,-0.000140, 0.001719, 0.022853, 0.123693, 0.243172,-0.108693,-0.000001, 0.000001, 0.000002,1,0
1777415753521120873,592661000000,   592.661, 0.000020,-0.000142,-0.009938, 0.000006, 0.000016, 0.000208,-0.554466,-0.118086, 0.036627,1, 0.000350, 0.002245, 0.021665,1, 0.001737,-0.013663,-0.994564, 0.000350, 0.002246, 0.021667, 0.123948, 0.243223,-0.108935,-0.000001, 0.000001, 0.000002,1,0
1777415753531227555,592661000000,   592.661, 0.000020,-0.000142,-0.009938, 0.000006, 0.000016, 0.000208,-0.554466,-0.118086, 0.036627,1, 0.000350, 0.002245, 0.021665,1, 0.001737,-0.013663,-0.994564, 0.000350, 0.002246, 0.021667, 0.123948, 0.243223,-0.108935,-0.000001, 0.000001, 0.000002,1,0
1777415753550685395,592681000000,   592.681, 0.000016,-0.000057,-0.009943,-0.000014,-0.000005, 0.000196,-0.550436,-0.100992, 0.016363,1,-0.000602, 0.000790, 0.020749,1, 0.001821,-0.009009,-0.995225,-0.000975, 0.000292, 0.020275, 0.123979, 0.243402,-0.108838,-0.000001, 0.000001, 0.000002,1,0
1777415753560299715,592701000000,   592.701, 0.000029,-0.000174,-0.009961,-0.000006, 0.000047, 0.000202,-0.554439,-0.056818, 0.015848,1,-0.000928, 0.001372, 0.019994,1, 0.002281,-0.012371,-0.996286,-0.000845, 0.002864, 0.020048, 0.123544, 0.243412,-0.107870,-0.000001, 0.000001, 0.000002,1,0
1777415753570383805,592701000000,   592.701, 0.000029,-0.000174,-0.009961,-0.000006, 0.000047, 0.000202,-0.554439,-0.056818, 0.015848,1,-0.000928, 0.001372, 0.019994,1, 0.002281,-0.012371,-0.996286,-0.000845, 0.002864, 0.020048, 0.123544, 0.243412,-0.107870,-0.000001, 0.000001, 0.000002,1,0
1777415753590058511,592721000000,   592.721, 0.000058,-0.000284,-0.009961,-0.000020, 0.000028, 0.000154,-0.537234,-0.185523, 0.024908,1,-0.001113, 0.003059, 0.019245,1, 0.004488,-0.023918,-0.995758,-0.001521, 0.002906, 0.017416, 0.124271, 0.243421,-0.108350,-0.000001, 0.000001, 0.000002,1,0
1777415753609819605,592741000000,   592.741, 0.000043,-0.000086,-0.009953,-0.000018, 0.000051, 0.000127,-0.523556,-0.187659, 0.031319,1,-0.002006, 0.003371, 0.015499,1, 0.004585,-0.015075,-0.994964,-0.001829, 0.004184, 0.014239, 0.124624, 0.243632,-0.108350,-0.000001, 0.000001, 0.000002,1,0
1777415753619496702,592761000000,   592.761, 0.000012, 0.000000,-0.009951,-0.000010, 0.000070, 0.000138,-0.533794,-0.080333, 0.022103,1,-0.001472, 0.005685, 0.013738,1, 0.002648,-0.005220,-0.995474,-0.001221, 0.006276, 0.013844, 0.124370, 0.243913,-0.108164,-0.000001, 0.000001, 0.000002,1,0
1777415753629581977,592761000000,   592.761, 0.000012, 0.000000,-0.009951,-0.000010, 0.000070, 0.000138,-0.533794,-0.080333, 0.022103,1,-0.001472, 0.005685, 0.013738,1, 0.002648,-0.005220,-0.995474,-0.001221, 0.006276, 0.013844, 0.124370, 0.243913,-0.108164,-0.000001, 0.000001, 0.000002,1,0
1777415753639249703,592781000000,   592.781, 0.000004, 0.000054,-0.009936,-0.000019, 0.000046, 0.000175,-0.557149, 0.010021, 0.012972,1,-0.001431, 0.005850, 0.014790,1, 0.001149, 0.002114,-0.995384,-0.001598, 0.005289, 0.016067, 0.124164, 0.243431,-0.107896,-0.000001, 0.000001, 0.000002,1,0
1777415753649346682,592781000000,   592.781, 0.000004, 0.000054,-0.009936,-0.000019, 0.000046, 0.000175,-0.557149, 0.010021, 0.012972,1,-0.001431, 0.005850, 0.014790,1, 0.001149, 0.002114,-0.995384,-0.001598, 0.005289, 0.016067, 0.124164, 0.243431,-0.107896,-0.000001, 0.000001, 0.000002,1,0
1777415753659010741,592801000000,   592.801, 0.000006,-0.000093,-0.009932,-0.000011, 0.000055, 0.000195,-0.565337, 0.014668, 0.021379,1,-0.001346, 0.005481, 0.017489,1, 0.000804,-0.004462,-0.994704,-0.001195, 0.005446, 0.018434, 0.123878, 0.243502,-0.107531,-0.000001, 0.000001, 0.000002,1,0
1777415753669101794,592801000000,   592.801, 0.000006,-0.000093,-0.009932,-0.000011, 0.000055, 0.000195,-0.565337, 0.014668, 0.021379,1,-0.001346, 0.005481, 0.017489,1, 0.000804,-0.004462,-0.994704,-0.001195, 0.005446, 0.018434, 0.123878, 0.243502,-0.107531,-0.000001, 0.000001, 0.000002,1,0
1777415753688767093,592821000000,   592.821, 0.000010,-0.000125,-0.009955,-0.000014, 0.000029, 0.000185,-0.568103,-0.065755, 0.026520,1,-0.001088, 0.004828, 0.018669,1, 0.000892,-0.010163,-0.995888,-0.001307, 0.003910, 0.018609, 0.123331, 0.243817,-0.107973,-0.000001, 0.000001, 0.000002,1,0
1777415753698512763,592831000000,   592.836, 0.000010,-0.000093,-0.009947,-0.000007, 0.000033, 0.000192,-0.567342,-0.079876, 0.031773,1,-0.001075, 0.003681, 0.018922,1, 0.000934,-0.009738,-0.995029,-0.001076, 0.003682, 0.018923, 0.123643, 0.243836,-0.107621,-0.000001, 0.000001, 0.000002,1,0
1777415753708598112,592831000000,   592.836, 0.000010,-0.000093,-0.009947,-0.000007, 0.000033, 0.000192,-0.567342,-0.079876, 0.031773,1,-0.001075, 0.003681, 0.018922,1, 0.000934,-0.009738,-0.995029,-0.001076, 0.003682, 0.018923, 0.123643, 0.243836,-0.107621,-0.000001, 0.000001, 0.000002,1,0
1777415753718206043,592851000000,   592.856, 0.000020,-0.000045,-0.009935,-0.000008, 0.000044, 0.000195,-0.559319,-0.048018, 0.030553,1,-0.000926, 0.004180, 0.019078,1, 0.001657,-0.006499,-0.995159,-0.000926, 0.004181, 0.019080, 0.123948, 0.243851,-0.109288,-0.000001, 0.000001, 0.000002,1,0
1777415753728291207,592851000000,   592.856, 0.000020,-0.000045,-0.009935,-0.000008, 0.000044, 0.000195,-0.559319,-0.048018, 0.030553,1,-0.000926, 0.004180, 0.019078,1, 0.001657,-0.006499,-0.995159,-0.000926, 0.004181, 0.019080, 0.123948, 0.243851,-0.109288,-0.000001, 0.000001, 0.000002,1,0
1777415753748025579,592871000000,   592.876, 0.000027,-0.000024,-0.009945,-0.000007, 0.000024, 0.000210,-0.550896,-0.020935, 0.026060,1,-0.000760, 0.003164, 0.020224,1, 0.002397,-0.003754,-0.995624,-0.000761, 0.003165, 0.020226, 0.123636, 0.243660,-0.108647,-0.000001, 0.000001, 0.000002,1,0
1777415753767714989,592891000000,   592.896, 0.000025,-0.000068,-0.009954, 0.000005, 0.000030, 0.000224,-0.549920,-0.033887, 0.024550,1,-0.000126, 0.002980, 0.021595,1, 0.002497,-0.005090,-0.995778,-0.000127, 0.002981, 0.021597, 0.124205, 0.243706,-0.108985,-0.000001, 0.000001, 0.000002,1,0
1777415753777387771,592911000000,   592.916, 0.000019,-0.000150,-0.009954,-0.000001, 0.000038, 0.000216,-0.552907,-0.095083, 0.025195,1,-0.000087, 0.003446, 0.021808,1, 0.002238,-0.011355,-0.995710,-0.000087, 0.003447, 0.021810, 0.124230, 0.243814,-0.108425,-0.000001, 0.000001, 0.000002,1,0
1777415753787472379,592911000000,   592.916, 0.000019,-0.000150,-0.009954,-0.000001, 0.000038, 0.000216,-0.552907,-0.095083, 0.025195,1,-0.000087, 0.003446, 0.021808,1, 0.002238,-0.011355,-0.995710,-0.000087, 0.003447, 0.021810, 0.124230, 0.243814,-0.108425,-0.000001, 0.000001, 0.000002,1,0
1777415753797144402,592931000000,   592.936, 0.000010,-0.000138,-0.009961,-0.000016, 0.000027, 0.000198,-0.562655,-0.115956, 0.023828,1,-0.000890, 0.002941, 0.020717,1, 0.001300,-0.013499,-0.995846,-0.000891, 0.002942, 0.020719, 0.123779, 0.243349,-0.107744,-0.000001, 0.000001, 0.000002,1,0
1777415753807229455,592931000000,   592.936, 0.000010,-0.000138,-0.009961,-0.000016, 0.000027, 0.000198,-0.562655,-0.115956, 0.023828,1,-0.000890, 0.002941, 0.020717,1, 0.001300,-0.013499,-0.995846,-0.000891, 0.002942, 0.020719, 0.123779, 0.243349,-0.107744,-0.000001, 0.000001, 0.000002,1,0
1777415753826961364,592951000000,   592.956,-0.000003,-0.000112,-0.009961,-0.000011, 0.000040, 0.000187,-0.574443,-0.102748, 0.022371,1,-0.000826, 0.003589, 0.019425,1, 0.000161,-0.012160,-0.995991,-0.000826, 0.003590, 0.019427, 0.124350, 0.243808,-0.107752,-0.000001, 0.000001, 0.000002,1,0
1777415753836657572,592971000000,   592.976,-0.000000,-0.000099,-0.009951,-0.000009, 0.000029, 0.000185,-0.577017,-0.089046, 0.024451,1,-0.001041, 0.003253, 0.018733,1,-0.000032,-0.010765,-0.995775,-0.001042, 0.003254, 0.018735, 0.124173, 0.243579,-0.108286,-0.000001, 0.000001, 0.000002,1,0
1777415753846755069,592971000000,   592.976,-0.000000,-0.000099,-0.009951,-0.000009, 0.000029, 0.000185,-0.577017,-0.089046, 0.024451,1,-0.001041, 0.003253, 0.018733,1,-0.000032,-0.010765,-0.995775,-0.001042, 0.003254, 0.018735, 0.124173, 0.243579,-0.108286,-0.000001, 0.000001, 0.000002,1,0
1777415753856443813,592991000000,   592.996, 0.000014,-0.000108,-0.009952,-0.000018, 0.000035, 0.000187,-0.569430,-0.086894, 0.025893,1,-0.001371, 0.003180, 0.018609,1, 0.000805,-0.010543,-0.995624,-0.001372, 0.003181, 0.018611, 0.124088, 0.243646,-0.109384,-0.000001, 0.000001, 0.000002,1,0
1777415753866536458,592991000000,   592.996, 0.000014,-0.000108,-0.009952,-0.000018, 0.000035, 0.000187,-0.569430,-0.086894, 0.025893,1,-0.001371, 0.003180, 0.018609,1, 0.000805,-0.010543,-0.995624,-0.001372, 0.003181, 0.018611, 0.124088, 0.243646,-0.109384,-0.000001, 0.000001, 0.000002,1,0
1777415753876109205,593011000000,   593.016, 0.000023,-0.000120,-0.009959,-0.000023, 0.000044, 0.000179,-0.560923,-0.097156, 0.024338,1,-0.001981, 0.003570, 0.018097,1, 0.001734,-0.011577,-0.995779,-0.001981, 0.003571, 0.018099, 0.124159, 0.243648,-0.109009,-0.000001, 0.000001, 0.000002,1,0
1777415753886194702,593011000000,   593.016, 0.000023,-0.000120,-0.009959,-0.000023, 0.000044, 0.000179,-0.560923,-0.097156, 0.024338,1,-0.001981, 0.003570, 0.018097,1, 0.001734,-0.011577,-0.995779,-0.001981, 0.003571, 0.018099, 0.124159, 0.243648,-0.109009,-0.000001, 0.000001, 0.000002,1,0
1777415753901727312,593031000000,   593.036, 0.000020,-0.000095,-0.009970,-0.000012, 0.000031, 0.000163,-0.559048,-0.088053, 0.020337,1,-0.001468, 0.003168, 0.016973,1, 0.001988,-0.010636,-0.996183,-0.001468, 0.003169, 0.016974, 0.123842, 0.243942,-0.108139,-0.000001, 0.000001, 0.000002,1,0
1777415753911098525,593051000000,   593.051, 0.000013,-0.000075,-0.009964,-0.000015, 0.000040, 0.000169,-0.561423,-0.069844, 0.023025,1,-0.001534, 0.003799, 0.016938,1, 0.001640,-0.008777,-0.995915,-0.001535, 0.003800, 0.016940, 0.123401, 0.243385,-0.107915,-0.000001, 0.000001, 0.000002,1,0
1777415753921184392,593051000000,   593.051, 0.000013,-0.000075,-0.009964,-0.000015, 0.000040, 0.000169,-0.561423,-0.069844, 0.023025,1,-0.001534, 0.003799, 0.016938,1, 0.001640,-0.008777,-0.995915,-0.001535, 0.003800, 0.016940, 0.123401, 0.243385,-0.107915,-0.000001, 0.000001, 0.000002,1,0
1777415753940474809,593071000000,   593.071, 0.000013,-0.000060,-0.009959,-0.000006, 0.000029, 0.000168,-0.561736,-0.062283, 0.024071,1,-0.001482, 0.003657, 0.016931,1, 0.001457,-0.007051,-0.995823,-0.001105, 0.003336, 0.016838, 0.124231, 0.243029,-0.108352,-0.000001, 0.000001, 0.000002,1,0
1777415753950166146,593091000000,   593.091, 0.000021,-0.000064,-0.009959,-0.000005, 0.000034, 0.000191,-0.561876,-0.047322, 0.022849,1,-0.001026, 0.003619, 0.017138,1, 0.001730,-0.006456,-0.995910,-0.000758, 0.003505, 0.018036, 0.124235, 0.242688,-0.108789,-0.000001, 0.000001, 0.000002,1,0
1777415753960251810,593091000000,   593.091, 0.000021,-0.000064,-0.009959,-0.000005, 0.000034, 0.000191,-0.561876,-0.047322, 0.022849,1,-0.001026, 0.003619, 0.017138,1, 0.001730,-0.006456,-0.995910,-0.000758, 0.003505, 0.018036, 0.124235, 0.242688,-0.108789,-0.000001, 0.000001, 0.000002,1,0
1777415753979934368,593111000000,   593.111, 0.000029,-0.000075,-0.009957,-0.000011, 0.000033, 0.000189,-0.555160,-0.048566, 0.019153,1,-0.001039, 0.003133, 0.018574,1, 0.002474,-0.007045,-0.996128,-0.001089, 0.003215, 0.018751, 0.124079, 0.242942,-0.108543,-0.000001, 0.000001, 0.000002,1,0
1777415753989679501,593131000000,   593.131, 0.000026,-0.000086,-0.009962,-0.000013, 0.000033, 0.000192,-0.548882,-0.059504, 0.021526,1,-0.000817, 0.003415, 0.019008,1, 0.002765,-0.008111,-0.996275,-0.001058, 0.003400, 0.019128, 0.124012, 0.242913,-0.107909,-0.000001, 0.000001, 0.000002,1,0
1777415753999824738,593131000000,   593.131, 0.000026,-0.000086,-0.009962,-0.000013, 0.000033, 0.000192,-0.548882,-0.059504, 0.021526,1,-0.000817, 0.003415, 0.019008,1, 0.002765,-0.008111,-0.996275,-0.001058, 0.003400, 0.019128, 0.124012, 0.242913,-0.107909,-0.000001, 0.000001, 0.000002,1,0
1777415754009371688,593151000000,   593.151, 0.000019,-0.000080,-0.009964,-0.000010, 0.000036, 0.000188,-0.552167,-0.064338, 0.024747,1,-0.000535, 0.003374, 0.019275,1, 0.002265,-0.008113,-0.996117,-0.000820, 0.003465, 0.019042, 0.124058, 0.243243,-0.108092,-0.000001, 0.000001, 0.000002,1,0
1777415754019457017,593151000000,   593.151, 0.000019,-0.000080,-0.009964,-0.000010, 0.000036, 0.000188,-0.552167,-0.064338, 0.024747,1,-0.000535, 0.003374, 0.019275,1, 0.002265,-0.008113,-0.996117,-0.000820, 0.003465, 0.019042, 0.124058, 0.243243,-0.108092,-0.000001, 0.000001, 0.000002,1,0
1777415754029125927,593171000000,   593.171, 0.000004,-0.000091,-0.009968,-0.000006, 0.000033, 0.000195,-0.561890,-0.065363, 0.025817,1,-0.000801, 0.003319, 0.018993,1, 0.001073,-0.008686,-0.996087,-0.000753, 0.003302, 0.019250, 0.123788, 0.243418,-0.107974,-0.000001, 0.000001, 0.000002,1,0
1777415754039210941,593171000000,   593.171, 0.000004,-0.000091,-0.009968,-0.000006, 0.000033, 0.000195,-0.561890,-0.065363, 0.025817,1,-0.000801, 0.003319, 0.018993,1, 0.001073,-0.008686,-0.996087,-0.000753, 0.003302, 0.019250, 0.123788, 0.243418,-0.107974,-0.000001, 0.000001, 0.000002,1,0
1777415754058941255,593191000000,   593.191,-0.000002,-0.000107,-0.009958,-0.000011, 0.000031, 0.000190,-0.572975,-0.073663, 0.023097,1,-0.000631, 0.003016, 0.019462,1, 0.000257,-0.009892,-0.995728,-0.000848, 0.003009, 0.019225, 0.124113, 0.243483,-0.107792,-0.000001, 0.000001, 0.000002,1,0
1777415754068690811,593211000000,   593.211, 0.000001,-0.000129,-0.009953,-0.000003, 0.000032, 0.000184,-0.578204,-0.088403, 0.024483,1,-0.000813, 0.002870, 0.019310,1, 0.000047,-0.011693,-0.995460,-0.000625, 0.002971, 0.018875, 0.123827, 0.243786,-0.107700,-0.000001, 0.000001, 0.000002,1,0
1777415754078775862,593211000000,   593.211, 0.000001,-0.000129,-0.009953,-0.000003, 0.000032, 0.000184,-0.578204,-0.088403, 0.024483,1,-0.000813, 0.002870, 0.019310,1, 0.000047,-0.011693,-0.995460,-0.000625, 0.002971, 0.018875, 0.123827, 0.243786,-0.107700,-0.000001, 0.000001, 0.000002,1,0
1777415754088304330,593221000000,   593.226, 0.000004,-0.000115,-0.009963,-0.000011, 0.000033, 0.000177,-0.577911,-0.096915, 0.022925,1,-0.000888, 0.003135, 0.018322,1, 0.000227,-0.011590,-0.995909,-0.000889, 0.003136, 0.018324, 0.123806, 0.243550,-0.107863,-0.000001, 0.000001, 0.000002,1,0
1777415754098407659,593221000000,   593.226, 0.000004,-0.000115,-0.009963,-0.000011, 0.000033, 0.000177,-0.577911,-0.096915, 0.022925,1,-0.000888, 0.003135, 0.018322,1, 0.000227,-0.011590,-0.995909,-0.000889, 0.003136, 0.018324, 0.123806, 0.243550,-0.107863,-0.000001, 0.000001, 0.000002,1,0
1777415754108059588,593241000000,   593.246, 0.000012,-0.000084,-0.009971,-0.000017, 0.000030, 0.000176,-0.573031,-0.078983, 0.021574,1,-0.001553, 0.002944, 0.017957,1, 0.000785,-0.009758,-0.996044,-0.001554, 0.002945, 0.017959, 0.123806, 0.243474,-0.108284,-0.000001, 0.000001, 0.000002,1,0
1777415754118161120,593241000000,   593.246, 0.000012,-0.000084,-0.009971,-0.000017, 0.000030, 0.000176,-0.573031,-0.078983, 0.021574,1,-0.001553, 0.002944, 0.017957,1, 0.000785,-0.009758,-0.996044,-0.001554, 0.002945, 0.017959, 0.123806, 0.243474,-0.108284,-0.000001, 0.000001, 0.000002,1,0
1777415754137883767,593261000000,   593.266, 0.000016,-0.000067,-0.009964,-0.000012, 0.000036, 0.000183,-0.566355,-0.059707, 0.022447,1,-0.001413, 0.003435, 0.018172,1, 0.001203,-0.007808,-0.995970,-0.001414, 0.003436, 0.018173, 0.123763, 0.243247,-0.107818,-0.000001, 0.000001, 0.000002,1,0
1777415754147555233,593281000000,   593.286, 0.000024,-0.000073,-0.009962,-0.000011, 0.000030, 0.000184,-0.559334,-0.055217, 0.022167,1,-0.001054, 0.003163, 0.018375,1, 0.001868,-0.007357,-0.996002,-0.001055, 0.003164, 0.018376, 0.123985, 0.242998,-0.107588,-0.000001, 0.000001, 0.000002,1,0
1777415754157654117,593281000000,   593.286, 0.000024,-0.000073,-0.009962,-0.000011, 0.000030, 0.000184,-0.559334,-0.055217, 0.022167,1,-0.001054, 0.003163, 0.018375,1, 0.001868,-0.007357,-0.996002,-0.001055, 0.003164, 0.018376, 0.123985, 0.242998,-0.107588,-0.000001, 0.000001, 0.000002,1,0
1777415754167285602,593301000000,   593.306, 0.000029,-0.000087,-0.009956,-0.000011, 0.000026, 0.000193,-0.553049,-0.062641, 0.022954,1,-0.001124, 0.003079, 0.018965,1, 0.002540,-0.008118,-0.995920,-0.001125, 0.003080, 0.018966, 0.123846, 0.243056,-0.106928,-0.000001, 0.000001, 0.000002,1,0
1777415754177370856,593301000000,   593.306, 0.000029,-0.000087,-0.009956,-0.000011, 0.000026, 0.000193,-0.553049,-0.062641, 0.022954,1,-0.001124, 0.003079, 0.018965,1, 0.002540,-0.008118,-0.995920,-0.001125, 0.003080, 0.018966, 0.123846, 0.243056,-0.106928,-0.000001, 0.000001, 0.000002,1,0
1777415754187020285,593321000000,   593.326, 0.000030,-0.000105,-0.009962,-0.000016, 0.000034, 0.000193,-0.550022,-0.078132, 0.022828,1,-0.001209, 0.003359, 0.019206,1, 0.002903,-0.009703,-0.995929,-0.001210, 0.003360, 0.019207, 0.123969, 0.243096,-0.107678,-0.000001, 0.000001, 0.000002,1,0
1777415754197104410,593321000000,   593.326, 0.000030,-0.000105,-0.009962,-0.000016, 0.000034, 0.000193,-0.550022,-0.078132, 0.022828,1,-0.001209, 0.003359, 0.019206,1, 0.002903,-0.009703,-0.995929,-0.001210, 0.003360, 0.019207, 0.123969, 0.243096,-0.107678,-0.000001, 0.000001, 0.000002,1,0
1777415754216834057,593341000000,   593.346, 0.000021,-0.000089,-0.009962,-0.000009, 0.000035, 0.000187,-0.555231,-0.075628, 0.022019,1,-0.001161, 0.003309, 0.018870,1, 0.002432,-0.009442,-0.996008,-0.001162, 0.003310, 0.018872, 0.123887, 0.243468,-0.108778,-0.000001, 0.000001, 0.000002,1,0
1777415754226508430,593361000000,   593.366, 0.000006,-0.000074,-0.009963,-0.000014, 0.000038, 0.000178,-0.566416,-0.064383, 0.021954,1,-0.001318, 0.003499, 0.018456,1, 0.001354,-0.008290,-0.996011,-0.001318, 0.003500, 0.018458, 0.123928, 0.243645,-0.108649,-0.000001, 0.000001, 0.000002,1,0
1777415754236592277,593361000000,   593.366, 0.000006,-0.000074,-0.009963,-0.000014, 0.000038, 0.000178,-0.566416,-0.064383, 0.021954,1,-0.001318, 0.003499, 0.018456,1, 0.001354,-0.008290,-0.996011,-0.001318, 0.003500, 0.018458, 0.123928, 0.243645,-0.108649,-0.000001, 0.000001, 0.000002,1,0
1777415754246262595,593381000000,   593.386, 0.000001,-0.000079,-0.009964,-0.000006, 0.000027, 0.000191,-0.575349,-0.060452, 0.022309,1,-0.001123, 0.003137, 0.018888,1, 0.000511,-0.007886,-0.995971,-0.001123, 0.003138, 0.018889, 0.123591, 0.244006,-0.107788,-0.000001, 0.000001, 0.000002,1,0
1777415754256346665,593381000000,   593.386, 0.000001,-0.000079,-0.009964,-0.000006, 0.000027, 0.000191,-0.575349,-0.060452, 0.022309,1,-0.001123, 0.003137, 0.018888,1, 0.000511,-0.007886,-0.995971,-0.001123, 0.003138, 0.018889, 0.123591, 0.244006,-0.107788,-0.000001, 0.000001, 0.000002,1,0
1777415754271899401,593401000000,   593.406, 0.000008,-0.000107,-0.009959,-0.000005, 0.000025, 0.000193,-0.575592,-0.076173, 0.023088,1,-0.001054, 0.003079, 0.019156,1, 0.000551,-0.009486,-0.995888,-0.001054, 0.003080, 0.019157, 0.123642, 0.243171,-0.107813,-0.000001, 0.000001, 0.000002,1,0
1777415754281592644,593421000000,   593.426, 0.000015,-0.000110,-0.009950,-0.000008, 0.000031, 0.000183,-0.570391,-0.086263, 0.025915,1,-0.001220, 0.003217, 0.018608,1, 0.001146,-0.010510,-0.995596,-0.001220, 0.003218, 0.018610, 0.123670, 0.243492,-0.107516,-0.000001, 0.000001, 0.000002,1,0
1777415754291677491,593421000000,   593.426, 0.000015,-0.000110,-0.009950,-0.000008, 0.000031, 0.000183,-0.570391,-0.086263, 0.025915,1,-0.001220, 0.003217, 0.018608,1, 0.001146,-0.010510,-0.995596,-0.001220, 0.003218, 0.018610, 0.123670, 0.243492,-0.107516,-0.000001, 0.000001, 0.000002,1,0
1777415754301271013,593431000000,   593.436, 0.000011,-0.000105,-0.009968,-0.000015, 0.000033, 0.000184,-0.569030,-0.083420, 0.023090,1,-0.001230, 0.003139, 0.018284,1, 0.001118,-0.010458,-0.996136,-0.001345, 0.003226, 0.018502, 0.123342, 0.243451,-0.107167,-0.000001, 0.000001, 0.000002,1,0
1777415754311374861,593431000000,   593.436, 0.000011,-0.000105,-0.009968,-0.000015, 0.000033, 0.000184,-0.569030,-0.083420, 0.023090,1,-0.001230, 0.003139, 0.018284,1, 0.001118,-0.010458,-0.996136,-0.001345, 0.003226, 0.018502, 0.123342, 0.243451,-0.107167,-0.000001, 0.000001, 0.000002,1,0
1777415754321039252,593461000000,   593.461, 0.000020,-0.000092,-0.009954,-0.000023, 0.000029, 0.000179,-0.563201,-0.075937, 0.024982,1,-0.001751, 0.002927, 0.018076,1, 0.001655,-0.009466,-0.995704,-0.001751, 0.002928, 0.018078, 0.123365, 0.243921,-0.108880,-0.000001, 0.000001, 0.000002,1,0
1777415754331123451,593461000000,   593.461, 0.000020,-0.000092,-0.009954,-0.000023, 0.000029, 0.000179,-0.563201,-0.075937, 0.024982,1,-0.001751, 0.002927, 0.018076,1, 0.001655,-0.009466,-0.995704,-0.001751, 0.002928, 0.018078, 0.123365, 0.243921,-0.108880,-0.000001, 0.000001, 0.000002,1,0
1777415754350527807,593481000000,   593.481, 0.000022,-0.000084,-0.009960,-0.000020, 0.000028, 0.000183,-0.561958,-0.070353, 0.024761,1,-0.001825, 0.003059, 0.018077,1, 0.001968,-0.008638,-0.995854,-0.001890, 0.002919, 0.018198, 0.123373, 0.243488,-0.108499,-0.000001, 0.000001, 0.000002,1,0
1777415754360165403,593501000000,   593.501, 0.000019,-0.000077,-0.009970,-0.000016, 0.000028, 0.000187,-0.558071,-0.063951, 0.025246,1,-0.001110, 0.003362, 0.018384,1, 0.002022,-0.007997,-0.996227,-0.001280, 0.003112, 0.018499, 0.123597, 0.243247,-0.108316,-0.000001, 0.000001, 0.000002,1,0
1777415754370249473,593501000000,   593.501, 0.000019,-0.000077,-0.009970,-0.000016, 0.000028, 0.000187,-0.558071,-0.063951, 0.025246,1,-0.001110, 0.003362, 0.018384,1, 0.002022,-0.007997,-0.996227,-0.001280, 0.003112, 0.018499, 0.123597, 0.243247,-0.108316,-0.000001, 0.000001, 0.000002,1,0
1777415754389981008,593521000000,   593.521, 0.000012,-0.000082,-0.009958,-0.000003, 0.000020, 0.000186,-0.561481,-0.062378, 0.020924,1,-0.001356, 0.002958, 0.018595,1, 0.001502,-0.008148,-0.995892,-0.000873, 0.002546, 0.018610, 0.124198, 0.243388,-0.108124,-0.000001, 0.000001, 0.000002,1,0
1777415754399734472,593541000000,   593.541, 0.000007,-0.000090,-0.009949,-0.000006, 0.000024, 0.000191,-0.568150,-0.063595, 0.020142,1,-0.001326, 0.002551, 0.018689,1, 0.000978,-0.008568,-0.995558,-0.000958, 0.002535, 0.018852, 0.124016, 0.243441,-0.108032,-0.000001, 0.000001, 0.000002,1,0
1777415754409819431,593541000000,   593.541, 0.000007,-0.000090,-0.009949,-0.000006, 0.000024, 0.000191,-0.568150,-0.063595, 0.020142,1,-0.001326, 0.002551, 0.018689,1, 0.000978,-0.008568,-0.995558,-0.000958, 0.002535, 0.018852, 0.124016, 0.243441,-0.108032,-0.000001, 0.000001, 0.000002,1,0
1777415754419424231,593561000000,   593.561, 0.000016,-0.000094,-0.009952,-0.000013, 0.000034, 0.000196,-0.569557,-0.070107, 0.019623,1,-0.000748, 0.002541, 0.018784,1, 0.001347,-0.009086,-0.995763,-0.001059, 0.002975, 0.019182, 0.123832, 0.243578,-0.108283,-0.000001, 0.000001, 0.000002,1,0
1777415754429508319,593561000000,   593.561, 0.000016,-0.000094,-0.009952,-0.000013, 0.000034, 0.000196,-0.569557,-0.070107, 0.019623,1,-0.000748, 0.002541, 0.018784,1, 0.001347,-0.009086,-0.995763,-0.001059, 0.002975, 0.019182, 0.123832, 0.243578,-0.108283,-0.000001, 0.000001, 0.000002,1,0
1777415754439163804,593581000000,   593.581, 0.000021,-0.000106,-0.009950,-0.000006, 0.000028, 0.000186,-0.566262,-0.077286, 0.021463,1,-0.001446, 0.002986, 0.019006,1, 0.001811,-0.010052,-0.995618,-0.001024, 0.002954, 0.018801, 0.123944, 0.243666,-0.108240,-0.000001, 0.000001, 0.000002,1,0
1777415754449247429,593581000000,   593.581, 0.000021,-0.000106,-0.009950,-0.000006, 0.000028, 0.000186,-0.566262,-0.077286, 0.021463,1,-0.001446, 0.002986, 0.019006,1, 0.001811,-0.010052,-0.995618,-0.001024, 0.002954, 0.018801, 0.123944, 0.243666,-0.108240,-0.000001, 0.000001, 0.000002,1,0
1777415754468930373,593601000000,   593.601, 0.000033,-0.000089,-0.009955,-0.000004, 0.000050, 0.000184,-0.559979,-0.080702, 0.022419,1,-0.001006, 0.003735, 0.018594,1, 0.002717,-0.009457,-0.995724,-0.000753, 0.004326, 0.018480, 0.123540, 0.243653,-0.108449,-0.000001, 0.000001, 0.000002,1,0
1777415754478606597,593621000000,   593.621, 0.000029,-0.000085,-0.009955,-0.000003, 0.000046, 0.000187,-0.551802,-0.071921, 0.026857,1,-0.000653, 0.004487, 0.018456,1, 0.002997,-0.008836,-0.995523,-0.000499, 0.004543, 0.018543, 0.123868, 0.243391,-0.108235,-0.000001, 0.000001, 0.000002,1,0
1777415754488690537,593621000000,   593.621, 0.000029,-0.000085,-0.009955,-0.000003, 0.000046, 0.000187,-0.551802,-0.071921, 0.026857,1,-0.000653, 0.004487, 0.018456,1, 0.002997,-0.008836,-0.995523,-0.000499, 0.004543, 0.018543, 0.123868, 0.243391,-0.108235,-0.000001, 0.000001, 0.000002,1,0
1777415754498357558,593631000000,   593.636, 0.000017,-0.000088,-0.009958,-0.000018, 0.000046, 0.000186,-0.560137,-0.069607, 0.025053,1,-0.001061, 0.004572, 0.018595,1, 0.002340,-0.008827,-0.995674,-0.001062, 0.004573, 0.018597, 0.124029, 0.243412,-0.107619,-0.000001, 0.000001, 0.000002,1,0
1777415754508441369,593631000000,   593.636, 0.000017,-0.000088,-0.009958,-0.000018, 0.000046, 0.000186,-0.560137,-0.069607, 0.025053,1,-0.001061, 0.004572, 0.018595,1, 0.002340,-0.008827,-0.995674,-0.001062, 0.004573, 0.018597, 0.124029, 0.243412,-0.107619,-0.000001, 0.000001, 0.000002,1,0
1777415754518115427,593651000000,   593.656, 0.000000,-0.000107,-0.009969,-0.000012, 0.000035, 0.000187,-0.571995,-0.079888, 0.021256,1,-0.001008, 0.003772, 0.018664,1, 0.000997,-0.009894,-0.996070,-0.001008, 0.003773, 0.018666, 0.124115, 0.242989,-0.108101,-0.000001, 0.000001, 0.000002,1,0
1777415754528200589,593651000000,   593.656, 0.000000,-0.000107,-0.009969,-0.000012, 0.000035, 0.000187,-0.571995,-0.079888, 0.021256,1,-0.001008, 0.003772, 0.018664,1, 0.000997,-0.009894,-0.996070,-0.001008, 0.003773, 0.018666, 0.124115, 0.242989,-0.108101,-0.000001, 0.000001, 0.000002,1,0
1777415754547936477,593671000000,   593.676,-0.000013,-0.000101,-0.009972,-0.000016, 0.000029, 0.000182,-0.585340,-0.082920, 0.019025,1,-0.001377, 0.003328, 0.018353,1,-0.000532,-0.010216,-0.996307,-0.001378, 0.003329, 0.018355, 0.124298, 0.243100,-0.107770,-0.000001, 0.000001, 0.000002,1,0
1777415754557613849,593691000000,   593.696,-0.000003,-0.000086,-0.009959,-0.000016, 0.000027, 0.000179,-0.584762,-0.071449, 0.024675,1,-0.001216, 0.002961, 0.018132,1,-0.000481,-0.009048,-0.995731,-0.001217, 0.002962, 0.018134, 0.124229, 0.243216,-0.108301,-0.000001, 0.000001, 0.000002,1,0
1777415754567698438,593691000000,   593.696,-0.000003,-0.000086,-0.009959,-0.000016, 0.000027, 0.000179,-0.584762,-0.071449, 0.024675,1,-0.001216, 0.002961, 0.018132,1,-0.000481,-0.009048,-0.995731,-0.001217, 0.002962, 0.018134, 0.124229, 0.243216,-0.108301,-0.000001, 0.000001, 0.000002,1,0
1777415754577322015,593711000000,   593.716, 0.000011,-0.000052,-0.009957,-0.000006, 0.000036, 0.000186,-0.576078,-0.047265, 0.024700,1,-0.000994, 0.003373, 0.018509,1, 0.000447,-0.006580,-0.995726,-0.000995, 0.003374, 0.018511, 0.123863, 0.242865,-0.108729,-0.000001, 0.000001, 0.000002,1,0
1777415754587406362,593711000000,   593.716, 0.000011,-0.000052,-0.009957,-0.000006, 0.000036, 0.000186,-0.576078,-0.047265, 0.024700,1,-0.000994, 0.003373, 0.018509,1, 0.000447,-0.006580,-0.995726,-0.000995, 0.003374, 0.018511, 0.123863, 0.242865,-0.108729,-0.000001, 0.000001, 0.000002,1,0
1777415754597069624,593731000000,   593.736, 0.000036,-0.000087,-0.009950,-0.000014, 0.000037, 0.000197,-0.557064,-0.055406, 0.025181,1,-0.001205, 0.003446, 0.019250,1, 0.002443,-0.007412,-0.995674,-0.001206, 0.003447, 0.019252, 0.124108, 0.243153,-0.108774,-0.000001, 0.000001, 0.000002,1,0
1777415754607153675,593731000000,   593.736, 0.000036,-0.000087,-0.009950,-0.000014, 0.000037, 0.000197,-0.557064,-0.055406, 0.025181,1,-0.001205, 0.003446, 0.019250,1, 0.002443,-0.007412,-0.995674,-0.001206, 0.003447, 0.019252, 0.124108, 0.243153,-0.108774,-0.000001, 0.000001, 0.000002,1,0
1777415754626887322,593751000000,   593.756, 0.000042,-0.000112,-0.009936,-0.000000, 0.000043, 0.000192,-0.545973,-0.078488, 0.029983,1,-0.000576, 0.003748, 0.019240,1, 0.003641,-0.009771,-0.995180,-0.000577, 0.003749, 0.019242, 0.123844, 0.243052,-0.107988,-0.000001, 0.000001, 0.000002,1,0
1777415754636563454,593771000000,   593.776, 0.000038,-0.000126,-0.009944,-0.000006, 0.000050, 0.000183,-0.544468,-0.097308, 0.027045,1,-0.000530, 0.004396, 0.018799,1, 0.003872,-0.011703,-0.995475,-0.000531, 0.004397, 0.018801, 0.123901, 0.243521,-0.107722,-0.000001, 0.000001, 0.000002,1,0
1777415754646647709,593771000000,   593.776, 0.000038,-0.000126,-0.009944,-0.000006, 0.000050, 0.000183,-0.544468,-0.097308, 0.027045,1,-0.000530, 0.004396, 0.018799,1, 0.003872,-0.011703,-0.995475,-0.000531, 0.004397, 0.018801, 0.123901, 0.243521,-0.107722,-0.000001, 0.000001, 0.000002,1,0
1777415754656260805,593791000000,   593.796, 0.000052,-0.000104,-0.009978,-0.000007, 0.000041, 0.000188,-0.539443,-0.084072, 0.011059,1,-0.000851, 0.004354, 0.018458,1, 0.004477,-0.010360,-0.997100,-0.000851, 0.004355, 0.018460, 0.124040, 0.243692,-0.107219,-0.000001, 0.000001, 0.000002,1,0
1777415754666364523,593791000000,   593.796, 0.000052,-0.000104,-0.009978,-0.000007, 0.000041, 0.000188,-0.539443,-0.084072, 0.011059,1,-0.000851, 0.004354, 0.018458,1, 0.004477,-0.010360,-0.997100,-0.000851, 0.004355, 0.018460, 0.124040, 0.243692,-0.107219,-0.000001, 0.000001, 0.000002,1,0
1777415754676013396,593811000000,   593.816, 0.000097,-0.000016,-0.009938,-0.000008, 0.000035, 0.000206,-0.504647,-0.012199, 0.027700,1,-0.000347, 0.003593, 0.019391,1, 0.008098,-0.003046,-0.995399,-0.000348, 0.003594, 0.019393, 0.123841, 0.243932,-0.107504,-0.000001, 0.000001, 0.000002,1,0
1777415754686098447,593811000000,   593.816, 0.000097,-0.000016,-0.009938,-0.000008, 0.000035, 0.000206,-0.504647,-0.012199, 0.027700,1,-0.000347, 0.003593, 0.019391,1, 0.008098,-0.003046,-0.995399,-0.000348, 0.003594, 0.019393, 0.123841, 0.243932,-0.107504,-0.000001, 0.000001, 0.000002,1,0
1777415754701687627,593831000000,   593.836, 0.000097,-0.000151,-0.009946,-0.000016, 0.000021, 0.000202,-0.483064,-0.078570, 0.015319,1,-0.000961, 0.002727, 0.020348,1, 0.010359,-0.009831,-0.996657,-0.000961, 0.002728, 0.020350, 0.123963, 0.243827,-0.107965,-0.000001, 0.000001, 0.000002,1,0
1777415754711325315,593851000000,   593.851, 0.000052,-0.000138,-0.010012,-0.000025, 0.000041, 0.000181,-0.507202,-0.103371, 0.003657,1,-0.001676, 0.003295, 0.019048,1, 0.007718,-0.012367,-0.997857,-0.001677, 0.003296, 0.019049, 0.123788, 0.242905,-0.108758,-0.000001, 0.000001, 0.000002,1,0
1777415754721410867,593851000000,   593.851, 0.000052,-0.000138,-0.010012,-0.000025, 0.000041, 0.000181,-0.507202,-0.103371, 0.003657,1,-0.001676, 0.003295, 0.019048,1, 0.007718,-0.012367,-0.997857,-0.001677, 0.003296, 0.019049, 0.123788, 0.242905,-0.108758,-0.000001, 0.000001, 0.000002,1,0
1777415754731092221,593871000000,   593.871,-0.000013,-0.000142,-0.010022,-0.000027, 0.000040, 0.000174,-0.561895,-0.122630, 0.006316,1,-0.002271, 0.003880, 0.017988,1, 0.001955,-0.014325,-0.997597,-0.002272, 0.003881, 0.017990, 0.123847, 0.243050,-0.108085,-0.000001, 0.000001, 0.000002,1,0
1777415754741177124,593871000000,   593.871,-0.000013,-0.000142,-0.010022,-0.000027, 0.000040, 0.000174,-0.561895,-0.122630, 0.006316,1,-0.002271, 0.003880, 0.017988,1, 0.001955,-0.014325,-0.997597,-0.002272, 0.003881, 0.017990, 0.123847, 0.243050,-0.108085,-0.000001, 0.000001, 0.000002,1,0
1777415754760582906,593891000000,   593.891,-0.000048,-0.000016,-0.009989,-0.000021, 0.000021, 0.000176,-0.587437,-0.093452, 0.033284,1,-0.002092, 0.003939, 0.017655,1,-0.002584,-0.006791,-0.996686,-0.002091, 0.003039, 0.017660, 0.123334, 0.243504,-0.107684,-0.000001, 0.000001, 0.000002,1,0
1777415754770246057,593911000000,   593.911,-0.000021,-0.000045,-0.009956,-0.000002, 0.000047, 0.000192,-0.610754,-0.019160, 0.022451,1,-0.001191, 0.003308, 0.018033,1,-0.002600,-0.004200,-0.995906,-0.000805, 0.003978, 0.018574, 0.123370, 0.243034,-0.107948,-0.000001, 0.000001, 0.000002,1,0
1777415754780331385,593911000000,   593.911,-0.000021,-0.000045,-0.009956,-0.000002, 0.000047, 0.000192,-0.610754,-0.019160, 0.022451,1,-0.001191, 0.003308, 0.018033,1,-0.002600,-0.004200,-0.995906,-0.000805, 0.003978, 0.018574, 0.123370, 0.243034,-0.107948,-0.000001, 0.000001, 0.000002,1,0
1777415754800040125,593931000000,   593.931, 0.000015,-0.000126,-0.009928,-0.000021, 0.000021, 0.000190,-0.593523,-0.046392, 0.017726,1,-0.000486, 0.004070, 0.018986,1, 0.000041,-0.009311,-0.995272,-0.001305, 0.003185, 0.018995, 0.123665, 0.243078,-0.108539,-0.000001, 0.000001, 0.000002,1,0
1777415754819849789,593951000000,   593.951, 0.000042,-0.000257,-0.009911,-0.000027, 0.000029, 0.000163,-0.558067,-0.121277, 0.020882,1,-0.001289, 0.002401, 0.019015,1, 0.003356,-0.019370,-0.995130,-0.001816, 0.002811, 0.017689, 0.123265, 0.243385,-0.107968,-0.000001, 0.000001, 0.000002,1,0
1777415754829482588,593971000000,   593.971, 0.000088,-0.000090,-0.009918,-0.000022, 0.000053, 0.000143,-0.522123,-0.147420, 0.017599,1,-0.001999, 0.002769, 0.016312,1, 0.007551,-0.013238,-0.996310,-0.002103, 0.003962, 0.015427, 0.123856, 0.243493,-0.107541,-0.000001, 0.000001, 0.000002,1,0
1777415754839566788,593971000000,   593.971, 0.000088,-0.000090,-0.009918,-0.000022, 0.000053, 0.000143,-0.522123,-0.147420, 0.017599,1,-0.001999, 0.002769, 0.016312,1, 0.007551,-0.013238,-0.996310,-0.002103, 0.003962, 0.015427, 0.123856, 0.243493,-0.107541,-0.000001, 0.000001, 0.000002,1,0
1777415754849249698,593991000000,   593.991, 0.000124,-0.000030,-0.010029,-0.000025, 0.000040, 0.000150,-0.493293,-0.078996, 0.040307,1,-0.002139, 0.003873, 0.015056,1, 0.010634,-0.006599,-0.998839,-0.002284, 0.003888, 0.015048, 0.123736, 0.243512,-0.107672,-0.000001, 0.000001, 0.000002,1,0
1777415754859367193,593991000000,   593.991, 0.000124,-0.000030,-0.010029,-0.000025, 0.000040, 0.000150,-0.493293,-0.078996, 0.040307,1,-0.002139, 0.003873, 0.015056,1, 0.010634,-0.006599,-0.998839,-0.002284, 0.003888, 0.015048, 0.123736, 0.243512,-0.107672,-0.000001, 0.000001, 0.000002,1,0
1777415754878976601,594011000000,   594.011, 0.000134,-0.000033,-0.010004,-0.000042, 0.000024, 0.000169,-0.466519,-0.024526, 0.038531,1,-0.002867, 0.003752, 0.015797,1, 0.012518,-0.003925,-0.997167,-0.003468, 0.003133, 0.016347, 0.123642, 0.243913,-0.107551,-0.000001, 0.000001, 0.000002,1,0
1777415754888663751,594031000000,   594.031, 0.000090,-0.000080,-0.009995,-0.000012, 0.000046, 0.000178,-0.463850,-0.037062, 0.037815,1,-0.003041, 0.003074, 0.017011,1, 0.010783,-0.006627,-0.996957,-0.002230, 0.003789, 0.017344, 0.123956, 0.244074,-0.107128,-0.000001, 0.000001, 0.000002,1,0
1777415754898748098,594031000000,   594.031, 0.000090,-0.000080,-0.009995,-0.000012, 0.000046, 0.000178,-0.463850,-0.037062, 0.037815,1,-0.003041, 0.003074, 0.017011,1, 0.010783,-0.006627,-0.996957,-0.002230, 0.003789, 0.017344, 0.123956, 0.244074,-0.107128,-0.000001, 0.000001, 0.000002,1,0
1777415754908414971,594041000000,   594.046, 0.000103,-0.000047,-0.009943,-0.000010, 0.000040, 0.000187,-0.481513,-0.042968, 0.025079,1,-0.001679, 0.003897, 0.018077,1, 0.010620,-0.006044,-0.995656,-0.001680, 0.003898, 0.018079, 0.123854, 0.243946,-0.108000,-0.000001, 0.000001, 0.000002,1,0
1777415754918508671,594041000000,   594.046, 0.000103,-0.000047,-0.009943,-0.000010, 0.000040, 0.000187,-0.481513,-0.042968, 0.025079,1,-0.001679, 0.003897, 0.018077,1, 0.010620,-0.006044,-0.995656,-0.001680, 0.003898, 0.018079, 0.123854, 0.243946,-0.108000,-0.000001, 0.000001, 0.000002,1,0
1777415754937915786,594061000000,   594.066, 0.000091,-0.000079,-0.009985,-0.000021, 0.000025, 0.000198,-0.492994,-0.049411, 0.014914,1,-0.001884, 0.002988, 0.019133,1, 0.009088,-0.006698,-0.996714,-0.001884, 0.002989, 0.019135, 0.123522, 0.243637,-0.108856,-0.000001, 0.000001, 0.000002,1,0
1777415754947483327,594081000000,   594.086, 0.000049,-0.000089,-0.009958,-0.000020, 0.000042, 0.000200,-0.520214,-0.062350, 0.021050,1,-0.001981, 0.003375, 0.019795,1, 0.006217,-0.008005,-0.996094,-0.001982, 0.003376, 0.019797, 0.124205, 0.243258,-0.108429,-0.000001, 0.000001, 0.000002,1,0
1777415754957568508,594081000000,   594.086, 0.000049,-0.000089,-0.009958,-0.000020, 0.000042, 0.000200,-0.520214,-0.062350, 0.021050,1,-0.001981, 0.003375, 0.019795,1, 0.006217,-0.008005,-0.996094,-0.001982, 0.003376, 0.019797, 0.124205, 0.243258,-0.108429,-0.000001, 0.000001, 0.000002,1,0
1777415754967181123,594101000000,   594.106, 0.000076,-0.000109,-0.009909,-0.000017, 0.000047, 0.000187,-0.514454,-0.080614, 0.033175,1,-0.001748, 0.004150, 0.019343,1, 0.006835,-0.009857,-0.994856,-0.001749, 0.004151, 0.019345, 0.123979, 0.243394,-0.107915,-0.000001, 0.000001, 0.000002,1,0
1777415754977267451,594101000000,   594.106, 0.000076,-0.000109,-0.009909,-0.000017, 0.000047, 0.000187,-0.514454,-0.080614, 0.033175,1,-0.001748, 0.004150, 0.019343,1, 0.006835,-0.009857,-0.994856,-0.001749, 0.004151, 0.019345, 0.123979, 0.243394,-0.107915,-0.000001, 0.000001, 0.000002,1,0
1777415754996996524,594121000000,   594.126, 0.000106,-0.000086,-0.009936,-0.000025, 0.000031, 0.000193,-0.489215,-0.074995, 0.024890,1,-0.002114, 0.003076, 0.019265,1, 0.009462,-0.009272,-0.995698,-0.002114, 0.003078, 0.019266, 0.123807, 0.243430,-0.108082,-0.000001, 0.000001, 0.000002,1,0
1777415755006671101,594141000000,   594.146, 0.000116,-0.000098,-0.009967,-0.000032, 0.000045, 0.000196,-0.475222,-0.076629, 0.018810,1,-0.002701, 0.003815, 0.019492,1, 0.010952,-0.009413,-0.996314,-0.002701, 0.003816, 0.019494, 0.123950, 0.244057,-0.107844,-0.000001, 0.000001, 0.000002,1,0
1777415755016756132,594141000000,   594.146, 0.000116,-0.000098,-0.009967,-0.000032, 0.000045, 0.000196,-0.475222,-0.076629, 0.018810,1,-0.002701, 0.003815, 0.019492,1, 0.010952,-0.009413,-0.996314,-0.002701, 0.003816, 0.019494, 0.123950, 0.244057,-0.107844,-0.000001, 0.000001, 0.000002,1,0
1777415755026432799,594161000000,   594.166, 0.000158,-0.000099,-0.009981,-0.000025, 0.000029, 0.000187,-0.447467,-0.081967, 0.014900,1,-0.002432, 0.003501, 0.019053,1, 0.013859,-0.009933,-0.996708,-0.002433, 0.003502, 0.019054, 0.123721, 0.243893,-0.108464,-0.000001, 0.000001, 0.000002,1,0
1777415755036517719,594161000000,   594.166, 0.000158,-0.000099,-0.009981,-0.000025, 0.000029, 0.000187,-0.447467,-0.081967, 0.014900,1,-0.002432, 0.003501, 0.019053,1, 0.013859,-0.009933,-0.996708,-0.002433, 0.003502, 0.019054, 0.123721, 0.243893,-0.108464,-0.000001, 0.000001, 0.000002,1,0
1777415755046129647,594181000000,   594.186, 0.000200,-0.000059,-0.009982,-0.000028, 0.000027, 0.000191,-0.409526,-0.058526, 0.013959,1,-0.002444, 0.003015, 0.018960,1, 0.017792,-0.007524,-0.996800,-0.002444, 0.003016, 0.018962, 0.123739, 0.243781,-0.108336,-0.000001, 0.000001, 0.000002,1,0
1777415755056214567,594181000000,   594.186, 0.000200,-0.000059,-0.009982,-0.000028, 0.000027, 0.000191,-0.409526,-0.058526, 0.013959,1,-0.002444, 0.003015, 0.018960,1, 0.017792,-0.007524,-0.996800,-0.002444, 0.003016, 0.018962, 0.123739, 0.243781,-0.108336,-0.000001, 0.000001, 0.000002,1,0
1777415755071881965,594201000000,   594.206, 0.000288,-0.000096,-0.009943,-0.000027, 0.000043, 0.000196,-0.343835,-0.066210, 0.024115,1,-0.003093, 0.003824, 0.019377,1, 0.024559,-0.008267,-0.995761,-0.003094, 0.003825, 0.019379, 0.124021, 0.243685,-0.108325,-0.000001, 0.000001, 0.000002,1,0
1777415755081495356,594221000000,   594.226, 0.000355,-0.000112,-0.009951,-0.000036, 0.000029, 0.000188,-0.274206,-0.085704, 0.022898,1,-0.003526, 0.003188, 0.019226,1, 0.031728,-0.010212,-0.995881,-0.003526, 0.003189, 0.019228, 0.124014, 0.243622,-0.107958,-0.000001, 0.000001, 0.000002,1,0
1777415755091580109,594221000000,   594.226, 0.000355,-0.000112,-0.009951,-0.000036, 0.000029, 0.000188,-0.274206,-0.085704, 0.022898,1,-0.003526, 0.003188, 0.019226,1, 0.031728,-0.010212,-0.995881,-0.003526, 0.003189, 0.019228, 0.124014, 0.243622,-0.107958,-0.000001, 0.000001, 0.000002,1,0
1777415755101192463,594241000000,   594.241, 0.000366,-0.000040,-0.009966,-0.000043, 0.000044, 0.000200,-0.240675,-0.044955, 0.013853,1,-0.004055, 0.003925, 0.019581,1, 0.035215,-0.006007,-0.996799,-0.004056, 0.003926, 0.019582, 0.124132, 0.243475,-0.108325,-0.000001, 0.000001, 0.000002,1,0
1777415755111276864,594241000000,   594.241, 0.000366,-0.000040,-0.009966,-0.000043, 0.000044, 0.000200,-0.240675,-0.044955, 0.013853,1,-0.004055, 0.003925, 0.019581,1, 0.035215,-0.006007,-0.996799,-0.004056, 0.003926, 0.019582, 0.124132, 0.243475,-0.108325,-0.000001, 0.000001, 0.000002,1,0
1777415755130682773,594261000000,   594.261, 0.000388,-0.000039,-0.009996,-0.000032, 0.000040, 0.000215,-0.229572,-0.032515, 0.010637,1,-0.003587, 0.003942, 0.020199,1, 0.037360,-0.004359,-0.998277,-0.003339, 0.003906, 0.020806, 0.123828, 0.243533,-0.107814,-0.000001, 0.000001, 0.000002,1,0
1777415755140377533,594281000000,   594.281, 0.000429,-0.000025,-0.009954,-0.000036, 0.000037, 0.000235,-0.197812,-0.021389, 0.024271,1,-0.003128, 0.004051, 0.021743,1, 0.040831,-0.003119,-0.995705,-0.003340, 0.003882, 0.022553, 0.124009, 0.243606,-0.107730,-0.000001, 0.000001, 0.000002,1,0
1777415755150461582,594281000000,   594.281, 0.000429,-0.000025,-0.009954,-0.000036, 0.000037, 0.000235,-0.197812,-0.021389, 0.024271,1,-0.003128, 0.004051, 0.021743,1, 0.040831,-0.003119,-0.995705,-0.003340, 0.003882, 0.022553, 0.124009, 0.243606,-0.107730,-0.000001, 0.000001, 0.000002,1,0
1777415755160083862,594301000000,   594.301, 0.000428,-0.000099,-0.009982,-0.000045, 0.000022, 0.000243,-0.171824,-0.030038, 0.024994,1,-0.003381, 0.003825, 0.023275,1, 0.042143,-0.006896,-0.997116,-0.004037, 0.003094, 0.023730, 0.124273, 0.242947,-0.107801,-0.000001, 0.000001, 0.000002,1,0
1777415755170186800,594301000000,   594.301, 0.000428,-0.000099,-0.009982,-0.000045, 0.000022, 0.000243,-0.171824,-0.030038, 0.024994,1,-0.003381, 0.003825, 0.023275,1, 0.042143,-0.006896,-0.997116,-0.004037, 0.003094, 0.023730, 0.124273, 0.242947,-0.107801,-0.000001, 0.000001, 0.000002,1,0
1777415755189897388,594321000000,   594.321, 0.000495,-0.000135,-0.009973,-0.000023, 0.000044, 0.000243,-0.162804,-0.065362, 0.025816,1,-0.003618, 0.003192, 0.024050,1, 0.045938,-0.010344,-0.997249,-0.003089, 0.003684, 0.024139, 0.124690, 0.242973,-0.108250,-0.000001, 0.000001, 0.000002,1,0
1777415755199574519,594341000000,   594.341, 0.000560,-0.000077,-0.009902,-0.000025, 0.000045, 0.000261,-0.094609,-0.043420, 0.053148,1,-0.003257, 0.002831, 0.024096,1, 0.052696,-0.006674,-0.993237,-0.003169, 0.003503, 0.024972, 0.124708, 0.243723,-0.107579,-0.000001, 0.000001, 0.000002,1,0
1777415755209658290,594341000000,   594.341, 0.000560,-0.000077,-0.009902,-0.000025, 0.000045, 0.000261,-0.094609,-0.043420, 0.053148,1,-0.003257, 0.002831, 0.024096,1, 0.052696,-0.006674,-0.993237,-0.003169, 0.003503, 0.024972, 0.124708, 0.243723,-0.107579,-0.000001, 0.000001, 0.000002,1,0
1777415755219331847,594361000000,   594.361, 0.000601,-0.000162,-0.010072,-0.000004, 0.000035, 0.000256,-0.041150,-0.025196, 0.077984,1,-0.001999, 0.003620, 0.025764,1, 0.057585,-0.009396,-0.999712,-0.001252, 0.003493, 0.025616, 0.123897, 0.243696,-0.107547,-0.000001, 0.000001, 0.000002,1,0
1777415755229415674,594361000000,   594.361, 0.000601,-0.000162,-0.010072,-0.000004, 0.000035, 0.000256,-0.041150,-0.025196, 0.077984,1,-0.001999, 0.003620, 0.025764,1, 0.057585,-0.009396,-0.999712,-0.001252, 0.003493, 0.025616, 0.123897, 0.243696,-0.107547,-0.000001, 0.000001, 0.000002,1,0
1777415755239090286,594381000000,   594.381, 0.000613,-0.000019,-0.009901,-0.000021, 0.000014, 0.000261,-0.000981,-0.027568, 0.068544,1,-0.001905, 0.001552, 0.025227,1, 0.059980,-0.003433,-0.990428,-0.002053, 0.001521, 0.025642, 0.124464, 0.243858,-0.106965,-0.000001, 0.000001, 0.000002,1,0
1777415755249175095,594381000000,   594.381, 0.000613,-0.000019,-0.009901,-0.000021, 0.000014, 0.000261,-0.000981,-0.027568, 0.068544,1,-0.001905, 0.001552, 0.025227,1, 0.059980,-0.003433,-0.990428,-0.002053, 0.001521, 0.025642, 0.124464, 0.243858,-0.106965,-0.000001, 0.000001, 0.000002,1,0
1777415755268907220,594401000000,   594.401, 0.000562,-0.000190,-0.010087, 0.000021, 0.000018, 0.000278, 0.014992,-0.043602, 0.009339,1,-0.001350, 0.002333, 0.026208,1, 0.058973,-0.012579,-1.003372, 0.000256, 0.002105, 0.026888, 0.124755, 0.243870,-0.107210,-0.000001, 0.000001, 0.000002,1,0
1777415755278533499,594411000000,   594.416, 0.000571,-0.000130,-0.009776, 0.000019,-0.000002, 0.000253,-0.013401,-0.110510, 0.080245,1, 0.001054, 0.001290, 0.026171,1, 0.058066,-0.012516,-0.990049, 0.001053, 0.001291, 0.026173, 0.124550, 0.244011,-0.107076,-0.000001, 0.000001, 0.000002,1,0
1777415755288633049,594411000000,   594.416, 0.000571,-0.000130,-0.009776, 0.000019,-0.000002, 0.000253,-0.013401,-0.110510, 0.080245,1, 0.001054, 0.001290, 0.026171,1, 0.058066,-0.012516,-0.990049, 0.001053, 0.001291, 0.026173, 0.124550, 0.244011,-0.107076,-0.000001, 0.000001, 0.000002,1,0
1777415755298290013,594431000000,   594.436, 0.000538,-0.000142,-0.009766,-0.000051,-0.000007, 0.000255,-0.029693,-0.135234, 0.065096,1,-0.002603, 0.000410, 0.025039,1, 0.056421,-0.015057,-0.991593,-0.002604, 0.000411, 0.025041, 0.124589, 0.243634,-0.107233,-0.000001, 0.000001, 0.000002,1,0
1777415755308375525,594431000000,   594.436, 0.000538,-0.000142,-0.009766,-0.000051,-0.000007, 0.000255,-0.029693,-0.135234, 0.065096,1,-0.002603, 0.000410, 0.025039,1, 0.056421,-0.015057,-0.991593,-0.002604, 0.000411, 0.025041, 0.124589, 0.243634,-0.107233,-0.000001, 0.000001, 0.000002,1,0
1777415755318044323,594451000000,   594.456, 0.000742,-0.000192,-0.009770,-0.000057, 0.000161, 0.000308, 0.043560,-0.102352, 0.134898,1,-0.005198, 0.009321, 0.027867,1, 0.063023,-0.011563,-0.984525,-0.005198, 0.009322, 0.027869, 0.124642, 0.243005,-0.108075,-0.000001, 0.000001, 0.000002,1,0
1777415755328128391,594451000000,   594.456, 0.000742,-0.000192,-0.009770,-0.000057, 0.000161, 0.000308, 0.043560,-0.102352, 0.134898,1,-0.005198, 0.009321, 0.027867,1, 0.063023,-0.011563,-0.984525,-0.005198, 0.009322, 0.027869, 0.124642, 0.243005,-0.108075,-0.000001, 0.000001, 0.000002,1,0
1777415755347916848,594471000000,   594.476, 0.000613, 0.000317,-0.011254,-0.000102,-0.000290, 0.000163, 0.066609,-0.045974,-0.365946,1,-0.003521,-0.009240, 0.021528,1, 0.064386,-0.005723,-1.035655,-0.003521,-0.009239, 0.021530, 0.124536, 0.242795,-0.107582,-0.000001, 0.000001, 0.000002,1,0
1777415755357474981,594491000000,   594.496, 0.000657, 0.000040,-0.010246, 0.000092, 0.000258, 0.000204, 0.019625, 0.045573, 0.099663,1, 0.001765, 0.009649, 0.020405,1, 0.059213, 0.003701,-0.988199, 0.001765, 0.009650, 0.020406, 0.125068, 0.243113,-0.107011,-0.000001, 0.000001, 0.000002,1,0
1777415755367560400,594491000000,   594.496, 0.000657, 0.000040,-0.010246, 0.000092, 0.000258, 0.000204, 0.019625, 0.045573, 0.099663,1, 0.001765, 0.009649, 0.020405,1, 0.059213, 0.003701,-0.988199, 0.001765, 0.009650, 0.020406, 0.125068, 0.243113,-0.107011,-0.000001, 0.000001, 0.000002,1,0
1777415755377225105,594491000000,   594.516, 0.000657, 0.000040,-0.010246, 0.000092, 0.000258, 0.000204,-0.008157, 0.093872, 0.498230,1,-0.006320,-0.004149, 0.017058,1, 0.059213, 0.003701,-0.988199, 0.001765, 0.009650, 0.020406, 0.125068, 0.243113,-0.107011,-0.000001, 0.000001, 0.000002,1,0
1777415755387309747,594491000000,   594.516, 0.000657, 0.000040,-0.010246, 0.000092, 0.000258, 0.000204,-0.008157, 0.093872, 0.498230,1,-0.006320,-0.004149, 0.017058,1, 0.059213, 0.003701,-0.988199, 0.001765, 0.009650, 0.020406, 0.125068, 0.243113,-0.107011,-0.000001, 0.000001, 0.000002,1,0
1777415755407046446,594531000000,   594.536, 0.000446,-0.000098,-0.009448, 0.000043, 0.000077, 0.000224,-0.060504,-0.149410, 0.225744,1,-0.004581, 0.004452, 0.018903,1, 0.051047,-0.015987,-0.975342,-0.004581, 0.004453, 0.018904, 0.125385, 0.242915,-0.107290,-0.000001, 0.000001, 0.000002,1,0
1777415755426785201,594551000000,   594.556, 0.000548,-0.000032,-0.009849,-0.000111,-0.000015, 0.000168,-0.030620,-0.082635, 0.023951,1,-0.007252, 0.005468, 0.018006,1, 0.054258,-0.009089,-0.995910,-0.007253, 0.005469, 0.018007, 0.125677, 0.242953,-0.107451,-0.000001, 0.000001, 0.000002,1,0
1777415755436481738,594571000000,   594.576, 0.000426, 0.000178,-0.009974,-0.000258, 0.000197, 0.000232,-0.113001, 0.117653,-0.078202,1,-0.020142, 0.006238, 0.020666,1, 0.045865, 0.011625,-1.006326,-0.020143, 0.006239, 0.020668, 0.125786, 0.243040,-0.107465,-0.000001, 0.000001, 0.000002,1,0
1777415755446565640,594571000000,   594.576, 0.000426, 0.000178,-0.009974,-0.000258, 0.000197, 0.000232,-0.113001, 0.117653,-0.078202,1,-0.020142, 0.006238, 0.020666,1, 0.045865, 0.011625,-1.006326,-0.020143, 0.006239, 0.020668, 0.125786, 0.243040,-0.107465,-0.000001, 0.000001, 0.000002,1,0
1777415755456185493,594591000000,   594.596, 0.000613,-0.000313,-0.010278,-0.000161,-0.000058, 0.000198,-0.023168,-0.228198, 0.034507,1,-0.015744, 0.002678, 0.023287,1, 0.055240,-0.023412,-0.994821,-0.015745, 0.002679, 0.023289, 0.126023, 0.243066,-0.106513,-0.000001, 0.000001, 0.000002,1,0
1777415755466289320,594591000000,   594.596, 0.000613,-0.000313,-0.010278,-0.000161,-0.000058, 0.000198,-0.023168,-0.228198, 0.034507,1,-0.015744, 0.002678, 0.023287,1, 0.055240,-0.023412,-0.994821,-0.015745, 0.002679, 0.023289, 0.126023, 0.243066,-0.106513,-0.000001, 0.000001, 0.000002,1,0
1777415755481936904,594611000000,   594.616, 0.000253, 0.000619,-0.010445,-0.000218,-0.000095, 0.000289,-0.239139, 0.248805,-0.114253,1,-0.021777,-0.007979, 0.025798,1, 0.033070, 0.025571,-1.009999,-0.021778,-0.007978, 0.025800, 0.125903, 0.243567,-0.106231,-0.000001, 0.000001, 0.000002,1,0
1777415755491495203,594631000000,   594.636, 0.000349,-0.000265,-0.010879,-0.000080, 0.000287, 0.000390,-0.266516, 0.002821,-0.411251,1,-0.015697, 0.019976, 0.034680,1, 0.030550, 0.000843,-1.040268,-0.015698, 0.019977, 0.034682, 0.126001, 0.243802,-0.105559,-0.000001, 0.000001, 0.000002,1,0
1777415755501579049,594631000000,   594.636, 0.000349,-0.000265,-0.010879,-0.000080, 0.000287, 0.000390,-0.266516, 0.002821,-0.411251,1,-0.015697, 0.019976, 0.034680,1, 0.030550, 0.000843,-1.040268,-0.015698, 0.019977, 0.034682, 0.126001, 0.243802,-0.105559,-0.000001, 0.000001, 0.000002,1,0
1777415755511246087,594651000000,   594.651, 0.000455, 0.000236,-0.011450,-0.000215,-0.000133, 0.000238,-0.183676, 0.043247,-0.192164,1,-0.014886,-0.001500, 0.028288,1, 0.038604, 0.005075,-1.017950,-0.014887,-0.001499, 0.028290, 0.126393, 0.243665,-0.106357,-0.000001, 0.000001, 0.000002,1,0
1777415755521344433,594651000000,   594.651, 0.000455, 0.000236,-0.011450,-0.000215,-0.000133, 0.000238,-0.183676, 0.043247,-0.192164,1,-0.014886,-0.001500, 0.028288,1, 0.038604, 0.005075,-1.017950,-0.014887,-0.001499, 0.028290, 0.126393, 0.243665,-0.106357,-0.000001, 0.000001, 0.000002,1,0
1777415755531007267,594671000000,   594.671, 0.000213, 0.000780,-0.010659,-0.000399, 0.000141, 0.000397,-0.287356, 0.309661,-0.105711,1,-0.024689, 0.007086, 0.037428,1, 0.027369, 0.032458,-1.009172,-0.024690, 0.007087, 0.037429, 0.126845, 0.243157,-0.106485,-0.000001, 0.000001, 0.000002,1,0
1777415755541090724,594671000000,   594.671, 0.000213, 0.000780,-0.010659,-0.000399, 0.000141, 0.000397,-0.287356, 0.309661,-0.105711,1,-0.024689, 0.007086, 0.037428,1, 0.027369, 0.032458,-1.009172,-0.024690, 0.007087, 0.037429, 0.126845, 0.243157,-0.106485,-0.000001, 0.000001, 0.000002,1,0
1777415755560441671,594691000000,   594.691,-0.000006,-0.000619,-0.008689,-0.000155, 0.000169, 0.000548,-0.189696, 0.138910,-0.466480,1,-0.026182, 0.008293, 0.047396,1, 0.021294,-0.024371,-0.967709,-0.021042, 0.013690, 0.050705, 0.126502, 0.242955,-0.106658,-0.000001, 0.000001, 0.000002,1,0
1777415755570129579,594711000000,   594.711, 0.000067, 0.000606,-0.009965,-0.000289,-0.000148, 0.000449,-0.228161,-0.182062,-0.171379,1,-0.020608, 0.008666, 0.046855,1, 0.021993, 0.018226,-1.001001,-0.023251,-0.001650, 0.046247, 0.127018, 0.243308,-0.105061,-0.000001, 0.000001, 0.000002,1,0
1777415755580213480,594711000000,   594.711, 0.000067, 0.000606,-0.009965,-0.000289,-0.000148, 0.000449,-0.228161,-0.182062,-0.171379,1,-0.020608, 0.008666, 0.046855,1, 0.021993, 0.018226,-1.001001,-0.023251,-0.001650, 0.046247, 0.127018, 0.243308,-0.105061,-0.000001, 0.000001, 0.000002,1,0
1777415755599956623,594731000000,   594.731, 0.000183, 0.000085,-0.011171,-0.000097, 0.000144, 0.000557,-0.296174, 0.170478, 0.248834,1,-0.027832, 0.005439, 0.046619,1, 0.022070, 0.010318,-1.031202,-0.020154, 0.008814, 0.050922, 0.127154, 0.243401,-0.105372,-0.000001, 0.000001, 0.000002,1,0
1777415755609632384,594751000000,   594.751, 0.000162,-0.000005,-0.009635,-0.000095, 0.000042, 0.000501,-0.291096,-0.035768, 0.052742,1,-0.016066, 0.009241, 0.048092,1, 0.023531,-0.004401,-0.987463,-0.012919, 0.007660, 0.049305, 0.127409, 0.243282,-0.104426,-0.000001, 0.000001, 0.000002,1,0
1777415755619717303,594751000000,   594.751, 0.000162,-0.000005,-0.009635,-0.000095, 0.000042, 0.000501,-0.291096,-0.035768, 0.052742,1,-0.016066, 0.009241, 0.048092,1, 0.023531,-0.004401,-0.987463,-0.012919, 0.007660, 0.049305, 0.127409, 0.243282,-0.104426,-0.000001, 0.000001, 0.000002,1,0
1777415755629382453,594771000000,   594.771, 0.000089,-0.000010,-0.010510,-0.000139, 0.000088, 0.000578,-0.350135, 0.185970,-0.017268,1,-0.016103,-0.001922, 0.049177,1, 0.016645, 0.011947,-1.027605,-0.015507, 0.001817, 0.052961, 0.128193, 0.243291,-0.104980,-0.000001, 0.000001, 0.000002,1,0
1777415755639467743,594771000000,   594.771, 0.000089,-0.000010,-0.010510,-0.000139, 0.000088, 0.000578,-0.350135, 0.185970,-0.017268,1,-0.016103,-0.001922, 0.049177,1, 0.016645, 0.011947,-1.027605,-0.015507, 0.001817, 0.052961, 0.128193, 0.243291,-0.104980,-0.000001, 0.000001, 0.000002,1,0
1777415755649087300,594791000000,   594.791, 0.000250,-0.000280,-0.012127,-0.000105, 0.000133, 0.000671,-0.356025, 0.215525, 0.669857,1,-0.015526, 0.009943, 0.057580,1, 0.023230, 0.002863,-1.060336,-0.012650, 0.009893, 0.061645, 0.127985, 0.243792,-0.105333,-0.000001, 0.000001, 0.000002,1,0
1777415755659175776,594791000000,   594.791, 0.000250,-0.000280,-0.012127,-0.000105, 0.000133, 0.000671,-0.356025, 0.215525, 0.669857,1,-0.015526, 0.009943, 0.057580,1, 0.023230, 0.002863,-1.060336,-0.012650, 0.009893, 0.061645, 0.127985, 0.243792,-0.105333,-0.000001, 0.000001, 0.000002,1,0
1777415755678964326,594811000000,   594.811, 0.000236,-0.000054,-0.010850,-0.000018,-0.000085, 0.000491,-0.380574,-0.178764, 0.754118,1,-0.002985, 0.003777, 0.062193,1, 0.021551,-0.009013,-0.991634,-0.001344,-0.001806, 0.056223, 0.128760, 0.243684,-0.105104,-0.000001, 0.000001, 0.000002,1,0
1777415755688589253,594831000000,   594.831,-0.000016,-0.000152,-0.008793, 0.000041, 0.000098, 0.000542,-0.440758, 0.045803,-0.392978,1,-0.002845,-0.005475, 0.053713,1, 0.006474,-0.003157,-0.962133,-0.000343, 0.002666, 0.053773, 0.129016, 0.243379,-0.104159,-0.000001, 0.000001, 0.000002,1,0
1777415755698674136,594831000000,   594.831,-0.000016,-0.000152,-0.008793, 0.000041, 0.000098, 0.000542,-0.440758, 0.045803,-0.392978,1,-0.002845,-0.005475, 0.053713,1, 0.006474,-0.003157,-0.962133,-0.000343, 0.002666, 0.053773, 0.129016, 0.243379,-0.104159,-0.000001, 0.000001, 0.000002,1,0
1777415755708338471,594841000000,   594.846, 0.000166, 0.000197,-0.011251,-0.000148, 0.000205, 0.000530,-0.440766, 0.027196,-0.500401,1,-0.006613, 0.010438, 0.053731,1, 0.012363, 0.005664,-1.049379,-0.006613, 0.010439, 0.053733, 0.128940, 0.243010,-0.104471,-0.000001, 0.000001, 0.000002,1,0
1777415755718423779,594841000000,   594.846, 0.000166, 0.000197,-0.011251,-0.000148, 0.000205, 0.000530,-0.440766, 0.027196,-0.500401,1,-0.006613, 0.010438, 0.053731,1, 0.012363, 0.005664,-1.049379,-0.006613, 0.010439, 0.053733, 0.128940, 0.243010,-0.104471,-0.000001, 0.000001, 0.000002,1,0
1777415755728097725,594861000000,   594.866, 0.000451,-0.000460,-0.008592, 0.000065, 0.000191, 0.000566,-0.308642,-0.302769, 0.665359,1, 0.000667, 0.009421, 0.056861,1, 0.025618,-0.028236,-0.930518, 0.000667, 0.009422, 0.056863, 0.129307, 0.242854,-0.104169,-0.000001, 0.000001, 0.000002,1,0
1777415755738182515,594861000000,   594.866, 0.000451,-0.000460,-0.008592, 0.000065, 0.000191, 0.000566,-0.308642,-0.302769, 0.665359,1, 0.000667, 0.009421, 0.056861,1, 0.025618,-0.028236,-0.930518, 0.000667, 0.009422, 0.056863, 0.129307, 0.242854,-0.104169,-0.000001, 0.000001, 0.000002,1,0
1777415755757832901,594881000000,   594.886,-0.000112, 0.000221,-0.008872, 0.000018,-0.000237, 0.000626,-0.502670,-0.087871, 0.367037,1,-0.004403,-0.011465, 0.058521,1, 0.005621,-0.006234,-0.960950,-0.004404,-0.011464, 0.058522, 0.129790, 0.242807,-0.104053,-0.000001, 0.000001, 0.000002,1,0
1777415755767519698,594901000000,   594.906, 0.000310, 0.000535,-0.009713,-0.000191, 0.000144, 0.000622,-0.372295, 0.243324, 0.139589,1,-0.018974, 0.011653, 0.058446,1, 0.019012, 0.027731,-0.984137,-0.018975, 0.011654, 0.058448, 0.129777, 0.242981,-0.104360,-0.000001, 0.000001, 0.000002,1,0
1777415755777636358,594901000000,   594.906, 0.000310, 0.000535,-0.009713,-0.000191, 0.000144, 0.000622,-0.372295, 0.243324, 0.139589,1,-0.018974, 0.011653, 0.058446,1, 0.019012, 0.027731,-0.984137,-0.018975, 0.011654, 0.058448, 0.129777, 0.242981,-0.104360,-0.000001, 0.000001, 0.000002,1,0
1777415755787298433,594921000000,   594.926, 0.000280,-0.000460,-0.008861,-0.000127,-0.000040, 0.000627,-0.392591,-0.190412, 0.406780,1,-0.016792, 0.005003, 0.061784,1, 0.017155,-0.016252,-0.956878,-0.016793, 0.005004, 0.061786, 0.129878, 0.242891,-0.104213,-0.000001, 0.000001, 0.000002,1,0
1777415755797384649,594921000000,   594.926, 0.000280,-0.000460,-0.008861,-0.000127,-0.000040, 0.000627,-0.392591,-0.190412, 0.406780,1,-0.016792, 0.005003, 0.061784,1, 0.017155,-0.016252,-0.956878,-0.016793, 0.005004, 0.061786, 0.129878, 0.242891,-0.104213,-0.000001, 0.000001, 0.000002,1,0
1777415755807041632,594941000000,   594.946, 0.000016, 0.000450,-0.008348,-0.000259, 0.000197, 0.000605,-0.453030, 0.191991, 0.428070,1,-0.024217, 0.004153, 0.059324,1, 0.010913, 0.023079,-0.954711,-0.024217, 0.004154, 0.059325, 0.130557, 0.242834,-0.103906,-0.000001, 0.000001, 0.000002,1,0
1777415755817126533,594941000000,   594.946, 0.000016, 0.000450,-0.008348,-0.000259, 0.000197, 0.000605,-0.453030, 0.191991, 0.428070,1,-0.024217, 0.004153, 0.059324,1, 0.010913, 0.023079,-0.954711,-0.024217, 0.004154, 0.059325, 0.130557, 0.242834,-0.103906,-0.000001, 0.000001, 0.000002,1,0
1777415755836839288,594961000000,   594.966, 0.000162,-0.000119,-0.009035,-0.000198, 0.000198, 0.000720,-0.409348, 0.023467, 0.158743,1,-0.019316, 0.009643, 0.068356,1, 0.015497, 0.006245,-0.982166,-0.019317, 0.009644, 0.068358, 0.131064, 0.243072,-0.103438,-0.000001, 0.000001, 0.000002,1,0
1777415755846611028,594981000000,   594.986, 0.000161,-0.000523,-0.010393,-0.000101,-0.000191, 0.000618,-0.415202,-0.238113,-0.050244,1,-0.012283,-0.004018, 0.064690,1, 0.015045,-0.020255,-1.003467,-0.012283,-0.004017, 0.064692, 0.131170, 0.243039,-0.102403,-0.000001, 0.000001, 0.000002,1,0
1777415755856714207,594981000000,   594.986, 0.000161,-0.000523,-0.010393,-0.000101,-0.000191, 0.000618,-0.415202,-0.238113,-0.050244,1,-0.012283,-0.004018, 0.064690,1, 0.015045,-0.020255,-1.003467,-0.012283,-0.004017, 0.064692, 0.131170, 0.243039,-0.102403,-0.000001, 0.000001, 0.000002,1,0
1777415755866251414,595001000000,   595.006, 0.000315, 0.000201,-0.011368,-0.000094,-0.000048, 0.000566,-0.381754, 0.119354,-0.305131,1,-0.009542,-0.003850, 0.059045,1, 0.018360, 0.016345,-1.029464,-0.009542,-0.003849, 0.059046, 0.131638, 0.243302,-0.102569,-0.000001, 0.000001, 0.000002,1,0
1777415755876337223,595001000000,   595.006, 0.000315, 0.000201,-0.011368,-0.000094,-0.000048, 0.000566,-0.381754, 0.119354,-0.305131,1,-0.009542,-0.003850, 0.059045,1, 0.018360, 0.016345,-1.029464,-0.009542,-0.003849, 0.059046, 0.131638, 0.243302,-0.102569,-0.000001, 0.000001, 0.000002,1,0
1777415755891844198,595021000000,   595.026, 0.000433,-0.000711,-0.009124, 0.000421, 0.000178, 0.000559,-0.338589,-0.436232, 0.475390,1, 0.024174, 0.014938, 0.058569,1, 0.022953,-0.040510,-0.949862, 0.024173, 0.014939, 0.058571, 0.131567, 0.243681,-0.102604,-0.000001, 0.000001, 0.000002,1,0
1777415755901553217,595041000000,   595.046, 0.000278, 0.000064,-0.007739, 0.000091,-0.000152, 0.000542,-0.259770,-0.048905, 0.803348,1, 0.012324,-0.003282, 0.052985,1, 0.031039,-0.001274,-0.916418, 0.012323,-0.003281, 0.052987, 0.132197, 0.243382,-0.103561,-0.000001, 0.000001, 0.000002,1,0
1777415755911637340,595041000000,   595.046, 0.000278, 0.000064,-0.007739, 0.000091,-0.000152, 0.000542,-0.259770,-0.048905, 0.803348,1, 0.012324,-0.003282, 0.052985,1, 0.031039,-0.001274,-0.916418, 0.012323,-0.003281, 0.052987, 0.132197, 0.243382,-0.103561,-0.000001, 0.000001, 0.000002,1,0
1777415755930612552,595061000000,   595.061, 0.000207, 0.000852,-0.010199,-0.000087,-0.000047, 0.000637,-0.293490,-0.105005,-0.340547,1, 0.005151,-0.008341, 0.055681,1, 0.025270, 0.031507,-1.017381,-0.000961,-0.006341, 0.060038, 0.132416, 0.243150,-0.103387,-0.000001, 0.000001, 0.000002,1,0
1777415755940303534,595081000000,   595.081, 0.000804,-0.000104,-0.009867, 0.000683, 0.000214, 0.000660,-0.277775,-0.040364, 0.453066,1, 0.004811, 0.007560, 0.061950,1, 0.052515,-0.014857,-0.959928, 0.038472, 0.014557, 0.064989, 0.133089, 0.243158,-0.102584,-0.000001, 0.000001, 0.000002,1,0
1777415755950449231,595081000000,   595.081, 0.000804,-0.000104,-0.009867, 0.000683, 0.000214, 0.000660,-0.277775,-0.040364, 0.453066,1, 0.004811, 0.007560, 0.061950,1, 0.052515,-0.014857,-0.959928, 0.038472, 0.014557, 0.064989, 0.133089, 0.243158,-0.102584,-0.000001, 0.000001, 0.000002,1,0
1777415755960009715,595101000000,   595.101, 0.000103, 0.000374,-0.007538,-0.000106,-0.000514, 0.000279,-0.207417,-1.000514,-0.814625,1, 0.036729,-0.010965, 0.053725,1, 0.021110,-0.045997,-0.934194, 0.018773,-0.026863, 0.043221, 0.132748, 0.242933,-0.101565,-0.000001, 0.000001, 0.000002,1,0
1777415755970095765,595101000000,   595.101, 0.000103, 0.000374,-0.007538,-0.000106,-0.000514, 0.000279,-0.207417,-1.000514,-0.814625,1, 0.036729,-0.010965, 0.053725,1, 0.021110,-0.045997,-0.934194, 0.018773,-0.026863, 0.043221, 0.132748, 0.242933,-0.101565,-0.000001, 0.000001, 0.000002,1,0
1777415755989821112,595121000000,   595.121, 0.000236,-0.000151,-0.010422, 0.000116, 0.000667, 0.000532,-0.205913, 0.191513,-0.387415,1, 0.015601,-0.014625, 0.034745,1, 0.034899, 0.001664,-1.061547, 0.012162, 0.021510, 0.042963, 0.132974, 0.243023,-0.102342,-0.000001, 0.000001, 0.000002,1,0
1777415755999507668,595141000000,   595.141, 0.000805, 0.000049,-0.011256,-0.000152,-0.000127, 0.000285,-0.278098,-0.421188, 0.590639,1, 0.012617, 0.015038, 0.047695,1, 0.055405,-0.015199,-1.024604, 0.001561,-0.000394, 0.039198, 0.133535, 0.242933,-0.102715,-0.000001, 0.000001, 0.000002,1,0
1777415756009593328,595141000000,   595.141, 0.000805, 0.000049,-0.011256,-0.000152,-0.000127, 0.000285,-0.278098,-0.421188, 0.590639,1, 0.012617, 0.015038, 0.047695,1, 0.055405,-0.015199,-1.024604, 0.001561,-0.000394, 0.039198, 0.133535, 0.242933,-0.102715,-0.000001, 0.000001, 0.000002,1,0
1777415756019257939,595161000000,   595.161, 0.000498, 0.000805,-0.015294, 0.000004,-0.000606, 0.000059,-0.202423,-1.200386, 1.023725,1, 0.018109,-0.002775, 0.039546,1, 0.045676,-0.031405,-1.150548, 0.012245,-0.029259, 0.025875, 0.134011, 0.243352,-0.103014,-0.000001, 0.000001, 0.000002,1,0
1777415756029357116,595161000000,   595.161, 0.000498, 0.000805,-0.015294, 0.000004,-0.000606, 0.000059,-0.202423,-1.200386, 1.023725,1, 0.018109,-0.002775, 0.039546,1, 0.045676,-0.031405,-1.150548, 0.012245,-0.029259, 0.025875, 0.134011, 0.243352,-0.103014,-0.000001, 0.000001, 0.000002,1,0
1777415756049010406,595181000000,   595.181, 0.000090, 0.001515,-0.012380,-0.000286, 0.000318, 0.000362,-0.440460,-0.183202, 0.422284,1,-0.010751,-0.012219, 0.024342,1, 0.007596, 0.047704,-1.077694,-0.013451, 0.011961, 0.032386, 0.133270, 0.242994,-0.102631,-0.000001, 0.000001, 0.000002,1,0
1777415756068750990,595201000000,   595.201, 0.000529,-0.001716,-0.008066, 0.000004, 0.000300, 0.000343,-0.190453,-0.124164,-0.066737,1,-0.004805, 0.037555, 0.043767,1, 0.051791,-0.086928,-0.915173,-0.000931, 0.035805, 0.038824, 0.133516, 0.242949,-0.101620,-0.000001, 0.000001, 0.000002,1,0
1777415756078438897,595211000000,   595.216, 0.000789,-0.001363,-0.009524, 0.000302,-0.000342, 0.000092, 0.033491,-1.137705, 0.512322,1, 0.015483, 0.003992, 0.025569,1, 0.060897,-0.114098,-0.946102, 0.015482, 0.003993, 0.025571, 0.133763, 0.243095,-0.101396,-0.000001, 0.000001, 0.000002,1,0
1777415756088523908,595211000000,   595.216, 0.000789,-0.001363,-0.009524, 0.000302,-0.000342, 0.000092, 0.033491,-1.137705, 0.512322,1, 0.015483, 0.003992, 0.025569,1, 0.060897,-0.114098,-0.946102, 0.015482, 0.003993, 0.025571, 0.133763, 0.243095,-0.101396,-0.000001, 0.000001, 0.000002,1,0
1777415756098201518,595231000000,   595.236, 0.000206, 0.001294,-0.009087, 0.000039, 0.000058, 0.000015,-0.161897, 0.331834, 0.090217,1, 0.007501,-0.015888, 0.005180,1, 0.040445, 0.035652,-0.989175, 0.007500,-0.015887, 0.005182, 0.133654, 0.242775,-0.101475,-0.000001, 0.000001, 0.000002,1,0
1777415756108285585,595231000000,   595.236, 0.000206, 0.001294,-0.009087, 0.000039, 0.000058, 0.000015,-0.161897, 0.331834, 0.090217,1, 0.007501,-0.015888, 0.005180,1, 0.040445, 0.035652,-0.989175, 0.007500,-0.015887, 0.005182, 0.133654, 0.242775,-0.101475,-0.000001, 0.000001, 0.000002,1,0
1777415756128023225,595251000000,   595.256, 0.001057,-0.000256,-0.010532, 0.000060, 0.000391, 0.000226, 0.085989,-0.080510,-0.085365,1, 0.004373, 0.026631, 0.017898,1, 0.065786,-0.006593,-1.007077, 0.004373, 0.026632, 0.017900, 0.133910, 0.242391,-0.102290,-0.000001, 0.000001, 0.000002,1,0
1777415756147710403,595271000000,   595.276, 0.000229,-0.001134,-0.009408, 0.000312,-0.000505,-0.000127,-0.156856,-0.751100, 0.221964,1, 0.019270,-0.020148, 0.000249,1, 0.040563,-0.075313,-0.975764, 0.019269,-0.020147, 0.000251, 0.134192, 0.242512,-0.102774,-0.000001, 0.000001, 0.000002,1,0
1777415756157398143,595291000000,   595.296, 0.000498, 0.002564,-0.010737, 0.000009,-0.000181,-0.000233,-0.126354, 0.681535,-0.144770,1, 0.014248,-0.021532,-0.011138,1, 0.043109, 0.070471,-1.013193, 0.014248,-0.021531,-0.011137, 0.134451, 0.242617,-0.102172,-0.000001, 0.000001, 0.000002,1,0
1777415756167482561,595291000000,   595.296, 0.000498, 0.002564,-0.010737, 0.000009,-0.000181,-0.000233,-0.126354, 0.681535,-0.144770,1, 0.014248,-0.021532,-0.011138,1, 0.043109, 0.070471,-1.013193, 0.014248,-0.021531,-0.011137, 0.134451, 0.242617,-0.102172,-0.000001, 0.000001, 0.000002,1,0
1777415756177154857,595311000000,   595.316, 0.000089,-0.000184,-0.010806,-0.000196,-0.000396,-0.000043,-0.219198,-0.130040, 0.201079,1,-0.007531,-0.015251,-0.004385,1, 0.033705,-0.012595,-0.977923,-0.007532,-0.015250,-0.004383, 0.134294, 0.242510,-0.102115,-0.000001, 0.000001, 0.000002,1,0
1777415756187238386,595311000000,   595.316, 0.000089,-0.000184,-0.010806,-0.000196,-0.000396,-0.000043,-0.219198,-0.130040, 0.201079,1,-0.007531,-0.015251,-0.004385,1, 0.033705,-0.012595,-0.977923,-0.007532,-0.015250,-0.004383, 0.134294, 0.242510,-0.102115,-0.000001, 0.000001, 0.000002,1,0
1777415756207033525,595331000000,   595.336,-0.000800, 0.000102,-0.005422, 0.000054, 0.000639, 0.000007,-0.771651, 0.085827, 0.754759,1,-0.014489, 0.005382,-0.003883,1,-0.022984, 0.009606,-0.921483,-0.014490, 0.005383,-0.003881, 0.134136, 0.241873,-0.100715,-0.000001, 0.000001, 0.000002,1,0
1777415756226705796,595351000000,   595.356,-0.000025,-0.001942,-0.007491, 0.000584, 0.000051,-0.000011,-0.547937,-0.797345, 0.810527,1, 0.027781, 0.017761,-0.000781,1, 0.000380,-0.080567,-0.915765, 0.027780, 0.017762,-0.000779, 0.134795, 0.242015,-0.101649,-0.000001, 0.000001, 0.000002,1,0
1777415756236340852,595371000000,   595.376,-0.000372, 0.000671,-0.008576, 0.000145, 0.000043,-0.000265,-0.555470, 0.136192, 0.062178,1, 0.008411,-0.001312,-0.024232,1,-0.000539, 0.014580,-0.992084, 0.008411,-0.001311,-0.024230, 0.134250, 0.241878,-0.101811,-0.000001, 0.000001, 0.000002,1,0
1777415756246424418,595371000000,   595.376,-0.000372, 0.000671,-0.008576, 0.000145, 0.000043,-0.000265,-0.555470, 0.136192, 0.062178,1, 0.008411,-0.001312,-0.024232,1,-0.000539, 0.014580,-0.992084, 0.008411,-0.001311,-0.024230, 0.134250, 0.241878,-0.101811,-0.000001, 0.000001, 0.000002,1,0
1777415756256102603,595391000000,   595.396, 0.000649, 0.000358,-0.008913, 0.000229, 0.000426,-0.000071,-0.318872, 0.294544, 0.585276,1, 0.017303, 0.036938,-0.016876,1, 0.024191, 0.030462,-0.938709, 0.017303, 0.036939,-0.016875, 0.134496, 0.242154,-0.101268,-0.000001, 0.000001, 0.000002,1,0
1777415756266185706,595391000000,   595.396, 0.000649, 0.000358,-0.008913, 0.000229, 0.000426,-0.000071,-0.318872, 0.294544, 0.585276,1, 0.017303, 0.036938,-0.016876,1, 0.024191, 0.030462,-0.938709, 0.017303, 0.036939,-0.016875, 0.134496, 0.242154,-0.101268,-0.000001, 0.000001, 0.000002,1,0
1777415756281708623,595411000000,   595.416, 0.000659,-0.000893,-0.012078,-0.000052,-0.000597,-0.000525,-0.174351,-0.686766,-0.542752,1, 0.011006,-0.019293,-0.032949,1, 0.039174,-0.070038,-1.053722, 0.011005,-0.019292,-0.032947, 0.134168, 0.242039,-0.102139,-0.000001, 0.000001, 0.000002,1,0
1777415756291409530,595431000000,   595.436, 0.000324, 0.000197,-0.010156, 0.000604, 0.000763,-0.000118,-0.463436, 0.067447,-0.043909,1, 0.021798, 0.025997,-0.025278,1, 0.009427, 0.006627,-1.002869, 0.021798, 0.025998,-0.025276, 0.134088, 0.241985,-0.101968,-0.000001, 0.000001, 0.000002,1,0
1777415756301508688,595431000000,   595.436, 0.000324, 0.000197,-0.010156, 0.000604, 0.000763,-0.000118,-0.463436, 0.067447,-0.043909,1, 0.021798, 0.025997,-0.025278,1, 0.009427, 0.006627,-1.002869, 0.021798, 0.025998,-0.025276, 0.134088, 0.241985,-0.101968,-0.000001, 0.000001, 0.000002,1,0
1777415756311183521,595451000000,   595.451,-0.000113,-0.001099,-0.010600, 0.000422, 0.000016,-0.000070,-0.469499,-0.449853, 0.143111,1, 0.026155, 0.019533,-0.010722,1, 0.009073,-0.046459,-0.983783, 0.026155, 0.019534,-0.010721, 0.134223, 0.241518,-0.101904,-0.000001, 0.000001, 0.000002,1,0
1777415756321267717,595451000000,   595.451,-0.000113,-0.001099,-0.010600, 0.000422, 0.000016,-0.000070,-0.469499,-0.449853, 0.143111,1, 0.026155, 0.019533,-0.010722,1, 0.009073,-0.046459,-0.983783, 0.026155, 0.019534,-0.010721, 0.134223, 0.241518,-0.101904,-0.000001, 0.000001, 0.000002,1,0
1777415756340656030,595471000000,   595.471, 0.000130, 0.002001,-0.008691, 0.000196, 0.000151,-0.000275,-0.590901,-0.428634,-0.322504,1, 0.002964,-0.021054,-0.029640,1, 0.001318, 0.074289,-0.934519, 0.013530,-0.002835,-0.028216, 0.134060, 0.241183,-0.100886,-0.000001, 0.000001, 0.000002,1,0
1777415756350303567,595491000000,   595.491,-0.000088,-0.000003,-0.015817,-0.000410,-0.000584,-0.000304,-0.125688,-0.661413, 0.811218,1, 0.038703, 0.027191,-0.015910,1, 0.029419,-0.038824,-1.185595, 0.009414,-0.006222,-0.021256, 0.133836, 0.240862,-0.101356,-0.000001, 0.000001, 0.000002,1,0
1777415756360405485,595491000000,   595.491,-0.000088,-0.000003,-0.015817,-0.000410,-0.000584,-0.000304,-0.125688,-0.661413, 0.811218,1, 0.038703, 0.027191,-0.015910,1, 0.029419,-0.038824,-1.185595, 0.009414,-0.006222,-0.021256, 0.133836, 0.240862,-0.101356,-0.000001, 0.000001, 0.000002,1,0
1777415756370089429,595511000000,   595.511, 0.000097, 0.000619,-0.012473,-0.000644, 0.000106,-0.000119,-0.573537,-0.227676, 0.823470,1,-0.005105, 0.004364,-0.013789,1, 0.000460, 0.003434,-1.065137,-0.025974, 0.007486,-0.011334, 0.133929, 0.240792,-0.101562,-0.000001, 0.000001, 0.000002,1,0
1777415756380172773,595511000000,   595.511, 0.000097, 0.000619,-0.012473,-0.000644, 0.000106,-0.000119,-0.573537,-0.227676, 0.823470,1,-0.005105, 0.004364,-0.013789,1, 0.000460, 0.003434,-1.065137,-0.025974, 0.007486,-0.011334, 0.133929, 0.240792,-0.101562,-0.000001, 0.000001, 0.000002,1,0
1777415756399855618,595531000000,   595.531,-0.000026,-0.001297,-0.010332,-0.000084, 0.000106,-0.000050,-0.277251,-0.123402, 0.363041,1,-0.011172, 0.023853,-0.002718,1, 0.025076,-0.073677,-1.004420,-0.007287, 0.017836,-0.004189, 0.134089, 0.240480,-0.100976,-0.000001, 0.000001, 0.000002,1,0
1777415756409556931,595551000000,   595.551,-0.000429, 0.001025,-0.012027,-0.000541,-0.000395,-0.000385,-0.493087,-1.131719, 0.411251,1,-0.002606,-0.016490,-0.014866,1,-0.013307,-0.020165,-1.073168,-0.024890,-0.026239,-0.024890, 0.133892, 0.240469,-0.100073,-0.000001, 0.000001, 0.000002,1,0
1777415756419641646,595551000000,   595.551,-0.000429, 0.001025,-0.012027,-0.000541,-0.000395,-0.000385,-0.493087,-1.131719, 0.411251,1,-0.002606,-0.016490,-0.014866,1,-0.013307,-0.020165,-1.073168,-0.024890,-0.026239,-0.024890, 0.133892, 0.240469,-0.100073,-0.000001, 0.000001, 0.000002,1,0
1777415756429309886,595571000000,   595.571,-0.000106,-0.000683,-0.009851,-0.000669, 0.000594, 0.000011,-0.675840, 0.708443, 0.065207,1,-0.010930, 0.014044,-0.017746,1,-0.008281, 0.008980,-1.015478,-0.039941, 0.030365,-0.009873, 0.133599, 0.240690,-0.099670,-0.000001, 0.000001, 0.000002,1,0
1777415756439394490,595571000000,   595.571,-0.000106,-0.000683,-0.009851,-0.000669, 0.000594, 0.000011,-0.675840, 0.708443, 0.065207,1,-0.010930, 0.014044,-0.017746,1,-0.008281, 0.008980,-1.015478,-0.039941, 0.030365,-0.009873, 0.133599, 0.240690,-0.099670,-0.000001, 0.000001, 0.000002,1,0
1777415756449004546,595591000000,   595.591, 0.000233,-0.001084,-0.007374,-0.000005,-0.000212,-0.000364,-0.556394,-0.492516,-0.248370,1,-0.020430, 0.027346,-0.010609,1, 0.012960,-0.069319,-0.881065,-0.014262, 0.002992,-0.023361, 0.133538, 0.240625,-0.099109,-0.000001, 0.000001, 0.000002,1,0
1777415756459105149,595591000000,   595.591, 0.000233,-0.001084,-0.007374,-0.000005,-0.000212,-0.000364,-0.556394,-0.492516,-0.248370,1,-0.020430, 0.027346,-0.010609,1, 0.012960,-0.069319,-0.881065,-0.014262, 0.002992,-0.023361, 0.133538, 0.240625,-0.099109,-0.000001, 0.000001, 0.000002,1,0
1777415756478806308,595611000000,   595.611,-0.000660, 0.002386,-0.011752,-0.000466,-0.000063,-0.000042,-0.284683,-0.165094,-0.063357,1,-0.034661,-0.015856,-0.032966,1,-0.013729, 0.094726,-1.102374,-0.040181,-0.008300,-0.018661, 0.132947, 0.240608,-0.099793,-0.000001, 0.000001, 0.000002,1,0
1777415756488494400,595621000000,   595.626,-0.000150,-0.000160,-0.008267, 0.000057, 0.000760, 0.000189,-0.708234, 0.357354, 0.473955,1,-0.014535, 0.034687,-0.001485,1,-0.014615, 0.037937,-0.950008,-0.014536, 0.034688,-0.001483, 0.133371, 0.240239,-0.099068,-0.000001, 0.000001, 0.000002,1,0
1777415756498577874,595621000000,   595.626,-0.000150,-0.000160,-0.008267, 0.000057, 0.000760, 0.000189,-0.708234, 0.357354, 0.473955,1,-0.014535, 0.034687,-0.001485,1,-0.014615, 0.037937,-0.950008,-0.014536, 0.034688,-0.001483, 0.133371, 0.240239,-0.099068,-0.000001, 0.000001, 0.000002,1,0
1777415756508254429,595641000000,   595.646,-0.000263,-0.000877,-0.010164, 0.000138,-0.000053,-0.000096,-0.505351,-0.613529, 0.061201,1,-0.013700, 0.019041,-0.007203,1, 0.006696,-0.060655,-0.992060,-0.013700, 0.019042,-0.007201, 0.133675, 0.240047,-0.100254,-0.000001, 0.000001, 0.000002,1,0
1777415756518337995,595641000000,   595.646,-0.000263,-0.000877,-0.010164, 0.000138,-0.000053,-0.000096,-0.505351,-0.613529, 0.061201,1,-0.013700, 0.019041,-0.007203,1, 0.006696,-0.060655,-0.992060,-0.013700, 0.019042,-0.007201, 0.133675, 0.240047,-0.100254,-0.000001, 0.000001, 0.000002,1,0
1777415756528012643,595661000000,   595.666,-0.000361, 0.001498,-0.009582,-0.000266, 0.000216,-0.000079,-0.572214, 0.516341,-0.042873,1,-0.028569,-0.002092,-0.013001,1,-0.000613, 0.055110,-1.002700,-0.028570,-0.002091,-0.012999, 0.133008, 0.239938,-0.099472,-0.000001, 0.000001, 0.000002,1,0
1777415756538095968,595661000000,   595.666,-0.000361, 0.001498,-0.009582,-0.000266, 0.000216,-0.000079,-0.572214, 0.516341,-0.042873,1,-0.028569,-0.002092,-0.013001,1,-0.000613, 0.055110,-1.002700,-0.028570,-0.002091,-0.012999, 0.133008, 0.239938,-0.099472,-0.000001, 0.000001, 0.000002,1,0
1777415756557760999,595681000000,   595.686, 0.000301,-0.000521,-0.009143,-0.000285, 0.000013, 0.000072,-0.321328,-0.098907, 0.103972,1,-0.017701, 0.022461, 0.004716,1, 0.025532,-0.007221,-0.987693,-0.017702, 0.022462, 0.004717, 0.132939, 0.240080,-0.098822,-0.000001, 0.000001, 0.000002,1,0
1777415756567454683,595701000000,   595.706,-0.000395, 0.000284,-0.009905,-0.000324,-0.000073,-0.000008,-0.653047, 0.008210, 0.004647,1,-0.026330,-0.000432, 0.000747,1,-0.008105, 0.004187,-0.997808,-0.026330,-0.000431, 0.000749, 0.132854, 0.239916,-0.098554,-0.000001, 0.000001, 0.000002,1,0
1777415756577537934,595701000000,   595.706,-0.000395, 0.000284,-0.009905,-0.000324,-0.000073,-0.000008,-0.653047, 0.008210, 0.004647,1,-0.026330,-0.000432, 0.000747,1,-0.008105, 0.004187,-0.997808,-0.026330,-0.000431, 0.000749, 0.132854, 0.239916,-0.098554,-0.000001, 0.000001, 0.000002,1,0
1777415756587206989,595721000000,   595.726, 0.000114,-0.000039,-0.009906,-0.000064, 0.000390, 0.000229,-0.366671, 0.100294,-0.028656,1,-0.013122, 0.025579, 0.013500,1, 0.021453, 0.013914,-1.001182,-0.013122, 0.025580, 0.013501, 0.133267, 0.239275,-0.099013,-0.000001, 0.000001, 0.000002,1,0
1777415756597291426,595721000000,   595.726, 0.000114,-0.000039,-0.009906,-0.000064, 0.000390, 0.000229,-0.366671, 0.100294,-0.028656,1,-0.013122, 0.025579, 0.013500,1, 0.021453, 0.013914,-1.001182,-0.013122, 0.025580, 0.013501, 0.133267, 0.239275,-0.099013,-0.000001, 0.000001, 0.000002,1,0
1777415756607019480,595741000000,   595.746,-0.000280,-0.001058,-0.013198,-0.000153,-0.000239, 0.000134,-0.545707,-0.358251,-1.206104,1,-0.011064,-0.005126, 0.014325,1, 0.003453,-0.032744,-1.121233,-0.011065,-0.005125, 0.014326, 0.133100, 0.239296,-0.099018,-0.000001, 0.000001, 0.000002,1,0
1777415756617121824,595741000000,   595.746,-0.000280,-0.001058,-0.013198,-0.000153,-0.000239, 0.000134,-0.545707,-0.358251,-1.206104,1,-0.011064,-0.005126, 0.014325,1, 0.003453,-0.032744,-1.121233,-0.011065,-0.005125, 0.014326, 0.133100, 0.239296,-0.099018,-0.000001, 0.000001, 0.000002,1,0
1777415756636758114,595761000000,   595.766, 0.000054, 0.001527,-0.012096,-0.000383, 0.000429, 0.000251,-0.664814, 1.014439,-0.478477,1,-0.019422, 0.016117, 0.018503,1,-0.008758, 0.107592,-1.047038,-0.019423, 0.016118, 0.018504, 0.132780, 0.239559,-0.098618,-0.000001, 0.000001, 0.000002,1,0
1777415756646388633,595781000000,   595.786,-0.000066, 0.000453,-0.008269,-0.000006,-0.000294, 0.000438,-0.628305, 0.109961, 0.987466,1,-0.012550,-0.001652, 0.037955,1,-0.004756, 0.015585,-0.897536,-0.012550,-0.001651, 0.037957, 0.133540, 0.239366,-0.098520,-0.000001, 0.000001, 0.000002,1,0
1777415756656475977,595781000000,   595.786,-0.000066, 0.000453,-0.008269,-0.000006,-0.000294, 0.000438,-0.628305, 0.109961, 0.987466,1,-0.012550,-0.001652, 0.037955,1,-0.004756, 0.015585,-0.897536,-0.012550,-0.001651, 0.037957, 0.133540, 0.239366,-0.098520,-0.000001, 0.000001, 0.000002,1,0
1777415756666156717,595801000000,   595.806,-0.000498, 0.000558,-0.011676,-0.000274,-0.000194, 0.000287,-0.721860, 0.347664,-0.927611,1,-0.012296, 0.000690, 0.030553,1,-0.014355, 0.040101,-1.092822,-0.012297, 0.000691, 0.030555, 0.133603, 0.239475,-0.098003,-0.000001, 0.000001, 0.000002,1,0
1777415756676241987,595801000000,   595.806,-0.000498, 0.000558,-0.011676,-0.000274,-0.000194, 0.000287,-0.721860, 0.347664,-0.927611,1,-0.012296, 0.000690, 0.030553,1,-0.014355, 0.040101,-1.092822,-0.012297, 0.000691, 0.030555, 0.133603, 0.239475,-0.098003,-0.000001, 0.000001, 0.000002,1,0
1777415756691767793,595821000000,   595.826, 0.000745,-0.000021,-0.011176,-0.000496, 0.000421, 0.000515,-0.349246, 0.573755,-0.281786,1,-0.022757, 0.016301, 0.045230,1, 0.023799, 0.063391,-1.026956,-0.022758, 0.016302, 0.045232, 0.133357, 0.239338,-0.098331,-0.000001, 0.000001, 0.000002,1,0
1777415756701476069,595841000000,   595.846, 0.000597, 0.000305,-0.007127, 0.000392, 0.000110, 0.000509,-0.300541, 0.336127, 1.037901,1, 0.016414, 0.014827, 0.053323,1, 0.028822, 0.039185,-0.892382, 0.016414, 0.014828, 0.053325, 0.134041, 0.238749,-0.098559,-0.000001, 0.000001, 0.000002,1,0
1777415756711560728,595841000000,   595.846, 0.000597, 0.000305,-0.007127, 0.000392, 0.000110, 0.000509,-0.300541, 0.336127, 1.037901,1, 0.016414, 0.014827, 0.053323,1, 0.028822, 0.039185,-0.892382, 0.016414, 0.014828, 0.053325, 0.134041, 0.238749,-0.098559,-0.000001, 0.000001, 0.000002,1,0
1777415756721229950,595861000000,   595.861, 0.000161, 0.001649,-0.010583,-0.000095,-0.000442, 0.000762,-0.285061, 0.834086, 0.037819,1,-0.013529,-0.020131, 0.062053,1, 0.029923, 0.089137,-0.994393,-0.013530,-0.020130, 0.062055, 0.134407, 0.238756,-0.099100,-0.000001, 0.000001, 0.000002,1,0
1777415756731316165,595861000000,   595.861, 0.000161, 0.001649,-0.010583,-0.000095,-0.000442, 0.000762,-0.285061, 0.834086, 0.037819,1,-0.013529,-0.020131, 0.062053,1, 0.029923, 0.089137,-0.994393,-0.013530,-0.020130, 0.062055, 0.134407, 0.238756,-0.099100,-0.000001, 0.000001, 0.000002,1,0
1777415756750667219,595881000000,   595.881, 0.000577,-0.000341,-0.011555, 0.000022, 0.000288, 0.000852,-0.298010, 0.460351, 0.457522,1,-0.005312, 0.001653, 0.070196,1, 0.038779, 0.018204,-1.049532,-0.003967, 0.013099, 0.076629, 0.134591, 0.238464,-0.099547,-0.000001, 0.000001, 0.000002,1,0
1777415756760357292,595901000000,   595.901, 0.000535,-0.000265,-0.008630, 0.000178, 0.000055, 0.000605,-0.377344,-0.191503, 0.279340,1, 0.016766,-0.000915, 0.083107,1, 0.035880,-0.013337,-0.943311, 0.018821, 0.001519, 0.072464, 0.135570, 0.238341,-0.099103,-0.000001, 0.000001, 0.000002,1,0
1777415756770441007,595901000000,   595.901, 0.000535,-0.000265,-0.008630, 0.000178, 0.000055, 0.000605,-0.377344,-0.191503, 0.279340,1, 0.016766,-0.000915, 0.083107,1, 0.035880,-0.013337,-0.943311, 0.018821, 0.001519, 0.072464, 0.135570, 0.238341,-0.099103,-0.000001, 0.000001, 0.000002,1,0
1777415756780111543,595921000000,   595.921, 0.000089,-0.001579,-0.006639, 0.000730, 0.000331, 0.000844,-0.291408, 0.050582,-0.763399,1, 0.006495,-0.014001, 0.070263,1, 0.017546,-0.087937,-0.903334, 0.030628, 0.007295, 0.077057, 0.135430, 0.238155,-0.098645,-0.000001, 0.000001, 0.000002,1,0
1777415756790195795,595921000000,   595.921, 0.000089,-0.001579,-0.006639, 0.000730, 0.000331, 0.000844,-0.291408, 0.050582,-0.763399,1, 0.006495,-0.014001, 0.070263,1, 0.017546,-0.087937,-0.903334, 0.030628, 0.007295, 0.077057, 0.135430, 0.238155,-0.098645,-0.000001, 0.000001, 0.000002,1,0
1777415756809928361,595941000000,   595.941, 0.000359, 0.000032,-0.010814, 0.000049,-0.000389, 0.000616,-0.472858,-0.414859,-0.549487,1, 0.010958,-0.007604, 0.061955,1, 0.018778,-0.021672,-1.053270, 0.005439,-0.023357, 0.061983, 0.135229, 0.238781,-0.098304,-0.000001, 0.000001, 0.000002,1,0
1777415756819610231,595961000000,   595.961, 0.000426, 0.000107,-0.014255, 0.000084, 0.000040, 0.000457,-0.570437,-0.636717, 0.875148,1, 0.012396, 0.006286, 0.060583,1, 0.019091,-0.031316,-1.107762, 0.014422, 0.003100, 0.054575, 0.135739, 0.238808,-0.098917,-0.000001, 0.000001, 0.000002,1,0
1777415756829694056,595961000000,   595.961, 0.000426, 0.000107,-0.014255, 0.000084, 0.000040, 0.000457,-0.570437,-0.636717, 0.875148,1, 0.012396, 0.006286, 0.060583,1, 0.019091,-0.031316,-1.107762, 0.014422, 0.003100, 0.054575, 0.135739, 0.238808,-0.098917,-0.000001, 0.000001, 0.000002,1,0
1777415756839297409,595981000000,   595.981,-0.000179,-0.001507,-0.012530,-0.000500,-0.000265, 0.000125,-0.638065,-0.332234, 1.093235,1, 0.015454, 0.004674, 0.045480,1,-0.021299,-0.070536,-1.090737,-0.023504,-0.011897, 0.027934, 0.135706, 0.238501,-0.098938,-0.000001, 0.000001, 0.000002,1,0
1777415756849398549,595981000000,   595.981,-0.000179,-0.001507,-0.012530,-0.000500,-0.000265, 0.000125,-0.638065,-0.332234, 1.093235,1, 0.015454, 0.004674, 0.045480,1,-0.021299,-0.070536,-1.090737,-0.023504,-0.011897, 0.027934, 0.135706, 0.238501,-0.098938,-0.000001, 0.000001, 0.000002,1,0
1777415756859092900,596001000000,   596.001, 0.000231,-0.000016,-0.006587,-0.000217, 0.001315, 0.000330,-0.759404, 0.480207,-0.371222,1,-0.013440,-0.022254, 0.023952,1, 0.009266, 0.033014,-0.879055,-0.017740, 0.050206, 0.027104, 0.135992, 0.238677,-0.098497,-0.000001, 0.000001, 0.000002,1,0
1777415756869179207,596001000000,   596.001, 0.000231,-0.000016,-0.006587,-0.000217, 0.001315, 0.000330,-0.759404, 0.480207,-0.371222,1,-0.013440,-0.022254, 0.023952,1, 0.009266, 0.033014,-0.879055,-0.017740, 0.050206, 0.027104, 0.135992, 0.238677,-0.098497,-0.000001, 0.000001, 0.000002,1,0
1777415756888861941,596021000000,   596.021,-0.000914,-0.002078,-0.011296, 0.000349,-0.000049, 0.000183, 0.050085,-0.250303,-0.135056,1, 0.012705, 0.010651, 0.033635,1, 0.003744,-0.106398,-1.052457, 0.029055, 0.007963, 0.025648, 0.136251, 0.238333,-0.098265,-0.000001, 0.000001, 0.000002,1,0
1777415756898548755,596031000000,   596.036, 0.000204, 0.000304,-0.006384,-0.000286,-0.000679,-0.000190,-0.482897,-0.371935, 1.413899,1, 0.008868,-0.023872, 0.005234,1, 0.009516,-0.035805,-0.854092, 0.008867,-0.023871, 0.005236, 0.136201, 0.238326,-0.098195,-0.000001, 0.000001, 0.000002,1,0
1777415756908634636,596031000000,   596.036, 0.000204, 0.000304,-0.006384,-0.000286,-0.000679,-0.000190,-0.482897,-0.371935, 1.413899,1, 0.008868,-0.023872, 0.005234,1, 0.009516,-0.035805,-0.854092, 0.008867,-0.023871, 0.005236, 0.136201, 0.238326,-0.098195,-0.000001, 0.000001, 0.000002,1,0
1777415756927904914,596051000000,   596.056, 0.000059, 0.001847,-0.009413, 0.000120, 0.000424,-0.000043,-0.498478, 0.714071, 0.114505,1, 0.016913, 0.006933,-0.005200,1, 0.007456, 0.074658,-0.986622, 0.016912, 0.006934,-0.005199, 0.135909, 0.237597,-0.098397,-0.000001, 0.000001, 0.000002,1,0
1777415756937610339,596071000000,   596.076, 0.000443,-0.001250,-0.013834,-0.000137,-0.000204,-0.000301,-0.263454,-0.828668,-1.088167,1, 0.005704,-0.001465,-0.012056,1, 0.031501,-0.083264,-1.109257, 0.005703,-0.001464,-0.012055, 0.136126, 0.237744,-0.098063,-0.000001, 0.000001, 0.000002,1,0
1777415756947717034,596071000000,   596.076, 0.000443,-0.001250,-0.013834,-0.000137,-0.000204,-0.000301,-0.263454,-0.828668,-1.088167,1, 0.005704,-0.001465,-0.012056,1, 0.031501,-0.083264,-1.109257, 0.005703,-0.001464,-0.012055, 0.136126, 0.237744,-0.098063,-0.000001, 0.000001, 0.000002,1,0
1777415756957312183,596091000000,   596.096, 0.000529,-0.000290,-0.011103, 0.000533, 0.000495,-0.000211,-0.492168,-0.366040,-0.195388,1, 0.033162, 0.003521,-0.016092,1, 0.007655,-0.036304,-1.018249, 0.033162, 0.003522,-0.016091, 0.136172, 0.237210,-0.098652,-0.000001, 0.000001, 0.000002,1,0
1777415756967398657,596091000000,   596.096, 0.000529,-0.000290,-0.011103, 0.000533, 0.000495,-0.000211,-0.492168,-0.366040,-0.195388,1, 0.033162, 0.003521,-0.016092,1, 0.007655,-0.036304,-1.018249, 0.033162, 0.003522,-0.016091, 0.136172, 0.237210,-0.098652,-0.000001, 0.000001, 0.000002,1,0
1777415756977071064,596111000000,   596.116,-0.000449,-0.001052,-0.011200, 0.000260,-0.000108,-0.000188,-0.688897,-0.776129,-0.442890,1, 0.028011,-0.000979,-0.018701,1,-0.012304,-0.078660,-1.043482, 0.028011,-0.000978,-0.018700, 0.136187, 0.237563,-0.098631,-0.000001, 0.000001, 0.000002,1,0
1777415756987155593,596111000000,   596.116,-0.000449,-0.001052,-0.011200, 0.000260,-0.000108,-0.000188,-0.688897,-0.776129,-0.442890,1, 0.028011,-0.000979,-0.018701,1,-0.012304,-0.078660,-1.043482, 0.028011,-0.000978,-0.018700, 0.136187, 0.237563,-0.098631,-0.000001, 0.000001, 0.000002,1,0
1777415757006876178,596131000000,   596.136, 0.000017,-0.002498,-0.010384, 0.000316, 0.000139,-0.000357,-0.393562,-1.277636,-0.096549,1, 0.030679, 0.003729,-0.032574,1, 0.017852,-0.130343,-1.008162, 0.030679, 0.003730,-0.032572, 0.135562, 0.237432,-0.098398,-0.000001, 0.000001, 0.000002,1,0
1777415757016510843,596151000000,   596.156,-0.000255,-0.000118,-0.008378, 0.000091, 0.000094,-0.000209,-0.537932,-0.057839, 0.345620,1, 0.011852, 0.007117,-0.031894,1, 0.003185,-0.006049,-0.963071, 0.011851, 0.007118,-0.031892, 0.135734, 0.236756,-0.098681,-0.000001, 0.000001, 0.000002,1,0
1777415757026595612,596151000000,   596.156,-0.000255,-0.000118,-0.008378, 0.000091, 0.000094,-0.000209,-0.537932,-0.057839, 0.345620,1, 0.011852, 0.007117,-0.031894,1, 0.003185,-0.006049,-0.963071, 0.011851, 0.007118,-0.031892, 0.135734, 0.236756,-0.098681,-0.000001, 0.000001, 0.000002,1,0
1777415757036264925,596171000000,   596.176,-0.000042,-0.000687,-0.008487, 0.000333,-0.000136,-0.000171,-0.498471,-0.447858, 0.478666,1, 0.012311, 0.006106,-0.026057,1, 0.007511,-0.045894,-0.949486, 0.012310, 0.006107,-0.026055, 0.135691, 0.237487,-0.098092,-0.000001, 0.000001, 0.000002,1,0
1777415757046349434,596171000000,   596.176,-0.000042,-0.000687,-0.008487, 0.000333,-0.000136,-0.000171,-0.498471,-0.447858, 0.478666,1, 0.012311, 0.006106,-0.026057,1, 0.007511,-0.045894,-0.949486, 0.012310, 0.006107,-0.026055, 0.135691, 0.237487,-0.098092,-0.000001, 0.000001, 0.000002,1,0
1777415757056081505,596191000000,   596.196, 0.000257, 0.000270,-0.011196,-0.000039,-0.000162,-0.000404,-0.431967, 0.024193,-0.527463,1,-0.001266,-0.011474,-0.038481,1, 0.014240, 0.002132,-1.052086,-0.001267,-0.011473,-0.038479, 0.135398, 0.237106,-0.098282,-0.000001, 0.000001, 0.000002,1,0
1777415757066166051,596191000000,   596.196, 0.000257, 0.000270,-0.011196,-0.000039,-0.000162,-0.000404,-0.431967, 0.024193,-0.527463,1,-0.001266,-0.011474,-0.038481,1, 0.014240, 0.002132,-1.052086,-0.001267,-0.011473,-0.038479, 0.135398, 0.237106,-0.098282,-0.000001, 0.000001, 0.000002,1,0
1777415757081628707,596211000000,   596.216, 0.000570, 0.001304,-0.012652,-0.000183, 0.000003,-0.000399,-0.348471, 0.073076,-0.841280,1, 0.005308, 0.004876,-0.032979,1, 0.022876, 0.006962,-1.084079, 0.005307, 0.004877,-0.032978, 0.135297, 0.237065,-0.098905,-0.000001, 0.000001, 0.000002,1,0
1777415757091328334,596231000000,   596.231, 0.000637,-0.000060,-0.011151,-0.000445, 0.000132,-0.000487,-0.300294,-0.128716,-0.427850,1,-0.016283, 0.004203,-0.038549,1, 0.027891,-0.013487,-1.041915,-0.016284, 0.004204,-0.038547, 0.135134, 0.236484,-0.098721,-0.000001, 0.000001, 0.000002,1,0
1777415757101431454,596231000000,   596.231, 0.000637,-0.000060,-0.011151,-0.000445, 0.000132,-0.000487,-0.300294,-0.128716,-0.427850,1,-0.016283, 0.004203,-0.038549,1, 0.027891,-0.013487,-1.041915,-0.016284, 0.004204,-0.038547, 0.135134, 0.236484,-0.098721,-0.000001, 0.000001, 0.000002,1,0
1777415757111091730,596251000000,   596.251,-0.000115,-0.000971,-0.014363,-0.000761,-0.000434,-0.000743,-0.350058,-0.713885,-1.756985,1,-0.018244,-0.020889,-0.051476,1, 0.022621,-0.073255,-1.177460,-0.018245,-0.020888,-0.051474, 0.134674, 0.236032,-0.098717,-0.000001, 0.000001, 0.000002,1,0
1777415757121174814,596251000000,   596.251,-0.000115,-0.000971,-0.014363,-0.000761,-0.000434,-0.000743,-0.350058,-0.713885,-1.756985,1,-0.018244,-0.020889,-0.051476,1, 0.022621,-0.073255,-1.177460,-0.018245,-0.020888,-0.051474, 0.134674, 0.236032,-0.098717,-0.000001, 0.000001, 0.000002,1,0
1777415757140519402,596271000000,   596.271, 0.000738,-0.000140,-0.011353,-0.000811, 0.000755,-0.000387,-0.537177, 0.652726, 0.964439,1, 0.004031,-0.015401,-0.050254,1, 0.040311, 0.037962,-1.030274,-0.037398, 0.021576,-0.045596, 0.134685, 0.235322,-0.098279,-0.000001, 0.000001, 0.000002,1,0
1777415757150217585,596291000000,   596.291,-0.000382,-0.001251,-0.014364,-0.000256,-0.000180,-0.000478, 0.042397,-0.257089, 1.034760,1,-0.013667, 0.025275,-0.033088,1, 0.019892,-0.067224,-1.130615,-0.012057, 0.009344,-0.040021, 0.134063, 0.234815,-0.097912,-0.000001, 0.000001, 0.000002,1,0
1777415757160301186,596291000000,   596.291,-0.000382,-0.001251,-0.014364,-0.000256,-0.000180,-0.000478, 0.042397,-0.257089, 1.034760,1,-0.013667, 0.025275,-0.033088,1, 0.019892,-0.067224,-1.130615,-0.012057, 0.009344,-0.040021, 0.134063, 0.234815,-0.097912,-0.000001, 0.000001, 0.000002,1,0
1777415757180016361,596311000000,   596.311,-0.000128, 0.001028,-0.012405,-0.001041,-0.000909,-0.000770,-0.120193,-0.965902, 1.392249,1, 0.020978, 0.012743,-0.051235,1, 0.016451, 0.008009,-1.034002,-0.034676,-0.034653,-0.062758, 0.133861, 0.234866,-0.097815,-0.000001, 0.000001, 0.000002,1,0
1777415757199772127,596331000000,   596.331,-0.000347,-0.000933,-0.010322,-0.000040, 0.000381,-0.000273,-0.437017, 0.898649,-0.326576,1,-0.029491, 0.008802,-0.049940,1,-0.007738, 0.009067,-1.015927,-0.015937, 0.023483,-0.040247, 0.133819, 0.234586,-0.098599,-0.000001, 0.000001, 0.000002,1,0
1777415757209468310,596351000000,   596.351, 0.000019,-0.001044,-0.012688,-0.000083,-0.000476,-0.000596,-0.254069,-0.370068, 0.561672,1,-0.014035, 0.027975,-0.041248,1, 0.018469,-0.058273,-1.079931,-0.010394,-0.006274,-0.050315, 0.133099, 0.234138,-0.098678,-0.000001, 0.000001, 0.000002,1,0
1777415757219554005,596351000000,   596.351, 0.000019,-0.001044,-0.012688,-0.000083,-0.000476,-0.000596,-0.254069,-0.370068, 0.561672,1,-0.014035, 0.027975,-0.041248,1, 0.018469,-0.058273,-1.079931,-0.010394,-0.006274,-0.050315, 0.133099, 0.234138,-0.098678,-0.000001, 0.000001, 0.000002,1,0
1777415757229166429,596371000000,   596.371, 0.000290, 0.002368,-0.012167,-0.000530, 0.000109,-0.000580,-0.575728,-0.148185, 0.659951,1,-0.016591,-0.022115,-0.057081,1, 0.012565, 0.107618,-1.038129,-0.025598,-0.005508,-0.056601, 0.132973, 0.234201,-0.098078,-0.000001, 0.000001, 0.000002,1,0
1777415757239249902,596371000000,   596.371, 0.000290, 0.002368,-0.012167,-0.000530, 0.000109,-0.000580,-0.575728,-0.148185, 0.659951,1,-0.016591,-0.022115,-0.057081,1, 0.012565, 0.107618,-1.038129,-0.025598,-0.005508,-0.056601, 0.132973, 0.234201,-0.098078,-0.000001, 0.000001, 0.000002,1,0
1777415757258987168,596391000000,   596.391,-0.000004,-0.000475,-0.010436,-0.000253,-0.000333,-0.000380,-0.337733,-0.013167, 0.150510,1,-0.007673, 0.037630,-0.037111,1, 0.010881,-0.023652,-0.999502,-0.015195, 0.007639,-0.037154, 0.132742, 0.234371,-0.098188,-0.000001, 0.000001, 0.000002,1,0
1777415757268673499,596411000000,   596.411, 0.000201,-0.002772,-0.007066, 0.000443, 0.000466,-0.000406,-0.320969, 0.070762,-0.226817,1,-0.021647,-0.017621,-0.041562,1, 0.024957,-0.133360,-0.914007,-0.001975, 0.008954,-0.042067, 0.133210, 0.234206,-0.097789,-0.000001, 0.000001, 0.000002,1,0
1777415757278773934,596411000000,   596.411, 0.000201,-0.002772,-0.007066, 0.000443, 0.000466,-0.000406,-0.320969, 0.070762,-0.226817,1,-0.021647,-0.017621,-0.041562,1, 0.024957,-0.133360,-0.914007,-0.001975, 0.008954,-0.042067, 0.133210, 0.234206,-0.097789,-0.000001, 0.000001, 0.000002,1,0
1777415757288420507,596421000000,   596.426, 0.000455, 0.003938,-0.015326,-0.000948,-0.000781,-0.000570,-0.266067, 1.003723,-1.557806,1,-0.036806,-0.028800,-0.044825,1, 0.031309, 0.105469,-1.157138,-0.036807,-0.028799,-0.044823, 0.133085, 0.233675,-0.097445,-0.000001, 0.000001, 0.000002,1,0
1777415757298503516,596421000000,   596.426, 0.000455, 0.003938,-0.015326,-0.000948,-0.000781,-0.000570,-0.266067, 1.003723,-1.557806,1,-0.036806,-0.028800,-0.044825,1, 0.031309, 0.105469,-1.157138,-0.036807,-0.028799,-0.044823, 0.133085, 0.233675,-0.097445,-0.000001, 0.000001, 0.000002,1,0
1777415757308116793,596441000000,   596.446, 0.001481, 0.000133,-0.008406,-0.000182, 0.000435, 0.000003, 0.054339, 0.385487, 0.963709,1,-0.012415, 0.033267,-0.008852,1, 0.064329, 0.043112,-0.899992,-0.012416, 0.033268,-0.008850, 0.132961, 0.233255,-0.097621,-0.000001, 0.000001, 0.000002,1,0
1777415757318201265,596441000000,   596.446, 0.001481, 0.000133,-0.008406,-0.000182, 0.000435, 0.000003, 0.054339, 0.385487, 0.963709,1,-0.012415, 0.033267,-0.008852,1, 0.064329, 0.043112,-0.899992,-0.012416, 0.033268,-0.008850, 0.132961, 0.233255,-0.097621,-0.000001, 0.000001, 0.000002,1,0
1777415757337911143,596461000000,   596.466, 0.000061,-0.000800,-0.005601,-0.000146,-0.000161,-0.000066,-0.461149,-0.343977, 1.337620,1,-0.026555,-0.000269,-0.007360,1, 0.011520,-0.031084,-0.861877,-0.026556,-0.000267,-0.007358, 0.132511, 0.232775,-0.098071,-0.000001, 0.000001, 0.000003,1,0
1777415757347614437,596481000000,   596.486,-0.001030, 0.001405,-0.007426, 0.000179, 0.000704, 0.000331,-0.866722, 0.809918, 0.105628,1,-0.022047, 0.020405, 0.007940,1,-0.030250, 0.087171,-0.987527,-0.022048, 0.020407, 0.007943, 0.132540, 0.232625,-0.097557,-0.000001, 0.000001, 0.000003,1,0
1777415757357715390,596481000000,   596.486,-0.001030, 0.001405,-0.007426, 0.000179, 0.000704, 0.000331,-0.866722, 0.809918, 0.105628,1,-0.022047, 0.020405, 0.007940,1,-0.030250, 0.087171,-0.987527,-0.022048, 0.020407, 0.007943, 0.132540, 0.232625,-0.097557,-0.000001, 0.000001, 0.000003,1,0
1777415757367360907,596501000000,   596.506,-0.000543,-0.000933,-0.013398, 0.000195, 0.000086, 0.000416,-0.731309,-0.049785,-1.311493,1,-0.002622, 0.023764, 0.030339,1,-0.015851,-0.000313,-1.131998,-0.002623, 0.023765, 0.030342, 0.132445, 0.232333,-0.097340,-0.000001, 0.000001, 0.000003,1,0
1777415757377444694,596501000000,   596.506,-0.000543,-0.000933,-0.013398, 0.000195, 0.000086, 0.000416,-0.731309,-0.049785,-1.311493,1,-0.002622, 0.023764, 0.030339,1,-0.015851,-0.000313,-1.131998,-0.002623, 0.023765, 0.030342, 0.132445, 0.232333,-0.097340,-0.000001, 0.000001, 0.000003,1,0
1777415757387124044,596521000000,   596.526,-0.000618, 0.002576,-0.010498,-0.000688, 0.000020, 0.000123,-0.677528, 0.591658, 0.225882,1,-0.024556,-0.009107, 0.019104,1,-0.010308, 0.065245,-0.975225,-0.024557,-0.009106, 0.019106, 0.132351, 0.232309,-0.097257,-0.000001, 0.000001, 0.000003,1,0
1777415757397207961,596521000000,   596.526,-0.000618, 0.002576,-0.010498,-0.000688, 0.000020, 0.000123,-0.677528, 0.591658, 0.225882,1,-0.024556,-0.009107, 0.019104,1,-0.010308, 0.065245,-0.975225,-0.024557,-0.009106, 0.019106, 0.132351, 0.232309,-0.097257,-0.000001, 0.000001, 0.000003,1,0
1777415757416924191,596541000000,   596.546,-0.000165, 0.000605,-0.007723, 0.000066, 0.000109, 0.000866,-0.573612, 0.855516, 0.807319,1,-0.000624, 0.024436, 0.062233,1, 0.000678, 0.092524,-0.915910,-0.000625, 0.024438, 0.062235, 0.132528, 0.232431,-0.098022,-0.000001, 0.000001, 0.000003,1,0
1777415757426567189,596561000000,   596.566,-0.000393,-0.000189,-0.009098, 0.000056,-0.000312, 0.000539,-0.631141,-0.067581, 0.334287,1, 0.003125,-0.007056, 0.059287,1,-0.004964,-0.001598,-0.964132, 0.003125,-0.007055, 0.059289, 0.132495, 0.232637,-0.097888,-0.000001, 0.000001, 0.000003,1,0
1777415757436666531,596561000000,   596.566,-0.000393,-0.000189,-0.009098, 0.000056,-0.000312, 0.000539,-0.631141,-0.067581, 0.334287,1, 0.003125,-0.007056, 0.059287,1,-0.004964,-0.001598,-0.964132, 0.003125,-0.007055, 0.059289, 0.132495, 0.232637,-0.097888,-0.000001, 0.000001, 0.000003,1,0
1777415757446319548,596581000000,   596.586, 0.000530, 0.001543,-0.010612,-0.000155,-0.000051, 0.000649,-0.223076, 0.974821,-0.107432,1,-0.013455, 0.000539, 0.058683,1, 0.036786, 0.104517,-1.009168,-0.013456, 0.000540, 0.058686, 0.133316, 0.232546,-0.097665,-0.000001, 0.000001, 0.000003,1,0
1777415757456417742,596581000000,   596.586, 0.000530, 0.001543,-0.010612,-0.000155,-0.000051, 0.000649,-0.223076, 0.974821,-0.107432,1,-0.013455, 0.000539, 0.058683,1, 0.036786, 0.104517,-1.009168,-0.013456, 0.000540, 0.058686, 0.133316, 0.232546,-0.097665,-0.000001, 0.000001, 0.000003,1,0
1777415757466135406,596601000000,   596.606, 0.000392,-0.000127,-0.006257, 0.000615, 0.000029, 0.000888,-0.340524, 0.099923, 1.461158,1, 0.023142, 0.000754, 0.078116,1, 0.024770, 0.014883,-0.849221, 0.023141, 0.000756, 0.078118, 0.133049, 0.232525,-0.097795,-0.000001, 0.000001, 0.000003,1,0
1777415757476219138,596601000000,   596.606, 0.000392,-0.000127,-0.006257, 0.000615, 0.000029, 0.000888,-0.340524, 0.099923, 1.461158,1, 0.023142, 0.000754, 0.078116,1, 0.024770, 0.014883,-0.849221, 0.023141, 0.000756, 0.078118, 0.133049, 0.232525,-0.097795,-0.000001, 0.000001, 0.000003,1,0
1777415757491688997,596621000000,   596.626, 0.000007, 0.000628,-0.008149,-0.000374,-0.000544, 0.000585,-0.537456, 0.387623, 0.167353,1,-0.011173,-0.027800, 0.065993,1, 0.004582, 0.043615,-0.981161,-0.011174,-0.027798, 0.065996, 0.133242, 0.232181,-0.098109,-0.000001, 0.000001, 0.000003,1,0
1777415757501383365,596641000000,   596.641, 0.000706,-0.000543,-0.013620,-0.000239, 0.000709, 0.001160,-0.287504, 0.617659,-1.756482,1,-0.010979, 0.024435, 0.096087,1, 0.030067, 0.067132,-1.177338,-0.010980, 0.024436, 0.096090, 0.133838, 0.231950,-0.098391,-0.000001, 0.000001, 0.000003,1,0
1777415757511468134,596641000000,   596.641, 0.000706,-0.000543,-0.013620,-0.000239, 0.000709, 0.001160,-0.287504, 0.617659,-1.756482,1,-0.010979, 0.024435, 0.096087,1, 0.030067, 0.067132,-1.177338,-0.010980, 0.024436, 0.096090, 0.133838, 0.231950,-0.098391,-0.000001, 0.000001, 0.000003,1,0
1777415757521145446,596661000000,   596.661, 0.000549,-0.001535,-0.015630,-0.000636, 0.000210, 0.000756,-0.201466,-0.500792,-1.895452,1,-0.010704, 0.015987, 0.089585,1, 0.039518,-0.046690,-1.191467,-0.010705, 0.015989, 0.089588, 0.133798, 0.232072,-0.098137,-0.000001, 0.000001, 0.000003,1,0
1777415757531229381,596661000000,   596.661, 0.000549,-0.001535,-0.015630,-0.000636, 0.000210, 0.000756,-0.201466,-0.500792,-1.895452,1,-0.010704, 0.015987, 0.089585,1, 0.039518,-0.046690,-1.191467,-0.010705, 0.015989, 0.089588, 0.133798, 0.232072,-0.098137,-0.000001, 0.000001, 0.000003,1,0
1777415757550577803,596681000000,   596.681, 0.000359, 0.000915,-0.012644,-0.000218, 0.000307, 0.000835,-0.679227, 0.140040, 1.437757,1, 0.014952, 0.012818, 0.087583,1, 0.010809, 0.062555,-1.031856, 0.008603, 0.022668, 0.086030, 0.134466, 0.232166,-0.097675,-0.000001, 0.000001, 0.000003,1,0
1777415757560271967,596701000000,   596.701, 0.000561, 0.000572,-0.011982, 0.000095,-0.000286, 0.000632,-0.189967,-0.538796, 0.948818,1, 0.024147, 0.031418, 0.092664,1, 0.058581, 0.002947,-1.002974, 0.021453, 0.005407, 0.079906, 0.134749, 0.231599,-0.098350,-0.000001, 0.000001, 0.000003,1,0
1777415757570355625,596701000000,   596.701, 0.000561, 0.000572,-0.011982, 0.000095,-0.000286, 0.000632,-0.189967,-0.538796, 0.948818,1, 0.024147, 0.031418, 0.092664,1, 0.058581, 0.002947,-1.002974, 0.021453, 0.005407, 0.079906, 0.134749, 0.231599,-0.098350,-0.000001, 0.000001, 0.000003,1,0
1777415757580009456,596721000000,   596.721,-0.000064, 0.000404,-0.009450, 0.000802,-0.000138, 0.000548,-0.341719,-0.608091,-0.031078,1, 0.025890,-0.000965, 0.070804,1, 0.005826,-0.014905,-0.923251, 0.053015,-0.004180, 0.064278, 0.134990, 0.231619,-0.098503,-0.000001, 0.000001, 0.000003,1,0
1777415757590109280,596721000000,   596.721,-0.000064, 0.000404,-0.009450, 0.000802,-0.000138, 0.000548,-0.341719,-0.608091,-0.031078,1, 0.025890,-0.000965, 0.070804,1, 0.005826,-0.014905,-0.923251, 0.053015,-0.004180, 0.064278, 0.134990, 0.231619,-0.098503,-0.000001, 0.000001, 0.000003,1,0
1777415757609827066,596741000000,   596.741,-0.000013, 0.000323,-0.009693, 0.000743, 0.000087, 0.000641,-0.442097,-0.157874,-0.509846,1, 0.017588, 0.013120, 0.055188,1, 0.007691, 0.006533,-0.978435, 0.039991, 0.012372, 0.059074, 0.136084, 0.231577,-0.098471,-0.000001, 0.000001, 0.000003,1,0
1777415757619518804,596761000000,   596.761, 0.000013,-0.001012,-0.012012, 0.000425,-0.000105, 0.000581,-0.253590,-0.220325, 0.640211,1, 0.018668, 0.015805, 0.055455,1, 0.021536,-0.054248,-1.069736, 0.022986, 0.003191, 0.055341, 0.135503, 0.232083,-0.097814,-0.000001, 0.000001, 0.000003,1,0
1777415757629602461,596761000000,   596.761, 0.000013,-0.001012,-0.012012, 0.000425,-0.000105, 0.000581,-0.253590,-0.220325, 0.640211,1, 0.018668, 0.015805, 0.055455,1, 0.021536,-0.054248,-1.069736, 0.022986, 0.003191, 0.055341, 0.135503, 0.232083,-0.097814,-0.000001, 0.000001, 0.000003,1,0
1777415757639218571,596781000000,   596.781, 0.000115,-0.001292,-0.006828, 0.000535, 0.000633, 0.000609,-0.574625,-0.016542,-0.436157,1, 0.015010,-0.013891, 0.051870,1, 0.004292,-0.068421,-0.890302, 0.025840, 0.020964, 0.056215, 0.135275, 0.232300,-0.098163,-0.000001, 0.000001, 0.000003,1,0
1777415757649302303,596781000000,   596.781, 0.000115,-0.001292,-0.006828, 0.000535, 0.000633, 0.000609,-0.574625,-0.016542,-0.436157,1, 0.015010,-0.013891, 0.051870,1, 0.004292,-0.068421,-0.890302, 0.025840, 0.020964, 0.056215, 0.135275, 0.232300,-0.098163,-0.000001, 0.000001, 0.000003,1,0
1777415757669018070,596801000000,   596.801,-0.000200,-0.001107,-0.008384,-0.000030,-0.000013, 0.000529,-0.400959, 0.063123,-1.224449,1, 0.016562, 0.005598, 0.052135,1,-0.000271,-0.044641,-0.999002, 0.002345, 0.001666, 0.051649, 0.135305, 0.231637,-0.098594,-0.000001, 0.000001, 0.000003,1,0
1777415757688789484,596821000000,   596.821, 0.000847,-0.000457,-0.013132,-0.000249, 0.000090, 0.000478,-0.442426,-0.022749, 0.814016,1, 0.011296, 0.016923, 0.051090,1, 0.044030,-0.020090,-1.102665,-0.003876, 0.009295, 0.050256, 0.135797, 0.231933,-0.099331,-0.000001, 0.000001, 0.000003,1,0
1777415757698470223,596831000000,   596.836, 0.000306, 0.000696,-0.006863, 0.000077, 0.000164, 0.000547,-0.206653, 0.142810, 0.923383,1, 0.003105, 0.014784, 0.052956,1, 0.040756, 0.015085,-0.903928, 0.003104, 0.014786, 0.052959, 0.135979, 0.232169,-0.100044,-0.000001, 0.000001, 0.000003,1,0
1777415757708554899,596831000000,   596.836, 0.000306, 0.000696,-0.006863, 0.000077, 0.000164, 0.000547,-0.206653, 0.142810, 0.923383,1, 0.003105, 0.014784, 0.052956,1, 0.040756, 0.015085,-0.903928, 0.003104, 0.014786, 0.052959, 0.135979, 0.232169,-0.100044,-0.000001, 0.000001, 0.000003,1,0
1777415757718168472,596851000000,   596.856, 0.000619, 0.001842,-0.011832, 0.000015,-0.000389, 0.000239,-0.100990, 0.231583,-0.553023,1,-0.004890,-0.019580, 0.040573,1, 0.051285, 0.024098,-1.054494,-0.004891,-0.019579, 0.040577, 0.135736, 0.231416,-0.100621,-0.000001, 0.000001, 0.000003,1,0
1777415757728253037,596851000000,   596.856, 0.000619, 0.001842,-0.011832, 0.000015,-0.000389, 0.000239,-0.100990, 0.231583,-0.553023,1,-0.004890,-0.019580, 0.040573,1, 0.051285, 0.024098,-1.054494,-0.004891,-0.019579, 0.040577, 0.135736, 0.231416,-0.100621,-0.000001, 0.000001, 0.000003,1,0
1777415757747987674,596871000000,   596.876, 0.000696, 0.001121,-0.008289, 0.000754, 0.000412, 0.000527,-0.124032, 0.307278, 1.408876,1, 0.046673, 0.030736, 0.051406,1, 0.048768, 0.031799,-0.854447, 0.046671, 0.030738, 0.051409, 0.136439, 0.231366,-0.099673,-0.000001, 0.000001, 0.000003,1,0
1777415757757729930,596891000000,   596.896,-0.000374, 0.000696,-0.000579, 0.001051, 0.000520, 0.000420,-0.599181,-0.191180, 2.809774,1, 0.056200, 0.037302, 0.042586,1, 0.000399,-0.019156,-0.711590, 0.056199, 0.037303, 0.042589, 0.136513, 0.231366,-0.099700,-0.000001, 0.000001, 0.000003,1,0
1777415757767909252,596891000000,   596.896,-0.000374, 0.000696,-0.000579, 0.001051, 0.000520, 0.000420,-0.599181,-0.191180, 2.809774,1, 0.056200, 0.037302, 0.042586,1, 0.000399,-0.019156,-0.711590, 0.056199, 0.037303, 0.042589, 0.136513, 0.231366,-0.099700,-0.000001, 0.000001, 0.000003,1,0
1777415757777492048,596911000000,   596.916,-0.000994,-0.000408,-0.011552, 0.000337, 0.000176, 0.000863,-0.692826, 0.127717,-0.554040,1,-0.028721, 0.022587, 0.061612,1,-0.008826, 0.013885,-1.054583,-0.028722, 0.022588, 0.061615, 0.136363, 0.231728,-0.098657,-0.000001, 0.000001, 0.000003,1,0
1777415757787628575,596911000000,   596.916,-0.000994,-0.000408,-0.011552, 0.000337, 0.000176, 0.000863,-0.692826, 0.127717,-0.554040,1,-0.028721, 0.022587, 0.061612,1,-0.008826, 0.013885,-1.054583,-0.028722, 0.022588, 0.061615, 0.136363, 0.231728,-0.098657,-0.000001, 0.000001, 0.000003,1,0
