Time,reference_time,gps_timestamp,deltaVelX,deltaVelY,deltaVelZ,deltaThetaX,deltaThetaY,deltaThetaZ,estLinearAccelX,estLinearAccelY,estLinearAccelZ,estLinearAccel:valid,estAngularRateX,estAngularRateY,estAngularRateZ,estAngularRate:valid,scaledAccelX,scaledAccelY,scaledAccelZ,scaledGyroX,scaledGyroY,scaledGyroZ,scaledMagX,scaledMagY,scaledMagZ,estGyroBiasX,estGyroBiasY,estGyroBiasZ,estGyroBias:valid,flagStop
1777416007065223024,821241000000,   821.241, 0.000017,-0.000093,-0.009951,-0.000019, 0.000032, 0.000182,-0.079317,-0.022917, 0.036812,1,-0.001357, 0.003151, 0.018507,1, 0.001707,-0.009412,-0.995639,-0.001654, 0.003174, 0.018338, 0.118431, 0.246179,-0.114971,-0.000000, 0.000000, 0.000000,1,0
1777416007084515927,846231000000,   846.236, 0.000027,-0.000090,-0.009947,-0.000016, 0.000036, 0.000180,-0.517108,-0.035174, 0.028134,1,-0.001507, 0.003302, 0.018250,1, 0.002657,-0.009686,-0.995577,-0.001507, 0.003302, 0.018250, 0.118258, 0.245683,-0.115143,-0.000000, 0.000000,-0.000000,1,0
1777416007094225671,846251000000,   846.251, 0.000033,-0.000063,-0.009961,-0.000013, 0.000036, 0.000191,-0.512624,-0.013632, 0.026780,1,-0.001195, 0.003461, 0.018721,1, 0.003006,-0.007495,-0.995721,-0.001195, 0.003462, 0.018721, 0.119059, 0.246324,-0.114883,-0.000000, 0.000000,-0.000000,1,0
1777416007104317707,846251000000,   846.251, 0.000033,-0.000063,-0.009961,-0.000013, 0.000036, 0.000191,-0.512624,-0.013632, 0.026780,1,-0.001195, 0.003461, 0.018721,1, 0.003006,-0.007495,-0.995721,-0.001195, 0.003462, 0.018721, 0.119059, 0.246324,-0.114883,-0.000000, 0.000000,-0.000000,1,0
1777416007124017304,846271000000,   846.271, 0.000025,-0.000090,-0.009959,-0.000007, 0.000035, 0.000205,-0.515652,-0.020794, 0.025250,1,-0.000937, 0.003419, 0.019690,1, 0.002710,-0.008228,-0.995877,-0.000937, 0.003419, 0.019690, 0.118815, 0.246532,-0.114066,-0.000000, 0.000000,-0.000000,1,0
1777416007143449215,846291000000,   846.291, 0.000007,-0.000120,-0.009966,-0.000006, 0.000028, 0.000196,-0.522263,-0.027947, 0.028313,1,-0.000873, 0.003494, 0.019877,1, 0.001469,-0.010342,-0.995985,-0.000731, 0.003177, 0.019765, 0.119001, 0.246428,-0.113976,-0.000000, 0.000000,-0.000000,1,0
1777416007153069940,846311000000,   846.311, 0.000001,-0.000126,-0.009960,-0.000009, 0.000026, 0.000191,-0.532830,-0.052371, 0.025745,1,-0.000578, 0.003066, 0.019737,1, 0.000601,-0.011956,-0.995759,-0.000733, 0.002878, 0.019427, 0.119010, 0.246475,-0.113946,-0.000000, 0.000000,-0.000000,1,0
1777416007163153811,846311000000,   846.311, 0.000001,-0.000126,-0.009960,-0.000009, 0.000026, 0.000191,-0.532830,-0.052371, 0.025745,1,-0.000578, 0.003066, 0.019737,1, 0.000601,-0.011956,-0.995759,-0.000733, 0.002878, 0.019427, 0.119010, 0.246475,-0.113946,-0.000000, 0.000000,-0.000000,1,0
1777416007182885828,846331000000,   846.331, 0.000008,-0.000116,-0.009952,-0.000012, 0.000033, 0.000188,-0.538872,-0.059460, 0.021988,1,-0.000816, 0.002936, 0.019312,1, 0.000690,-0.011914,-0.995799,-0.000983, 0.003150, 0.019064, 0.118904, 0.246309,-0.114865,-0.000000, 0.000000,-0.000000,1,0
1777416007192557209,846351000000,   846.351, 0.000013,-0.000114,-0.009958,-0.000012, 0.000035, 0.000183,-0.533166,-0.056722, 0.026191,1,-0.001054, 0.002975, 0.019021,1, 0.001231,-0.011636,-0.995880,-0.001034, 0.003228, 0.018670, 0.118991, 0.246269,-0.114799,-0.000000, 0.000000,-0.000000,1,0
1777416007202640173,846351000000,   846.351, 0.000013,-0.000114,-0.009958,-0.000012, 0.000035, 0.000183,-0.533166,-0.056722, 0.026191,1,-0.001054, 0.002975, 0.019021,1, 0.001231,-0.011636,-0.995880,-0.001034, 0.003228, 0.018670, 0.118991, 0.246269,-0.114799,-0.000000, 0.000000,-0.000000,1,0
1777416007212321830,846371000000,   846.371, 0.000017,-0.000105,-0.009962,-0.000015, 0.000032, 0.000182,-0.530046,-0.049434, 0.027300,1,-0.001052, 0.003261, 0.018480,1, 0.001614,-0.010891,-0.995948,-0.001278, 0.003207, 0.018312, 0.118548, 0.246223,-0.114055,-0.000000, 0.000000,-0.000000,1,0
1777416007222405275,846371000000,   846.371, 0.000017,-0.000105,-0.009962,-0.000015, 0.000032, 0.000182,-0.530046,-0.049434, 0.027300,1,-0.001052, 0.003261, 0.018480,1, 0.001614,-0.010891,-0.995948,-0.001278, 0.003207, 0.018312, 0.118548, 0.246223,-0.114055,-0.000000, 0.000000,-0.000000,1,0
1777416007232015762,846391000000,   846.391, 0.000029,-0.000102,-0.009960,-0.000016, 0.000028, 0.000183,-0.525597,-0.047023, 0.027179,1,-0.001634, 0.003531, 0.018355,1, 0.002454,-0.010608,-0.995841,-0.001611, 0.003175, 0.018345, 0.118495, 0.246483,-0.113562,-0.000000, 0.000000,-0.000000,1,0
1777416007242098966,846391000000,   846.391, 0.000029,-0.000102,-0.009960,-0.000016, 0.000028, 0.000183,-0.525597,-0.047023, 0.027179,1,-0.001634, 0.003531, 0.018355,1, 0.002454,-0.010608,-0.995841,-0.001611, 0.003175, 0.018345, 0.118495, 0.246483,-0.113562,-0.000000, 0.000000,-0.000000,1,0
1777416007261881213,846411000000,   846.411, 0.000031,-0.000089,-0.009963,-0.000012, 0.000029, 0.000182,-0.519861,-0.039441, 0.027109,1,-0.001491, 0.003299, 0.018176,1, 0.002856,-0.009566,-0.995950,-0.001370, 0.003094, 0.018231, 0.118110, 0.246331,-0.114002,-0.000000, 0.000000,-0.000000,1,0
1777416007271490959,846431000000,   846.431, 0.000023,-0.000082,-0.009959,-0.000009, 0.000034, 0.000191,-0.512075,-0.029455, 0.024939,1,-0.001028, 0.003112, 0.017928,1, 0.002419,-0.008676,-0.995845,-0.000953, 0.003273, 0.018438, 0.118338, 0.246016,-0.114855,-0.000000, 0.000000,-0.000000,1,0
1777416007281573330,846431000000,   846.431, 0.000023,-0.000082,-0.009959,-0.000009, 0.000034, 0.000191,-0.512075,-0.029455, 0.024939,1,-0.001028, 0.003112, 0.017928,1, 0.002419,-0.008676,-0.995845,-0.000953, 0.003273, 0.018438, 0.118338, 0.246016,-0.114855,-0.000000, 0.000000,-0.000000,1,0
1777416007291250377,846441000000,   846.446, 0.000024,-0.000082,-0.009963,-0.000007, 0.000036, 0.000189,-0.510689,-0.022508, 0.023502,1,-0.000838, 0.003369, 0.018646,1, 0.002451,-0.008449,-0.996097,-0.000838, 0.003369, 0.018646, 0.118447, 0.246075,-0.114937,-0.000000, 0.000000,-0.000000,1,0
1777416007301346153,846441000000,   846.446, 0.000024,-0.000082,-0.009963,-0.000007, 0.000036, 0.000189,-0.510689,-0.022508, 0.023502,1,-0.000838, 0.003369, 0.018646,1, 0.002451,-0.008449,-0.996097,-0.000838, 0.003369, 0.018646, 0.118447, 0.246075,-0.114937,-0.000000, 0.000000,-0.000000,1,0
1777416007311003056,846461000000,   846.466, 0.000021,-0.000088,-0.009960,-0.000003, 0.000033, 0.000196,-0.512785,-0.023158, 0.026480,1,-0.000448, 0.003394, 0.019213,1, 0.002208,-0.008529,-0.995795,-0.000449, 0.003395, 0.019213, 0.118746, 0.245948,-0.114949,-0.000000, 0.000000,-0.000000,1,0
1777416007321086056,846461000000,   846.466, 0.000021,-0.000088,-0.009960,-0.000003, 0.000033, 0.000196,-0.512785,-0.023158, 0.026480,1,-0.000448, 0.003394, 0.019213,1, 0.002208,-0.008529,-0.995795,-0.000449, 0.003395, 0.019213, 0.118746, 0.245948,-0.114949,-0.000000, 0.000000,-0.000000,1,0
1777416007340874265,846481000000,   846.486, 0.000019,-0.000099,-0.009962,-0.000009, 0.000036, 0.000194,-0.515220,-0.031976, 0.024925,1,-0.000737, 0.003785, 0.019218,1, 0.002003,-0.009439,-0.995951,-0.000737, 0.003785, 0.019218, 0.118809, 0.246299,-0.114775,-0.000000, 0.000000,-0.000000,1,0
1777416007350425708,846501000000,   846.506, 0.000016,-0.000112,-0.009955,-0.000015, 0.000036, 0.000199,-0.518947,-0.043148, 0.026371,1,-0.001005, 0.003584, 0.019605,1, 0.001685,-0.010586,-0.995800,-0.001005, 0.003584, 0.019605, 0.118873, 0.246429,-0.114207,-0.000000, 0.000000,-0.000000,1,0
1777416007360509301,846501000000,   846.506, 0.000016,-0.000112,-0.009955,-0.000015, 0.000036, 0.000199,-0.518947,-0.043148, 0.026371,1,-0.001005, 0.003584, 0.019605,1, 0.001685,-0.010586,-0.995800,-0.001005, 0.003584, 0.019605, 0.118873, 0.246429,-0.114207,-0.000000, 0.000000,-0.000000,1,0
1777416007370185237,846521000000,   846.526, 0.000007,-0.000125,-0.009950,-0.000008, 0.000033, 0.000190,-0.524831,-0.054760, 0.029795,1,-0.000784, 0.003476, 0.019329,1, 0.001152,-0.011774,-0.995447,-0.000784, 0.003476, 0.019329, 0.118850, 0.246492,-0.114483,-0.000000, 0.000000,-0.000000,1,0
1777416007380268294,846521000000,   846.526, 0.000007,-0.000125,-0.009950,-0.000008, 0.000033, 0.000190,-0.524831,-0.054760, 0.029795,1,-0.000784, 0.003476, 0.019329,1, 0.001152,-0.011774,-0.995447,-0.000784, 0.003476, 0.019329, 0.118850, 0.246492,-0.114483,-0.000000, 0.000000,-0.000000,1,0
1777416007399999866,846541000000,   846.546, 0.000010,-0.000123,-0.009954,-0.000023, 0.000036, 0.000182,-0.526605,-0.058676, 0.027015,1,-0.001653, 0.003583, 0.018567,1, 0.001039,-0.012170,-0.995727,-0.001653, 0.003583, 0.018567, 0.118998, 0.246543,-0.114303,-0.000000, 0.000000,-0.000000,1,0
1777416007409677764,846561000000,   846.566, 0.000023,-0.000107,-0.009962,-0.000009, 0.000035, 0.000176,-0.519270,-0.049823, 0.025501,1,-0.001158, 0.003458, 0.018091,1, 0.001855,-0.011261,-0.995877,-0.001158, 0.003458, 0.018091, 0.118731, 0.245958,-0.114983,-0.000000, 0.000000,-0.000000,1,0
1777416007419761061,846561000000,   846.566, 0.000023,-0.000107,-0.009962,-0.000009, 0.000035, 0.000176,-0.519270,-0.049823, 0.025501,1,-0.001158, 0.003458, 0.018091,1, 0.001855,-0.011261,-0.995877,-0.001158, 0.003458, 0.018091, 0.118731, 0.245958,-0.114983,-0.000000, 0.000000,-0.000000,1,0
1777416007429373492,846581000000,   846.586, 0.000018,-0.000097,-0.009958,-0.000014, 0.000038, 0.000179,-0.520540,-0.038937, 0.026133,1,-0.001351, 0.003561, 0.018124,1, 0.001791,-0.010146,-0.995809,-0.001351, 0.003561, 0.018124, 0.118622, 0.245900,-0.115039,-0.000000, 0.000000,-0.000000,1,0
1777416007439456659,846581000000,   846.586, 0.000018,-0.000097,-0.009958,-0.000014, 0.000038, 0.000179,-0.520540,-0.038937, 0.026133,1,-0.001351, 0.003561, 0.018124,1, 0.001791,-0.010146,-0.995809,-0.001351, 0.003561, 0.018124, 0.118622, 0.245900,-0.115039,-0.000000, 0.000000,-0.000000,1,0
1777416007449119468,846601000000,   846.606, 0.000013,-0.000085,-0.009964,-0.000010, 0.000034, 0.000184,-0.523141,-0.028730, 0.024848,1,-0.001376, 0.003125, 0.018252,1, 0.001587,-0.009094,-0.995937,-0.001376, 0.003125, 0.018252, 0.118516, 0.246126,-0.115013,-0.000000, 0.000000,-0.000000,1,0
1777416007459215189,846601000000,   846.606, 0.000013,-0.000085,-0.009964,-0.000010, 0.000034, 0.000184,-0.523141,-0.028730, 0.024848,1,-0.001376, 0.003125, 0.018252,1, 0.001587,-0.009094,-0.995937,-0.001376, 0.003125, 0.018252, 0.118516, 0.246126,-0.115013,-0.000000, 0.000000,-0.000000,1,0
1777416007474724370,846621000000,   846.626, 0.000016,-0.000082,-0.009963,-0.000007, 0.000024, 0.000189,-0.513941,-0.022595, 0.025054,1,-0.000786, 0.002772, 0.018658,1, 0.001623,-0.008508,-0.995965,-0.000787, 0.002772, 0.018658, 0.119012, 0.246250,-0.114661,-0.000000, 0.000000,-0.000000,1,0
1777416007484423320,846641000000,   846.646, 0.000021,-0.000089,-0.009955,-0.000003, 0.000028, 0.000186,-0.508352,-0.025624, 0.026472,1,-0.000688, 0.002910, 0.018572,1, 0.001910,-0.008835,-0.995836,-0.000688, 0.002910, 0.018572, 0.118669, 0.246226,-0.114236,-0.000000, 0.000000,-0.000000,1,0
1777416007494505413,846641000000,   846.646, 0.000021,-0.000089,-0.009955,-0.000003, 0.000028, 0.000186,-0.508352,-0.025624, 0.026472,1,-0.000688, 0.002910, 0.018572,1, 0.001910,-0.008835,-0.995836,-0.000688, 0.002910, 0.018572, 0.118669, 0.246226,-0.114236,-0.000000, 0.000000,-0.000000,1,0
1777416007504175387,846661000000,   846.661, 0.000030,-0.000100,-0.009954,-0.000007, 0.000035, 0.000196,-0.501889,-0.031670, 0.027509,1,-0.000733, 0.003160, 0.019037,1, 0.002525,-0.009463,-0.995732,-0.000733, 0.003160, 0.019037, 0.118822, 0.246250,-0.113713,-0.000000, 0.000000,-0.000000,1,0
1777416007514257833,846661000000,   846.661, 0.000030,-0.000100,-0.009954,-0.000007, 0.000035, 0.000196,-0.501889,-0.031670, 0.027509,1,-0.000733, 0.003160, 0.019037,1, 0.002525,-0.009463,-0.995732,-0.000733, 0.003160, 0.019037, 0.118822, 0.246250,-0.113713,-0.000000, 0.000000,-0.000000,1,0
1777416007533986461,846681000000,   846.681, 0.000028,-0.000106,-0.009957,-0.000016, 0.000032, 0.000196,-0.499891,-0.038287, 0.026860,1,-0.001350, 0.003022, 0.019183,1, 0.002758,-0.010138,-0.995797,-0.001350, 0.003023, 0.019183, 0.119200, 0.246483,-0.114511,-0.000000, 0.000000,-0.000000,1,0
1777416007543290566,846701000000,   846.701, 0.000018,-0.000115,-0.009961,-0.000015, 0.000039, 0.000185,-0.502929,-0.043311, 0.026779,1,-0.001113, 0.002853, 0.019057,1, 0.002165,-0.011034,-0.995951,-0.001304, 0.003365, 0.018795, 0.119109, 0.246416,-0.115045,-0.000000, 0.000000,-0.000000,1,0
1777416007553389897,846701000000,   846.701, 0.000018,-0.000115,-0.009961,-0.000015, 0.000039, 0.000185,-0.502929,-0.043311, 0.026779,1,-0.001113, 0.002853, 0.019057,1, 0.002165,-0.011034,-0.995951,-0.001304, 0.003365, 0.018795, 0.119109, 0.246416,-0.115045,-0.000000, 0.000000,-0.000000,1,0
1777416007563042838,846721000000,   846.721, 0.000013,-0.000124,-0.009964,-0.000013, 0.000030, 0.000185,-0.510824,-0.051806, 0.028396,1,-0.001364, 0.003260, 0.018709,1, 0.001529,-0.011910,-0.995972,-0.001333, 0.003188, 0.018611, 0.119116, 0.245933,-0.115000,-0.000000, 0.000000,-0.000000,1,0
1777416007573127023,846721000000,   846.721, 0.000013,-0.000124,-0.009964,-0.000013, 0.000030, 0.000185,-0.510824,-0.051806, 0.028396,1,-0.001364, 0.003260, 0.018709,1, 0.001529,-0.011910,-0.995972,-0.001333, 0.003188, 0.018611, 0.119116, 0.245933,-0.115000,-0.000000, 0.000000,-0.000000,1,0
1777416007592860095,846741000000,   846.741, 0.000004,-0.000116,-0.009958,-0.000014, 0.000033, 0.000177,-0.520668,-0.056508, 0.028060,1,-0.001135, 0.003146, 0.018362,1, 0.000640,-0.011780,-0.995712,-0.001214, 0.003234, 0.018089, 0.118885, 0.246196,-0.114371,-0.000000, 0.000000,-0.000000,1,0
1777416007602534365,846761000000,   846.761, 0.000004,-0.000106,-0.009953,-0.000018, 0.000025, 0.000172,-0.524243,-0.051296, 0.026991,1,-0.001424, 0.003104, 0.018006,1, 0.000449,-0.011045,-0.995514,-0.001581, 0.002805, 0.017654, 0.118503, 0.245964,-0.114021,-0.000000, 0.000000,-0.000000,1,0
1777416007612618198,846761000000,   846.761, 0.000004,-0.000106,-0.009953,-0.000018, 0.000025, 0.000172,-0.524243,-0.051296, 0.026991,1,-0.001424, 0.003104, 0.018006,1, 0.000449,-0.011045,-0.995514,-0.001581, 0.002805, 0.017654, 0.118503, 0.245964,-0.114021,-0.000000, 0.000000,-0.000000,1,0
1777416007622290191,846781000000,   846.781, 0.000020,-0.000091,-0.009954,-0.000014, 0.000028, 0.000178,-0.519791,-0.042708, 0.026502,1,-0.001846, 0.002912, 0.017525,1, 0.001438,-0.009886,-0.995598,-0.001623, 0.002866, 0.017658, 0.118483, 0.246143,-0.113759,-0.000000, 0.000000,-0.000000,1,0
1777416007632373877,846781000000,   846.781, 0.000020,-0.000091,-0.009954,-0.000014, 0.000028, 0.000178,-0.519791,-0.042708, 0.026502,1,-0.001846, 0.002912, 0.017525,1, 0.001438,-0.009886,-0.995598,-0.001623, 0.002866, 0.017658, 0.118483, 0.246143,-0.113759,-0.000000, 0.000000,-0.000000,1,0
1777416007652045517,846801000000,   846.801, 0.000030,-0.000098,-0.009956,-0.000013, 0.000021, 0.000180,-0.510207,-0.030899, 0.026577,1,-0.001747, 0.003055, 0.017754,1, 0.002477,-0.009536,-0.995726,-0.001559, 0.002628, 0.017888, 0.118453, 0.246205,-0.114848,-0.000000, 0.000000,-0.000000,1,0
1777416007671860294,846821000000,   846.821, 0.000030,-0.000111,-0.009981,-0.000018, 0.000034, 0.000179,-0.498952,-0.033648, 0.028077,1,-0.001380, 0.002629, 0.018064,1, 0.002856,-0.010388,-0.996917,-0.001537, 0.003019, 0.018001, 0.118769, 0.246135,-0.115089,-0.000000, 0.000000,-0.000000,1,0
1777416007681469318,846841000000,   846.841, 0.000043,-0.000072,-0.009967,-0.000008, 0.000043, 0.000182,-0.490407,-0.038116, 0.035244,1,-0.001349, 0.003752, 0.018096,1, 0.003643,-0.008773,-0.996085,-0.001118, 0.003966, 0.018165, 0.118810, 0.246486,-0.114944,-0.000000, 0.000000,-0.000000,1,0
1777416007691552355,846841000000,   846.841, 0.000043,-0.000072,-0.009967,-0.000008, 0.000043, 0.000182,-0.490407,-0.038116, 0.035244,1,-0.001349, 0.003752, 0.018096,1, 0.003643,-0.008773,-0.996085,-0.001118, 0.003966, 0.018165, 0.118810, 0.246486,-0.114944,-0.000000, 0.000000,-0.000000,1,0
1777416007701226292,846851000000,   846.856, 0.000024,-0.000050,-0.009964,-0.000002, 0.000019, 0.000194,-0.489156,-0.008366, 0.026409,1,-0.000690, 0.003072, 0.018747,1, 0.002952,-0.007063,-0.995891,-0.000690, 0.003072, 0.018746, 0.118773, 0.246653,-0.114049,-0.000000, 0.000000,-0.000000,1,0
1777416007711308922,846851000000,   846.856, 0.000024,-0.000050,-0.009964,-0.000002, 0.000019, 0.000194,-0.489156,-0.008366, 0.026409,1,-0.000690, 0.003072, 0.018747,1, 0.002952,-0.007063,-0.995891,-0.000690, 0.003072, 0.018746, 0.118773, 0.246653,-0.114049,-0.000000, 0.000000,-0.000000,1,0
1777416007730976600,846871000000,   846.876, 0.000024,-0.000060,-0.009965,-0.000007, 0.000032, 0.000202,-0.491634,-0.000720, 0.024330,1,-0.000942, 0.003534, 0.019624,1, 0.002714,-0.006285,-0.996102,-0.000942, 0.003534, 0.019624, 0.118387, 0.246614,-0.113575,-0.000000, 0.000000,-0.000000,1,0
1777416007740649148,846891000000,   846.896, 0.000025,-0.000101,-0.009973,-0.000001, 0.000030, 0.000202,-0.492750,-0.025016, 0.022077,1,-0.000634, 0.003475, 0.020057,1, 0.002655,-0.008765,-0.996329,-0.000634, 0.003475, 0.020057, 0.118499, 0.246225,-0.114054,-0.000000, 0.000000,-0.000000,1,0
1777416007750730982,846891000000,   846.896, 0.000025,-0.000101,-0.009973,-0.000001, 0.000030, 0.000202,-0.492750,-0.025016, 0.022077,1,-0.000634, 0.003475, 0.020057,1, 0.002655,-0.008765,-0.996329,-0.000634, 0.003475, 0.020057, 0.118499, 0.246225,-0.114054,-0.000000, 0.000000,-0.000000,1,0
1777416007760404049,846911000000,   846.916, 0.000025,-0.000129,-0.009968, 0.000001, 0.000039, 0.000198,-0.493432,-0.046960, 0.025814,1,-0.000271, 0.003991, 0.019926,1, 0.002656,-0.011015,-0.995944,-0.000271, 0.003991, 0.019926, 0.118943, 0.245910,-0.114435,-0.000000, 0.000000,-0.000000,1,0
1777416007770486068,846911000000,   846.916, 0.000025,-0.000129,-0.009968, 0.000001, 0.000039, 0.000198,-0.493432,-0.046960, 0.025814,1,-0.000271, 0.003991, 0.019926,1, 0.002656,-0.011015,-0.995944,-0.000271, 0.003991, 0.019926, 0.118943, 0.245910,-0.114435,-0.000000, 0.000000,-0.000000,1,0
1777416007780153691,846931000000,   846.936, 0.000020,-0.000129,-0.009964,-0.000007, 0.000028, 0.000192,-0.497628,-0.063285, 0.028301,1,-0.000408, 0.003478, 0.019456,1, 0.002302,-0.012692,-0.995687,-0.000408, 0.003478, 0.019456, 0.118489, 0.245958,-0.114742,-0.000000, 0.000000,-0.000000,1,0
1777416007790235414,846931000000,   846.936, 0.000020,-0.000129,-0.009964,-0.000007, 0.000028, 0.000192,-0.497628,-0.063285, 0.028301,1,-0.000408, 0.003478, 0.019456,1, 0.002302,-0.012692,-0.995687,-0.000408, 0.003478, 0.019456, 0.118489, 0.245958,-0.114742,-0.000000, 0.000000,-0.000000,1,0
1777416007809973522,846951000000,   846.956,-0.000001,-0.000137,-0.009948,-0.000016, 0.000021, 0.000183,-0.505094,-0.064532, 0.029459,1,-0.001136, 0.003247, 0.018808,1, 0.001613,-0.012830,-0.995565,-0.001136, 0.003247, 0.018808, 0.118928, 0.246025,-0.114671,-0.000000, 0.000000,-0.000000,1,0
1777416007819644515,846971000000,   846.976,-0.000024,-0.000142,-0.009961,-0.000013, 0.000022, 0.000178,-0.530429,-0.070586, 0.020952,1,-0.001645, 0.002564, 0.018155,1,-0.000912,-0.013445,-0.996429,-0.001645, 0.002564, 0.018155, 0.118617, 0.245853,-0.113770,-0.000000, 0.000000,-0.000000,1,0
1777416007829726441,846971000000,   846.976,-0.000024,-0.000142,-0.009961,-0.000013, 0.000022, 0.000178,-0.530429,-0.070586, 0.020952,1,-0.001645, 0.002564, 0.018155,1,-0.000912,-0.013445,-0.996429,-0.001645, 0.002564, 0.018155, 0.118617, 0.245853,-0.113770,-0.000000, 0.000000,-0.000000,1,0
1777416007839331392,846991000000,   846.996,-0.000034,-0.000151,-0.009971,-0.000030, 0.000021, 0.000165,-0.548899,-0.083550, 0.019852,1,-0.002516, 0.002246, 0.017100,1,-0.002749,-0.014746,-0.996539,-0.002516, 0.002246, 0.017100, 0.118635, 0.245973,-0.114225,-0.000000, 0.000000,-0.000000,1,0
1777416007849421021,846991000000,   846.996,-0.000034,-0.000151,-0.009971,-0.000030, 0.000021, 0.000165,-0.548899,-0.083550, 0.019852,1,-0.002516, 0.002246, 0.017100,1,-0.002749,-0.014746,-0.996539,-0.002516, 0.002246, 0.017100, 0.118635, 0.245973,-0.114225,-0.000000, 0.000000,-0.000000,1,0
1777416007859117934,847011000000,   847.016,-0.000013,-0.000142,-0.009946,-0.000038, 0.000017, 0.000154,-0.535727,-0.079530, 0.028288,1,-0.003148, 0.002293, 0.015988,1,-0.001941,-0.014309,-0.995707,-0.003148, 0.002293, 0.015988, 0.117948, 0.246277,-0.114481,-0.000000, 0.000000,-0.000000,1,0
1777416007869208230,847011000000,   847.016,-0.000013,-0.000142,-0.009946,-0.000038, 0.000017, 0.000154,-0.535727,-0.079530, 0.028288,1,-0.003148, 0.002293, 0.015988,1,-0.001941,-0.014309,-0.995707,-0.003148, 0.002293, 0.015988, 0.117948, 0.246277,-0.114481,-0.000000, 0.000000,-0.000000,1,0
1777416007888915566,847031000000,   847.036, 0.000027,-0.000143,-0.009962,-0.000050, 0.000038, 0.000139,-0.500868,-0.074272, 0.022865,1,-0.004151, 0.002971, 0.014517,1, 0.001016,-0.013725,-0.996292,-0.004151, 0.002971, 0.014517, 0.118420, 0.245996,-0.114675,-0.000000, 0.000000,-0.000000,1,0
1777416007904530059,847051000000,   847.056, 0.000055,-0.000176,-0.010015,-0.000083, 0.000061, 0.000142,-0.459752,-0.094512,-0.000728,1,-0.005794, 0.005087, 0.014175,1, 0.005095,-0.015705,-0.998704,-0.005795, 0.005088, 0.014175, 0.118481, 0.246365,-0.114626,-0.000000, 0.000000,-0.000000,1,0
1777416007914151376,847071000000,   847.071, 0.000015,-0.000262,-0.009996,-0.000147, 0.000059, 0.000118,-0.475625,-0.156594,-0.002020,1,-0.011188, 0.005335, 0.012964,1, 0.003511,-0.021880,-0.998835,-0.011188, 0.005335, 0.012964, 0.118670, 0.246500,-0.115015,-0.000000, 0.000000,-0.000000,1,0
1777416007924237839,847071000000,   847.071, 0.000015,-0.000262,-0.009996,-0.000147, 0.000059, 0.000118,-0.475625,-0.156594,-0.002020,1,-0.011188, 0.005335, 0.012964,1, 0.003511,-0.021880,-0.998835,-0.011188, 0.005335, 0.012964, 0.118670, 0.246500,-0.115015,-0.000000, 0.000000,-0.000000,1,0
1777416007943964801,847091000000,   847.091, 0.000107,-0.000205,-0.009978,-0.000126, 0.000100, 0.000068,-0.452028,-0.168604, 0.032829,1,-0.011862, 0.008348, 0.009471,1, 0.006047,-0.022858,-0.995276,-0.011862, 0.008348, 0.009471, 0.118811, 0.246608,-0.113620,-0.000000, 0.000000,-0.000000,1,0
1777416007953264444,847111000000,   847.111, 0.000133, 0.000071,-0.009989,-0.000088, 0.000063, 0.000075,-0.418594,-0.115850, 0.069066,1,-0.010835, 0.008711, 0.008644,1, 0.011222,-0.005400,-0.994346,-0.009641, 0.007748, 0.008152, 0.118454, 0.246153,-0.113768,-0.000000, 0.000000,-0.000000,1,0
1777416007963348297,847111000000,   847.111, 0.000133, 0.000071,-0.009989,-0.000088, 0.000063, 0.000075,-0.418594,-0.115850, 0.069066,1,-0.010835, 0.008711, 0.008644,1, 0.011222,-0.005400,-0.994346,-0.009641, 0.007748, 0.008152, 0.118454, 0.246153,-0.113768,-0.000000, 0.000000,-0.000000,1,0
1777416007973022289,847131000000,   847.131, 0.000066, 0.000314,-0.010167,-0.000053, 0.000057, 0.000152,-0.391943, 0.135008, 0.072977,1,-0.008714, 0.006253, 0.008749,1, 0.010379, 0.019678,-1.002239,-0.007655, 0.005701, 0.011646, 0.118434, 0.246057,-0.113828,-0.000000, 0.000000,-0.000000,1,0
1777416007983104901,847131000000,   847.131, 0.000066, 0.000314,-0.010167,-0.000053, 0.000057, 0.000152,-0.391943, 0.135008, 0.072977,1,-0.008714, 0.006253, 0.008749,1, 0.010379, 0.019678,-1.002239,-0.007655, 0.005701, 0.011646, 0.118434, 0.246057,-0.113828,-0.000000, 0.000000,-0.000000,1,0
1777416008002838009,847151000000,   847.151, 0.000065,-0.000037,-0.010149, 0.000009, 0.000005, 0.000234,-0.438439, 0.303946, 0.081202,1,-0.004757, 0.005439, 0.015751,1, 0.006861, 0.012139,-1.000263,-0.002316, 0.003045, 0.019171, 0.118396, 0.246167,-0.114409,-0.000000, 0.000000,-0.000000,1,0
1777416008012516573,847171000000,   847.171,-0.000035,-0.000032,-0.009932, 0.000081, 0.000009, 0.000243,-0.485029, 0.155927, 0.038899,1,-0.000153, 0.003046, 0.020282,1,-0.000451, 0.003932,-0.992863, 0.003560, 0.002060, 0.022104, 0.118636, 0.245850,-0.114929,-0.000000, 0.000000,-0.000000,1,0
1777416008022599299,847171000000,   847.171,-0.000035,-0.000032,-0.009932, 0.000081, 0.000009, 0.000243,-0.485029, 0.155927, 0.038899,1,-0.000153, 0.003046, 0.020282,1,-0.000451, 0.003932,-0.992863, 0.003560, 0.002060, 0.022104, 0.118636, 0.245850,-0.114929,-0.000000, 0.000000,-0.000000,1,0
1777416008032215269,847191000000,   847.191,-0.000008,-0.000031,-0.009743, 0.000069, 0.000024, 0.000229,-0.506457, 0.011678,-0.052338,1, 0.004509, 0.001661, 0.022532,1, 0.000213,-0.003155,-0.989978, 0.005609, 0.001998, 0.022657, 0.118366, 0.245804,-0.114439,-0.000000, 0.000000,-0.000000,1,0
1777416008042297587,847191000000,   847.191,-0.000008,-0.000031,-0.009743, 0.000069, 0.000024, 0.000229,-0.506457, 0.011678,-0.052338,1, 0.004509, 0.001661, 0.022532,1, 0.000213,-0.003155,-0.989978, 0.005609, 0.001998, 0.022657, 0.118366, 0.245804,-0.114439,-0.000000, 0.000000,-0.000000,1,0
1777416008062023833,847211000000,   847.211,-0.000064,-0.000140,-0.010054, 0.000066,-0.000002, 0.000258,-0.508669, 0.039912, 0.042926,1, 0.008374, 0.000165, 0.023845,1,-0.002170,-0.007732,-0.999814, 0.007391, 0.000078, 0.024723, 0.118215, 0.245842,-0.114126,-0.000000, 0.000000,-0.000000,1,0
1777416008081338291,847221000000,   847.226,-0.000057,-0.000087,-0.009919, 0.000005, 0.000025, 0.000259,-0.541699,-0.023773, 0.032002,1, 0.004163, 0.001233, 0.025238,1,-0.003689,-0.008172,-0.995390, 0.004163, 0.001233, 0.025238, 0.118590, 0.246002,-0.114604,-0.000000, 0.000000,-0.000000,1,0
1777416008091013045,847241000000,   847.246,-0.000033,-0.000347,-0.009958, 0.000014, 0.000004, 0.000264,-0.542836,-0.153516, 0.033597,1, 0.002860, 0.001434, 0.026236,1,-0.004151,-0.021545,-0.995245, 0.002860, 0.001435, 0.026236, 0.118736, 0.246236,-0.114914,-0.000000, 0.000000,-0.000000,1,0
1777416008101095234,847241000000,   847.246,-0.000033,-0.000347,-0.009958, 0.000014, 0.000004, 0.000264,-0.542836,-0.153516, 0.033597,1, 0.002860, 0.001434, 0.026236,1,-0.004151,-0.021545,-0.995245, 0.002860, 0.001435, 0.026236, 0.118736, 0.246236,-0.114914,-0.000000, 0.000000,-0.000000,1,0
1777416008120832736,847261000000,   847.266,-0.000018,-0.000187,-0.009949, 0.000012, 0.000048, 0.000211,-0.531109,-0.155955, 0.032090,1, 0.001980, 0.003766, 0.023023,1,-0.003010,-0.021874,-0.995401, 0.001980, 0.003766, 0.023023, 0.118553, 0.246578,-0.114071,-0.000000, 0.000000,-0.000000,1,0
1777416008130504787,847281000000,   847.286,-0.000013,-0.000288,-0.009936,-0.000001, 0.000023, 0.000169,-0.507899,-0.194989, 0.038089,1, 0.000555, 0.003408, 0.019441,1,-0.000600,-0.025907,-0.994787, 0.000555, 0.003408, 0.019441, 0.118896, 0.246135,-0.114457,-0.000000, 0.000000,-0.000000,1,0
1777416008140586680,847281000000,   847.286,-0.000013,-0.000288,-0.009936,-0.000001, 0.000023, 0.000169,-0.507899,-0.194989, 0.038089,1, 0.000555, 0.003408, 0.019441,1,-0.000600,-0.025907,-0.994787, 0.000555, 0.003408, 0.019441, 0.118896, 0.246135,-0.114457,-0.000000, 0.000000,-0.000000,1,0
1777416008150203963,847301000000,   847.306, 0.000060,-0.000176,-0.009803, 0.000008, 0.000101, 0.000118,-0.466789,-0.155110, 0.088534,1, 0.000027, 0.007784, 0.014552,1, 0.003702,-0.021853,-0.989637, 0.000026, 0.007785, 0.014552, 0.118901, 0.246029,-0.114819,-0.000000, 0.000000,-0.000000,1,0
1777416008160286819,847301000000,   847.306, 0.000060,-0.000176,-0.009803, 0.000008, 0.000101, 0.000118,-0.466789,-0.155110, 0.088534,1, 0.000027, 0.007784, 0.014552,1, 0.003702,-0.021853,-0.989637, 0.000026, 0.007785, 0.014552, 0.118901, 0.246029,-0.114819,-0.000000, 0.000000,-0.000000,1,0
1777416008180015971,847321000000,   847.326, 0.000035,-0.000092,-0.009853,-0.000032, 0.000052, 0.000099,-0.451749,-0.084213, 0.064997,1,-0.002094, 0.006546, 0.011329,1, 0.005385,-0.014616,-0.992029,-0.002094, 0.006546, 0.011329, 0.118559, 0.246527,-0.114821,-0.000000, 0.000000,-0.000000,1,0
1777416008199826755,847341000000,   847.346, 0.000001,-0.000024,-0.010014,-0.000002, 0.000140, 0.000129,-0.485587, 0.006922,-0.003798,1,-0.000607, 0.010721, 0.012073,1, 0.002103,-0.005314,-0.999036,-0.000607, 0.010721, 0.012073, 0.118416, 0.246556,-0.114249,-0.000000, 0.000000,-0.000000,1,0
1777416008209450722,847361000000,   847.366, 0.000067, 0.000042,-0.009986,-0.000035, 0.000147, 0.000157,-0.469035, 0.059741, 0.011205,1,-0.002430, 0.013251, 0.014292,1, 0.004035, 0.000088,-0.997493,-0.002430, 0.013251, 0.014292, 0.118744, 0.245888,-0.114257,-0.000000, 0.000000,-0.000000,1,0
1777416008219534559,847361000000,   847.366, 0.000067, 0.000042,-0.009986,-0.000035, 0.000147, 0.000157,-0.469035, 0.059741, 0.011205,1,-0.002430, 0.013251, 0.014292,1, 0.004035, 0.000088,-0.997493,-0.002430, 0.013251, 0.014292, 0.118744, 0.245888,-0.114257,-0.000000, 0.000000,-0.000000,1,0
1777416008229128811,847381000000,   847.386, 0.000093, 0.000038,-0.010024,-0.000040, 0.000083, 0.000208,-0.439311, 0.087838, 0.011920,1,-0.003169, 0.010493, 0.018430,1, 0.007310, 0.002982,-0.997408,-0.003169, 0.010493, 0.018430, 0.118742, 0.245894,-0.114254,-0.000000, 0.000000,-0.000000,1,0
1777416008239224571,847381000000,   847.386, 0.000093, 0.000038,-0.010024,-0.000040, 0.000083, 0.000208,-0.439311, 0.087838, 0.011920,1,-0.003169, 0.010493, 0.018430,1, 0.007310, 0.002982,-0.997408,-0.003169, 0.010493, 0.018430, 0.118742, 0.245894,-0.114254,-0.000000, 0.000000,-0.000000,1,0
1777416008258949965,847401000000,   847.406, 0.000086, 0.000098,-0.009901, 0.000002,-0.000012, 0.000264,-0.426290, 0.141198, 0.069302,1,-0.002164, 0.003174, 0.023220,1, 0.008765, 0.008469,-0.991550,-0.002164, 0.003174, 0.023220, 0.118477, 0.245816,-0.114680,-0.000000, 0.000000,-0.000000,1,0
1777416008274510761,847421000000,   847.426, 0.000022, 0.000052,-0.009804,-0.000003, 0.000003, 0.000299,-0.449684, 0.116822, 0.055220,1,-0.000947, 0.000453, 0.027709,1, 0.005353, 0.005999,-0.993039,-0.000947, 0.000453, 0.027709, 0.118261, 0.245767,-0.114543,-0.000000, 0.000000,-0.000000,1,0
1777416008284190014,847441000000,   847.446, 0.000083,-0.000165,-0.010004, 0.000052, 0.000041, 0.000295,-0.429577,-0.017342,-0.005366,1, 0.003276, 0.002631, 0.029434,1, 0.007063,-0.007739,-0.999235, 0.003276, 0.002631, 0.029434, 0.118367, 0.245879,-0.114798,-0.000000, 0.000000,-0.000000,1,0
1777416008294272296,847441000000,   847.446, 0.000083,-0.000165,-0.010004, 0.000052, 0.000041, 0.000295,-0.429577,-0.017342,-0.005366,1, 0.003276, 0.002631, 0.029434,1, 0.007063,-0.007739,-0.999235, 0.003276, 0.002631, 0.029434, 0.118367, 0.245879,-0.114798,-0.000000, 0.000000,-0.000000,1,0
1777416008314012760,847461000000,   847.461, 0.000116,-0.000112,-0.010039, 0.000087, 0.000030, 0.000259,-0.404619,-0.047583, 0.001099,1, 0.006788, 0.002956, 0.027302,1, 0.009548,-0.010954,-0.998578, 0.006788, 0.002956, 0.027302, 0.118170, 0.246193,-0.114052,-0.000000, 0.000000,-0.000000,1,0
1777416008333430365,847481000000,   847.481, 0.000107,-0.000205,-0.009970, 0.000066, 0.000050, 0.000243,-0.405763,-0.076534, 0.023974,1, 0.008350, 0.004320, 0.026635,1, 0.010064,-0.017015,-0.997083, 0.007558, 0.004632, 0.025595, 0.118338, 0.245994,-0.113605,-0.000000, 0.000000,-0.000000,1,0
1777416008343070977,847501000000,   847.501, 0.000078,-0.000166,-0.010021, 0.000029, 0.000094, 0.000241,-0.401858,-0.104793, 0.047946,1, 0.006269, 0.005515, 0.024574,1, 0.009088,-0.017055,-0.997828, 0.004685, 0.007422, 0.024312, 0.118514, 0.246242,-0.113851,-0.000000, 0.000000,-0.000000,1,0
1777416008353153426,847501000000,   847.501, 0.000078,-0.000166,-0.010021, 0.000029, 0.000094, 0.000241,-0.401858,-0.104793, 0.047946,1, 0.006269, 0.005515, 0.024574,1, 0.009088,-0.017055,-0.997828, 0.004685, 0.007422, 0.024312, 0.118514, 0.246242,-0.113851,-0.000000, 0.000000,-0.000000,1,0
1777416008372885929,847521000000,   847.521, 0.000139,-0.000177,-0.010016, 0.000009, 0.000151, 0.000243,-0.414307,-0.118142, 0.045064,1, 0.003749, 0.009971, 0.024140,1, 0.011175,-0.018016,-0.997952, 0.002423, 0.012268, 0.024235, 0.118377, 0.246026,-0.114056,-0.000000, 0.000000,-0.000000,1,0
1777416008382572421,847541000000,   847.541, 0.000157,-0.000173,-0.010000, 0.000003, 0.000082, 0.000237,-0.378870,-0.100007, 0.055889,1, 0.001855, 0.011293, 0.024636,1, 0.013620,-0.016597,-0.995623, 0.001090, 0.009669, 0.024152, 0.118591, 0.245873,-0.114513,-0.000000, 0.000000,-0.000000,1,0
1777416008392654536,847541000000,   847.541, 0.000157,-0.000173,-0.010000, 0.000003, 0.000082, 0.000237,-0.378870,-0.100007, 0.055889,1, 0.001855, 0.011293, 0.024636,1, 0.013620,-0.016597,-0.995623, 0.001090, 0.009669, 0.024152, 0.118591, 0.245873,-0.114513,-0.000000, 0.000000,-0.000000,1,0
1777416008402320773,847561000000,   847.561, 0.000206,-0.000053,-0.009955,-0.000013, 0.000079, 0.000233,-0.359126,-0.053866, 0.022980,1,-0.000220, 0.009304, 0.023811,1, 0.017428,-0.008873,-0.995018,-0.000594, 0.008594, 0.023540, 0.118901, 0.246096,-0.114222,-0.000000, 0.000000,-0.000000,1,0
1777416008412403665,847561000000,   847.561, 0.000206,-0.000053,-0.009955,-0.000013, 0.000079, 0.000233,-0.359126,-0.053866, 0.022980,1,-0.000220, 0.009304, 0.023811,1, 0.017428,-0.008873,-0.995018,-0.000594, 0.008594, 0.023540, 0.118901, 0.246096,-0.114222,-0.000000, 0.000000,-0.000000,1,0
1777416008432060573,847581000000,   847.581, 0.000222,-0.000036,-0.009909,-0.000014, 0.000035, 0.000217,-0.313839,-0.031709, 0.012861,1,-0.000979, 0.008399, 0.023016,1, 0.021030,-0.006974,-0.993558,-0.001112, 0.006289, 0.022368, 0.118650, 0.246123,-0.113637,-0.000000, 0.000000,-0.000000,1,0
1777416008451816386,847601000000,   847.601, 0.000280, 0.000016,-0.009976, 0.000016, 0.000053, 0.000251,-0.286717, 0.039861, 0.019277,1,-0.000831, 0.005688, 0.022887,1, 0.024828,-0.000858,-0.995947, 0.000303, 0.005503, 0.023950, 0.118593, 0.246300,-0.113736,-0.000000, 0.000000,-0.000000,1,0
1777416008461486585,847621000000,   847.621, 0.000627, 0.000128,-0.009790, 0.000047,-0.000132, 0.000266,-0.147647, 0.020439,-0.076480,1, 0.000446, 0.004153, 0.024832,1, 0.048837, 0.004191,-0.990537, 0.002764,-0.003926, 0.025530, 0.118762, 0.246203,-0.114535,-0.000000, 0.000000,-0.000000,1,0
1777416008471569774,847621000000,   847.621, 0.000627, 0.000128,-0.009790, 0.000047,-0.000132, 0.000266,-0.147647, 0.020439,-0.076480,1, 0.000446, 0.004153, 0.024832,1, 0.048837, 0.004191,-0.990537, 0.002764,-0.003926, 0.025530, 0.118762, 0.246203,-0.114535,-0.000000, 0.000000,-0.000000,1,0
1777416008481235141,847631000000,   847.636, 0.000603,-0.000107,-0.009830, 0.000033,-0.000046, 0.000286, 0.047242, 0.052733, 0.085258,1, 0.002302,-0.004750, 0.026610,1, 0.055011,-0.001334,-0.990023, 0.002302,-0.004750, 0.026610, 0.118520, 0.245881,-0.114194,-0.000000, 0.000000,-0.000000,1,0
1777416008491317237,847631000000,   847.636, 0.000603,-0.000107,-0.009830, 0.000033,-0.000046, 0.000286, 0.047242, 0.052733, 0.085258,1, 0.002302,-0.004750, 0.026610,1, 0.055011,-0.001334,-0.990023, 0.002302,-0.004750, 0.026610, 0.118520, 0.245881,-0.114194,-0.000000, 0.000000,-0.000000,1,0
1777416008511048444,847651000000,   847.656, 0.000528, 0.000130,-0.010275,-0.000085, 0.000101, 0.000316, 0.045137, 0.116822,-0.066808,1,-0.003898, 0.003586, 0.029669,1, 0.054524, 0.005183,-1.005543,-0.003899, 0.003586, 0.029669, 0.118537, 0.246135,-0.114447,-0.000000, 0.000000,-0.000000,1,0
1777416008530810016,847671000000,   847.676, 0.000591,-0.000033,-0.010061,-0.000117, 0.000040, 0.000377, 0.079580, 0.051952,-0.011811,1,-0.008953, 0.005406, 0.034711,1, 0.058061,-0.001319,-0.999934,-0.008953, 0.005407, 0.034711, 0.118567, 0.246679,-0.114455,-0.000000, 0.000000,-0.000000,1,0
1777416008540432576,847691000000,   847.696, 0.000496,-0.000078,-0.010026,-0.000043, 0.000048, 0.000383, 0.042849, 0.018802, 0.066376,1,-0.006043, 0.005462, 0.037381,1, 0.054405,-0.004580,-0.991958,-0.006043, 0.005462, 0.037381, 0.118970, 0.246749,-0.114244,-0.000000, 0.000000,-0.000000,1,0
1777416008550514488,847691000000,   847.696, 0.000496,-0.000078,-0.010026,-0.000043, 0.000048, 0.000383, 0.042849, 0.018802, 0.066376,1,-0.006043, 0.005462, 0.037381,1, 0.054405,-0.004580,-0.991958,-0.006043, 0.005462, 0.037381, 0.118970, 0.246749,-0.114244,-0.000000, 0.000000,-0.000000,1,0
1777416008560181465,847711000000,   847.716, 0.000417,-0.000033,-0.010042,-0.000035, 0.000067, 0.000413,-0.050389, 0.048855,-0.026004,1,-0.003751, 0.006435, 0.039664,1, 0.045003,-0.001445,-1.001373,-0.003752, 0.006435, 0.039664, 0.118952, 0.246369,-0.113886,-0.000000, 0.000000,-0.000000,1,0
1777416008570264376,847711000000,   847.716, 0.000417,-0.000033,-0.010042,-0.000035, 0.000067, 0.000413,-0.050389, 0.048855,-0.026004,1,-0.003751, 0.006435, 0.039664,1, 0.045003,-0.001445,-1.001373,-0.003752, 0.006435, 0.039664, 0.118952, 0.246369,-0.113886,-0.000000, 0.000000,-0.000000,1,0
1777416008589996102,847731000000,   847.736, 0.000417,-0.000075,-0.009904,-0.000056, 0.000047, 0.000428,-0.067751, 0.031207, 0.031251,1,-0.004595, 0.005641, 0.041380,1, 0.043358,-0.003185,-0.995529,-0.004595, 0.005642, 0.041380, 0.119706, 0.246716,-0.113636,-0.000000, 0.000000,-0.000000,1,0
1777416008599743637,847751000000,   847.756, 0.000539,-0.000084,-0.009998,-0.000011, 0.000037, 0.000436,-0.006974,-0.005650, 0.008559,1,-0.003068, 0.005006, 0.042605,1, 0.049662,-0.006902,-0.997838,-0.003068, 0.005006, 0.042605, 0.119996, 0.246239,-0.115166,-0.000000, 0.000000,-0.000000,1,0
1777416008609846007,847751000000,   847.756, 0.000539,-0.000084,-0.009998,-0.000011, 0.000037, 0.000436,-0.006974,-0.005650, 0.008559,1,-0.003068, 0.005006, 0.042605,1, 0.049662,-0.006902,-0.997838,-0.003068, 0.005006, 0.042605, 0.119996, 0.246239,-0.115166,-0.000000, 0.000000,-0.000000,1,0
1777416008619432038,847771000000,   847.776, 0.000785,-0.000003,-0.010019,-0.000038, 0.000056, 0.000476, 0.157106, 0.043131, 0.026022,1,-0.003218, 0.005044, 0.045703,1, 0.066480,-0.001900,-0.996053,-0.003218, 0.005044, 0.045703, 0.119780, 0.246413,-0.115313,-0.000000, 0.000000,-0.000000,1,0
1777416008629515024,847771000000,   847.776, 0.000785,-0.000003,-0.010019,-0.000038, 0.000056, 0.000476, 0.157106, 0.043131, 0.026022,1,-0.003218, 0.005044, 0.045703,1, 0.066480,-0.001900,-0.996053,-0.003218, 0.005044, 0.045703, 0.119780, 0.246413,-0.115313,-0.000000, 0.000000,-0.000000,1,0
1777416008639111478,847791000000,   847.796, 0.000933,-0.000019,-0.010020,-0.000158, 0.000081, 0.000520, 0.333075, 0.061491,-0.008398,1,-0.011046, 0.006419, 0.049629,1, 0.084533, 0.000068,-0.999558,-0.011046, 0.006419, 0.049629, 0.120061, 0.246384,-0.114790,-0.000000, 0.000000,-0.000000,1,0
1777416008649194204,847791000000,   847.796, 0.000933,-0.000019,-0.010020,-0.000158, 0.000081, 0.000520, 0.333075, 0.061491,-0.008398,1,-0.011046, 0.006419, 0.049629,1, 0.084533, 0.000068,-0.999558,-0.011046, 0.006419, 0.049629, 0.120061, 0.246384,-0.114790,-0.000000, 0.000000,-0.000000,1,0
1777416008668928004,847811000000,   847.816, 0.000928, 0.000062,-0.009692,-0.000394, 0.000098, 0.000561, 0.374756, 0.061538, 0.126256,1,-0.027899, 0.008816, 0.053754,1, 0.090231, 0.000607,-0.985754,-0.027899, 0.008816, 0.053754, 0.119892, 0.246607,-0.113713,-0.000000, 0.000000,-0.000000,1,0
1777416008684514869,847831000000,   847.836, 0.000686,-0.000081,-0.009941,-0.000569, 0.000237, 0.000655, 0.264175,-0.000002,-0.067827,1,-0.047125, 0.018118, 0.060623,1, 0.080668,-0.004699,-1.005459,-0.047125, 0.018118, 0.060623, 0.120180, 0.246737,-0.112914,-0.000000, 0.000000,-0.000000,1,0
1777416008694178828,847851000000,   847.856, 0.000919, 0.000098,-0.010023,-0.000483, 0.000243, 0.000749, 0.295666, 0.070394,-0.095168,1,-0.052365, 0.020416, 0.068644,1, 0.084700, 0.003544,-1.008208,-0.052365, 0.020416, 0.068644, 0.120754, 0.247105,-0.112852,-0.000000, 0.000000,-0.000000,1,0
1777416008704261999,847851000000,   847.856, 0.000919, 0.000098,-0.010023,-0.000483, 0.000243, 0.000749, 0.295666, 0.070394,-0.095168,1,-0.052365, 0.020416, 0.068644,1, 0.084700, 0.003544,-1.008208,-0.052365, 0.020416, 0.068644, 0.120754, 0.247105,-0.112852,-0.000000, 0.000000,-0.000000,1,0
1777416008723988559,847871000000,   847.871, 0.000699,-0.000065,-0.009438,-0.000314, 0.000102, 0.000677, 0.213684,-0.063955, 0.222332,1,-0.038975, 0.013541, 0.069660,1, 0.076775,-0.009298,-0.975811,-0.038975, 0.013541, 0.069660, 0.121351, 0.247218,-0.112477,-0.000000, 0.000000,-0.000000,1,0
1777416008733741685,847891000000,   847.891, 0.000690,-0.000088,-0.009461,-0.000172,-0.000018, 0.000518, 0.183167,-0.133419, 0.311775,1,-0.024968, 0.004474, 0.059544,1, 0.073885,-0.015809,-0.966680,-0.024968, 0.004474, 0.059544, 0.121111, 0.246886,-0.112689,-0.000000, 0.000000,-0.000000,1,0
1777416008743824393,847891000000,   847.891, 0.000690,-0.000088,-0.009461,-0.000172,-0.000018, 0.000518, 0.183167,-0.133419, 0.311775,1,-0.024968, 0.004474, 0.059544,1, 0.073885,-0.015809,-0.966680,-0.024968, 0.004474, 0.059544, 0.121111, 0.246886,-0.112689,-0.000000, 0.000000,-0.000000,1,0
1777416008753049312,847911000000,   847.911, 0.000513,-0.000439,-0.008412, 0.000073, 0.000031, 0.000349, 0.227361,-0.346662,-0.260183,1,-0.008986, 0.005927, 0.052535,1, 0.068447,-0.041797,-0.954850,-0.003187, 0.005327, 0.043984, 0.121324, 0.246699,-0.112086,-0.000000, 0.000000,-0.000000,1,0
1777416008763153127,847911000000,   847.911, 0.000513,-0.000439,-0.008412, 0.000073, 0.000031, 0.000349, 0.227361,-0.346662,-0.260183,1,-0.008986, 0.005927, 0.052535,1, 0.068447,-0.041797,-0.954850,-0.003187, 0.005327, 0.043984, 0.121324, 0.246699,-0.112086,-0.000000, 0.000000,-0.000000,1,0
1777416008782862764,847931000000,   847.931, 0.000641,-0.000329,-0.011411, 0.000197,-0.000016, 0.000231, 0.073243,-0.296657, 0.410774,1, 0.003742,-0.000978, 0.037162,1, 0.064219,-0.030927,-1.040580, 0.009618,-0.002866, 0.030363, 0.121990, 0.246949,-0.111722,-0.000000, 0.000000,-0.000000,1,0
1777416008792532297,847951000000,   847.951, 0.000531,-0.000088,-0.011941, 0.000166,-0.000035, 0.000181,-0.074642,-0.290067, 0.556944,1, 0.016095,-0.001561, 0.026166,1, 0.049570,-0.021304,-1.052909, 0.016359,-0.003721, 0.022644, 0.121665, 0.246761,-0.112394,-0.000000, 0.000000,-0.000000,1,0
1777416008802614819,847951000000,   847.951, 0.000531,-0.000088,-0.011941, 0.000166,-0.000035, 0.000181,-0.074642,-0.290067, 0.556944,1, 0.016095,-0.001561, 0.026166,1, 0.049570,-0.021304,-1.052909, 0.016359,-0.003721, 0.022644, 0.121665, 0.246761,-0.112394,-0.000000, 0.000000,-0.000000,1,0
1777416008812222234,847971000000,   847.971, 0.000458,-0.000161,-0.011010, 0.000014, 0.000022, 0.000298,-0.109569, 0.003227, 0.317790,1, 0.010358,-0.002186, 0.023241,1, 0.046144,-0.009884,-1.021982, 0.006137,-0.000383, 0.026376, 0.122160, 0.246621,-0.112196,-0.000000, 0.000000,-0.000000,1,0
1777416008822305423,847971000000,   847.971, 0.000458,-0.000161,-0.011010, 0.000014, 0.000022, 0.000298,-0.109569, 0.003227, 0.317790,1, 0.010358,-0.002186, 0.023241,1, 0.046144,-0.009884,-1.021982, 0.006137,-0.000383, 0.026376, 0.122160, 0.246621,-0.112196,-0.000000, 0.000000,-0.000000,1,0
1777416008842035001,847991000000,   847.991, 0.000306, 0.000093,-0.009937,-0.000081, 0.000059, 0.000369,-0.072833, 0.111058,-0.102440,1,-0.006221, 0.000498, 0.025327,1, 0.040284, 0.009056,-1.004627,-0.008026, 0.003652, 0.030449, 0.122385, 0.246537,-0.112228,-0.000000, 0.000000,-0.000000,1,0
1777416008861850006,848011000000,   848.011, 0.000490,-0.000043,-0.011361,-0.000207, 0.000035, 0.000444,-0.060250, 0.276299, 0.365510,1,-0.015659,-0.000104, 0.034717,1, 0.050734, 0.015556,-1.044302,-0.019022, 0.001450, 0.038782, 0.122686, 0.246593,-0.112501,-0.000000, 0.000000,-0.000000,1,0
1777416008871478306,848031000000,   848.031, 0.000471, 0.000147,-0.011312,-0.000213,-0.000070, 0.000540,-0.139607, 0.190556, 0.266736,1,-0.014505, 0.006462, 0.044996,1, 0.042170, 0.016317,-1.024675,-0.015889, 0.000483, 0.049383, 0.122831, 0.246334,-0.112105,-0.000000, 0.000000,-0.000000,1,0
1777416008881561958,848031000000,   848.031, 0.000471, 0.000147,-0.011312,-0.000213,-0.000070, 0.000540,-0.139607, 0.190556, 0.266736,1,-0.014505, 0.006462, 0.044996,1, 0.042170, 0.016317,-1.024675,-0.015889, 0.000483, 0.049383, 0.122831, 0.246334,-0.112105,-0.000000, 0.000000,-0.000000,1,0
1777416008891215568,848051000000,   848.051, 0.000531, 0.000131,-0.010161,-0.000150, 0.000054, 0.000631,-0.196490, 0.294640, 0.288500,1,-0.028527, 0.007567, 0.051648,1, 0.042488, 0.019529,-0.978769,-0.022200, 0.005570, 0.057083, 0.122968, 0.246815,-0.111139,-0.000000, 0.000000,-0.000000,1,0
1777416008901298164,848051000000,   848.051, 0.000531, 0.000131,-0.010161,-0.000150, 0.000054, 0.000631,-0.196490, 0.294640, 0.288500,1,-0.028527, 0.007567, 0.051648,1, 0.042488, 0.019529,-0.978769,-0.022200, 0.005570, 0.057083, 0.122968, 0.246815,-0.111139,-0.000000, 0.000000,-0.000000,1,0
1777416008921053626,848061000000,   848.066, 0.000342, 0.000060,-0.010521,-0.000225, 0.000033, 0.000627,-0.173148, 0.173828,-0.185396,1,-0.021826, 0.003440, 0.059538,1, 0.038285, 0.014733,-1.017335,-0.021826, 0.003440, 0.059538, 0.123536, 0.246884,-0.110833,-0.000000, 0.000000,-0.000000,1,0
1777416008940789665,848081000000,   848.086, 0.000339, 0.000286,-0.011044,-0.000157, 0.000002, 0.000570,-0.241546, 0.232165,-0.175340,1,-0.015145, 0.000685, 0.058957,1, 0.031386, 0.020902,-1.016306,-0.015145, 0.000685, 0.058957, 0.123727, 0.246242,-0.109983,-0.000000, 0.000000,-0.000000,1,0
1777416008950394711,848101000000,   848.106, 0.000162, 0.000176,-0.010053,-0.000017, 0.000015, 0.000641,-0.331214, 0.140580, 0.066166,1,-0.007946, 0.000037, 0.061483,1, 0.022253, 0.011664,-0.991679,-0.007946, 0.000037, 0.061483, 0.124193, 0.246379,-0.110168,-0.000000, 0.000000,-0.000000,1,0
1777416008960541646,848101000000,   848.106, 0.000162, 0.000176,-0.010053,-0.000017, 0.000015, 0.000641,-0.331214, 0.140580, 0.066166,1,-0.007946, 0.000037, 0.061483,1, 0.022253, 0.011664,-0.991679,-0.007946, 0.000037, 0.061483, 0.124193, 0.246379,-0.110168,-0.000000, 0.000000,-0.000000,1,0
1777416008970151283,848121000000,   848.126, 0.000131, 0.000262,-0.009741,-0.000076, 0.000056, 0.000738,-0.349141, 0.215718, 0.028548,1,-0.008365, 0.002714, 0.068779,1, 0.020413, 0.019458,-0.995515,-0.008365, 0.002714, 0.068779, 0.124452, 0.246725,-0.110448,-0.000000, 0.000000,-0.000000,1,0
1777416008980235083,848121000000,   848.126, 0.000131, 0.000262,-0.009741,-0.000076, 0.000056, 0.000738,-0.349141, 0.215718, 0.028548,1,-0.008365, 0.002714, 0.068779,1, 0.020413, 0.019458,-0.995515,-0.008365, 0.002714, 0.068779, 0.124452, 0.246725,-0.110448,-0.000000, 0.000000,-0.000000,1,0
1777416008999909858,848141000000,   848.146, 0.000250, 0.000417,-0.009757,-0.000177,-0.000003, 0.000837,-0.294914, 0.305143, 0.023518,1,-0.012807,-0.000591, 0.078040,1, 0.025943, 0.028736,-0.996029,-0.012807,-0.000590, 0.078040, 0.124694, 0.246546,-0.110867,-0.000000, 0.000000,-0.000000,1,0
1777416009009723090,848161000000,   848.166, 0.000299,-0.000140,-0.010644, 0.000053, 0.000001, 0.000947,-0.277844, 0.117351,-0.170557,1,-0.004950, 0.000151, 0.088251,1, 0.027668, 0.009731,-1.015820,-0.004950, 0.000151, 0.088251, 0.125086, 0.246543,-0.110739,-0.000000, 0.000000,-0.000000,1,0
1777416009019806023,848161000000,   848.166, 0.000299,-0.000140,-0.010644, 0.000053, 0.000001, 0.000947,-0.277844, 0.117351,-0.170557,1,-0.004950, 0.000151, 0.088251,1, 0.027668, 0.009731,-1.015820,-0.004950, 0.000151, 0.088251, 0.125086, 0.246543,-0.110739,-0.000000, 0.000000,-0.000000,1,0
1777416009029337715,848181000000,   848.186, 0.000176,-0.000182,-0.009468, 0.000051,-0.000026, 0.000906,-0.357578,-0.007296, 0.306500,1, 0.003202,-0.002087, 0.090443,1, 0.019492,-0.002961,-0.967177, 0.003202,-0.002087, 0.090443, 0.125260, 0.246681,-0.110077,-0.000000, 0.000000,-0.000000,1,0
1777416009039420166,848181000000,   848.186, 0.000176,-0.000182,-0.009468, 0.000051,-0.000026, 0.000906,-0.357578,-0.007296, 0.306500,1, 0.003202,-0.002087, 0.090443,1, 0.019492,-0.002961,-0.967177, 0.003202,-0.002087, 0.090443, 0.125260, 0.246681,-0.110077,-0.000000, 0.000000,-0.000000,1,0
1777416009049083424,848201000000,   848.206,-0.000183, 0.000233,-0.009874,-0.000117,-0.000107, 0.000948,-0.544995, 0.184993, 0.050982,1,-0.006073,-0.007841, 0.091742,1, 0.000258, 0.016649,-0.993239,-0.006073,-0.007841, 0.091742, 0.126046, 0.246569,-0.109642,-0.000000, 0.000000,-0.000000,1,0
1777416009059165042,848201000000,   848.206,-0.000183, 0.000233,-0.009874,-0.000117,-0.000107, 0.000948,-0.544995, 0.184993, 0.050982,1,-0.006073,-0.007841, 0.091742,1, 0.000258, 0.016649,-0.993239,-0.006073,-0.007841, 0.091742, 0.126046, 0.246569,-0.109642,-0.000000, 0.000000,-0.000000,1,0
1777416009074268056,848221000000,   848.226,-0.000089, 0.000151,-0.008879,-0.000272,-0.000156, 0.000812,-0.621947, 0.068983, 0.298321,1,-0.006902,-0.003368, 0.087702,1,-0.007836, 0.004960,-0.968031,-0.006902,-0.003367, 0.087702, 0.126249, 0.246680,-0.110245,-0.000000, 0.000000,-0.000000,1,0
1777416009094028337,848241000000,   848.241,-0.000348,-0.000909,-0.011017,-0.000028, 0.000079, 0.000730,-0.779731,-0.497516,-0.526506,1,-0.005581,-0.003752, 0.080227,1,-0.024196,-0.052710,-1.052156,-0.005581,-0.003752, 0.080227, 0.126976, 0.246735,-0.110094,-0.000000, 0.000000,-0.000000,1,0
1777416009113779915,848261000000,   848.261,-0.000130, 0.000316,-0.011271,-0.000122, 0.000017, 0.000623,-0.701648,-0.145054,-0.353746,1,-0.005227, 0.002129, 0.067369,1,-0.016214,-0.016782,-1.034538,-0.005227, 0.002130, 0.067369, 0.127166, 0.246989,-0.109580,-0.000000, 0.000000,-0.000000,1,0
1777416009123082042,848281000000,   848.281,-0.000323, 0.000263,-0.010364,-0.000249, 0.000274, 0.000815,-0.811994, 0.143222,-0.072644,1,-0.018169,-0.003041, 0.069022,1,-0.027209, 0.020828,-1.014113,-0.019846, 0.010702, 0.074633, 0.127513, 0.246877,-0.109460,-0.000000, 0.000000,-0.000000,1,0
1777416009133184767,848281000000,   848.281,-0.000323, 0.000263,-0.010364,-0.000249, 0.000274, 0.000815,-0.811994, 0.143222,-0.072644,1,-0.018169,-0.003041, 0.069022,1,-0.027209, 0.020828,-1.014113,-0.019846, 0.010702, 0.074633, 0.127513, 0.246877,-0.109460,-0.000000, 0.000000,-0.000000,1,0
1777416009152897538,848301000000,   848.301, 0.000182,-0.000491,-0.010061,-0.000269,-0.000197, 0.000826,-0.794622, 0.126176, 0.316976,1,-0.029004, 0.014796, 0.080959,1,-0.006945,-0.015609,-0.983169,-0.027943,-0.001818, 0.081421, 0.128003, 0.246857,-0.109067,-0.000000, 0.000000,-0.000000,1,0
1777416009162571812,848321000000,   848.321,-0.000127,-0.000229,-0.009909,-0.000034, 0.000015, 0.000726,-0.699444,-0.097939, 0.139380,1,-0.023086,-0.008024, 0.077522,1,-0.013793,-0.018757,-0.984418,-0.012219,-0.002815, 0.075211, 0.128432, 0.247389,-0.108632,-0.000000, 0.000000,-0.000000,1,0
1777416009172653523,848321000000,   848.321,-0.000127,-0.000229,-0.009909,-0.000034, 0.000015, 0.000726,-0.699444,-0.097939, 0.139380,1,-0.023086,-0.008024, 0.077522,1,-0.013793,-0.018757,-0.984418,-0.012219,-0.002815, 0.075211, 0.128432, 0.247389,-0.108632,-0.000000, 0.000000,-0.000000,1,0
1777416009182326446,848341000000,   848.341, 0.000233,-0.000306,-0.009472, 0.000012, 0.000075, 0.000597,-0.620563,-0.275863, 0.126136,1,-0.010402, 0.011419, 0.066713,1, 0.005324,-0.035425,-0.966632,-0.004161, 0.008959, 0.063989, 0.128877, 0.247437,-0.108518,-0.000000, 0.000000,-0.000000,1,0
1777416009192408601,848341000000,   848.341, 0.000233,-0.000306,-0.009472, 0.000012, 0.000075, 0.000597,-0.620563,-0.275863, 0.126136,1,-0.010402, 0.011419, 0.066713,1, 0.005324,-0.035425,-0.966632,-0.004161, 0.008959, 0.063989, 0.128877, 0.247437,-0.108518,-0.000000, 0.000000,-0.000000,1,0
1777416009202021980,848361000000,   848.361,-0.000280,-0.000090,-0.010424,-0.000161,-0.000284, 0.000433,-0.439881,-0.439037,-0.014385,1,-0.015853,-0.008666, 0.054621,1,-0.005955,-0.030447,-1.013334,-0.013520,-0.015815, 0.049721, 0.128858, 0.247244,-0.109514,-0.000000, 0.000000,-0.000000,1,0
1777416009212104542,848361000000,   848.361,-0.000280,-0.000090,-0.010424,-0.000161,-0.000284, 0.000433,-0.439881,-0.439037,-0.014385,1,-0.015853,-0.008666, 0.054621,1,-0.005955,-0.030447,-1.013334,-0.013520,-0.015815, 0.049721, 0.128858, 0.247244,-0.109514,-0.000000, 0.000000,-0.000000,1,0
1777416009231832810,848381000000,   848.381, 0.000067,-0.000701,-0.009461, 0.000216, 0.000108, 0.000366,-0.620812,-0.202869,-0.138930,1,-0.005025, 0.000763, 0.044160,1,-0.001355,-0.046037,-0.978462, 0.007341, 0.005801, 0.040603, 0.129340, 0.247281,-0.108933,-0.000000, 0.000000,-0.000000,1,0
1777416009241504529,848401000000,   848.401,-0.000459,-0.000517,-0.010239, 0.000247,-0.000219, 0.000104,-0.574033,-0.610502, 0.136425,1, 0.002619,-0.003630, 0.031081,1,-0.023049,-0.054951,-0.996763, 0.013844,-0.011276, 0.021296, 0.129453, 0.246987,-0.108823,-0.000000, 0.000000,-0.000000,1,0
1777416009251587036,848401000000,   848.401,-0.000459,-0.000517,-0.010239, 0.000247,-0.000219, 0.000104,-0.574033,-0.610502, 0.136425,1, 0.002619,-0.003630, 0.031081,1,-0.023049,-0.054951,-0.996763, 0.013844,-0.011276, 0.021296, 0.129453, 0.246987,-0.108823,-0.000000, 0.000000,-0.000000,1,0
1777416009261267216,848421000000,   848.421,-0.000416,-0.000234,-0.010192, 0.000114, 0.000202,-0.000068,-0.826281,-0.478308,-0.222219,1, 0.009723,-0.010122, 0.009574,1,-0.035031,-0.028888,-1.010563, 0.010887, 0.006419, 0.001299, 0.129426, 0.246990,-0.108705,-0.000000, 0.000000,-0.000000,1,0
1777416009271350871,848421000000,   848.421,-0.000416,-0.000234,-0.010192, 0.000114, 0.000202,-0.000068,-0.826281,-0.478308,-0.222219,1, 0.009723,-0.010122, 0.009574,1,-0.035031,-0.028888,-1.010563, 0.010887, 0.006419, 0.001299, 0.129426, 0.246990,-0.108705,-0.000000, 0.000000,-0.000000,1,0
1777416009281013444,848431000000,   848.436,-0.000020,-0.000095,-0.010393,-0.000008, 0.000252,-0.000050,-0.731626,-0.136907,-0.231264,1, 0.003911, 0.015549,-0.002016,1,-0.019657,-0.014767,-1.022071, 0.003911, 0.015549,-0.002016, 0.129559, 0.246828,-0.108407,-0.000000, 0.000000,-0.000000,1,0
1777416009291117817,848431000000,   848.436,-0.000020,-0.000095,-0.010393,-0.000008, 0.000252,-0.000050,-0.731626,-0.136907,-0.231264,1, 0.003911, 0.015549,-0.002016,1,-0.019657,-0.014767,-1.022071, 0.003911, 0.015549,-0.002016, 0.129559, 0.246828,-0.108407,-0.000000, 0.000000,-0.000000,1,0
1777416009310759750,848451000000,   848.456, 0.000541,-0.000407,-0.010048,-0.000078,-0.000170,-0.000012,-0.318469,-0.273218, 0.178066,1, 0.003616, 0.002865,-0.000121,1, 0.022759,-0.028881,-0.980315, 0.003616, 0.002865,-0.000121, 0.129799, 0.246697,-0.108114,-0.000000, 0.000000,-0.000000,1,0
1777416009320438394,848471000000,   848.476, 0.000191,-0.000321,-0.010536, 0.000518, 0.000179,-0.000230,-0.466806,-0.505616,-0.356291,1, 0.028453,-0.009663,-0.010479,1, 0.007140,-0.052796,-1.034831, 0.028453,-0.009663,-0.010479, 0.129776, 0.246997,-0.108236,-0.000000, 0.000000,-0.000000,1,0
1777416009330520105,848471000000,   848.476, 0.000191,-0.000321,-0.010536, 0.000518, 0.000179,-0.000230,-0.466806,-0.505616,-0.356291,1, 0.028453,-0.009663,-0.010479,1, 0.007140,-0.052796,-1.034831, 0.028453,-0.009663,-0.010479, 0.129776, 0.246997,-0.108236,-0.000000, 0.000000,-0.000000,1,0
1777416009340194675,848491000000,   848.496, 0.000485,-0.000301,-0.009944, 0.000015,-0.000037,-0.000203,-0.193256,-0.312862, 0.065057,1, 0.033527, 0.001844,-0.016559,1, 0.035205,-0.033770,-0.991855, 0.033527, 0.001844,-0.016559, 0.129441, 0.247048,-0.108569,-0.000000, 0.000000,-0.000000,1,0
1777416009350276849,848491000000,   848.496, 0.000485,-0.000301,-0.009944, 0.000015,-0.000037,-0.000203,-0.193256,-0.312862, 0.065057,1, 0.033527, 0.001844,-0.016559,1, 0.035205,-0.033770,-0.991855, 0.033527, 0.001844,-0.016559, 0.129441, 0.247048,-0.108569,-0.000000, 0.000000,-0.000000,1,0
1777416009370010912,848511000000,   848.516, 0.000335, 0.000949,-0.009407, 0.000107, 0.000274,-0.000217,-0.262527, 0.299144, 0.235412,1, 0.020521, 0.010306,-0.019879,1, 0.028126, 0.028363,-0.974484, 0.020521, 0.010307,-0.019879, 0.129619, 0.247023,-0.108273,-0.000000, 0.000000,-0.000000,1,0
1777416009389763564,848531000000,   848.536, 0.000416,-0.001169,-0.011740, 0.000002,-0.000821,-0.000227,-0.060986,-0.625128,-0.352343,1, 0.020082,-0.031180,-0.017191,1, 0.048715,-0.065971,-1.034416, 0.020082,-0.031180,-0.017191, 0.129799, 0.246650,-0.108291,-0.000000, 0.000000,-0.000000,1,0
1777416009399390052,848551000000,   848.556, 0.000593, 0.000096,-0.009391,-0.000128, 0.000251,-0.000281,-0.041660, 0.154634, 0.279054,1, 0.005868, 0.010261,-0.029005,1, 0.050685, 0.013353,-0.970031, 0.005868, 0.010261,-0.029005, 0.129807, 0.246584,-0.107750,-0.000000, 0.000000,-0.000000,1,0
1777416009409472262,848551000000,   848.556, 0.000593, 0.000096,-0.009391,-0.000128, 0.000251,-0.000281,-0.041660, 0.154634, 0.279054,1, 0.005868, 0.010261,-0.029005,1, 0.050685, 0.013353,-0.970031, 0.005868, 0.010261,-0.029005, 0.129807, 0.246584,-0.107750,-0.000000, 0.000000,-0.000000,1,0
1777416009419122319,848571000000,   848.576, 0.000492, 0.000412,-0.008756, 0.000241, 0.000512,-0.000105,-0.077535, 0.323304, 0.432156,1, 0.006214, 0.028013,-0.020592,1, 0.047198, 0.030541,-0.954410, 0.006214, 0.028014,-0.020592, 0.129932, 0.246444,-0.107714,-0.000000, 0.000000,-0.000000,1,0
1777416009429203771,848571000000,   848.576, 0.000492, 0.000412,-0.008756, 0.000241, 0.000512,-0.000105,-0.077535, 0.323304, 0.432156,1, 0.006214, 0.028013,-0.020592,1, 0.047198, 0.030541,-0.954410, 0.006214, 0.028014,-0.020592, 0.129932, 0.246444,-0.107714,-0.000000, 0.000000,-0.000000,1,0
1777416009448946906,848591000000,   848.596, 0.000064,-0.000642,-0.010475, 0.000104,-0.000552,-0.000351,-0.173226,-0.470184,-0.092007,1, 0.000836,-0.020496,-0.026017,1, 0.037486,-0.050385,-1.007857, 0.000836,-0.020496,-0.026017, 0.130102, 0.246536,-0.107725,-0.000000, 0.000000,-0.000000,1,0
1777416009458697295,848611000000,   848.616, 0.000800,-0.000054,-0.010333,-0.000098, 0.000026,-0.000234, 0.105634, 0.107680,-0.163893,1,-0.002416, 0.002064,-0.029140,1, 0.065391, 0.008704,-1.015217,-0.002416, 0.002064,-0.029140, 0.129806, 0.246309,-0.108066,-0.000000, 0.000000,-0.000000,1,0
1777416009468793058,848611000000,   848.616, 0.000800,-0.000054,-0.010333,-0.000098, 0.000026,-0.000234, 0.105634, 0.107680,-0.163893,1,-0.002416, 0.002064,-0.029140,1, 0.065391, 0.008704,-1.015217,-0.002416, 0.002064,-0.029140, 0.129806, 0.246309,-0.108066,-0.000000, 0.000000,-0.000000,1,0
1777416009484240744,848631000000,   848.636, 0.001163, 0.000563,-0.009506,-0.000041,-0.000004,-0.000336, 0.306964, 0.230518, 0.428154,1, 0.008220, 0.009728,-0.026806,1, 0.085605, 0.021340,-0.954862, 0.008220, 0.009729,-0.026806, 0.129508, 0.246179,-0.108389,-0.000000, 0.000000,-0.000000,1,0
1777416009504003264,848651000000,   848.656, 0.001009,-0.000845,-0.012664, 0.000159,-0.001073,-0.000723, 0.274015,-0.863550,-0.849157,1, 0.017650,-0.053736,-0.046853,1, 0.081711,-0.090609,-1.085140, 0.017650,-0.053736,-0.046853, 0.128920, 0.246371,-0.107934,-0.000000, 0.000000,-0.000000,1,0
1777416009523756435,848671000000,   848.671, 0.001229, 0.001317,-0.006810, 0.000196, 0.000704, 0.000007, 0.260097, 0.928164, 1.202222,1, 0.011110, 0.037578,-0.026676,1, 0.080198, 0.091864,-0.875962, 0.011109, 0.037579,-0.026676, 0.129297, 0.246241,-0.107015,-0.000000, 0.000000,-0.000000,1,0
1777416009533056340,848691000000,   848.691, 0.000151,-0.001168,-0.007309, 0.000196,-0.000402, 0.000103, 0.620398, 0.645775,-0.394644,1,-0.035293,-0.004674,-0.014814,1, 0.069690,-0.026862,-0.910464,-0.014249,-0.012401,-0.004222, 0.129584, 0.245653,-0.107042,-0.000000, 0.000000,-0.000000,1,0
1777416009543137847,848691000000,   848.691, 0.000151,-0.001168,-0.007309, 0.000196,-0.000402, 0.000103, 0.620398, 0.645775,-0.394644,1,-0.035293,-0.004674,-0.014814,1, 0.069690,-0.026862,-0.910464,-0.014249,-0.012401,-0.004222, 0.129584, 0.245653,-0.107042,-0.000000, 0.000000,-0.000000,1,0
1777416009562878576,848711000000,   848.711,-0.000336, 0.000845,-0.005594, 0.000533, 0.000767,-0.000490, 0.500585,-1.236160,-1.276100,1,-0.014331,-0.049596,-0.019998,1, 0.041361,-0.022226,-0.870723, 0.012870, 0.009545,-0.033499, 0.128947, 0.245345,-0.106939,-0.000000, 0.000000,-0.000000,1,0
1777416009572548999,848731000000,   848.731, 0.000347, 0.000775,-0.007849, 0.000405, 0.000809, 0.000028, 0.232398, 0.836356,-1.571133,1,-0.016682,-0.002239,-0.031189,1, 0.061658, 0.078597,-0.986546, 0.001427, 0.038131,-0.016337, 0.129259, 0.244954,-0.107039,-0.000000, 0.000000,-0.000000,1,0
1777416009582631061,848731000000,   848.731, 0.000347, 0.000775,-0.007849, 0.000405, 0.000809, 0.000028, 0.232398, 0.836356,-1.571133,1,-0.016682,-0.002239,-0.031189,1, 0.061658, 0.078597,-0.986546, 0.001427, 0.038131,-0.016337, 0.129259, 0.244954,-0.107039,-0.000000, 0.000000,-0.000000,1,0
1777416009592305132,848751000000,   848.751, 0.001384, 0.000422,-0.012454,-0.000324,-0.001788,-0.000091,-0.048741, 0.066747, 1.213873,1,-0.005779, 0.049632,-0.010415,1, 0.072581, 0.027048,-1.046830,-0.019661,-0.058124,-0.009581, 0.129849, 0.245057,-0.107999,-0.000000, 0.000000,-0.000000,1,0
1777416009602386805,848751000000,   848.751, 0.001384, 0.000422,-0.012454,-0.000324,-0.001788,-0.000091,-0.048741, 0.066747, 1.213873,1,-0.005779, 0.049632,-0.010415,1, 0.072581, 0.027048,-1.046830,-0.019661,-0.058124,-0.009581, 0.129849, 0.245057,-0.107999,-0.000000, 0.000000,-0.000000,1,0
1777416009612003128,848771000000,   848.771, 0.000983, 0.001400,-0.008031, 0.000440, 0.000826, 0.000004,-0.259600,-0.128472,-0.427430,1,-0.024774,-0.007571,-0.004666,1, 0.059311, 0.053435,-0.910158, 0.004611, 0.033448,-0.001184, 0.129700, 0.244822,-0.106952,-0.000000, 0.000000,-0.000000,1,0
1777416009622086801,848771000000,   848.771, 0.000983, 0.001400,-0.008031, 0.000440, 0.000826, 0.000004,-0.259600,-0.128472,-0.427430,1,-0.024774,-0.007571,-0.004666,1, 0.059311, 0.053435,-0.910158, 0.004611, 0.033448,-0.001184, 0.129700, 0.244822,-0.106952,-0.000000, 0.000000,-0.000000,1,0
1777416009641814644,848791000000,   848.791, 0.000227,-0.000765,-0.008424, 0.000434,-0.000020, 0.000068, 0.104896, 0.368230,-0.683717,1,-0.019290,-0.015496, 0.010157,1, 0.044152,-0.010253,-0.952309, 0.007331,-0.003115, 0.007486, 0.129674, 0.244559,-0.106061,-0.000000, 0.000000,-0.000000,1,0
1777416009651502823,848811000000,   848.811, 0.000078, 0.000520,-0.007767, 0.000342, 0.000553, 0.000221, 0.070318, 0.301992,-0.426876,1, 0.001732,-0.007239, 0.006773,1, 0.039228, 0.031223,-0.927300, 0.015934, 0.024581, 0.013931, 0.129377, 0.244271,-0.106575,-0.000000, 0.000000,-0.000000,1,0
1777416009661600215,848811000000,   848.811, 0.000078, 0.000520,-0.007767, 0.000342, 0.000553, 0.000221, 0.070318, 0.301992,-0.426876,1, 0.001732,-0.007239, 0.006773,1, 0.039228, 0.031223,-0.927300, 0.015934, 0.024581, 0.013931, 0.129377, 0.244271,-0.106575,-0.000000, 0.000000,-0.000000,1,0
1777416009671232924,848831000000,   848.831, 0.000570, 0.000363,-0.010003,-0.000118,-0.000247, 0.000475, 0.076501, 0.477822,-0.339332,1,-0.013572, 0.002210, 0.017045,1, 0.062039, 0.033057,-1.020167,-0.011121,-0.009088, 0.031305, 0.130043, 0.244764,-0.106573,-0.000000, 0.000000,-0.000000,1,0
1777416009681315116,848831000000,   848.831, 0.000570, 0.000363,-0.010003,-0.000118,-0.000247, 0.000475, 0.076501, 0.477822,-0.339332,1,-0.013572, 0.002210, 0.017045,1, 0.062039, 0.033057,-1.020167,-0.011121,-0.009088, 0.031305, 0.130043, 0.244764,-0.106573,-0.000000, 0.000000,-0.000000,1,0
1777416009700985951,848841000000,   848.846, 0.000381,-0.000358,-0.008151, 0.000035, 0.000545, 0.000397,-0.008924,-0.002437, 0.745063,1,-0.004596, 0.018910, 0.035440,1, 0.054896,-0.003083,-0.922462,-0.004597, 0.018910, 0.035440, 0.130365, 0.244895,-0.106550,-0.000000, 0.000000,-0.000000,1,0
1777416009710684109,848861000000,   848.866,-0.000416, 0.000460,-0.009576, 0.000166, 0.000076, 0.000278,-0.427626, 0.216915,-0.211440,1,-0.014915,-0.004003, 0.030435,1, 0.012169, 0.019455,-1.020000,-0.014915,-0.004003, 0.030435, 0.130363, 0.244952,-0.106142,-0.000000, 0.000000,-0.000000,1,0
1777416009720765616,848861000000,   848.866,-0.000416, 0.000460,-0.009576, 0.000166, 0.000076, 0.000278,-0.427626, 0.216915,-0.211440,1,-0.014915,-0.004003, 0.030435,1, 0.012169, 0.019455,-1.020000,-0.014915,-0.004003, 0.030435, 0.130363, 0.244952,-0.106142,-0.000000, 0.000000,-0.000000,1,0
1777416009730414692,848881000000,   848.886, 0.000390, 0.000535,-0.010956,-0.000472,-0.000250, 0.000562,-0.152942, 0.568940,-0.130819,1,-0.020702, 0.010876, 0.044841,1, 0.040805, 0.055512,-1.011745,-0.020702, 0.010876, 0.044841, 0.130753, 0.244630,-0.105630,-0.000000, 0.000000,-0.000000,1,0
1777416009740496143,848881000000,   848.886, 0.000390, 0.000535,-0.010956,-0.000472,-0.000250, 0.000562,-0.152942, 0.568940,-0.130819,1,-0.020702, 0.010876, 0.044841,1, 0.040805, 0.055512,-1.011745,-0.020702, 0.010876, 0.044841, 0.130753, 0.244630,-0.105630,-0.000000, 0.000000,-0.000000,1,0
1777416009750256882,848901000000,   848.906, 0.000652,-0.000463,-0.010738,-0.000238,-0.000125, 0.000500,-0.182881,-0.267715,-0.227322,1,-0.022731, 0.004930, 0.047595,1, 0.038024,-0.029553,-1.021570,-0.022731, 0.004930, 0.047595, 0.131093, 0.244413,-0.104950,-0.000000, 0.000000,-0.000000,1,0
1777416009760339259,848901000000,   848.906, 0.000652,-0.000463,-0.010738,-0.000238,-0.000125, 0.000500,-0.182881,-0.267715,-0.227322,1,-0.022731, 0.004930, 0.047595,1, 0.038024,-0.029553,-1.021570,-0.022731, 0.004930, 0.047595, 0.131093, 0.244413,-0.104950,-0.000000, 0.000000,-0.000000,1,0
1777416009779990432,848921000000,   848.926, 0.000466,-0.000213,-0.007965, 0.000462, 0.001250, 0.000482,-0.329921,-0.085038, 0.502665,1, 0.013025, 0.048882, 0.049649,1, 0.023173,-0.010828,-0.947125, 0.013024, 0.048882, 0.049649, 0.131172, 0.244372,-0.104470,-0.000000, 0.000000,-0.000000,1,0
1777416009789681795,848941000000,   848.946,-0.000243,-0.000230,-0.010300,-0.000036,-0.000254, 0.000347,-0.507434,-0.239292,-0.198329,1, 0.000090,-0.011137, 0.042684,1, 0.005220,-0.026716,-1.018597, 0.000090,-0.011136, 0.042684, 0.131319, 0.244536,-0.104219,-0.000000, 0.000000,-0.000000,1,0
1777416009799764727,848941000000,   848.946,-0.000243,-0.000230,-0.010300,-0.000036,-0.000254, 0.000347,-0.507434,-0.239292,-0.198329,1, 0.000090,-0.011137, 0.042684,1, 0.005220,-0.026716,-1.018597, 0.000090,-0.011136, 0.042684, 0.131319, 0.244536,-0.104219,-0.000000, 0.000000,-0.000000,1,0
1777416009809349779,848961000000,   848.966,-0.000296,-0.002036,-0.009348,-0.000079, 0.000195, 0.000533,-0.716890,-0.546243, 0.315831,1,-0.016115, 0.009705, 0.041174,1,-0.015953,-0.058242,-0.966156,-0.016115, 0.009705, 0.041174, 0.132272, 0.243945,-0.104827,-0.000000, 0.000000,-0.000000,1,0
1777416009819449153,848961000000,   848.966,-0.000296,-0.002036,-0.009348,-0.000079, 0.000195, 0.000533,-0.716890,-0.546243, 0.315831,1,-0.016115, 0.009705, 0.041174,1,-0.015953,-0.058242,-0.966156,-0.016115, 0.009705, 0.041174, 0.132272, 0.243945,-0.104827,-0.000000, 0.000000,-0.000000,1,0
1777416009829100820,848981000000,   848.986,-0.000289,-0.001196,-0.009122,-0.000033, 0.000891, 0.000353,-0.617355,-0.438129,-0.465047,1, 0.008008, 0.026069, 0.035602,1,-0.005892,-0.047278,-1.045789, 0.008008, 0.026069, 0.035602, 0.132737, 0.243499,-0.104548,-0.000000, 0.000000,-0.000000,1,0
1777416009839183475,848981000000,   848.986,-0.000289,-0.001196,-0.009122,-0.000033, 0.000891, 0.000353,-0.617355,-0.438129,-0.465047,1, 0.008008, 0.026069, 0.035602,1,-0.005892,-0.047278,-1.045789, 0.008008, 0.026069, 0.035602, 0.132737, 0.243499,-0.104548,-0.000000, 0.000000,-0.000000,1,0
1777416009859044957,849001000000,   849.006, 0.000113, 0.000182,-0.013066,-0.000161,-0.000581, 0.000557,-0.440173, 0.172778,-0.647548,1, 0.000629,-0.013371, 0.048176,1, 0.012584, 0.015096,-1.064376, 0.000629,-0.013371, 0.048176, 0.132382, 0.243374,-0.105874,-0.000000, 0.000000,-0.000000,1,0
1777416009878748397,849021000000,   849.026, 0.000228, 0.001072,-0.009609,-0.000342,-0.000404, 0.000440,-0.402702, 0.144087, 0.612621,1,-0.009767,-0.011709, 0.045737,1, 0.015882, 0.011874,-0.935903,-0.009767,-0.011709, 0.045737, 0.132875, 0.243364,-0.105337,-0.000000, 0.000000,-0.000000,1,0
1777416009894218449,849041000000,   849.046, 0.000462,-0.000377,-0.008659, 0.000492, 0.000233, 0.000481,-0.297811, 0.039342, 0.451303,1, 0.016565, 0.008273, 0.045321,1, 0.026296, 0.001033,-0.952368, 0.016564, 0.008273, 0.045321, 0.133577, 0.243537,-0.104342,-0.000000, 0.000000,-0.000000,1,0
1777416009913928721,849061000000,   849.066, 0.000763,-0.000843,-0.010881,-0.000437,-0.000375, 0.000257,-0.056262,-0.398910, 0.031440,1,-0.013010,-0.026519, 0.036651,1, 0.050840,-0.044017,-0.995186,-0.013010,-0.026519, 0.036651, 0.133898, 0.243812,-0.103937,-0.000000, 0.000000,-0.000000,1,0
1777416009923675962,849081000000,   849.081, 0.000078, 0.000702,-0.003010, 0.001743, 0.002394, 0.000497,-0.695427, 0.212141, 1.131550,1, 0.067982, 0.089571, 0.044122,1,-0.014495, 0.018131,-0.883015, 0.067982, 0.089571, 0.044122, 0.134363, 0.243461,-0.104488,-0.000000, 0.000000,-0.000000,1,0
1777416009933759672,849081000000,   849.081, 0.000078, 0.000702,-0.003010, 0.001743, 0.002394, 0.000497,-0.695427, 0.212141, 1.131550,1, 0.067982, 0.089571, 0.044122,1,-0.014495, 0.018131,-0.883015, 0.067982, 0.089571, 0.044122, 0.134363, 0.243461,-0.104488,-0.000000, 0.000000,-0.000000,1,0
1777416009943041655,849101000000,   849.101,-0.001021,-0.000827,-0.016044,-0.000822,-0.002511, 0.000347, 0.152932,-0.288240, 1.215027,1, 0.041258, 0.033064, 0.042070,1,-0.018854,-0.043881,-1.216552,-0.002989,-0.096416, 0.037871, 0.134164, 0.243179,-0.104378,-0.000000, 0.000000,-0.000000,1,0
1777416009953125643,849101000000,   849.101,-0.001021,-0.000827,-0.016044,-0.000822,-0.002511, 0.000347, 0.152932,-0.288240, 1.215027,1, 0.041258, 0.033064, 0.042070,1,-0.018854,-0.043881,-1.216552,-0.002989,-0.096416, 0.037871, 0.134164, 0.243179,-0.104378,-0.000000, 0.000000,-0.000000,1,0
1777416009972854244,849121000000,   849.121, 0.000991, 0.000932,-0.012693,-0.000639,-0.000703, 0.000104,-0.715620, 0.057851, 1.474110,1, 0.055900, 0.053797, 0.030182,1, 0.029678, 0.077607,-1.018223, 0.000483,-0.014251, 0.019556, 0.134531, 0.243233,-0.104455,-0.000000, 0.000000,-0.000000,1,0
1777416009982523501,849141000000,   849.141, 0.000745,-0.001981,-0.009363, 0.000097, 0.000569, 0.000531,-0.731085, 0.426926,-0.084770,1,-0.002679, 0.004307, 0.040174,1, 0.024144,-0.089751,-0.993668,-0.008730, 0.026207, 0.047128, 0.134330, 0.243487,-0.104003,-0.000000, 0.000000,-0.000000,1,0
1777416009992625004,849141000000,   849.141, 0.000745,-0.001981,-0.009363, 0.000097, 0.000569, 0.000531,-0.731085, 0.426926,-0.084770,1,-0.002679, 0.004307, 0.040174,1, 0.024144,-0.089751,-0.993668,-0.008730, 0.026207, 0.047128, 0.134330, 0.243487,-0.104003,-0.000000, 0.000000,-0.000000,1,0
1777416010002213944,849161000000,   849.161,-0.000287, 0.000348,-0.010588,-0.000559, 0.000547, 0.000539,-0.709811, 0.018792,-0.438302,1,-0.036980,-0.039207, 0.038455,1,-0.022237, 0.005590,-1.088277,-0.048450,-0.000137, 0.046119, 0.134519, 0.243315,-0.102966,-0.000000, 0.000000,-0.000000,1,0
1777416010012296064,849161000000,   849.161,-0.000287, 0.000348,-0.010588,-0.000559, 0.000547, 0.000539,-0.709811, 0.018792,-0.438302,1,-0.036980,-0.039207, 0.038455,1,-0.022237, 0.005590,-1.088277,-0.048450,-0.000137, 0.046119, 0.134519, 0.243315,-0.102966,-0.000000, 0.000000,-0.000000,1,0
1777416010032040074,849181000000,   849.181, 0.000560,-0.002296,-0.009502,-0.000621, 0.000038, 0.000412,-0.396127, 0.060171, 1.193528,1, 0.013152, 0.051571, 0.048466,1, 0.030847,-0.093877,-0.943364,-0.029913, 0.018947, 0.043599, 0.135265, 0.243070,-0.103022,-0.000000, 0.000000,-0.000000,1,0
1777416010051794341,849201000000,   849.201,-0.000159,-0.001841,-0.012084, 0.000469, 0.000544, 0.000272,-0.648314, 0.145531, 0.071517,1,-0.010580,-0.048092, 0.036374,1,-0.019275,-0.070500,-1.123479, 0.013133,-0.005805, 0.030766, 0.134765, 0.242581,-0.102802,-0.000000, 0.000000,-0.000000,1,0
1777416010061032741,849221000000,   849.221, 0.000002,-0.000877,-0.013146,-0.000454,-0.000370, 0.000158,-0.376804, 0.247303, 0.928730,1, 0.050296, 0.025031, 0.021595,1, 0.009080,-0.021501,-1.096066, 0.008639,-0.006190, 0.018568, 0.135398, 0.242344,-0.103152,-0.000000, 0.000000,-0.000000,1,0
1777416010071115288,849221000000,   849.221, 0.000002,-0.000877,-0.013146,-0.000454,-0.000370, 0.000158,-0.376804, 0.247303, 0.928730,1, 0.050296, 0.025031, 0.021595,1, 0.009080,-0.021501,-1.096066, 0.008639,-0.006190, 0.018568, 0.135398, 0.242344,-0.103152,-0.000000, 0.000000,-0.000000,1,0
1777416010090787701,849231000000,   849.236,-0.000132, 0.000632,-0.008722, 0.000100, 0.000097, 0.000030,-0.511069, 0.184696, 0.085434,1, 0.012788, 0.007475, 0.011578,1, 0.004533, 0.014907,-0.989675, 0.012788, 0.007475, 0.011578, 0.135118, 0.242186,-0.102809,-0.000000, 0.000000,-0.000000,1,0
1777416010100456218,849251000000,   849.256, 0.001001,-0.000079,-0.010755, 0.000003,-0.000158, 0.000009,-0.057821,-0.097481,-0.247773,1, 0.016227, 0.002390, 0.007518,1, 0.050933,-0.014008,-1.023641, 0.016227, 0.002390, 0.007518, 0.135271, 0.242247,-0.102729,-0.000000, 0.000000,-0.000000,1,0
1777416010110539228,849251000000,   849.256, 0.001001,-0.000079,-0.010755, 0.000003,-0.000158, 0.000009,-0.057821,-0.097481,-0.247773,1, 0.016227, 0.002390, 0.007518,1, 0.050933,-0.014008,-1.023641, 0.016227, 0.002390, 0.007518, 0.135271, 0.242247,-0.102729,-0.000000, 0.000000,-0.000000,1,0
1777416010120212208,849271000000,   849.276, 0.000327, 0.001172,-0.006555, 0.000748, 0.000737, 0.000009,-0.365442, 0.152409, 1.315443,1, 0.039356, 0.028276, 0.005244,1, 0.019413, 0.011382,-0.864246, 0.039356, 0.028276, 0.005244, 0.134998, 0.242169,-0.102534,-0.000000, 0.000000,-0.000000,1,0
1777416010130294069,849271000000,   849.276, 0.000327, 0.001172,-0.006555, 0.000748, 0.000737, 0.000009,-0.365442, 0.152409, 1.315443,1, 0.039356, 0.028276, 0.005244,1, 0.019413, 0.011382,-0.864246, 0.039356, 0.028276, 0.005244, 0.134998, 0.242169,-0.102534,-0.000000, 0.000000,-0.000000,1,0
1777416010150035857,849291000000,   849.296,-0.000425, 0.000193,-0.007688, 0.000230, 0.000363, 0.000215,-0.672456, 0.115095, 0.524089,1,-0.004679, 0.017340, 0.009064,1,-0.011766, 0.007490,-0.944934,-0.004680, 0.017340, 0.009064, 0.135210, 0.242192,-0.102384,-0.000000, 0.000000,-0.000000,1,0
1777416010169789050,849311000000,   849.316, 0.000688,-0.000160,-0.008434, 0.000142, 0.000536, 0.000353,-0.278258,-0.039821, 0.479478,1,-0.008445, 0.032655, 0.021348,1, 0.028769,-0.008179,-0.949464,-0.008445, 0.032655, 0.021348, 0.135552, 0.241221,-0.102821,-0.000000, 0.000000,-0.000000,1,0
1777416010179454439,849331000000,   849.336, 0.000327, 0.000879,-0.008569,-0.000207, 0.000136, 0.000161,-0.212731, 0.199102, 0.428123,1,-0.021203,-0.001342, 0.020488,1, 0.035457, 0.016485,-0.954702,-0.021203,-0.001342, 0.020488, 0.136219, 0.241537,-0.102347,-0.000000, 0.000000,-0.000000,1,0
1777416010189563869,849331000000,   849.336, 0.000327, 0.000879,-0.008569,-0.000207, 0.000136, 0.000161,-0.212731, 0.199102, 0.428123,1,-0.021203,-0.001342, 0.020488,1, 0.035457, 0.016485,-0.954702,-0.021203,-0.001342, 0.020488, 0.136219, 0.241537,-0.102347,-0.000000, 0.000000,-0.000000,1,0
1777416010199150440,849351000000,   849.356, 0.000118,-0.000649,-0.012404,-0.000109,-0.000407,-0.000026,-0.263440,-0.561395,-0.722450,1, 0.007114,-0.010472, 0.014075,1, 0.030357,-0.061040,-1.072024, 0.007114,-0.010472, 0.014075, 0.135951, 0.241100,-0.102684,-0.000000, 0.000000,-0.000000,1,0
1777416010209232024,849351000000,   849.356, 0.000118,-0.000649,-0.012404,-0.000109,-0.000407,-0.000026,-0.263440,-0.561395,-0.722450,1, 0.007114,-0.010472, 0.014075,1, 0.030357,-0.061040,-1.072024, 0.007114,-0.010472, 0.014075, 0.135951, 0.241100,-0.102684,-0.000000, 0.000000,-0.000000,1,0
1777416010228959148,849371000000,   849.376, 0.000023, 0.000535,-0.009183, 0.000888, 0.000491, 0.000085,-0.356868, 0.273402, 0.259536,1, 0.047851, 0.025476, 0.007815,1, 0.020941, 0.024046,-0.971882, 0.047851, 0.025476, 0.007815, 0.136207, 0.241162,-0.102352,-0.000000, 0.000000,-0.000000,1,0
1777416010238653772,849391000000,   849.396,-0.000198, 0.000158,-0.005290, 0.000595, 0.000206,-0.000120,-0.558037, 0.081629, 1.974999,1, 0.003348, 0.023794,-0.008600,1, 0.000724, 0.004194,-0.796935, 0.003348, 0.023794,-0.008600, 0.136073, 0.240804,-0.101953,-0.000000, 0.000000,-0.000000,1,0
1777416010248735670,849391000000,   849.396,-0.000198, 0.000158,-0.005290, 0.000595, 0.000206,-0.000120,-0.558037, 0.081629, 1.974999,1, 0.003348, 0.023794,-0.008600,1, 0.000724, 0.004194,-0.796935, 0.003348, 0.023794,-0.008600, 0.136073, 0.240804,-0.101953,-0.000000, 0.000000,-0.000000,1,0
1777416010258383470,849411000000,   849.416,-0.000169, 0.000853,-0.007385, 0.000298, 0.001110, 0.000096,-0.509759, 0.299724, 0.186091,1,-0.008272, 0.035846, 0.005754,1, 0.005416, 0.026844,-0.979368,-0.008272, 0.035846, 0.005754, 0.135593, 0.240533,-0.101990,-0.000000, 0.000000,-0.000000,1,0
1777416010268465405,849411000000,   849.416,-0.000169, 0.000853,-0.007385, 0.000298, 0.001110, 0.000096,-0.509759, 0.299724, 0.186091,1,-0.008272, 0.035846, 0.005754,1, 0.005416, 0.026844,-0.979368,-0.008272, 0.035846, 0.005754, 0.135593, 0.240533,-0.101990,-0.000000, 0.000000,-0.000000,1,0
1777416010284026397,849431000000,   849.436, 0.000467,-0.001387,-0.011216,-0.000055,-0.000369, 0.000119,-0.410381,-0.652374,-0.417510,1,-0.006387,-0.006523, 0.013310,1, 0.015629,-0.070092,-1.040915,-0.006387,-0.006523, 0.013310, 0.136368, 0.240347,-0.101668,-0.000000, 0.000000,-0.000000,1,0
1777416010303715418,849451000000,   849.451, 0.000512, 0.000808,-0.009830,-0.000273, 0.000070,-0.000260,-0.450869,-0.026752, 0.188011,1,-0.011072,-0.005265,-0.010394,1, 0.011200,-0.006143,-0.979186,-0.011072,-0.005265,-0.010394, 0.136801, 0.240222,-0.102006,-0.000000, 0.000000,-0.000000,1,0
1777416010313394378,849471000000,   849.471, 0.000918,-0.000601,-0.009447,-0.000164, 0.000158,-0.000064,-0.022658,-0.239137,-0.114893,1,-0.007610, 0.003991,-0.008945,1, 0.054887,-0.027605,-1.010073,-0.007610, 0.003991,-0.008945, 0.136128, 0.240187,-0.102648,-0.000000, 0.000000,-0.000000,1,0
1777416010323476517,849471000000,   849.471, 0.000918,-0.000601,-0.009447,-0.000164, 0.000158,-0.000064,-0.022658,-0.239137,-0.114893,1,-0.007610, 0.003991,-0.008945,1, 0.054887,-0.027605,-1.010073,-0.007610, 0.003991,-0.008945, 0.136128, 0.240187,-0.102648,-0.000000, 0.000000,-0.000000,1,0
1777416010342900794,849491000000,   849.491, 0.000328, 0.001067,-0.008600,-0.000141, 0.000272,-0.000132,-0.216045,-0.213055,-0.161159,1,-0.007777,-0.001262,-0.011621,1, 0.033409, 0.041786,-0.937066,-0.011261, 0.013510,-0.012316, 0.136163, 0.240051,-0.101518,-0.000000, 0.000000,-0.000000,1,0
1777416010352652462,849511000000,   849.511, 0.000124,-0.000216,-0.010578,-0.000231, 0.000055, 0.000005,-0.070672,-0.122876,-0.145717,1,-0.020118, 0.009289,-0.002518,1, 0.030001,-0.023615,-1.029006,-0.021159, 0.008873,-0.000290, 0.135992, 0.239285,-0.101212,-0.000000, 0.000000,-0.000000,1,0
1777416010362769261,849511000000,   849.511, 0.000124,-0.000216,-0.010578,-0.000231, 0.000055, 0.000005,-0.070672,-0.122876,-0.145717,1,-0.020118, 0.009289,-0.002518,1, 0.030001,-0.023615,-1.029006,-0.021159, 0.008873,-0.000290, 0.135992, 0.239285,-0.101212,-0.000000, 0.000000,-0.000000,1,0
1777416010372324449,849531000000,   849.531,-0.000104,-0.000154,-0.009112, 0.000219, 0.000540, 0.000147,-0.318988, 0.252834,-0.330323,1,-0.038144, 0.012241, 0.004750,1, 0.007731,-0.001498,-0.970120,-0.009465, 0.032166, 0.009996, 0.136124, 0.239123,-0.100921,-0.000000, 0.000000,-0.000000,1,0
1777416010382406477,849531000000,   849.531,-0.000104,-0.000154,-0.009112, 0.000219, 0.000540, 0.000147,-0.318988, 0.252834,-0.330323,1,-0.038144, 0.012241, 0.004750,1, 0.007731,-0.001498,-0.970120,-0.009465, 0.032166, 0.009996, 0.136124, 0.239123,-0.100921,-0.000000, 0.000000,-0.000000,1,0
1777416010392015581,849551000000,   849.551,-0.000106,-0.000180,-0.010329,-0.000254,-0.000390, 0.000041,-0.298273, 0.094471, 0.202696,1,-0.013844, 0.024341, 0.006029,1, 0.006141, 0.006359,-1.004592,-0.020174,-0.005043, 0.003868, 0.136553, 0.238436,-0.101252,-0.000000, 0.000000,-0.000000,1,0
1777416010402097887,849551000000,   849.551,-0.000106,-0.000180,-0.010329,-0.000254,-0.000390, 0.000041,-0.298273, 0.094471, 0.202696,1,-0.013844, 0.024341, 0.006029,1, 0.006141, 0.006359,-1.004592,-0.020174,-0.005043, 0.003868, 0.136553, 0.238436,-0.101252,-0.000000, 0.000000,-0.000000,1,0
1777416010421830399,849571000000,   849.571, 0.000249, 0.000591,-0.009358, 0.000148, 0.000382, 0.000184,-0.727868, 0.331927, 0.343537,1,-0.017811, 0.004846, 0.005553,1,-0.001087, 0.042188,-0.931526,-0.001111, 0.022598, 0.012241, 0.136477, 0.238563,-0.101061,-0.000000, 0.000000,-0.000000,1,0
1777416010431512673,849591000000,   849.591,-0.000856, 0.000616,-0.006508, 0.000518, 0.000404,-0.000037,-0.618429,-0.276699,-1.508274,1,-0.013561,-0.017526, 0.011387,1,-0.041492, 0.010224,-0.913449, 0.018438, 0.011928, 0.004842, 0.136183, 0.238174,-0.100793,-0.000000, 0.000000,-0.000000,1,0
1777416010441594146,849591000000,   849.591,-0.000856, 0.000616,-0.006508, 0.000518, 0.000404,-0.000037,-0.618429,-0.276699,-1.508274,1,-0.013561,-0.017526, 0.011387,1,-0.041492, 0.010224,-0.913449, 0.018438, 0.011928, 0.004842, 0.136183, 0.238174,-0.100793,-0.000000, 0.000000,-0.000000,1,0
1777416010451256794,849611000000,   849.611, 0.000064,-0.000743,-0.009865, 0.000373, 0.000126, 0.000138,-0.738359,-0.080771,-0.197372,1,-0.004508, 0.012564,-0.003066,1,-0.007914,-0.057274,-1.005635, 0.011565, 0.016212, 0.005438, 0.136173, 0.237725,-0.101399,-0.000000, 0.000000,-0.000000,1,0
1777416010461352597,849611000000,   849.611, 0.000064,-0.000743,-0.009865, 0.000373, 0.000126, 0.000138,-0.738359,-0.080771,-0.197372,1,-0.004508, 0.012564,-0.003066,1,-0.007914,-0.057274,-1.005635, 0.011565, 0.016212, 0.005438, 0.136173, 0.237725,-0.101399,-0.000000, 0.000000,-0.000000,1,0
1777416010481018734,849631000000,   849.631, 0.000485, 0.000034,-0.010819,-0.000349, 0.000147, 0.000190,-0.663209, 0.451422, 0.526528,1,-0.005276, 0.016101,-0.003620,1, 0.018972, 0.027450,-1.032200,-0.017335, 0.011519, 0.006681, 0.135936, 0.237547,-0.100446,-0.000000, 0.000000,-0.000000,1,0
1777416010500761263,849641000000,   849.646,-0.000692,-0.000695,-0.009555,-0.000022,-0.000011, 0.000213,-0.733950,-0.122975, 0.166115,1,-0.009613, 0.009937, 0.011779,1,-0.016585,-0.013804,-0.981362,-0.009614, 0.009937, 0.011779, 0.136262, 0.237826,-0.100191,-0.000000, 0.000000,-0.000000,1,0
1777416010510441204,849661000000,   849.666,-0.000010,-0.000679,-0.011283,-0.000522,-0.000462, 0.000086,-0.467284,-0.219577,-0.213266,1,-0.027541,-0.004562, 0.009534,1, 0.010893,-0.023476,-1.020031,-0.027541,-0.004562, 0.009534, 0.136467, 0.238119,-0.099969,-0.000000, 0.000000,-0.000000,1,0
1777416010520523732,849661000000,   849.666,-0.000010,-0.000679,-0.011283,-0.000522,-0.000462, 0.000086,-0.467284,-0.219577,-0.213266,1,-0.027541,-0.004562, 0.009534,1, 0.010893,-0.023476,-1.020031,-0.027541,-0.004562, 0.009534, 0.136467, 0.238119,-0.099969,-0.000000, 0.000000,-0.000000,1,0
1777416010530186677,849681000000,   849.686, 0.000288,-0.000740,-0.008846, 0.000184, 0.000462, 0.000188,-0.519682,-0.189953, 0.671951,1, 0.001686, 0.018989, 0.014404,1, 0.005642,-0.020460,-0.929759, 0.001686, 0.018989, 0.014404, 0.136805, 0.238026,-0.101214,-0.000000, 0.000000,-0.000000,1,0
1777416010540269538,849681000000,   849.686, 0.000288,-0.000740,-0.008846, 0.000184, 0.000462, 0.000188,-0.519682,-0.189953, 0.671951,1, 0.001686, 0.018989, 0.014404,1, 0.005642,-0.020460,-0.929759, 0.001686, 0.018989, 0.014404, 0.136805, 0.238026,-0.101214,-0.000000, 0.000000,-0.000000,1,0
1777416010560010197,849701000000,   849.706,-0.000403, 0.000141,-0.010424,-0.000029,-0.000270, 0.000039,-0.643366, 0.043996,-0.341566,1,-0.003577,-0.017376, 0.008844,1,-0.007130, 0.003389,-1.033118,-0.003577,-0.017376, 0.008844, 0.136801, 0.237083,-0.101191,-0.000000, 0.000000,-0.000000,1,0
1777416010579697607,849721000000,   849.726, 0.000308,-0.003024,-0.013237,-0.000485,-0.000657, 0.000180,-0.428470,-0.797245,-1.028424,1,-0.024745,-0.030111, 0.011047,1, 0.014831,-0.082673,-1.103155,-0.024745,-0.030111, 0.011047, 0.136031, 0.237212,-0.100779,-0.000000, 0.000000,-0.000000,1,0
1777416010589370364,849741000000,   849.746, 0.000341,-0.000322,-0.012252,-0.000074, 0.000374,-0.000031,-0.457979,-0.176889,-0.868675,1,-0.002959,-0.002518,-0.000481,1, 0.011552,-0.019723,-1.086880,-0.002960,-0.002518,-0.000481, 0.136355, 0.236873,-0.100087,-0.000000, 0.000000,-0.000000,1,0
1777416010599467408,849741000000,   849.746, 0.000341,-0.000322,-0.012252,-0.000074, 0.000374,-0.000031,-0.457979,-0.176889,-0.868675,1,-0.002959,-0.002518,-0.000481,1, 0.011552,-0.019723,-1.086880,-0.002960,-0.002518,-0.000481, 0.136355, 0.236873,-0.100087,-0.000000, 0.000000,-0.000000,1,0
1777416010609127372,849761000000,   849.766, 0.000253,-0.002130,-0.012198, 0.000449, 0.000014, 0.000371,-0.371543,-0.696106,-0.583435,1, 0.028008, 0.002868, 0.021363,1, 0.020475,-0.072862,-1.057787, 0.028007, 0.002869, 0.021363, 0.136500, 0.236822,-0.100528,-0.000000, 0.000000,-0.000000,1,0
1777416010619209492,849761000000,   849.766, 0.000253,-0.002130,-0.012198, 0.000449, 0.000014, 0.000371,-0.371543,-0.696106,-0.583435,1, 0.028008, 0.002868, 0.021363,1, 0.020475,-0.072862,-1.057787, 0.028007, 0.002869, 0.021363, 0.136500, 0.236822,-0.100528,-0.000000, 0.000000,-0.000000,1,0
1777416010638942523,849781000000,   849.786,-0.000188, 0.001798,-0.008755,-0.000925, 0.000384, 0.000444,-0.529144, 0.830543, 0.088739,1,-0.047575, 0.001004, 0.026412,1, 0.004328, 0.083198,-0.989250,-0.047576, 0.001004, 0.026412, 0.136329, 0.236310,-0.100663,-0.000000, 0.000000,-0.000000,1,0
1777416010648634295,849801000000,   849.806, 0.000249,-0.001902,-0.011060,-0.000518,-0.000612, 0.000431,-0.212775,-0.488685,-0.444749,1,-0.024797,-0.019081, 0.039256,1, 0.036883,-0.051110,-1.043633,-0.024797,-0.019081, 0.039256, 0.136733, 0.236377,-0.101221,-0.000000, 0.000000,-0.000000,1,0
1777416010658716157,849801000000,   849.806, 0.000249,-0.001902,-0.011060,-0.000518,-0.000612, 0.000431,-0.212775,-0.488685,-0.444749,1,-0.024797,-0.019081, 0.039256,1, 0.036883,-0.051110,-1.043633,-0.024797,-0.019081, 0.039256, 0.136733, 0.236377,-0.101221,-0.000000, 0.000000,-0.000000,1,0
1777416010668376954,849821000000,   849.826, 0.000298,-0.000749,-0.012814,-0.000245,-0.000075, 0.000019,-0.337147,-0.089123,-0.691003,1,-0.012503,-0.014417, 0.018397,1, 0.023551,-0.010575,-1.068782,-0.012503,-0.014416, 0.018397, 0.137272, 0.235869,-0.100848,-0.000000, 0.000000,-0.000000,1,0
1777416010678458482,849821000000,   849.826, 0.000298,-0.000749,-0.012814,-0.000245,-0.000075, 0.000019,-0.337147,-0.089123,-0.691003,1,-0.012503,-0.014417, 0.018397,1, 0.023551,-0.010575,-1.068782,-0.012503,-0.014416, 0.018397, 0.137272, 0.235869,-0.100848,-0.000000, 0.000000,-0.000000,1,0
1777416010694007346,849841000000,   849.846,-0.000026, 0.000392,-0.013756,-0.000660,-0.000424, 0.000048,-0.611677, 0.462449,-1.105016,1,-0.016183,-0.019711, 0.016412,1,-0.004655, 0.045267,-1.111011,-0.016184,-0.019711, 0.016412, 0.136770, 0.235831,-0.101008,-0.000000, 0.000000,-0.000000,1,0
1777416010713688424,849851000000,   849.856,-0.000433, 0.001277,-0.007143, 0.000481, 0.000616, 0.000380,-0.446260, 0.262117, 0.053381,1, 0.000670, 0.015950, 0.030832,1,-0.026564, 0.088142,-0.925017, 0.010160, 0.024788, 0.026567, 0.137172, 0.235868,-0.100787,-0.000000, 0.000000,-0.000000,1,0
1777416010723433075,849881000000,   849.881,-0.000546, 0.000708,-0.011454,-0.000090,-0.000967, 0.000269,-0.691127, 0.193289,-0.337884,1, 0.002247,-0.038801, 0.033358,1,-0.012943, 0.017366,-1.032795, 0.002247,-0.038801, 0.033358, 0.136801, 0.235497,-0.099976,-0.000000, 0.000000,-0.000000,1,0
1777416010733515696,849881000000,   849.881,-0.000546, 0.000708,-0.011454,-0.000090,-0.000967, 0.000269,-0.691127, 0.193289,-0.337884,1, 0.002247,-0.038801, 0.033358,1,-0.012943, 0.017366,-1.032795, 0.002247,-0.038801, 0.033358, 0.136801, 0.235497,-0.099976,-0.000000, 0.000000,-0.000000,1,0
1777416010752878356,849901000000,   849.901, 0.000126, 0.000875,-0.010534,-0.000045,-0.000322, 0.000507,-0.420638, 0.120680, 0.007696,1, 0.002163, 0.015029, 0.032786,1, 0.008375, 0.039729,-1.003891,-0.001554,-0.003546, 0.041885, 0.136851, 0.235448,-0.100799,-0.000000, 0.000000,-0.000000,1,0
1777416010762627802,849921000000,   849.921, 0.000517,-0.000769,-0.010541, 0.000086,-0.000160, 0.000607,-0.390404, 0.264408, 0.170221,1,-0.007449, 0.015185, 0.050317,1, 0.036307,-0.029901,-1.024314, 0.001141, 0.001892, 0.055335, 0.137270, 0.235115,-0.101442,-0.000000, 0.000000,-0.000000,1,0
1777416010772710866,849921000000,   849.921, 0.000517,-0.000769,-0.010541, 0.000086,-0.000160, 0.000607,-0.390404, 0.264408, 0.170221,1,-0.007449, 0.015185, 0.050317,1, 0.036307,-0.029901,-1.024314, 0.001141, 0.001892, 0.055335, 0.137270, 0.235115,-0.101442,-0.000000, 0.000000,-0.000000,1,0
1777416010782242115,849941000000,   849.941, 0.000282, 0.001108,-0.009904, 0.000185,-0.000138, 0.000325,-0.359752,-0.527906, 0.268767,1, 0.006649,-0.007401, 0.050422,1, 0.024749, 0.018788,-0.972646, 0.017299,-0.009397, 0.043376, 0.137581, 0.234772,-0.101233,-0.000000, 0.000000,-0.000000,1,0
1777416010792324773,849941000000,   849.941, 0.000282, 0.001108,-0.009904, 0.000185,-0.000138, 0.000325,-0.359752,-0.527906, 0.268767,1, 0.006649,-0.007401, 0.050422,1, 0.024749, 0.018788,-0.972646, 0.017299,-0.009397, 0.043376, 0.137581, 0.234772,-0.101233,-0.000000, 0.000000,-0.000000,1,0
1777416010812059136,849961000000,   849.961, 0.000068, 0.001794,-0.006539, 0.000200, 0.000534, 0.000395,-0.206082,-0.189471,-0.690937,1, 0.015697,-0.009327, 0.031432,1, 0.027831, 0.074748,-0.866952, 0.014448, 0.023538, 0.034735, 0.137823, 0.234792,-0.101429,-0.000000, 0.000000,-0.000000,1,0
1777416010831875558,849981000000,   849.981,-0.000821,-0.003217,-0.010476,-0.000007,-0.000258, 0.000755,-0.070730, 1.150311, 0.425694,1,-0.008673, 0.000889, 0.042164,1,-0.019909,-0.076009,-1.012913,-0.021677,-0.012026, 0.054169, 0.137821, 0.234765,-0.100719,-0.000000, 0.000000,-0.000000,1,0
1777416010841481847,850001000000,   850.001, 0.000135,-0.001270,-0.010025,-0.000409, 0.000920, 0.000559,-0.600002, 0.920842,-0.092214,1,-0.004781,-0.015277, 0.041076,1, 0.017193, 0.008085,-1.059272,-0.040115, 0.029912, 0.045284, 0.137200, 0.234421,-0.100403,-0.000000, 0.000000,-0.000000,1,0
1777416010851572059,850001000000,   850.001, 0.000135,-0.001270,-0.010025,-0.000409, 0.000920, 0.000559,-0.600002, 0.920842,-0.092214,1,-0.004781,-0.015277, 0.041076,1, 0.017193, 0.008085,-1.059272,-0.040115, 0.029912, 0.045284, 0.137200, 0.234421,-0.100403,-0.000000, 0.000000,-0.000000,1,0
1777416010861272329,850021000000,   850.021, 0.000764, 0.000284,-0.012767,-0.000352, 0.000000, 0.000860,-0.590041, 0.135743, 1.126070,1, 0.011349, 0.035470, 0.064860,1, 0.040189,-0.000558,-1.079025, 0.001357, 0.016885, 0.077512, 0.137970, 0.233809,-0.101174,-0.000000, 0.000000,-0.000000,1,0
1777416010871357338,850021000000,   850.021, 0.000764, 0.000284,-0.012767,-0.000352, 0.000000, 0.000860,-0.590041, 0.135743, 1.126070,1, 0.011349, 0.035470, 0.064860,1, 0.040189,-0.000558,-1.079025, 0.001357, 0.016885, 0.077512, 0.137970, 0.233809,-0.101174,-0.000000, 0.000000,-0.000000,1,0
1777416010891008607,850041000000,   850.041,-0.000145, 0.000578,-0.013261,-0.000317,-0.000859, 0.000623,-0.614605,-0.803277, 0.379563,1,-0.016825, 0.026474, 0.068067,1,-0.019254,-0.033055,-1.091471,-0.017728,-0.022689, 0.067041, 0.138083, 0.234333,-0.101894,-0.000000, 0.000000,-0.000000,1,0
1777416010910746471,850051000000,   850.056, 0.000310, 0.000308,-0.007205, 0.000419, 0.001431, 0.000472,-0.451711,-0.021097, 0.554909,1, 0.010058, 0.053350, 0.057787,1, 0.011309,-0.005220,-0.941763, 0.010057, 0.053350, 0.057787, 0.138616, 0.234146,-0.101302,-0.000000, 0.000000,-0.000000,1,0
1777416010920413729,850071000000,   850.076,-0.000419,-0.000401,-0.010482,-0.000393,-0.000217, 0.000530,-0.661765,-0.151853,-0.197474,1,-0.028620,-0.002676, 0.056673,1,-0.009847,-0.018343,-1.018470,-0.028620,-0.002676, 0.056673, 0.138676, 0.234011,-0.101396,-0.000000, 0.000000,-0.000000,1,0
1777416010930495628,850071000000,   850.076,-0.000419,-0.000401,-0.010482,-0.000393,-0.000217, 0.000530,-0.661765,-0.151853,-0.197474,1,-0.028620,-0.002676, 0.056673,1,-0.009847,-0.018343,-1.018470,-0.028620,-0.002676, 0.056673, 0.138676, 0.234011,-0.101396,-0.000000, 0.000000,-0.000000,1,0
1777416010940166052,850091000000,   850.096, 0.000398,-0.001113,-0.010420,-0.000097, 0.000006, 0.000611,-0.381763,-0.467021,-0.082676,1,-0.014814, 0.014381, 0.057323,1, 0.019090,-0.050320,-1.006742,-0.014814, 0.014381, 0.057323, 0.138695, 0.234120,-0.100842,-0.000000, 0.000000,-0.000000,1,0
1777416010950248395,850091000000,   850.096, 0.000398,-0.001113,-0.010420,-0.000097, 0.000006, 0.000611,-0.381763,-0.467021,-0.082676,1,-0.014814, 0.014381, 0.057323,1, 0.019090,-0.050320,-1.006742,-0.014814, 0.014381, 0.057323, 0.138695, 0.234120,-0.100842,-0.000000, 0.000000,-0.000000,1,0
1777416010969990535,850111000000,   850.116, 0.000121, 0.000144,-0.010105,-0.000334,-0.000044, 0.000479,-0.422864,-0.074354,-0.160673,1,-0.034025, 0.001897, 0.049197,1, 0.014978,-0.009970,-1.014692,-0.034025, 0.001897, 0.049197, 0.139054, 0.234267,-0.100036,-0.000000, 0.000000,-0.000000,1,0
1777416010979618950,850131000000,   850.136, 0.000520,-0.000321,-0.009334,-0.000491, 0.000039, 0.000600,-0.195907,-0.244339, 0.407809,1,-0.027768, 0.010402, 0.059900,1, 0.038520,-0.026876,-0.956700,-0.027768, 0.010402, 0.059900, 0.138865, 0.233876,-0.100613,-0.000000, 0.000000,-0.000000,1,0
1777416010989701163,850131000000,   850.136, 0.000520,-0.000321,-0.009334,-0.000491, 0.000039, 0.000600,-0.195907,-0.244339, 0.407809,1,-0.027768, 0.010402, 0.059900,1, 0.038520,-0.026876,-0.956700,-0.027768, 0.010402, 0.059900, 0.138865, 0.233876,-0.100613,-0.000000, 0.000000,-0.000000,1,0
1777416010999355869,850151000000,   850.156, 0.000803,-0.000303,-0.007190, 0.000130, 0.000891, 0.000316, 0.048481,-0.430466, 0.573077,1, 0.003655, 0.030557, 0.048973,1, 0.063476,-0.045602,-0.939846, 0.003654, 0.030558, 0.048973, 0.138888, 0.233512,-0.101253,-0.000000, 0.000000,-0.000000,1,0
1777416011009437955,850151000000,   850.156, 0.000803,-0.000303,-0.007190, 0.000130, 0.000891, 0.000316, 0.048481,-0.430466, 0.573077,1, 0.003655, 0.030557, 0.048973,1, 0.063476,-0.045602,-0.939846, 0.003654, 0.030558, 0.048973, 0.138888, 0.233512,-0.101253,-0.000000, 0.000000,-0.000000,1,0
1777416011019101142,850171000000,   850.176,-0.000525, 0.002071,-0.004604, 0.000955, 0.002377, 0.000461,-0.791942, 1.137846, 1.343847,1, 0.046791, 0.093384, 0.044536,1,-0.022217, 0.114726,-0.861250, 0.046791, 0.093384, 0.044536, 0.139185, 0.233378,-0.101569,-0.000000, 0.000000,-0.000000,1,0
1777416011029183061,850171000000,   850.176,-0.000525, 0.002071,-0.004604, 0.000955, 0.002377, 0.000461,-0.791942, 1.137846, 1.343847,1, 0.046791, 0.093384, 0.044536,1,-0.022217, 0.114726,-0.861250, 0.046791, 0.093384, 0.044536, 0.139185, 0.233378,-0.101569,-0.000000, 0.000000,-0.000000,1,0
1777416011048863587,850191000000,   850.196,-0.000551,-0.000612,-0.012785,-0.000764,-0.001627, 0.000655,-0.601068, 0.057526,-0.823676,1,-0.048488,-0.037163, 0.051392,1,-0.001666, 0.004464,-1.082211,-0.048488,-0.037162, 0.051392, 0.138709, 0.232893,-0.102244,-0.000000, 0.000000,-0.000000,1,0
1777416011064169921,850211000000,   850.216, 0.001425,-0.000160,-0.010999,-0.000246, 0.000705, 0.000507,-0.163078, 0.101023,-0.052734,1,-0.020545, 0.038105, 0.048962,1, 0.043245, 0.009036,-1.003582,-0.020545, 0.038105, 0.048962, 0.138870, 0.232387,-0.101333,-0.000000, 0.000000,-0.000000,1,0
1777416011083805900,850231000000,   850.236, 0.000653,-0.001129,-0.010334, 0.000050, 0.000505, 0.000675,-0.409142,-0.276904, 0.177818,1,-0.017341, 0.020374, 0.062607,1, 0.018135,-0.029151,-0.980074,-0.017341, 0.020374, 0.062607, 0.139328, 0.232097,-0.100565,-0.000000, 0.000000,-0.000000,1,0
1777416011093432205,850251000000,   850.251,-0.000415,-0.000121,-0.010778,-0.000028,-0.000227, 0.000446,-0.718196,-0.316739,-0.008825,1,-0.010825,-0.011102, 0.052239,1,-0.013495,-0.033054,-0.999113,-0.010825,-0.011101, 0.052239, 0.139659, 0.232829,-0.100149,-0.000000, 0.000000,-0.000000,1,0
1777416011103515827,850251000000,   850.251,-0.000415,-0.000121,-0.010778,-0.000028,-0.000227, 0.000446,-0.718196,-0.316739,-0.008825,1,-0.010825,-0.011102, 0.052239,1,-0.013495,-0.033054,-0.999113,-0.010825,-0.011101, 0.052239, 0.139659, 0.232829,-0.100149,-0.000000, 0.000000,-0.000000,1,0
1777416011113172941,850271000000,   850.271,-0.000390, 0.000135,-0.010569,-0.000376,-0.000322, 0.000253,-0.727648,-0.128950,-0.192419,1,-0.015187,-0.012517, 0.036300,1,-0.014518,-0.013913,-1.017838,-0.015187,-0.012516, 0.036300, 0.139612, 0.232894,-0.100677,-0.000000, 0.000000,-0.000000,1,0
1777416011123254712,850271000000,   850.271,-0.000390, 0.000135,-0.010569,-0.000376,-0.000322, 0.000253,-0.727648,-0.128950,-0.192419,1,-0.015187,-0.012517, 0.036300,1,-0.014518,-0.013913,-1.017838,-0.015187,-0.012516, 0.036300, 0.139612, 0.232894,-0.100677,-0.000000, 0.000000,-0.000000,1,0
1777416011142672698,850291000000,   850.291,-0.000239,-0.002615,-0.013783,-0.000622,-0.000375, 0.000153,-0.794132, 0.326952, 1.198752,1, 0.012673, 0.012790, 0.032691,1,-0.036007,-0.073073,-1.148364,-0.038689,-0.016661, 0.022124, 0.139750, 0.232843,-0.101006,-0.000000, 0.000000,-0.000000,1,0
1777416011152344679,850311000000,   850.311, 0.000261,-0.001221,-0.011609,-0.000980, 0.000285, 0.000013,-0.929644, 0.049933, 1.150799,1, 0.051096, 0.001035, 0.007072,1,-0.001720,-0.028029,-1.060567,-0.022414, 0.004735, 0.002582, 0.140112, 0.232413,-0.101516,-0.000000, 0.000000,-0.000000,1,0
1777416011162427487,850311000000,   850.311, 0.000261,-0.001221,-0.011609,-0.000980, 0.000285, 0.000013,-0.929644, 0.049933, 1.150799,1, 0.051096, 0.001035, 0.007072,1,-0.001720,-0.028029,-1.060567,-0.022414, 0.004735, 0.002582, 0.140112, 0.232413,-0.101516,-0.000000, 0.000000,-0.000000,1,0
1777416011172101597,850331000000,   850.331,-0.000344,-0.002237,-0.016637,-0.002182,-0.000776,-0.000048,-0.720985, 0.636709, 1.594269,1, 0.064931, 0.039462, 0.011427,1,-0.028974,-0.014526,-1.203241,-0.068980,-0.018142,-0.000107, 0.139040, 0.232350,-0.100822,-0.000000, 0.000000,-0.000000,1,0
1777416011182203494,850331000000,   850.331,-0.000344,-0.002237,-0.016637,-0.002182,-0.000776,-0.000048,-0.720985, 0.636709, 1.594269,1, 0.064931, 0.039462, 0.011427,1,-0.028974,-0.014526,-1.203241,-0.068980,-0.018142,-0.000107, 0.139040, 0.232350,-0.100822,-0.000000, 0.000000,-0.000000,1,0
1777416011201858840,850351000000,   850.351, 0.000178,-0.000066,-0.011721,-0.000257, 0.000206, 0.000302,-0.829356, 0.535858, 1.221512,1,-0.007826, 0.042029, 0.003921,1,-0.006298, 0.031819,-1.001110,-0.012404, 0.026538, 0.015403, 0.139172, 0.231612,-0.100399,-0.000000, 0.000000,-0.000000,1,0
1777416011211604455,850371000000,   850.371,-0.000354, 0.000399,-0.015861,-0.000585,-0.002008,-0.000125,-0.029666,-1.062054, 1.647158,1, 0.026392, 0.040896, 0.020204,1, 0.011258,-0.036357,-1.152645, 0.003440,-0.066842, 0.005849, 0.139496, 0.231152,-0.100532,-0.000000, 0.000000,-0.000000,1,0
1777416011221685818,850371000000,   850.371,-0.000354, 0.000399,-0.015861,-0.000585,-0.002008,-0.000125,-0.029666,-1.062054, 1.647158,1, 0.026392, 0.040896, 0.020204,1, 0.011258,-0.036357,-1.152645, 0.003440,-0.066842, 0.005849, 0.139496, 0.231152,-0.100532,-0.000000, 0.000000,-0.000000,1,0
1777416011231286036,850391000000,   850.391, 0.000345, 0.000359,-0.010474, 0.000321, 0.000065,-0.000048,-0.557057,-0.433028, 0.537429,1, 0.037910, 0.022152,-0.003837,1, 0.014538,-0.019535,-0.978469, 0.039939, 0.015765,-0.002480, 0.139572, 0.231459,-0.101042,-0.000000, 0.000000,-0.000000,1,0
1777416011241368566,850391000000,   850.391, 0.000345, 0.000359,-0.010474, 0.000321, 0.000065,-0.000048,-0.557057,-0.433028, 0.537429,1, 0.037910, 0.022152,-0.003837,1, 0.014538,-0.019535,-0.978469, 0.039939, 0.015765,-0.002480, 0.139572, 0.231459,-0.101042,-0.000000, 0.000000,-0.000000,1,0
1777416011251038918,850411000000,   850.411, 0.000105, 0.000885,-0.008214, 0.000540, 0.000186, 0.000032,-0.589762, 0.072035,-0.690136,1,-0.008729, 0.008280,-0.012163,1, 0.001259, 0.037032,-0.936110, 0.014863, 0.013971,-0.004780, 0.139147, 0.231123,-0.102411,-0.000000, 0.000000,-0.000000,1,0
1777416011261120708,850411000000,   850.411, 0.000105, 0.000885,-0.008214, 0.000540, 0.000186, 0.000032,-0.589762, 0.072035,-0.690136,1,-0.008729, 0.008280,-0.012163,1, 0.001259, 0.037032,-0.936110, 0.014863, 0.013971,-0.004780, 0.139147, 0.231123,-0.102411,-0.000000, 0.000000,-0.000000,1,0
1777416011280790662,850431000000,   850.431,-0.000321, 0.001486,-0.012888,-0.000243,-0.001052,-0.000252,-0.423110,-1.357046, 0.061920,1,-0.000841, 0.018650,-0.011098,1,-0.017686,-0.019180,-1.099707,-0.013310,-0.037003,-0.015085, 0.139071, 0.230963,-0.101980,-0.000000, 0.000000,-0.000000,1,0
1777416011290453219,850441000000,   850.446, 0.000386, 0.000008,-0.006395, 0.001050, 0.001355,-0.000092,-0.440526,-0.309104, 0.736374,1, 0.042345, 0.039270,-0.010751,1, 0.015608,-0.033680,-0.923075, 0.042345, 0.039270,-0.010751, 0.138814, 0.231106,-0.101518,-0.000000, 0.000000,-0.000000,1,0
1777416011300535509,850441000000,   850.446, 0.000386, 0.000008,-0.006395, 0.001050, 0.001355,-0.000092,-0.440526,-0.309104, 0.736374,1, 0.042345, 0.039270,-0.010751,1, 0.015608,-0.033680,-0.923075, 0.042345, 0.039270,-0.010751, 0.138814, 0.231106,-0.101518,-0.000000, 0.000000,-0.000000,1,0
1777416011310212526,850461000000,   850.466,-0.000572,-0.000078,-0.008893,-0.000271, 0.000194,-0.000096,-0.655958, 0.240680, 0.003082,1,-0.012740, 0.009001,-0.018994,1,-0.006183, 0.022483,-0.997839,-0.012740, 0.009002,-0.018994, 0.139319, 0.231206,-0.101434,-0.000000, 0.000000,-0.000000,1,0
1777416011320295519,850461000000,   850.466,-0.000572,-0.000078,-0.008893,-0.000271, 0.000194,-0.000096,-0.655958, 0.240680, 0.003082,1,-0.012740, 0.009001,-0.018994,1,-0.006183, 0.022483,-0.997839,-0.012740, 0.009002,-0.018994, 0.139319, 0.231206,-0.101434,-0.000000, 0.000000,-0.000000,1,0
1777416011340031164,850481000000,   850.486, 0.000130,-0.002432,-0.009139, 0.000168,-0.000009,-0.000253,-0.488782,-0.762152, 0.387503,1, 0.004925, 0.019627,-0.026042,1, 0.011267,-0.080065,-0.958614, 0.004925, 0.019628,-0.026042, 0.139219, 0.231269,-0.101562,-0.000000, 0.000000,-0.000000,1,0
1777416011359723521,850501000000,   850.506, 0.000309,-0.000442,-0.012693,-0.000193,-0.000795,-0.000600,-0.470630,-0.727544,-0.668830,1,-0.008844,-0.033144,-0.047507,1, 0.012938,-0.076550,-1.066341,-0.008844,-0.033144,-0.047507, 0.138681, 0.230628,-0.101317,-0.000000, 0.000000,-0.000000,1,0
1777416011369398372,850521000000,   850.526, 0.000485,-0.000694,-0.006508, 0.000997, 0.001111,-0.000325,-0.501207,-0.491294, 1.063704,1, 0.029161, 0.041710,-0.046045,1, 0.009809,-0.052425,-0.889672, 0.029160, 0.041711,-0.046045, 0.138631, 0.230207,-0.102469,-0.000000, 0.000000,-0.000000,1,0
1777416011379481032,850521000000,   850.526, 0.000485,-0.000694,-0.006508, 0.000997, 0.001111,-0.000325,-0.501207,-0.491294, 1.063704,1, 0.029161, 0.041710,-0.046045,1, 0.009809,-0.052425,-0.889672, 0.029160, 0.041711,-0.046045, 0.138631, 0.230207,-0.102469,-0.000000, 0.000000,-0.000000,1,0
1777416011389157882,850541000000,   850.546,-0.000069,-0.000880,-0.011072,-0.000947,-0.001087,-0.000854,-0.316338,-0.640507,-0.736989,1,-0.032345,-0.048261,-0.071408,1, 0.028691,-0.067410,-1.073291,-0.032345,-0.048261,-0.071408, 0.138367, 0.230133,-0.102781,-0.000000, 0.000000,-0.000000,1,0
1777416011399257983,850541000000,   850.546,-0.000069,-0.000880,-0.011072,-0.000947,-0.001087,-0.000854,-0.316338,-0.640507,-0.736989,1,-0.032345,-0.048261,-0.071408,1, 0.028691,-0.067410,-1.073291,-0.032345,-0.048261,-0.071408, 0.138367, 0.230133,-0.102781,-0.000000, 0.000000,-0.000000,1,0
1777416011418967226,850561000000,   850.566, 0.000680, 0.001013,-0.011011, 0.000004, 0.000106,-0.000877,-0.292363, 0.428857,-0.043503,1,-0.011204, 0.009721,-0.080100,1, 0.031012, 0.041935,-1.002583,-0.011204, 0.009722,-0.080100, 0.137932, 0.229545,-0.102106,-0.000000, 0.000000,-0.000000,1,0
1777416011428662721,850581000000,   850.586, 0.000774,-0.002556,-0.007651, 0.000366,-0.000037,-0.000726,-0.006719,-1.331832, 0.778519,1, 0.014723, 0.010086,-0.076104,1, 0.060495,-0.137780,-0.918738, 0.014723, 0.010086,-0.076104, 0.137227, 0.229328,-0.102059,-0.000000, 0.000000,-0.000000,1,0
1777416011438744825,850581000000,   850.586, 0.000774,-0.002556,-0.007651, 0.000366,-0.000037,-0.000726,-0.006719,-1.331832, 0.778519,1, 0.014723, 0.010086,-0.076104,1, 0.060495,-0.137780,-0.918738, 0.014723, 0.010086,-0.076104, 0.137227, 0.229328,-0.102059,-0.000000, 0.000000,-0.000000,1,0
1777416011448386553,850601000000,   850.606, 0.000267, 0.002420,-0.009124,-0.000078, 0.000614,-0.000825,-0.219913, 1.004841, 0.011955,1, 0.003877, 0.006080,-0.084147,1, 0.038301, 0.100818,-0.996934, 0.003877, 0.006080,-0.084147, 0.136700, 0.229002,-0.101839,-0.000000, 0.000000,-0.000000,1,0
1777416011458468009,850601000000,   850.606, 0.000267, 0.002420,-0.009124,-0.000078, 0.000614,-0.000825,-0.219913, 1.004841, 0.011955,1, 0.003877, 0.006080,-0.084147,1, 0.038301, 0.100818,-0.996934, 0.003877, 0.006080,-0.084147, 0.136700, 0.229002,-0.101839,-0.000000, 0.000000,-0.000000,1,0
1777416011474022682,850621000000,   850.626, 0.000172,-0.001162,-0.011798,-0.000286,-0.000782,-0.000630,-0.183621,-0.319573,-0.490385,1,-0.015041,-0.018399,-0.064187,1, 0.041619,-0.033853,-1.048182,-0.015041,-0.018399,-0.064187, 0.136334, 0.228681,-0.102057,-0.000000, 0.000000,-0.000000,1,0
1777416011493723908,850641000000,   850.646, 0.000049, 0.000491,-0.009286, 0.000054,-0.000061,-0.000564,-0.485636, 0.132041, 0.275990,1,-0.013963,-0.006205,-0.064489,1, 0.010502, 0.012472,-0.970053,-0.013963,-0.006205,-0.064489, 0.136262, 0.228950,-0.102279,-0.000000, 0.000000,-0.000000,1,0
1777416011503393538,850661000000,   850.661,-0.000260, 0.000336,-0.011704, 0.000080,-0.000026,-0.000318,-0.673518, 0.486405,-1.204887,1,-0.013325,-0.007258,-0.046648,1,-0.008826, 0.049064,-1.121071,-0.013325,-0.007258,-0.046648, 0.135329, 0.228956,-0.102180,-0.000000, 0.000000,-0.000000,1,0
1777416011513474254,850661000000,   850.661,-0.000260, 0.000336,-0.011704, 0.000080,-0.000026,-0.000318,-0.673518, 0.486405,-1.204887,1,-0.013325,-0.007258,-0.046648,1,-0.008826, 0.049064,-1.121071,-0.013325,-0.007258,-0.046648, 0.135329, 0.228956,-0.102180,-0.000000, 0.000000,-0.000000,1,0
1777416011523155715,850681000000,   850.681, 0.000555,-0.000345,-0.011920,-0.000145,-0.000285,-0.000588,-0.370734,-0.480130,-0.334675,1, 0.007197, 0.000320,-0.048118,1, 0.022338,-0.049460,-1.032317, 0.007197, 0.000320,-0.048117, 0.135485, 0.228138,-0.102869,-0.000000, 0.000000,-0.000000,1,0
1777416011533237597,850681000000,   850.681, 0.000555,-0.000345,-0.011920,-0.000145,-0.000285,-0.000588,-0.370734,-0.480130,-0.334675,1, 0.007197, 0.000320,-0.048118,1, 0.022338,-0.049460,-1.032317, 0.007197, 0.000320,-0.048117, 0.135485, 0.228138,-0.102869,-0.000000, 0.000000,-0.000000,1,0
1777416011552652027,850701000000,   850.701, 0.000323,-0.000136,-0.009519,-0.000264, 0.000290,-0.000742,-0.655667,-0.423112, 0.438937,1, 0.019957,-0.000573,-0.059434,1, 0.014932,-0.020105,-0.969521,-0.000416, 0.011298,-0.067326, 0.135097, 0.227791,-0.101724,-0.000000, 0.000000,-0.000000,1,0
1777416011562277184,850721000000,   850.721, 0.000266, 0.000118,-0.007243, 0.000697, 0.000851,-0.000658,-0.610324,-0.216711,-0.379797,1,-0.000877,-0.000819,-0.064268,1, 0.012223,-0.011665,-0.869270, 0.029846, 0.040883,-0.064888, 0.135092, 0.227890,-0.102099,-0.000000, 0.000000,-0.000000,1,0
1777416011572374952,850721000000,   850.721, 0.000266, 0.000118,-0.007243, 0.000697, 0.000851,-0.000658,-0.610324,-0.216711,-0.379797,1,-0.000877,-0.000819,-0.064268,1, 0.012223,-0.011665,-0.869270, 0.029846, 0.040883,-0.064888, 0.135092, 0.227890,-0.102099,-0.000000, 0.000000,-0.000000,1,0
1777416011582030233,850741000000,   850.741,-0.000110,-0.000207,-0.008697,-0.000222,-0.000249,-0.000408, 0.037831, 0.398762,-0.699462,1,-0.028528,-0.029343,-0.080086,1, 0.026770, 0.013386,-0.992908,-0.046371,-0.021828,-0.063662, 0.134611, 0.227878,-0.102010,-0.000000, 0.000000,-0.000000,1,0
1777416011592112837,850741000000,   850.741,-0.000110,-0.000207,-0.008697,-0.000222,-0.000249,-0.000408, 0.037831, 0.398762,-0.699462,1,-0.028528,-0.029343,-0.080086,1, 0.026770, 0.013386,-0.992908,-0.046371,-0.021828,-0.063662, 0.134611, 0.227878,-0.102010,-0.000000, 0.000000,-0.000000,1,0
1777416011611839780,850761000000,   850.761, 0.001455, 0.000423,-0.010527,-0.000703, 0.000578, 0.000033,-0.179788, 1.175699, 0.210118,1,-0.010248, 0.008374,-0.046614,1, 0.092800, 0.074746,-1.076872,-0.047303, 0.019531,-0.023397, 0.134146, 0.227129,-0.102409,-0.000000, 0.000000,-0.000000,1,0
1777416011621587284,850781000000,   850.781, 0.001281,-0.000398,-0.013283,-0.000559,-0.000236,-0.000269,-0.304304, 0.106334, 1.266471,1,-0.021964, 0.011917,-0.007353,1, 0.064365,-0.001788,-1.088852,-0.042052,-0.009638,-0.015888, 0.134463, 0.226752,-0.102660,-0.000000, 0.000000,-0.000000,1,0
1777416011631668518,850781000000,   850.781, 0.001281,-0.000398,-0.013283,-0.000559,-0.000236,-0.000269,-0.304304, 0.106334, 1.266471,1,-0.021964, 0.011917,-0.007353,1, 0.064365,-0.001788,-1.088852,-0.042052,-0.009638,-0.015888, 0.134463, 0.226752,-0.102660,-0.000000, 0.000000,-0.000000,1,0
1777416011641255479,850801000000,   850.801, 0.000955, 0.000773,-0.010043, 0.000307, 0.000005, 0.000077,-0.296525, 0.559319, 0.573559,1,-0.015607, 0.003661,-0.013353,1, 0.051050, 0.063581,-0.961119, 0.008873, 0.001707,-0.002154, 0.133857, 0.226790,-0.103560,-0.000000, 0.000000,-0.000000,1,0
1777416011651352580,850801000000,   850.801, 0.000955, 0.000773,-0.010043, 0.000307, 0.000005, 0.000077,-0.296525, 0.559319, 0.573559,1,-0.015607, 0.003661,-0.013353,1, 0.051050, 0.063581,-0.961119, 0.008873, 0.001707,-0.002154, 0.133857, 0.226790,-0.103560,-0.000000, 0.000000,-0.000000,1,0
1777416011671015906,850821000000,   850.821,-0.000779, 0.000634,-0.004140, 0.000748, 0.000598, 0.000188,-0.115743, 0.295110,-1.601245,1, 0.004689,-0.018653, 0.005050,1,-0.008144, 0.037833,-0.796486, 0.042919, 0.022179, 0.012104, 0.134016, 0.226547,-0.102625,-0.000000, 0.000000, 0.000001,1,0
1777416011690762974,850841000000,   850.841,-0.001243, 0.001283,-0.013904, 0.000274,-0.001058,-0.000040,-0.164186,-0.781878,-0.195471,1,-0.019812,-0.030660, 0.006867,1,-0.038440, 0.013674,-1.142582, 0.004297,-0.051955, 0.002294, 0.133675, 0.226897,-0.102236,-0.000000, 0.000000, 0.000001,1,0
1777416011700439584,850851000000,   850.856, 0.000399,-0.000677,-0.007731, 0.000651, 0.001627, 0.000125,-0.580512,-0.348367,-0.324765,1, 0.027252, 0.038227, 0.008596,1, 0.000448,-0.035135,-1.031336, 0.027252, 0.038228, 0.008596, 0.133704, 0.226894,-0.102253,-0.000000, 0.000000, 0.000001,1,0
1777416011710522392,850851000000,   850.856, 0.000399,-0.000677,-0.007731, 0.000651, 0.001627, 0.000125,-0.580512,-0.348367,-0.324765,1, 0.027252, 0.038227, 0.008596,1, 0.000448,-0.035135,-1.031336, 0.027252, 0.038228, 0.008596, 0.133704, 0.226894,-0.102253,-0.000000, 0.000000, 0.000001,1,0
1777416011720190782,850871000000,   850.876,-0.000452, 0.000456,-0.017135,-0.001791,-0.001922, 0.000125,-0.542356, 0.690199,-2.098667,1,-0.013074,-0.066161, 0.013623,1, 0.004351, 0.070868,-1.212223,-0.013074,-0.066160, 0.013624, 0.133720, 0.226978,-0.101473,-0.000000, 0.000000, 0.000001,1,0
1777416011730273275,850871000000,   850.876,-0.000452, 0.000456,-0.017135,-0.001791,-0.001922, 0.000125,-0.542356, 0.690199,-2.098667,1,-0.013074,-0.066161, 0.013623,1, 0.004351, 0.070868,-1.212223,-0.013074,-0.066160, 0.013624, 0.133720, 0.226978,-0.101473,-0.000000, 0.000000, 0.000001,1,0
1777416011750008716,850891000000,   850.896, 0.000830, 0.000823,-0.011837, 0.000074,-0.000902, 0.000256,-0.424103, 0.407007, 0.502466,1, 0.007626,-0.012041, 0.021749,1, 0.016530, 0.042037,-0.946974, 0.007626,-0.012041, 0.021749, 0.134019, 0.227094,-0.102839,-0.000000, 0.000000, 0.000001,1,0
1777416011769756729,850911000000,   850.916,-0.000648, 0.000788,-0.014253,-0.000378,-0.001427,-0.000059,-0.689697,-0.075883,-1.211515,1, 0.000830,-0.060512, 0.011847,1,-0.011063,-0.007391,-1.121782, 0.000830,-0.060511, 0.011848, 0.133859, 0.226968,-0.102642,-0.000000, 0.000000, 0.000001,1,0
1777416011779372129,850931000000,   850.936, 0.000068, 0.002608,-0.011994,-0.000532,-0.001151, 0.000025,-0.607204, 1.238951,-0.233627,1,-0.001841,-0.024510, 0.008608,1,-0.002743, 0.126193,-1.022071,-0.001842,-0.024510, 0.008609, 0.133689, 0.226587,-0.102136,-0.000000, 0.000000, 0.000001,1,0
1777416011789455455,850931000000,   850.936, 0.000068, 0.002608,-0.011994,-0.000532,-0.001151, 0.000025,-0.607204, 1.238951,-0.233627,1,-0.001841,-0.024510, 0.008608,1,-0.002743, 0.126193,-1.022071,-0.001842,-0.024510, 0.008609, 0.133689, 0.226587,-0.102136,-0.000000, 0.000000, 0.000001,1,0
1777416011799140989,850951000000,   850.956, 0.000117, 0.000066,-0.012481,-0.000515,-0.001841, 0.000223,-0.552955, 0.322760,-0.377603,1,-0.010585,-0.068057, 0.028225,1, 0.002712, 0.032382,-1.036757,-0.010585,-0.068056, 0.028226, 0.133837, 0.226494,-0.102937,-0.000000, 0.000000, 0.000001,1,0
1777416011809223186,850951000000,   850.956, 0.000117, 0.000066,-0.012481,-0.000515,-0.001841, 0.000223,-0.552955, 0.322760,-0.377603,1,-0.010585,-0.068057, 0.028225,1, 0.002712, 0.032382,-1.036757,-0.010585,-0.068056, 0.028226, 0.133837, 0.226494,-0.102937,-0.000000, 0.000000, 0.000001,1,0
1777416011828953165,850971000000,   850.976,-0.000428, 0.000082,-0.010103, 0.000830, 0.000144, 0.000333,-0.878425, 0.271957, 0.069342,1, 0.033252,-0.005889, 0.026197,1,-0.031136, 0.026971,-0.991220, 0.033251,-0.005888, 0.026198, 0.133253, 0.226277,-0.102772,-0.000000, 0.000000, 0.000001,1,0
1777416011838574971,850991000000,   850.996, 0.000108, 0.002492,-0.012293,-0.000624,-0.001028, 0.000531,-0.509384, 1.068730,-0.570112,1,-0.015712,-0.033659, 0.040270,1, 0.006546, 0.107959,-1.056422,-0.015713,-0.033659, 0.040271, 0.133611, 0.226325,-0.103284,-0.000000, 0.000000, 0.000001,1,0
1777416011848674405,850991000000,   850.996, 0.000108, 0.002492,-0.012293,-0.000624,-0.001028, 0.000531,-0.509384, 1.068730,-0.570112,1,-0.015712,-0.033659, 0.040270,1, 0.006546, 0.107959,-1.056422,-0.015713,-0.033659, 0.040271, 0.133611, 0.226325,-0.103284,-0.000000, 0.000000, 0.000001,1,0
1777416011858365290,851011000000,   851.016,-0.000172, 0.000403,-0.008463, 0.000269, 0.000265, 0.000543,-0.704228, 0.115193, 0.662802,1, 0.022816, 0.017238, 0.055020,1,-0.013583, 0.010461,-0.930715, 0.022815, 0.017238, 0.055021, 0.133699, 0.226081,-0.103831,-0.000000, 0.000001, 0.000002,1,0
1777416011868451671,851011000000,   851.016,-0.000172, 0.000403,-0.008463, 0.000269, 0.000265, 0.000543,-0.704228, 0.115193, 0.662802,1, 0.022816, 0.017238, 0.055020,1,-0.013583, 0.010461,-0.930715, 0.022815, 0.017238, 0.055021, 0.133699, 0.226081,-0.103831,-0.000000, 0.000001, 0.000002,1,0
1777416011878070589,851031000000,   851.036,-0.000217, 0.001224,-0.010545,-0.000203,-0.000389, 0.000328,-0.743304, 0.045188,-0.400827,1,-0.003325,-0.018607, 0.040084,1,-0.017831, 0.003001,-1.039190,-0.003326,-0.018606, 0.040086, 0.133412, 0.226417,-0.103562,-0.000000, 0.000001, 0.000002,1,0
1777416011888153156,851031000000,   851.036,-0.000217, 0.001224,-0.010545,-0.000203,-0.000389, 0.000328,-0.743304, 0.045188,-0.400827,1,-0.003325,-0.018607, 0.040084,1,-0.017831, 0.003001,-1.039190,-0.003326,-0.018606, 0.040086, 0.133412, 0.226417,-0.103562,-0.000000, 0.000001, 0.000002,1,0
1777416011903815271,851051000000,   851.056, 0.000447,-0.000581,-0.016854,-0.001487,-0.000403, 0.000049,-0.440485, 0.107333,-2.342441,1,-0.020338,-0.016385, 0.025109,1, 0.012971, 0.009206,-1.237184,-0.020339,-0.016384, 0.025110, 0.133839, 0.226735,-0.102929,-0.000000, 0.000001, 0.000002,1,0
1777416011913373238,851071000000,   851.071, 0.000821, 0.000812,-0.013001,-0.000376,-0.000355, 0.000121,-0.536121, 0.391566,-0.181408,1,-0.006534, 0.009861, 0.023215,1, 0.003465, 0.038024,-1.016805,-0.006534, 0.009861, 0.023216, 0.133487, 0.226459,-0.102550,-0.000000, 0.000001, 0.000002,1,0
1777416011923458712,851071000000,   851.071, 0.000821, 0.000812,-0.013001,-0.000376,-0.000355, 0.000121,-0.536121, 0.391566,-0.181408,1,-0.006534, 0.009861, 0.023215,1, 0.003465, 0.038024,-1.016805,-0.006534, 0.009861, 0.023216, 0.133487, 0.226459,-0.102550,-0.000000, 0.000001, 0.000002,1,0
1777416011933120751,851091000000,   851.091,-0.000428,-0.000338,-0.009981,-0.000043,-0.000621, 0.000324,-0.705419,-0.176238, 0.106753,1,-0.005043,-0.017725, 0.031672,1,-0.013734,-0.019699,-0.987418,-0.005044,-0.017724, 0.031674, 0.133724, 0.226734,-0.103288,-0.000000, 0.000001, 0.000002,1,0
1777416011943203003,851091000000,   851.091,-0.000428,-0.000338,-0.009981,-0.000043,-0.000621, 0.000324,-0.705419,-0.176238, 0.106753,1,-0.005043,-0.017725, 0.031672,1,-0.013734,-0.019699,-0.987418,-0.005044,-0.017724, 0.031674, 0.133724, 0.226734,-0.103288,-0.000000, 0.000001, 0.000002,1,0
1777416011962633375,851111000000,   851.111,-0.000271,-0.000959,-0.009901,-0.000934,-0.000568, 0.000130,-0.371188,-0.079830, 0.558277,1, 0.031821, 0.013564, 0.028304,1,-0.005395,-0.027753,-0.979606,-0.036257,-0.021064, 0.019105, 0.133804, 0.226769,-0.104005,-0.000000, 0.000001, 0.000002,1,0
1777416011972243628,851131000000,   851.131,-0.000706, 0.000929,-0.005868, 0.001130, 0.002382, 0.000399,-1.063020, 0.074376,-2.438503,1,-0.048317,-0.046936, 0.020469,1,-0.053934, 0.029192,-0.979948, 0.022341, 0.081355, 0.030276, 0.133989, 0.226841,-0.103928,-0.000000, 0.000001, 0.000002,1,0
1777416011982326491,851131000000,   851.131,-0.000706, 0.000929,-0.005868, 0.001130, 0.002382, 0.000399,-1.063020, 0.074376,-2.438503,1,-0.048317,-0.046936, 0.020469,1,-0.053934, 0.029192,-0.979948, 0.022341, 0.081355, 0.030276, 0.133989, 0.226841,-0.103928,-0.000000, 0.000001, 0.000002,1,0
1777416011992005027,851151000000,   851.151,-0.000105,-0.000886,-0.012944,-0.000776,-0.001162, 0.000263,-0.405597,-0.175699, 0.839680,1, 0.030405, 0.065893, 0.034258,1, 0.002753,-0.040270,-1.122768,-0.019782,-0.024563, 0.029574, 0.133885, 0.226417,-0.103869,-0.000000, 0.000001, 0.000002,1,0
1777416012002087742,851151000000,   851.151,-0.000105,-0.000886,-0.012944,-0.000776,-0.001162, 0.000263,-0.405597,-0.175699, 0.839680,1, 0.030405, 0.065893, 0.034258,1, 0.002753,-0.040270,-1.122768,-0.019782,-0.024563, 0.029574, 0.133885, 0.226417,-0.103869,-0.000000, 0.000001, 0.000002,1,0
1777416012021816242,851171000000,   851.171, 0.001315, 0.000573,-0.010517, 0.000115, 0.001450, 0.000206,-1.092249, 0.060576, 0.874752,1, 0.003550, 0.011666, 0.023694,1, 0.035162, 0.032471,-0.978093, 0.002861, 0.060647, 0.022119, 0.133757, 0.226629,-0.103589,-0.000000, 0.000001, 0.000002,1,0
1777416012031564950,851191000000,   851.191,-0.000105,-0.000205,-0.009758, 0.000396, 0.000429, 0.000489,-0.409968, 0.238943,-0.302537,1,-0.016670, 0.012427, 0.038750,1, 0.003728,-0.002996,-0.995567, 0.008863, 0.026539, 0.043581, 0.133601, 0.226960,-0.103910,-0.000000, 0.000001, 0.000002,1,0
1777416012041647556,851191000000,   851.191,-0.000105,-0.000205,-0.009758, 0.000396, 0.000429, 0.000489,-0.409968, 0.238943,-0.302537,1,-0.016670, 0.012427, 0.038750,1, 0.003728,-0.002996,-0.995567, 0.008863, 0.026539, 0.043581, 0.133601, 0.226960,-0.103910,-0.000000, 0.000001, 0.000002,1,0
1777416012051181029,851211000000,   851.211, 0.000026, 0.000506,-0.011427,-0.000155,-0.000232, 0.000267,-0.243793,-0.177947, 0.483914,1, 0.007153, 0.016958, 0.034631,1, 0.019594, 0.021622,-1.026371,-0.001766,-0.000427, 0.030384, 0.133271, 0.226546,-0.104333,-0.000000, 0.000001, 0.000002,1,0
1777416012061263986,851211000000,   851.211, 0.000026, 0.000506,-0.011427,-0.000155,-0.000232, 0.000267,-0.243793,-0.177947, 0.483914,1, 0.007153, 0.016958, 0.034631,1, 0.019594, 0.021622,-1.026371,-0.001766,-0.000427, 0.030384, 0.133271, 0.226546,-0.104333,-0.000000, 0.000001, 0.000002,1,0
1777416012080622782,851221000000,   851.226, 0.000447, 0.000741,-0.008980, 0.000518, 0.000555, 0.000512,-0.255685, 0.300455, 0.357518,1, 0.027170, 0.028590, 0.041417,1, 0.034019, 0.028714,-0.961734, 0.027169, 0.028591, 0.041419, 0.133716, 0.226384,-0.104551,-0.000000, 0.000001, 0.000002,1,0
1777416012090237238,851241000000,   851.246, 0.000112, 0.000631,-0.011677,-0.000977,-0.000462, 0.000592,-0.226855, 0.735698,-0.649165,1,-0.034886,-0.014202, 0.050753,1, 0.037160, 0.073386,-1.064376,-0.034886,-0.014201, 0.050756, 0.133688, 0.226966,-0.103651,-0.000000, 0.000001, 0.000002,1,0
1777416012100319715,851241000000,   851.246, 0.000112, 0.000631,-0.011677,-0.000977,-0.000462, 0.000592,-0.226855, 0.735698,-0.649165,1,-0.034886,-0.014202, 0.050753,1, 0.037160, 0.073386,-1.064376,-0.034886,-0.014201, 0.050756, 0.133688, 0.226966,-0.103651,-0.000000, 0.000001, 0.000002,1,0
