Time,reference_time,gps_timestamp,deltaVelX,deltaVelY,deltaVelZ,deltaThetaX,deltaThetaY,deltaThetaZ,estLinearAccelX,estLinearAccelY,estLinearAccelZ,estLinearAccel:valid,estAngularRateX,estAngularRateY,estAngularRateZ,estAngularRate:valid,scaledAccelX,scaledAccelY,scaledAccelZ,scaledGyroX,scaledGyroY,scaledGyroZ,scaledMagX,scaledMagY,scaledMagZ,estGyroBiasX,estGyroBiasY,estGyroBiasZ,estGyroBias:valid,flagStop
1777415839997363569,654097000000,   654.097, 0.000039, 0.000003,-0.009958,-0.000009, 0.000057, 0.000169,-0.098317,-0.025726, 0.032824,1,-0.001843, 0.004017, 0.017069,1, 0.001549,-0.004167,-0.995811,-0.001280, 0.004840, 0.017079, 0.117952, 0.245419,-0.112187,-0.000000, 0.000000, 0.000000,1,0
1777415840016820570,679147000000,   679.152, 0.000027,-0.000081,-0.009973,-0.000022, 0.000031, 0.000166,-0.512686,-0.041231, 0.021648,1,-0.001535, 0.003293, 0.017054,1, 0.001586,-0.008944,-0.996329,-0.001535, 0.003293, 0.017054, 0.117571, 0.245192,-0.111352,-0.000000, 0.000000,-0.000000,1,0
1777415840026560626,679167000000,   679.167, 0.000033,-0.000066,-0.009976,-0.000019, 0.000027, 0.000166,-0.501851,-0.028816, 0.020174,1,-0.001709, 0.003019, 0.016701,1, 0.002748,-0.007665,-0.996477,-0.001709, 0.003019, 0.016701, 0.117892, 0.244974,-0.111732,-0.000000, 0.000000,-0.000000,1,0
1777415840036647433,679167000000,   679.167, 0.000033,-0.000066,-0.009976,-0.000019, 0.000027, 0.000166,-0.501851,-0.028816, 0.020174,1,-0.001709, 0.003019, 0.016701,1, 0.002748,-0.007665,-0.996477,-0.001709, 0.003019, 0.016701, 0.117892, 0.244974,-0.111732,-0.000000, 0.000000,-0.000000,1,0
1777415840046242696,679187000000,   679.187, 0.000043,-0.000037,-0.009958,-0.000017, 0.000027, 0.000174,-0.494508,-0.003186, 0.028494,1,-0.001678, 0.003065, 0.017004,1, 0.003557,-0.005036,-0.995625,-0.001679, 0.003065, 0.017004, 0.118067, 0.244670,-0.112075,-0.000000, 0.000000,-0.000000,1,0
1777415840056328114,679187000000,   679.187, 0.000043,-0.000037,-0.009958,-0.000017, 0.000027, 0.000174,-0.494508,-0.003186, 0.028494,1,-0.001678, 0.003065, 0.017004,1, 0.003557,-0.005036,-0.995625,-0.001679, 0.003065, 0.017004, 0.118067, 0.244670,-0.112075,-0.000000, 0.000000,-0.000000,1,0
1777415840075745004,679207000000,   679.207, 0.000021,-0.000059,-0.009960,-0.000018, 0.000032, 0.000181,-0.495712,-0.004154, 0.030662,1,-0.001598, 0.002879, 0.017381,1, 0.002846,-0.005521,-0.995746,-0.001671, 0.003033, 0.017728, 0.118210, 0.244445,-0.111921,-0.000000, 0.000000,-0.000000,1,0
1777415840085419654,679227000000,   679.227, 0.000006,-0.000080,-0.009955,-0.000017, 0.000028, 0.000183,-0.509933,-0.013584, 0.028418,1,-0.001739, 0.003117, 0.018105,1, 0.001353,-0.006951,-0.995593,-0.001685, 0.002984, 0.018210, 0.118040, 0.244749,-0.110936,-0.000000, 0.000000,-0.000000,1,0
1777415840095505202,679227000000,   679.227, 0.000006,-0.000080,-0.009955,-0.000017, 0.000028, 0.000183,-0.509933,-0.013584, 0.028418,1,-0.001739, 0.003117, 0.018105,1, 0.001353,-0.006951,-0.995593,-0.001685, 0.002984, 0.018210, 0.118040, 0.244749,-0.110936,-0.000000, 0.000000,-0.000000,1,0
1777415840105165574,679247000000,   679.247,-0.000011,-0.000073,-0.009958,-0.000019, 0.000041, 0.000178,-0.522695,-0.028576, 0.028083,1,-0.001837, 0.003411, 0.018028,1,-0.000076,-0.007425,-0.995710,-0.001896, 0.003718, 0.017937, 0.117741, 0.244889,-0.111443,-0.000000, 0.000000,-0.000000,1,0
1777415840115250029,679247000000,   679.247,-0.000011,-0.000073,-0.009958,-0.000019, 0.000041, 0.000178,-0.522695,-0.028576, 0.028083,1,-0.001837, 0.003411, 0.018028,1,-0.000076,-0.007425,-0.995710,-0.001896, 0.003718, 0.017937, 0.117741, 0.244889,-0.111443,-0.000000, 0.000000,-0.000000,1,0
1777415840134933080,679267000000,   679.267,-0.000010,-0.000052,-0.009953,-0.000005, 0.000034, 0.000188,-0.537471,-0.022490, 0.024932,1,-0.001619, 0.003760, 0.017955,1,-0.000777,-0.006134,-0.995668,-0.001053, 0.003621, 0.018355, 0.117761, 0.244876,-0.111167,-0.000000, 0.000000,-0.000000,1,0
1777415840144624656,679287000000,   679.287, 0.000002,-0.000038,-0.009954,-0.000012, 0.000033, 0.000195,-0.531920,-0.007784, 0.029122,1,-0.000740, 0.004029, 0.018669,1,-0.000348,-0.004731,-0.995434,-0.000931, 0.003678, 0.019070, 0.118457, 0.245230,-0.111536,-0.000000, 0.000000,-0.000000,1,0
1777415840154759368,679287000000,   679.287, 0.000002,-0.000038,-0.009954,-0.000012, 0.000033, 0.000195,-0.531920,-0.007784, 0.029122,1,-0.000740, 0.004029, 0.018669,1,-0.000348,-0.004731,-0.995434,-0.000931, 0.003678, 0.019070, 0.118457, 0.245230,-0.111536,-0.000000, 0.000000,-0.000000,1,0
1777415840164363224,679307000000,   679.307, 0.000000,-0.000061,-0.009955,-0.000011, 0.000028, 0.000195,-0.520846,-0.001355, 0.030293,1,-0.000521, 0.003794, 0.019437,1,-0.000043,-0.005469,-0.995482,-0.000792, 0.003355, 0.019518, 0.117942, 0.245393,-0.111847,-0.000000, 0.000000,-0.000000,1,0
1777415840174447382,679307000000,   679.307, 0.000000,-0.000061,-0.009955,-0.000011, 0.000028, 0.000195,-0.520846,-0.001355, 0.030293,1,-0.000521, 0.003794, 0.019437,1,-0.000043,-0.005469,-0.995482,-0.000792, 0.003355, 0.019518, 0.117942, 0.245393,-0.111847,-0.000000, 0.000000,-0.000000,1,0
1777415840184128754,679327000000,   679.327, 0.000008,-0.000094,-0.009960,-0.000003, 0.000027, 0.000205,-0.516148,-0.017858, 0.027097,1,-0.000821, 0.003199, 0.019750,1, 0.000583,-0.007830,-0.995904,-0.000621, 0.002976, 0.020060, 0.117975, 0.245109,-0.111526,-0.000000, 0.000000,-0.000000,1,0
1777415840194212524,679327000000,   679.327, 0.000008,-0.000094,-0.009960,-0.000003, 0.000027, 0.000205,-0.516148,-0.017858, 0.027097,1,-0.000821, 0.003199, 0.019750,1, 0.000583,-0.007830,-0.995904,-0.000621, 0.002976, 0.020060, 0.117975, 0.245109,-0.111526,-0.000000, 0.000000,-0.000000,1,0
1777415840213942481,679347000000,   679.347, 0.000007,-0.000108,-0.009968,-0.000016, 0.000025, 0.000188,-0.514721,-0.040394, 0.027257,1,-0.001052, 0.003088, 0.020003,1, 0.000597,-0.009749,-0.996242,-0.001289, 0.002791, 0.019389, 0.118068, 0.245076,-0.110924,-0.000000, 0.000000,-0.000000,1,0
1777415840223564781,679357000000,   679.362, 0.000011,-0.000111,-0.009959,-0.000017, 0.000033, 0.000189,-0.512261,-0.054600, 0.024871,1,-0.001437, 0.002991, 0.019140,1, 0.000826,-0.010300,-0.996044,-0.001437, 0.002991, 0.019140, 0.118056, 0.244907,-0.110944,-0.000000, 0.000000,-0.000000,1,0
1777415840233648457,679357000000,   679.362, 0.000011,-0.000111,-0.009959,-0.000017, 0.000033, 0.000189,-0.512261,-0.054600, 0.024871,1,-0.001437, 0.002991, 0.019140,1, 0.000826,-0.010300,-0.996044,-0.001437, 0.002991, 0.019140, 0.118056, 0.244907,-0.110944,-0.000000, 0.000000,-0.000000,1,0
1777415840243328496,679377000000,   679.382, 0.000016,-0.000085,-0.009954,-0.000013, 0.000035, 0.000182,-0.507213,-0.044659, 0.027079,1,-0.001194, 0.003359, 0.018509,1, 0.001401,-0.009285,-0.995815,-0.001194, 0.003359, 0.018509, 0.118253, 0.244901,-0.110949,-0.000000, 0.000000,-0.000000,1,0
1777415840253415247,679377000000,   679.382, 0.000016,-0.000085,-0.009954,-0.000013, 0.000035, 0.000182,-0.507213,-0.044659, 0.027079,1,-0.001194, 0.003359, 0.018509,1, 0.001401,-0.009285,-0.995815,-0.001194, 0.003359, 0.018509, 0.118253, 0.244901,-0.110949,-0.000000, 0.000000,-0.000000,1,0
1777415840263063750,679397000000,   679.402, 0.000025,-0.000064,-0.009961,-0.000010, 0.000034, 0.000183,-0.499340,-0.027126, 0.025508,1,-0.001102, 0.003241, 0.018228,1, 0.002265,-0.007493,-0.995972,-0.001102, 0.003241, 0.018228, 0.118314, 0.244952,-0.111361,-0.000000, 0.000000,-0.000000,1,0
1777415840273147593,679397000000,   679.402, 0.000025,-0.000064,-0.009961,-0.000010, 0.000034, 0.000183,-0.499340,-0.027126, 0.025508,1,-0.001102, 0.003241, 0.018228,1, 0.002265,-0.007493,-0.995972,-0.001102, 0.003241, 0.018228, 0.118314, 0.244952,-0.111361,-0.000000, 0.000000,-0.000000,1,0
1777415840292885310,679417000000,   679.422, 0.000021,-0.000060,-0.009960,-0.000007, 0.000028, 0.000179,-0.500499,-0.017514, 0.025492,1,-0.001118, 0.003145, 0.018204,1, 0.002210,-0.006507,-0.995971,-0.001118, 0.003145, 0.018204, 0.117976, 0.245085,-0.112020,-0.000000, 0.000000,-0.000000,1,0
1777415840302574589,679437000000,   679.442, 0.000007,-0.000067,-0.009959,-0.000013, 0.000028, 0.000189,-0.509724,-0.019241, 0.026797,1,-0.001256, 0.002937, 0.018614,1, 0.001327,-0.006680,-0.995834,-0.001256, 0.002937, 0.018614, 0.117896, 0.245293,-0.112639,-0.000000, 0.000000,-0.000000,1,0
1777415840312680191,679437000000,   679.442, 0.000007,-0.000067,-0.009959,-0.000013, 0.000028, 0.000189,-0.509724,-0.019241, 0.026797,1,-0.001256, 0.002937, 0.018614,1, 0.001327,-0.006680,-0.995834,-0.001256, 0.002937, 0.018614, 0.117896, 0.245293,-0.112639,-0.000000, 0.000000,-0.000000,1,0
1777415840322269084,679457000000,   679.462,-0.000004,-0.000072,-0.009961,-0.000009, 0.000033, 0.000188,-0.520124,-0.022937, 0.025081,1,-0.001112, 0.003185, 0.018666,1, 0.000326,-0.007053,-0.996006,-0.001112, 0.003185, 0.018666, 0.117670, 0.245108,-0.111749,-0.000000, 0.000000,-0.000000,1,0
1777415840332353669,679457000000,   679.462,-0.000004,-0.000072,-0.009961,-0.000009, 0.000033, 0.000188,-0.520124,-0.022937, 0.025081,1,-0.001112, 0.003185, 0.018666,1, 0.000326,-0.007053,-0.996006,-0.001112, 0.003185, 0.018666, 0.117670, 0.245108,-0.111749,-0.000000, 0.000000,-0.000000,1,0
1777415840342043855,679477000000,   679.482,-0.000001,-0.000073,-0.009958,-0.000012, 0.000036, 0.000190,-0.515273,-0.024423, 0.027166,1,-0.001114, 0.003369, 0.018838,1, 0.000018,-0.007243,-0.995836,-0.001114, 0.003369, 0.018838, 0.117577, 0.245114,-0.112037,-0.000000, 0.000000,-0.000000,1,0
1777415840352127569,679477000000,   679.482,-0.000001,-0.000073,-0.009958,-0.000012, 0.000036, 0.000190,-0.515273,-0.024423, 0.027166,1,-0.001114, 0.003369, 0.018838,1, 0.000018,-0.007243,-0.995836,-0.001114, 0.003369, 0.018838, 0.117577, 0.245114,-0.112037,-0.000000, 0.000000,-0.000000,1,0
1777415840371819157,679497000000,   679.502, 0.000004,-0.000080,-0.009960,-0.000006, 0.000034, 0.000185,-0.509853,-0.029962, 0.026310,1,-0.000876, 0.003362, 0.018731,1, 0.000183,-0.007827,-0.995944,-0.000876, 0.003362, 0.018731, 0.117872, 0.244950,-0.112270,-0.000000, 0.000000,-0.000000,1,0
1777415840381498029,679517000000,   679.522, 0.000011,-0.000078,-0.009956,-0.000015, 0.000033, 0.000191,-0.503645,-0.030298, 0.026646,1,-0.001203, 0.003460, 0.018872,1, 0.000751,-0.007867,-0.995913,-0.001203, 0.003460, 0.018872, 0.117560, 0.244911,-0.112026,-0.000000, 0.000000,-0.000000,1,0
1777415840391583465,679517000000,   679.522, 0.000011,-0.000078,-0.009956,-0.000015, 0.000033, 0.000191,-0.503645,-0.030298, 0.026646,1,-0.001203, 0.003460, 0.018872,1, 0.000751,-0.007867,-0.995913,-0.001203, 0.003460, 0.018872, 0.117560, 0.244911,-0.112026,-0.000000, 0.000000,-0.000000,1,0
1777415840407106008,679537000000,   679.542, 0.000011,-0.000073,-0.009962,-0.000007, 0.000034, 0.000188,-0.501710,-0.027138, 0.026475,1,-0.001056, 0.003495, 0.018796,1, 0.000978,-0.007542,-0.995929,-0.001056, 0.003495, 0.018796, 0.117844, 0.245066,-0.111895,-0.000000, 0.000000,-0.000000,1,0
1777415840426849317,679557000000,   679.562, 0.000015,-0.000078,-0.009957,-0.000013, 0.000032, 0.000186,-0.499080,-0.029196, 0.027205,1,-0.001234, 0.003349, 0.018701,1, 0.001303,-0.007748,-0.995851,-0.001234, 0.003349, 0.018701, 0.118376, 0.245286,-0.111582,-0.000000, 0.000000,-0.000000,1,0
1777415840436597539,679577000000,   679.577, 0.000017,-0.000085,-0.009960,-0.000012, 0.000034, 0.000185,-0.496925,-0.032420, 0.027049,1,-0.001251, 0.003270, 0.018648,1, 0.001583,-0.008072,-0.995864,-0.001251, 0.003270, 0.018648, 0.118114, 0.244990,-0.111931,-0.000000, 0.000000,-0.000000,1,0
1777415840446682679,679577000000,   679.577, 0.000017,-0.000085,-0.009960,-0.000012, 0.000034, 0.000185,-0.496925,-0.032420, 0.027049,1,-0.001251, 0.003270, 0.018648,1, 0.001583,-0.008072,-0.995864,-0.001251, 0.003270, 0.018648, 0.118114, 0.244990,-0.111931,-0.000000, 0.000000,-0.000000,1,0
1777415840456276646,679597000000,   679.597, 0.000003,-0.000089,-0.009957,-0.000017, 0.000022, 0.000183,-0.503359,-0.036622, 0.027772,1,-0.001478, 0.002534, 0.018472,1, 0.000981,-0.008494,-0.995788,-0.001478, 0.002534, 0.018472, 0.118212, 0.244885,-0.112166,-0.000000, 0.000000,-0.000000,1,0
1777415840466360730,679597000000,   679.597, 0.000003,-0.000089,-0.009957,-0.000017, 0.000022, 0.000183,-0.503359,-0.036622, 0.027772,1,-0.001478, 0.002534, 0.018472,1, 0.000981,-0.008494,-0.995788,-0.001478, 0.002534, 0.018472, 0.118212, 0.244885,-0.112166,-0.000000, 0.000000,-0.000000,1,0
1777415840485796454,679617000000,   679.617,-0.000009,-0.000094,-0.009971,-0.000017, 0.000028, 0.000180,-0.507625,-0.040654, 0.025626,1,-0.001177, 0.002463, 0.018257,1,-0.000120,-0.009158,-0.996500,-0.001441, 0.002610, 0.018153, 0.118196, 0.244927,-0.111643,-0.000000, 0.000000,-0.000000,1,0
1777415840495467289,679637000000,   679.637, 0.000013,-0.000062,-0.009897,-0.000004, 0.000050, 0.000172,-0.514544,-0.048995, 0.007512,1,-0.001582, 0.003698, 0.017866,1, 0.000526,-0.007974,-0.994011,-0.001020, 0.004318, 0.017564, 0.117818, 0.244884,-0.111921,-0.000000, 0.000000,-0.000000,1,0
1777415840505553744,679637000000,   679.637, 0.000013,-0.000062,-0.009897,-0.000004, 0.000050, 0.000172,-0.514544,-0.048995, 0.007512,1,-0.001582, 0.003698, 0.017866,1, 0.000526,-0.007974,-0.994011,-0.001020, 0.004318, 0.017564, 0.117818, 0.244884,-0.111921,-0.000000, 0.000000,-0.000000,1,0
1777415840515156155,679657000000,   679.657, 0.000013,-0.000017,-0.009951,-0.000011, 0.000024, 0.000189,-0.495668,-0.009314, 0.023348,1,-0.001028, 0.003881, 0.017561,1, 0.001602,-0.003826,-0.995584,-0.001010, 0.003166, 0.018210, 0.117946, 0.244656,-0.111670,-0.000000, 0.000000,-0.000000,1,0
1777415840525267165,679657000000,   679.657, 0.000013,-0.000017,-0.009951,-0.000011, 0.000024, 0.000189,-0.495668,-0.009314, 0.023348,1,-0.001028, 0.003881, 0.017561,1, 0.001602,-0.003826,-0.995584,-0.001010, 0.003166, 0.018210, 0.117946, 0.244656,-0.111670,-0.000000, 0.000000,-0.000000,1,0
1777415840544986215,679677000000,   679.677, 0.000015,-0.000069,-0.009985,-0.000015, 0.000031, 0.000199,-0.497026, 0.017078, 0.036593,1,-0.000884, 0.003817, 0.018908,1, 0.001497,-0.004873,-0.996331,-0.001167, 0.003496, 0.019347, 0.117558, 0.244987,-0.111748,-0.000000, 0.000000,-0.000000,1,0
1777415840554678549,679697000000,   679.697, 0.000012,-0.000074,-0.009996,-0.000012, 0.000037, 0.000186,-0.490021,-0.017675, 0.038078,1,-0.001192, 0.003493, 0.019319,1, 0.001347,-0.006921,-0.996833,-0.001130, 0.003527, 0.018978, 0.117813, 0.245120,-0.111680,-0.000000, 0.000000,-0.000000,1,0
1777415840564764004,679697000000,   679.697, 0.000012,-0.000074,-0.009996,-0.000012, 0.000037, 0.000186,-0.490021,-0.017675, 0.038078,1,-0.001192, 0.003493, 0.019319,1, 0.001347,-0.006921,-0.996833,-0.001130, 0.003527, 0.018978, 0.117813, 0.245120,-0.111680,-0.000000, 0.000000,-0.000000,1,0
1777415840574410470,679717000000,   679.717, 0.000004,-0.000080,-0.009994,-0.000016, 0.000035, 0.000204,-0.491678,-0.021483, 0.041187,1,-0.001003, 0.003454, 0.018999,1, 0.000820,-0.007399,-0.996697,-0.001305, 0.003435, 0.019668, 0.117748, 0.245265,-0.111600,-0.000000, 0.000000,-0.000000,1,0
1777415840584495035,679717000000,   679.717, 0.000004,-0.000080,-0.009994,-0.000016, 0.000035, 0.000204,-0.491678,-0.021483, 0.041187,1,-0.001003, 0.003454, 0.018999,1, 0.000820,-0.007399,-0.996697,-0.001305, 0.003435, 0.019668, 0.117748, 0.245265,-0.111600,-0.000000, 0.000000,-0.000000,1,0
1777415840594165815,679737000000,   679.737, 0.000005,-0.000071,-0.009969,-0.000014, 0.000036, 0.000201,-0.493742,-0.023663, 0.032320,1,-0.001323, 0.003902, 0.020134,1, 0.000741,-0.007153,-0.996068,-0.001271, 0.003767, 0.020118, 0.117645, 0.244798,-0.111126,-0.000000, 0.000000,-0.000000,1,0
1777415840604250807,679737000000,   679.737, 0.000005,-0.000071,-0.009969,-0.000014, 0.000036, 0.000201,-0.493742,-0.023663, 0.032320,1,-0.001323, 0.003902, 0.020134,1, 0.000741,-0.007153,-0.996068,-0.001271, 0.003767, 0.020118, 0.117645, 0.244798,-0.111126,-0.000000, 0.000000,-0.000000,1,0
1777415840623924599,679757000000,   679.757, 0.000011,-0.000085,-0.009959,-0.000003, 0.000040, 0.000198,-0.494639,-0.027380, 0.028502,1,-0.001029, 0.003738, 0.020012,1, 0.000967,-0.008020,-0.995723,-0.000665, 0.003815, 0.019903, 0.117818, 0.244689,-0.111353,-0.000000, 0.000000,-0.000000,1,0
1777415840633618693,679767000000,   679.772, 0.000010,-0.000087,-0.009957,-0.000011, 0.000033, 0.000195,-0.493853,-0.034728, 0.027616,1,-0.000855, 0.003545, 0.019691,1, 0.000998,-0.008325,-0.995853,-0.000855, 0.003545, 0.019691, 0.117657, 0.244959,-0.111750,-0.000000, 0.000000,-0.000000,1,0
1777415840643716666,679767000000,   679.772, 0.000010,-0.000087,-0.009957,-0.000011, 0.000033, 0.000195,-0.493853,-0.034728, 0.027616,1,-0.000855, 0.003545, 0.019691,1, 0.000998,-0.008325,-0.995853,-0.000855, 0.003545, 0.019691, 0.117657, 0.244959,-0.111750,-0.000000, 0.000000,-0.000000,1,0
1777415840653353465,679787000000,   679.792, 0.000002,-0.000111,-0.009954,-0.000007, 0.000027, 0.000189,-0.498804,-0.051377, 0.028328,1,-0.000731, 0.003194, 0.019208,1, 0.000558,-0.010025,-0.995777,-0.000731, 0.003194, 0.019208, 0.118311, 0.244395,-0.112299,-0.000000, 0.000000,-0.000000,1,0
1777415840663438660,679787000000,   679.792, 0.000002,-0.000111,-0.009954,-0.000007, 0.000027, 0.000189,-0.498804,-0.051377, 0.028328,1,-0.000731, 0.003194, 0.019208,1, 0.000558,-0.010025,-0.995777,-0.000731, 0.003194, 0.019208, 0.118311, 0.244395,-0.112299,-0.000000, 0.000000,-0.000000,1,0
1777415840673115681,679807000000,   679.812,-0.000007,-0.000124,-0.009961,-0.000013, 0.000032, 0.000184,-0.505238,-0.066654, 0.026585,1,-0.001213, 0.002998, 0.018793,1,-0.000040,-0.011581,-0.995952,-0.001213, 0.002998, 0.018793, 0.117934, 0.244680,-0.112303,-0.000000, 0.000000,-0.000000,1,0
1777415840683199709,679807000000,   679.812,-0.000007,-0.000124,-0.009961,-0.000013, 0.000032, 0.000184,-0.505238,-0.066654, 0.026585,1,-0.001213, 0.002998, 0.018793,1,-0.000040,-0.011581,-0.995952,-0.001213, 0.002998, 0.018793, 0.117934, 0.244680,-0.112303,-0.000000, 0.000000,-0.000000,1,0
1777415840702875890,679827000000,   679.832,-0.000007,-0.000107,-0.009966,-0.000012, 0.000023, 0.000166,-0.509757,-0.063556, 0.025247,1,-0.001320, 0.002502, 0.017417,1,-0.000449,-0.011257,-0.996086,-0.001320, 0.002502, 0.017417, 0.117768, 0.244572,-0.111352,-0.000000, 0.000000,-0.000000,1,0
1777415840712631038,679847000000,   679.852,-0.000007,-0.000075,-0.009965,-0.000021, 0.000019, 0.000164,-0.513116,-0.042996, 0.023652,1,-0.001862, 0.002254, 0.016698,1,-0.000745,-0.009143,-0.996246,-0.001862, 0.002254, 0.016698, 0.118132, 0.244749,-0.111198,-0.000000, 0.000000,-0.000000,1,0
1777415840722714493,679847000000,   679.852,-0.000007,-0.000075,-0.009965,-0.000021, 0.000019, 0.000164,-0.513116,-0.042996, 0.023652,1,-0.001862, 0.002254, 0.016698,1,-0.000745,-0.009143,-0.996246,-0.001862, 0.002254, 0.016698, 0.118132, 0.244749,-0.111198,-0.000000, 0.000000,-0.000000,1,0
1777415840732318552,679867000000,   679.872, 0.000002,-0.000051,-0.009965,-0.000019, 0.000025, 0.000162,-0.504782,-0.017305, 0.024893,1,-0.001763, 0.002400, 0.016370,1,-0.000188,-0.006511,-0.996134,-0.001763, 0.002400, 0.016370, 0.118093, 0.245005,-0.110851,-0.000000, 0.000000,-0.000000,1,0
1777415840742402007,679867000000,   679.872, 0.000002,-0.000051,-0.009965,-0.000019, 0.000025, 0.000162,-0.504782,-0.017305, 0.024893,1,-0.001763, 0.002400, 0.016370,1,-0.000188,-0.006511,-0.996134,-0.001763, 0.002400, 0.016370, 0.118093, 0.245005,-0.110851,-0.000000, 0.000000,-0.000000,1,0
1777415840752070157,679887000000,   679.892, 0.000028,-0.000033,-0.009950,-0.000015, 0.000027, 0.000175,-0.478275, 0.003310, 0.031755,1,-0.001801, 0.002611, 0.017081,1, 0.001705,-0.004400,-0.995476,-0.001801, 0.002612, 0.017081, 0.118350, 0.245270,-0.111735,-0.000000, 0.000000,-0.000000,1,0
1777415840762153445,679887000000,   679.892, 0.000028,-0.000033,-0.009950,-0.000015, 0.000027, 0.000175,-0.478275, 0.003310, 0.031755,1,-0.001801, 0.002611, 0.017081,1, 0.001705,-0.004400,-0.995476,-0.001801, 0.002612, 0.017081, 0.118350, 0.245270,-0.111735,-0.000000, 0.000000,-0.000000,1,0
1777415840781890847,679907000000,   679.912, 0.000017,-0.000019,-0.009968,-0.000016, 0.000025, 0.000184,-0.475526, 0.020007, 0.025620,1,-0.001573, 0.002627, 0.017881,1, 0.001781,-0.002686,-0.996112,-0.001573, 0.002627, 0.017881, 0.118382, 0.245099,-0.111867,-0.000000, 0.000000,-0.000000,1,0
1777415840791638106,679927000000,   679.932, 0.000000, 0.000007,-0.009956,-0.000006, 0.000032, 0.000211,-0.486479, 0.041326, 0.031878,1,-0.000953, 0.002805, 0.019826,1, 0.000641,-0.000507,-0.995475,-0.000953, 0.002805, 0.019826, 0.117939, 0.244781,-0.111879,-0.000000, 0.000000,-0.000000,1,0
1777415840801738283,679927000000,   679.932, 0.000000, 0.000007,-0.009956,-0.000006, 0.000032, 0.000211,-0.486479, 0.041326, 0.031878,1,-0.000953, 0.002805, 0.019826,1, 0.000641,-0.000507,-0.995475,-0.000953, 0.002805, 0.019826, 0.117939, 0.244781,-0.111879,-0.000000, 0.000000,-0.000000,1,0
1777415840811256455,679947000000,   679.952,-0.000008, 0.000045,-0.009919,-0.000005, 0.000062, 0.000241,-0.491721, 0.070751, 0.034276,1,-0.000405, 0.004603, 0.022335,1, 0.000151, 0.002486,-0.995228,-0.000405, 0.004603, 0.022335, 0.117669, 0.244835,-0.111698,-0.000000, 0.000000,-0.000000,1,0
1777415840821360057,679947000000,   679.952,-0.000008, 0.000045,-0.009919,-0.000005, 0.000062, 0.000241,-0.491721, 0.070751, 0.034276,1,-0.000405, 0.004603, 0.022335,1, 0.000151, 0.002486,-0.995228,-0.000405, 0.004603, 0.022335, 0.117669, 0.244835,-0.111698,-0.000000, 0.000000,-0.000000,1,0
1777415840836897489,679967000000,   679.972, 0.000026, 0.000091,-0.009938,-0.000003, 0.000021, 0.000284,-0.479495, 0.113857, 0.033417,1,-0.000244, 0.002837, 0.025978,1, 0.001464, 0.006864,-0.995312,-0.000244, 0.002837, 0.025978, 0.117652, 0.245022,-0.111402,-0.000000, 0.000000,-0.000000,1,0
1777415840846703080,679987000000,   679.987, 0.000006,-0.000252,-0.009935,-0.000011,-0.000001, 0.000298,-0.494937,-0.066584, 0.035278,1,-0.000858, 0.000306, 0.028887,1,-0.000102,-0.011554,-0.995122,-0.000858, 0.000306, 0.028887, 0.118241, 0.244555,-0.110605,-0.000000, 0.000000,-0.000000,1,0
1777415840856807275,679987000000,   679.987, 0.000006,-0.000252,-0.009935,-0.000011,-0.000001, 0.000298,-0.494937,-0.066584, 0.035278,1,-0.000858, 0.000306, 0.028887,1,-0.000102,-0.011554,-0.995122,-0.000858, 0.000306, 0.028887, 0.118241, 0.244555,-0.110605,-0.000000, 0.000000,-0.000000,1,0
1777415840866362280,680007000000,   680.007, 0.000018,-0.000590,-0.010011,-0.000021, 0.000043, 0.000156,-0.486179,-0.374637,-0.003255,1,-0.001697, 0.002529, 0.021226,1, 0.000813,-0.042970,-0.999050,-0.001697, 0.002529, 0.021226, 0.118132, 0.245030,-0.111549,-0.000000, 0.000000,-0.000000,1,0
1777415840876448012,680007000000,   680.007, 0.000018,-0.000590,-0.010011,-0.000021, 0.000043, 0.000156,-0.486179,-0.374637,-0.003255,1,-0.001697, 0.002529, 0.021226,1, 0.000813,-0.042970,-0.999050,-0.001697, 0.002529, 0.021226, 0.118132, 0.245030,-0.111549,-0.000000, 0.000000,-0.000000,1,0
1777415840895842441,680027000000,   680.027, 0.000128,-0.000218,-0.010008,-0.000034, 0.000114, 0.000057,-0.479109,-0.358403, 0.017709,1,-0.001047, 0.005132, 0.015133,1, 0.006902,-0.031997,-0.998590,-0.002102, 0.007973, 0.010792, 0.118341, 0.244727,-0.112187,-0.000000, 0.000000,-0.000000,1,0
1777415840905536757,680047000000,   680.047, 0.000169, 0.000109,-0.010032,-0.000054, 0.000072, 0.000083,-0.397383,-0.174526, 0.045684,1,-0.003160, 0.007740, 0.008923,1, 0.013533,-0.006812,-0.997456,-0.004177, 0.007304, 0.008772, 0.118328, 0.245146,-0.111933,-0.000000, 0.000000,-0.000000,1,0
1777415840915620489,680047000000,   680.047, 0.000169, 0.000109,-0.010032,-0.000054, 0.000072, 0.000083,-0.397383,-0.174526, 0.045684,1,-0.003160, 0.007740, 0.008923,1, 0.013533,-0.006812,-0.997456,-0.004177, 0.007304, 0.008772, 0.118328, 0.245146,-0.111933,-0.000000, 0.000000,-0.000000,1,0
1777415840925210308,680067000000,   680.067, 0.000044, 0.000096,-0.009988,-0.000029,-0.000014, 0.000151,-0.368514, 0.092662, 0.072543,1,-0.004604, 0.003535, 0.010326,1, 0.008923, 0.006708,-0.993480,-0.003793, 0.001366, 0.012531, 0.117881, 0.244764,-0.111570,-0.000000, 0.000000,-0.000000,1,0
1777415840935294485,680067000000,   680.067, 0.000044, 0.000096,-0.009988,-0.000029,-0.000014, 0.000151,-0.368514, 0.092662, 0.072543,1,-0.004604, 0.003535, 0.010326,1, 0.008923, 0.006708,-0.993480,-0.003793, 0.001366, 0.012531, 0.117881, 0.244764,-0.111570,-0.000000, 0.000000,-0.000000,1,0
1777415840954587101,680087000000,   680.087,-0.000067, 0.000059,-0.009903,-0.000034, 0.000017, 0.000163,-0.446156, 0.112722, 0.009275,1,-0.003404, 0.001257, 0.013709,1,-0.000811, 0.006121,-0.993272,-0.003332, 0.001602, 0.014952, 0.117757, 0.244989,-0.111692,-0.000000, 0.000000,-0.000000,1,0
1777415840964278566,680107000000,   680.107,-0.000077,-0.000014,-0.009903, 0.000005, 0.000063, 0.000171,-0.519884, 0.061794, 0.007347,1,-0.002526, 0.002269, 0.015609,1,-0.005505, 0.000337,-0.993577,-0.001240, 0.004407, 0.016314, 0.117862, 0.245545,-0.111405,-0.000000, 0.000000,-0.000000,1,0
1777415840974363706,680107000000,   680.107,-0.000077,-0.000014,-0.009903, 0.000005, 0.000063, 0.000171,-0.519884, 0.061794, 0.007347,1,-0.002526, 0.002269, 0.015609,1,-0.005505, 0.000337,-0.993577,-0.001240, 0.004407, 0.016314, 0.117862, 0.245545,-0.111405,-0.000000, 0.000000,-0.000000,1,0
1777415840984037133,680127000000,   680.127,-0.000018, 0.000033,-0.009872, 0.000002, 0.000036, 0.000225,-0.517631, 0.073332, 0.015426,1,-0.001147, 0.004515, 0.017584,1,-0.002673, 0.002911,-0.992624,-0.000561, 0.004032, 0.019854, 0.118113, 0.245127,-0.111337,-0.000000, 0.000000,-0.000000,1,0
1777415840994120718,680127000000,   680.127,-0.000018, 0.000033,-0.009872, 0.000002, 0.000036, 0.000225,-0.517631, 0.073332, 0.015426,1,-0.001147, 0.004515, 0.017584,1,-0.002673, 0.002911,-0.992624,-0.000561, 0.004032, 0.019854, 0.118113, 0.245127,-0.111337,-0.000000, 0.000000,-0.000000,1,0
1777415841013787324,680137000000,   680.142,-0.000055, 0.000012,-0.010005, 0.000004, 0.000020, 0.000251,-0.521638, 0.064046, 0.025563,1,-0.000134, 0.003134, 0.022306,1,-0.003950, 0.002010,-0.996170,-0.000134, 0.003134, 0.022306, 0.118031, 0.245099,-0.111878,-0.000000, 0.000000,-0.000000,1,0
1777415841023470492,680157000000,   680.162,-0.000054,-0.000131,-0.009975, 0.000002, 0.000014, 0.000249,-0.528337,-0.025075, 0.030790,1, 0.000027, 0.001998, 0.024463,1,-0.004601,-0.007101,-0.995635, 0.000027, 0.001998, 0.024463, 0.117699, 0.245047,-0.111458,-0.000000, 0.000000,-0.000000,1,0
1777415841033554928,680157000000,   680.162,-0.000054,-0.000131,-0.009975, 0.000002, 0.000014, 0.000249,-0.528337,-0.025075, 0.030790,1, 0.000027, 0.001998, 0.024463,1,-0.004601,-0.007101,-0.995635, 0.000027, 0.001998, 0.024463, 0.117699, 0.245047,-0.111458,-0.000000, 0.000000,-0.000000,1,0
1777415841043236596,680177000000,   680.182,-0.000032,-0.000154,-0.009962, 0.000012, 0.000048, 0.000211,-0.521784,-0.093738, 0.025302,1, 0.000647, 0.003746, 0.022569,1,-0.003882,-0.014132,-0.996192, 0.000647, 0.003746, 0.022569, 0.118320, 0.244829,-0.112134,-0.000000, 0.000000,-0.000000,1,0
1777415841053334476,680177000000,   680.182,-0.000032,-0.000154,-0.009962, 0.000012, 0.000048, 0.000211,-0.521784,-0.093738, 0.025302,1, 0.000647, 0.003746, 0.022569,1,-0.003882,-0.014132,-0.996192, 0.000647, 0.003746, 0.022569, 0.118320, 0.244829,-0.112134,-0.000000, 0.000000,-0.000000,1,0
1777415841073053692,680197000000,   680.202, 0.000037,-0.000152,-0.009984,-0.000012, 0.000043, 0.000180,-0.472557,-0.103610, 0.019829,1,-0.000430, 0.004433, 0.019528,1, 0.001221,-0.015164,-0.996746,-0.000430, 0.004433, 0.019528, 0.118451, 0.244671,-0.111550,-0.000000, 0.000000,-0.000000,1,0
1777415841092741797,680217000000,   680.222, 0.000043,-0.000109,-0.009990,-0.000020, 0.000011, 0.000187,-0.451217,-0.071268, 0.022315,1,-0.001344, 0.002358, 0.018632,1, 0.003463,-0.011866,-0.996489,-0.001344, 0.002358, 0.018632, 0.118531, 0.244754,-0.111027,-0.000000, 0.000000,-0.000000,1,0
1777415841102496278,680237000000,   680.242, 0.000007,-0.000157,-0.009989,-0.000027, 0.000031, 0.000162,-0.468970,-0.097948, 0.017684,1,-0.002006, 0.002480, 0.017292,1, 0.001694,-0.014573,-0.996960,-0.002007, 0.002480, 0.017292, 0.118106, 0.244483,-0.111050,-0.000000, 0.000000,-0.000000,1,0
1777415841112581159,680237000000,   680.242, 0.000007,-0.000157,-0.009989,-0.000027, 0.000031, 0.000162,-0.468970,-0.097948, 0.017684,1,-0.002006, 0.002480, 0.017292,1, 0.001694,-0.014573,-0.996960,-0.002007, 0.002480, 0.017292, 0.118106, 0.244483,-0.111050,-0.000000, 0.000000,-0.000000,1,0
1777415841122173181,680257000000,   680.262, 0.000002,-0.000061,-0.009947,-0.000016, 0.000049, 0.000139,-0.479190,-0.050692, 0.027060,1,-0.001903, 0.003857, 0.015147,1, 0.000710,-0.009730,-0.996001,-0.001903, 0.003857, 0.015147, 0.118360, 0.244437,-0.111577,-0.000000, 0.000000,-0.000000,1,0
1777415841132270986,680257000000,   680.262, 0.000002,-0.000061,-0.009947,-0.000016, 0.000049, 0.000139,-0.479190,-0.050692, 0.027060,1,-0.001903, 0.003857, 0.015147,1, 0.000710,-0.009730,-0.996001,-0.001903, 0.003857, 0.015147, 0.118360, 0.244437,-0.111577,-0.000000, 0.000000,-0.000000,1,0
1777415841151989110,680277000000,   680.282, 0.000044, 0.000031,-0.009912,-0.000019, 0.000038, 0.000159,-0.447818, 0.031635, 0.043019,1,-0.001926, 0.004153, 0.015383,1, 0.003096,-0.001351,-0.994413,-0.001926, 0.004153, 0.015383, 0.118295, 0.244754,-0.111732,-0.000000, 0.000000,-0.000000,1,0
1777415841161686814,680297000000,   680.302, 0.000004, 0.000024,-0.009946,-0.000013, 0.000021, 0.000202,-0.457985, 0.061317, 0.038546,1,-0.001427, 0.002623, 0.018275,1, 0.001651, 0.001670,-0.994889,-0.001427, 0.002623, 0.018275, 0.118342, 0.245208,-0.111947,-0.000000, 0.000000,-0.000000,1,0
1777415841171771121,680297000000,   680.302, 0.000004, 0.000024,-0.009946,-0.000013, 0.000021, 0.000202,-0.457985, 0.061317, 0.038546,1,-0.001427, 0.002623, 0.018275,1, 0.001651, 0.001670,-0.994889,-0.001427, 0.002623, 0.018275, 0.118342, 0.245208,-0.111947,-0.000000, 0.000000,-0.000000,1,0
1777415841181427734,680317000000,   680.322,-0.000002,-0.000054,-0.009951,-0.000010, 0.000027, 0.000207,-0.471906, 0.018209, 0.032824,1,-0.001094, 0.002806, 0.020073,1, 0.000145,-0.002725,-0.995477,-0.001094, 0.002806, 0.020073, 0.117799, 0.245282,-0.110798,-0.000000, 0.000000,-0.000000,1,0
1777415841191512966,680317000000,   680.322,-0.000002,-0.000054,-0.009951,-0.000010, 0.000027, 0.000207,-0.471906, 0.018209, 0.032824,1,-0.001094, 0.002806, 0.020073,1, 0.000145,-0.002725,-0.995477,-0.001094, 0.002806, 0.020073, 0.117799, 0.245282,-0.110798,-0.000000, 0.000000,-0.000000,1,0
1777415841207060748,680337000000,   680.342, 0.000010,-0.000058,-0.009942,-0.000004, 0.000032, 0.000206,-0.474371,-0.002538, 0.039074,1,-0.000650, 0.003423, 0.020562,1,-0.000080,-0.004846,-0.994838,-0.000650, 0.003423, 0.020562, 0.118160, 0.244953,-0.110734,-0.000000, 0.000000,-0.000000,1,0
1777415841226760668,680357000000,   680.362, 0.000004,-0.000082,-0.009967,-0.000004, 0.000024, 0.000216,-0.467137,-0.020988, 0.030393,1,-0.000349, 0.003349, 0.021249,1, 0.000724,-0.006739,-0.995720,-0.000349, 0.003349, 0.021249, 0.118332, 0.244997,-0.110794,-0.000000, 0.000000,-0.000000,1,0
1777415841236429855,680377000000,   680.377,-0.000002,-0.000158,-0.009968,-0.000016, 0.000023, 0.000202,-0.475025,-0.071135, 0.025076,1,-0.000946, 0.002468, 0.020835,1,-0.000032,-0.011859,-0.996260,-0.000946, 0.002469, 0.020835, 0.118935, 0.244758,-0.111690,-0.000000, 0.000000,-0.000000,1,0
1777415841246513494,680377000000,   680.377,-0.000002,-0.000158,-0.009968,-0.000016, 0.000023, 0.000202,-0.475025,-0.071135, 0.025076,1,-0.000946, 0.002468, 0.020835,1,-0.000032,-0.011859,-0.996260,-0.000946, 0.002469, 0.020835, 0.118935, 0.244758,-0.111690,-0.000000, 0.000000,-0.000000,1,0
1777415841265946551,680397000000,   680.397,-0.000000,-0.000190,-0.009996,-0.000022, 0.000050, 0.000177,-0.482317,-0.098340, 0.026319,1,-0.000644, 0.002593, 0.020288,1,-0.000241,-0.016700,-0.998197,-0.001400, 0.003650, 0.019064, 0.118928, 0.244877,-0.112425,-0.000000, 0.000000,-0.000000,1,0
1777415841275702698,680417000000,   680.417, 0.000041,-0.000134,-0.009967,-0.000004, 0.000074, 0.000144,-0.476273,-0.112292, 0.034547,1,-0.001185, 0.004104, 0.017647,1, 0.001986,-0.014807,-0.996516,-0.000822, 0.005590, 0.016152, 0.118527, 0.244960,-0.112040,-0.000000, 0.000000,-0.000000,1,0
1777415841285787004,680417000000,   680.417, 0.000041,-0.000134,-0.009967,-0.000004, 0.000074, 0.000144,-0.476273,-0.112292, 0.034547,1,-0.001185, 0.004104, 0.017647,1, 0.001986,-0.014807,-0.996516,-0.000822, 0.005590, 0.016152, 0.118527, 0.244960,-0.112040,-0.000000, 0.000000,-0.000000,1,0
1777415841295377026,680437000000,   680.437, 0.000033, 0.000066,-0.009903, 0.000003, 0.000039, 0.000145,-0.443948,-0.066010, 0.028775,1,-0.000608, 0.005875, 0.014976,1, 0.003342,-0.002892,-0.993351,-0.000125, 0.004905, 0.014815, 0.118111, 0.244520,-0.111288,-0.000000, 0.000000,-0.000000,1,0
1777415841305481962,680437000000,   680.437, 0.000033, 0.000066,-0.009903, 0.000003, 0.000039, 0.000145,-0.443948,-0.066010, 0.028775,1,-0.000608, 0.005875, 0.014976,1, 0.003342,-0.002892,-0.993351,-0.000125, 0.004905, 0.014815, 0.118111, 0.244520,-0.111288,-0.000000, 0.000000,-0.000000,1,0
1777415841315072743,680457000000,   680.457, 0.000017, 0.000195,-0.010011, 0.000031, 0.000069, 0.000216,-0.442639, 0.114933, 0.059950,1, 0.001628, 0.004501, 0.016083,1, 0.002592, 0.012896,-0.996410, 0.002363, 0.006019, 0.018691, 0.118321, 0.244401,-0.110923,-0.000000, 0.000000,-0.000000,1,0
1777415841325156679,680457000000,   680.457, 0.000017, 0.000195,-0.010011, 0.000031, 0.000069, 0.000216,-0.442639, 0.114933, 0.059950,1, 0.001628, 0.004501, 0.016083,1, 0.002592, 0.012896,-0.996410, 0.002363, 0.006019, 0.018691, 0.118321, 0.244401,-0.110923,-0.000000, 0.000000,-0.000000,1,0
1777415841344893561,680477000000,   680.477, 0.000051, 0.000020,-0.009856, 0.000010, 0.000089, 0.000297,-0.442115, 0.188999, 0.000665,1, 0.001294, 0.008819, 0.022289,1, 0.004257, 0.007915,-0.992325, 0.001202, 0.008736, 0.025720, 0.117949, 0.244670,-0.112340,-0.000000, 0.000000,-0.000000,1,0
1777415841354566303,680497000000,   680.497, 0.000082,-0.000292,-0.009908,-0.000036,-0.000014, 0.000267,-0.416841,-0.005721,-0.009775,1,-0.000479, 0.005465, 0.027543,1, 0.006515,-0.016399,-0.995495,-0.001874, 0.002217, 0.027063, 0.118192, 0.244967,-0.111808,-0.000000, 0.000000,-0.000000,1,0
1777415841364649980,680497000000,   680.497, 0.000082,-0.000292,-0.009908,-0.000036,-0.000014, 0.000267,-0.416841,-0.005721,-0.009775,1,-0.000479, 0.005465, 0.027543,1, 0.006515,-0.016399,-0.995495,-0.001874, 0.002217, 0.027063, 0.118192, 0.244967,-0.111808,-0.000000, 0.000000,-0.000000,1,0
1777415841374326389,680517000000,   680.517, 0.000094,-0.000348,-0.009952,-0.000007, 0.000026, 0.000166,-0.414066,-0.197487, 0.027412,1,-0.002408, 0.000873, 0.024692,1, 0.006840,-0.029363,-0.994784,-0.001488, 0.001547, 0.020927, 0.118405, 0.244936,-0.112087,-0.000000, 0.000000,-0.000000,1,0
1777415841384410009,680517000000,   680.517, 0.000094,-0.000348,-0.009952,-0.000007, 0.000026, 0.000166,-0.414066,-0.197487, 0.027412,1,-0.002408, 0.000873, 0.024692,1, 0.006840,-0.029363,-0.994784,-0.001488, 0.001547, 0.020927, 0.118405, 0.244936,-0.112087,-0.000000, 0.000000,-0.000000,1,0
1777415841394079863,680537000000,   680.537, 0.000053,-0.000190,-0.009884,-0.000025, 0.000047, 0.000135,-0.415279,-0.218516,-0.008821,1,-0.001399, 0.003691, 0.017778,1, 0.005023,-0.023271,-0.994302,-0.002028, 0.004006, 0.015785, 0.118374, 0.245538,-0.111177,-0.000000, 0.000000,-0.000000,1,0
1777415841404164706,680537000000,   680.537, 0.000053,-0.000190,-0.009884,-0.000025, 0.000047, 0.000135,-0.415279,-0.218516,-0.008821,1,-0.001399, 0.003691, 0.017778,1, 0.005023,-0.023271,-0.994302,-0.002028, 0.004006, 0.015785, 0.118374, 0.245538,-0.111177,-0.000000, 0.000000,-0.000000,1,0
1777415841423839923,680547000000,   680.552, 0.000024,-0.000027,-0.010057,-0.000038, 0.000045, 0.000130,-0.426562,-0.088621,-0.004821,1,-0.002702, 0.004172, 0.014530,1, 0.003993,-0.013801,-0.999352,-0.002702, 0.004172, 0.014530, 0.118088, 0.245514,-0.111114,-0.000000, 0.000000,-0.000000,1,0
1777415841433512702,680567000000,   680.572, 0.000026, 0.000058,-0.010064,-0.000021, 0.000043, 0.000170,-0.439808, 0.047911, 0.006818,1,-0.002190, 0.004209, 0.016004,1, 0.002715, 0.000155,-0.998162,-0.002190, 0.004209, 0.016004, 0.118140, 0.244870,-0.111390,-0.000000, 0.000000,-0.000000,1,0
1777415841443597897,680567000000,   680.572, 0.000026, 0.000058,-0.010064,-0.000021, 0.000043, 0.000170,-0.439808, 0.047911, 0.006818,1,-0.002190, 0.004209, 0.016004,1, 0.002715, 0.000155,-0.998162,-0.002190, 0.004209, 0.016004, 0.118140, 0.244870,-0.111390,-0.000000, 0.000000,-0.000000,1,0
1777415841453362786,680587000000,   680.592, 0.000038, 0.000028,-0.009945,-0.000017, 0.000021, 0.000190,-0.432657, 0.075261, 0.045315,1,-0.001770, 0.003906, 0.017841,1, 0.003536, 0.002965,-0.994232,-0.001770, 0.003906, 0.017840, 0.118068, 0.244713,-0.110688,-0.000000, 0.000000,-0.000000,1,0
1777415841463464517,680587000000,   680.592, 0.000038, 0.000028,-0.009945,-0.000017, 0.000021, 0.000190,-0.432657, 0.075261, 0.045315,1,-0.001770, 0.003906, 0.017841,1, 0.003536, 0.002965,-0.994232,-0.001770, 0.003906, 0.017840, 0.118068, 0.244713,-0.110688,-0.000000, 0.000000,-0.000000,1,0
1777415841473035873,680607000000,   680.612, 0.000039, 0.000018,-0.009935,-0.000036, 0.000037, 0.000209,-0.427029, 0.065376, 0.041785,1,-0.002245, 0.003556, 0.019811,1, 0.004179, 0.001972,-0.994589,-0.002245, 0.003556, 0.019811, 0.118546, 0.244827,-0.111367,-0.000000, 0.000000,-0.000000,1,0
1777415841483120772,680607000000,   680.612, 0.000039, 0.000018,-0.009935,-0.000036, 0.000037, 0.000209,-0.427029, 0.065376, 0.041785,1,-0.002245, 0.003556, 0.019811,1, 0.004179, 0.001972,-0.994589,-0.002245, 0.003556, 0.019811, 0.118546, 0.244827,-0.111367,-0.000000, 0.000000,-0.000000,1,0
1777415841502791563,680627000000,   680.632, 0.000060,-0.000122,-0.009962,-0.000007, 0.000054, 0.000229,-0.416678,-0.019060, 0.032042,1,-0.001349, 0.004643, 0.021696,1, 0.005313,-0.006629,-0.995578,-0.001349, 0.004643, 0.021696, 0.118168, 0.244922,-0.112087,-0.000000, 0.000000,-0.000000,1,0
1777415841512461398,680647000000,   680.652, 0.000081,-0.000151,-0.009966,-0.000018, 0.000001, 0.000208,-0.401565,-0.067234, 0.020719,1,-0.001624, 0.002389, 0.021249,1, 0.006929,-0.011537,-0.996729,-0.001624, 0.002389, 0.021249, 0.118479, 0.245038,-0.111609,-0.000000, 0.000000,-0.000000,1,0
1777415841522546074,680647000000,   680.652, 0.000081,-0.000151,-0.009966,-0.000018, 0.000001, 0.000208,-0.401565,-0.067234, 0.020719,1,-0.001624, 0.002389, 0.021249,1, 0.006929,-0.011537,-0.996729,-0.001624, 0.002389, 0.021249, 0.118479, 0.245038,-0.111609,-0.000000, 0.000000,-0.000000,1,0
1777415841532221261,680667000000,   680.672, 0.000302,-0.000062,-0.009910, 0.000047,-0.000005, 0.000198,-0.274291,-0.048717, 0.056076,1, 0.002037, 0.001045, 0.020299,1, 0.019543,-0.009645,-0.993141, 0.002037, 0.001045, 0.020299, 0.118388, 0.245036,-0.111507,-0.000000, 0.000000,-0.000000,1,0
1777415841542305993,680667000000,   680.672, 0.000302,-0.000062,-0.009910, 0.000047,-0.000005, 0.000198,-0.274291,-0.048717, 0.056076,1, 0.002037, 0.001045, 0.020299,1, 0.019543,-0.009645,-0.993141, 0.002037, 0.001045, 0.020299, 0.118388, 0.245036,-0.111507,-0.000000, 0.000000,-0.000000,1,0
1777415841562043801,680687000000,   680.692, 0.000295,-0.000004,-0.009762,-0.000029, 0.000013, 0.000200,-0.199529, 0.000124, 0.106758,1,-0.000112, 0.001608, 0.020259,1, 0.026175,-0.004658,-0.988020,-0.000112, 0.001608, 0.020259, 0.118530, 0.245307,-0.110908,-0.000000, 0.000000,-0.000000,1,0
1777415841581797535,680707000000,   680.712, 0.000224,-0.000040,-0.009741,-0.000042, 0.000086, 0.000251,-0.210841, 0.046240, 0.076217,1,-0.004089, 0.005166, 0.022600,1, 0.024785, 0.000096,-0.991145,-0.004089, 0.005166, 0.022600, 0.118758, 0.244994,-0.110774,-0.000000, 0.000000,-0.000000,1,0
1777415841591412593,680727000000,   680.732, 0.000215,-0.000087,-0.009853,-0.000039, 0.000032, 0.000256,-0.235971,-0.019531, 0.044800,1,-0.003592, 0.004534, 0.024966,1, 0.022237,-0.006560,-0.994349,-0.003592, 0.004534, 0.024966, 0.118611, 0.245038,-0.111453,-0.000000, 0.000000,-0.000000,1,0
1777415841601497177,680727000000,   680.732, 0.000215,-0.000087,-0.009853,-0.000039, 0.000032, 0.000256,-0.235971,-0.019531, 0.044800,1,-0.003592, 0.004534, 0.024966,1, 0.022237,-0.006560,-0.994349,-0.003592, 0.004534, 0.024966, 0.118611, 0.245038,-0.111453,-0.000000, 0.000000,-0.000000,1,0
1777415841617046385,680747000000,   680.752, 0.000213,-0.000043,-0.009986,-0.000066, 0.000035, 0.000249,-0.243968,-0.015392, 0.019637,1,-0.005518, 0.003226, 0.024813,1, 0.021457,-0.006065,-0.996913,-0.005519, 0.003226, 0.024813, 0.118533, 0.245003,-0.112087,-0.000000, 0.000000,-0.000000,1,0
1777415841636809989,680767000000,   680.772, 0.000206,-0.000165,-0.009941,-0.000051, 0.000056, 0.000239,-0.255313,-0.069725, 0.031924,1,-0.005304, 0.005113, 0.024261,1, 0.020382,-0.011517,-0.995657,-0.005304, 0.005113, 0.024261, 0.118526, 0.245059,-0.111870,-0.000000, 0.000000,-0.000000,1,0
1777415841646484639,680787000000,   680.787, 0.000252,-0.000108,-0.009880,-0.000064, 0.000004, 0.000222,-0.225015,-0.071170, 0.050390,1,-0.005910, 0.002498, 0.022887,1, 0.023546,-0.011580,-0.993771,-0.005910, 0.002499, 0.022887, 0.118508, 0.244877,-0.111220,-0.000000, 0.000000,-0.000000,1,0
1777415841656569519,680787000000,   680.787, 0.000252,-0.000108,-0.009880,-0.000064, 0.000004, 0.000222,-0.225015,-0.071170, 0.050390,1,-0.005910, 0.002498, 0.022887,1, 0.023546,-0.011580,-0.993771,-0.005910, 0.002499, 0.022887, 0.118508, 0.244877,-0.111220,-0.000000, 0.000000,-0.000000,1,0
1777415841666237835,680807000000,   680.807, 0.000310,-0.000085,-0.009923,-0.000078, 0.000056, 0.000221,-0.177386,-0.055292, 0.024055,1,-0.007338, 0.003870, 0.022307,1, 0.028452,-0.009853,-0.996455,-0.007338, 0.003870, 0.022307, 0.118094, 0.245112,-0.110667,-0.000000, 0.000000,-0.000000,1,0
1777415841676336771,680807000000,   680.807, 0.000310,-0.000085,-0.009923,-0.000078, 0.000056, 0.000221,-0.177386,-0.055292, 0.024055,1,-0.007338, 0.003870, 0.022307,1, 0.028452,-0.009853,-0.996455,-0.007338, 0.003870, 0.022307, 0.118094, 0.245112,-0.110667,-0.000000, 0.000000,-0.000000,1,0
1777415841695817678,680827000000,   680.827, 0.000402,-0.000106,-0.009969,-0.000090, 0.000034, 0.000211,-0.153851,-0.057390, 0.023913,1,-0.006724, 0.004128, 0.022361,1, 0.035279,-0.010177,-0.997500,-0.007756, 0.003704, 0.021757, 0.118296, 0.244961,-0.110051,-0.000000, 0.000000,-0.000000,1,0
1777415841705361794,680847000000,   680.847, 0.000530, 0.000011,-0.010030,-0.000106, 0.000041, 0.000207,-0.070013,-0.053582, 0.065223,1,-0.007974, 0.003069, 0.021042,1, 0.045738,-0.004971,-0.997324,-0.009136, 0.003615, 0.020964, 0.118837, 0.245143,-0.110840,-0.000000, 0.000000,-0.000000,1,0
1777415841715446711,680847000000,   680.847, 0.000530, 0.000011,-0.010030,-0.000106, 0.000041, 0.000207,-0.070013,-0.053582, 0.065223,1,-0.007974, 0.003069, 0.021042,1, 0.045738,-0.004971,-0.997324,-0.009136, 0.003615, 0.020964, 0.118837, 0.245143,-0.110840,-0.000000, 0.000000,-0.000000,1,0
1777415841725120860,680867000000,   680.867, 0.000521,-0.000011,-0.009957,-0.000091, 0.000044, 0.000230, 0.027261, 0.002242, 0.044829,1,-0.009233, 0.004952, 0.021272,1, 0.050439,-0.002908,-0.993216,-0.009148, 0.004751, 0.022189, 0.118473, 0.245046,-0.111467,-0.000000, 0.000000,-0.000000,1,0
1777415841735205185,680867000000,   680.867, 0.000521,-0.000011,-0.009957,-0.000091, 0.000044, 0.000230, 0.027261, 0.002242, 0.044829,1,-0.009233, 0.004952, 0.021272,1, 0.050439,-0.002908,-0.993216,-0.009148, 0.004751, 0.022189, 0.118473, 0.245046,-0.111467,-0.000000, 0.000000,-0.000000,1,0
1777415841754943012,680887000000,   680.887, 0.000479,-0.000089,-0.009930,-0.000072, 0.000017, 0.000232, 0.057441,-0.001880,-0.000848,1,-0.009421, 0.004918, 0.022629,1, 0.049493,-0.006277,-0.995481,-0.008244, 0.003645, 0.022950, 0.118541, 0.245365,-0.110851,-0.000000, 0.000000,-0.000000,1,0
1777415841764617050,680907000000,   680.907, 0.000563,-0.000045,-0.009861,-0.000054, 0.000102, 0.000245, 0.056989, 0.005609, 0.015756,1,-0.007993, 0.003837, 0.023607,1, 0.052914,-0.004065,-0.993425,-0.006611, 0.006889, 0.024067, 0.118810, 0.245206,-0.110719,-0.000000, 0.000000,-0.000000,1,0
1777415841774701449,680907000000,   680.907, 0.000563,-0.000045,-0.009861,-0.000054, 0.000102, 0.000245, 0.056989, 0.005609, 0.015756,1,-0.007993, 0.003837, 0.023607,1, 0.052914,-0.004065,-0.993425,-0.006611, 0.006889, 0.024067, 0.118810, 0.245206,-0.110719,-0.000000, 0.000000,-0.000000,1,0
1777415841784327044,680927000000,   680.927, 0.000589,-0.000035,-0.009934,-0.000063, 0.000026, 0.000258, 0.127303,-0.023087, 0.012427,1,-0.006015, 0.006351, 0.024890,1, 0.057952,-0.005486,-0.995846,-0.005876, 0.004772, 0.025433, 0.119036, 0.245069,-0.110010,-0.000000, 0.000000,-0.000000,1,0
1777415841794411591,680927000000,   680.927, 0.000589,-0.000035,-0.009934,-0.000063, 0.000026, 0.000258, 0.127303,-0.023087, 0.012427,1,-0.006015, 0.006351, 0.024890,1, 0.057952,-0.005486,-0.995846,-0.005876, 0.004772, 0.025433, 0.119036, 0.245069,-0.110010,-0.000000, 0.000000,-0.000000,1,0
1777415841804077259,680947000000,   680.947, 0.000637, 0.000121,-0.009892,-0.000104, 0.000057, 0.000276, 0.166856, 0.066347,-0.012242,1,-0.007137, 0.004279, 0.025869,1, 0.061628, 0.007855,-0.995727,-0.008583, 0.004983, 0.026723, 0.119412, 0.245246,-0.110146,-0.000000, 0.000000,-0.000000,1,0
1777415841814161769,680947000000,   680.947, 0.000637, 0.000121,-0.009892,-0.000104, 0.000057, 0.000276, 0.166856, 0.066347,-0.012242,1,-0.007137, 0.004279, 0.025869,1, 0.061628, 0.007855,-0.995727,-0.008583, 0.004983, 0.026723, 0.119412, 0.245246,-0.110146,-0.000000, 0.000000,-0.000000,1,0
1777415841833896892,680967000000,   680.967, 0.000676, 0.000051,-0.009793,-0.000129, 0.000082, 0.000334, 0.196969, 0.079122, 0.015741,1,-0.010623, 0.005400, 0.027839,1, 0.064973, 0.006187,-0.986865,-0.011987, 0.006566, 0.030254, 0.119350, 0.245037,-0.111003,-0.000000, 0.000000,-0.000000,1,0
1777415841843558431,680977000000,   680.982, 0.000703,-0.000008,-0.010058,-0.000149, 0.000130, 0.000346, 0.230574, 0.057450, 0.022224,1,-0.013147, 0.009515, 0.032264,1, 0.067235, 0.003018,-0.996773,-0.013147, 0.009515, 0.032264, 0.119300, 0.245004,-0.111005,-0.000000, 0.000000,-0.000000,1,0
1777415841853651922,680977000000,   680.982, 0.000703,-0.000008,-0.010058,-0.000149, 0.000130, 0.000346, 0.230574, 0.057450, 0.022224,1,-0.013147, 0.009515, 0.032264,1, 0.067235, 0.003018,-0.996773,-0.013147, 0.009515, 0.032264, 0.119300, 0.245004,-0.111005,-0.000000, 0.000000,-0.000000,1,0
1777415841863382774,680997000000,   681.002, 0.000443, 0.000006,-0.010234,-0.000184, 0.000065, 0.000338, 0.084370, 0.002795,-0.059030,1,-0.015469, 0.008467, 0.033752,1, 0.052518,-0.002314,-1.005051,-0.015469, 0.008467, 0.033752, 0.119111, 0.245201,-0.110827,-0.000000, 0.000000,-0.000000,1,0
1777415841873469432,680997000000,   681.002, 0.000443, 0.000006,-0.010234,-0.000184, 0.000065, 0.000338, 0.084370, 0.002795,-0.059030,1,-0.015469, 0.008467, 0.033752,1, 0.052518,-0.002314,-1.005051,-0.015469, 0.008467, 0.033752, 0.119111, 0.245201,-0.110827,-0.000000, 0.000000,-0.000000,1,0
1777415841883029992,681017000000,   681.022, 0.000391, 0.000015,-0.010213,-0.000165, 0.000173, 0.000390,-0.007122, 0.034025,-0.024956,1,-0.015282, 0.014940, 0.037069,1, 0.043438, 0.001141,-1.001566,-0.015282, 0.014940, 0.037069, 0.119350, 0.245099,-0.110218,-0.000000, 0.000000,-0.000000,1,0
1777415841893115687,681017000000,   681.022, 0.000391, 0.000015,-0.010213,-0.000165, 0.000173, 0.000390,-0.007122, 0.034025,-0.024956,1,-0.015282, 0.014940, 0.037069,1, 0.043438, 0.001141,-1.001566,-0.015282, 0.014940, 0.037069, 0.119350, 0.245099,-0.110218,-0.000000, 0.000000,-0.000000,1,0
1777415841912841014,681037000000,   681.042, 0.000328, 0.000005,-0.010122,-0.000122, 0.000061, 0.000379,-0.073402, 0.025398, 0.018920,1,-0.013738, 0.008965, 0.037921,1, 0.036914, 0.000523,-0.997082,-0.013738, 0.008965, 0.037921, 0.119492, 0.244821,-0.109921,-0.000000, 0.000000,-0.000000,1,0
1777415841922517126,681057000000,   681.062, 0.000393, 0.000115,-0.009879,-0.000102,-0.000011, 0.000416,-0.063604, 0.101865, 0.127924,1,-0.010567, 0.002962, 0.039866,1, 0.038020, 0.008519,-0.985963,-0.010567, 0.002962, 0.039866, 0.119605, 0.245329,-0.109534,-0.000000, 0.000000,-0.000000,1,0
1777415841932601803,681057000000,   681.062, 0.000393, 0.000115,-0.009879,-0.000102,-0.000011, 0.000416,-0.063604, 0.101865, 0.127924,1,-0.010567, 0.002962, 0.039866,1, 0.038020, 0.008519,-0.985963,-0.010567, 0.002962, 0.039866, 0.119605, 0.245329,-0.109534,-0.000000, 0.000000,-0.000000,1,0
1777415841951911159,681077000000,   681.082, 0.000232,-0.000124,-0.010146, 0.000022,-0.000007, 0.000432,-0.155146,-0.020909,-0.069470,1,-0.003539, 0.002181, 0.042055,1, 0.031073,-0.003944,-1.005980,-0.003540, 0.002181, 0.042055, 0.119874, 0.245655,-0.109682,-0.000000, 0.000000,-0.000000,1,0
1777415841961583382,681097000000,   681.102, 0.000493, 0.000151,-0.009795,-0.000056, 0.000092, 0.000425,-0.074941, 0.124614, 0.107746,1,-0.005620, 0.005040, 0.041424,1, 0.040518, 0.010902,-0.987850,-0.005620, 0.005040, 0.041424, 0.120206, 0.245582,-0.109548,-0.000000, 0.000000,-0.000000,1,0
1777415841971729761,681097000000,   681.102, 0.000493, 0.000151,-0.009795,-0.000056, 0.000092, 0.000425,-0.074941, 0.124614, 0.107746,1,-0.005620, 0.005040, 0.041424,1, 0.040518, 0.010902,-0.987850,-0.005620, 0.005040, 0.041424, 0.120206, 0.245582,-0.109548,-0.000000, 0.000000,-0.000000,1,0
1777415841981346597,681117000000,   681.122, 0.000252, 0.000101,-0.010318,-0.000208, 0.000055, 0.000529,-0.169357, 0.121565,-0.171571,1,-0.015085, 0.004947, 0.049013,1, 0.031334, 0.010778,-1.016312,-0.015085, 0.004947, 0.049013, 0.120590, 0.245283,-0.109868,-0.000000, 0.000000,-0.000000,1,0
1777415841991431737,681117000000,   681.122, 0.000252, 0.000101,-0.010318,-0.000208, 0.000055, 0.000529,-0.169357, 0.121565,-0.171571,1,-0.015085, 0.004947, 0.049013,1, 0.031334, 0.010778,-1.016312,-0.015085, 0.004947, 0.049013, 0.120590, 0.245283,-0.109868,-0.000000, 0.000000,-0.000000,1,0
1777415842006916520,681137000000,   681.142, 0.000189,-0.000034,-0.009657,-0.000055, 0.000081, 0.000525,-0.250563,-0.017221, 0.064452,1,-0.008690, 0.006488, 0.052378,1, 0.023258,-0.003207,-0.992235,-0.008690, 0.006489, 0.052378, 0.120953, 0.245112,-0.109521,-0.000000, 0.000000,-0.000000,1,0
1777415842016596040,681157000000,   681.157, 0.000299,-0.000044,-0.010179,-0.000038, 0.000006, 0.000470,-0.222501,-0.068097,-0.033192,1,-0.002919, 0.005739, 0.050097,1, 0.026313,-0.008368,-1.002182,-0.002919, 0.005739, 0.050097, 0.120839, 0.245541,-0.109139,-0.000000, 0.000000,-0.000000,1,0
1777415842026681401,681157000000,   681.157, 0.000299,-0.000044,-0.010179,-0.000038, 0.000006, 0.000470,-0.222501,-0.068097,-0.033192,1,-0.002919, 0.005739, 0.050097,1, 0.026313,-0.008368,-1.002182,-0.002919, 0.005739, 0.050097, 0.120839, 0.245541,-0.109139,-0.000000, 0.000000,-0.000000,1,0
1777415842036348902,681177000000,   681.177, 0.000403,-0.000180,-0.010701,-0.000117, 0.000004, 0.000512,-0.123482,-0.038409,-0.145490,1,-0.008798, 0.003978, 0.049980,1, 0.036543,-0.005265,-1.013627,-0.008798, 0.003978, 0.049980, 0.120822, 0.245339,-0.108685,-0.000000, 0.000000,-0.000000,1,0
1777415842046433467,681177000000,   681.177, 0.000403,-0.000180,-0.010701,-0.000117, 0.000004, 0.000512,-0.123482,-0.038409,-0.145490,1,-0.008798, 0.003978, 0.049980,1, 0.036543,-0.005265,-1.013627,-0.008798, 0.003978, 0.049980, 0.120822, 0.245339,-0.108685,-0.000000, 0.000000,-0.000000,1,0
1777415842065857542,681197000000,   681.197, 0.000332, 0.000191,-0.009437,-0.000217, 0.000171, 0.000513,-0.152641, 0.064763,-0.088801,1,-0.011111,-0.000357, 0.049278,1, 0.033824, 0.013629,-0.989064,-0.016693, 0.007928, 0.050169, 0.121523, 0.245237,-0.109070,-0.000000, 0.000000,-0.000000,1,0
1777415842075528895,681217000000,   681.217, 0.000565,-0.000123,-0.010039,-0.000057, 0.000105, 0.000533,-0.135515, 0.036185, 0.070688,1,-0.010451, 0.010126, 0.053777,1, 0.044852,-0.002394,-0.999409,-0.008466, 0.009705, 0.053497, 0.122281, 0.245478,-0.109542,-0.000000, 0.000000,-0.000000,1,0
1777415842085613256,681217000000,   681.217, 0.000565,-0.000123,-0.010039,-0.000057, 0.000105, 0.000533,-0.135515, 0.036185, 0.070688,1,-0.010451, 0.010126, 0.053777,1, 0.044852,-0.002394,-0.999409,-0.008466, 0.009705, 0.053497, 0.122281, 0.245478,-0.109542,-0.000000, 0.000000,-0.000000,1,0
1777415842095237832,681237000000,   681.237, 0.000638, 0.000370,-0.010356,-0.000231,-0.000103, 0.000544, 0.011408,-0.041826, 0.236724,1,-0.008180, 0.008827, 0.052921,1, 0.055924, 0.014211,-0.999565,-0.015175, 0.000056, 0.053862, 0.122440, 0.245103,-0.109230,-0.000000, 0.000000,-0.000000,1,0
1777415842105339175,681237000000,   681.237, 0.000638, 0.000370,-0.010356,-0.000231,-0.000103, 0.000544, 0.011408,-0.041826, 0.236724,1,-0.008180, 0.008827, 0.052921,1, 0.055924, 0.014211,-0.999565,-0.015175, 0.000056, 0.053862, 0.122440, 0.245103,-0.109230,-0.000000, 0.000000,-0.000000,1,0
1777415842125053371,681257000000,   681.257, 0.000437, 0.000102,-0.010378,-0.000023, 0.000137, 0.000579, 0.041422,-0.071406,-0.033224,1,-0.010997, 0.004986, 0.057266,1, 0.049562,-0.002035,-1.019355,-0.006456, 0.009628, 0.057834, 0.122647, 0.245579,-0.109626,-0.000000, 0.000000,-0.000000,1,0
1777415842144866955,681277000000,   681.277, 0.000582,-0.000017,-0.009760,-0.000101, 0.000100, 0.000534,-0.001579,-0.001918, 0.090512,1,-0.002538, 0.010766, 0.057504,1, 0.052788,-0.001076,-0.987908,-0.005295, 0.011028, 0.055828, 0.123091, 0.246046,-0.109144,-0.000000, 0.000000,-0.000000,1,0
1777415842154481679,681297000000,   681.297, 0.000527,-0.000133,-0.009754,-0.000118,-0.000033, 0.000500, 0.110868,-0.156333, 0.029043,1,-0.000785, 0.010193, 0.055489,1, 0.055971,-0.015044,-0.987178,-0.004258, 0.004702, 0.053129, 0.122825, 0.245800,-0.108890,-0.000000, 0.000000,-0.000000,1,0
1777415842164566522,681297000000,   681.297, 0.000527,-0.000133,-0.009754,-0.000118,-0.000033, 0.000500, 0.110868,-0.156333, 0.029043,1,-0.000785, 0.010193, 0.055489,1, 0.055971,-0.015044,-0.987178,-0.004258, 0.004702, 0.053129, 0.122825, 0.245800,-0.108890,-0.000000, 0.000000,-0.000000,1,0
1777415842174186895,681317000000,   681.317, 0.000621,-0.000266,-0.010471, 0.000111, 0.000004, 0.000430, 0.084030,-0.198570, 0.145265,1,-0.002945, 0.007420, 0.049918,1, 0.057978,-0.022756,-1.003721, 0.003720, 0.003876, 0.046668, 0.123231, 0.245658,-0.107673,-0.000000, 0.000000,-0.000000,1,0
1777415842184287274,681317000000,   681.317, 0.000621,-0.000266,-0.010471, 0.000111, 0.000004, 0.000430, 0.084030,-0.198570, 0.145265,1,-0.002945, 0.007420, 0.049918,1, 0.057978,-0.022756,-1.003721, 0.003720, 0.003876, 0.046668, 0.123231, 0.245658,-0.107673,-0.000000, 0.000000,-0.000000,1,0
1777415842203990657,681337000000,   681.337, 0.000708,-0.000320,-0.009632, 0.000097, 0.000068, 0.000384, 0.122458,-0.144629, 0.137212,1, 0.003929, 0.012104, 0.043571,1, 0.064580,-0.024671,-0.970779, 0.006974, 0.009831, 0.041271, 0.123617, 0.245853,-0.109011,-0.000000, 0.000000,-0.000000,1,0
1777415842213674602,681347000000,   681.352, 0.000720,-0.000107,-0.011179,-0.000084,-0.000127, 0.000358, 0.185108,-0.148256,-0.369878,1, 0.000655,-0.001261, 0.038894,1, 0.067290,-0.016393,-1.036543, 0.000655,-0.001261, 0.038894, 0.124041, 0.245739,-0.108499,-0.000000, 0.000000,-0.000000,1,0
1777415842223759000,681347000000,   681.352, 0.000720,-0.000107,-0.011179,-0.000084,-0.000127, 0.000358, 0.185108,-0.148256,-0.369878,1, 0.000655,-0.001261, 0.038894,1, 0.067290,-0.016393,-1.036543, 0.000655,-0.001261, 0.038894, 0.124041, 0.245739,-0.108499,-0.000000, 0.000000,-0.000000,1,0
1777415842233426779,681367000000,   681.372, 0.000638, 0.000031,-0.010914,-0.000140, 0.000040, 0.000352, 0.144854,-0.003424,-0.116669,1,-0.008049, 0.001839, 0.036154,1, 0.063168,-0.001571,-1.010724,-0.008049, 0.001839, 0.036154, 0.124195, 0.245739,-0.108424,-0.000000, 0.000000,-0.000000,1,0
1777415842243512029,681367000000,   681.372, 0.000638, 0.000031,-0.010914,-0.000140, 0.000040, 0.000352, 0.144854,-0.003424,-0.116669,1,-0.008049, 0.001839, 0.036154,1, 0.063168,-0.001571,-1.010724,-0.008049, 0.001839, 0.036154, 0.124195, 0.245739,-0.108424,-0.000000, 0.000000,-0.000000,1,0
1777415842253186919,681387000000,   681.392, 0.000143,-0.000043,-0.008001, 0.000083, 0.000050, 0.000241,-0.092287,-0.193889, 0.423716,1, 0.000773, 0.005490, 0.029822,1, 0.039083,-0.021037,-0.955616, 0.000773, 0.005490, 0.029822, 0.124500, 0.245623,-0.107487,-0.000000, 0.000000,-0.000000,1,0
1777415842263271317,681387000000,   681.392, 0.000143,-0.000043,-0.008001, 0.000083, 0.000050, 0.000241,-0.092287,-0.193889, 0.423716,1, 0.000773, 0.005490, 0.029822,1, 0.039083,-0.021037,-0.955616, 0.000773, 0.005490, 0.029822, 0.124500, 0.245623,-0.107487,-0.000000, 0.000000,-0.000000,1,0
1777415842283002495,681407000000,   681.412, 0.000896,-0.001090,-0.008041, 0.000768, 0.000391, 0.000334, 0.296422,-0.606831, 0.657001,1, 0.041271, 0.023319, 0.031016,1, 0.079002,-0.063458,-0.931813, 0.041271, 0.023319, 0.031016, 0.124053, 0.245270,-0.107461,-0.000000, 0.000000,-0.000000,1,0
1777415842302687100,681427000000,   681.432, 0.000119, 0.000639,-0.009022,-0.000204,-0.000268,-0.000061,-0.019688,-0.203076,-0.060806,1, 0.018040,-0.017974, 0.009034,1, 0.046618,-0.022774,-1.005015, 0.018039,-0.017974, 0.009034, 0.124233, 0.246031,-0.108216,-0.000000, 0.000000,-0.000000,1,0
1777415842312373842,681447000000,   681.452, 0.000887,-0.000505,-0.009582,-0.000058, 0.000587, 0.000246, 0.204992, 0.033479, 0.151548,1, 0.009482, 0.025057, 0.016444,1, 0.069657, 0.001015,-0.983354, 0.009482, 0.025057, 0.016444, 0.124394, 0.245806,-0.108450,-0.000000, 0.000000,-0.000000,1,0
1777415842322457944,681447000000,   681.452, 0.000887,-0.000505,-0.009582,-0.000058, 0.000587, 0.000246, 0.204992, 0.033479, 0.151548,1, 0.009482, 0.025057, 0.016444,1, 0.069657, 0.001015,-0.983354, 0.009482, 0.025057, 0.016444, 0.124394, 0.245806,-0.108450,-0.000000, 0.000000,-0.000000,1,0
1777415842332139815,681467000000,   681.472, 0.000888, 0.000058,-0.010509,-0.000190,-0.000242, 0.000081, 0.172443, 0.088448,-0.282896,1, 0.000723,-0.002614, 0.015496,1, 0.066478, 0.006007,-1.027646, 0.000723,-0.002614, 0.015496, 0.124981, 0.245368,-0.109035,-0.000000, 0.000000,-0.000000,1,0
1777415842342223306,681467000000,   681.472, 0.000888, 0.000058,-0.010509,-0.000190,-0.000242, 0.000081, 0.172443, 0.088448,-0.282896,1, 0.000723,-0.002614, 0.015496,1, 0.066478, 0.006007,-1.027646, 0.000723,-0.002614, 0.015496, 0.124981, 0.245368,-0.109035,-0.000000, 0.000000,-0.000000,1,0
1777415842361957761,681487000000,   681.492, 0.000663,-0.000180,-0.010316, 0.000112,-0.000054, 0.000110,-0.130487,-0.104790, 0.081634,1, 0.002726,-0.013625, 0.013008,1, 0.035488,-0.015110,-0.990474, 0.002726,-0.013625, 0.013008, 0.125857, 0.245725,-0.108076,-0.000000, 0.000000,-0.000000,1,0
1777415842371576838,681507000000,   681.512, 0.000133, 0.000586,-0.008607, 0.000010, 0.000497, 0.000416,-0.227270, 0.449112,-0.010693,1,-0.024248, 0.010843, 0.020124,1, 0.025376, 0.041087,-0.999900,-0.024248, 0.010843, 0.020124, 0.125790, 0.245347,-0.107642,-0.000000, 0.000000,-0.000000,1,0
1777415842381660533,681507000000,   681.512, 0.000133, 0.000586,-0.008607, 0.000010, 0.000497, 0.000416,-0.227270, 0.449112,-0.010693,1,-0.024248, 0.010843, 0.020124,1, 0.025376, 0.041087,-0.999900,-0.024248, 0.010843, 0.020124, 0.125790, 0.245347,-0.107642,-0.000000, 0.000000,-0.000000,1,0
1777415842391325645,681527000000,   681.532, 0.000763,-0.000458,-0.009316, 0.000027, 0.000141, 0.000383, 0.082993,-0.067220, 0.281323,1,-0.000152, 0.024946, 0.034911,1, 0.057667,-0.011439,-0.970091,-0.000152, 0.024946, 0.034911, 0.125830, 0.245454,-0.107195,-0.000000, 0.000000,-0.000000,1,0
1777415842401408858,681527000000,   681.532, 0.000763,-0.000458,-0.009316, 0.000027, 0.000141, 0.000383, 0.082993,-0.067220, 0.281323,1,-0.000152, 0.024946, 0.034911,1, 0.057667,-0.011439,-0.970091,-0.000152, 0.024946, 0.034911, 0.125830, 0.245454,-0.107195,-0.000000, 0.000000,-0.000000,1,0
1777415842416961917,681547000000,   681.552, 0.000665,-0.000578,-0.014336,-0.000039,-0.000784,-0.000043, 0.244398,-0.578397,-1.029391,1, 0.020129,-0.028151, 0.012844,1, 0.073972,-0.063806,-1.103753, 0.020129,-0.028151, 0.012844, 0.125759, 0.245251,-0.106942,-0.000000, 0.000000,-0.000000,1,0
1777415842426664436,681567000000,   681.572, 0.000605, 0.001325,-0.008716, 0.000253, 0.000570, 0.000276,-0.011181, 0.755935, 0.787030,1, 0.026138, 0.017492, 0.019954,1, 0.047592, 0.072192,-0.918545, 0.026138, 0.017492, 0.019954, 0.126401, 0.244854,-0.107255,-0.000000, 0.000000,-0.000000,1,0
1777415842436748927,681567000000,   681.572, 0.000605, 0.001325,-0.008716, 0.000253, 0.000570, 0.000276,-0.011181, 0.755935, 0.787030,1, 0.026138, 0.017492, 0.019954,1, 0.047592, 0.072192,-0.918545, 0.026138, 0.017492, 0.019954, 0.126401, 0.244854,-0.107255,-0.000000, 0.000000,-0.000000,1,0
1777415842446394188,681587000000,   681.587, 0.000343,-0.000741,-0.006318, 0.000690,-0.000022, 0.000451, 0.023037,-0.056418, 1.643441,1, 0.029702, 0.009111, 0.032114,1, 0.051424,-0.010787,-0.831198, 0.029702, 0.009111, 0.032114, 0.126841, 0.244742,-0.107372,-0.000000, 0.000000,-0.000000,1,0
1777415842456477809,681587000000,   681.587, 0.000343,-0.000741,-0.006318, 0.000690,-0.000022, 0.000451, 0.023037,-0.056418, 1.643441,1, 0.029702, 0.009111, 0.032114,1, 0.051424,-0.010787,-0.831198, 0.029702, 0.009111, 0.032114, 0.126841, 0.244742,-0.107372,-0.000000, 0.000000,-0.000000,1,0
1777415842475903661,681607000000,   681.607, 0.000025, 0.001186,-0.011771,-0.000180,-0.000749,-0.000018, 0.111120,-0.989851,-0.276800,1, 0.023657,-0.015427, 0.021675,1, 0.035657, 0.005118,-1.057793, 0.005639,-0.041424, 0.011288, 0.127154, 0.244444,-0.107228,-0.000000, 0.000000,-0.000000,1,0
1777415842485586384,681627000000,   681.627, 0.000658, 0.000377,-0.008877, 0.000538, 0.000574, 0.000461,-0.150230, 0.593958, 0.118349,1,-0.014659,-0.017696, 0.020008,1, 0.051654, 0.037097,-0.927879, 0.023015, 0.018965, 0.033351, 0.127310, 0.245069,-0.106944,-0.000000, 0.000000,-0.000000,1,0
1777415842495671727,681627000000,   681.627, 0.000658, 0.000377,-0.008877, 0.000538, 0.000574, 0.000461,-0.150230, 0.593958, 0.118349,1,-0.014659,-0.017696, 0.020008,1, 0.051654, 0.037097,-0.927879, 0.023015, 0.018965, 0.033351, 0.127310, 0.245069,-0.106944,-0.000000, 0.000000,-0.000000,1,0
1777415842505290340,681647000000,   681.647, 0.000105,-0.000219,-0.006606, 0.000676, 0.000034, 0.000325,-0.038329,-0.197001,-0.735326,1, 0.002434,-0.003217, 0.035100,1, 0.031269,-0.031751,-0.859313, 0.039086, 0.002151, 0.034397, 0.127523, 0.244963,-0.106019,-0.000000, 0.000000,-0.000000,1,0
1777415842515373739,681647000000,   681.647, 0.000105,-0.000219,-0.006606, 0.000676, 0.000034, 0.000325,-0.038329,-0.197001,-0.735326,1, 0.002434,-0.003217, 0.035100,1, 0.031269,-0.031751,-0.859313, 0.039086, 0.002151, 0.034397, 0.127523, 0.244963,-0.106019,-0.000000, 0.000000,-0.000000,1,0
1777415842525041184,681667000000,   681.667, 0.000514, 0.001869,-0.005921, 0.000305, 0.000385, 0.000179,-0.358263,-0.369365,-1.560901,1, 0.001296,-0.031640, 0.015170,1, 0.030778, 0.060095,-0.895763, 0.014894, 0.007138, 0.017936, 0.127615, 0.244825,-0.106394,-0.000000, 0.000000,-0.000000,1,0
1777415842535124823,681667000000,   681.667, 0.000514, 0.001869,-0.005921, 0.000305, 0.000385, 0.000179,-0.358263,-0.369365,-1.560901,1, 0.001296,-0.031640, 0.015170,1, 0.030778, 0.060095,-0.895763, 0.014894, 0.007138, 0.017936, 0.127615, 0.244825,-0.106394,-0.000000, 0.000000,-0.000000,1,0
1777415842554921944,681687000000,   681.687, 0.000107,-0.000711,-0.010644,-0.000229, 0.000302, 0.000520,-0.042223, 0.851350,-0.190621,1,-0.016182,-0.003741, 0.025119,1, 0.033082, 0.015941,-1.030464,-0.020213, 0.010973, 0.036143, 0.127754, 0.244678,-0.106751,-0.000000, 0.000000,-0.000000,1,0
1777415842564532169,681707000000,   681.707, 0.000680, 0.000393,-0.009499,-0.000221, 0.000349, 0.000308,-0.301913,-0.101067, 0.415771,1,-0.019735, 0.000760, 0.033016,1, 0.039380, 0.016753,-0.982298,-0.022819, 0.013305, 0.031553, 0.128145, 0.244685,-0.106774,-0.000000, 0.000000,-0.000000,1,0
1777415842574615900,681707000000,   681.707, 0.000680, 0.000393,-0.009499,-0.000221, 0.000349, 0.000308,-0.301913,-0.101067, 0.415771,1,-0.019735, 0.000760, 0.033016,1, 0.039380, 0.016753,-0.982298,-0.022819, 0.013305, 0.031553, 0.128145, 0.244685,-0.106774,-0.000000, 0.000000,-0.000000,1,0
1777415842584230570,681727000000,   681.727, 0.000399,-0.000531,-0.008788,-0.000182,-0.000099, 0.000326,-0.125905, 0.058194,-0.011076,1,-0.004573,-0.007885, 0.032509,1, 0.037740,-0.024893,-0.950529,-0.011120,-0.009285, 0.031751, 0.128453, 0.244737,-0.106664,-0.000000, 0.000000,-0.000000,1,0
1777415842594314116,681727000000,   681.727, 0.000399,-0.000531,-0.008788,-0.000182,-0.000099, 0.000326,-0.125905, 0.058194,-0.011076,1,-0.004573,-0.007885, 0.032509,1, 0.037740,-0.024893,-0.950529,-0.011120,-0.009285, 0.031751, 0.128453, 0.244737,-0.106664,-0.000000, 0.000000,-0.000000,1,0
1777415842614051609,681747000000,   681.747,-0.000070, 0.000088,-0.009876,-0.000166, 0.000040, 0.000211,-0.005497, 0.166916,-0.222834,1,-0.012644,-0.000874, 0.024369,1, 0.023087, 0.025412,-1.018529,-0.018044, 0.000848, 0.020888, 0.129054, 0.244917,-0.105863,-0.000000, 0.000000,-0.000000,1,0
1777415842633791416,681757000000,   681.762, 0.000387,-0.001805,-0.008163, 0.000396, 0.000183, 0.000378,-0.229740,-0.697567, 0.863826,1, 0.002687, 0.006938, 0.027773,1, 0.025780,-0.077222,-0.910684, 0.002687, 0.006938, 0.027773, 0.129224, 0.244743,-0.105629,-0.000000, 0.000000,-0.000000,1,0
1777415842643482472,681777000000,   681.782,-0.000194,-0.000756,-0.007789,-0.000223, 0.000069, 0.000146,-0.312452,-0.291137, 0.201704,1,-0.031804,-0.001956, 0.013751,1, 0.017249,-0.035695,-0.978207,-0.031804,-0.001955, 0.013751, 0.129284, 0.244229,-0.104798,-0.000000, 0.000000,-0.000000,1,0
1777415842653582685,681777000000,   681.782,-0.000194,-0.000756,-0.007789,-0.000223, 0.000069, 0.000146,-0.312452,-0.291137, 0.201704,1,-0.031804,-0.001956, 0.013751,1, 0.017249,-0.035695,-0.978207,-0.031804,-0.001955, 0.013751, 0.129284, 0.244229,-0.104798,-0.000000, 0.000000,-0.000000,1,0
1777415842663183780,681797000000,   681.802,-0.000065, 0.000614,-0.015862,-0.000721,-0.000587,-0.000061,-0.253961,-0.086654,-2.006015,1, 0.011463,-0.021230, 0.013294,1, 0.023221,-0.014844,-1.203331, 0.011463,-0.021230, 0.013294, 0.129411, 0.244304,-0.104525,-0.000000, 0.000000,-0.000000,1,0
1777415842673267253,681797000000,   681.802,-0.000065, 0.000614,-0.015862,-0.000721,-0.000587,-0.000061,-0.253961,-0.086654,-2.006015,1, 0.011463,-0.021230, 0.013294,1, 0.023221,-0.014844,-1.203331, 0.011463,-0.021230, 0.013294, 0.129411, 0.244304,-0.104525,-0.000000, 0.000000,-0.000000,1,0
1777415842692994505,681817000000,   681.822, 0.000526, 0.000798,-0.011056,-0.000847, 0.000377, 0.000108,-0.208065, 0.233791,-0.120080,1,-0.028674, 0.007832, 0.018250,1, 0.027671, 0.018337,-1.011034,-0.028674, 0.007832, 0.018250, 0.129894, 0.244201,-0.104854,-0.000000, 0.000000,-0.000000,1,0
1777415842702666728,681837000000,   681.842, 0.000059,-0.000251,-0.012030,-0.000372,-0.000597, 0.000032,-0.258143,-0.207825,-0.357321,1,-0.026233,-0.009193, 0.013723,1, 0.022932,-0.026423,-1.035209,-0.026233,-0.009193, 0.013723, 0.130228, 0.243917,-0.104825,-0.000000, 0.000000,-0.000000,1,0
1777415842712750126,681837000000,   681.842, 0.000059,-0.000251,-0.012030,-0.000372,-0.000597, 0.000032,-0.258143,-0.207825,-0.357321,1,-0.026233,-0.009193, 0.013723,1, 0.022932,-0.026423,-1.035209,-0.026233,-0.009193, 0.013723, 0.130228, 0.243917,-0.104825,-0.000000, 0.000000,-0.000000,1,0
1777415842722437998,681857000000,   681.862, 0.000026, 0.000522,-0.014497,-0.000289,-0.000112,-0.000176,-0.322960,-0.092025,-1.534542,1,-0.020545,-0.014037,-0.001094,1, 0.015908,-0.014274,-1.155274,-0.020545,-0.014037,-0.001094, 0.130114, 0.243977,-0.104543,-0.000000, 0.000000,-0.000000,1,0
1777415842732537284,681857000000,   681.862, 0.000026, 0.000522,-0.014497,-0.000289,-0.000112,-0.000176,-0.322960,-0.092025,-1.534542,1,-0.020545,-0.014037,-0.001094,1, 0.015908,-0.014274,-1.155274,-0.020545,-0.014037,-0.001094, 0.130114, 0.243977,-0.104543,-0.000000, 0.000000,-0.000000,1,0
1777415842742188953,681877000000,   681.882, 0.000700,-0.000088,-0.010536,-0.000301, 0.000166,-0.000090,-0.057227,-0.190116, 0.129712,1,-0.010663, 0.023318,-0.001608,1, 0.042900,-0.024102,-0.985574,-0.010663, 0.023318,-0.001608, 0.130166, 0.243841,-0.103772,-0.000000, 0.000000,-0.000000,1,0
1777415842752272425,681877000000,   681.882, 0.000700,-0.000088,-0.010536,-0.000301, 0.000166,-0.000090,-0.057227,-0.190116, 0.129712,1,-0.010663, 0.023318,-0.001608,1, 0.042900,-0.024102,-0.985574,-0.010663, 0.023318,-0.001608, 0.130166, 0.243841,-0.103772,-0.000000, 0.000000,-0.000000,1,0
1777415842771945771,681897000000,   681.902, 0.000050,-0.001874,-0.006132, 0.000337, 0.000087,-0.000218,-0.128132,-0.929313, 0.886174,1, 0.015870, 0.013404,-0.014635,1, 0.035520,-0.099598,-0.908443, 0.015870, 0.013404,-0.014635, 0.130622, 0.243735,-0.104070,-0.000000, 0.000000,-0.000000,1,0
1777415842781619902,681917000000,   681.922, 0.000294, 0.001363,-0.012099,-0.000243, 0.000112, 0.000142,-0.036895, 0.882167,-0.629964,1,-0.019559,-0.001561,-0.003593,1, 0.044653, 0.085582,-1.063056,-0.019559,-0.001561,-0.003593, 0.131093, 0.243498,-0.102985,-0.000000, 0.000000,-0.000000,1,0
1777415842791704207,681917000000,   681.922, 0.000294, 0.001363,-0.012099,-0.000243, 0.000112, 0.000142,-0.036895, 0.882167,-0.629964,1,-0.019559,-0.001561,-0.003593,1, 0.044653, 0.085582,-1.063056,-0.019559,-0.001561,-0.003593, 0.131093, 0.243498,-0.102985,-0.000000, 0.000000,-0.000000,1,0
1777415842801376227,681937000000,   681.942, 0.000553,-0.000455,-0.013723, 0.000072,-0.000209, 0.000132, 0.014318,-0.194836,-1.137387,1,-0.000141, 0.001768, 0.008808,1, 0.050119,-0.023995,-1.114788,-0.000141, 0.001768, 0.008808, 0.131069, 0.243391,-0.103460,-0.000000, 0.000000,-0.000000,1,0
1777415842811474199,681937000000,   681.942, 0.000553,-0.000455,-0.013723, 0.000072,-0.000209, 0.000132, 0.014318,-0.194836,-1.137387,1,-0.000141, 0.001768, 0.008808,1, 0.050119,-0.023995,-1.114788,-0.000141, 0.001768, 0.008808, 0.131069, 0.243391,-0.103460,-0.000000, 0.000000,-0.000000,1,0
1777415842827012407,681957000000,   681.962, 0.000338, 0.000554,-0.012634,-0.000597,-0.000005, 0.000039,-0.042178, 0.225805,-0.833542,1,-0.024765,-0.003244, 0.005078,1, 0.044292, 0.019260,-1.083809,-0.024765,-0.003244, 0.005078, 0.131460, 0.243160,-0.103160,-0.000000, 0.000000,-0.000000,1,0
1777415842846763214,681977000000,   681.982, 0.000059,-0.000057,-0.010897, 0.000134, 0.000306, 0.000227,-0.243314, 0.194159,-0.039439,1,-0.001549, 0.018994, 0.015954,1, 0.023916, 0.016499,-1.002828,-0.001549, 0.018994, 0.015954, 0.131515, 0.243087,-0.102752,-0.000000, 0.000000,-0.000000,1,0
1777415842856514657,681997000000,   681.997,-0.000001,-0.000054,-0.012324,-0.000087,-0.000037, 0.000104,-0.248030,-0.392896,-0.887988,1, 0.008421, 0.007187, 0.015650,1, 0.023586,-0.043126,-1.089350, 0.008420, 0.007187, 0.015650, 0.130887, 0.242868,-0.102106,-0.000000, 0.000000,-0.000000,1,0
1777415842866606463,681997000000,   681.997,-0.000001,-0.000054,-0.012324,-0.000087,-0.000037, 0.000104,-0.248030,-0.392896,-0.887988,1, 0.008421, 0.007187, 0.015650,1, 0.023586,-0.043126,-1.089350, 0.008420, 0.007187, 0.015650, 0.130887, 0.242868,-0.102106,-0.000000, 0.000000,-0.000000,1,0
1777415842885960946,682017000000,   682.017,-0.000070, 0.000631,-0.013625,-0.000318,-0.000089,-0.000191,-0.378040,-0.994081, 1.031541,1, 0.032062, 0.006285, 0.010088,1, 0.014826,-0.038219,-1.114354, 0.013810, 0.001075,-0.001376, 0.131174, 0.242785,-0.102201,-0.000000, 0.000000,-0.000000,1,0
1777415842895586967,682037000000,   682.037,-0.000626,-0.001815,-0.009527,-0.000003, 0.000331,-0.000149,-0.524562, 0.101450, 0.244022,1,-0.001772,-0.000774,-0.004763,1,-0.029205,-0.073335,-0.962371,-0.006837, 0.012631,-0.011533, 0.131333, 0.243101,-0.101578,-0.000000, 0.000000,-0.000000,1,0
1777415842905670699,682037000000,   682.037,-0.000626,-0.001815,-0.009527,-0.000003, 0.000331,-0.000149,-0.524562, 0.101450, 0.244022,1,-0.001772,-0.000774,-0.004763,1,-0.029205,-0.073335,-0.962371,-0.006837, 0.012631,-0.011533, 0.131333, 0.243101,-0.101578,-0.000000, 0.000000,-0.000000,1,0
1777415842915342607,682057000000,   682.057,-0.000643,-0.002177,-0.005542, 0.001084, 0.000189,-0.000024,-0.645128,-0.101588,-1.198878,1,-0.034514, 0.001974,-0.012370,1,-0.039613,-0.136805,-0.859542, 0.025729, 0.007703,-0.007430, 0.131398, 0.243112,-0.102569,-0.000000, 0.000000,-0.000000,1,0
1777415842925427487,682057000000,   682.057,-0.000643,-0.002177,-0.005542, 0.001084, 0.000189,-0.000024,-0.645128,-0.101588,-1.198878,1,-0.034514, 0.001974,-0.012370,1,-0.039613,-0.136805,-0.859542, 0.025729, 0.007703,-0.007430, 0.131398, 0.243112,-0.102569,-0.000000, 0.000000,-0.000000,1,0
1777415842944709287,682077000000,   682.077,-0.000664, 0.000313,-0.007057, 0.000246,-0.000011,-0.000008,-0.371287,-0.032764,-1.375526,1,-0.004544, 0.006379,-0.026939,1,-0.023316,-0.007714,-0.942320, 0.021204, 0.006233,-0.012872, 0.131409, 0.243187,-0.102299,-0.000000, 0.000000,-0.000000,1,0
1777415842954399455,682097000000,   682.097, 0.000548, 0.000177,-0.011732,-0.000073, 0.000069,-0.000129,-0.585657, 0.108510, 0.611589,1, 0.000701, 0.019589,-0.013979,1, 0.019966, 0.011361,-1.044794, 0.001488, 0.012551,-0.012224, 0.131605, 0.242954,-0.102425,-0.000000, 0.000000,-0.000000,1,0
1777415842964485427,682097000000,   682.097, 0.000548, 0.000177,-0.011732,-0.000073, 0.000069,-0.000129,-0.585657, 0.108510, 0.611589,1, 0.000701, 0.019589,-0.013979,1, 0.019966, 0.011361,-1.044794, 0.001488, 0.012551,-0.012224, 0.131605, 0.242954,-0.102425,-0.000000, 0.000000,-0.000000,1,0
1777415842974097318,682117000000,   682.117, 0.000909, 0.000151,-0.012829, 0.000309,-0.000100,-0.000082,-0.587271, 0.123342, 1.017749,1,-0.000105, 0.004567,-0.011819,1, 0.035088, 0.007152,-1.057406, 0.020227,-0.003865,-0.009613, 0.131529, 0.242734,-0.100956,-0.000000, 0.000000,-0.000000,1,0
1777415842984243197,682117000000,   682.117, 0.000909, 0.000151,-0.012829, 0.000309,-0.000100,-0.000082,-0.587271, 0.123342, 1.017749,1,-0.000105, 0.004567,-0.011819,1, 0.035088, 0.007152,-1.057406, 0.020227,-0.003865,-0.009613, 0.131529, 0.242734,-0.100956,-0.000000, 0.000000,-0.000000,1,0
1777415843003975819,682137000000,   682.137, 0.000168, 0.000769,-0.010908, 0.000135,-0.000176,-0.000063,-0.320175,-0.351873, 0.463318,1, 0.014327,-0.006849,-0.014104,1, 0.015148,-0.004295,-1.018760, 0.014968,-0.013450,-0.008275, 0.131944, 0.242183,-0.100308,-0.000000, 0.000000,-0.000000,1,0
1777415843013596913,682147000000,   682.152, 0.000038, 0.000158,-0.009196, 0.000685,-0.000048,-0.000115,-0.403824,-0.085263, 0.324428,1, 0.040991,-0.012279,-0.007582,1, 0.007981,-0.011933,-0.965703, 0.040991,-0.012279,-0.007582, 0.132033, 0.241987,-0.100621,-0.000000, 0.000000,-0.000000,1,0
1777415843023681589,682147000000,   682.152, 0.000038, 0.000158,-0.009196, 0.000685,-0.000048,-0.000115,-0.403824,-0.085263, 0.324428,1, 0.040991,-0.012279,-0.007582,1, 0.007981,-0.011933,-0.965703, 0.040991,-0.012279,-0.007582, 0.132033, 0.241987,-0.100621,-0.000000, 0.000000,-0.000000,1,0
1777415843033360867,682167000000,   682.172,-0.000349,-0.001238,-0.017967, 0.000140,-0.000604,-0.000179,-0.603988,-0.462069,-3.357575,1,-0.007937,-0.037605,-0.021848,1,-0.012611,-0.050858,-1.341170,-0.007937,-0.037605,-0.021848, 0.131663, 0.241895,-0.101622,-0.000000, 0.000000,-0.000000,1,0
1777415843043445210,682167000000,   682.172,-0.000349,-0.001238,-0.017967, 0.000140,-0.000604,-0.000179,-0.603988,-0.462069,-3.357575,1,-0.007937,-0.037605,-0.021848,1,-0.012611,-0.050858,-1.341170,-0.007937,-0.037605,-0.021848, 0.131663, 0.241895,-0.101622,-0.000000, 0.000000,-0.000000,1,0
1777415843053096230,682187000000,   682.192, 0.001344,-0.000781,-0.010813,-0.000268, 0.001335,-0.000300,-0.361900, 0.315612, 0.070553,1, 0.010841, 0.054977,-0.027022,1, 0.012256, 0.028057,-0.991588, 0.010841, 0.054977,-0.027022, 0.131654, 0.241681,-0.101769,-0.000000, 0.000000,-0.000000,1,0
1777415843063180572,682187000000,   682.192, 0.001344,-0.000781,-0.010813,-0.000268, 0.001335,-0.000300,-0.361900, 0.315612, 0.070553,1, 0.010841, 0.054977,-0.027022,1, 0.012256, 0.028057,-0.991588, 0.010841, 0.054977,-0.027022, 0.131654, 0.241681,-0.101769,-0.000000, 0.000000,-0.000000,1,0
1777415843082983006,682207000000,   682.212,-0.000377,-0.002014,-0.008517, 0.000706,-0.000142,-0.000090,-0.767263,-0.660186, 0.700185,1, 0.036384,-0.009001,-0.016614,1,-0.028769,-0.071904,-0.927366, 0.036384,-0.009001,-0.016614, 0.131947, 0.241252,-0.102011,-0.000000, 0.000000,-0.000000,1,0
1777415843092533881,682227000000,   682.232,-0.000588, 0.002909,-0.014453,-0.000980, 0.000081,-0.000405,-0.775563, 0.946361,-2.042020,1,-0.042488,-0.006072,-0.035107,1,-0.029991, 0.091901,-1.207011,-0.042488,-0.006072,-0.035107, 0.131491, 0.241420,-0.101563,-0.000000, 0.000000,-0.000000,1,0
1777415843102618278,682227000000,   682.232,-0.000588, 0.002909,-0.014453,-0.000980, 0.000081,-0.000405,-0.775563, 0.946361,-2.042020,1,-0.042488,-0.006072,-0.035107,1,-0.029991, 0.091901,-1.207011,-0.042488,-0.006072,-0.035107, 0.131491, 0.241420,-0.101563,-0.000000, 0.000000,-0.000000,1,0
1777415843112293761,682247000000,   682.252, 0.002402,-0.001566,-0.009649,-0.000893,-0.000444, 0.000141, 0.431779,-0.268590, 0.911610,1,-0.039491, 0.015614, 0.000003,1, 0.094285,-0.031722,-0.905768,-0.039492, 0.015615, 0.000003, 0.131895, 0.241285,-0.100283,-0.000000, 0.000000,-0.000000,1,0
1777415843122377418,682247000000,   682.252, 0.002402,-0.001566,-0.009649,-0.000893,-0.000444, 0.000141, 0.431779,-0.268590, 0.911610,1,-0.039491, 0.015614, 0.000003,1, 0.094285,-0.031722,-0.905768,-0.039492, 0.015615, 0.000003, 0.131895, 0.241285,-0.100283,-0.000000, 0.000000,-0.000000,1,0
1777415843132052585,682267000000,   682.272, 0.001417, 0.001050,-0.007791,-0.000147,-0.000804,-0.000478, 0.206448,-0.384193, 0.759254,1,-0.020772,-0.044026,-0.023428,1, 0.071122,-0.043355,-0.921314,-0.020772,-0.044026,-0.023428, 0.131887, 0.241191,-0.100251,-0.000000, 0.000000,-0.000000,1,0
1777415843142154075,682267000000,   682.272, 0.001417, 0.001050,-0.007791,-0.000147,-0.000804,-0.000478, 0.206448,-0.384193, 0.759254,1,-0.020772,-0.044026,-0.023428,1, 0.071122,-0.043355,-0.921314,-0.020772,-0.044026,-0.023428, 0.131887, 0.241191,-0.100251,-0.000000, 0.000000,-0.000000,1,0
1777415843161853679,682287000000,   682.292, 0.000506, 0.002225,-0.009928, 0.000810, 0.001173,-0.000161,-0.308116, 0.642646, 0.100457,1, 0.033410, 0.027722,-0.025551,1, 0.018157, 0.061321,-0.988518, 0.033410, 0.027723,-0.025551, 0.131763, 0.241413,-0.100570,-0.000000, 0.000000,-0.000000,1,0
1777415843171482718,682307000000,   682.312,-0.000807, 0.001495,-0.016601,-0.000537,-0.000484,-0.000462,-0.579851, 0.056824,-2.102491,1,-0.001262,-0.004936,-0.032944,1,-0.009243, 0.001257,-1.213139,-0.001262,-0.004936,-0.032944, 0.131907, 0.241223,-0.100625,-0.000000, 0.000000,-0.000000,1,0
1777415843181566356,682307000000,   682.312,-0.000807, 0.001495,-0.016601,-0.000537,-0.000484,-0.000462,-0.579851, 0.056824,-2.102491,1,-0.001262,-0.004936,-0.032944,1,-0.009243, 0.001257,-1.213139,-0.001262,-0.004936,-0.032944, 0.131907, 0.241223,-0.100625,-0.000000, 0.000000,-0.000000,1,0
1777415843191246875,682327000000,   682.332, 0.000839, 0.000081,-0.010985,-0.000860, 0.000447,-0.000592,-0.169049, 0.008085, 0.249092,1,-0.040548, 0.023099,-0.044715,1, 0.032954,-0.003776,-0.973328,-0.040548, 0.023099,-0.044715, 0.132108, 0.240932,-0.100819,-0.000000, 0.000000,-0.000000,1,0
1777415843201349902,682327000000,   682.332, 0.000839, 0.000081,-0.010985,-0.000860, 0.000447,-0.000592,-0.169049, 0.008085, 0.249092,1,-0.040548, 0.023099,-0.044715,1, 0.032954,-0.003776,-0.973328,-0.040548, 0.023099,-0.044715, 0.132108, 0.240932,-0.100819,-0.000000, 0.000000,-0.000000,1,0
1777415843216852907,682347000000,   682.352,-0.000462,-0.002322,-0.011361,-0.000423,-0.000791,-0.000707,-0.565537,-1.008490,-0.867738,1,-0.026971,-0.040469,-0.054167,1,-0.007670,-0.107487,-1.087223,-0.026971,-0.040468,-0.054167, 0.131343, 0.240847,-0.100765,-0.000000, 0.000000,-0.000000,1,0
1777415843226561036,682367000000,   682.367, 0.000443, 0.000511,-0.011464, 0.000247, 0.000491,-0.000397,-0.372170, 0.342689,-0.295185,1, 0.015792, 0.025805,-0.047549,1, 0.011964, 0.030477,-1.028844, 0.015792, 0.025806,-0.047549, 0.130972, 0.240607,-0.100484,-0.000000, 0.000000,-0.000000,1,0
1777415843236644990,682367000000,   682.367, 0.000443, 0.000511,-0.011464, 0.000247, 0.000491,-0.000397,-0.372170, 0.342689,-0.295185,1, 0.015792, 0.025805,-0.047549,1, 0.011964, 0.030477,-1.028844, 0.015792, 0.025806,-0.047549, 0.130972, 0.240607,-0.100484,-0.000000, 0.000000,-0.000000,1,0
1777415843246314639,682387000000,   682.387, 0.000128, 0.000339,-0.009798, 0.000206,-0.000285,-0.000288,-0.318866,-0.328291, 0.339539,1,-0.003446, 0.004735,-0.036721,1, 0.017796,-0.037777,-0.964101,-0.003447, 0.004735,-0.036721, 0.130682, 0.239925,-0.099713,-0.000000, 0.000000,-0.000000,1,0
1777415843256399018,682387000000,   682.387, 0.000128, 0.000339,-0.009798, 0.000206,-0.000285,-0.000288,-0.318866,-0.328291, 0.339539,1,-0.003446, 0.004735,-0.036721,1, 0.017796,-0.037777,-0.964101,-0.003447, 0.004735,-0.036721, 0.130682, 0.239925,-0.099713,-0.000000, 0.000000,-0.000000,1,0
1777415843275797814,682407000000,   682.407,-0.000223, 0.000762,-0.010376, 0.000097,-0.000170,-0.000369,-0.122965,-0.422841,-0.168050,1,-0.019111, 0.005937,-0.051796,1, 0.009564, 0.000151,-1.030261,-0.005436,-0.001967,-0.044227, 0.130618, 0.239805,-0.099852,-0.000000, 0.000000,-0.000000,1,0
1777415843285440427,682427000000,   682.427, 0.000668, 0.001052,-0.011102, 0.000013, 0.000069,-0.000486,-0.343846,-0.372515, 0.617572,1, 0.000187, 0.017806,-0.046919,1, 0.038682, 0.019239,-0.997422, 0.008198, 0.014552,-0.046039, 0.130609, 0.239478,-0.100180,-0.000000, 0.000000,-0.000000,1,0
1777415843295525880,682427000000,   682.427, 0.000668, 0.001052,-0.011102, 0.000013, 0.000069,-0.000486,-0.343846,-0.372515, 0.617572,1, 0.000187, 0.017806,-0.046919,1, 0.038682, 0.019239,-0.997422, 0.008198, 0.014552,-0.046039, 0.130609, 0.239478,-0.100180,-0.000000, 0.000000,-0.000000,1,0
1777415843305190140,682447000000,   682.447, 0.000298, 0.000838,-0.008390, 0.000422, 0.000145,-0.000290,-0.197263,-0.157329,-0.565518,1,-0.028219, 0.008498,-0.051136,1, 0.029713, 0.010948,-0.932583, 0.005506, 0.015335,-0.039622, 0.130811, 0.239199,-0.100989,-0.000000, 0.000000,-0.000000,1,0
1777415843315277927,682447000000,   682.447, 0.000298, 0.000838,-0.008390, 0.000422, 0.000145,-0.000290,-0.197263,-0.157329,-0.565518,1,-0.028219, 0.008498,-0.051136,1, 0.029713, 0.010948,-0.932583, 0.005506, 0.015335,-0.039622, 0.130811, 0.239199,-0.100989,-0.000000, 0.000000,-0.000000,1,0
1777415843335012123,682467000000,   682.467,-0.000095, 0.000231,-0.014019,-0.000699,-0.000356,-0.000596,-0.126155,-0.445300, 0.523237,1, 0.021793, 0.008210,-0.033679,1, 0.024581,-0.006509,-1.142713,-0.016516,-0.011217,-0.045163, 0.130289, 0.238958,-0.101130,-0.000000, 0.000000,-0.000000,1,0
1777415843354754411,682487000000,   682.487, 0.000260, 0.000838,-0.010289,-0.000203, 0.000785,-0.000262,-0.596942, 0.366223, 0.679135,1,-0.019903, 0.006934,-0.039570,1, 0.007508, 0.053184,-0.972639,-0.016137, 0.036227,-0.032763, 0.130170, 0.238568,-0.099213,-0.000000, 0.000000, 0.000001,1,0
1777415843364443985,682507000000,   682.507,-0.000261, 0.000017,-0.009644,-0.000266,-0.000536,-0.000525,-0.270191,-0.649065,-0.177911,1,-0.004702, 0.022350,-0.032527,1, 0.000936,-0.030972,-0.973167,-0.011811,-0.012595,-0.041897, 0.130187, 0.238319,-0.098657,-0.000000, 0.000000, 0.000001,1,0
1777415843374545271,682507000000,   682.507,-0.000261, 0.000017,-0.009644,-0.000266,-0.000536,-0.000525,-0.270191,-0.649065,-0.177911,1,-0.004702, 0.022350,-0.032527,1, 0.000936,-0.030972,-0.973167,-0.011811,-0.012595,-0.041897, 0.130187, 0.238319,-0.098657,-0.000000, 0.000000, 0.000001,1,0
1777415843384145811,682527000000,   682.527,-0.000009, 0.001234,-0.008639, 0.000337, 0.000489,-0.000627,-0.476901,-0.873793,-0.833789,1,-0.013699,-0.014213,-0.052965,1,-0.002161,-0.000477,-0.971068, 0.006429, 0.015650,-0.055795, 0.129826, 0.238866,-0.098837,-0.000000, 0.000000, 0.000001,1,0
1777415843394231079,682527000000,   682.527,-0.000009, 0.001234,-0.008639, 0.000337, 0.000489,-0.000627,-0.476901,-0.873793,-0.833789,1,-0.013699,-0.014213,-0.052965,1,-0.002161,-0.000477,-0.971068, 0.006429, 0.015650,-0.055795, 0.129826, 0.238866,-0.098837,-0.000000, 0.000000, 0.000001,1,0
1777415843414027254,682547000000,   682.547, 0.000264, 0.000980,-0.014010,-0.000196,-0.000573,-0.000380,-0.178191, 0.053503, 1.064151,1,-0.011478, 0.023874,-0.054754,1, 0.025563, 0.039645,-1.109445,-0.013208,-0.006238,-0.045809, 0.129854, 0.238572,-0.099502,-0.000000, 0.000000, 0.000001,1,0
1777415843433697359,682557000000,   682.562, 0.000448,-0.001476,-0.007759, 0.000356, 0.000226,-0.000433,-0.142866,-0.463181, 0.110935,1, 0.006509, 0.011916,-0.045456,1, 0.036478,-0.050191,-0.987379, 0.006508, 0.011917,-0.045455, 0.129748, 0.238281,-0.099654,-0.000000, 0.000000, 0.000001,1,0
1777415843443406192,682577000000,   682.582, 0.000210, 0.001705,-0.009387,-0.000152, 0.000103,-0.000290,-0.081636, 0.889940, 0.198631,1,-0.007681, 0.000619,-0.035243,1, 0.042723, 0.088003,-0.978438,-0.007681, 0.000619,-0.035242, 0.129052, 0.237912,-0.099880,-0.000000, 0.000000, 0.000001,1,0
1777415843453491294,682577000000,   682.582, 0.000210, 0.001705,-0.009387,-0.000152, 0.000103,-0.000290,-0.081636, 0.889940, 0.198631,1,-0.007681, 0.000619,-0.035243,1, 0.042723, 0.088003,-0.978438,-0.007681, 0.000619,-0.035242, 0.129052, 0.237912,-0.099880,-0.000000, 0.000000, 0.000001,1,0
1777415843463085130,682597000000,   682.602,-0.000287, 0.001140,-0.012483,-0.000631,-0.000479,-0.000162,-0.398742, 0.341820,-0.929441,1,-0.038471,-0.013699,-0.019439,1, 0.010462, 0.032379,-1.093466,-0.038471,-0.013699,-0.019438, 0.128888, 0.237538,-0.099009,-0.000000, 0.000000, 0.000001,1,0
1777415843473169176,682597000000,   682.602,-0.000287, 0.001140,-0.012483,-0.000631,-0.000479,-0.000162,-0.398742, 0.341820,-0.929441,1,-0.038471,-0.013699,-0.019439,1, 0.010462, 0.032379,-1.093466,-0.038471,-0.013699,-0.019438, 0.128888, 0.237538,-0.099009,-0.000000, 0.000000, 0.000001,1,0
1777415843492900556,682617000000,   682.622, 0.000221, 0.000523,-0.009581,-0.000101, 0.000294, 0.000011,-0.337984, 0.592841,-0.106563,1,-0.017636, 0.016106,-0.007817,1, 0.016804, 0.058427,-1.009549,-0.017637, 0.016106,-0.007816, 0.129010, 0.237503,-0.098634,-0.000000, 0.000000, 0.000001,1,0
1777415843502585557,682637000000,   682.642,-0.000146,-0.001356,-0.008859,-0.000836,-0.000213,-0.000077,-0.394850,-0.601713, 0.232622,1,-0.038206,-0.005692,-0.006076,1, 0.011224,-0.063229,-0.974951,-0.038206,-0.005692,-0.006076, 0.128954, 0.237211,-0.097899,-0.000000, 0.000000, 0.000001,1,0
1777415843512669936,682637000000,   682.642,-0.000146,-0.001356,-0.008859,-0.000836,-0.000213,-0.000077,-0.394850,-0.601713, 0.232622,1,-0.038206,-0.005692,-0.006076,1, 0.011224,-0.063229,-0.974951,-0.038206,-0.005692,-0.006076, 0.128954, 0.237211,-0.097899,-0.000000, 0.000000, 0.000001,1,0
1777415843522349844,682657000000,   682.662,-0.000097, 0.000858,-0.009460, 0.000015, 0.000289,-0.000047,-0.642476, 0.516634, 0.221955,1,-0.023573, 0.006640,-0.007024,1,-0.014064, 0.051169,-0.976041,-0.023574, 0.006641,-0.007023, 0.129138, 0.237040,-0.098812,-0.000000, 0.000000, 0.000001,1,0
1777415843532434668,682657000000,   682.662,-0.000097, 0.000858,-0.009460, 0.000015, 0.000289,-0.000047,-0.642476, 0.516634, 0.221955,1,-0.023573, 0.006640,-0.007024,1,-0.014064, 0.051169,-0.976041,-0.023574, 0.006641,-0.007023, 0.129138, 0.237040,-0.098812,-0.000000, 0.000000, 0.000001,1,0
1777415843542045726,682677000000,   682.682,-0.000130,-0.000384,-0.009584,-0.000278,-0.000363,-0.000076,-0.608245,-0.119502,-0.040155,1,-0.006924, 0.002893,-0.002779,1,-0.010602,-0.013607,-1.002771,-0.006924, 0.002893,-0.002778, 0.129388, 0.236719,-0.099122,-0.000001, 0.000001, 0.000001,1,0
1777415843552130068,682677000000,   682.682,-0.000130,-0.000384,-0.009584,-0.000278,-0.000363,-0.000076,-0.608245,-0.119502,-0.040155,1,-0.006924, 0.002893,-0.002779,1,-0.010602,-0.013607,-1.002771,-0.006924, 0.002893,-0.002778, 0.129388, 0.236719,-0.099122,-0.000001, 0.000001, 0.000001,1,0
1777415843571859505,682697000000,   682.702, 0.000666, 0.001693,-0.014420,-0.000207,-0.000362,-0.000305,-0.260979, 0.071435,-1.393792,1,-0.004181,-0.009617,-0.015110,1, 0.024752, 0.005772,-1.140806,-0.004182,-0.009616,-0.015109, 0.128989, 0.236892,-0.098352,-0.000001, 0.000001, 0.000001,1,0
1777415843581543746,682717000000,   682.722, 0.000887, 0.002496,-0.009239,-0.000495, 0.000450,-0.000056,-0.235274, 1.005723, 0.419650,1,-0.017235, 0.020647,-0.004297,1, 0.027541, 0.101337,-0.955878,-0.017235, 0.020648,-0.004295, 0.129177, 0.236871,-0.097457,-0.000001, 0.000001, 0.000001,1,0
1777415843591628144,682717000000,   682.722, 0.000887, 0.002496,-0.009239,-0.000495, 0.000450,-0.000056,-0.235274, 1.005723, 0.419650,1,-0.017235, 0.020647,-0.004297,1, 0.027541, 0.101337,-0.955878,-0.017235, 0.020648,-0.004295, 0.129177, 0.236871,-0.097457,-0.000001, 0.000001, 0.000001,1,0
1777415843601325718,682737000000,   682.742, 0.000768,-0.000229,-0.005203, 0.000503, 0.000309, 0.000049,-0.189366, 0.198549, 1.487751,1, 0.022024, 0.020279, 0.004721,1, 0.032481, 0.019102,-0.846949, 0.022023, 0.020280, 0.004722, 0.129218, 0.236522,-0.097201,-0.000001, 0.000001, 0.000001,1,0
1777415843611410264,682737000000,   682.742, 0.000768,-0.000229,-0.005203, 0.000503, 0.000309, 0.000049,-0.189366, 0.198549, 1.487751,1, 0.022024, 0.020279, 0.004721,1, 0.032481, 0.019102,-0.846949, 0.022023, 0.020280, 0.004722, 0.129218, 0.236522,-0.097201,-0.000001, 0.000001, 0.000001,1,0
1777415843626909453,682757000000,   682.762, 0.000254, 0.001639,-0.008724, 0.000351,-0.000112, 0.000146,-0.371446, 1.078780, 0.593738,1, 0.015747,-0.008097, 0.004053,1, 0.013873, 0.108689,-0.938115, 0.015746,-0.008097, 0.004054, 0.128908, 0.236375,-0.097619,-0.000001, 0.000001, 0.000001,1,0
1777415843636608527,682777000000,   682.777, 0.000214, 0.000536,-0.012014, 0.000500,-0.000266, 0.000430,-0.182319, 0.572459,-0.482169,1, 0.041028, 0.004793, 0.029554,1, 0.033404, 0.056587,-1.047813, 0.041027, 0.004793, 0.029556, 0.129234, 0.235998,-0.098699,-0.000001, 0.000001, 0.000001,1,0
1777415843646708851,682777000000,   682.777, 0.000214, 0.000536,-0.012014, 0.000500,-0.000266, 0.000430,-0.182319, 0.572459,-0.482169,1, 0.041028, 0.004793, 0.029554,1, 0.033404, 0.056587,-1.047813, 0.041027, 0.004793, 0.029556, 0.129234, 0.235998,-0.098699,-0.000001, 0.000001, 0.000001,1,0
1777415843656360111,682797000000,   682.797, 0.000806, 0.000324,-0.006811, 0.000339, 0.000682, 0.000331,-0.079424, 0.256929, 1.326368,1, 0.043241, 0.026662, 0.035569,1, 0.043982, 0.023711,-0.863388, 0.043240, 0.026662, 0.035571, 0.129346, 0.235776,-0.099099,-0.000001, 0.000001, 0.000001,1,0
1777415843666444620,682797000000,   682.797, 0.000806, 0.000324,-0.006811, 0.000339, 0.000682, 0.000331,-0.079424, 0.256929, 1.326368,1, 0.043241, 0.026662, 0.035569,1, 0.043982, 0.023711,-0.863388, 0.043240, 0.026662, 0.035571, 0.129346, 0.235776,-0.099099,-0.000001, 0.000001, 0.000001,1,0
1777415843685796511,682817000000,   682.817, 0.000128, 0.001854,-0.008536, 0.000288,-0.000339, 0.000275,-0.325323,-0.381432,-0.923064,1, 0.042433,-0.006874, 0.036618,1, 0.013169, 0.068060,-0.961280, 0.034385,-0.017935, 0.033218, 0.129712, 0.235678,-0.098723,-0.000001, 0.000001, 0.000001,1,0
1777415843695487918,682837000000,   682.837, 0.000246, 0.001449,-0.010348, 0.000446, 0.000413, 0.000733,-0.354717, 0.489725,-0.101605,1, 0.016492,-0.002973, 0.043812,1, 0.016905, 0.080763,-0.999453, 0.034840, 0.020770, 0.059328, 0.129444, 0.235594,-0.098586,-0.000001, 0.000001, 0.000001,1,0
1777415843705572335,682837000000,   682.837, 0.000246, 0.001449,-0.010348, 0.000446, 0.000413, 0.000733,-0.354717, 0.489725,-0.101605,1, 0.016492,-0.002973, 0.043812,1, 0.016905, 0.080763,-0.999453, 0.034840, 0.020770, 0.059328, 0.129444, 0.235594,-0.098586,-0.000001, 0.000001, 0.000001,1,0
1777415843715247113,682857000000,   682.857,-0.000347, 0.001014,-0.011665,-0.000522,-0.000504, 0.000495,-0.413555,-0.533839,-0.095962,1,-0.000415,-0.009913, 0.066146,1,-0.013691, 0.025389,-1.044068,-0.029352,-0.029837, 0.058808, 0.130151, 0.235407,-0.098444,-0.000001, 0.000001, 0.000001,1,0
1777415843725346770,682857000000,   682.857,-0.000347, 0.001014,-0.011665,-0.000522,-0.000504, 0.000495,-0.413555,-0.533839,-0.095962,1,-0.000415,-0.009913, 0.066146,1,-0.013691, 0.025389,-1.044068,-0.029352,-0.029837, 0.058808, 0.130151, 0.235407,-0.098444,-0.000001, 0.000001, 0.000001,1,0
1777415843735005993,682877000000,   682.877, 0.000637,-0.000776,-0.008457, 0.000014, 0.000953, 0.001022,-0.329336, 0.726290, 0.230834,1,-0.035730, 0.001090, 0.066718,1, 0.050763,-0.009652,-0.924761,-0.023881, 0.045772, 0.082840, 0.130255, 0.235695,-0.098931,-0.000001, 0.000001, 0.000002,1,0
1777415843745091372,682877000000,   682.877, 0.000637,-0.000776,-0.008457, 0.000014, 0.000953, 0.001022,-0.329336, 0.726290, 0.230834,1,-0.035730, 0.001090, 0.066718,1, 0.050763,-0.009652,-0.924761,-0.023881, 0.045772, 0.082840, 0.130255, 0.235695,-0.098931,-0.000001, 0.000001, 0.000002,1,0
1777415843764804217,682897000000,   682.897, 0.000226,-0.001485,-0.009213, 0.000248, 0.000033, 0.000745,-0.117707,-0.084111,-0.652173,1,-0.016875,-0.004587, 0.084391,1, 0.044444,-0.081729,-1.009540,-0.000517,-0.000985, 0.079014, 0.130339, 0.235592,-0.099173,-0.000001, 0.000001, 0.000002,1,0
1777415843774442848,682917000000,   682.917, 0.000338,-0.001429,-0.014024,-0.000297,-0.000138, 0.000677,-0.148003, 0.487385, 1.633325,1, 0.007832,-0.010380, 0.060350,1, 0.031167,-0.031632,-1.139772,-0.023178,-0.020111, 0.061145, 0.130518, 0.235307,-0.098695,-0.000001, 0.000001, 0.000002,1,0
1777415843784527209,682917000000,   682.917, 0.000338,-0.001429,-0.014024,-0.000297,-0.000138, 0.000677,-0.148003, 0.487385, 1.633325,1, 0.007832,-0.010380, 0.060350,1, 0.031167,-0.031632,-1.139772,-0.023178,-0.020111, 0.061145, 0.130518, 0.235307,-0.098695,-0.000001, 0.000001, 0.000002,1,0
1777415843794200061,682937000000,   682.937,-0.000210,-0.001221,-0.007081,-0.000170, 0.000608, 0.000703,-0.145823, 0.822072,-0.321586,1, 0.001156,-0.014075, 0.059701,1, 0.016686,-0.001851,-0.919892,-0.018395, 0.016800, 0.062356, 0.131135, 0.234831,-0.098514,-0.000001, 0.000001, 0.000002,1,0
1777415843804304829,682937000000,   682.937,-0.000210,-0.001221,-0.007081,-0.000170, 0.000608, 0.000703,-0.145823, 0.822072,-0.321586,1, 0.001156,-0.014075, 0.059701,1, 0.016686,-0.001851,-0.919892,-0.018395, 0.016800, 0.062356, 0.131135, 0.234831,-0.098514,-0.000001, 0.000001, 0.000002,1,0
1777415843814027477,682957000000,   682.957,-0.000460,-0.001573,-0.010775,-0.000258,-0.000654, 0.000441, 0.021957, 0.063501, 0.071221,1, 0.011334, 0.011310, 0.065057,1, 0.002534,-0.053941,-1.052958,-0.015003,-0.026813, 0.053434, 0.131501, 0.235012,-0.098128,-0.000001, 0.000001, 0.000002,1,0
1777415843824137818,682957000000,   682.957,-0.000460,-0.001573,-0.010775,-0.000258,-0.000654, 0.000441, 0.021957, 0.063501, 0.071221,1, 0.011334, 0.011310, 0.065057,1, 0.002534,-0.053941,-1.052958,-0.015003,-0.026813, 0.053434, 0.131501, 0.235012,-0.098128,-0.000001, 0.000001, 0.000002,1,0
1777415843843759276,682967000000,   682.972, 0.000326, 0.000315,-0.007275, 0.000498,-0.000251, 0.000356,-0.403606,-0.087439, 0.983563,1, 0.008421,-0.026653, 0.045678,1, 0.009942,-0.013944,-0.898385, 0.008420,-0.026652, 0.045680, 0.131941, 0.234993,-0.098412,-0.000001, 0.000001, 0.000002,1,0
1777415843853443795,682987000000,   682.992, 0.000715,-0.000018,-0.007399, 0.000345, 0.001181, 0.000632,-0.189205, 0.322534, 0.526540,1, 0.008767, 0.042827, 0.053436,1, 0.031578, 0.027845,-0.945000, 0.008766, 0.042828, 0.053438, 0.131571, 0.234559,-0.098858,-0.000001, 0.000001, 0.000002,1,0
1777415843863545877,682987000000,   682.992, 0.000715,-0.000018,-0.007399, 0.000345, 0.001181, 0.000632,-0.189205, 0.322534, 0.526540,1, 0.008767, 0.042827, 0.053436,1, 0.031578, 0.027845,-0.945000, 0.008766, 0.042828, 0.053438, 0.131571, 0.234559,-0.098858,-0.000001, 0.000001, 0.000002,1,0
1777415843873148139,683007000000,   683.012, 0.000257,-0.001232,-0.013233,-0.000159,-0.000184, 0.000363,-0.045246,-0.602110,-1.082287,1,-0.018857,-0.002348, 0.049002,1, 0.046566,-0.066466,-1.109039,-0.018858,-0.002347, 0.049004, 0.131965, 0.234472,-0.099179,-0.000001, 0.000001, 0.000002,1,0
1777415843883232296,683007000000,   683.012, 0.000257,-0.001232,-0.013233,-0.000159,-0.000184, 0.000363,-0.045246,-0.602110,-1.082287,1,-0.018857,-0.002348, 0.049002,1, 0.046566,-0.066466,-1.109039,-0.018858,-0.002347, 0.049004, 0.131965, 0.234472,-0.099179,-0.000001, 0.000001, 0.000002,1,0
1777415843902945122,683027000000,   683.032, 0.000815, 0.000926,-0.013682,-0.000445,-0.000343, 0.000166,-0.040904, 0.050147,-0.887111,1, 0.003164,-0.018902, 0.036500,1, 0.046693, 0.000073,-1.089153, 0.003164,-0.018901, 0.036502, 0.131977, 0.234325,-0.099304,-0.000001, 0.000001, 0.000002,1,0
1777415843912643048,683047000000,   683.052, 0.000636, 0.000530,-0.008179, 0.000467, 0.000559, 0.000554, 0.005014, 0.495302, 0.846897,1, 0.027503, 0.023558, 0.046764,1, 0.051382, 0.045495,-0.912333, 0.027503, 0.023559, 0.046766, 0.132380, 0.234006,-0.099265,-0.000001, 0.000001, 0.000002,1,0
1777415843922789463,683047000000,   683.052, 0.000636, 0.000530,-0.008179, 0.000467, 0.000559, 0.000554, 0.005014, 0.495302, 0.846897,1, 0.027503, 0.023558, 0.046764,1, 0.051382, 0.045495,-0.912333, 0.027503, 0.023559, 0.046766, 0.132380, 0.234006,-0.099265,-0.000001, 0.000001, 0.000002,1,0
1777415843932026419,683067000000,   683.072,-0.000221, 0.001836,-0.011555,-0.000035,-0.000483, 0.000311,-0.335658, 0.640196,-0.400589,1, 0.006295,-0.009545, 0.033366,1, 0.016433, 0.060280,-1.039552, 0.006294,-0.009544, 0.033369, 0.131709, 0.233677,-0.099182,-0.000001, 0.000001, 0.000003,1,0
1777415843942110076,683067000000,   683.072,-0.000221, 0.001836,-0.011555,-0.000035,-0.000483, 0.000311,-0.335658, 0.640196,-0.400589,1, 0.006295,-0.009545, 0.033366,1, 0.016433, 0.060280,-1.039552, 0.006294,-0.009544, 0.033369, 0.131709, 0.233677,-0.099182,-0.000001, 0.000001, 0.000003,1,0
1777415843961707090,683087000000,   683.092, 0.000309, 0.001328,-0.009488,-0.000678,-0.000051, 0.000597,-0.066534, 0.823701, 0.588820,1,-0.034177, 0.010907, 0.046799,1, 0.043774, 0.079263,-0.938667,-0.034178, 0.010908, 0.046802, 0.131855, 0.234206,-0.098733,-0.000001, 0.000001, 0.000003,1,0
1777415843971399905,683107000000,   683.112, 0.000011, 0.000112,-0.011017,-0.000698,-0.000545, 0.000409,-0.438853, 0.120956,-0.765507,1,-0.040611,-0.030835, 0.047128,1, 0.005357, 0.008007,-1.076794,-0.040611,-0.030834, 0.047130, 0.131788, 0.233652,-0.097736,-0.000001, 0.000001, 0.000003,1,0
1777415843981485136,683107000000,   683.112, 0.000011, 0.000112,-0.011017,-0.000698,-0.000545, 0.000409,-0.438853, 0.120956,-0.765507,1,-0.040611,-0.030835, 0.047128,1, 0.005357, 0.008007,-1.076794,-0.040611,-0.030834, 0.047130, 0.131788, 0.233652,-0.097736,-0.000001, 0.000001, 0.000003,1,0
1777415843997094137,683127000000,   683.132, 0.000705,-0.001339,-0.010653,-0.000005, 0.000463, 0.000678,-0.343210,-0.555849, 0.141417,1,-0.009082, 0.037424, 0.058960,1, 0.015504,-0.060691,-0.984295,-0.009083, 0.037425, 0.058963, 0.132836, 0.233441,-0.098272,-0.000001, 0.000001, 0.000003,1,0
1777415844016790056,683147000000,   683.152,-0.000472,-0.000219,-0.007367,-0.000145,-0.000800, 0.000510,-0.737131,-0.338005, 0.967185,1,-0.018162,-0.024626, 0.051777,1,-0.024600,-0.038058,-0.900089,-0.018163,-0.024625, 0.051779, 0.133009, 0.233186,-0.099276,-0.000001, 0.000001, 0.000003,1,0
1777415844026482352,683167000000,   683.167, 0.000313,-0.000066,-0.007299, 0.000333, 0.000787, 0.000542,-0.481103,-0.035587, 0.804538,1, 0.006118, 0.049191, 0.048880,1, 0.001811,-0.006972,-0.916660, 0.006118, 0.049192, 0.048883, 0.133116, 0.232791,-0.099003,-0.000001, 0.000001, 0.000003,1,0
1777415844036567972,683167000000,   683.167, 0.000313,-0.000066,-0.007299, 0.000333, 0.000787, 0.000542,-0.481103,-0.035587, 0.804538,1, 0.006118, 0.049191, 0.048880,1, 0.001811,-0.006972,-0.916660, 0.006118, 0.049192, 0.048883, 0.133116, 0.232791,-0.099003,-0.000001, 0.000001, 0.000003,1,0
1777415844046230750,683187000000,   683.187, 0.000359,-0.000505,-0.008195,-0.000267,-0.000346, 0.000520,-0.264338,-0.610631, 0.563397,1,-0.027830,-0.009392, 0.053519,1, 0.024431,-0.065312,-0.941224,-0.027831,-0.009391, 0.053521, 0.132905, 0.233024,-0.098273,-0.000001, 0.000001, 0.000003,1,0
1777415844056315110,683187000000,   683.187, 0.000359,-0.000505,-0.008195,-0.000267,-0.000346, 0.000520,-0.264338,-0.610631, 0.563397,1,-0.027830,-0.009392, 0.053519,1, 0.024431,-0.065312,-0.941224,-0.027831,-0.009391, 0.053521, 0.132905, 0.233024,-0.098273,-0.000001, 0.000001, 0.000003,1,0
1777415844075670611,683207000000,   683.207, 0.000497, 0.001003,-0.006814, 0.000416, 0.000669, 0.000450,-0.459110,-0.319206,-1.073545,1,-0.039334,-0.015635, 0.048095,1, 0.022358, 0.011039,-0.912924,-0.008227, 0.020489, 0.048690, 0.133449, 0.232742,-0.098332,-0.000001, 0.000001, 0.000003,1,0
1777415844085357259,683227000000,   683.227, 0.000042, 0.000732,-0.008016,-0.000381, 0.000359, 0.000930,-0.368444, 1.237912,-0.781358,1,-0.045023,-0.000367, 0.047160,1, 0.005628, 0.105726,-0.914920,-0.036774, 0.020288, 0.067533, 0.133662, 0.232546,-0.097609,-0.000001, 0.000001, 0.000003,1,0
1777415844095441564,683227000000,   683.227, 0.000042, 0.000732,-0.008016,-0.000381, 0.000359, 0.000930,-0.368444, 1.237912,-0.781358,1,-0.045023,-0.000367, 0.047160,1, 0.005628, 0.105726,-0.914920,-0.036774, 0.020288, 0.067533, 0.133662, 0.232546,-0.097609,-0.000001, 0.000001, 0.000003,1,0
1777415844105114509,683247000000,   683.247, 0.000141,-0.000525,-0.004329, 0.000429, 0.000455, 0.000739,-0.443037, 0.270386,-2.612307,1,-0.032662, 0.025105, 0.079666,1, 0.003772,-0.004561,-0.840321, 0.001732, 0.035106, 0.077027, 0.133771, 0.232674,-0.098251,-0.000001, 0.000001, 0.000003,1,0
1777415844115197499,683247000000,   683.247, 0.000141,-0.000525,-0.004329, 0.000429, 0.000455, 0.000739,-0.443037, 0.270386,-2.612307,1,-0.032662, 0.025105, 0.079666,1, 0.003772,-0.004561,-0.840321, 0.001732, 0.035106, 0.077027, 0.133771, 0.232674,-0.098251,-0.000001, 0.000001, 0.000003,1,0
1777415844134934656,683267000000,   683.267, 0.000122, 0.000237,-0.010189, 0.000427, 0.000308, 0.000700,-0.416014,-0.146660, 0.239458,1,-0.008228, 0.023124, 0.068766,1, 0.005560,-0.006719,-0.975526, 0.015536, 0.027662, 0.071040, 0.133881, 0.232605,-0.099156,-0.000001, 0.000001, 0.000003,1,0
1777415844144615267,683287000000,   683.287, 0.000873,-0.002643,-0.007884, 0.000332, 0.000603, 0.000785,-0.660358, 0.569047, 0.329264,1, 0.004329, 0.024953, 0.064766,1, 0.032840,-0.111034,-0.919138, 0.010975, 0.038259, 0.069817, 0.134124, 0.232808,-0.099300,-0.000001, 0.000001, 0.000003,1,0
1777415844154699054,683287000000,   683.287, 0.000873,-0.002643,-0.007884, 0.000332, 0.000603, 0.000785,-0.660358, 0.569047, 0.329264,1, 0.004329, 0.024953, 0.064766,1, 0.032840,-0.111034,-0.919138, 0.010975, 0.038259, 0.069817, 0.134124, 0.232808,-0.099300,-0.000001, 0.000001, 0.000003,1,0
1777415844164302167,683307000000,   683.307,-0.000927,-0.000103,-0.008304,-0.000397,-0.000108, 0.000400,-0.127064,-0.273668,-0.098621,1, 0.030643,-0.003366, 0.055461,1,-0.012603,-0.008099,-0.985396,-0.002753,-0.008899, 0.046390, 0.133999, 0.232394,-0.098154,-0.000001, 0.000001, 0.000003,1,0
1777415844174385676,683307000000,   683.307,-0.000927,-0.000103,-0.008304,-0.000397,-0.000108, 0.000400,-0.127064,-0.273668,-0.098621,1, 0.030643,-0.003366, 0.055461,1,-0.012603,-0.008099,-0.985396,-0.002753,-0.008899, 0.046390, 0.133999, 0.232394,-0.098154,-0.000001, 0.000001, 0.000003,1,0
1777415844184055935,683327000000,   683.327,-0.000055,-0.000248,-0.013851,-0.000257, 0.000120, 0.000346,-0.657192,-0.328959, 0.968917,1, 0.038340, 0.004495, 0.050699,1,-0.012913,-0.025581,-1.134320, 0.009978, 0.004228, 0.044021, 0.134139, 0.232279,-0.098586,-0.000001, 0.000001, 0.000003,1,0
1777415844194139074,683327000000,   683.327,-0.000055,-0.000248,-0.013851,-0.000257, 0.000120, 0.000346,-0.657192,-0.328959, 0.968917,1, 0.038340, 0.004495, 0.050699,1,-0.012913,-0.025581,-1.134320, 0.009978, 0.004228, 0.044021, 0.134139, 0.232279,-0.098586,-0.000001, 0.000001, 0.000003,1,0
1777415844213851232,683347000000,   683.347, 0.000488, 0.001035,-0.015901,-0.000308,-0.000513,-0.000033,-0.580749,-1.413987, 1.517231,1, 0.021219, 0.017370, 0.046341,1, 0.020680,-0.028160,-1.167539,-0.004230,-0.016192, 0.025046, 0.134216, 0.232242,-0.098566,-0.000001, 0.000001, 0.000003,1,0
1777415844223555620,683357000000,   683.362,-0.000529,-0.001272,-0.006212, 0.000190, 0.000269, 0.000350,-0.545869,-0.864608, 0.243814,1,-0.006506, 0.004237, 0.028827,1,-0.002560,-0.092140,-0.973719,-0.006507, 0.004239, 0.028830, 0.134720, 0.231773,-0.099077,-0.000001, 0.000001, 0.000003,1,0
1777415844233639684,683357000000,   683.362,-0.000529,-0.001272,-0.006212, 0.000190, 0.000269, 0.000350,-0.545869,-0.864608, 0.243814,1,-0.006506, 0.004237, 0.028827,1,-0.002560,-0.092140,-0.973719,-0.006507, 0.004239, 0.028830, 0.134720, 0.231773,-0.099077,-0.000001, 0.000001, 0.000003,1,0
1777415844243254501,683377000000,   683.382,-0.000255,-0.001078,-0.014937,-0.001660,-0.000317, 0.000115,-0.652048,-0.075577,-2.186532,1,-0.052110,-0.012078, 0.021464,1,-0.013166,-0.011697,-1.221533,-0.052110,-0.012077, 0.021468, 0.134555, 0.231763,-0.099082,-0.000001, 0.000001, 0.000003,1,0
1777415844253356787,683377000000,   683.382,-0.000255,-0.001078,-0.014937,-0.001660,-0.000317, 0.000115,-0.652048,-0.075577,-2.186532,1,-0.052110,-0.012078, 0.021464,1,-0.013166,-0.011697,-1.221533,-0.052110,-0.012077, 0.021468, 0.134555, 0.231763,-0.099082,-0.000001, 0.000001, 0.000003,1,0
1777415844263064323,683397000000,   683.402, 0.001721,-0.000205,-0.009666,-0.000342, 0.000982, 0.000372,-0.039506, 0.539424, 0.809363,1,-0.013211, 0.048262, 0.038196,1, 0.049598, 0.051574,-0.916023,-0.013212, 0.048263, 0.038199, 0.134957, 0.231691,-0.099864,-0.000001, 0.000001, 0.000003,1,0
1777415844273149017,683397000000,   683.402, 0.001721,-0.000205,-0.009666,-0.000342, 0.000982, 0.000372,-0.039506, 0.539424, 0.809363,1,-0.013211, 0.048262, 0.038196,1, 0.049598, 0.051574,-0.916023,-0.013212, 0.048263, 0.038199, 0.134957, 0.231691,-0.099864,-0.000001, 0.000001, 0.000003,1,0
1777415844292815436,683417000000,   683.422, 0.000395,-0.001114,-0.012600, 0.000551,-0.000502, 0.000327,-0.223562,-0.229505,-0.424311,1, 0.013889,-0.026926, 0.034655,1, 0.030931,-0.026758,-1.041817, 0.013888,-0.026924, 0.034658, 0.134655, 0.231722,-0.099109,-0.000001, 0.000001, 0.000003,1,0
1777415844302496214,683437000000,   683.442,-0.000267,-0.002243,-0.012956,-0.000130, 0.000157,-0.000034,-0.704433,-0.839185,-0.933062,1,-0.011791,-0.010298, 0.004663,1,-0.018533,-0.089432,-1.093717,-0.011792,-0.010297, 0.004667, 0.135278, 0.231533,-0.098413,-0.000001, 0.000001, 0.000003,1,0
1777415844312579926,683437000000,   683.442,-0.000267,-0.002243,-0.012956,-0.000130, 0.000157,-0.000034,-0.704433,-0.839185,-0.933062,1,-0.011791,-0.010298, 0.004663,1,-0.018533,-0.089432,-1.093717,-0.011792,-0.010297, 0.004667, 0.135278, 0.231533,-0.098413,-0.000001, 0.000001, 0.000003,1,0
1777415844322199057,683457000000,   683.462, 0.000408,-0.003536,-0.006433, 0.000353, 0.001133, 0.000340,-0.453663,-0.996544, 0.890355,1, 0.000862, 0.046543, 0.016909,1, 0.007567,-0.106006,-0.907749, 0.000861, 0.046544, 0.016913, 0.135503, 0.231327,-0.098857,-0.000001, 0.000001, 0.000003,1,0
1777415844332283714,683457000000,   683.462, 0.000408,-0.003536,-0.006433, 0.000353, 0.001133, 0.000340,-0.453663,-0.996544, 0.890355,1, 0.000862, 0.046543, 0.016909,1, 0.007567,-0.106006,-0.907749, 0.000861, 0.046544, 0.016913, 0.135503, 0.231327,-0.098857,-0.000001, 0.000001, 0.000003,1,0
1777415844342078397,683477000000,   683.482,-0.001169,-0.000853,-0.007356, 0.000230,-0.000085,-0.000125,-0.486288,-1.033836, 0.064778,1, 0.035359, 0.007616, 0.003856,1, 0.004251,-0.110093,-0.991933, 0.035358, 0.007617, 0.003860, 0.134833, 0.231663,-0.100276,-0.000001, 0.000002, 0.000004,1,0
1777415844352162368,683477000000,   683.482,-0.001169,-0.000853,-0.007356, 0.000230,-0.000085,-0.000125,-0.486288,-1.033836, 0.064778,1, 0.035359, 0.007616, 0.003856,1, 0.004251,-0.110093,-0.991933, 0.035358, 0.007617, 0.003860, 0.134833, 0.231663,-0.100276,-0.000001, 0.000002, 0.000004,1,0
1777415844371755659,683497000000,   683.502, 0.000320,-0.000906,-0.011499,-0.000084,-0.000148, 0.000066,-0.531172,-0.201473,-0.342509,1, 0.003572, 0.009598,-0.002704,1,-0.000127,-0.025113,-1.033455, 0.003571, 0.009600,-0.002700, 0.134560, 0.231096,-0.100036,-0.000001, 0.000002, 0.000004,1,0
1777415844381448214,683517000000,   683.522, 0.000073,-0.001871,-0.010371, 0.000025,-0.000125, 0.000077,-0.462607,-0.756780, 0.004039,1,-0.002640, 0.010409, 0.000230,1, 0.007215,-0.081664,-0.998098,-0.002641, 0.010411, 0.000234, 0.134825, 0.230997,-0.100122,-0.000001, 0.000002, 0.000004,1,0
1777415844391533297,683517000000,   683.522, 0.000073,-0.001871,-0.010371, 0.000025,-0.000125, 0.000077,-0.462607,-0.756780, 0.004039,1,-0.002640, 0.010409, 0.000230,1, 0.007215,-0.081664,-0.998098,-0.002641, 0.010411, 0.000234, 0.134825, 0.230997,-0.100122,-0.000001, 0.000002, 0.000004,1,0
1777415844407149835,683537000000,   683.542,-0.000045,-0.001146,-0.009040,-0.000327, 0.000114,-0.000300,-0.530640,-0.611693, 0.234028,1,-0.006177, 0.002417,-0.015068,1, 0.000262,-0.066838,-0.974646,-0.006178, 0.002419,-0.015064, 0.134746, 0.230660,-0.100010,-0.000001, 0.000002, 0.000004,1,0
1777415844426828364,683557000000,   683.562, 0.000624,-0.000780,-0.007701, 0.000466, 0.000139,-0.000473,-0.296921,-0.374386, 0.607505,1, 0.031319, 0.011023,-0.033917,1, 0.024009,-0.042658,-0.936567, 0.031318, 0.011025,-0.033913, 0.134797, 0.230701,-0.100092,-0.000001, 0.000002, 0.000004,1,0
1777415844436526382,683577000000,   683.577, 0.000208, 0.001725,-0.011910,-0.000316,-0.000421,-0.000382,-0.527993, 0.510247,-0.143970,1,-0.038238,-0.018268,-0.043643,1, 0.000287, 0.047782,-1.013206,-0.038239,-0.018266,-0.043638, 0.134492, 0.230063,-0.099411,-0.000001, 0.000002, 0.000004,1,0
1777415844446609502,683577000000,   683.577, 0.000208, 0.001725,-0.011910,-0.000316,-0.000421,-0.000382,-0.527993, 0.510247,-0.143970,1,-0.038238,-0.018268,-0.043643,1, 0.000287, 0.047782,-1.013206,-0.038239,-0.018266,-0.043638, 0.134492, 0.230063,-0.099411,-0.000001, 0.000002, 0.000004,1,0
1777415844456283428,683597000000,   683.597, 0.000633,-0.001011,-0.010524, 0.000099,-0.000097,-0.000369,-0.264540,-0.354101,-0.091900,1,-0.014276, 0.002016,-0.037258,1, 0.027360,-0.040110,-1.007886,-0.014277, 0.002018,-0.037254, 0.133738, 0.230134,-0.099918,-0.000001, 0.000002, 0.000004,1,0
1777415844466382566,683597000000,   683.597, 0.000633,-0.001011,-0.010524, 0.000099,-0.000097,-0.000369,-0.264540,-0.354101,-0.091900,1,-0.014276, 0.002016,-0.037258,1, 0.027360,-0.040110,-1.007886,-0.014277, 0.002018,-0.037254, 0.133738, 0.230134,-0.099918,-0.000001, 0.000002, 0.000004,1,0
1777415844485701327,683617000000,   683.617,-0.000004, 0.002209,-0.009336,-0.000392,-0.000066,-0.000527,-0.457162,-0.521974,-0.021742,1,-0.022666,-0.026378,-0.044359,1, 0.002048, 0.075311,-0.968634,-0.030495,-0.015411,-0.047089, 0.134289, 0.230174,-0.100032,-0.000001, 0.000002, 0.000004,1,0
1777415844495410752,683637000000,   683.637, 0.000445,-0.000087,-0.012617,-0.000007, 0.000195,-0.000389,-0.500947,-0.006133, 0.011789,1,-0.007406, 0.017705,-0.038194,1, 0.021931,-0.003495,-1.141974,-0.001695, 0.017460,-0.038515, 0.133259, 0.229905,-0.099985,-0.000001, 0.000002, 0.000004,1,0
1777415844505494390,683637000000,   683.637, 0.000445,-0.000087,-0.012617,-0.000007, 0.000195,-0.000389,-0.500947,-0.006133, 0.011789,1,-0.007406, 0.017705,-0.038194,1, 0.021931,-0.003495,-1.141974,-0.001695, 0.017460,-0.038515, 0.133259, 0.229905,-0.099985,-0.000001, 0.000002, 0.000004,1,0
1777415844515170317,683657000000,   683.657, 0.000369, 0.001150,-0.013106,-0.000716,-0.000511,-0.000804,-0.334469,-0.796969, 1.346997,1, 0.009804, 0.004166,-0.047322,1, 0.026250, 0.017687,-1.069991,-0.024592,-0.022560,-0.061970, 0.133448, 0.229572,-0.100119,-0.000001, 0.000002, 0.000004,1,0
1777415844525253436,683657000000,   683.657, 0.000369, 0.001150,-0.013106,-0.000716,-0.000511,-0.000804,-0.334469,-0.796969, 1.346997,1, 0.009804, 0.004166,-0.047322,1, 0.026250, 0.017687,-1.069991,-0.024592,-0.022560,-0.061970, 0.133448, 0.229572,-0.100119,-0.000001, 0.000002, 0.000004,1,0
1777415844544984835,683677000000,   683.677, 0.000713, 0.000958,-0.012044,-0.000250,-0.000037,-0.000543,-0.458851, 0.431895, 0.462744,1,-0.017548, 0.006917,-0.060209,1, 0.035652, 0.076208,-1.068349,-0.019062, 0.001166,-0.057887, 0.132767, 0.229609,-0.099776,-0.000001, 0.000002, 0.000005,1,0
1777415844554590707,683697000000,   683.697, 0.000765, 0.000310,-0.012417,-0.000847,-0.000457,-0.000607,-0.118757,-0.275961, 0.901720,1, 0.027170, 0.028050,-0.047278,1, 0.061005, 0.003564,-1.063382,-0.014723,-0.004926,-0.053251, 0.132743, 0.229235,-0.098825,-0.000001, 0.000002, 0.000005,1,0
1777415844564675364,683697000000,   683.697, 0.000765, 0.000310,-0.012417,-0.000847,-0.000457,-0.000607,-0.118757,-0.275961, 0.901720,1, 0.027170, 0.028050,-0.047278,1, 0.061005, 0.003564,-1.063382,-0.014723,-0.004926,-0.053251, 0.132743, 0.229235,-0.098825,-0.000001, 0.000002, 0.000005,1,0
1777415844574346753,683717000000,   683.717, 0.000610, 0.000234,-0.009751,-0.000154,-0.000135,-0.000309,-0.108945, 0.251960, 0.757590,1, 0.005581, 0.005578,-0.049024,1, 0.051390, 0.022417,-0.931468, 0.004733,-0.001751,-0.040158, 0.132167, 0.229163,-0.098799,-0.000001, 0.000002, 0.000005,1,0
1777415844584431428,683717000000,   683.717, 0.000610, 0.000234,-0.009751,-0.000154,-0.000135,-0.000309,-0.108945, 0.251960, 0.757590,1, 0.005581, 0.005578,-0.049024,1, 0.051390, 0.022417,-0.931468, 0.004733,-0.001751,-0.040158, 0.132167, 0.229163,-0.098799,-0.000001, 0.000002, 0.000005,1,0
1777415844594106966,683737000000,   683.737,-0.000156,-0.000374,-0.006708, 0.000063, 0.000029,-0.000410,-0.017993,-0.234182,-1.448523,1, 0.016796, 0.003961,-0.034105,1, 0.026865,-0.034805,-0.934582, 0.013684, 0.007221,-0.037413, 0.132283, 0.228816,-0.098954,-0.000001, 0.000002, 0.000005,1,0
1777415844604191289,683737000000,   683.737,-0.000156,-0.000374,-0.006708, 0.000063, 0.000029,-0.000410,-0.017993,-0.234182,-1.448523,1, 0.016796, 0.003961,-0.034105,1, 0.026865,-0.034805,-0.934582, 0.013684, 0.007221,-0.037413, 0.132283, 0.228816,-0.098954,-0.000001, 0.000002, 0.000005,1,0
1777415844623910429,683757000000,   683.757, 0.000024, 0.002299,-0.011411,-0.000614,-0.000390,-0.000746,-0.170857,-1.024862,-0.031874,1, 0.018852, 0.001113,-0.038932,1, 0.026965, 0.068346,-1.047950,-0.016217,-0.020292,-0.055080, 0.131923, 0.228355,-0.099685,-0.000001, 0.000002, 0.000005,1,0
1777415844633599354,683767000000,   683.772,-0.000487,-0.000056,-0.007823, 0.000180, 0.000461,-0.000260,-0.546411, 0.471757, 0.656221,1, 0.000692, 0.013468,-0.044348,1,-0.001787, 0.045990,-0.931626, 0.000691, 0.013470,-0.044344, 0.132009, 0.228430,-0.100029,-0.000001, 0.000002, 0.000005,1,0
1777415844643684363,683767000000,   683.772,-0.000487,-0.000056,-0.007823, 0.000180, 0.000461,-0.000260,-0.546411, 0.471757, 0.656221,1, 0.000692, 0.013468,-0.044348,1,-0.001787, 0.045990,-0.931626, 0.000691, 0.013470,-0.044344, 0.132009, 0.228430,-0.100029,-0.000001, 0.000002, 0.000005,1,0
1777415844653301365,683787000000,   683.792,-0.000166,-0.000438,-0.008233, 0.000124, 0.000004,-0.000337,-0.519710,-0.008719, 0.813486,1,-0.001351, 0.014676,-0.038236,1, 0.001409,-0.002931,-0.915564,-0.001352, 0.014678,-0.038232, 0.131509, 0.227971,-0.100091,-0.000001, 0.000002, 0.000005,1,0
1777415844663386114,683787000000,   683.792,-0.000166,-0.000438,-0.008233, 0.000124, 0.000004,-0.000337,-0.519710,-0.008719, 0.813486,1,-0.001351, 0.014676,-0.038236,1, 0.001409,-0.002931,-0.915564,-0.001352, 0.014678,-0.038232, 0.131509, 0.227971,-0.100091,-0.000001, 0.000002, 0.000005,1,0
1777415844673177315,683807000000,   683.812, 0.000438, 0.001556,-0.010486, 0.000271,-0.000330,-0.000712,-0.034694, 0.010902,-0.078867,1, 0.029999,-0.009366,-0.053872,1, 0.050861,-0.001027,-1.006559, 0.029997,-0.009364,-0.053868, 0.130872, 0.227664,-0.099203,-0.000001, 0.000002, 0.000005,1,0
1777415844683275212,683807000000,   683.812, 0.000438, 0.001556,-0.010486, 0.000271,-0.000330,-0.000712,-0.034694, 0.010902,-0.078867,1, 0.029999,-0.009366,-0.053872,1, 0.050861,-0.001027,-1.006559, 0.029997,-0.009364,-0.053868, 0.130872, 0.227664,-0.099203,-0.000001, 0.000002, 0.000005,1,0
1777415844702857707,683827000000,   683.832, 0.000842,-0.000738,-0.010258,-0.000701, 0.000119,-0.000578, 0.052649, 0.172264,-0.369009,1,-0.015740,-0.002808,-0.055149,1, 0.059829, 0.015299,-1.036142,-0.015741,-0.002806,-0.055144, 0.130781, 0.227719,-0.099564,-0.000001, 0.000002, 0.000005,1,0
1777415844712558725,683847000000,   683.852, 0.000148,-0.001782,-0.012571,-0.000676,-0.000438,-0.000650,-0.345604,-0.434291,-0.635738,1,-0.039287,-0.030732,-0.056642,1, 0.018975,-0.046901,-1.063353,-0.039288,-0.030730,-0.056637, 0.130610, 0.227667,-0.099670,-0.000001, 0.000002, 0.000005,1,0
1777415844722642715,683847000000,   683.852, 0.000148,-0.001782,-0.012571,-0.000676,-0.000438,-0.000650,-0.345604,-0.434291,-0.635738,1,-0.039287,-0.030732,-0.056642,1, 0.018975,-0.046901,-1.063353,-0.039288,-0.030730,-0.056637, 0.130610, 0.227667,-0.099670,-0.000001, 0.000002, 0.000005,1,0
1777415844732310808,683867000000,   683.872, 0.000601, 0.002075,-0.015591,-0.000261,-0.000275,-0.000366,-0.162852, 1.107932,-2.258586,1, 0.014622,-0.019522,-0.039639,1, 0.037063, 0.110225,-1.228866, 0.014621,-0.019520,-0.039634, 0.130519, 0.227334,-0.100507,-0.000001, 0.000002, 0.000005,1,0
1777415844742394947,683867000000,   683.872, 0.000601, 0.002075,-0.015591,-0.000261,-0.000275,-0.000366,-0.162852, 1.107932,-2.258586,1, 0.014622,-0.019522,-0.039639,1, 0.037063, 0.110225,-1.228866, 0.014621,-0.019520,-0.039634, 0.130519, 0.227334,-0.100507,-0.000001, 0.000002, 0.000005,1,0
1777415844762046384,683887000000,   683.892,-0.001276, 0.003161,-0.021633,-0.002117,-0.002429,-0.000415,-0.738209, 0.891191,-3.589947,1,-0.027349,-0.088333,-0.030549,1,-0.022234, 0.087991,-1.364660,-0.027350,-0.088331,-0.030544, 0.130189, 0.227773,-0.100578,-0.000001, 0.000002, 0.000005,1,0
1777415844781808985,683907000000,   683.912, 0.001172,-0.000293,-0.012739, 0.000091,-0.000752, 0.000066, 0.014053, 0.017118, 0.110857,1, 0.010668,-0.007091,-0.004556,1, 0.054524,-0.000859,-0.987282, 0.010666,-0.007089,-0.004552, 0.130412, 0.227175,-0.099622,-0.000001, 0.000002, 0.000005,1,0
1777415844791498300,683927000000,   683.932,-0.000132, 0.001201,-0.008486, 0.000174,-0.000660,-0.000327,-0.243832, 0.057446, 0.740163,1, 0.016983,-0.030568,-0.019832,1, 0.027747, 0.003102,-0.923135, 0.016982,-0.030565,-0.019828, 0.130158, 0.227143,-0.099283,-0.000001, 0.000002, 0.000005,1,0
1777415844801602216,683927000000,   683.932,-0.000132, 0.001201,-0.008486, 0.000174,-0.000660,-0.000327,-0.243832, 0.057446, 0.740163,1, 0.016983,-0.030568,-0.019832,1, 0.027747, 0.003102,-0.923135, 0.016982,-0.030565,-0.019828, 0.130158, 0.227143,-0.099283,-0.000001, 0.000002, 0.000005,1,0
1777415844811201588,683947000000,   683.952,-0.000389, 0.004407,-0.010413, 0.000470, 0.000299,-0.000361,-0.538639, 1.212565,-0.265056,1, 0.019857,-0.000086,-0.026969,1,-0.002857, 0.120605,-1.025667, 0.019856,-0.000084,-0.026965, 0.129722, 0.227545,-0.099587,-0.000001, 0.000002, 0.000005,1,0
1777415844821286060,683947000000,   683.952,-0.000389, 0.004407,-0.010413, 0.000470, 0.000299,-0.000361,-0.538639, 1.212565,-0.265056,1, 0.019857,-0.000086,-0.026969,1,-0.002857, 0.120605,-1.025667, 0.019856,-0.000084,-0.026965, 0.129722, 0.227545,-0.099587,-0.000001, 0.000002, 0.000005,1,0
