Time,reference_time,gps_timestamp,deltaVelX,deltaVelY,deltaVelZ,deltaThetaX,deltaThetaY,deltaThetaZ,estLinearAccelX,estLinearAccelY,estLinearAccelZ,estLinearAccel:valid,estAngularRateX,estAngularRateY,estAngularRateZ,estAngularRate:valid,scaledAccelX,scaledAccelY,scaledAccelZ,scaledGyroX,scaledGyroY,scaledGyroZ,scaledMagX,scaledMagY,scaledMagZ,estGyroBiasX,estGyroBiasY,estGyroBiasZ,estGyroBias:valid,flagStop
1777416742977415888,1557514000000,  1557.514, 0.000048, 0.000009,-0.009956,-0.000010, 0.000036, 0.000186,-0.084541,-0.025084, 0.042796,1,-0.001341, 0.002894, 0.018569,1, 0.004764, 0.000999,-0.995571,-0.001211, 0.003210, 0.018586, 0.020232,-0.113828,-0.151792,-0.000000, 0.000000,-0.000000,1,0
1777416742987628904,1557704000000,  1582.159, 0.000047, 0.000013,-0.009957,-0.000015, 0.000033, 0.000187,-0.524305,-0.050960, 0.022096,1,-0.001202, 0.003837, 0.018948,1, 0.004656, 0.001117,-0.995922,-0.001328, 0.003225, 0.018542, 0.021645,-0.113890,-0.149897,-0.000000, 0.000000,-0.000000,1,0
1777416742997720073,1557704000000,  1582.159, 0.000047, 0.000013,-0.009957,-0.000015, 0.000033, 0.000187,-0.524305,-0.050960, 0.022096,1,-0.001202, 0.003837, 0.018948,1, 0.004656, 0.001117,-0.995922,-0.001328, 0.003225, 0.018542, 0.021645,-0.113890,-0.149897,-0.000000, 0.000000,-0.000000,1,0
1777416743007370244,1582174000000,  1582.179, 0.000057, 0.000025,-0.009959,-0.000011, 0.000040, 0.000175,-0.521201,-0.026400, 0.022379,1,-0.001121, 0.003945, 0.018014,1, 0.005846, 0.000960,-0.995969,-0.001121, 0.003945, 0.018014, 0.021000,-0.113245,-0.149619,-0.000000, 0.000000,-0.000000,1,0
1777416743017455747,1582174000000,  1582.179, 0.000057, 0.000025,-0.009959,-0.000011, 0.000040, 0.000175,-0.521201,-0.026400, 0.022379,1,-0.001121, 0.003945, 0.018014,1, 0.005846, 0.000960,-0.995969,-0.001121, 0.003945, 0.018014, 0.021000,-0.113245,-0.149619,-0.000000, 0.000000,-0.000000,1,0
1777416743027067586,1582194000000,  1582.199, 0.000048, 0.000036,-0.009954,-0.000015, 0.000031, 0.000184,-0.528272,-0.007802, 0.025471,1,-0.001338, 0.003271, 0.018241,1, 0.005195, 0.002859,-0.995650,-0.001339, 0.003271, 0.018241, 0.021252,-0.112710,-0.149521,-0.000000, 0.000000,-0.000000,1,0
1777416743037153255,1582194000000,  1582.199, 0.000048, 0.000036,-0.009954,-0.000015, 0.000031, 0.000184,-0.528272,-0.007802, 0.025471,1,-0.001338, 0.003271, 0.018241,1, 0.005195, 0.002859,-0.995650,-0.001339, 0.003271, 0.018241, 0.021252,-0.112710,-0.149521,-0.000000, 0.000000,-0.000000,1,0
1777416743056886318,1582214000000,  1582.219, 0.000031, 0.000011,-0.009955,-0.000009, 0.000036, 0.000198,-0.542092,-0.016094, 0.024431,1,-0.001117, 0.003430, 0.019093,1, 0.003853, 0.002016,-0.995752,-0.001117, 0.003430, 0.019093, 0.020276,-0.112789,-0.150924,-0.000000, 0.000000,-0.000000,1,0
1777416743066629595,1582234000000,  1582.239, 0.000034,-0.000001,-0.009955,-0.000013, 0.000037, 0.000190,-0.547796,-0.029763, 0.024504,1,-0.001437, 0.003399, 0.019187,1, 0.003338, 0.000628,-0.995741,-0.001438, 0.003399, 0.019187, 0.019987,-0.112860,-0.151652,-0.000000, 0.000000,-0.000000,1,0
1777416743076714654,1582234000000,  1582.239, 0.000034,-0.000001,-0.009955,-0.000013, 0.000037, 0.000190,-0.547796,-0.029763, 0.024504,1,-0.001437, 0.003399, 0.019187,1, 0.003338, 0.000628,-0.995741,-0.001438, 0.003399, 0.019187, 0.019987,-0.112860,-0.151652,-0.000000, 0.000000,-0.000000,1,0
1777416743086303900,1582254000000,  1582.259, 0.000036,-0.000001,-0.009960,-0.000010, 0.000028, 0.000193,-0.546862,-0.035504, 0.022688,1,-0.001324, 0.003195, 0.019121,1, 0.003502, 0.000049,-0.995922,-0.001324, 0.003195, 0.019121, 0.020490,-0.113107,-0.151106,-0.000000, 0.000000,-0.000000,1,0
1777416743096389274,1582254000000,  1582.259, 0.000036,-0.000001,-0.009960,-0.000010, 0.000028, 0.000193,-0.546862,-0.035504, 0.022688,1,-0.001324, 0.003195, 0.019121,1, 0.003502, 0.000049,-0.995922,-0.001324, 0.003195, 0.019121, 0.020490,-0.113107,-0.151106,-0.000000, 0.000000,-0.000000,1,0
1777416743111947000,1582274000000,  1582.279, 0.000048, 0.000019,-0.009960,-0.000013, 0.000025, 0.000186,-0.540696,-0.024879, 0.021938,1,-0.001455, 0.002967, 0.018909,1, 0.004199, 0.001139,-0.995994,-0.001455, 0.002967, 0.018909, 0.021340,-0.113074,-0.149444,-0.000000, 0.000000,-0.000000,1,0
1777416743121655798,1582294000000,  1582.299, 0.000057, 0.000022,-0.009952,-0.000016, 0.000038, 0.000195,-0.525815,-0.017038, 0.026213,1,-0.001619, 0.003375, 0.019162,1, 0.005079, 0.001917,-0.995596,-0.001619, 0.003375, 0.019162, 0.020744,-0.113176,-0.149436,-0.000000, 0.000000,-0.000000,1,0
1777416743131742375,1582294000000,  1582.299, 0.000057, 0.000022,-0.009952,-0.000016, 0.000038, 0.000195,-0.525815,-0.017038, 0.026213,1,-0.001619, 0.003375, 0.019162,1, 0.005079, 0.001917,-0.995596,-0.001619, 0.003375, 0.019162, 0.020744,-0.113176,-0.149436,-0.000000, 0.000000,-0.000000,1,0
1777416743141376231,1582314000000,  1582.314, 0.000048,-0.000002,-0.009959,-0.000009, 0.000028, 0.000197,-0.519993,-0.029245, 0.023691,1,-0.001128, 0.002863, 0.019477,1, 0.005217, 0.000651,-0.995880,-0.001128, 0.002863, 0.019477, 0.020834,-0.112714,-0.150807,-0.000000, 0.000000,-0.000000,1,0
1777416743151461716,1582314000000,  1582.314, 0.000048,-0.000002,-0.009959,-0.000009, 0.000028, 0.000197,-0.519993,-0.029245, 0.023691,1,-0.001128, 0.002863, 0.019477,1, 0.005217, 0.000651,-0.995880,-0.001128, 0.002863, 0.019477, 0.020834,-0.112714,-0.150807,-0.000000, 0.000000,-0.000000,1,0
1777416743161082998,1582334000000,  1582.334, 0.000031,-0.000016,-0.009956,-0.000005, 0.000035, 0.000189,-0.530373,-0.044015, 0.025191,1,-0.000963, 0.002935, 0.019066,1, 0.004060,-0.000863,-0.995733,-0.000963, 0.002935, 0.019066, 0.020139,-0.113089,-0.150704,-0.000000, 0.000000,-0.000000,1,0
1777416743171166816,1582334000000,  1582.334, 0.000031,-0.000016,-0.009956,-0.000005, 0.000035, 0.000189,-0.530373,-0.044015, 0.025191,1,-0.000963, 0.002935, 0.019066,1, 0.004060,-0.000863,-0.995733,-0.000963, 0.002935, 0.019066, 0.020139,-0.113089,-0.150704,-0.000000, 0.000000,-0.000000,1,0
1777416743190569115,1582354000000,  1582.354, 0.000035, 0.000005,-0.009949,-0.000017, 0.000040, 0.000180,-0.532753,-0.044098, 0.022532,1,-0.001335, 0.003080, 0.018879,1, 0.003671,-0.000191,-0.995524,-0.001527, 0.003449, 0.018500, 0.020394,-0.113391,-0.150970,-0.000000, 0.000000,-0.000000,1,0
1777416743200255728,1582374000000,  1582.374, 0.000036, 0.000030,-0.009953,-0.000009, 0.000026, 0.000191,-0.533870,-0.026108, 0.025675,1,-0.001452, 0.003442, 0.018289,1, 0.003720, 0.001868,-0.995554,-0.001186, 0.003019, 0.018662, 0.021434,-0.113316,-0.150544,-0.000000, 0.000000,-0.000000,1,0
1777416743210339472,1582374000000,  1582.374, 0.000036, 0.000030,-0.009953,-0.000009, 0.000026, 0.000191,-0.533870,-0.026108, 0.025675,1,-0.001452, 0.003442, 0.018289,1, 0.003720, 0.001868,-0.995554,-0.001186, 0.003019, 0.018662, 0.021434,-0.113316,-0.150544,-0.000000, 0.000000,-0.000000,1,0
1777416743220017697,1582394000000,  1582.394, 0.000044, 0.000014,-0.009957,-0.000005, 0.000032, 0.000198,-0.533390,-0.012176, 0.027926,1,-0.001171, 0.002927, 0.018739,1, 0.004126, 0.001905,-0.995602,-0.000834, 0.003032, 0.019219, 0.021840,-0.113121,-0.150149,-0.000000, 0.000000,-0.000000,1,0
1777416743230101459,1582394000000,  1582.394, 0.000044, 0.000014,-0.009957,-0.000005, 0.000032, 0.000198,-0.533390,-0.012176, 0.027926,1,-0.001171, 0.002927, 0.018739,1, 0.004126, 0.001905,-0.995602,-0.000834, 0.003032, 0.019219, 0.021840,-0.113121,-0.150149,-0.000000, 0.000000,-0.000000,1,0
1777416743249781172,1582414000000,  1582.414, 0.000044,-0.000012,-0.009960,-0.000015, 0.000027, 0.000192,-0.530663,-0.024105, 0.023657,1,-0.000954, 0.003028, 0.019024,1, 0.004340, 0.000106,-0.995898,-0.001181, 0.002905, 0.019094, 0.020603,-0.112712,-0.151106,-0.000000, 0.000000,-0.000000,1,0
1777416743259477081,1582434000000,  1582.434, 0.000048,-0.000013,-0.009958,-0.000019, 0.000031, 0.000188,-0.525932,-0.043219, 0.025075,1,-0.000912, 0.003014, 0.018849,1, 0.004748,-0.000992,-0.995756,-0.001401, 0.003034, 0.018831, 0.019992,-0.112729,-0.151049,-0.000000, 0.000000,-0.000000,1,0
1777416743269560936,1582434000000,  1582.434, 0.000048,-0.000013,-0.009958,-0.000019, 0.000031, 0.000188,-0.525932,-0.043219, 0.025075,1,-0.000912, 0.003014, 0.018849,1, 0.004748,-0.000992,-0.995756,-0.001401, 0.003034, 0.018831, 0.019992,-0.112729,-0.151049,-0.000000, 0.000000,-0.000000,1,0
1777416743279221661,1582454000000,  1582.454, 0.000046, 0.000004,-0.009959,-0.000017, 0.000040, 0.000182,-0.526264,-0.045909, 0.024669,1,-0.001574, 0.003334, 0.018742,1, 0.004689,-0.000374,-0.995830,-0.001624, 0.003672, 0.018449, 0.020417,-0.113146,-0.150411,-0.000000, 0.000000,-0.000000,1,0
1777416743289306072,1582454000000,  1582.454, 0.000046, 0.000004,-0.009959,-0.000017, 0.000040, 0.000182,-0.526264,-0.045909, 0.024669,1,-0.001574, 0.003334, 0.018742,1, 0.004689,-0.000374,-0.995830,-0.001624, 0.003672, 0.018449, 0.020417,-0.113146,-0.150411,-0.000000, 0.000000,-0.000000,1,0
1777416743309031357,1582474000000,  1582.474, 0.000043, 0.000025,-0.009949,-0.000014, 0.000038, 0.000183,-0.527263,-0.030684, 0.024624,1,-0.001619, 0.003621, 0.018166,1, 0.004532, 0.001470,-0.995411,-0.001561, 0.003630, 0.018262, 0.020918,-0.113436,-0.149849,-0.000000, 0.000000,-0.000000,1,0
1777416743328284718,1582484000000,  1582.489, 0.000046, 0.000031,-0.009963,-0.000006, 0.000034, 0.000181,-0.528674,-0.013988, 0.024429,1,-0.001124, 0.003486, 0.018231,1, 0.004577, 0.002223,-0.995790,-0.001124, 0.003487, 0.018231, 0.020122,-0.113178,-0.151662,-0.000000, 0.000000,-0.000000,1,0
1777416743348024465,1582504000000,  1582.509, 0.000033, 0.000013,-0.009957,-0.000007, 0.000036, 0.000189,-0.526416,-0.016225, 0.025730,1,-0.000979, 0.003529, 0.018663,1, 0.003894, 0.001967,-0.995711,-0.000979, 0.003529, 0.018663, 0.020718,-0.113394,-0.151927,-0.000000, 0.000000,-0.000000,1,0
1777416743367793285,1582524000000,  1582.529, 0.000032,-0.000009,-0.009950,-0.000007, 0.000030, 0.000193,-0.527427,-0.034752, 0.028154,1,-0.000717, 0.003354, 0.018974,1, 0.003574, 0.000067,-0.995476,-0.000717, 0.003355, 0.018974, 0.021441,-0.113065,-0.149904,-0.000000, 0.000000,-0.000000,1,0
1777416743377481361,1582544000000,  1582.549, 0.000037,-0.000014,-0.009951,-0.000016, 0.000029, 0.000182,-0.526162,-0.043604, 0.026767,1,-0.001073, 0.003012, 0.018586,1, 0.003682,-0.000845,-0.995619,-0.001073, 0.003013, 0.018586, 0.021108,-0.112910,-0.149830,-0.000000, 0.000000,-0.000000,1,0
1777416743387565160,1582544000000,  1582.549, 0.000037,-0.000014,-0.009951,-0.000016, 0.000029, 0.000182,-0.526162,-0.043604, 0.026767,1,-0.001073, 0.003012, 0.018586,1, 0.003682,-0.000845,-0.995619,-0.001073, 0.003013, 0.018586, 0.021108,-0.112910,-0.149830,-0.000000, 0.000000,-0.000000,1,0
1777416743397179277,1582564000000,  1582.569, 0.000049,-0.000007,-0.009966,-0.000017, 0.000028, 0.000173,-0.520501,-0.043837, 0.022466,1,-0.001563, 0.003044, 0.017892,1, 0.004295,-0.000862,-0.996055,-0.001563, 0.003044, 0.017892, 0.020781,-0.112871,-0.150543,-0.000000, 0.000000,-0.000000,1,0
1777416743407272168,1582564000000,  1582.569, 0.000049,-0.000007,-0.009966,-0.000017, 0.000028, 0.000173,-0.520501,-0.043837, 0.022466,1,-0.001563, 0.003044, 0.017892,1, 0.004295,-0.000862,-0.996055,-0.001563, 0.003044, 0.017892, 0.020781,-0.112871,-0.150543,-0.000000, 0.000000,-0.000000,1,0
1777416743427001583,1582584000000,  1582.589, 0.000055, 0.000039,-0.009961,-0.000014, 0.000030, 0.000179,-0.512592,-0.017270, 0.024474,1,-0.001620, 0.003118, 0.018005,1, 0.005159, 0.001860,-0.995847,-0.001620, 0.003118, 0.018005, 0.020105,-0.112641,-0.151653,-0.000000, 0.000000,-0.000000,1,0
1777416743446733404,1582604000000,  1582.609, 0.000048, 0.000028,-0.009964,-0.000011, 0.000034, 0.000191,-0.513701,-0.008092, 0.022565,1,-0.001183, 0.003298, 0.018796,1, 0.005109, 0.002801,-0.996038,-0.001184, 0.003299, 0.018796, 0.020751,-0.112964,-0.151482,-0.000000, 0.000000,-0.000000,1,0
1777416743456409814,1582624000000,  1582.629, 0.000035,-0.000006,-0.009961,-0.000014, 0.000029, 0.000192,-0.524643,-0.029617, 0.023467,1,-0.001239, 0.002917, 0.018988,1, 0.004053, 0.000608,-0.995943,-0.001239, 0.002918, 0.018988, 0.021064,-0.113342,-0.150577,-0.000000, 0.000000,-0.000000,1,0
1777416743466493280,1582624000000,  1582.629, 0.000035,-0.000006,-0.009961,-0.000014, 0.000029, 0.000192,-0.524643,-0.029617, 0.023467,1,-0.001239, 0.002917, 0.018988,1, 0.004053, 0.000608,-0.995943,-0.001239, 0.002918, 0.018988, 0.021064,-0.113342,-0.150577,-0.000000, 0.000000,-0.000000,1,0
1777416743476167560,1582644000000,  1582.649, 0.000024,-0.000022,-0.009953,-0.000013, 0.000036, 0.000187,-0.535375,-0.047306, 0.026578,1,-0.001037, 0.003261, 0.018918,1, 0.003021,-0.001198,-0.995622,-0.001038, 0.003262, 0.018918, 0.021112,-0.113469,-0.149556,-0.000000, 0.000000,-0.000000,1,0
1777416743486251712,1582644000000,  1582.649, 0.000024,-0.000022,-0.009953,-0.000013, 0.000036, 0.000187,-0.535375,-0.047306, 0.026578,1,-0.001037, 0.003261, 0.018918,1, 0.003021,-0.001198,-0.995622,-0.001038, 0.003262, 0.018918, 0.021112,-0.113469,-0.149556,-0.000000, 0.000000,-0.000000,1,0
1777416743501805272,1582664000000,  1582.669, 0.000037,-0.000005,-0.009951,-0.000013, 0.000040, 0.000180,-0.531452,-0.043729, 0.029138,1,-0.001221, 0.003641, 0.018376,1, 0.003490,-0.000832,-0.995357,-0.001221, 0.003641, 0.018376, 0.020883,-0.112709,-0.150336,-0.000000, 0.000000,-0.000000,1,0
1777416743511483737,1582684000000,  1582.689, 0.000046, 0.000011,-0.009962,-0.000021, 0.000034, 0.000180,-0.525551,-0.032186, 0.023242,1,-0.001709, 0.003548, 0.018179,1, 0.004074, 0.000351,-0.995959,-0.001709, 0.003548, 0.018179, 0.020201,-0.113140,-0.150887,-0.000000, 0.000000,-0.000000,1,0
1777416743521588869,1582684000000,  1582.689, 0.000046, 0.000011,-0.009962,-0.000021, 0.000034, 0.000180,-0.525551,-0.032186, 0.023242,1,-0.001709, 0.003548, 0.018179,1, 0.004074, 0.000351,-0.995959,-0.001709, 0.003548, 0.018179, 0.020201,-0.113140,-0.150887,-0.000000, 0.000000,-0.000000,1,0
1777416743531234910,1582704000000,  1582.704, 0.000047, 0.000028,-0.009964,-0.000019, 0.000037, 0.000186,-0.512502,-0.015873, 0.021575,1,-0.001724, 0.003532, 0.018344,1, 0.004474, 0.002007,-0.996183,-0.001725, 0.003532, 0.018344, 0.020536,-0.113495,-0.150379,-0.000000, 0.000000,-0.000000,1,0
1777416743541319135,1582704000000,  1582.704, 0.000047, 0.000028,-0.009964,-0.000019, 0.000037, 0.000186,-0.512502,-0.015873, 0.021575,1,-0.001724, 0.003532, 0.018344,1, 0.004474, 0.002007,-0.996183,-0.001725, 0.003532, 0.018344, 0.020536,-0.113495,-0.150379,-0.000000, 0.000000,-0.000000,1,0
1777416743560747877,1582724000000,  1582.724, 0.000059, 0.000023,-0.009960,-0.000012, 0.000034, 0.000192,-0.504897,-0.012117, 0.021500,1,-0.001499, 0.003397, 0.018464,1, 0.005487, 0.002334,-0.996096,-0.001388, 0.003418, 0.018825, 0.021163,-0.113203,-0.149906,-0.000000, 0.000000,-0.000000,1,0
1777416743570364049,1582744000000,  1582.744, 0.000050,-0.000004,-0.009955,-0.000015, 0.000029, 0.000196,-0.498829,-0.018599, 0.022719,1,-0.001728, 0.003507, 0.019139,1, 0.005322, 0.000716,-0.995810,-0.001620, 0.003204, 0.019334, 0.021290,-0.112612,-0.149332,-0.000000, 0.000000,-0.000000,1,0
1777416743580449386,1582744000000,  1582.744, 0.000050,-0.000004,-0.009955,-0.000015, 0.000029, 0.000196,-0.498829,-0.018599, 0.022719,1,-0.001728, 0.003507, 0.019139,1, 0.005322, 0.000716,-0.995810,-0.001620, 0.003204, 0.019334, 0.021290,-0.112612,-0.149332,-0.000000, 0.000000,-0.000000,1,0
1777416743590128314,1582764000000,  1582.764, 0.000030,-0.000009,-0.009962,-0.000008, 0.000034, 0.000181,-0.509789,-0.037229, 0.025755,1,-0.001794, 0.003004, 0.019170,1, 0.003849,-0.000459,-0.995982,-0.001370, 0.003192, 0.018652, 0.020285,-0.112550,-0.150347,-0.000000, 0.000000,-0.000000,1,0
1777416743600211798,1582764000000,  1582.764, 0.000030,-0.000009,-0.009962,-0.000008, 0.000034, 0.000181,-0.509789,-0.037229, 0.025755,1,-0.001794, 0.003004, 0.019170,1, 0.003849,-0.000459,-0.995982,-0.001370, 0.003192, 0.018652, 0.020285,-0.112550,-0.150347,-0.000000, 0.000000,-0.000000,1,0
1777416743619941305,1582774000000,  1582.779, 0.000030, 0.000001,-0.009957,-0.000010, 0.000035, 0.000188,-0.520964,-0.037132, 0.025621,1,-0.001228, 0.003332, 0.018721,1, 0.003435,-0.000137,-0.995780,-0.001228, 0.003332, 0.018721, 0.021269,-0.113519,-0.149636,-0.000000, 0.000000,-0.000000,1,0
1777416743629556033,1582804000000,  1582.804, 0.000033, 0.000001,-0.009959,-0.000011, 0.000034, 0.000183,-0.521515,-0.025191, 0.025988,1,-0.001108, 0.003469, 0.018714,1, 0.003394, 0.000624,-0.995839,-0.001136, 0.003461, 0.018508, 0.020514,-0.113269,-0.150586,-0.000000, 0.000000,-0.000000,1,0
1777416743639659516,1582804000000,  1582.804, 0.000033, 0.000001,-0.009959,-0.000011, 0.000034, 0.000183,-0.521515,-0.025191, 0.025988,1,-0.001108, 0.003469, 0.018714,1, 0.003394, 0.000624,-0.995839,-0.001136, 0.003461, 0.018508, 0.020514,-0.113269,-0.150586,-0.000000, 0.000000,-0.000000,1,0
1777416743649309724,1582824000000,  1582.824, 0.000041,-0.000015,-0.009955,-0.000008, 0.000029, 0.000180,-0.520365,-0.035567, 0.023146,1,-0.001021, 0.003190, 0.018352,1, 0.003858,-0.000631,-0.995712,-0.000908, 0.003105, 0.018191, 0.021253,-0.113584,-0.149907,-0.000000, 0.000000,-0.000000,1,0
1777416743659393542,1582824000000,  1582.824, 0.000041,-0.000015,-0.009955,-0.000008, 0.000029, 0.000180,-0.520365,-0.035567, 0.023146,1,-0.001021, 0.003190, 0.018352,1, 0.003858,-0.000631,-0.995712,-0.000908, 0.003105, 0.018191, 0.021253,-0.113584,-0.149907,-0.000000, 0.000000,-0.000000,1,0
1777416743669061007,1582834000000,  1582.839, 0.000039,-0.000006,-0.009959,-0.000012, 0.000027, 0.000182,-0.518861,-0.041416, 0.024799,1,-0.001058, 0.002947, 0.018132,1, 0.003845,-0.000573,-0.995853,-0.001058, 0.002947, 0.018132, 0.020384,-0.113335,-0.151438,-0.000000, 0.000000,-0.000000,1,0
1777416743679145381,1582834000000,  1582.839, 0.000039,-0.000006,-0.009959,-0.000012, 0.000027, 0.000182,-0.518861,-0.041416, 0.024799,1,-0.001058, 0.002947, 0.018132,1, 0.003845,-0.000573,-0.995853,-0.001058, 0.002947, 0.018132, 0.020384,-0.113335,-0.151438,-0.000000, 0.000000,-0.000000,1,0
1777416743698878258,1582864000000,  1582.864, 0.000048, 0.000024,-0.009961,-0.000015, 0.000033, 0.000179,-0.514576,-0.033292, 0.025409,1,-0.001318, 0.003014, 0.017770,1, 0.004579, 0.001253,-0.995941,-0.001367, 0.003151, 0.017844, 0.021067,-0.112942,-0.150378,-0.000000, 0.000000,-0.000000,1,0
1777416743708561316,1582874000000,  1582.879, 0.000058, 0.000030,-0.009962,-0.000013, 0.000030, 0.000177,-0.507188,-0.015788, 0.022627,1,-0.001328, 0.003019, 0.017796,1, 0.005156, 0.002051,-0.996067,-0.001328, 0.003019, 0.017796, 0.020865,-0.113310,-0.149324,-0.000000, 0.000000,-0.000000,1,0
1777416743718644949,1582874000000,  1582.879, 0.000058, 0.000030,-0.009962,-0.000013, 0.000030, 0.000177,-0.507188,-0.015788, 0.022627,1,-0.001328, 0.003019, 0.017796,1, 0.005156, 0.002051,-0.996067,-0.001328, 0.003019, 0.017796, 0.020865,-0.113310,-0.149324,-0.000000, 0.000000,-0.000000,1,0
1777416743728262824,1582894000000,  1582.899, 0.000050, 0.000041,-0.009964,-0.000017, 0.000034, 0.000180,-0.502110,-0.002517, 0.024814,1,-0.001716, 0.003073, 0.018092,1, 0.004977, 0.003400,-0.995883,-0.001716, 0.003073, 0.018092, 0.020726,-0.113218,-0.149491,-0.000000, 0.000000,-0.000000,1,0
1777416743738347031,1582894000000,  1582.899, 0.000050, 0.000041,-0.009964,-0.000017, 0.000034, 0.000180,-0.502110,-0.002517, 0.024814,1,-0.001716, 0.003073, 0.018092,1, 0.004977, 0.003400,-0.995883,-0.001716, 0.003073, 0.018092, 0.020726,-0.113218,-0.149491,-0.000000, 0.000000,-0.000000,1,0
1777416743748015034,1582914000000,  1582.919, 0.000045, 0.000026,-0.009961,-0.000008, 0.000034, 0.000200,-0.499686,-0.006257, 0.026150,1,-0.001275, 0.003201, 0.019260,1, 0.004732, 0.003018,-0.995775,-0.001275, 0.003202, 0.019260, 0.020577,-0.112827,-0.150504,-0.000000, 0.000000,-0.000000,1,0
1777416743758099166,1582914000000,  1582.919, 0.000045, 0.000026,-0.009961,-0.000008, 0.000034, 0.000200,-0.499686,-0.006257, 0.026150,1,-0.001275, 0.003201, 0.019260,1, 0.004732, 0.003018,-0.995775,-0.001275, 0.003202, 0.019260, 0.020577,-0.112827,-0.150504,-0.000000, 0.000000,-0.000000,1,0
1777416743777833877,1582934000000,  1582.939, 0.000032, 0.000003,-0.009954,-0.000003, 0.000030, 0.000193,-0.505996,-0.022407, 0.026732,1,-0.000654, 0.003168, 0.019476,1, 0.003990, 0.001365,-0.995721,-0.000654, 0.003168, 0.019476, 0.017799,-0.113030,-0.153585,-0.000000, 0.000000,-0.000000,1,0
1777416743787507027,1582954000000,  1582.959, 0.000031,-0.000021,-0.009959,-0.000015, 0.000033, 0.000196,-0.511908,-0.043279, 0.024785,1,-0.001013, 0.003400, 0.019598,1, 0.003407,-0.000773,-0.995919,-0.001013, 0.003400, 0.019598, 0.019907,-0.113429,-0.152263,-0.000000, 0.000000,-0.000000,1,0
1777416743797609233,1582954000000,  1582.959, 0.000031,-0.000021,-0.009959,-0.000015, 0.000033, 0.000196,-0.511908,-0.043279, 0.024785,1,-0.001013, 0.003400, 0.019598,1, 0.003407,-0.000773,-0.995919,-0.001013, 0.003400, 0.019598, 0.019907,-0.113429,-0.152263,-0.000000, 0.000000,-0.000000,1,0
1777416743807328160,1582974000000,  1582.979, 0.000041,-0.000018,-0.009954,-0.000012, 0.000033, 0.000187,-0.508499,-0.051584, 0.028599,1,-0.001300, 0.003401, 0.019007,1, 0.003810,-0.001617,-0.995527,-0.001301, 0.003401, 0.019007, 0.021074,-0.113513,-0.150335,-0.000000, 0.000000,-0.000000,1,0
1777416743817421292,1582974000000,  1582.979, 0.000041,-0.000018,-0.009954,-0.000012, 0.000033, 0.000187,-0.508499,-0.051584, 0.028599,1,-0.001300, 0.003401, 0.019007,1, 0.003810,-0.001617,-0.995527,-0.001301, 0.003401, 0.019007, 0.021074,-0.113513,-0.150335,-0.000000, 0.000000,-0.000000,1,0
1777416743837015453,1582994000000,  1582.999, 0.000042, 0.000003,-0.009960,-0.000018, 0.000034, 0.000185,-0.507649,-0.041090, 0.025621,1,-0.001715, 0.003398, 0.018657,1, 0.003964,-0.000536,-0.995826,-0.001715, 0.003398, 0.018657, 0.021676,-0.112953,-0.149526,-0.000000, 0.000000,-0.000000,1,0
1777416743856833660,1583014000000,  1583.019, 0.000047, 0.000007,-0.009957,-0.000014, 0.000031, 0.000175,-0.504315,-0.031650, 0.025073,1,-0.001592, 0.003286, 0.018210,1, 0.004371, 0.000438,-0.995879,-0.001592, 0.003286, 0.018210, 0.020200,-0.112831,-0.150866,-0.000000, 0.000000,-0.000000,1,0
1777416743866468572,1583034000000,  1583.039, 0.000041, 0.000012,-0.009946,-0.000017, 0.000027, 0.000186,-0.504984,-0.027119, 0.029616,1,-0.001524, 0.002950, 0.018320,1, 0.004365, 0.000908,-0.995412,-0.001524, 0.002950, 0.018320, 0.019874,-0.113117,-0.151524,-0.000000, 0.000000,-0.000000,1,0
1777416743876554778,1583034000000,  1583.039, 0.000041, 0.000012,-0.009946,-0.000017, 0.000027, 0.000186,-0.504984,-0.027119, 0.029616,1,-0.001524, 0.002950, 0.018320,1, 0.004365, 0.000908,-0.995412,-0.001524, 0.002950, 0.018320, 0.019874,-0.113117,-0.151524,-0.000000, 0.000000,-0.000000,1,0
1777416743886212263,1583054000000,  1583.059, 0.000031, 0.000011,-0.009962,-0.000017, 0.000027, 0.000176,-0.514429,-0.025132, 0.023254,1,-0.001714, 0.002709, 0.017875,1, 0.003459, 0.001123,-0.996057,-0.001714, 0.002710, 0.017875, 0.020034,-0.112963,-0.150755,-0.000000, 0.000000,-0.000000,1,0
1777416743896298544,1583054000000,  1583.059, 0.000031, 0.000011,-0.009962,-0.000017, 0.000027, 0.000176,-0.514429,-0.025132, 0.023254,1,-0.001714, 0.002709, 0.017875,1, 0.003459, 0.001123,-0.996057,-0.001714, 0.002710, 0.017875, 0.020034,-0.112963,-0.150755,-0.000000, 0.000000,-0.000000,1,0
1777416743911785181,1583074000000,  1583.079, 0.000046, 0.000016,-0.009965,-0.000014, 0.000025, 0.000186,-0.508527,-0.022359, 0.022086,1,-0.001532, 0.002689, 0.018303,1, 0.004117, 0.001417,-0.996173,-0.001532, 0.002689, 0.018303, 0.021484,-0.113134,-0.150174,-0.000000, 0.000000,-0.000000,1,0
1777416743921519773,1583094000000,  1583.099, 0.000055, 0.000013,-0.009955,-0.000009, 0.000032, 0.000189,-0.493603,-0.022690, 0.027227,1,-0.001118, 0.003072, 0.018598,1, 0.004930, 0.001378,-0.995688,-0.001118, 0.003073, 0.018598, 0.021550,-0.113246,-0.150648,-0.000000, 0.000000,-0.000000,1,0
1777416743931604906,1583094000000,  1583.099, 0.000055, 0.000013,-0.009955,-0.000009, 0.000032, 0.000189,-0.493603,-0.022690, 0.027227,1,-0.001118, 0.003072, 0.018598,1, 0.004930, 0.001378,-0.995688,-0.001118, 0.003073, 0.018598, 0.021550,-0.113246,-0.150648,-0.000000, 0.000000,-0.000000,1,0
1777416743941215782,1583114000000,  1583.114, 0.000053,-0.000013,-0.009964,-0.000019, 0.000027, 0.000192,-0.486284,-0.038186, 0.025515,1,-0.001535, 0.002885, 0.018921,1, 0.005171,-0.000207,-0.995891,-0.001536, 0.002885, 0.018921, 0.020855,-0.112942,-0.151308,-0.000000, 0.000000,-0.000000,1,0
1777416743951276490,1583114000000,  1583.114, 0.000053,-0.000013,-0.009964,-0.000019, 0.000027, 0.000192,-0.486284,-0.038186, 0.025515,1,-0.001535, 0.002885, 0.018921,1, 0.005171,-0.000207,-0.995891,-0.001536, 0.002885, 0.018921, 0.020855,-0.112942,-0.151308,-0.000000, 0.000000,-0.000000,1,0
1777416743970857688,1583134000000,  1583.134, 0.000026,-0.000022,-0.009960,-0.000006, 0.000032, 0.000177,-0.490460,-0.045557, 0.028620,1,-0.001424, 0.002618, 0.018842,1, 0.003690,-0.001513,-0.995841,-0.001021, 0.002916, 0.018332, 0.020208,-0.112762,-0.151312,-0.000000, 0.000000,-0.000000,1,0
1777416743980400271,1583154000000,  1583.154, 0.000035, 0.000018,-0.009958,-0.000009, 0.000028, 0.000179,-0.503584,-0.044036, 0.022351,1,-0.001318, 0.002957, 0.017915,1, 0.003401, 0.000469,-0.996071,-0.001116, 0.002931, 0.017901, 0.020687,-0.113212,-0.150478,-0.000000, 0.000000,-0.000000,1,0
1777416743990484552,1583154000000,  1583.154, 0.000035, 0.000018,-0.009958,-0.000009, 0.000028, 0.000179,-0.503584,-0.044036, 0.022351,1,-0.001318, 0.002957, 0.017915,1, 0.003401, 0.000469,-0.996071,-0.001116, 0.002931, 0.017901, 0.020687,-0.113212,-0.150478,-0.000000, 0.000000,-0.000000,1,0
1777416744000169109,1583174000000,  1583.174, 0.000046, 0.000041,-0.009969,-0.000020, 0.000029, 0.000180,-0.499032,-0.016161, 0.024717,1,-0.001372, 0.003447, 0.017972,1, 0.004186, 0.002972,-0.996397,-0.001733, 0.003222, 0.017988, 0.021009,-0.113300,-0.149754,-0.000000, 0.000000,-0.000000,1,0
1777416744010253742,1583174000000,  1583.174, 0.000046, 0.000041,-0.009969,-0.000020, 0.000029, 0.000180,-0.499032,-0.016161, 0.024717,1,-0.001372, 0.003447, 0.017972,1, 0.004186, 0.002972,-0.996397,-0.001733, 0.003222, 0.017988, 0.021009,-0.113300,-0.149754,-0.000000, 0.000000,-0.000000,1,0
1777416744029919010,1583194000000,  1583.194, 0.000053, 0.000017,-0.009957,-0.000007, 0.000030, 0.000192,-0.492831,-0.005987, 0.025596,1,-0.001740, 0.002953, 0.018386,1, 0.004891, 0.002396,-0.995784,-0.001216, 0.002937, 0.018747, 0.021307,-0.112944,-0.149682,-0.000000, 0.000000,-0.000000,1,0
1777416744039592587,1583214000000,  1583.214, 0.000049,-0.000035,-0.009958,-0.000004, 0.000035, 0.000190,-0.487444,-0.028280, 0.025191,1,-0.000822, 0.003127, 0.018887,1, 0.005008,-0.001231,-0.995814,-0.000667, 0.003255, 0.018880, 0.020650,-0.112905,-0.151062,-0.000000, 0.000000,-0.000000,1,0
1777416744049676886,1583214000000,  1583.214, 0.000049,-0.000035,-0.009958,-0.000004, 0.000035, 0.000190,-0.487444,-0.028280, 0.025191,1,-0.000822, 0.003127, 0.018887,1, 0.005008,-0.001231,-0.995814,-0.000667, 0.003255, 0.018880, 0.020650,-0.112905,-0.151062,-0.000000, 0.000000,-0.000000,1,0
1777416744059356351,1583234000000,  1583.234, 0.000038,-0.000071,-0.009978,-0.000001, 0.000059, 0.000171,-0.491206,-0.067514, 0.026941,1,-0.000959, 0.003399, 0.018399,1, 0.004370,-0.005039,-0.996827,-0.000527, 0.004685, 0.017783, 0.019879,-0.113203,-0.151886,-0.000000, 0.000000,-0.000000,1,0
1777416744069440632,1583234000000,  1583.234, 0.000038,-0.000071,-0.009978,-0.000001, 0.000059, 0.000171,-0.491206,-0.067514, 0.026941,1,-0.000959, 0.003399, 0.018399,1, 0.004370,-0.005039,-0.996827,-0.000527, 0.004685, 0.017783, 0.019879,-0.113203,-0.151886,-0.000000, 0.000000,-0.000000,1,0
1777416744079107208,1583254000000,  1583.254, 0.000051,-0.000115,-0.009984,-0.000014, 0.000065, 0.000141,-0.481274,-0.103006, 0.029810,1,-0.001252, 0.003717, 0.016794,1, 0.006035,-0.008867,-0.997282,-0.001399, 0.004889, 0.015478, 0.020701,-0.113024,-0.150720,-0.000000, 0.000000,-0.000000,1,0
1777416744089192063,1583254000000,  1583.254, 0.000051,-0.000115,-0.009984,-0.000014, 0.000065, 0.000141,-0.481274,-0.103006, 0.029810,1,-0.001252, 0.003717, 0.016794,1, 0.006035,-0.008867,-0.997282,-0.001399, 0.004889, 0.015478, 0.020701,-0.113024,-0.150720,-0.000000, 0.000000,-0.000000,1,0
1777416744108866776,1583274000000,  1583.274, 0.000024,-0.000096,-0.010016,-0.000028, 0.000046, 0.000112,-0.491757,-0.132392, 0.040838,1,-0.001663, 0.004510, 0.014302,1, 0.003708,-0.009739,-0.997558,-0.002124, 0.004459, 0.012892, 0.021153,-0.113454,-0.150064,-0.000000, 0.000000,-0.000000,1,0
1777416744118592387,1583284000000,  1583.289,-0.000017,-0.000114,-0.009952,-0.000019, 0.000057, 0.000099,-0.525279,-0.141672, 0.017359,1,-0.001893, 0.005044, 0.011514,1, 0.001473,-0.010698,-0.996707,-0.001893, 0.005044, 0.011514, 0.020126,-0.113237,-0.150913,-0.000000, 0.000000,-0.000000,1,0
1777416744128689167,1583284000000,  1583.289,-0.000017,-0.000114,-0.009952,-0.000019, 0.000057, 0.000099,-0.525279,-0.141672, 0.017359,1,-0.001893, 0.005044, 0.011514,1, 0.001473,-0.010698,-0.996707,-0.001893, 0.005044, 0.011514, 0.020126,-0.113237,-0.150913,-0.000000, 0.000000,-0.000000,1,0
1777416744138309042,1583304000000,  1583.309, 0.000049,-0.000117,-0.009981,-0.000030, 0.000059, 0.000057,-0.502359,-0.156215, 0.021026,1,-0.002782, 0.006150, 0.007797,1, 0.002846,-0.012091,-0.996385,-0.002783, 0.006151, 0.007797, 0.020960,-0.113429,-0.151057,-0.000000, 0.000000,-0.000000,1,0
1777416744148393767,1583304000000,  1583.309, 0.000049,-0.000117,-0.009981,-0.000030, 0.000059, 0.000057,-0.502359,-0.156215, 0.021026,1,-0.002782, 0.006150, 0.007797,1, 0.002846,-0.012091,-0.996385,-0.002783, 0.006151, 0.007797, 0.020960,-0.113429,-0.151057,-0.000000, 0.000000,-0.000000,1,0
1777416744158056881,1583324000000,  1583.329, 0.000093, 0.000080,-0.009990,-0.000030, 0.000069, 0.000038,-0.469777,-0.039672, 0.019556,1,-0.003058, 0.006637, 0.005028,1, 0.005975,-0.000136,-0.996546,-0.003059, 0.006637, 0.005028, 0.021469,-0.113419,-0.150385,-0.000000, 0.000000,-0.000000,1,0
1777416744168141051,1583324000000,  1583.329, 0.000093, 0.000080,-0.009990,-0.000030, 0.000069, 0.000038,-0.469777,-0.039672, 0.019556,1,-0.003058, 0.006637, 0.005028,1, 0.005975,-0.000136,-0.996546,-0.003059, 0.006637, 0.005028, 0.021469,-0.113419,-0.150385,-0.000000, 0.000000,-0.000000,1,0
1777416744187875520,1583344000000,  1583.349, 0.000143, 0.000232,-0.010034,-0.000028, 0.000084, 0.000084,-0.413113, 0.111311,-0.002760,1,-0.002816, 0.007329, 0.006916,1, 0.011792, 0.015322,-0.998819,-0.002816, 0.007329, 0.006916, 0.021897,-0.113059,-0.149747,-0.000000, 0.000000,-0.000000,1,0
1777416744197566744,1583364000000,  1583.369, 0.000145, 0.000170,-0.009948,-0.000022, 0.000061, 0.000138,-0.403911, 0.128001, 0.032714,1,-0.001900, 0.006362, 0.011314,1, 0.012841, 0.017059,-0.995195,-0.001901, 0.006362, 0.011314, 0.020471,-0.112720,-0.150706,-0.000000, 0.000000,-0.000000,1,0
1777416744207651191,1583364000000,  1583.369, 0.000145, 0.000170,-0.009948,-0.000022, 0.000061, 0.000138,-0.403911, 0.128001, 0.032714,1,-0.001900, 0.006362, 0.011314,1, 0.012841, 0.017059,-0.995195,-0.001901, 0.006362, 0.011314, 0.020471,-0.112720,-0.150706,-0.000000, 0.000000,-0.000000,1,0
1777416744217242457,1583384000000,  1583.389, 0.000003, 0.000092,-0.010029,-0.000002, 0.000056, 0.000170,-0.472567, 0.084041,-0.002466,1,-0.000769, 0.005673, 0.014945,1, 0.005950, 0.012585,-0.998777,-0.000770, 0.005673, 0.014945, 0.020239,-0.112764,-0.150907,-0.000000, 0.000000,-0.000000,1,0
1777416744227326867,1583384000000,  1583.389, 0.000003, 0.000092,-0.010029,-0.000002, 0.000056, 0.000170,-0.472567, 0.084041,-0.002466,1,-0.000769, 0.005673, 0.014945,1, 0.005950, 0.012585,-0.998777,-0.000770, 0.005673, 0.014945, 0.020239,-0.112764,-0.150907,-0.000000, 0.000000,-0.000000,1,0
1777416744237004610,1583404000000,  1583.409, 0.000034, 0.000148,-0.009994,-0.000017, 0.000047, 0.000195,-0.500481, 0.087059, 0.012024,1,-0.001110, 0.004712, 0.018096,1, 0.003196, 0.012893,-0.997294,-0.001111, 0.004712, 0.018096, 0.020823,-0.113234,-0.150296,-0.000000, 0.000000,-0.000000,1,0
1777416744247087520,1583404000000,  1583.409, 0.000034, 0.000148,-0.009994,-0.000017, 0.000047, 0.000195,-0.500481, 0.087059, 0.012024,1,-0.001110, 0.004712, 0.018096,1, 0.003196, 0.012893,-0.997294,-0.001111, 0.004712, 0.018096, 0.020823,-0.113234,-0.150296,-0.000000, 0.000000,-0.000000,1,0
1777416744266817193,1583424000000,  1583.429, 0.000125, 0.000373,-0.010036,-0.000001, 0.000078, 0.000276,-0.457705, 0.233062,-0.009279,1,-0.000605, 0.005990, 0.023770,1, 0.007659, 0.027770,-0.999461,-0.000605, 0.005991, 0.023770, 0.021248,-0.113897,-0.150122,-0.000000, 0.000000,-0.000000,1,0
1777416744276493325,1583444000000,  1583.449, 0.000147,-0.000444,-0.009912, 0.000006, 0.000113, 0.000296,-0.413305,-0.159757, 0.034870,1, 0.000583, 0.009864, 0.028398,1, 0.012350,-0.012328,-0.994950, 0.000582, 0.009864, 0.028398, 0.021402,-0.113366,-0.150513,-0.000000, 0.000000,-0.000000,1,0
1777416744286593679,1583444000000,  1583.449, 0.000147,-0.000444,-0.009912, 0.000006, 0.000113, 0.000296,-0.413305,-0.159757, 0.034870,1, 0.000583, 0.009864, 0.028398,1, 0.012350,-0.012328,-0.994950, 0.000582, 0.009864, 0.028398, 0.021402,-0.113366,-0.150513,-0.000000, 0.000000,-0.000000,1,0
1777416744296251516,1583464000000,  1583.469, 0.000136,-0.000252,-0.009917,-0.000001, 0.000036, 0.000129,-0.397607,-0.310126, 0.063800,1,-0.000105, 0.005134, 0.018821,1, 0.014093,-0.027687,-0.991993,-0.000105, 0.005134, 0.018821, 0.020271,-0.113167,-0.151337,-0.000000, 0.000000,-0.000000,1,0
1777416744306334296,1583464000000,  1583.469, 0.000136,-0.000252,-0.009917,-0.000001, 0.000036, 0.000129,-0.397607,-0.310126, 0.063800,1,-0.000105, 0.005134, 0.018821,1, 0.014093,-0.027687,-0.991993,-0.000105, 0.005134, 0.018821, 0.020271,-0.113167,-0.151337,-0.000000, 0.000000,-0.000000,1,0
1777416744321559537,1583484000000,  1583.484, 0.000062, 0.000020,-0.009967,-0.000039,-0.000009, 0.000171,-0.439028,-0.094296, 0.019652,1,-0.002569, 0.001758, 0.016591,1, 0.009846,-0.005678,-0.996496,-0.002569, 0.001758, 0.016591, 0.019915,-0.113411,-0.151789,-0.000000, 0.000000,-0.000000,1,0
1777416744331079824,1583504000000,  1583.504, 0.000060,-0.000242,-0.009904,-0.000035, 0.000038, 0.000094,-0.455602,-0.225155, 0.040504,1,-0.002885, 0.004593, 0.012689,1, 0.007063,-0.018998,-0.994428,-0.002885, 0.004593, 0.012689, 0.019944,-0.113695,-0.150743,-0.000000, 0.000000,-0.000000,1,0
1777416744341164364,1583504000000,  1583.504, 0.000060,-0.000242,-0.009904,-0.000035, 0.000038, 0.000094,-0.455602,-0.225155, 0.040504,1,-0.002885, 0.004593, 0.012689,1, 0.007063,-0.018998,-0.994428,-0.002885, 0.004593, 0.012689, 0.019944,-0.113695,-0.150743,-0.000000, 0.000000,-0.000000,1,0
1777416744360565051,1583524000000,  1583.524, 0.000019, 0.000217,-0.009992,-0.000037, 0.000047, 0.000083,-0.489224,-0.100264, 0.035573,1,-0.003441, 0.003259, 0.009376,1, 0.002671, 0.006507,-0.997504,-0.003576, 0.003786, 0.008957, 0.021027,-0.113740,-0.150146,-0.000000, 0.000000,-0.000000,1,0
1777416744370258220,1583544000000,  1583.544, 0.000019, 0.000045,-0.009991,-0.000011, 0.000044, 0.000126,-0.522793,-0.017957, 0.038687,1,-0.003343, 0.003741, 0.010397,1, 0.000558, 0.002042,-0.997580,-0.002210, 0.003964, 0.011545, 0.021321,-0.113117,-0.150074,-0.000000, 0.000000,-0.000000,1,0
1777416744380341889,1583544000000,  1583.544, 0.000019, 0.000045,-0.009991,-0.000011, 0.000044, 0.000126,-0.522793,-0.017957, 0.038687,1,-0.003343, 0.003741, 0.010397,1, 0.000558, 0.002042,-0.997580,-0.002210, 0.003964, 0.011545, 0.021321,-0.113117,-0.150074,-0.000000, 0.000000,-0.000000,1,0
1777416744390017799,1583564000000,  1583.564,-0.000023, 0.000309,-0.010084,-0.000028, 0.000048, 0.000137,-0.523847, 0.045612, 0.071348,1,-0.002020, 0.003174, 0.011322,1,-0.000795, 0.019108,-1.000820,-0.002403, 0.003964, 0.012530, 0.020639,-0.113031,-0.151420,-0.000000, 0.000000,-0.000000,1,0
1777416744400101376,1583564000000,  1583.564,-0.000023, 0.000309,-0.010084,-0.000028, 0.000048, 0.000137,-0.523847, 0.045612, 0.071348,1,-0.002020, 0.003174, 0.011322,1,-0.000795, 0.019108,-1.000820,-0.002403, 0.003964, 0.012530, 0.020639,-0.113031,-0.151420,-0.000000, 0.000000,-0.000000,1,0
1777416744419840493,1583584000000,  1583.584,-0.000004, 0.000046,-0.010195,-0.000016, 0.000055, 0.000206,-0.547867, 0.155813, 0.093737,1,-0.001592, 0.002250, 0.015531,1,-0.001275, 0.012584,-1.002828,-0.001434, 0.003510, 0.017885, 0.020636,-0.112859,-0.152115,-0.000000, 0.000000,-0.000000,1,0
1777416744429461850,1583604000000,  1583.604,-0.000070, 0.000192,-0.010167,-0.000011, 0.000023, 0.000226,-0.551450, 0.061592, 0.099411,1,-0.001089, 0.003540, 0.019362,1,-0.004877, 0.014480,-0.999769,-0.000838, 0.002751, 0.020991, 0.020479,-0.113250,-0.151585,-0.000000, 0.000000,-0.000000,1,0
1777416744439545427,1583604000000,  1583.604,-0.000070, 0.000192,-0.010167,-0.000011, 0.000023, 0.000226,-0.551450, 0.061592, 0.099411,1,-0.001089, 0.003540, 0.019362,1,-0.004877, 0.014480,-0.999769,-0.000838, 0.002751, 0.020991, 0.020479,-0.113250,-0.151585,-0.000000, 0.000000,-0.000000,1,0
1777416744449214337,1583624000000,  1583.624,-0.000063, 0.000005,-0.010029,-0.000002, 0.000016, 0.000265,-0.572865, 0.097778, 0.049316,1,-0.001028, 0.003529, 0.023153,1,-0.005410, 0.007376,-0.996349,-0.000607, 0.002708, 0.024684, 0.021974,-0.113890,-0.150694,-0.000000, 0.000000,-0.000000,1,0
1777416744459299562,1583624000000,  1583.624,-0.000063, 0.000005,-0.010029,-0.000002, 0.000016, 0.000265,-0.572865, 0.097778, 0.049316,1,-0.001028, 0.003529, 0.023153,1,-0.005410, 0.007376,-0.996349,-0.000607, 0.002708, 0.024684, 0.021974,-0.113890,-0.150694,-0.000000, 0.000000,-0.000000,1,0
1777416744479033901,1583644000000,  1583.644, 0.000185,-0.000254,-0.010241,-0.000020, 0.000038, 0.000219,-0.623043,-0.026319, 0.053541,1, 0.000721, 0.005083, 0.024952,1, 0.002791,-0.011058,-1.003874,-0.000156, 0.003296, 0.023491, 0.021954,-0.113540,-0.149978,-0.000000, 0.000000,-0.000000,1,0
1777416744498841738,1583664000000,  1583.664, 0.000039, 0.000064,-0.010094,-0.000044,-0.000099, 0.000140,-0.452287,-0.271479, 0.026052,1,-0.002463, 0.007575, 0.020541,1, 0.006093,-0.010901,-1.000143,-0.002395, 0.000397, 0.017782, 0.020628,-0.113211,-0.151351,-0.000000, 0.000000,-0.000000,1,0
1777416744508393782,1583674000000,  1583.679, 0.000342,-0.000215,-0.009841,-0.000023, 0.000212, 0.000179,-0.341828,-0.204148, 0.047302,1,-0.001836, 0.009338, 0.017777,1, 0.018830,-0.016666,-0.993726,-0.001836, 0.009338, 0.017777, 0.021107,-0.113895,-0.150730,-0.000000, 0.000000,-0.000000,1,0
1777416744518477063,1583674000000,  1583.679, 0.000342,-0.000215,-0.009841,-0.000023, 0.000212, 0.000179,-0.341828,-0.204148, 0.047302,1,-0.001836, 0.009338, 0.017777,1, 0.018830,-0.016666,-0.993726,-0.001836, 0.009338, 0.017777, 0.021107,-0.113895,-0.150730,-0.000000, 0.000000,-0.000000,1,0
1777416744528153825,1583694000000,  1583.699, 0.000116, 0.000269,-0.010179,-0.000009,-0.000049, 0.000153,-0.332852,-0.003157,-0.018106,1, 0.000243, 0.004208, 0.015380,1, 0.019141, 0.003846,-1.000427, 0.000243, 0.004208, 0.015380, 0.021304,-0.113372,-0.151010,-0.000000, 0.000000,-0.000000,1,0
1777416744538236754,1583694000000,  1583.699, 0.000116, 0.000269,-0.010179,-0.000009,-0.000049, 0.000153,-0.332852,-0.003157,-0.018106,1, 0.000243, 0.004208, 0.015380,1, 0.019141, 0.003846,-1.000427, 0.000243, 0.004208, 0.015380, 0.021304,-0.113372,-0.151010,-0.000000, 0.000000,-0.000000,1,0
1777416744557975630,1583714000000,  1583.719,-0.000029, 0.000092,-0.010290,-0.000094,-0.000162, 0.000149,-0.469949, 0.030256,-0.056371,1,-0.005509,-0.008127, 0.015538,1, 0.004541, 0.007310,-1.004362,-0.005510,-0.008127, 0.015538, 0.020705,-0.113131,-0.151368,-0.000000, 0.000000,-0.000000,1,0
1777416744567651614,1583734000000,  1583.739,-0.000139, 0.000125,-0.010109,-0.000004,-0.000030, 0.000169,-0.614172, 0.041035, 0.004734,1,-0.001816,-0.004203, 0.016634,1,-0.010469, 0.008466,-0.998147,-0.001816,-0.004203, 0.016634, 0.019969,-0.113403,-0.151127,-0.000000, 0.000000,-0.000000,1,0
1777416744577734876,1583734000000,  1583.739,-0.000139, 0.000125,-0.010109,-0.000004,-0.000030, 0.000169,-0.614172, 0.041035, 0.004734,1,-0.001816,-0.004203, 0.016634,1,-0.010469, 0.008466,-0.998147,-0.001816,-0.004203, 0.016634, 0.019969,-0.113403,-0.151127,-0.000000, 0.000000,-0.000000,1,0
1777416744587399619,1583754000000,  1583.759,-0.000202,-0.000081,-0.009747,-0.000006, 0.000065, 0.000212,-0.673228,-0.031128, 0.071338,1,-0.001604, 0.000071, 0.020051,1,-0.016609, 0.001127,-0.991361,-0.001605, 0.000071, 0.020051, 0.020069,-0.113643,-0.150779,-0.000000, 0.000000,-0.000000,1,0
1777416744597500511,1583754000000,  1583.759,-0.000202,-0.000081,-0.009747,-0.000006, 0.000065, 0.000212,-0.673228,-0.031128, 0.071338,1,-0.001604, 0.000071, 0.020051,1,-0.016609, 0.001127,-0.991361,-0.001605, 0.000071, 0.020051, 0.020069,-0.113643,-0.150779,-0.000000, 0.000000,-0.000000,1,0
1777416744607104220,1583774000000,  1583.779, 0.000048,-0.000070,-0.010035,-0.000009, 0.000029, 0.000152,-0.526360,-0.120728,-0.021800,1,-0.000721, 0.003463, 0.016926,1,-0.001590,-0.008014,-1.000856,-0.000722, 0.003463, 0.016926, 0.021171,-0.113423,-0.150358,-0.000000, 0.000000,-0.000000,1,0
1777416744617203259,1583774000000,  1583.779, 0.000048,-0.000070,-0.010035,-0.000009, 0.000029, 0.000152,-0.526360,-0.120728,-0.021800,1,-0.000721, 0.003463, 0.016926,1,-0.001590,-0.008014,-1.000856,-0.000722, 0.003463, 0.016926, 0.021171,-0.113423,-0.150358,-0.000000, 0.000000,-0.000000,1,0
1777416744636925636,1583794000000,  1583.799, 0.000168, 0.000129,-0.010034,-0.000006, 0.000069, 0.000171,-0.413005, 0.013747, 0.012838,1,-0.001011, 0.007181, 0.016402,1, 0.010096, 0.005700,-0.997318,-0.001011, 0.007182, 0.016402, 0.021502,-0.113625,-0.150317,-0.000000, 0.000000,-0.000000,1,0
1777416744646590343,1583814000000,  1583.819, 0.000234, 0.000019,-0.010001,-0.000028, 0.000026, 0.000175,-0.327740,-0.017945, 0.014695,1,-0.002032, 0.004918, 0.017437,1, 0.018923, 0.002481,-0.997121,-0.002033, 0.004918, 0.017437, 0.020951,-0.113323,-0.151771,-0.000000, 0.000000,-0.000000,1,0
1777416744656674346,1583814000000,  1583.819, 0.000234, 0.000019,-0.010001,-0.000028, 0.000026, 0.000175,-0.327740,-0.017945, 0.014695,1,-0.002032, 0.004918, 0.017437,1, 0.018923, 0.002481,-0.997121,-0.002033, 0.004918, 0.017437, 0.020951,-0.113323,-0.151771,-0.000000, 0.000000,-0.000000,1,0
1777416744666345626,1583834000000,  1583.839, 0.000151, 0.000240,-0.009965,-0.000008, 0.000043, 0.000205,-0.345737, 0.104297, 0.031304,1,-0.001226, 0.003987, 0.019176,1, 0.017172, 0.014960,-0.995423,-0.001226, 0.003988, 0.019176, 0.020492,-0.113550,-0.152103,-0.000000, 0.000000,-0.000000,1,0
1777416744676430388,1583834000000,  1583.839, 0.000151, 0.000240,-0.009965,-0.000008, 0.000043, 0.000205,-0.345737, 0.104297, 0.031304,1,-0.001226, 0.003987, 0.019176,1, 0.017172, 0.014960,-0.995423,-0.001226, 0.003988, 0.019176, 0.020492,-0.113550,-0.152103,-0.000000, 0.000000,-0.000000,1,0
1777416744686047782,1583854000000,  1583.859, 0.000035,-0.000005,-0.009964,-0.000006, 0.000013, 0.000254,-0.432282, 0.038288, 0.026345,1,-0.000615, 0.001776, 0.023492,1, 0.008397, 0.008222,-0.995926,-0.000615, 0.001776, 0.023492, 0.020803,-0.113681,-0.150603,-0.000000, 0.000000,-0.000000,1,0
1777416744696132488,1583854000000,  1583.859, 0.000035,-0.000005,-0.009964,-0.000006, 0.000013, 0.000254,-0.432282, 0.038288, 0.026345,1,-0.000615, 0.001776, 0.023492,1, 0.008397, 0.008222,-0.995926,-0.000615, 0.001776, 0.023492, 0.020803,-0.113681,-0.150603,-0.000000, 0.000000,-0.000000,1,0
1777416744711727139,1583874000000,  1583.879,-0.000014, 0.000108,-0.009958, 0.000010, 0.000054, 0.000255,-0.499393, 0.034022, 0.024411,1, 0.000244, 0.004101, 0.024785,1, 0.001615, 0.007766,-0.996120, 0.000244, 0.004101, 0.024785, 0.021328,-0.113921,-0.150270,-0.000000, 0.000000,-0.000000,1,0
1777416744721423696,1583894000000,  1583.894, 0.000028,-0.000064,-0.009918,-0.000004, 0.000033, 0.000268,-0.485724,-0.039070, 0.039634,1,-0.000189, 0.003943, 0.026150,1, 0.002260, 0.000244,-0.994607,-0.000189, 0.003943, 0.026150, 0.021527,-0.113510,-0.150267,-0.000000, 0.000000,-0.000000,1,0
1777416744731507902,1583894000000,  1583.894, 0.000028,-0.000064,-0.009918,-0.000004, 0.000033, 0.000268,-0.485724,-0.039070, 0.039634,1,-0.000189, 0.003943, 0.026150,1, 0.002260, 0.000244,-0.994607,-0.000189, 0.003943, 0.026150, 0.021527,-0.113510,-0.150267,-0.000000, 0.000000,-0.000000,1,0
1777416744741124778,1583914000000,  1583.914, 0.000059,-0.000070,-0.009928, 0.000005, 0.000025, 0.000236,-0.459188,-0.096948, 0.041111,1, 0.000231, 0.003191, 0.024488,1, 0.004425,-0.005718,-0.994485, 0.000231, 0.003192, 0.024488, 0.020511,-0.113084,-0.151325,-0.000000, 0.000000,-0.000000,1,0
1777416744751208595,1583914000000,  1583.914, 0.000059,-0.000070,-0.009928, 0.000005, 0.000025, 0.000236,-0.459188,-0.096948, 0.041111,1, 0.000231, 0.003191, 0.024488,1, 0.004425,-0.005718,-0.994485, 0.000231, 0.003192, 0.024488, 0.020511,-0.113084,-0.151325,-0.000000, 0.000000,-0.000000,1,0
1777416744770607524,1583934000000,  1583.934, 0.000041,-0.000158,-0.009931,-0.000007, 0.000015, 0.000213,-0.458573,-0.107262, 0.023885,1,-0.000237, 0.002606, 0.023590,1, 0.004315,-0.011084,-0.995006,-0.000444, 0.002098, 0.022499, 0.019785,-0.112733,-0.152155,-0.000000, 0.000000,-0.000000,1,0
1777416744780307117,1583954000000,  1583.954, 0.000027,-0.000149,-0.009945,-0.000019, 0.000034, 0.000153,-0.463580,-0.183284, 0.019096,1,-0.000316, 0.002338, 0.020730,1, 0.003291,-0.014587,-0.995713,-0.001007, 0.002841, 0.018191, 0.020914,-0.113300,-0.151161,-0.000000, 0.000000,-0.000000,1,0
1777416744790391065,1583954000000,  1583.954, 0.000027,-0.000149,-0.009945,-0.000019, 0.000034, 0.000153,-0.463580,-0.183284, 0.019096,1,-0.000316, 0.002338, 0.020730,1, 0.003291,-0.014587,-0.995713,-0.001007, 0.002841, 0.018191, 0.020914,-0.113300,-0.151161,-0.000000, 0.000000,-0.000000,1,0
1777416744800004125,1583974000000,  1583.974, 0.000037,-0.000035,-0.009955,-0.000024, 0.000035, 0.000128,-0.470010,-0.152276, 0.024778,1,-0.001652, 0.003207, 0.016064,1, 0.003469,-0.007692,-0.995977,-0.001932, 0.003300, 0.014576, 0.021162,-0.113954,-0.150258,-0.000000, 0.000000,-0.000000,1,0
1777416744810087406,1583974000000,  1583.974, 0.000037,-0.000035,-0.009955,-0.000024, 0.000035, 0.000128,-0.470010,-0.152276, 0.024778,1,-0.001652, 0.003207, 0.016064,1, 0.003469,-0.007692,-0.995977,-0.001932, 0.003300, 0.014576, 0.021162,-0.113954,-0.150258,-0.000000, 0.000000,-0.000000,1,0
1777416744829880577,1583994000000,  1583.994, 0.000030, 0.000028,-0.009962,-0.000032, 0.000022, 0.000121,-0.470331,-0.087018, 0.029936,1,-0.001923, 0.003438, 0.013734,1, 0.003115,-0.001228,-0.995963,-0.002503, 0.002831, 0.013005, 0.020996,-0.113516,-0.149779,-0.000000, 0.000000,-0.000000,1,0
1777416744839492304,1584014000000,  1584.014, 0.000034, 0.000080,-0.009971,-0.000021, 0.000024, 0.000136,-0.477781,-0.009822, 0.032409,1,-0.002656, 0.002626, 0.012904,1, 0.002940, 0.005398,-0.996238,-0.002401, 0.002523, 0.013253, 0.020795,-0.113276,-0.150396,-0.000000, 0.000000,-0.000000,1,0
1777416744849591954,1584014000000,  1584.014, 0.000034, 0.000080,-0.009971,-0.000021, 0.000024, 0.000136,-0.477781,-0.009822, 0.032409,1,-0.002656, 0.002626, 0.012904,1, 0.002940, 0.005398,-0.996238,-0.002401, 0.002523, 0.013253, 0.020795,-0.113276,-0.150396,-0.000000, 0.000000,-0.000000,1,0
1777416744859315214,1584034000000,  1584.034, 0.000065, 0.000081,-0.009960,-0.000027, 0.000029, 0.000151,-0.467647, 0.025806, 0.028026,1,-0.002233, 0.002308, 0.014204,1, 0.005060, 0.007496,-0.996030,-0.002475, 0.002610, 0.014644, 0.020287,-0.113425,-0.152322,-0.000000, 0.000000,-0.000000,1,0
1777416744869405216,1584034000000,  1584.034, 0.000065, 0.000081,-0.009960,-0.000027, 0.000029, 0.000151,-0.467647, 0.025806, 0.028026,1,-0.002233, 0.002308, 0.014204,1, 0.005060, 0.007496,-0.996030,-0.002475, 0.002610, 0.014644, 0.020287,-0.113425,-0.152322,-0.000000, 0.000000,-0.000000,1,0
1777416744889013487,1584054000000,  1584.054, 0.000105, 0.000134,-0.009974,-0.000013, 0.000042, 0.000186,-0.442678, 0.049343, 0.030224,1,-0.001818, 0.003443, 0.015769,1, 0.008217, 0.011138,-0.996337,-0.001511, 0.003785, 0.017152, 0.020935,-0.113612,-0.151429,-0.000000, 0.000000,-0.000000,1,0
1777416744908892284,1584074000000,  1584.074, 0.000123, 0.000098,-0.009958,-0.000011, 0.000046, 0.000211,-0.406791, 0.071014, 0.024554,1,-0.000627, 0.003889, 0.018662,1, 0.011052, 0.010716,-0.995911,-0.000876, 0.004235, 0.019771, 0.021511,-0.113959,-0.150790,-0.000000, 0.000000,-0.000000,1,0
1777416744918463568,1584084000000,  1584.089, 0.000131, 0.000083,-0.009954, 0.000002, 0.000046, 0.000226,-0.385999, 0.051833, 0.028558,1,-0.000305, 0.004411, 0.021102,1, 0.012063, 0.009546,-0.995756,-0.000305, 0.004412, 0.021102, 0.020372,-0.113715,-0.151666,-0.000000, 0.000000,-0.000000,1,0
1777416744928552997,1584084000000,  1584.089, 0.000131, 0.000083,-0.009954, 0.000002, 0.000046, 0.000226,-0.385999, 0.051833, 0.028558,1,-0.000305, 0.004411, 0.021102,1, 0.012063, 0.009546,-0.995756,-0.000305, 0.004412, 0.021102, 0.020372,-0.113715,-0.151666,-0.000000, 0.000000,-0.000000,1,0
1777416744938192130,1584104000000,  1584.109, 0.000088, 0.000033,-0.009953, 0.000009, 0.000049, 0.000242,-0.392050, 0.017548, 0.032229,1, 0.000504, 0.004632, 0.023187,1, 0.010401, 0.006085,-0.995434, 0.000503, 0.004632, 0.023187, 0.020303,-0.113792,-0.150673,-0.000000, 0.000000,-0.000000,1,0
1777416744948337631,1584104000000,  1584.109, 0.000088, 0.000033,-0.009953, 0.000009, 0.000049, 0.000242,-0.392050, 0.017548, 0.032229,1, 0.000504, 0.004632, 0.023187,1, 0.010401, 0.006085,-0.995434, 0.000503, 0.004632, 0.023187, 0.020303,-0.113792,-0.150673,-0.000000, 0.000000,-0.000000,1,0
1777416744968024306,1584124000000,  1584.129, 0.000028,-0.000013,-0.009959,-0.000006, 0.000030, 0.000245,-0.434439,-0.031233, 0.028453,1, 0.000006, 0.003501, 0.024236,1, 0.005826, 0.001098,-0.995832, 0.000006, 0.003502, 0.024236, 0.020640,-0.113387,-0.149868,-0.000000, 0.000000,-0.000000,1,0
1777416744987756590,1584144000000,  1584.149,-0.000007,-0.000122,-0.009957,-0.000001, 0.000050, 0.000227,-0.477377,-0.112688, 0.027258,1,-0.000218, 0.004090, 0.023529,1, 0.001422,-0.007225,-0.995955,-0.000219, 0.004091, 0.023529, 0.021124,-0.113337,-0.150093,-0.000000, 0.000000,-0.000000,1,0
1777416744997442444,1584164000000,  1584.169,-0.000018,-0.000079,-0.009957,-0.000009, 0.000040, 0.000190,-0.501329,-0.125560, 0.030950,1,-0.000854, 0.004052, 0.020646,1,-0.000968,-0.008546,-0.995576,-0.000855, 0.004052, 0.020646, 0.021270,-0.113296,-0.151413,-0.000000, 0.000000,-0.000000,1,0
1777416745007527113,1584164000000,  1584.169,-0.000018,-0.000079,-0.009957,-0.000009, 0.000040, 0.000190,-0.501329,-0.125560, 0.030950,1,-0.000854, 0.004052, 0.020646,1,-0.000968,-0.008546,-0.995576,-0.000855, 0.004052, 0.020646, 0.021270,-0.113296,-0.151413,-0.000000, 0.000000,-0.000000,1,0
1777416745017150525,1584184000000,  1584.189, 0.000012,-0.000003,-0.009955,-0.000022, 0.000031, 0.000174,-0.492644,-0.074514, 0.032679,1,-0.001580, 0.003238, 0.018539,1,-0.000008,-0.003337,-0.995396,-0.001581, 0.003239, 0.018539, 0.020533,-0.113280,-0.151653,-0.000000, 0.000000,-0.000000,1,0
1777416745027235676,1584184000000,  1584.189, 0.000012,-0.000003,-0.009955,-0.000022, 0.000031, 0.000174,-0.492644,-0.074514, 0.032679,1,-0.001580, 0.003238, 0.018539,1,-0.000008,-0.003337,-0.995396,-0.001581, 0.003239, 0.018539, 0.020533,-0.113280,-0.151653,-0.000000, 0.000000,-0.000000,1,0
1777416745046995273,1584204000000,  1584.209, 0.000026, 0.000025,-0.009926,-0.000002, 0.000017, 0.000174,-0.481837,-0.038755, 0.042199,1,-0.000965, 0.002800, 0.017772,1, 0.001160, 0.000317,-0.994422,-0.000965, 0.002800, 0.017772, 0.020681,-0.113532,-0.150898,-0.000000, 0.000000,-0.000000,1,0
1777416745056635999,1584224000000,  1584.229, 0.000070, 0.000014,-0.009921,-0.000016, 0.000023, 0.000179,-0.443693,-0.027900, 0.039528,1,-0.001359, 0.002521, 0.017783,1, 0.005102, 0.001432,-0.994692,-0.001359, 0.002521, 0.017783, 0.021326,-0.113941,-0.149867,-0.000000, 0.000000,-0.000000,1,0
1777416745066720020,1584224000000,  1584.229, 0.000070, 0.000014,-0.009921,-0.000016, 0.000023, 0.000179,-0.443693,-0.027900, 0.039528,1,-0.001359, 0.002521, 0.017783,1, 0.005102, 0.001432,-0.994692,-0.001359, 0.002521, 0.017783, 0.021326,-0.113941,-0.149867,-0.000000, 0.000000,-0.000000,1,0
1777416745076403726,1584244000000,  1584.249, 0.000078,-0.000020,-0.009940,-0.000018, 0.000022, 0.000170,-0.425720,-0.053772, 0.030680,1,-0.001590, 0.002113, 0.017391,1, 0.006978,-0.001197,-0.995592,-0.001590, 0.002113, 0.017391, 0.021521,-0.113919,-0.150134,-0.000000, 0.000000,-0.000000,1,0
1777416745086488210,1584244000000,  1584.249, 0.000078,-0.000020,-0.009940,-0.000018, 0.000022, 0.000170,-0.425720,-0.053772, 0.030680,1,-0.001590, 0.002113, 0.017391,1, 0.006978,-0.001197,-0.995592,-0.001590, 0.002113, 0.017391, 0.021521,-0.113919,-0.150134,-0.000000, 0.000000,-0.000000,1,0
1777416745096090493,1584264000000,  1584.269, 0.000078,-0.000005,-0.009949,-0.000017, 0.000024, 0.000170,-0.419891,-0.047701, 0.028868,1,-0.001536, 0.002389, 0.017050,1, 0.007619,-0.000564,-0.995774,-0.001536, 0.002389, 0.017050, 0.020710,-0.113458,-0.151460,-0.000000, 0.000000,-0.000000,1,0
1777416745106173977,1584264000000,  1584.269, 0.000078,-0.000005,-0.009949,-0.000017, 0.000024, 0.000170,-0.419891,-0.047701, 0.028868,1,-0.001536, 0.002389, 0.017050,1, 0.007619,-0.000564,-0.995774,-0.001536, 0.002389, 0.017050, 0.020710,-0.113458,-0.151460,-0.000000, 0.000000,-0.000000,1,0
1777416745121724574,1584284000000,  1584.289, 0.000053,-0.000004,-0.009951,-0.000015, 0.000024, 0.000170,-0.433804,-0.048003, 0.031171,1,-0.001531, 0.002275, 0.016959,1, 0.006146,-0.000575,-0.995542,-0.001531, 0.002275, 0.016959, 0.020175,-0.113322,-0.152312,-0.000000, 0.000000,-0.000000,1,0
1777416745131398909,1584304000000,  1584.309, 0.000035, 0.000022,-0.009959,-0.000015, 0.000023, 0.000162,-0.438704,-0.033743, 0.026693,1,-0.001547, 0.002422, 0.016460,1, 0.004547, 0.000970,-0.996053,-0.001548, 0.002422, 0.016460, 0.020353,-0.113519,-0.151981,-0.000000, 0.000000,-0.000000,1,0
1777416745141498633,1584304000000,  1584.309, 0.000035, 0.000022,-0.009959,-0.000015, 0.000023, 0.000162,-0.438704,-0.033743, 0.026693,1,-0.001547, 0.002422, 0.016460,1, 0.004547, 0.000970,-0.996053,-0.001548, 0.002422, 0.016460, 0.020353,-0.113519,-0.151981,-0.000000, 0.000000,-0.000000,1,0
1777416745151167432,1584324000000,  1584.324, 0.000030, 0.000025,-0.009966,-0.000016, 0.000031, 0.000163,-0.446233,-0.022747, 0.026497,1,-0.001444, 0.002732, 0.016387,1, 0.003491, 0.002128,-0.996087,-0.001444, 0.002732, 0.016387, 0.021155,-0.113599,-0.150732,-0.000000, 0.000000,-0.000000,1,0
1777416745161251620,1584324000000,  1584.324, 0.000030, 0.000025,-0.009966,-0.000016, 0.000031, 0.000163,-0.446233,-0.022747, 0.026497,1,-0.001444, 0.002732, 0.016387,1, 0.003491, 0.002128,-0.996087,-0.001444, 0.002732, 0.016387, 0.021155,-0.113599,-0.150732,-0.000000, 0.000000,-0.000000,1,0
1777416745180644326,1584344000000,  1584.344, 0.000048, 0.000023,-0.009964,-0.000014, 0.000033, 0.000172,-0.446233,-0.022747, 0.026497,1,-0.001444, 0.002732, 0.016387,1, 0.004053, 0.002165,-0.995898,-0.001379, 0.003122, 0.016864, 0.021501,-0.113376,-0.149661,-0.000000, 0.000000,-0.000000,1,0
1777416745190294829,1584364000000,  1584.364, 0.000066, 0.000025,-0.009964,-0.000012, 0.000027, 0.000177,-0.434558,-0.019630, 0.030595,1,-0.001391, 0.002942, 0.016943,1, 0.005569, 0.002530,-0.996018,-0.001332, 0.002828, 0.017307, 0.021126,-0.113048,-0.150590,-0.000000, 0.000000,-0.000000,1,0
1777416745200378591,1584364000000,  1584.364, 0.000066, 0.000025,-0.009964,-0.000012, 0.000027, 0.000177,-0.434558,-0.019630, 0.030595,1,-0.001391, 0.002942, 0.016943,1, 0.005569, 0.002530,-0.996018,-0.001332, 0.002828, 0.017307, 0.021126,-0.113048,-0.150590,-0.000000, 0.000000,-0.000000,1,0
1777416745210043334,1584384000000,  1584.384, 0.000079, 0.000052,-0.009959,-0.000009, 0.000037, 0.000193,-0.416253,-0.011413, 0.028160,1,-0.001345, 0.003322, 0.017436,1, 0.007175, 0.004222,-0.995899,-0.001179, 0.003507, 0.018311, 0.020405,-0.113035,-0.152055,-0.000000, 0.000000,-0.000000,1,0
1777416745220127967,1584384000000,  1584.384, 0.000079, 0.000052,-0.009959,-0.000009, 0.000037, 0.000193,-0.416253,-0.011413, 0.028160,1,-0.001345, 0.003322, 0.017436,1, 0.007175, 0.004222,-0.995899,-0.001179, 0.003507, 0.018311, 0.020405,-0.113035,-0.152055,-0.000000, 0.000000,-0.000000,1,0
1777416745239919303,1584404000000,  1584.404, 0.000069, 0.000044,-0.009961,-0.000011, 0.000031, 0.000194,-0.408680, 0.002914, 0.030673,1,-0.001515, 0.003319, 0.018599,1, 0.007152, 0.004619,-0.995829,-0.001282, 0.003251, 0.019006, 0.020800,-0.113454,-0.151912,-0.000000, 0.000000,-0.000000,1,0
1777416745249531734,1584424000000,  1584.424, 0.000050, 0.000025,-0.009959,-0.000011, 0.000030, 0.000201,-0.418486,-0.004493, 0.028380,1,-0.001215, 0.003030, 0.019651,1, 0.005757, 0.003345,-0.995897,-0.001133, 0.002997, 0.019807, 0.021428,-0.113813,-0.151005,-0.000000, 0.000000,-0.000000,1,0
1777416745259616292,1584424000000,  1584.424, 0.000050, 0.000025,-0.009959,-0.000011, 0.000030, 0.000201,-0.418486,-0.004493, 0.028380,1,-0.001215, 0.003030, 0.019651,1, 0.005757, 0.003345,-0.995897,-0.001133, 0.002997, 0.019807, 0.021428,-0.113813,-0.151005,-0.000000, 0.000000,-0.000000,1,0
1777416745269302961,1584444000000,  1584.444, 0.000035, 0.000012,-0.009960,-0.000008, 0.000037, 0.000207,-0.432407,-0.017552, 0.027224,1,-0.000932, 0.003276, 0.019980,1, 0.004383, 0.001971,-0.996016,-0.000869, 0.003516, 0.020304, 0.021804,-0.113630,-0.150772,-0.000000, 0.000000,-0.000000,1,0
1777416745279405555,1584444000000,  1584.444, 0.000035, 0.000012,-0.009960,-0.000008, 0.000037, 0.000207,-0.432407,-0.017552, 0.027224,1,-0.000932, 0.003276, 0.019980,1, 0.004383, 0.001971,-0.996016,-0.000869, 0.003516, 0.020304, 0.021804,-0.113630,-0.150772,-0.000000, 0.000000,-0.000000,1,0
1777416745299052546,1584464000000,  1584.464, 0.000035, 0.000001,-0.009955,-0.000010, 0.000040, 0.000205,-0.445547,-0.033717, 0.028958,1,-0.001459, 0.003452, 0.020374,1, 0.003673, 0.000591,-0.995677,-0.001248, 0.003735, 0.020485, 0.020772,-0.113408,-0.150849,-0.000000, 0.000000,-0.000000,1,0
1777416745318789367,1584484000000,  1584.484, 0.000033,-0.000010,-0.009957,-0.000005, 0.000034, 0.000198,-0.451085,-0.042929, 0.029716,1,-0.000986, 0.003498, 0.020572,1, 0.003360,-0.000410,-0.995746,-0.000818, 0.003485, 0.020207, 0.019975,-0.113267,-0.151607,-0.000000, 0.000000,-0.000000,1,0
1777416745328052276,1584494000000,  1584.499, 0.000036,-0.000025,-0.009957,-0.000015, 0.000030, 0.000201,-0.442024,-0.057996, 0.030783,1,-0.001139, 0.003366, 0.020128,1, 0.003482,-0.001402,-0.995671,-0.001139, 0.003366, 0.020128, 0.021114,-0.113475,-0.150139,-0.000000, 0.000000,-0.000000,1,0
1777416745338135594,1584494000000,  1584.499, 0.000036,-0.000025,-0.009957,-0.000015, 0.000030, 0.000201,-0.442024,-0.057996, 0.030783,1,-0.001139, 0.003366, 0.020128,1, 0.003482,-0.001402,-0.995671,-0.001139, 0.003366, 0.020128, 0.021114,-0.113475,-0.150139,-0.000000, 0.000000,-0.000000,1,0
1777416745357933800,1584514000000,  1584.519, 0.000038,-0.000037,-0.009958,-0.000018, 0.000035, 0.000186,-0.435746,-0.073918, 0.030176,1,-0.001536, 0.003448, 0.019097,1, 0.003557,-0.003009,-0.995760,-0.001536, 0.003448, 0.019097, 0.020498,-0.113001,-0.150767,-0.000000, 0.000000,-0.000000,1,0
1777416745367548064,1584534000000,  1584.539, 0.000041,-0.000029,-0.009956,-0.000013, 0.000027, 0.000173,-0.430049,-0.075044, 0.031377,1,-0.001364, 0.002850, 0.017946,1, 0.004012,-0.003113,-0.995644,-0.001364, 0.002851, 0.017946, 0.020236,-0.112996,-0.151944,-0.000000, 0.000000,-0.000000,1,0
1777416745377631975,1584534000000,  1584.539, 0.000041,-0.000029,-0.009956,-0.000013, 0.000027, 0.000173,-0.430049,-0.075044, 0.031377,1,-0.001364, 0.002850, 0.017946,1, 0.004012,-0.003113,-0.995644,-0.001364, 0.002851, 0.017946, 0.020236,-0.112996,-0.151944,-0.000000, 0.000000,-0.000000,1,0
1777416745387239054,1584554000000,  1584.559, 0.000033,-0.000013,-0.009957,-0.000020, 0.000026, 0.000163,-0.433018,-0.064300, 0.029867,1,-0.001820, 0.002935, 0.016843,1, 0.003716,-0.002003,-0.995797,-0.001820, 0.002936, 0.016843, 0.020761,-0.113311,-0.150955,-0.000000, 0.000000,-0.000000,1,0
1777416745397334926,1584554000000,  1584.559, 0.000033,-0.000013,-0.009957,-0.000020, 0.000026, 0.000163,-0.433018,-0.064300, 0.029867,1,-0.001820, 0.002935, 0.016843,1, 0.003716,-0.002003,-0.995797,-0.001820, 0.002936, 0.016843, 0.020761,-0.113311,-0.150955,-0.000000, 0.000000,-0.000000,1,0
1777416745417053692,1584574000000,  1584.579, 0.000030, 0.000001,-0.009956,-0.000018, 0.000025, 0.000162,-0.436396,-0.051445, 0.031189,1,-0.001888, 0.002595, 0.016334,1, 0.003409,-0.000668,-0.995661,-0.001888, 0.002595, 0.016334, 0.021185,-0.113575,-0.149175,-0.000000, 0.000000,-0.000000,1,0
1777416745436803253,1584594000000,  1584.599, 0.000034, 0.000025,-0.009959,-0.000020, 0.000029, 0.000157,-0.435370,-0.032787, 0.028827,1,-0.001773, 0.002820, 0.015970,1, 0.003565, 0.001256,-0.995899,-0.001773, 0.002820, 0.015970, 0.021163,-0.113483,-0.148902,-0.000000, 0.000000,-0.000000,1,0
1777416745446488514,1584614000000,  1584.619, 0.000058, 0.000033,-0.009950,-0.000012, 0.000035, 0.000163,-0.421953,-0.019975, 0.032333,1,-0.001346, 0.003316, 0.016166,1, 0.004994, 0.002576,-0.995538,-0.001346, 0.003316, 0.016166, 0.020032,-0.113181,-0.150726,-0.000000, 0.000000,-0.000000,1,0
1777416745456572776,1584614000000,  1584.619, 0.000058, 0.000033,-0.009950,-0.000012, 0.000035, 0.000163,-0.421953,-0.019975, 0.032333,1,-0.001346, 0.003316, 0.016166,1, 0.004994, 0.002576,-0.995538,-0.001346, 0.003316, 0.016166, 0.020032,-0.113181,-0.150726,-0.000000, 0.000000,-0.000000,1,0
1777416745466250648,1584634000000,  1584.639, 0.000074, 0.000029,-0.009951,-0.000019, 0.000033, 0.000169,-0.406240,-0.018115, 0.033039,1,-0.001633, 0.003371, 0.016724,1, 0.006664, 0.002779,-0.995463,-0.001633, 0.003371, 0.016724, 0.019827,-0.113462,-0.152162,-0.000000, 0.000000,-0.000000,1,0
1777416745476335225,1584634000000,  1584.639, 0.000074, 0.000029,-0.009951,-0.000019, 0.000033, 0.000169,-0.406240,-0.018115, 0.033039,1,-0.001633, 0.003371, 0.016724,1, 0.006664, 0.002779,-0.995463,-0.001633, 0.003371, 0.016724, 0.019827,-0.113462,-0.152162,-0.000000, 0.000000,-0.000000,1,0
1777416745491946134,1584654000000,  1584.659, 0.000071, 0.000043,-0.009957,-0.000010, 0.000036, 0.000171,-0.402603,-0.009024, 0.030629,1,-0.001295, 0.003369, 0.017048,1, 0.007099, 0.003721,-0.995706,-0.001296, 0.003369, 0.017048, 0.020363,-0.113684,-0.151642,-0.000000, 0.000000,-0.000000,1,0
1777416745501562861,1584674000000,  1584.679, 0.000056, 0.000040,-0.009958,-0.000009, 0.000034, 0.000180,-0.410231,-0.006973, 0.029335,1,-0.001256, 0.003463, 0.017812,1, 0.006391, 0.003941,-0.995834,-0.001256, 0.003463, 0.017812, 0.021082,-0.113574,-0.150555,-0.000000, 0.000000,-0.000000,1,0
1777416745511647660,1584674000000,  1584.679, 0.000056, 0.000040,-0.009958,-0.000009, 0.000034, 0.000180,-0.410231,-0.006973, 0.029335,1,-0.001256, 0.003463, 0.017812,1, 0.006391, 0.003941,-0.995834,-0.001256, 0.003463, 0.017812, 0.021082,-0.113574,-0.150555,-0.000000, 0.000000,-0.000000,1,0
1777416745521264053,1584694000000,  1584.694, 0.000049, 0.000036,-0.009960,-0.000010, 0.000034, 0.000187,-0.412217,-0.010352, 0.029910,1,-0.001052, 0.003348, 0.018597,1, 0.005389, 0.003650,-0.995813,-0.001052, 0.003348, 0.018597, 0.021323,-0.113441,-0.149667,-0.000000, 0.000000,-0.000000,1,0
1777416745531347797,1584694000000,  1584.694, 0.000049, 0.000036,-0.009960,-0.000010, 0.000034, 0.000187,-0.412217,-0.010352, 0.029910,1,-0.001052, 0.003348, 0.018597,1, 0.005389, 0.003650,-0.995813,-0.001052, 0.003348, 0.018597, 0.021323,-0.113441,-0.149667,-0.000000, 0.000000,-0.000000,1,0
1777416745541019262,1584714000000,  1584.714, 0.000041, 0.000034,-0.009960,-0.000011, 0.000037, 0.000200,-0.413835,-0.011752, 0.029568,1,-0.001166, 0.003591, 0.019617,1, 0.004656, 0.003549,-0.995875,-0.001166, 0.003591, 0.019617, 0.020570,-0.112846,-0.150152,-0.000000, 0.000000,-0.000000,1,0
1777416745551102802,1584714000000,  1584.714, 0.000041, 0.000034,-0.009960,-0.000011, 0.000037, 0.000200,-0.413835,-0.011752, 0.029568,1,-0.001166, 0.003591, 0.019617,1, 0.004656, 0.003549,-0.995875,-0.001166, 0.003591, 0.019617, 0.020570,-0.112846,-0.150152,-0.000000, 0.000000,-0.000000,1,0
1777416745570519655,1584734000000,  1584.734, 0.000039, 0.000011,-0.009962,-0.000006, 0.000036, 0.000202,-0.418066,-0.015544, 0.030303,1,-0.001085, 0.003275, 0.019840,1, 0.004068, 0.002211,-0.995971,-0.000817, 0.003383, 0.020013, 0.019909,-0.112713,-0.151398,-0.000000, 0.000000,-0.000000,1,0
1777416745580173065,1584754000000,  1584.754, 0.000049,-0.000004,-0.009963,-0.000009, 0.000032, 0.000202,-0.417184,-0.033699, 0.027636,1,-0.000496, 0.003457, 0.020010,1, 0.004494, 0.000527,-0.996158,-0.000700, 0.003348, 0.020132, 0.019974,-0.112992,-0.150805,-0.000000, 0.000000,-0.000000,1,0
1777416745590255809,1584754000000,  1584.754, 0.000049,-0.000004,-0.009963,-0.000009, 0.000032, 0.000202,-0.417184,-0.033699, 0.027636,1,-0.000496, 0.003457, 0.020010,1, 0.004494, 0.000527,-0.996158,-0.000700, 0.003348, 0.020132, 0.019974,-0.112992,-0.150805,-0.000000, 0.000000,-0.000000,1,0
1777416745609961186,1584774000000,  1584.774, 0.000053,-0.000017,-0.009960,-0.000012, 0.000031, 0.000196,-0.413533,-0.048054, 0.027815,1,-0.000715, 0.003493, 0.019983,1, 0.004948,-0.000867,-0.996043,-0.000922, 0.003321, 0.019818, 0.020963,-0.113356,-0.150096,-0.000000, 0.000000,-0.000000,1,0
1777416745619633077,1584794000000,  1584.794, 0.000048,-0.000014,-0.009956,-0.000013, 0.000037, 0.000195,-0.410950,-0.059545, 0.029242,1,-0.000745, 0.003355, 0.019424,1, 0.004855,-0.001327,-0.995769,-0.000996, 0.003539, 0.019427, 0.021171,-0.113288,-0.150297,-0.000000, 0.000000,-0.000000,1,0
1777416745629735209,1584794000000,  1584.794, 0.000048,-0.000014,-0.009956,-0.000013, 0.000037, 0.000195,-0.410950,-0.059545, 0.029242,1,-0.000745, 0.003355, 0.019424,1, 0.004855,-0.001327,-0.995769,-0.000996, 0.003539, 0.019427, 0.021171,-0.113288,-0.150297,-0.000000, 0.000000,-0.000000,1,0
1777416745639394749,1584814000000,  1584.814, 0.000038,-0.000015,-0.009967,-0.000014, 0.000030, 0.000185,-0.414084,-0.059994, 0.031422,1,-0.001495, 0.003410, 0.019208,1, 0.004244,-0.001390,-0.996121,-0.001444, 0.003231, 0.018863, 0.020936,-0.113002,-0.150484,-0.000000, 0.000000,-0.000000,1,0
1777416745649477455,1584814000000,  1584.814, 0.000038,-0.000015,-0.009967,-0.000014, 0.000030, 0.000185,-0.414084,-0.059994, 0.031422,1,-0.001495, 0.003410, 0.019208,1, 0.004244,-0.001390,-0.996121,-0.001444, 0.003231, 0.018863, 0.020936,-0.113002,-0.150484,-0.000000, 0.000000,-0.000000,1,0
1777416745659150791,1584834000000,  1584.834, 0.000040,-0.000004,-0.009954,-0.000016, 0.000035, 0.000172,-0.417546,-0.059781, 0.028855,1,-0.001420, 0.003203, 0.018245,1, 0.004214,-0.000896,-0.995668,-0.001507, 0.003321, 0.017771, 0.020179,-0.113302,-0.150753,-0.000000, 0.000000,-0.000000,1,0
1777416745669234849,1584834000000,  1584.834, 0.000040,-0.000004,-0.009954,-0.000016, 0.000035, 0.000172,-0.417546,-0.059781, 0.028855,1,-0.001420, 0.003203, 0.018245,1, 0.004214,-0.000896,-0.995668,-0.001507, 0.003321, 0.017771, 0.020179,-0.113302,-0.150753,-0.000000, 0.000000,-0.000000,1,0
1777416745688970966,1584854000000,  1584.854, 0.000042,-0.000001,-0.009957,-0.000014, 0.000020, 0.000168,-0.421193,-0.050164, 0.031714,1,-0.001653, 0.002836, 0.017480,1, 0.004100,-0.000224,-0.995668,-0.001520, 0.002429, 0.017143, 0.020738,-0.113304,-0.150716,-0.000000, 0.000000,-0.000000,1,0
1777416745698638524,1584874000000,  1584.874, 0.000040, 0.000006,-0.009958,-0.000017, 0.000024, 0.000172,-0.420062,-0.046477, 0.031168,1,-0.001658, 0.002474, 0.017104,1, 0.004180, 0.000300,-0.995784,-0.001689, 0.002413, 0.017160, 0.021496,-0.113392,-0.149985,-0.000000, 0.000000,-0.000000,1,0
1777416745708723027,1584874000000,  1584.874, 0.000040, 0.000006,-0.009958,-0.000017, 0.000024, 0.000172,-0.420062,-0.046477, 0.031168,1,-0.001658, 0.002474, 0.017104,1, 0.004180, 0.000300,-0.995784,-0.001689, 0.002413, 0.017160, 0.021496,-0.113392,-0.149985,-0.000000, 0.000000,-0.000000,1,0
1777416745718341920,1584884000000,  1584.889, 0.000045, 0.000009,-0.009964,-0.000014, 0.000026, 0.000170,-0.418933,-0.041373, 0.028345,1,-0.001573, 0.002467, 0.017107,1, 0.004312, 0.000607,-0.995991,-0.001574, 0.002467, 0.017107, 0.020328,-0.112929,-0.152325,-0.000000, 0.000000,-0.000000,1,0
1777416745728426386,1584884000000,  1584.889, 0.000045, 0.000009,-0.009964,-0.000014, 0.000026, 0.000170,-0.418933,-0.041373, 0.028345,1,-0.001573, 0.002467, 0.017107,1, 0.004312, 0.000607,-0.995991,-0.001574, 0.002467, 0.017107, 0.020328,-0.112929,-0.152325,-0.000000, 0.000000,-0.000000,1,0
1777416745738100869,1584904000000,  1584.909, 0.000051, 0.000029,-0.009965,-0.000016, 0.000027, 0.000167,-0.403331,-0.028954, 0.028824,1,-0.001557, 0.002738, 0.017044,1, 0.004782, 0.001961,-0.995994,-0.001557, 0.002738, 0.017044, 0.020785,-0.113378,-0.151957,-0.000000, 0.000000,-0.000000,1,0
1777416745748199834,1584904000000,  1584.909, 0.000051, 0.000029,-0.009965,-0.000016, 0.000027, 0.000167,-0.403331,-0.028954, 0.028824,1,-0.001557, 0.002738, 0.017044,1, 0.004782, 0.001961,-0.995994,-0.001557, 0.002738, 0.017044, 0.020785,-0.113378,-0.151957,-0.000000, 0.000000,-0.000000,1,0
1777416745767977579,1584924000000,  1584.929, 0.000058, 0.000030,-0.009960,-0.000017, 0.000033, 0.000172,-0.393729,-0.023242, 0.028659,1,-0.001482, 0.003046, 0.017309,1, 0.005471, 0.002578,-0.996024,-0.001483, 0.003046, 0.017309, 0.021650,-0.113497,-0.150108,-0.000000, 0.000000,-0.000000,1,0
1777416745777584010,1584944000000,  1584.949, 0.000066, 0.000031,-0.009964,-0.000002, 0.000033, 0.000183,-0.386269,-0.021082, 0.026702,1,-0.000744, 0.003127, 0.017963,1, 0.006191, 0.002811,-0.996225,-0.000745, 0.003127, 0.017963, 0.020983,-0.113586,-0.149129,-0.000000, 0.000000,-0.000000,1,0
1777416745787682920,1584944000000,  1584.949, 0.000066, 0.000031,-0.009964,-0.000002, 0.000033, 0.000183,-0.386269,-0.021082, 0.026702,1,-0.000744, 0.003127, 0.017963,1, 0.006191, 0.002811,-0.996225,-0.000745, 0.003127, 0.017963, 0.020983,-0.113586,-0.149129,-0.000000, 0.000000,-0.000000,1,0
1777416745797285851,1584964000000,  1584.969, 0.000058, 0.000020,-0.009960,-0.000013, 0.000030, 0.000192,-0.388038,-0.025013, 0.028749,1,-0.001124, 0.002970, 0.018709,1, 0.006042, 0.002415,-0.996015,-0.001124, 0.002970, 0.018709, 0.020778,-0.113182,-0.150031,-0.000000, 0.000000,-0.000000,1,0
1777416745807370372,1584964000000,  1584.969, 0.000058, 0.000020,-0.009960,-0.000013, 0.000030, 0.000192,-0.388038,-0.025013, 0.028749,1,-0.001124, 0.002970, 0.018709,1, 0.006042, 0.002415,-0.996015,-0.001124, 0.002970, 0.018709, 0.020778,-0.113182,-0.150031,-0.000000, 0.000000,-0.000000,1,0
1777416745817044596,1584984000000,  1584.989, 0.000046, 0.000007,-0.009959,-0.000012, 0.000030, 0.000190,-0.396656,-0.036306, 0.028762,1,-0.001277, 0.003056, 0.018879,1, 0.005216, 0.001271,-0.996011,-0.001277, 0.003056, 0.018879, 0.020002,-0.113221,-0.151757,-0.000000, 0.000000,-0.000000,1,0
1777416745827127155,1584984000000,  1584.989, 0.000046, 0.000007,-0.009959,-0.000012, 0.000030, 0.000190,-0.396656,-0.036306, 0.028762,1,-0.001277, 0.003056, 0.018879,1, 0.005216, 0.001271,-0.996011,-0.001277, 0.003056, 0.018879, 0.020002,-0.113221,-0.151757,-0.000000, 0.000000,-0.000000,1,0
1777416745846854698,1585004000000,  1585.009, 0.000041, 0.000002,-0.009958,-0.000014, 0.000035, 0.000187,-0.404182,-0.044296, 0.031154,1,-0.001303, 0.003378, 0.018871,1, 0.004511, 0.000466,-0.995765,-0.001303, 0.003378, 0.018871, 0.020429,-0.113563,-0.151191,-0.000000, 0.000000,-0.000000,1,0
1777416745856572494,1585024000000,  1585.029, 0.000037,-0.000001,-0.009958,-0.000023, 0.000032, 0.000185,-0.409593,-0.048028, 0.030042,1,-0.001813, 0.003307, 0.018654,1, 0.004027, 0.000099,-0.995875,-0.001814, 0.003308, 0.018654, 0.021020,-0.113845,-0.150338,-0.000000, 0.000000,-0.000000,1,0
1777416745866665867,1585024000000,  1585.029, 0.000037,-0.000001,-0.009958,-0.000023, 0.000032, 0.000185,-0.409593,-0.048028, 0.030042,1,-0.001813, 0.003307, 0.018654,1, 0.004027, 0.000099,-0.995875,-0.001814, 0.003308, 0.018654, 0.021020,-0.113845,-0.150338,-0.000000, 0.000000,-0.000000,1,0
1777416745876239281,1585044000000,  1585.049, 0.000046, 0.000010,-0.009957,-0.000018, 0.000036, 0.000185,-0.407189,-0.041616, 0.031178,1,-0.001758, 0.003393, 0.018386,1, 0.004339, 0.000769,-0.995756,-0.001758, 0.003393, 0.018386, 0.020935,-0.113897,-0.149245,-0.000000, 0.000000,-0.000000,1,0
1777416745886323710,1585044000000,  1585.049, 0.000046, 0.000010,-0.009957,-0.000018, 0.000036, 0.000185,-0.407189,-0.041616, 0.031178,1,-0.001758, 0.003393, 0.018386,1, 0.004339, 0.000769,-0.995756,-0.001758, 0.003393, 0.018386, 0.020935,-0.113897,-0.149245,-0.000000, 0.000000,-0.000000,1,0
1777416745901992542,1585064000000,  1585.069, 0.000046, 0.000014,-0.009957,-0.000012, 0.000030, 0.000179,-0.404715,-0.036441, 0.030197,1,-0.001307, 0.003302, 0.018044,1, 0.004661, 0.001310,-0.995853,-0.001307, 0.003302, 0.018044, 0.020473,-0.113040,-0.149992,-0.000000, 0.000000,-0.000000,1,0
1777416745911541290,1585084000000,  1585.089, 0.000054, 0.000016,-0.009959,-0.000014, 0.000032, 0.000187,-0.398816,-0.034112, 0.028834,1,-0.001272, 0.003145, 0.018415,1, 0.005221, 0.001561,-0.995993,-0.001272, 0.003145, 0.018415, 0.019946,-0.113606,-0.151539,-0.000000, 0.000000,-0.000000,1,0
1777416745921626182,1585084000000,  1585.089, 0.000054, 0.000016,-0.009959,-0.000014, 0.000032, 0.000187,-0.398816,-0.034112, 0.028834,1,-0.001272, 0.003145, 0.018415,1, 0.005221, 0.001561,-0.995993,-0.001272, 0.003145, 0.018415, 0.019946,-0.113606,-0.151539,-0.000000, 0.000000,-0.000000,1,0
1777416745931301017,1585104000000,  1585.104, 0.000056, 0.000010,-0.009957,-0.000012, 0.000030, 0.000186,-0.384196,-0.037972, 0.030524,1,-0.001232, 0.003060, 0.018507,1, 0.005577, 0.001235,-0.995872,-0.001232, 0.003060, 0.018507, 0.020211,-0.113352,-0.151272,-0.000000, 0.000000,-0.000000,1,0
1777416745941445554,1585104000000,  1585.104, 0.000056, 0.000010,-0.009957,-0.000012, 0.000030, 0.000186,-0.384196,-0.037972, 0.030524,1,-0.001232, 0.003060, 0.018507,1, 0.005577, 0.001235,-0.995872,-0.001232, 0.003060, 0.018507, 0.020211,-0.113352,-0.151272,-0.000000, 0.000000,-0.000000,1,0
1777416745951053337,1585124000000,  1585.124, 0.000051, 0.000006,-0.009958,-0.000011, 0.000036, 0.000181,-0.383265,-0.040799, 0.030409,1,-0.001224, 0.003100, 0.018373,1, 0.005296, 0.000802,-0.995871,-0.001092, 0.003304, 0.018204, 0.020819,-0.113187,-0.149157,-0.000000, 0.000000,-0.000000,1,0
1777416745961138377,1585124000000,  1585.124, 0.000051, 0.000006,-0.009958,-0.000011, 0.000036, 0.000181,-0.383265,-0.040799, 0.030409,1,-0.001224, 0.003100, 0.018373,1, 0.005296, 0.000802,-0.995871,-0.001092, 0.003304, 0.018204, 0.020819,-0.113187,-0.149157,-0.000000, 0.000000,-0.000000,1,0
1777416745980545693,1585144000000,  1585.144, 0.000039, 0.000001,-0.009960,-0.000010, 0.000030, 0.000185,-0.386698,-0.043021, 0.030704,1,-0.000807, 0.003434, 0.018023,1, 0.004477, 0.000449,-0.995922,-0.000920, 0.003228, 0.018218, 0.020865,-0.113156,-0.149969,-0.000000, 0.000000,-0.000000,1,0
1777416745990178808,1585164000000,  1585.164, 0.000035, 0.000010,-0.009954,-0.000010, 0.000044, 0.000182,-0.395770,-0.046734, 0.030949,1,-0.001010, 0.003248, 0.018176,1, 0.003823, 0.000648,-0.995591,-0.001037, 0.003808, 0.018160, 0.020915,-0.113030,-0.149885,-0.000000, 0.000000,-0.000000,1,0
1777416746000262885,1585164000000,  1585.164, 0.000035, 0.000010,-0.009954,-0.000010, 0.000044, 0.000182,-0.395770,-0.046734, 0.030949,1,-0.001010, 0.003248, 0.018176,1, 0.003823, 0.000648,-0.995591,-0.001037, 0.003808, 0.018160, 0.020915,-0.113030,-0.149885,-0.000000, 0.000000,-0.000000,1,0
1777416746020006242,1585184000000,  1585.184, 0.000041, 0.000016,-0.009956,-0.000009, 0.000031, 0.000187,-0.398581,-0.039057, 0.032941,1,-0.001022, 0.003373, 0.018399,1, 0.003975, 0.001378,-0.995605,-0.000935, 0.003198, 0.018586, 0.020410,-0.113047,-0.150988,-0.000000, 0.000000,-0.000000,1,0
1777416746039743507,1585204000000,  1585.204, 0.000053, 0.000013,-0.009951,-0.000010, 0.000026, 0.000189,-0.395077,-0.037561, 0.031097,1,-0.001237, 0.003463, 0.018389,1, 0.004755, 0.001333,-0.995513,-0.001144, 0.003069, 0.018619, 0.020499,-0.113525,-0.150489,-0.000000, 0.000000,-0.000000,1,0
1777416746049430823,1585224000000,  1585.224, 0.000060, 0.000018,-0.009959,-0.000014, 0.000031, 0.000182,-0.384961,-0.036444, 0.032981,1,-0.001105, 0.003203, 0.018665,1, 0.005664, 0.001600,-0.995749,-0.001233, 0.003150, 0.018457, 0.021523,-0.113983,-0.150699,-0.000000, 0.000000,-0.000000,1,0
1777416746059514344,1585224000000,  1585.224, 0.000060, 0.000018,-0.009959,-0.000014, 0.000031, 0.000182,-0.384961,-0.036444, 0.032981,1,-0.001105, 0.003203, 0.018665,1, 0.005664, 0.001600,-0.995749,-0.001233, 0.003150, 0.018457, 0.021523,-0.113983,-0.150699,-0.000000, 0.000000,-0.000000,1,0
1777416746069189790,1585244000000,  1585.244, 0.000053, 0.000017,-0.009955,-0.000014, 0.000035, 0.000186,-0.380567,-0.033330, 0.032072,1,-0.001281, 0.003218, 0.018563,1, 0.005659, 0.001720,-0.995641,-0.001338, 0.003342, 0.018579, 0.021366,-0.113840,-0.150155,-0.000000, 0.000000,-0.000000,1,0
1777416746079274200,1585244000000,  1585.244, 0.000053, 0.000017,-0.009955,-0.000014, 0.000035, 0.000186,-0.380567,-0.033330, 0.032072,1,-0.001281, 0.003218, 0.018563,1, 0.005659, 0.001720,-0.995641,-0.001338, 0.003342, 0.018579, 0.021366,-0.113840,-0.150155,-0.000000, 0.000000,-0.000000,1,0
1777416746099012335,1585264000000,  1585.264, 0.000048, 0.000014,-0.009956,-0.000015, 0.000032, 0.000190,-0.385152,-0.036975, 0.032096,1,-0.001250, 0.003080, 0.018388,1, 0.005187, 0.001394,-0.995606,-0.001470, 0.003108, 0.018665, 0.020576,-0.113199,-0.151479,-0.000000, 0.000000,-0.000000,1,0
1777416746118685936,1585284000000,  1585.284, 0.000041, 0.000013,-0.009961,-0.000013, 0.000033, 0.000190,-0.392421,-0.036079, 0.031399,1,-0.001067, 0.003088, 0.018663,1, 0.004508, 0.001399,-0.995887,-0.001158, 0.003211, 0.018804, 0.020282,-0.113445,-0.151218,-0.000000, 0.000000,-0.000000,1,0
1777416746128385159,1585294000000,  1585.299, 0.000043, 0.000007,-0.009961,-0.000012, 0.000028, 0.000193,-0.388309,-0.040435, 0.029874,1,-0.001211, 0.003013, 0.019013,1, 0.004401, 0.001120,-0.995971,-0.001211, 0.003013, 0.019013, 0.021188,-0.113648,-0.149769,-0.000000, 0.000000,-0.000000,1,0
1777416746138469310,1585294000000,  1585.299, 0.000043, 0.000007,-0.009961,-0.000012, 0.000028, 0.000193,-0.388309,-0.040435, 0.029874,1,-0.001211, 0.003013, 0.019013,1, 0.004401, 0.001120,-0.995971,-0.001211, 0.003013, 0.019013, 0.021188,-0.113648,-0.149769,-0.000000, 0.000000,-0.000000,1,0
1777416746148141479,1585314000000,  1585.319, 0.000051, 0.000012,-0.009964,-0.000010, 0.000037, 0.000190,-0.378461,-0.041472, 0.027768,1,-0.001050, 0.003503, 0.019035,1, 0.004817, 0.001061,-0.996212,-0.001050, 0.003503, 0.019035, 0.020599,-0.113202,-0.150265,-0.000000, 0.000000,-0.000000,1,0
1777416746158225000,1585314000000,  1585.319, 0.000051, 0.000012,-0.009964,-0.000010, 0.000037, 0.000190,-0.378461,-0.041472, 0.027768,1,-0.001050, 0.003503, 0.019035,1, 0.004817, 0.001061,-0.996212,-0.001050, 0.003503, 0.019035, 0.020599,-0.113202,-0.150265,-0.000000, 0.000000,-0.000000,1,0
1777416746178016021,1585334000000,  1585.339, 0.000054, 0.000002,-0.009958,-0.000014, 0.000029, 0.000188,-0.373185,-0.046758, 0.031273,1,-0.001172, 0.002968, 0.018824,1, 0.005226, 0.000540,-0.995860,-0.001172, 0.002968, 0.018824, 0.020348,-0.113208,-0.151120,-0.000000, 0.000000,-0.000000,1,0
1777416746197629865,1585354000000,  1585.359, 0.000049, 0.000008,-0.009959,-0.000020, 0.000032, 0.000186,-0.373749,-0.045250, 0.031590,1,-0.001662, 0.002964, 0.018776,1, 0.005172, 0.000710,-0.995827,-0.001662, 0.002965, 0.018776, 0.020930,-0.113526,-0.151443,-0.000000, 0.000000,-0.000000,1,0
1777416746207324514,1585374000000,  1585.379, 0.000037, 0.000001,-0.009959,-0.000016, 0.000028, 0.000178,-0.381696,-0.048872, 0.031272,1,-0.001513, 0.002799, 0.018365,1, 0.004404, 0.000356,-0.995858,-0.001513, 0.002799, 0.018365, 0.021790,-0.113810,-0.150848,-0.000000, 0.000000,-0.000000,1,0
1777416746217407573,1585374000000,  1585.379, 0.000037, 0.000001,-0.009959,-0.000016, 0.000028, 0.000178,-0.381696,-0.048872, 0.031272,1,-0.001513, 0.002799, 0.018365,1, 0.004404, 0.000356,-0.995858,-0.001513, 0.002799, 0.018365, 0.021790,-0.113810,-0.150848,-0.000000, 0.000000,-0.000000,1,0
1777416746227083834,1585394000000,  1585.399, 0.000033,-0.000003,-0.009967,-0.000010, 0.000023, 0.000182,-0.389599,-0.053839, 0.026302,1,-0.001248, 0.002666, 0.018270,1, 0.003652,-0.000138,-0.996362,-0.001248, 0.002666, 0.018270, 0.022081,-0.113604,-0.150534,-0.000000, 0.000000,-0.000000,1,0
1777416746237166540,1585394000000,  1585.399, 0.000033,-0.000003,-0.009967,-0.000010, 0.000023, 0.000182,-0.389599,-0.053839, 0.026302,1,-0.001248, 0.002666, 0.018270,1, 0.003652,-0.000138,-0.996362,-0.001248, 0.002666, 0.018270, 0.022081,-0.113604,-0.150534,-0.000000, 0.000000,-0.000000,1,0
1777416746256889898,1585414000000,  1585.419, 0.000041, 0.000005,-0.009962,-0.000016, 0.000030, 0.000175,-0.388874,-0.050181, 0.029317,1,-0.001682, 0.002655, 0.017715,1, 0.003776, 0.000251,-0.996052,-0.001682, 0.002656, 0.017715, 0.020978,-0.113268,-0.151032,-0.000000, 0.000000,-0.000000,1,0
1777416746266578621,1585434000000,  1585.439, 0.000055, 0.000015,-0.009958,-0.000014, 0.000026, 0.000178,-0.378615,-0.043556, 0.031507,1,-0.001518, 0.002684, 0.017820,1, 0.004876, 0.000942,-0.995827,-0.001518, 0.002684, 0.017820, 0.020200,-0.113694,-0.151322,-0.000000, 0.000000,-0.000000,1,0
1777416746276663716,1585434000000,  1585.439, 0.000055, 0.000015,-0.009958,-0.000014, 0.000026, 0.000178,-0.378615,-0.043556, 0.031507,1,-0.001518, 0.002684, 0.017820,1, 0.004876, 0.000942,-0.995827,-0.001518, 0.002684, 0.017820, 0.020200,-0.113694,-0.151322,-0.000000, 0.000000,-0.000000,1,0
1777416746286277036,1585454000000,  1585.459, 0.000062, 0.000023,-0.009957,-0.000013, 0.000029, 0.000183,-0.370686,-0.035629, 0.032575,1,-0.001381, 0.002806, 0.017988,1, 0.005740, 0.001765,-0.995715,-0.001381, 0.002806, 0.017988, 0.020536,-0.113640,-0.150654,-0.000000, 0.000000,-0.000000,1,0
1777416746296377834,1585454000000,  1585.459, 0.000062, 0.000023,-0.009957,-0.000013, 0.000029, 0.000183,-0.370686,-0.035629, 0.032575,1,-0.001381, 0.002806, 0.017988,1, 0.005740, 0.001765,-0.995715,-0.001381, 0.002806, 0.017988, 0.020536,-0.113640,-0.150654,-0.000000, 0.000000,-0.000000,1,0
1777416746306036411,1585474000000,  1585.479, 0.000064, 0.000029,-0.009955,-0.000016, 0.000032, 0.000187,-0.366830,-0.027597, 0.032155,1,-0.001563, 0.003145, 0.018332,1, 0.006194, 0.002598,-0.995755,-0.001563, 0.003145, 0.018332, 0.021022,-0.113491,-0.150444,-0.000000, 0.000000,-0.000000,1,0
1777416746316135116,1585474000000,  1585.479, 0.000064, 0.000029,-0.009955,-0.000016, 0.000032, 0.000187,-0.366830,-0.027597, 0.032155,1,-0.001563, 0.003145, 0.018332,1, 0.006194, 0.002598,-0.995755,-0.001563, 0.003145, 0.018332, 0.021022,-0.113491,-0.150444,-0.000000, 0.000000,-0.000000,1,0
1777416746331222307,1585494000000,  1585.494, 0.000045, 0.000025,-0.009960,-0.000014, 0.000030, 0.000187,-0.367100,-0.028322, 0.029342,1,-0.001444, 0.003066, 0.018603,1, 0.005342, 0.002603,-0.996077,-0.001444, 0.003066, 0.018603, 0.021507,-0.113725,-0.149982,-0.000000, 0.000000,-0.000000,1,0
1777416746350651048,1585514000000,  1585.514, 0.000046, 0.000016,-0.009959,-0.000017, 0.000029, 0.000195,-0.367046,-0.031525, 0.031560,1,-0.000994, 0.003180, 0.019179,1, 0.004791, 0.001959,-0.995865,-0.001343, 0.003043, 0.019357, 0.020844,-0.113139,-0.150445,-0.000000, 0.000000,-0.000000,1,0
1777416746360341475,1585534000000,  1585.534, 0.000031, 0.000002,-0.009983,-0.000021, 0.000026, 0.000194,-0.370342,-0.034948, 0.042856,1,-0.001159, 0.002256, 0.019308,1, 0.003423, 0.001360,-0.995935,-0.001638, 0.002150, 0.019364, 0.020043,-0.112880,-0.150960,-0.000000, 0.000000,-0.000000,1,0
1777416746370424681,1585534000000,  1585.534, 0.000031, 0.000002,-0.009983,-0.000021, 0.000026, 0.000194,-0.370342,-0.034948, 0.042856,1,-0.001159, 0.002256, 0.019308,1, 0.003423, 0.001360,-0.995935,-0.001638, 0.002150, 0.019364, 0.020043,-0.112880,-0.150960,-0.000000, 0.000000,-0.000000,1,0
1777416746380043204,1585554000000,  1585.554, 0.000048,-0.000006,-0.009968,-0.000010, 0.000019, 0.000190,-0.372124,-0.045543, 0.035961,1,-0.001972, 0.003206, 0.019242,1, 0.004344, 0.000189,-0.995731,-0.001635, 0.002621, 0.019067, 0.020345,-0.113546,-0.150583,-0.000000, 0.000000,-0.000000,1,0
1777416746390126873,1585554000000,  1585.554, 0.000048,-0.000006,-0.009968,-0.000010, 0.000019, 0.000190,-0.372124,-0.045543, 0.035961,1,-0.001972, 0.003206, 0.019242,1, 0.004344, 0.000189,-0.995731,-0.001635, 0.002621, 0.019067, 0.020345,-0.113546,-0.150583,-0.000000, 0.000000,-0.000000,1,0
1777416746409838695,1585574000000,  1585.574, 0.000048, 0.000009,-0.009961,-0.000009, 0.000033, 0.000183,-0.371982,-0.049255, 0.033901,1,-0.001337, 0.002844, 0.019007,1, 0.004471, 0.000923,-0.995692,-0.001140, 0.003062, 0.018667, 0.020681,-0.113469,-0.149423,-0.000000, 0.000000,-0.000000,1,0
1777416746419544214,1585594000000,  1585.594, 0.000052,-0.000007,-0.009956,-0.000010, 0.000022, 0.000190,-0.369790,-0.047983, 0.028031,1,-0.001385, 0.002796, 0.018894,1, 0.004785, 0.000033,-0.995835,-0.001197, 0.002540, 0.018913, 0.021258,-0.113605,-0.149983,-0.000000, 0.000000,-0.000000,1,0
1777416746429627957,1585594000000,  1585.594, 0.000052,-0.000007,-0.009956,-0.000010, 0.000022, 0.000190,-0.369790,-0.047983, 0.028031,1,-0.001385, 0.002796, 0.018894,1, 0.004785, 0.000033,-0.995835,-0.001197, 0.002540, 0.018913, 0.021258,-0.113605,-0.149983,-0.000000, 0.000000,-0.000000,1,0
1777416746439295737,1585614000000,  1585.614, 0.000050, 0.000011,-0.009952,-0.000015, 0.000031, 0.000186,-0.365272,-0.048599, 0.028333,1,-0.001084, 0.002690, 0.018915,1, 0.005013, 0.000940,-0.995738,-0.001288, 0.002831, 0.018767, 0.020875,-0.113075,-0.150693,-0.000000, 0.000000,-0.000000,1,0
1777416746449379092,1585614000000,  1585.614, 0.000050, 0.000011,-0.009952,-0.000015, 0.000031, 0.000186,-0.365272,-0.048599, 0.028333,1,-0.001084, 0.002690, 0.018915,1, 0.005013, 0.000940,-0.995738,-0.001288, 0.002831, 0.018767, 0.020875,-0.113075,-0.150693,-0.000000, 0.000000,-0.000000,1,0
1777416746469051378,1585634000000,  1585.634, 0.000046,-0.000006,-0.009946,-0.000011, 0.000025, 0.000183,-0.365404,-0.050352, 0.031108,1,-0.001186, 0.002826, 0.018675,1, 0.004776,-0.000059,-0.995222,-0.001179, 0.002739, 0.018460, 0.020493,-0.113582,-0.151508,-0.000000, 0.000000,-0.000000,1,0
1777416746488846066,1585654000000,  1585.654, 0.000041,-0.000001,-0.009950,-0.000010, 0.000029, 0.000181,-0.369275,-0.058977, 0.028808,1,-0.001490, 0.002852, 0.018357,1, 0.004404,-0.000233,-0.995610,-0.001327, 0.002898, 0.018253, 0.020286,-0.113704,-0.150169,-0.000000, 0.000000,-0.000000,1,0
1777416746498478829,1585664000000,  1585.669, 0.000040, 0.000008,-0.009969,-0.000020, 0.000027, 0.000179,-0.374004,-0.053215, 0.028285,1,-0.001646, 0.002836, 0.018143,1, 0.004208, 0.000218,-0.996203,-0.001646, 0.002836, 0.018143, 0.020540,-0.113296,-0.149863,-0.000000, 0.000000,-0.000000,1,0
1777416746508562276,1585664000000,  1585.669, 0.000040, 0.000008,-0.009969,-0.000020, 0.000027, 0.000179,-0.374004,-0.053215, 0.028285,1,-0.001646, 0.002836, 0.018143,1, 0.004208, 0.000218,-0.996203,-0.001646, 0.002836, 0.018143, 0.020540,-0.113296,-0.149863,-0.000000, 0.000000,-0.000000,1,0
1777416746518235703,1585684000000,  1585.689, 0.000042, 0.000007,-0.009969,-0.000015, 0.000029, 0.000177,-0.375105,-0.049715, 0.030865,1,-0.001579, 0.003075, 0.017806,1, 0.004052, 0.000602,-0.995941,-0.001579, 0.003075, 0.017806, 0.020027,-0.113531,-0.150984,-0.000000, 0.000000,-0.000000,1,0
1777416746528319817,1585684000000,  1585.689, 0.000042, 0.000007,-0.009969,-0.000015, 0.000029, 0.000177,-0.375105,-0.049715, 0.030865,1,-0.001579, 0.003075, 0.017806,1, 0.004052, 0.000602,-0.995941,-0.001579, 0.003075, 0.017806, 0.020027,-0.113531,-0.150984,-0.000000, 0.000000,-0.000000,1,0
1777416746548055156,1585704000000,  1585.709, 0.000053, 0.000016,-0.009961,-0.000019, 0.000031, 0.000174,-0.355864,-0.046016, 0.033102,1,-0.001785, 0.003208, 0.017607,1, 0.004875, 0.001097,-0.995760,-0.001785, 0.003209, 0.017606, 0.020331,-0.113592,-0.151081,-0.000000, 0.000000,-0.000000,1,0
1777416746567789884,1585724000000,  1585.729, 0.000051, 0.000036,-0.009955,-0.000012, 0.000039, 0.000178,-0.350143,-0.032705, 0.032682,1,-0.001527, 0.003552, 0.017725,1, 0.005172, 0.002505,-0.995814,-0.001527, 0.003552, 0.017725, 0.021214,-0.113573,-0.149543,-0.000000, 0.000000,-0.000000,1,0
1777416746577435294,1585744000000,  1585.749, 0.000064, 0.000042,-0.009947,-0.000016, 0.000031, 0.000184,-0.342327,-0.020085, 0.036267,1,-0.001402, 0.003589, 0.018050,1, 0.005940, 0.003814,-0.995450,-0.001402, 0.003589, 0.018050, 0.021322,-0.113420,-0.150029,-0.000000, 0.000000,-0.000000,1,0
1777416746587518741,1585744000000,  1585.749, 0.000064, 0.000042,-0.009947,-0.000016, 0.000031, 0.000184,-0.342327,-0.020085, 0.036267,1,-0.001402, 0.003589, 0.018050,1, 0.005940, 0.003814,-0.995450,-0.001402, 0.003589, 0.018050, 0.021322,-0.113420,-0.150029,-0.000000, 0.000000,-0.000000,1,0
1777416746597189132,1585764000000,  1585.769, 0.000060, 0.000031,-0.009952,-0.000010, 0.000028, 0.000192,-0.342109,-0.023371, 0.034874,1,-0.001175, 0.003137, 0.018846,1, 0.006001, 0.003491,-0.995590,-0.001175, 0.003138, 0.018846, 0.020657,-0.113226,-0.150068,-0.000000, 0.000000,-0.000000,1,0
1777416746607273487,1585764000000,  1585.769, 0.000060, 0.000031,-0.009952,-0.000010, 0.000028, 0.000192,-0.342109,-0.023371, 0.034874,1,-0.001175, 0.003137, 0.018846,1, 0.006001, 0.003491,-0.995590,-0.001175, 0.003138, 0.018846, 0.020657,-0.113226,-0.150068,-0.000000, 0.000000,-0.000000,1,0
1777416746627059693,1585784000000,  1585.789, 0.000048, 0.000013,-0.009954,-0.000009, 0.000029, 0.000202,-0.350141,-0.036727, 0.034862,1,-0.001015, 0.003066, 0.019776,1, 0.005238, 0.002139,-0.995589,-0.001015, 0.003066, 0.019776, 0.020215,-0.113361,-0.150517,-0.000000, 0.000000,-0.000000,1,0
1777416746646737794,1585804000000,  1585.809, 0.000048,-0.000002,-0.009961,-0.000012, 0.000038, 0.000197,-0.353816,-0.052747, 0.032260,1,-0.001084, 0.003460, 0.019763,1, 0.004926, 0.000512,-0.995852,-0.001084, 0.003460, 0.019763, 0.020461,-0.113583,-0.150507,-0.000000, 0.000000,-0.000000,1,0
1777416746656459331,1585824000000,  1585.829, 0.000042,-0.000012,-0.009962,-0.000011, 0.000030, 0.000191,-0.359071,-0.062960, 0.032384,1,-0.001141, 0.003224, 0.019551,1, 0.004457,-0.000524,-0.995836,-0.001141, 0.003224, 0.019551, 0.021373,-0.113975,-0.149794,-0.000000, 0.000000,-0.000000,1,0
1777416746666544463,1585824000000,  1585.829, 0.000042,-0.000012,-0.009962,-0.000011, 0.000030, 0.000191,-0.359071,-0.062960, 0.032384,1,-0.001141, 0.003224, 0.019551,1, 0.004457,-0.000524,-0.995836,-0.001141, 0.003224, 0.019551, 0.021373,-0.113975,-0.149794,-0.000000, 0.000000,-0.000000,1,0
1777416746676124858,1585844000000,  1585.849, 0.000037,-0.000018,-0.009961,-0.000014, 0.000032, 0.000189,-0.364259,-0.070850, 0.031387,1,-0.001350, 0.003008, 0.018990,1, 0.003990,-0.001316,-0.995935,-0.001350, 0.003008, 0.018990, 0.021383,-0.113435,-0.150026,-0.000000, 0.000000,-0.000000,1,0
1777416746686209453,1585844000000,  1585.849, 0.000037,-0.000018,-0.009961,-0.000014, 0.000032, 0.000189,-0.364259,-0.070850, 0.031387,1,-0.001350, 0.003008, 0.018990,1, 0.003990,-0.001316,-0.995935,-0.001350, 0.003008, 0.018990, 0.021383,-0.113435,-0.150026,-0.000000, 0.000000,-0.000000,1,0
1777416746701756809,1585864000000,  1585.869, 0.000036,-0.000014,-0.009961,-0.000008, 0.000037, 0.000185,-0.367573,-0.070318, 0.031529,1,-0.001092, 0.003374, 0.018649,1, 0.003719,-0.001250,-0.995918,-0.001092, 0.003374, 0.018649, 0.020645,-0.113301,-0.151317,-0.000000, 0.000000,-0.000000,1,0
1777416746711456458,1585884000000,  1585.889, 0.000040,-0.000004,-0.009956,-0.000012, 0.000032, 0.000174,-0.366664,-0.064784, 0.032819,1,-0.001091, 0.003274, 0.017881,1, 0.003774,-0.000669,-0.995788,-0.001091, 0.003275, 0.017881, 0.020625,-0.113269,-0.151764,-0.000000, 0.000000,-0.000000,1,0
1777416746721539942,1585884000000,  1585.889, 0.000040,-0.000004,-0.009956,-0.000012, 0.000032, 0.000174,-0.366664,-0.064784, 0.032819,1,-0.001091, 0.003274, 0.017881,1, 0.003774,-0.000669,-0.995788,-0.001091, 0.003275, 0.017881, 0.020625,-0.113269,-0.151764,-0.000000, 0.000000,-0.000000,1,0
1777416746731203240,1585904000000,  1585.904, 0.000046, 0.000009,-0.009955,-0.000014, 0.000027, 0.000172,-0.350217,-0.055715, 0.034600,1,-0.001398, 0.002992, 0.017415,1, 0.004304, 0.000371,-0.995652,-0.001398, 0.002992, 0.017415, 0.020872,-0.113435,-0.151190,-0.000000, 0.000000,-0.000000,1,0
1777416746741286910,1585904000000,  1585.904, 0.000046, 0.000009,-0.009955,-0.000014, 0.000027, 0.000172,-0.350217,-0.055715, 0.034600,1,-0.001398, 0.002992, 0.017415,1, 0.004304, 0.000371,-0.995652,-0.001398, 0.002992, 0.017415, 0.020872,-0.113435,-0.151190,-0.000000, 0.000000,-0.000000,1,0
1777416746760688485,1585924000000,  1585.924, 0.000050, 0.000026,-0.009953,-0.000016, 0.000033, 0.000173,-0.343146,-0.042111, 0.032643,1,-0.001492, 0.003072, 0.017339,1, 0.004727, 0.001805,-0.995863,-0.001492, 0.003072, 0.017339, 0.021378,-0.113557,-0.150335,-0.000000, 0.000000,-0.000000,1,0
1777416746770383801,1585944000000,  1585.944, 0.000058, 0.000031,-0.009954,-0.000015, 0.000034, 0.000179,-0.338304,-0.038025, 0.029777,1,-0.001425, 0.002792, 0.017333,1, 0.005480, 0.002665,-0.995805,-0.001498, 0.003146, 0.017622, 0.021707,-0.113429,-0.149907,-0.000000, 0.000000,-0.000000,1,0
1777416746780467304,1585944000000,  1585.944, 0.000058, 0.000031,-0.009954,-0.000015, 0.000034, 0.000179,-0.338304,-0.038025, 0.029777,1,-0.001425, 0.002792, 0.017333,1, 0.005480, 0.002665,-0.995805,-0.001498, 0.003146, 0.017622, 0.021707,-0.113429,-0.149907,-0.000000, 0.000000,-0.000000,1,0
1777416746790087197,1585964000000,  1585.964, 0.000059, 0.000036,-0.009959,-0.000013, 0.000033, 0.000184,-0.333721,-0.032925, 0.035727,1,-0.001212, 0.002914, 0.017776,1, 0.005753, 0.003154,-0.995728,-0.001270, 0.003084, 0.018074, 0.021228,-0.113559,-0.150525,-0.000000, 0.000000,-0.000000,1,0
1777416746800171440,1585964000000,  1585.964, 0.000059, 0.000036,-0.009959,-0.000013, 0.000033, 0.000184,-0.333721,-0.032925, 0.035727,1,-0.001212, 0.002914, 0.017776,1, 0.005753, 0.003154,-0.995728,-0.001270, 0.003084, 0.018074, 0.021228,-0.113559,-0.150525,-0.000000, 0.000000,-0.000000,1,0
1777416746819886354,1585984000000,  1585.984, 0.000049, 0.000024,-0.009960,-0.000018, 0.000028, 0.000189,-0.332452,-0.031982, 0.033374,1,-0.001169, 0.003327, 0.018435,1, 0.005399, 0.002673,-0.995914,-0.001463, 0.003078, 0.018710, 0.020254,-0.113202,-0.152060,-0.000000, 0.000000,-0.000000,1,0
1777416746829575503,1586004000000,  1586.004, 0.000050, 0.000014,-0.009966,-0.000012, 0.000025, 0.000190,-0.338379,-0.036403, 0.032150,1,-0.001363, 0.003488, 0.019046,1, 0.005192, 0.001962,-0.996274,-0.001252, 0.003035, 0.019053, 0.020120,-0.113502,-0.151397,-0.000000, 0.000000,-0.000000,1,0
1777416746839660339,1586004000000,  1586.004, 0.000050, 0.000014,-0.009966,-0.000012, 0.000025, 0.000190,-0.338379,-0.036403, 0.032150,1,-0.001363, 0.003488, 0.019046,1, 0.005192, 0.001962,-0.996274,-0.001252, 0.003035, 0.019053, 0.020120,-0.113502,-0.151397,-0.000000, 0.000000,-0.000000,1,0
1777416746849421745,1586024000000,  1586.024, 0.000046, 0.000011,-0.009961,-0.000013, 0.000031, 0.000193,-0.342183,-0.041162, 0.029051,1,-0.001720, 0.003165, 0.019060,1, 0.004832, 0.001530,-0.996091,-0.001512, 0.003191, 0.019216, 0.021285,-0.114096,-0.150152,-0.000000, 0.000000,-0.000000,1,0
1777416746859540190,1586024000000,  1586.024, 0.000046, 0.000011,-0.009961,-0.000013, 0.000031, 0.000193,-0.342183,-0.041162, 0.029051,1,-0.001720, 0.003165, 0.019060,1, 0.004832, 0.001530,-0.996091,-0.001512, 0.003191, 0.019216, 0.021285,-0.114096,-0.150152,-0.000000, 0.000000,-0.000000,1,0
1777416746869037848,1586044000000,  1586.044, 0.000049, 0.000004,-0.009959,-0.000011, 0.000029, 0.000195,-0.344572,-0.048451, 0.032808,1,-0.001460, 0.002896, 0.019098,1, 0.004866, 0.000834,-0.995819,-0.001286, 0.002969, 0.019297, 0.021567,-0.113769,-0.150012,-0.000000, 0.000000,-0.000000,1,0
1777416746879123054,1586044000000,  1586.044, 0.000049, 0.000004,-0.009959,-0.000011, 0.000029, 0.000195,-0.344572,-0.048451, 0.032808,1,-0.001460, 0.002896, 0.019098,1, 0.004866, 0.000834,-0.995819,-0.001286, 0.002969, 0.019297, 0.021567,-0.113769,-0.150012,-0.000000, 0.000000,-0.000000,1,0
1777416746898834931,1586064000000,  1586.064, 0.000050,-0.000003,-0.009957,-0.000012, 0.000033, 0.000186,-0.343379,-0.056408, 0.032331,1,-0.001423, 0.002722, 0.019152,1, 0.004960, 0.000100,-0.995719,-0.001341, 0.003029, 0.018931, 0.021165,-0.113263,-0.150663,-0.000000, 0.000000,-0.000000,1,0
1777416746908526506,1586084000000,  1586.084, 0.000044,-0.000003,-0.009950,-0.000010, 0.000023, 0.000182,-0.345451,-0.062920, 0.030918,1,-0.001408, 0.003203, 0.018931,1, 0.004666,-0.000201,-0.995580,-0.001247, 0.002747, 0.018592, 0.020228,-0.113695,-0.152612,-0.000000, 0.000000,-0.000000,1,0
1777416746918613472,1586084000000,  1586.084, 0.000044,-0.000003,-0.009950,-0.000010, 0.000023, 0.000182,-0.345451,-0.062920, 0.030918,1,-0.001408, 0.003203, 0.018931,1, 0.004666,-0.000201,-0.995580,-0.001247, 0.002747, 0.018592, 0.020228,-0.113695,-0.152612,-0.000000, 0.000000,-0.000000,1,0
1777416746928282381,1586094000000,  1586.099, 0.000039,-0.000001,-0.009961,-0.000011, 0.000025, 0.000185,-0.342039,-0.063099, 0.032971,1,-0.001245, 0.002671, 0.018562,1, 0.004330,-0.000143,-0.995849,-0.001245, 0.002671, 0.018562, 0.021776,-0.113919,-0.150609,-0.000000, 0.000000,-0.000000,1,0
1777416746938366624,1586094000000,  1586.099, 0.000039,-0.000001,-0.009961,-0.000011, 0.000025, 0.000185,-0.342039,-0.063099, 0.032971,1,-0.001245, 0.002671, 0.018562,1, 0.004330,-0.000143,-0.995849,-0.001245, 0.002671, 0.018562, 0.021776,-0.113919,-0.150609,-0.000000, 0.000000,-0.000000,1,0
1777416746948039330,1586114000000,  1586.119, 0.000040,-0.000001,-0.009967,-0.000011, 0.000032, 0.000181,-0.339518,-0.063762, 0.031909,1,-0.001207, 0.003083, 0.018283,1, 0.003990,-0.000147,-0.995980,-0.001207, 0.003083, 0.018283, 0.021330,-0.113489,-0.150498,-0.000000, 0.000000,-0.000000,1,0
1777416746958124277,1586114000000,  1586.119, 0.000040,-0.000001,-0.009967,-0.000011, 0.000032, 0.000181,-0.339518,-0.063762, 0.031909,1,-0.001207, 0.003083, 0.018283,1, 0.003990,-0.000147,-0.995980,-0.001207, 0.003083, 0.018283, 0.021330,-0.113489,-0.150498,-0.000000, 0.000000,-0.000000,1,0
1777416746977773694,1586134000000,  1586.139, 0.000042, 0.000004,-0.009960,-0.000015, 0.000025, 0.000176,-0.336667,-0.060835, 0.034311,1,-0.001189, 0.002802, 0.017997,1, 0.004148, 0.000175,-0.995740,-0.001189, 0.002803, 0.017997, 0.020656,-0.113268,-0.150957,-0.000000, 0.000000,-0.000000,1,0
1777416746987477472,1586154000000,  1586.159, 0.000051, 0.000010,-0.009963,-0.000016, 0.000031, 0.000176,-0.331389,-0.053982, 0.031291,1,-0.001414, 0.003003, 0.017788,1, 0.004689, 0.000888,-0.996048,-0.001414, 0.003004, 0.017788, 0.020349,-0.113417,-0.151086,-0.000000, 0.000000,-0.000000,1,0
1777416746997561512,1586154000000,  1586.159, 0.000051, 0.000010,-0.009963,-0.000016, 0.000031, 0.000176,-0.331389,-0.053982, 0.031291,1,-0.001414, 0.003003, 0.017788,1, 0.004689, 0.000888,-0.996048,-0.001414, 0.003004, 0.017788, 0.020349,-0.113417,-0.151086,-0.000000, 0.000000,-0.000000,1,0
1777416747007234717,1586174000000,  1586.179, 0.000051, 0.000021,-0.009963,-0.000016, 0.000022, 0.000179,-0.327423,-0.045909, 0.030446,1,-0.001456, 0.002579, 0.017948,1, 0.005137, 0.001728,-0.996132,-0.001456, 0.002579, 0.017948, 0.020932,-0.113407,-0.149301,-0.000000, 0.000000,-0.000000,1,0
1777416747017320812,1586174000000,  1586.179, 0.000051, 0.000021,-0.009963,-0.000016, 0.000022, 0.000179,-0.327423,-0.045909, 0.030446,1,-0.001456, 0.002579, 0.017948,1, 0.005137, 0.001728,-0.996132,-0.001456, 0.002579, 0.017948, 0.020932,-0.113407,-0.149301,-0.000000, 0.000000,-0.000000,1,0
1777416747027044478,1586194000000,  1586.199, 0.000050, 0.000028,-0.009961,-0.000012, 0.000033, 0.000181,-0.327339,-0.040955, 0.031968,1,-0.001027, 0.003128, 0.017980,1, 0.005200, 0.002244,-0.995975,-0.001028, 0.003129, 0.017980, 0.021698,-0.113346,-0.149756,-0.000000, 0.000000,-0.000000,1,0
1777416747037129092,1586194000000,  1586.199, 0.000050, 0.000028,-0.009961,-0.000012, 0.000033, 0.000181,-0.327339,-0.040955, 0.031968,1,-0.001027, 0.003128, 0.017980,1, 0.005200, 0.002244,-0.995975,-0.001028, 0.003129, 0.017980, 0.021698,-0.113346,-0.149756,-0.000000, 0.000000,-0.000000,1,0
1777416747056797322,1586214000000,  1586.219, 0.000063, 0.000021,-0.009980,-0.000007, 0.000035, 0.000190,-0.322184,-0.041184, 0.021154,1,-0.000908, 0.003367, 0.018505,1, 0.005789, 0.002225,-0.997075,-0.000908, 0.003367, 0.018505, 0.021388,-0.113517,-0.150762,-0.000000, 0.000000,-0.000000,1,0
1777416747066418085,1586234000000,  1586.239, 0.000054, 0.000030,-0.009955,-0.000012, 0.000036, 0.000187,-0.329649,-0.034451, 0.036242,1,-0.001211, 0.003478, 0.018760,1, 0.005092, 0.002919,-0.995534,-0.001211, 0.003478, 0.018760, 0.020364,-0.113549,-0.151780,-0.000000, 0.000000,-0.000000,1,0
1777416747076502254,1586234000000,  1586.239, 0.000054, 0.000030,-0.009955,-0.000012, 0.000036, 0.000187,-0.329649,-0.034451, 0.036242,1,-0.001211, 0.003478, 0.018760,1, 0.005092, 0.002919,-0.995534,-0.001211, 0.003478, 0.018760, 0.020364,-0.113549,-0.151780,-0.000000, 0.000000,-0.000000,1,0
1777416747086179219,1586254000000,  1586.259, 0.000040,-0.000002,-0.009968,-0.000011, 0.000029, 0.000194,-0.333266,-0.054212, 0.028963,1,-0.001053, 0.003323, 0.019159,1, 0.004794, 0.000915,-0.996274,-0.001054, 0.003323, 0.019159, 0.020732,-0.113811,-0.150506,-0.000000, 0.000000,-0.000000,1,0
1777416747096263962,1586254000000,  1586.259, 0.000040,-0.000002,-0.009968,-0.000011, 0.000029, 0.000194,-0.333266,-0.054212, 0.028963,1,-0.001053, 0.003323, 0.019159,1, 0.004794, 0.000915,-0.996274,-0.001054, 0.003323, 0.019159, 0.020732,-0.113811,-0.150506,-0.000000, 0.000000,-0.000000,1,0
1777416747111799336,1586274000000,  1586.279, 0.000041, 0.000010,-0.009947,-0.000013, 0.000032, 0.000189,-0.339431,-0.056012, 0.035863,1,-0.001262, 0.003099, 0.019174,1, 0.004231, 0.000740,-0.995567,-0.001262, 0.003099, 0.019174, 0.021208,-0.113801,-0.149416,-0.000000, 0.000000,-0.000000,1,0
1777416747121499356,1586294000000,  1586.299, 0.000049, 0.000002,-0.009958,-0.000020, 0.000028, 0.000186,-0.326951,-0.059924, 0.035105,1,-0.001588, 0.002912, 0.018861,1, 0.004679, 0.000437,-0.995675,-0.001588, 0.002912, 0.018861, 0.021328,-0.113824,-0.149265,-0.000000, 0.000000,-0.000000,1,0
1777416747131605764,1586294000000,  1586.299, 0.000049, 0.000002,-0.009958,-0.000020, 0.000028, 0.000186,-0.326951,-0.059924, 0.035105,1,-0.001588, 0.002912, 0.018861,1, 0.004679, 0.000437,-0.995675,-0.001588, 0.002912, 0.018861, 0.021328,-0.113824,-0.149265,-0.000000, 0.000000,-0.000000,1,0
1777416747141249953,1586314000000,  1586.314, 0.000050, 0.000003,-0.009958,-0.000016, 0.000038, 0.000182,-0.317473,-0.063038, 0.032857,1,-0.001584, 0.003403, 0.018547,1, 0.005056, 0.000198,-0.995927,-0.001585, 0.003403, 0.018547, 0.021183,-0.113391,-0.150915,-0.000000, 0.000000,-0.000000,1,0
1777416747151334603,1586314000000,  1586.314, 0.000050, 0.000003,-0.009958,-0.000016, 0.000038, 0.000182,-0.317473,-0.063038, 0.032857,1,-0.001584, 0.003403, 0.018547,1, 0.005056, 0.000198,-0.995927,-0.001585, 0.003403, 0.018547, 0.021183,-0.113391,-0.150915,-0.000000, 0.000000,-0.000000,1,0
1777416747161058954,1586334000000,  1586.334, 0.000051, 0.000001,-0.009953,-0.000015, 0.000035, 0.000184,-0.314662,-0.063864, 0.034967,1,-0.001559, 0.003184, 0.018519,1, 0.005215, 0.000149,-0.995716,-0.001559, 0.003184, 0.018519, 0.020326,-0.113203,-0.151845,-0.000000, 0.000000,-0.000000,1,0
1777416747171141883,1586334000000,  1586.334, 0.000051, 0.000001,-0.009953,-0.000015, 0.000035, 0.000184,-0.314662,-0.063864, 0.034967,1,-0.001559, 0.003184, 0.018519,1, 0.005215, 0.000149,-0.995716,-0.001559, 0.003184, 0.018519, 0.020326,-0.113203,-0.151845,-0.000000, 0.000000,-0.000000,1,0
1777416747190434740,1586354000000,  1586.354, 0.000043, 0.000004,-0.009957,-0.000015, 0.000028, 0.000178,-0.316799,-0.063039, 0.034449,1,-0.001815, 0.002984, 0.017918,1, 0.004652, 0.000341,-0.995771,-0.001614, 0.002893, 0.017904, 0.020248,-0.113561,-0.151274,-0.000000, 0.000000,-0.000000,1,0
1777416747200125371,1586374000000,  1586.374, 0.000040, 0.000011,-0.009954,-0.000014, 0.000029, 0.000184,-0.321389,-0.056985, 0.030830,1,-0.001745, 0.002782, 0.018093,1, 0.004286, 0.000971,-0.995837,-0.001611, 0.002830, 0.018172, 0.021074,-0.113609,-0.150011,-0.000000, 0.000000,-0.000000,1,0
1777416747210208966,1586374000000,  1586.374, 0.000040, 0.000011,-0.009954,-0.000014, 0.000029, 0.000184,-0.321389,-0.056985, 0.030830,1,-0.001745, 0.002782, 0.018093,1, 0.004286, 0.000971,-0.995837,-0.001611, 0.002830, 0.018172, 0.021074,-0.113609,-0.150011,-0.000000, 0.000000,-0.000000,1,0
1777416747229917620,1586384000000,  1586.389, 0.000045, 0.000016,-0.009965,-0.000013, 0.000030, 0.000182,-0.323486,-0.053414, 0.030998,1,-0.001469, 0.002963, 0.018193,1, 0.004388, 0.001270,-0.996118,-0.001469, 0.002964, 0.018193, 0.020149,-0.112951,-0.151149,-0.000000, 0.000000,-0.000000,1,0
1777416747239615454,1586414000000,  1586.414, 0.000052, 0.000021,-0.009963,-0.000014, 0.000031, 0.000183,-0.322025,-0.049140, 0.033223,1,-0.001180, 0.002787, 0.018353,1, 0.004885, 0.001888,-0.996096,-0.001283, 0.002896, 0.018335, 0.020665,-0.113398,-0.150205,-0.000000, 0.000000,-0.000000,1,0
1777416747249699160,1586414000000,  1586.414, 0.000052, 0.000021,-0.009963,-0.000014, 0.000031, 0.000183,-0.322025,-0.049140, 0.033223,1,-0.001180, 0.002787, 0.018353,1, 0.004885, 0.001888,-0.996096,-0.001283, 0.002896, 0.018335, 0.020665,-0.113398,-0.150205,-0.000000, 0.000000,-0.000000,1,0
1777416747259313924,1586434000000,  1586.434, 0.000055, 0.000024,-0.009961,-0.000012, 0.000031, 0.000187,-0.316178,-0.045483, 0.034362,1,-0.001250, 0.003016, 0.018326,1, 0.005361, 0.002223,-0.995911,-0.001200, 0.003029, 0.018535, 0.020191,-0.113879,-0.151375,-0.000000, 0.000000,-0.000000,1,0
1777416747269397686,1586434000000,  1586.434, 0.000055, 0.000024,-0.009961,-0.000012, 0.000031, 0.000187,-0.316178,-0.045483, 0.034362,1,-0.001250, 0.003016, 0.018326,1, 0.005361, 0.002223,-0.995911,-0.001200, 0.003029, 0.018535, 0.020191,-0.113879,-0.151375,-0.000000, 0.000000,-0.000000,1,0
1777416747279071317,1586454000000,  1586.454, 0.000055, 0.000020,-0.009960,-0.000015, 0.000030, 0.000193,-0.314858,-0.045329, 0.034115,1,-0.001736, 0.003149, 0.018891,1, 0.005463, 0.002057,-0.995880,-0.001577, 0.003098, 0.019082, 0.019963,-0.113793,-0.151415,-0.000000, 0.000000,-0.000000,1,0
1777416747289172467,1586454000000,  1586.454, 0.000055, 0.000020,-0.009960,-0.000015, 0.000030, 0.000193,-0.314858,-0.045329, 0.034115,1,-0.001736, 0.003149, 0.018891,1, 0.005463, 0.002057,-0.995880,-0.001577, 0.003098, 0.019082, 0.019963,-0.113793,-0.151415,-0.000000, 0.000000,-0.000000,1,0
1777416747308878732,1586474000000,  1586.474, 0.000053, 0.000017,-0.009955,-0.000012, 0.000029, 0.000195,-0.314853,-0.048106, 0.034533,1,-0.001511, 0.003420, 0.019298,1, 0.005400, 0.001747,-0.995648,-0.001398, 0.003260, 0.019412, 0.021014,-0.114035,-0.150191,-0.000000, 0.000000,-0.000000,1,0
1777416747318136141,1586484000000,  1586.489, 0.000046, 0.000013,-0.009961,-0.000014, 0.000023, 0.000199,-0.319138,-0.051369, 0.033330,1,-0.001467, 0.002825, 0.019684,1, 0.005036, 0.001558,-0.995872,-0.001467, 0.002825, 0.019684, 0.020299,-0.113919,-0.151716,-0.000000, 0.000000,-0.000000,1,0
1777416747328219792,1586484000000,  1586.489, 0.000046, 0.000013,-0.009961,-0.000014, 0.000023, 0.000199,-0.319138,-0.051369, 0.033330,1,-0.001467, 0.002825, 0.019684,1, 0.005036, 0.001558,-0.995872,-0.001467, 0.002825, 0.019684, 0.020299,-0.113919,-0.151716,-0.000000, 0.000000,-0.000000,1,0
1777416747347960519,1586504000000,  1586.509, 0.000041, 0.000005,-0.009962,-0.000014, 0.000035, 0.000193,-0.312578,-0.059426, 0.032683,1,-0.001165, 0.003337, 0.019425,1, 0.004560, 0.000870,-0.995979,-0.001165, 0.003337, 0.019425, 0.020268,-0.113814,-0.151623,-0.000000, 0.000000,-0.000000,1,0
1777416747357625854,1586524000000,  1586.529, 0.000046, 0.000019,-0.009957,-0.000012, 0.000046, 0.000186,-0.310292,-0.058352, 0.032362,1,-0.001082, 0.004038, 0.019006,1, 0.004510, 0.001025,-0.996022,-0.001082, 0.004038, 0.019006, 0.020767,-0.113899,-0.149966,-0.000000, 0.000000,-0.000000,1,0
1777416747367710301,1586524000000,  1586.529, 0.000046, 0.000019,-0.009957,-0.000012, 0.000046, 0.000186,-0.310292,-0.058352, 0.032362,1,-0.001082, 0.004038, 0.019006,1, 0.004510, 0.001025,-0.996022,-0.001082, 0.004038, 0.019006, 0.020767,-0.113899,-0.149966,-0.000000, 0.000000,-0.000000,1,0
1777416747377320861,1586544000000,  1586.549, 0.000054, 0.000048,-0.009961,-0.000010, 0.000036, 0.000200,-0.303507,-0.036304, 0.032634,1,-0.001034, 0.003904, 0.019443,1, 0.005179, 0.003292,-0.995995,-0.001034, 0.003904, 0.019443, 0.021387,-0.113561,-0.149738,-0.000000, 0.000000,-0.000000,1,0
1777416747387405493,1586544000000,  1586.549, 0.000054, 0.000048,-0.009961,-0.000010, 0.000036, 0.000200,-0.303507,-0.036304, 0.032634,1,-0.001034, 0.003904, 0.019443,1, 0.005179, 0.003292,-0.995995,-0.001034, 0.003904, 0.019443, 0.021387,-0.113561,-0.149738,-0.000000, 0.000000,-0.000000,1,0
1777416747397082921,1586564000000,  1586.569, 0.000055, 0.000079,-0.009959,-0.000003, 0.000032, 0.000207,-0.300568,-0.006077, 0.034822,1,-0.000412, 0.003582, 0.020266,1, 0.005528, 0.006377,-0.995770,-0.000413, 0.003582, 0.020266, 0.020850,-0.113394,-0.150336,-0.000000, 0.000000,-0.000000,1,0
1777416747407166016,1586564000000,  1586.569, 0.000055, 0.000079,-0.009959,-0.000003, 0.000032, 0.000207,-0.300568,-0.006077, 0.034822,1,-0.000412, 0.003582, 0.020266,1, 0.005528, 0.006377,-0.995770,-0.000413, 0.003582, 0.020266, 0.020850,-0.113394,-0.150336,-0.000000, 0.000000,-0.000000,1,0
1777416747426878966,1586584000000,  1586.589, 0.000056,-0.000046,-0.009973,-0.000017, 0.000021, 0.000224,-0.298808,-0.061396, 0.028817,1,-0.001047, 0.002667, 0.021667,1, 0.005763, 0.000735,-0.996380,-0.001047, 0.002667, 0.021667, 0.020529,-0.113172,-0.151469,-0.000000, 0.000000,-0.000000,1,0
1777416747436577800,1586604000000,  1586.609, 0.000050,-0.000088,-0.009979,-0.000003, 0.000034, 0.000202,-0.303161,-0.129498, 0.025945,1,-0.000641, 0.002940, 0.020826,1, 0.005371,-0.006207,-0.996671,-0.000641, 0.002940, 0.020826, 0.019832,-0.113645,-0.151097,-0.000000, 0.000000,-0.000000,1,0
1777416747446676209,1586604000000,  1586.609, 0.000050,-0.000088,-0.009979,-0.000003, 0.000034, 0.000202,-0.303161,-0.129498, 0.025945,1,-0.000641, 0.002940, 0.020826,1, 0.005371,-0.006207,-0.996671,-0.000641, 0.002940, 0.020826, 0.019832,-0.113645,-0.151097,-0.000000, 0.000000,-0.000000,1,0
1777416747456281269,1586624000000,  1586.629, 0.000043,-0.000069,-0.009965,-0.000009, 0.000040, 0.000172,-0.310214,-0.135520, 0.032000,1,-0.000808, 0.003816, 0.018556,1, 0.004724,-0.006821,-0.996051,-0.000808, 0.003817, 0.018556, 0.020877,-0.113948,-0.150103,-0.000000, 0.000000,-0.000000,1,0
1777416747466364401,1586624000000,  1586.629, 0.000043,-0.000069,-0.009965,-0.000009, 0.000040, 0.000172,-0.310214,-0.135520, 0.032000,1,-0.000808, 0.003816, 0.018556,1, 0.004724,-0.006821,-0.996051,-0.000808, 0.003817, 0.018556, 0.020877,-0.113948,-0.150103,-0.000000, 0.000000,-0.000000,1,0
1777416747476094401,1586644000000,  1586.649, 0.000025,-0.000032,-0.009961,-0.000011, 0.000045, 0.000148,-0.325430,-0.117521, 0.035131,1,-0.001200, 0.004313, 0.016187,1, 0.003256,-0.004976,-0.995729,-0.001201, 0.004313, 0.016187, 0.021065,-0.113881,-0.149531,-0.000000, 0.000000,-0.000000,1,0
1777416747486178144,1586644000000,  1586.649, 0.000025,-0.000032,-0.009961,-0.000011, 0.000045, 0.000148,-0.325430,-0.117521, 0.035131,1,-0.001200, 0.004313, 0.016187,1, 0.003256,-0.004976,-0.995729,-0.001201, 0.004313, 0.016187, 0.021065,-0.113881,-0.149531,-0.000000, 0.000000,-0.000000,1,0
1777416747501641133,1586664000000,  1586.669, 0.000026, 0.000076,-0.009955,-0.000015, 0.000034, 0.000157,-0.329620,-0.037197, 0.037469,1,-0.001537, 0.003722, 0.015792,1, 0.002912, 0.003235,-0.995487,-0.001538, 0.003722, 0.015792, 0.020486,-0.113481,-0.150488,-0.000000, 0.000000,-0.000000,1,0
1777416747511350262,1586684000000,  1586.689, 0.000020, 0.000029,-0.009961,-0.000021, 0.000018, 0.000164,-0.335802,-0.039738, 0.037380,1,-0.002085, 0.002342, 0.016268,1, 0.002233, 0.003018,-0.995498,-0.002085, 0.002343, 0.016268, 0.019734,-0.113601,-0.151882,-0.000000, 0.000000,-0.000000,1,0
1777416747521432931,1586684000000,  1586.689, 0.000020, 0.000029,-0.009961,-0.000021, 0.000018, 0.000164,-0.335802,-0.039738, 0.037380,1,-0.002085, 0.002342, 0.016268,1, 0.002233, 0.003018,-0.995498,-0.002085, 0.002343, 0.016268, 0.019734,-0.113601,-0.151882,-0.000000, 0.000000,-0.000000,1,0
1777416747531102748,1586704000000,  1586.704, 0.000040, 0.000039,-0.009959,-0.000016, 0.000018, 0.000172,-0.314924,-0.035268, 0.036710,1,-0.001818, 0.001999, 0.016813,1, 0.003213, 0.003663,-0.995606,-0.001818, 0.001999, 0.016813, 0.019889,-0.113832,-0.151786,-0.000000, 0.000000,-0.000000,1,0
1777416747541186695,1586704000000,  1586.704, 0.000040, 0.000039,-0.009959,-0.000016, 0.000018, 0.000172,-0.314924,-0.035268, 0.036710,1,-0.001818, 0.001999, 0.016813,1, 0.003213, 0.003663,-0.995606,-0.001818, 0.001999, 0.016813, 0.019889,-0.113832,-0.151786,-0.000000, 0.000000,-0.000000,1,0
1777416747560586567,1586724000000,  1586.724, 0.000061, 0.000045,-0.009963,-0.000016, 0.000023, 0.000180,-0.306742,-0.032591, 0.034193,1,-0.001655, 0.002280, 0.017104,1, 0.004878, 0.004171,-0.996008,-0.001619, 0.002298, 0.017512, 0.020776,-0.113583,-0.150306,-0.000000, 0.000000,-0.000000,1,0
1777416747570223588,1586744000000,  1586.744, 0.000083, 0.000065,-0.009959,-0.000012, 0.000039, 0.000189,-0.282799,-0.023533, 0.027932,1,-0.001532, 0.002434, 0.018052,1, 0.007207, 0.005646,-0.996158,-0.001406, 0.003155, 0.018467, 0.021003,-0.113415,-0.149445,-0.000000, 0.000000,-0.000000,1,0
1777416747580306220,1586744000000,  1586.744, 0.000083, 0.000065,-0.009959,-0.000012, 0.000039, 0.000189,-0.282799,-0.023533, 0.027932,1,-0.001532, 0.002434, 0.018052,1, 0.007207, 0.005646,-0.996158,-0.001406, 0.003155, 0.018467, 0.021003,-0.113415,-0.149445,-0.000000, 0.000000,-0.000000,1,0
1777416747600031856,1586764000000,  1586.764, 0.000101, 0.000050,-0.009955,-0.000017, 0.000029, 0.000206,-0.257337,-0.016704, 0.028076,1,-0.001690, 0.003575, 0.019110,1, 0.009344, 0.005338,-0.995993,-0.001707, 0.003263, 0.019812, 0.020550,-0.113311,-0.149992,-0.000000, 0.000000,-0.000000,1,0
1777416747619777545,1586784000000,  1586.784, 0.000079, 0.000043,-0.009958,-0.000006, 0.000032, 0.000222,-0.250312,-0.019362, 0.037121,1,-0.001315, 0.003475, 0.020571,1, 0.008698, 0.004824,-0.995683,-0.001008, 0.003294, 0.021359, 0.020214,-0.113024,-0.151629,-0.000000, 0.000000,-0.000000,1,0
1777416747629477176,1586804000000,  1586.804, 0.000025,-0.000047,-0.009969,-0.000009, 0.000030, 0.000215,-0.276388,-0.053505, 0.039903,1,-0.000986, 0.002718, 0.021963,1, 0.004839,-0.001078,-0.996077,-0.000871, 0.002875, 0.021723, 0.020106,-0.113544,-0.152245,-0.000000, 0.000000,-0.000000,1,0
1777416747639561771,1586804000000,  1586.804, 0.000025,-0.000047,-0.009969,-0.000009, 0.000030, 0.000215,-0.276388,-0.053505, 0.039903,1,-0.000986, 0.002718, 0.021963,1, 0.004839,-0.001078,-0.996077,-0.000871, 0.002875, 0.021723, 0.020106,-0.113544,-0.152245,-0.000000, 0.000000,-0.000000,1,0
1777416747649179682,1586824000000,  1586.824,-0.000001,-0.000027,-0.009965,-0.000012, 0.000038, 0.000195,-0.316292,-0.097353, 0.032861,1,-0.000818, 0.002825, 0.021120,1, 0.001564,-0.002628,-0.996266,-0.001031, 0.003283, 0.020347, 0.021274,-0.113862,-0.150347,-0.000000, 0.000000,-0.000000,1,0
1777416747659272740,1586824000000,  1586.824,-0.000001,-0.000027,-0.009965,-0.000012, 0.000038, 0.000195,-0.316292,-0.097353, 0.032861,1,-0.000818, 0.002825, 0.021120,1, 0.001564,-0.002628,-0.996266,-0.001031, 0.003283, 0.020347, 0.021274,-0.113862,-0.150347,-0.000000, 0.000000,-0.000000,1,0
1777416747678975413,1586844000000,  1586.844, 0.000010,-0.000020,-0.009959,-0.000003, 0.000042, 0.000193,-0.335880,-0.100289, 0.036069,1,-0.001141, 0.003614, 0.020171,1, 0.001024,-0.002390,-0.995843,-0.000759, 0.003882, 0.019761, 0.021545,-0.113628,-0.149971,-0.000000, 0.000000,-0.000000,1,0
1777416747688675450,1586864000000,  1586.864, 0.000042,-0.000007,-0.009958,-0.000014, 0.000033, 0.000188,-0.328499,-0.090725, 0.035721,1,-0.000657, 0.003706, 0.019080,1, 0.002921,-0.001374,-0.995743,-0.001031, 0.003550, 0.018972, 0.020935,-0.113782,-0.149876,-0.000000, 0.000000,-0.000000,1,0
1777416747698758453,1586864000000,  1586.864, 0.000042,-0.000007,-0.009958,-0.000014, 0.000033, 0.000188,-0.328499,-0.090725, 0.035721,1,-0.000657, 0.003706, 0.019080,1, 0.002921,-0.001374,-0.995743,-0.001031, 0.003550, 0.018972, 0.020935,-0.113782,-0.149876,-0.000000, 0.000000,-0.000000,1,0
1777416747708427621,1586874000000,  1586.879, 0.000062,-0.000031,-0.009955,-0.000014, 0.000025, 0.000178,-0.303166,-0.094495, 0.036308,1,-0.001227, 0.003035, 0.018453,1, 0.004466,-0.002222,-0.995644,-0.001227, 0.003036, 0.018453, 0.021106,-0.113712,-0.149722,-0.000000, 0.000000,-0.000000,1,0
1777416747718510994,1586874000000,  1586.879, 0.000062,-0.000031,-0.009955,-0.000014, 0.000025, 0.000178,-0.303166,-0.094495, 0.036308,1,-0.001227, 0.003035, 0.018453,1, 0.004466,-0.002222,-0.995644,-0.001227, 0.003036, 0.018453, 0.021106,-0.113712,-0.149722,-0.000000, 0.000000,-0.000000,1,0
1777416747728121388,1586894000000,  1586.899, 0.000062,-0.000059,-0.009956,-0.000013, 0.000021, 0.000164,-0.283209,-0.120863, 0.035507,1,-0.001346, 0.002257, 0.017140,1, 0.005684,-0.004810,-0.995753,-0.001346, 0.002258, 0.017140, 0.021159,-0.113642,-0.149624,-0.000000, 0.000000,-0.000000,1,0
1777416747738204668,1586894000000,  1586.899, 0.000062,-0.000059,-0.009956,-0.000013, 0.000021, 0.000164,-0.283209,-0.120863, 0.035507,1,-0.001346, 0.002257, 0.017140,1, 0.005684,-0.004810,-0.995753,-0.001346, 0.002258, 0.017140, 0.021159,-0.113642,-0.149624,-0.000000, 0.000000,-0.000000,1,0
1777416747757980875,1586914000000,  1586.919, 0.000024,-0.000055,-0.009963,-0.000033, 0.000004, 0.000150,-0.292794,-0.121097, 0.033310,1,-0.002462, 0.001186, 0.015550,1, 0.004103,-0.004745,-0.995997,-0.002462, 0.001187, 0.015550, 0.021104,-0.113212,-0.150457,-0.000000, 0.000000,-0.000000,1,0
1777416747767614452,1586934000000,  1586.939, 0.000021, 0.000058,-0.009947,-0.000021, 0.000039, 0.000131,-0.295693,-0.084255, 0.031227,1,-0.002185, 0.002652, 0.014051,1, 0.003666,-0.000936,-0.996214,-0.002185, 0.002652, 0.014051, 0.020431,-0.113212,-0.151201,-0.000000, 0.000000,-0.000000,1,0
1777416747777697973,1586934000000,  1586.939, 0.000021, 0.000058,-0.009947,-0.000021, 0.000039, 0.000131,-0.295693,-0.084255, 0.031227,1,-0.002185, 0.002652, 0.014051,1, 0.003666,-0.000936,-0.996214,-0.002185, 0.002652, 0.014051, 0.020431,-0.113212,-0.151201,-0.000000, 0.000000,-0.000000,1,0
1777416747787369216,1586954000000,  1586.959, 0.000053, 0.000152,-0.009923,-0.000015, 0.000038, 0.000164,-0.289250, 0.024784, 0.041578,1,-0.001817, 0.003612, 0.015353,1, 0.004339, 0.010215,-0.995158,-0.001817, 0.003612, 0.015353, 0.020181,-0.113352,-0.150537,-0.000000, 0.000000,-0.000000,1,0
1777416747797453366,1586954000000,  1586.959, 0.000053, 0.000152,-0.009923,-0.000015, 0.000038, 0.000164,-0.289250, 0.024784, 0.041578,1,-0.001817, 0.003612, 0.015353,1, 0.004339, 0.010215,-0.995158,-0.001817, 0.003612, 0.015353, 0.020181,-0.113352,-0.150537,-0.000000, 0.000000,-0.000000,1,0
1777416747807127905,1586974000000,  1586.979, 0.000088, 0.000090,-0.009972,-0.000008, 0.000031, 0.000197,-0.261298, 0.023748, 0.029137,1,-0.001252, 0.003322, 0.018114,1, 0.007247, 0.010130,-0.996425,-0.001252, 0.003323, 0.018114, 0.021095,-0.113316,-0.149743,-0.000000, 0.000000,-0.000000,1,0
