Time,reference_time,gps_timestamp,deltaVelX,deltaVelY,deltaVelZ,deltaThetaX,deltaThetaY,deltaThetaZ,estLinearAccelX,estLinearAccelY,estLinearAccelZ,estLinearAccel:valid,estAngularRateX,estAngularRateY,estAngularRateZ,estAngularRate:valid,scaledAccelX,scaledAccelY,scaledAccelZ,scaledGyroX,scaledGyroY,scaledGyroZ,scaledMagX,scaledMagY,scaledMagZ,estGyroBiasX,estGyroBiasY,estGyroBiasZ,estGyroBias:valid,flagStop
1777416586476547348,1373748000000,  1373.748, 0.000042, 0.000015,-0.009990,-0.000017, 0.000037, 0.000189,-0.089084,-0.025573, 0.046599,1,-0.001549, 0.002986, 0.018639,1, 0.003984, 0.001443,-0.996828,-0.001555, 0.003331, 0.018751, 0.002146,-0.080509,-0.147862,-0.000000, 0.000000, 0.000000,1,0
1777416586486712875,1373938000000,  1425.653, 0.000038, 0.000013,-0.009959,-0.000009, 0.000040, 0.000184,-0.324510,-0.111132, 0.033561,1,-0.001694, 0.003354, 0.018792,1, 0.003853, 0.001383,-0.995872,-0.001139, 0.003522, 0.018423, 0.001657,-0.080312,-0.147563,-0.000000, 0.000001, 0.000000,1,0
1777416586496805701,1373938000000,  1425.653, 0.000038, 0.000013,-0.009959,-0.000009, 0.000040, 0.000184,-0.324510,-0.111132, 0.033561,1,-0.001694, 0.003354, 0.018792,1, 0.003853, 0.001383,-0.995872,-0.001139, 0.003522, 0.018423, 0.001657,-0.080312,-0.147563,-0.000000, 0.000001, 0.000000,1,0
1777416586506463506,1425668000000,  1425.673, 0.000007, 0.000005,-0.009948,-0.000011, 0.000030, 0.000182,-0.349214,-0.114876, 0.037068,1,-0.001340, 0.003132, 0.018437,1, 0.002304, 0.000595,-0.995425,-0.001340, 0.003132, 0.018437, 0.001015,-0.080207,-0.147226,-0.000000, 0.000001, 0.000000,1,0
1777416586516559498,1425668000000,  1425.673, 0.000007, 0.000005,-0.009948,-0.000011, 0.000030, 0.000182,-0.349214,-0.114876, 0.037068,1,-0.001340, 0.003132, 0.018437,1, 0.002304, 0.000595,-0.995425,-0.001340, 0.003132, 0.018437, 0.001015,-0.080207,-0.147226,-0.000000, 0.000001, 0.000000,1,0
1777416586526228822,1425688000000,  1425.693, 0.000021, 0.000017,-0.009956,-0.000011, 0.000036, 0.000181,-0.351695,-0.108476, 0.031142,1,-0.001284, 0.003171, 0.018140,1, 0.002116, 0.001262,-0.996027,-0.001284, 0.003172, 0.018140, 0.001375,-0.080279,-0.147519,-0.000000, 0.000001, 0.000000,1,0
1777416586539275241,1425688000000,  1425.693, 0.000021, 0.000017,-0.009956,-0.000011, 0.000036, 0.000181,-0.351695,-0.108476, 0.031142,1,-0.001284, 0.003171, 0.018140,1, 0.002116, 0.001262,-0.996027,-0.001284, 0.003172, 0.018140, 0.001375,-0.080279,-0.147519,-0.000000, 0.000001, 0.000000,1,0
1777416586556045076,1425708000000,  1425.713, 0.000045, 0.000037,-0.009960,-0.000011, 0.000036, 0.000192,-0.340081,-0.092863, 0.031389,1,-0.001315, 0.003468, 0.018652,1, 0.003371, 0.002869,-0.995999,-0.001315, 0.003469, 0.018652, 0.001659,-0.080295,-0.148080,-0.000000, 0.000001, 0.000000,1,0
1777416586575363390,1425728000000,  1425.733, 0.000055, 0.000018,-0.009961,-0.000013, 0.000033, 0.000194,-0.321890,-0.095945, 0.032116,1,-0.001354, 0.003359, 0.019047,1, 0.004849, 0.002499,-0.995939,-0.001354, 0.003360, 0.019047, 0.001926,-0.080323,-0.148584,-0.000000, 0.000001, 0.000000,1,0
1777416586595048838,1425748000000,  1425.753, 0.000056, 0.000006,-0.009960,-0.000016, 0.000032, 0.000189,-0.315831,-0.108199, 0.032918,1,-0.001555, 0.003309, 0.018978,1, 0.005302, 0.001226,-0.995864,-0.001555, 0.003310, 0.018978, 0.001493,-0.079875,-0.147944,-0.000000, 0.000001, 0.000000,1,0
1777416586614781118,1425768000000,  1425.773, 0.000043,-0.000002,-0.009958,-0.000021, 0.000031, 0.000188,-0.321506,-0.118816, 0.034074,1,-0.001685, 0.003189, 0.018781,1, 0.004725, 0.000149,-0.995746,-0.001685, 0.003190, 0.018781, 0.001036,-0.080021,-0.146989,-0.000000, 0.000001, 0.000000,1,0
1777416586630364072,1425788000000,  1425.793, 0.000025, 0.000013,-0.009957,-0.000015, 0.000034, 0.000188,-0.335474,-0.111975, 0.034564,1,-0.001315, 0.003259, 0.018786,1, 0.003349, 0.000856,-0.995694,-0.001315, 0.003259, 0.018786, 0.001392,-0.080168,-0.147051,-0.000000, 0.000001, 0.000000,1,0
1777416586640055487,1425808000000,  1425.813, 0.000020, 0.000018,-0.009955,-0.000005, 0.000038, 0.000192,-0.345159,-0.106622, 0.034683,1,-0.001027, 0.003575, 0.018819,1, 0.002428, 0.001412,-0.995680,-0.001027, 0.003575, 0.018819, 0.001460,-0.079982,-0.146946,-0.000000, 0.000001, 0.000000,1,0
1777416586650172071,1425808000000,  1425.813, 0.000020, 0.000018,-0.009955,-0.000005, 0.000038, 0.000192,-0.345159,-0.106622, 0.034683,1,-0.001027, 0.003575, 0.018819,1, 0.002428, 0.001412,-0.995680,-0.001027, 0.003575, 0.018819, 0.001460,-0.079982,-0.146946,-0.000000, 0.000001, 0.000000,1,0
1777416586669934813,1425828000000,  1425.828, 0.000038, 0.000018,-0.009961,-0.000014, 0.000035, 0.000186,-0.338307,-0.105070, 0.031819,1,-0.001167, 0.003409, 0.018689,1, 0.003197, 0.001578,-0.995969,-0.001167, 0.003410, 0.018689, 0.001713,-0.080174,-0.147724,-0.000000, 0.000001, 0.000000,1,0
1777416586679542157,1425848000000,  1425.848, 0.000045, 0.000011,-0.009963,-0.000018, 0.000037, 0.000184,-0.330856,-0.108617, 0.031216,1,-0.001452, 0.003434, 0.018616,1, 0.004028, 0.001227,-0.996028,-0.001452, 0.003434, 0.018616, 0.001640,-0.080444,-0.147968,-0.000000, 0.000001, 0.000000,1,0
1777416586689626409,1425848000000,  1425.848, 0.000045, 0.000011,-0.009963,-0.000018, 0.000037, 0.000184,-0.330856,-0.108617, 0.031216,1,-0.001452, 0.003434, 0.018616,1, 0.004028, 0.001227,-0.996028,-0.001452, 0.003434, 0.018616, 0.001640,-0.080444,-0.147968,-0.000000, 0.000001, 0.000000,1,0
1777416586708994370,1425868000000,  1425.868, 0.000051, 0.000014,-0.009960,-0.000008, 0.000032, 0.000184,-0.327100,-0.110087, 0.033302,1,-0.001117, 0.003332, 0.018605,1, 0.004734, 0.001189,-0.995910,-0.000984, 0.003288, 0.018500, 0.002055,-0.080406,-0.147772,-0.000000, 0.000001, 0.000000,1,0
1777416586718690359,1425888000000,  1425.888, 0.000043, 0.000019,-0.009959,-0.000010, 0.000034, 0.000187,-0.323211,-0.105651, 0.032411,1,-0.001068, 0.003221, 0.018673,1, 0.004628, 0.001723,-0.995891,-0.001013, 0.003373, 0.018663, 0.001676,-0.080124,-0.147560,-0.000000, 0.000001, 0.000000,1,0
1777416586728775148,1425888000000,  1425.888, 0.000043, 0.000019,-0.009959,-0.000010, 0.000034, 0.000187,-0.323211,-0.105651, 0.032411,1,-0.001068, 0.003221, 0.018673,1, 0.004628, 0.001723,-0.995891,-0.001013, 0.003373, 0.018663, 0.001676,-0.080124,-0.147560,-0.000000, 0.000001, 0.000000,1,0
1777416586738439064,1425908000000,  1425.908, 0.000039, 0.000018,-0.009959,-0.000016, 0.000029, 0.000188,-0.327831,-0.101908, 0.029535,1,-0.001047, 0.003460, 0.018878,1, 0.004247, 0.001860,-0.996011,-0.001307, 0.003138, 0.018850, 0.001784,-0.080196,-0.147194,-0.000000, 0.000001, 0.000000,1,0
1777416586748523075,1425908000000,  1425.908, 0.000039, 0.000018,-0.009959,-0.000016, 0.000029, 0.000188,-0.327831,-0.101908, 0.029535,1,-0.001047, 0.003460, 0.018878,1, 0.004247, 0.001860,-0.996011,-0.001307, 0.003138, 0.018850, 0.001784,-0.080196,-0.147194,-0.000000, 0.000001, 0.000000,1,0
1777416586758145752,1425928000000,  1425.928, 0.000025, 0.000003,-0.009953,-0.000015, 0.000023, 0.000183,-0.332606,-0.108773, 0.031792,1,-0.001411, 0.002763, 0.018755,1, 0.003288, 0.000814,-0.995668,-0.001463, 0.002527, 0.018541, 0.001626,-0.080258,-0.147142,-0.000000, 0.000001, 0.000000,1,0
1777416586768230245,1425928000000,  1425.928, 0.000025, 0.000003,-0.009953,-0.000015, 0.000023, 0.000183,-0.332606,-0.108773, 0.031792,1,-0.001411, 0.002763, 0.018755,1, 0.003288, 0.000814,-0.995668,-0.001463, 0.002527, 0.018541, 0.001626,-0.080258,-0.147142,-0.000000, 0.000001, 0.000000,1,0
1777416586787951137,1425948000000,  1425.948, 0.000015,-0.000018,-0.009960,-0.000026, 0.000024, 0.000174,-0.340495,-0.120888, 0.031403,1,-0.001677, 0.002524, 0.018075,1, 0.002137,-0.000862,-0.996105,-0.002112, 0.002448, 0.017789, 0.001726,-0.080118,-0.147803,-0.000000, 0.000001, 0.000000,1,0
1777416586797636274,1425968000000,  1425.968, 0.000030, 0.000036,-0.009956,-0.000016, 0.000029, 0.000176,-0.345323,-0.125846, 0.034998,1,-0.002231, 0.002619, 0.017596,1, 0.002558, 0.001432,-0.995802,-0.001924, 0.002775, 0.017583, 0.001823,-0.079963,-0.148246,-0.000000, 0.000001, 0.000000,1,0
1777416586807721619,1425968000000,  1425.968, 0.000030, 0.000036,-0.009956,-0.000016, 0.000029, 0.000176,-0.345323,-0.125846, 0.034998,1,-0.002231, 0.002619, 0.017596,1, 0.002558, 0.001432,-0.995802,-0.001924, 0.002775, 0.017583, 0.001823,-0.079963,-0.148246,-0.000000, 0.000001, 0.000000,1,0
1777416586817372702,1425988000000,  1425.988, 0.000045, 0.000048,-0.009956,-0.000011, 0.000035, 0.000183,-0.335367,-0.092626, 0.029587,1,-0.002244, 0.002684, 0.017836,1, 0.003799, 0.003709,-0.996043,-0.001727, 0.003066, 0.018049, 0.001752,-0.080003,-0.148162,-0.000000, 0.000001, 0.000000,1,0
1777416586827458047,1425988000000,  1425.988, 0.000045, 0.000048,-0.009956,-0.000011, 0.000035, 0.000183,-0.335367,-0.092626, 0.029587,1,-0.002244, 0.002684, 0.017836,1, 0.003799, 0.003709,-0.996043,-0.001727, 0.003066, 0.018049, 0.001752,-0.080003,-0.148162,-0.000000, 0.000001, 0.000000,1,0
1777416586837128759,1426008000000,  1426.008, 0.000049, 0.000020,-0.009957,-0.000014, 0.000026, 0.000188,-0.324049,-0.086228, 0.029453,1,-0.001438, 0.002817, 0.018555,1, 0.004609, 0.002822,-0.996045,-0.001426, 0.002676, 0.018648, 0.002007,-0.080020,-0.147617,-0.000000, 0.000001, 0.000000,1,0
1777416586847225677,1426008000000,  1426.008, 0.000049, 0.000020,-0.009957,-0.000014, 0.000026, 0.000188,-0.324049,-0.086228, 0.029453,1,-0.001438, 0.002817, 0.018555,1, 0.004609, 0.002822,-0.996045,-0.001426, 0.002676, 0.018648, 0.002007,-0.080020,-0.147617,-0.000000, 0.000001, 0.000000,1,0
1777416586866989752,1426018000000,  1426.023, 0.000049, 0.000002,-0.009959,-0.000011, 0.000026, 0.000187,-0.320550,-0.105070, 0.032264,1,-0.001194, 0.002645, 0.018651,1, 0.004807, 0.001619,-0.995931,-0.001194, 0.002646, 0.018651, 0.001466,-0.080181,-0.147463,-0.000000, 0.000001, 0.000000,1,0
1777416586876623577,1426038000000,  1426.043, 0.000057, 0.000004,-0.009959,-0.000018, 0.000038, 0.000192,-0.317042,-0.115154, 0.033635,1,-0.001531, 0.003477, 0.018867,1, 0.005232, 0.000604,-0.995788,-0.001531, 0.003477, 0.018867, 0.001316,-0.080555,-0.147069,-0.000000, 0.000001, 0.000000,1,0
1777416586886709051,1426038000000,  1426.043, 0.000057, 0.000004,-0.009959,-0.000018, 0.000038, 0.000192,-0.317042,-0.115154, 0.033635,1,-0.001531, 0.003477, 0.018867,1, 0.005232, 0.000604,-0.995788,-0.001531, 0.003477, 0.018867, 0.001316,-0.080555,-0.147069,-0.000000, 0.000001, 0.000000,1,0
1777416586896333172,1426058000000,  1426.063, 0.000056, 0.000026,-0.009955,-0.000007, 0.000037, 0.000188,-0.314033,-0.102566, 0.035290,1,-0.001040, 0.003664, 0.018855,1, 0.005615, 0.001899,-0.995616,-0.001040, 0.003664, 0.018855, 0.001713,-0.080588,-0.147213,-0.000000, 0.000001, 0.000000,1,0
1777416586906418999,1426058000000,  1426.063, 0.000056, 0.000026,-0.009955,-0.000007, 0.000037, 0.000188,-0.314033,-0.102566, 0.035290,1,-0.001040, 0.003664, 0.018855,1, 0.005615, 0.001899,-0.995616,-0.001040, 0.003664, 0.018855, 0.001713,-0.080588,-0.147213,-0.000000, 0.000001, 0.000000,1,0
1777416586916086026,1426078000000,  1426.083, 0.000029,-0.000006,-0.009948,-0.000014, 0.000038, 0.000189,-0.330796,-0.117184, 0.036909,1,-0.001261, 0.003388, 0.018740,1, 0.003976, 0.000415,-0.995449,-0.001261, 0.003389, 0.018740, 0.001384,-0.080255,-0.147273,-0.000000, 0.000001, 0.000000,1,0
1777416586926171074,1426078000000,  1426.083, 0.000029,-0.000006,-0.009948,-0.000014, 0.000038, 0.000189,-0.330796,-0.117184, 0.036909,1,-0.001261, 0.003388, 0.018740,1, 0.003976, 0.000415,-0.995449,-0.001261, 0.003389, 0.018740, 0.001384,-0.080255,-0.147273,-0.000000, 0.000001, 0.000000,1,0
1777416586945956426,1426078000000,  1426.103, 0.000029,-0.000006,-0.009948,-0.000014, 0.000038, 0.000189,-0.346432,-0.119119, 0.033842,1,-0.001070, 0.003629, 0.018203,1, 0.003976, 0.000415,-0.995449,-0.001261, 0.003389, 0.018740, 0.001384,-0.080255,-0.147273,-0.000000, 0.000001, 0.000000,1,0
1777416586955571992,1426118000000,  1426.123, 0.000036, 0.000024,-0.009950,-0.000009, 0.000027, 0.000186,-0.338686,-0.104646, 0.035406,1,-0.001081, 0.003278, 0.018288,1, 0.003141, 0.001687,-0.995603,-0.001081, 0.003278, 0.018288, 0.001515,-0.080343,-0.147165,-0.000000, 0.000001, 0.000000,1,0
1777416586965657855,1426118000000,  1426.123, 0.000036, 0.000024,-0.009950,-0.000009, 0.000027, 0.000186,-0.338686,-0.104646, 0.035406,1,-0.001081, 0.003278, 0.018288,1, 0.003141, 0.001687,-0.995603,-0.001081, 0.003278, 0.018288, 0.001515,-0.080343,-0.147165,-0.000000, 0.000001, 0.000000,1,0
1777416586975276440,1426138000000,  1426.143, 0.000034, 0.000024,-0.009947,-0.000008, 0.000025, 0.000184,-0.331608,-0.097178, 0.036311,1,-0.001098, 0.002820, 0.018545,1, 0.003481, 0.002402,-0.995526,-0.001098, 0.002820, 0.018545, 0.001490,-0.080087,-0.146653,-0.000000, 0.000001, 0.000000,1,0
1777416586985362322,1426138000000,  1426.143, 0.000034, 0.000024,-0.009947,-0.000008, 0.000025, 0.000184,-0.331608,-0.097178, 0.036311,1,-0.001098, 0.002820, 0.018545,1, 0.003481, 0.002402,-0.995526,-0.001098, 0.002820, 0.018545, 0.001490,-0.080087,-0.146653,-0.000000, 0.000001, 0.000000,1,0
1777416586995029793,1426158000000,  1426.163, 0.000041,-0.000007,-0.009950,-0.000010, 0.000032, 0.000186,-0.326551,-0.114524, 0.035358,1,-0.001153, 0.003073, 0.018513,1, 0.003927, 0.000624,-0.995626,-0.001153, 0.003074, 0.018513, 0.001647,-0.080135,-0.146766,-0.000000, 0.000001, 0.000000,1,0
1777416587005115193,1426158000000,  1426.163, 0.000041,-0.000007,-0.009950,-0.000010, 0.000032, 0.000186,-0.326551,-0.114524, 0.035358,1,-0.001153, 0.003073, 0.018513,1, 0.003927, 0.000624,-0.995626,-0.001153, 0.003074, 0.018513, 0.001647,-0.080135,-0.146766,-0.000000, 0.000001, 0.000000,1,0
1777416587024826362,1426158000000,  1426.183, 0.000041,-0.000007,-0.009950,-0.000010, 0.000032, 0.000186,-0.318727,-0.111711, 0.033915,1,-0.001578, 0.003474, 0.018476,1, 0.003927, 0.000624,-0.995626,-0.001153, 0.003074, 0.018513, 0.001647,-0.080135,-0.146766,-0.000000, 0.000001, 0.000000,1,0
1777416587034516313,1426198000000,  1426.203, 0.000052, 0.000024,-0.009961,-0.000011, 0.000026, 0.000196,-0.315694,-0.102887, 0.033287,1,-0.001379, 0.002998, 0.019071,1, 0.005127, 0.001832,-0.995833,-0.001379, 0.002998, 0.019071, 0.001555,-0.079928,-0.147652,-0.000000, 0.000001, 0.000000,1,0
1777416587044601620,1426198000000,  1426.203, 0.000052, 0.000024,-0.009961,-0.000011, 0.000026, 0.000196,-0.315694,-0.102887, 0.033287,1,-0.001379, 0.002998, 0.019071,1, 0.005127, 0.001832,-0.995833,-0.001379, 0.002998, 0.019071, 0.001555,-0.079928,-0.147652,-0.000000, 0.000001, 0.000000,1,0
1777416587060155759,1426218000000,  1426.223, 0.000031, 0.000015,-0.009963,-0.000007, 0.000034, 0.000186,-0.327759,-0.103298, 0.030612,1,-0.001062, 0.003031, 0.018821,1, 0.003956, 0.001803,-0.996103,-0.001062, 0.003032, 0.018821, 0.001505,-0.079845,-0.147624,-0.000000, 0.000001, 0.000000,1,0
1777416587079976553,1426238000000,  1426.238, 0.000032, 0.000008,-0.009957,-0.000010, 0.000032, 0.000190,-0.335260,-0.109419, 0.032915,1,-0.000939, 0.003035, 0.018862,1, 0.003255, 0.001182,-0.995866,-0.000939, 0.003036, 0.018862, 0.001238,-0.080414,-0.147086,-0.000000, 0.000001, 0.000000,1,0
1777416587089534954,1426258000000,  1426.258, 0.000038, 0.000015,-0.009952,-0.000007, 0.000034, 0.000188,-0.332453,-0.106983, 0.035281,1,-0.000848, 0.003243, 0.018861,1, 0.003609, 0.001435,-0.995622,-0.000848, 0.003243, 0.018861, 0.001319,-0.080367,-0.146699,-0.000000, 0.000001, 0.000000,1,0
1777416587099619612,1426258000000,  1426.258, 0.000038, 0.000015,-0.009952,-0.000007, 0.000034, 0.000188,-0.332453,-0.106983, 0.035281,1,-0.000848, 0.003243, 0.018861,1, 0.003609, 0.001435,-0.995622,-0.000848, 0.003243, 0.018861, 0.001319,-0.080367,-0.146699,-0.000000, 0.000001, 0.000000,1,0
1777416587119039903,1426268000000,  1426.273, 0.000034, 0.000012,-0.009957,-0.000011, 0.000021, 0.000192,-0.333856,-0.108002, 0.035280,1,-0.000946, 0.002702, 0.018989,1, 0.003498, 0.001333,-0.995621,-0.000946, 0.002703, 0.018989, 0.001476,-0.080537,-0.146905,-0.000000, 0.000001, 0.000000,1,0
1777416587138774089,1426298000000,  1426.298, 0.000039, 0.000007,-0.009960,-0.000008, 0.000038, 0.000183,-0.335735,-0.116025, 0.030370,1,-0.000988, 0.002966, 0.018648,1, 0.003644, 0.000665,-0.996045,-0.000954, 0.003328, 0.018513, 0.001574,-0.079901,-0.147606,-0.000000, 0.000001, 0.000000,1,0
1777416587148466910,1426318000000,  1426.318, 0.000047, 0.000024,-0.009962,-0.000012, 0.000024, 0.000183,-0.330682,-0.112150, 0.029013,1,-0.000886, 0.003152, 0.018335,1, 0.004292, 0.001594,-0.996227,-0.001061, 0.002802, 0.018330, 0.001627,-0.080716,-0.147723,-0.000000, 0.000001, 0.000000,1,0
1777416587158567309,1426318000000,  1426.318, 0.000047, 0.000024,-0.009962,-0.000012, 0.000024, 0.000183,-0.330682,-0.112150, 0.029013,1,-0.000886, 0.003152, 0.018335,1, 0.004292, 0.001594,-0.996227,-0.001061, 0.002802, 0.018330, 0.001627,-0.080716,-0.147723,-0.000000, 0.000001, 0.000000,1,0
1777416587168162690,1426338000000,  1426.338, 0.000043, 0.000024,-0.009962,-0.000011, 0.000029, 0.000189,-0.321136,-0.100771, 0.032378,1,-0.001165, 0.003116, 0.018389,1, 0.004433, 0.002218,-0.996034,-0.001119, 0.003031, 0.018612, 0.001887,-0.080175,-0.147828,-0.000000, 0.000001, 0.000000,1,0
1777416587178246516,1426338000000,  1426.338, 0.000043, 0.000024,-0.009962,-0.000011, 0.000029, 0.000189,-0.321136,-0.100771, 0.032378,1,-0.001165, 0.003116, 0.018389,1, 0.004433, 0.002218,-0.996034,-0.001119, 0.003031, 0.018612, 0.001887,-0.080175,-0.147828,-0.000000, 0.000001, 0.000000,1,0
1777416587197986683,1426358000000,  1426.358, 0.000039, 0.000012,-0.009961,-0.000019, 0.000027, 0.000181,-0.323546,-0.101949, 0.031410,1,-0.001213, 0.003478, 0.018692,1, 0.004043, 0.001542,-0.996037,-0.001516, 0.003162, 0.018420, 0.001889,-0.080111,-0.147149,-0.000000, 0.000001, 0.000000,1,0
1777416587207657080,1426378000000,  1426.378, 0.000040, 0.000014,-0.009959,-0.000013, 0.000035, 0.000185,-0.324014,-0.107472, 0.031182,1,-0.001443, 0.003331, 0.018457,1, 0.004013, 0.001381,-0.995954,-0.001420, 0.003353, 0.018486, 0.001433,-0.080249,-0.146994,-0.000000, 0.000001, 0.000000,1,0
1777416587217741016,1426378000000,  1426.378, 0.000040, 0.000014,-0.009959,-0.000013, 0.000035, 0.000185,-0.324014,-0.107472, 0.031182,1,-0.001443, 0.003331, 0.018457,1, 0.004013, 0.001381,-0.995954,-0.001420, 0.003353, 0.018486, 0.001433,-0.080249,-0.146994,-0.000000, 0.000001, 0.000000,1,0
1777416587227422042,1426398000000,  1426.398, 0.000038, 0.000011,-0.009955,-0.000010, 0.000035, 0.000185,-0.325410,-0.109904, 0.034326,1,-0.001543, 0.003570, 0.018580,1, 0.003911, 0.001088,-0.995628,-0.001330, 0.003548, 0.018572, 0.001563,-0.080318,-0.146860,-0.000000, 0.000001, 0.000000,1,0
1777416587237505831,1426398000000,  1426.398, 0.000038, 0.000011,-0.009955,-0.000010, 0.000035, 0.000185,-0.325410,-0.109904, 0.034326,1,-0.001543, 0.003570, 0.018580,1, 0.003911, 0.001088,-0.995628,-0.001330, 0.003548, 0.018572, 0.001563,-0.080318,-0.146860,-0.000000, 0.000001, 0.000000,1,0
1777416587247117526,1426418000000,  1426.418, 0.000031, 0.000012,-0.009961,-0.000013, 0.000030, 0.000182,-0.329029,-0.112079, 0.033621,1,-0.001525, 0.003526, 0.018652,1, 0.003401, 0.001031,-0.995907,-0.001381, 0.003311, 0.018463, 0.001232,-0.080289,-0.147692,-0.000000, 0.000001, 0.000000,1,0
1777416587257201814,1426418000000,  1426.418, 0.000031, 0.000012,-0.009961,-0.000013, 0.000030, 0.000182,-0.329029,-0.112079, 0.033621,1,-0.001525, 0.003526, 0.018652,1, 0.003401, 0.001031,-0.995907,-0.001381, 0.003311, 0.018463, 0.001232,-0.080289,-0.147692,-0.000000, 0.000001, 0.000000,1,0
1777416587276994924,1426428000000,  1426.433, 0.000034, 0.000011,-0.009955,-0.000008, 0.000028, 0.000184,-0.331779,-0.110368, 0.034631,1,-0.001128, 0.003017, 0.018484,1, 0.003430, 0.001073,-0.995698,-0.001128, 0.003018, 0.018484, 0.001369,-0.080305,-0.147378,-0.000000, 0.000001, 0.000000,1,0
1777416587286607230,1426448000000,  1426.453, 0.000041, 0.000020,-0.009960,-0.000011, 0.000034, 0.000183,-0.328465,-0.105186, 0.031919,1,-0.000913, 0.003430, 0.018332,1, 0.003838, 0.001607,-0.995972,-0.000913, 0.003431, 0.018332, 0.001610,-0.080371,-0.147951,-0.000000, 0.000001, 0.000000,1,0
1777416587296692204,1426448000000,  1426.453, 0.000041, 0.000020,-0.009960,-0.000011, 0.000034, 0.000183,-0.328465,-0.105186, 0.031919,1,-0.000913, 0.003430, 0.018332,1, 0.003838, 0.001607,-0.995972,-0.000913, 0.003431, 0.018332, 0.001610,-0.080371,-0.147951,-0.000000, 0.000001, 0.000000,1,0
1777416587306370563,1426468000000,  1426.473, 0.000044, 0.000015,-0.009958,-0.000011, 0.000027, 0.000185,-0.325336,-0.105696, 0.033478,1,-0.001160, 0.003137, 0.018510,1, 0.004229, 0.001566,-0.995810,-0.001160, 0.003138, 0.018510, 0.001917,-0.080330,-0.148551,-0.000000, 0.000001, 0.000000,1,0
1777416587316472888,1426468000000,  1426.473, 0.000044, 0.000015,-0.009958,-0.000011, 0.000027, 0.000185,-0.325336,-0.105696, 0.033478,1,-0.001160, 0.003137, 0.018510,1, 0.004229, 0.001566,-0.995810,-0.001160, 0.003138, 0.018510, 0.001917,-0.080330,-0.148551,-0.000000, 0.000001, 0.000000,1,0
1777416587326124859,1426488000000,  1426.493, 0.000044, 0.000011,-0.009955,-0.000005, 0.000037, 0.000186,-0.325225,-0.109334, 0.035310,1,-0.000844, 0.003228, 0.018543,1, 0.004304, 0.001202,-0.995621,-0.000844, 0.003228, 0.018543, 0.001367,-0.080311,-0.147120,-0.000000, 0.000001, 0.000000,1,0
1777416587336208963,1426488000000,  1426.493, 0.000044, 0.000011,-0.009955,-0.000005, 0.000037, 0.000186,-0.325225,-0.109334, 0.035310,1,-0.000844, 0.003228, 0.018543,1, 0.004304, 0.001202,-0.995621,-0.000844, 0.003228, 0.018543, 0.001367,-0.080311,-0.147120,-0.000000, 0.000001, 0.000000,1,0
1777416587356001943,1426508000000,  1426.513, 0.000045, 0.000012,-0.009953,-0.000012, 0.000027, 0.000187,-0.325617,-0.110286, 0.038370,1,-0.001060, 0.002891, 0.018511,1, 0.004329, 0.001110,-0.995306,-0.001060, 0.002891, 0.018511, 0.001258,-0.080024,-0.147053,-0.000000, 0.000001, 0.000000,1,0
1777416587375620707,1426528000000,  1426.533, 0.000032, 0.000013,-0.009956,-0.000013, 0.000028, 0.000182,-0.328264,-0.108768, 0.035965,1,-0.001228, 0.002896, 0.018392,1, 0.003639, 0.001215,-0.995568,-0.001228, 0.002896, 0.018392, 0.001400,-0.080305,-0.147476,-0.000000, 0.000001, 0.000000,1,0
1777416587385317010,1426548000000,  1426.553, 0.000032, 0.000011,-0.009959,-0.000015, 0.000027, 0.000186,-0.329142,-0.109179, 0.033845,1,-0.001335, 0.002928, 0.018422,1, 0.003361, 0.001154,-0.995791,-0.001335, 0.002928, 0.018422, 0.001070,-0.079863,-0.147377,-0.000000, 0.000001, 0.000000,1,0
1777416587395403224,1426548000000,  1426.553, 0.000032, 0.000011,-0.009959,-0.000015, 0.000027, 0.000186,-0.329142,-0.109179, 0.033845,1,-0.001335, 0.002928, 0.018422,1, 0.003361, 0.001154,-0.995791,-0.001335, 0.002928, 0.018422, 0.001070,-0.079863,-0.147377,-0.000000, 0.000001, 0.000000,1,0
1777416587405071288,1426568000000,  1426.573, 0.000035, 0.000018,-0.009950,-0.000007, 0.000036, 0.000182,-0.328344,-0.105903, 0.035599,1,-0.001088, 0.003401, 0.018318,1, 0.003439, 0.001491,-0.995613,-0.001088, 0.003402, 0.018318, 0.000928,-0.079907,-0.148212,-0.000000, 0.000001, 0.000000,1,0
1777416587415155706,1426568000000,  1426.573, 0.000035, 0.000018,-0.009950,-0.000007, 0.000036, 0.000182,-0.328344,-0.105903, 0.035599,1,-0.001088, 0.003401, 0.018318,1, 0.003439, 0.001491,-0.995613,-0.001088, 0.003402, 0.018318, 0.000928,-0.079907,-0.148212,-0.000000, 0.000001, 0.000000,1,0
1777416587434874170,1426588000000,  1426.593, 0.000042, 0.000010,-0.009954,-0.000016, 0.000030, 0.000188,-0.323829,-0.107848, 0.036317,1,-0.001336, 0.003146, 0.018552,1, 0.003944, 0.001300,-0.995537,-0.001336, 0.003146, 0.018552, 0.001424,-0.080054,-0.148033,-0.000000, 0.000001, 0.000000,1,0
1777416587444513253,1426608000000,  1426.613, 0.000003,-0.000444,-0.010088,-0.000132,-0.000007, 0.000181,-0.347281,-0.320994,-0.026050,1,-0.007545,-0.000637, 0.018536,1, 0.001592,-0.020379,-1.001895,-0.007545,-0.000636, 0.018536, 0.001513,-0.080136,-0.147572,-0.000000, 0.000001, 0.000000,1,0
1777416587454596542,1426608000000,  1426.613, 0.000003,-0.000444,-0.010088,-0.000132,-0.000007, 0.000181,-0.347281,-0.320994,-0.026050,1,-0.007545,-0.000637, 0.018536,1, 0.001592,-0.020379,-1.001895,-0.007545,-0.000636, 0.018536, 0.001513,-0.080136,-0.147572,-0.000000, 0.000001, 0.000000,1,0
1777416587470140737,1426628000000,  1426.633, 0.000142,-0.000040,-0.009543,-0.000031, 0.000014, 0.000028,-0.263440,-0.279406, 0.184980,1,-0.005790, 0.003735, 0.008357,1, 0.010219,-0.016045,-0.980372,-0.005790, 0.003735, 0.008357, 0.001775,-0.080210,-0.147110,-0.000000, 0.000001, 0.000000,1,0
1777416587489894940,1426648000000,  1426.648, 0.000128, 0.000274,-0.009129, 0.000065, 0.000130, 0.000105,-0.230739, 0.009719, 0.274318,1,-0.000705, 0.010360, 0.008581,1, 0.013675, 0.013501,-0.971257,-0.000705, 0.010360, 0.008581, 0.001500,-0.080619,-0.147418,-0.000000, 0.000001, 0.000000,1,0
1777416587499579244,1426668000000,  1426.668, 0.000238, 0.000452,-0.009762, 0.000060, 0.000177, 0.000241,-0.196937, 0.217517,-0.004467,1, 0.003762, 0.011759, 0.018188,1, 0.017284, 0.034678,-0.999679, 0.003762, 0.011760, 0.018188, 0.001459,-0.080407,-0.147576,-0.000000, 0.000001, 0.000000,1,0
1777416587509663347,1426668000000,  1426.668, 0.000238, 0.000452,-0.009762, 0.000060, 0.000177, 0.000241,-0.196937, 0.217517,-0.004467,1, 0.003762, 0.011759, 0.018188,1, 0.017284, 0.034678,-0.999679, 0.003762, 0.011760, 0.018188, 0.001459,-0.080407,-0.147576,-0.000000, 0.000001, 0.000000,1,0
1777416587519026440,1426688000000,  1426.688, 0.000127, 0.000089,-0.010295, 0.000026, 0.000068, 0.000317,-0.225376, 0.190149, 0.185900,1, 0.004924, 0.008003, 0.023905,1, 0.013751, 0.019210,-1.004493, 0.004363, 0.007182, 0.027671, 0.001797,-0.080547,-0.147330,-0.000000, 0.000001, 0.000000,1,0
1777416587529110007,1426688000000,  1426.688, 0.000127, 0.000089,-0.010295, 0.000026, 0.000068, 0.000317,-0.225376, 0.190149, 0.185900,1, 0.004924, 0.008003, 0.023905,1, 0.013751, 0.019210,-1.004493, 0.004363, 0.007182, 0.027671, 0.001797,-0.080547,-0.147330,-0.000000, 0.000001, 0.000000,1,0
1777416587548826786,1426708000000,  1426.708,-0.000007,-0.000336,-0.010125,-0.000035,-0.000057, 0.000237,-0.287781,-0.118887, 0.077327,1, 0.001786, 0.001756, 0.028597,1, 0.004260,-0.015111,-1.002613,-0.000872,-0.002094, 0.026265, 0.001818,-0.080377,-0.147468,-0.000000, 0.000001, 0.000000,1,0
1777416587558033830,1426728000000,  1426.728,-0.000301, 0.000059,-0.010335,-0.000005,-0.000010, 0.000179,-0.389412,-0.307055, 0.137168,1,-0.003494,-0.005265, 0.022446,1,-0.015213,-0.008014,-1.007897,-0.001907,-0.002304, 0.020552, 0.001106,-0.080352,-0.147157,-0.000000, 0.000001, 0.000000,1,0
1777416587568118211,1426728000000,  1426.728,-0.000301, 0.000059,-0.010335,-0.000005,-0.000010, 0.000179,-0.389412,-0.307055, 0.137168,1,-0.003494,-0.005265, 0.022446,1,-0.015213,-0.008014,-1.007897,-0.001907,-0.002304, 0.020552, 0.001106,-0.080352,-0.147157,-0.000000, 0.000001, 0.000000,1,0
1777416587587827268,1426748000000,  1426.748,-0.000318,-0.000221,-0.010281,-0.000067, 0.000032, 0.000169,-0.557833,-0.206057, 0.150523,1,-0.000052,-0.001352, 0.020035,1,-0.025265,-0.015504,-1.010467,-0.002982, 0.000633, 0.018633, 0.001031,-0.080280,-0.146559,-0.000000, 0.000001, 0.000000,1,0
1777416587597535496,1426768000000,  1426.768,-0.000244, 0.000063,-0.010258,-0.000084, 0.000010, 0.000074,-0.575750,-0.356498, 0.121623,1,-0.003383, 0.000300, 0.016320,1,-0.023053,-0.009307,-1.007811,-0.005432, 0.000848, 0.012255, 0.001257,-0.080285,-0.146964,-0.000000, 0.000001, 0.000000,1,0
1777416587607619896,1426768000000,  1426.768,-0.000244, 0.000063,-0.010258,-0.000084, 0.000010, 0.000074,-0.575750,-0.356498, 0.121623,1,-0.003383, 0.000300, 0.016320,1,-0.023053,-0.009307,-1.007811,-0.005432, 0.000848, 0.012255, 0.001257,-0.080285,-0.146964,-0.000000, 0.000001, 0.000000,1,0
1777416587617287274,1426788000000,  1426.788, 0.000029, 0.000253,-0.010326,-0.000050, 0.000055, 0.000113,-0.516948,-0.099847, 0.180891,1,-0.002851, 0.004591, 0.010912,1,-0.008005, 0.014215,-1.005846,-0.003772, 0.004619, 0.011157, 0.001518,-0.080366,-0.147594,-0.000000, 0.000001, 0.000000,1,0
1777416587627372248,1426788000000,  1426.788, 0.000029, 0.000253,-0.010326,-0.000050, 0.000055, 0.000113,-0.516948,-0.099847, 0.180891,1,-0.002851, 0.004591, 0.010912,1,-0.008005, 0.014215,-1.005846,-0.003772, 0.004619, 0.011157, 0.001518,-0.080366,-0.147594,-0.000000, 0.000001, 0.000000,1,0
1777416587637033071,1426798000000,  1426.803, 0.000097, 0.000196,-0.009745, 0.000024, 0.000082, 0.000168,-0.358974, 0.049774, 0.093344,1,-0.001390, 0.006050, 0.013726,1, 0.000095, 0.017458,-0.989731,-0.001390, 0.006051, 0.013726, 0.001450,-0.080323,-0.147273,-0.000000, 0.000001, 0.000000,1,0
1777416587647117563,1426798000000,  1426.803, 0.000097, 0.000196,-0.009745, 0.000024, 0.000082, 0.000168,-0.358974, 0.049774, 0.093344,1,-0.001390, 0.006050, 0.013726,1, 0.000095, 0.017458,-0.989731,-0.001390, 0.006051, 0.013726, 0.001450,-0.080323,-0.147273,-0.000000, 0.000001, 0.000000,1,0
1777416587666834398,1426818000000,  1426.823, 0.000163, 0.000312,-0.009799,-0.000004, 0.000022, 0.000246,-0.238475, 0.133408, 0.079633,1,-0.001398, 0.003211, 0.020178,1, 0.012464, 0.026008,-0.991126,-0.001398, 0.003212, 0.020178, 0.001681,-0.080060,-0.146980,-0.000000, 0.000001, 0.000000,1,0
1777416587676469722,1426838000000,  1426.843, 0.000158,-0.000065,-0.009895, 0.000020, 0.000058, 0.000295,-0.220062,-0.029570, 0.048847,1, 0.000911, 0.004753, 0.026449,1, 0.014418, 0.009381,-0.994263, 0.000911, 0.004754, 0.026449, 0.001335,-0.080293,-0.146094,-0.000000, 0.000001, 0.000000,1,0
1777416587686552992,1426838000000,  1426.843, 0.000158,-0.000065,-0.009895, 0.000020, 0.000058, 0.000295,-0.220062,-0.029570, 0.048847,1, 0.000911, 0.004753, 0.026449,1, 0.014418, 0.009381,-0.994263, 0.000911, 0.004754, 0.026449, 0.001335,-0.080293,-0.146094,-0.000000, 0.000001, 0.000000,1,0
1777416587696227129,1426858000000,  1426.863, 0.000167,-0.000199,-0.009891,-0.000014, 0.000023, 0.000216,-0.205866,-0.239080, 0.048269,1,-0.000633, 0.002850, 0.024050,1, 0.015937,-0.011998,-0.994319,-0.000633, 0.002850, 0.024050, 0.001327,-0.080310,-0.146389,-0.000000, 0.000001, 0.000000,1,0
1777416587706313269,1426858000000,  1426.863, 0.000167,-0.000199,-0.009891,-0.000014, 0.000023, 0.000216,-0.205866,-0.239080, 0.048269,1,-0.000633, 0.002850, 0.024050,1, 0.015937,-0.011998,-0.994319,-0.000633, 0.002850, 0.024050, 0.001327,-0.080310,-0.146389,-0.000000, 0.000001, 0.000000,1,0
1777416587726048325,1426878000000,  1426.883, 0.000183,-0.000162,-0.009901, 0.000002, 0.000042, 0.000182,-0.192068,-0.260782, 0.061370,1,-0.000404, 0.003662, 0.020026,1, 0.017413,-0.014212,-0.992980,-0.000404, 0.003663, 0.020026, 0.000772,-0.080296,-0.146809,-0.000000, 0.000001, 0.000000,1,0
1777416587745786456,1426898000000,  1426.903, 0.000108,-0.000063,-0.009920,-0.000034, 0.000023, 0.000146,-0.226095,-0.225969, 0.043296,1,-0.002082, 0.003250, 0.016236,1, 0.014022,-0.010654,-0.994821,-0.002083, 0.003251, 0.016236, 0.001629,-0.080092,-0.147282,-0.000000, 0.000001, 0.000000,1,0
1777416587755423224,1426918000000,  1426.923, 0.000058, 0.000091,-0.009898,-0.000023, 0.000028, 0.000147,-0.278256,-0.097480, 0.054253,1,-0.002838, 0.002339, 0.014852,1, 0.008593, 0.002466,-0.993707,-0.002838, 0.002339, 0.014852, 0.001867,-0.080219,-0.147490,-0.000000, 0.000001, 0.000000,1,0
1777416587765506938,1426918000000,  1426.923, 0.000058, 0.000091,-0.009898,-0.000023, 0.000028, 0.000147,-0.278256,-0.097480, 0.054253,1,-0.002838, 0.002339, 0.014852,1, 0.008593, 0.002466,-0.993707,-0.002838, 0.002339, 0.014852, 0.001867,-0.080219,-0.147490,-0.000000, 0.000001, 0.000000,1,0
1777416587775176983,1426938000000,  1426.943, 0.000041, 0.000051,-0.009934,-0.000014, 0.000036, 0.000144,-0.304576,-0.074632, 0.035832,1,-0.001944, 0.003264, 0.014488,1, 0.005556, 0.004767,-0.995599,-0.001944, 0.003265, 0.014488, 0.002077,-0.080182,-0.147500,-0.000000, 0.000001, 0.000000,1,0
1777416587785260605,1426938000000,  1426.943, 0.000041, 0.000051,-0.009934,-0.000014, 0.000036, 0.000144,-0.304576,-0.074632, 0.035832,1,-0.001944, 0.003264, 0.014488,1, 0.005556, 0.004767,-0.995599,-0.001944, 0.003265, 0.014488, 0.002077,-0.080182,-0.147500,-0.000000, 0.000001, 0.000000,1,0
1777416587805049585,1426958000000,  1426.963, 0.000003, 0.000122,-0.009956,-0.000016, 0.000018, 0.000174,-0.336677,-0.030111, 0.033238,1,-0.001647, 0.001969, 0.015960,1, 0.002209, 0.009314,-0.995866,-0.001647, 0.001970, 0.015960, 0.001429,-0.080086,-0.147347,-0.000000, 0.000001, 0.000000,1,0
1777416587824741976,1426978000000,  1426.983,-0.000054, 0.000037,-0.009981,-0.000014, 0.000020, 0.000206,-0.384519,-0.054457, 0.030934,1,-0.001364, 0.001987, 0.018867,1,-0.002665, 0.006842,-0.996101,-0.001364, 0.001988, 0.018867, 0.001471,-0.080224,-0.146914,-0.000000, 0.000001, 0.000000,1,0
1777416587840309670,1426998000000,  1427.003,-0.000134, 0.000032,-0.009926,-0.000013, 0.000026, 0.000212,-0.452574,-0.074087, 0.042539,1,-0.001483, 0.002113, 0.020353,1,-0.009571, 0.004852,-0.994916,-0.001483, 0.002113, 0.020353, 0.001335,-0.080250,-0.146797,-0.000000, 0.000001, 0.000000,1,0
1777416587850061416,1427018000000,  1427.023,-0.000110,-0.000081,-0.009914,-0.000023, 0.000036, 0.000192,-0.468831,-0.150292, 0.044528,1,-0.001796, 0.003086, 0.019946,1,-0.011175,-0.002905,-0.994711,-0.001796, 0.003087, 0.019946, 0.001557,-0.080152,-0.147953,-0.000000, 0.000001, 0.000000,1,0
1777416587860182166,1427018000000,  1427.023,-0.000110,-0.000081,-0.009914,-0.000023, 0.000036, 0.000192,-0.468831,-0.150292, 0.044528,1,-0.001796, 0.003086, 0.019946,1,-0.011175,-0.002905,-0.994711,-0.001796, 0.003087, 0.019946, 0.001557,-0.080152,-0.147953,-0.000000, 0.000001, 0.000000,1,0
1777416587879801875,1427038000000,  1427.038, 0.000020, 0.000062,-0.009883,-0.000012, 0.000080, 0.000176,-0.387976,-0.111436, 0.050087,1,-0.001519, 0.005807, 0.018360,1,-0.002840, 0.001078,-0.994141,-0.001519, 0.005808, 0.018360, 0.001371,-0.080387,-0.147985,-0.000000, 0.000001, 0.000000,1,0
1777416587889445013,1427058000000,  1427.058, 0.000145, 0.000047,-0.009946,-0.000010, 0.000045, 0.000213,-0.282124,-0.073381, 0.033369,1,-0.001083, 0.005361, 0.020102,1, 0.008079, 0.004968,-0.995841,-0.001083, 0.005362, 0.020102, 0.001474,-0.080314,-0.147872,-0.000000, 0.000001, 0.000000,1,0
1777416587899530542,1427058000000,  1427.058, 0.000145, 0.000047,-0.009946,-0.000010, 0.000045, 0.000213,-0.282124,-0.073381, 0.033369,1,-0.001083, 0.005361, 0.020102,1, 0.008079, 0.004968,-0.995841,-0.001083, 0.005362, 0.020102, 0.001474,-0.080314,-0.147872,-0.000000, 0.000001, 0.000000,1,0
1777416587918929407,1427078000000,  1427.078, 0.000242, 0.000106,-0.010029, 0.000014, 0.000057, 0.000221,-0.232959,-0.065622, 0.042429,1,-0.000259, 0.004376, 0.020528,1, 0.018266, 0.007654,-0.998468, 0.000685, 0.004953, 0.021279, 0.001749,-0.080208,-0.147359,-0.000000, 0.000001, 0.000000,1,0
1777416587928619766,1427098000000,  1427.098, 0.000232, 0.000042,-0.010137, 0.000016, 0.000076, 0.000238,-0.151085,-0.054346, 0.099904,1, 0.000570, 0.005266, 0.022420,1, 0.022298, 0.005354,-1.000602, 0.001250, 0.006396, 0.023083, 0.001202,-0.080509,-0.147310,-0.000000, 0.000001, 0.000000,1,0
1777416587938703795,1427098000000,  1427.098, 0.000232, 0.000042,-0.010137, 0.000016, 0.000076, 0.000238,-0.151085,-0.054346, 0.099904,1, 0.000570, 0.005266, 0.022420,1, 0.022298, 0.005354,-1.000602, 0.001250, 0.006396, 0.023083, 0.001202,-0.080509,-0.147310,-0.000000, 0.000001, 0.000000,1,0
1777416587948323490,1427118000000,  1427.118, 0.000130,-0.000020,-0.010026,-0.000000, 0.000034, 0.000233,-0.151825,-0.105438, 0.069308,1, 0.002412, 0.007679, 0.023653,1, 0.017415, 0.000023,-0.997497, 0.001360, 0.005635, 0.023532, 0.000979,-0.080462,-0.147590,-0.000000, 0.000001, 0.000000,1,0
1777416587958407223,1427118000000,  1427.118, 0.000130,-0.000020,-0.010026,-0.000000, 0.000034, 0.000233,-0.151825,-0.105438, 0.069308,1, 0.002412, 0.007679, 0.023653,1, 0.017415, 0.000023,-0.997497, 0.001360, 0.005635, 0.023532, 0.000979,-0.080462,-0.147590,-0.000000, 0.000001, 0.000000,1,0
1777416587968076935,1427138000000,  1427.138, 0.000085,-0.000142,-0.009897, 0.000019, 0.000082, 0.000213,-0.221687,-0.157490, 0.018631,1, 0.002925, 0.007563, 0.022920,1, 0.011469,-0.008596,-0.993831, 0.002437, 0.007791, 0.022058, 0.001704,-0.079997,-0.147098,-0.000000, 0.000001, 0.000000,1,0
1777416587978160112,1427138000000,  1427.138, 0.000085,-0.000142,-0.009897, 0.000019, 0.000082, 0.000213,-0.221687,-0.157490, 0.018631,1, 0.002925, 0.007563, 0.022920,1, 0.011469,-0.008596,-0.993831, 0.002437, 0.007791, 0.022058, 0.001704,-0.079997,-0.147098,-0.000000, 0.000001, 0.000000,1,0
1777416587997872058,1427158000000,  1427.158, 0.000044,-0.000137,-0.009945,-0.000002, 0.000064, 0.000149,-0.270827,-0.234812, 0.019469,1, 0.001555, 0.008024, 0.020073,1, 0.006893,-0.012533,-0.995716, 0.000698, 0.007204, 0.017658, 0.001632,-0.080244,-0.147810,-0.000000, 0.000001, 0.000000,1,0
1777416588007582342,1427178000000,  1427.178, 0.000009, 0.000074,-0.009936, 0.000002, 0.000074, 0.000137,-0.310792,-0.200075, 0.023052,1, 0.000253, 0.006457, 0.015615,1, 0.003133,-0.001023,-0.995430, 0.000356, 0.006934, 0.014782, 0.001761,-0.080423,-0.147581,-0.000000, 0.000001, 0.000000,1,0
1777416588017729516,1427178000000,  1427.178, 0.000009, 0.000074,-0.009936, 0.000002, 0.000074, 0.000137,-0.310792,-0.200075, 0.023052,1, 0.000253, 0.006457, 0.015615,1, 0.003133,-0.001023,-0.995430, 0.000356, 0.006934, 0.014782, 0.001761,-0.080423,-0.147581,-0.000000, 0.000001, 0.000000,1,0
1777416588027329156,1427198000000,  1427.198,-0.000016, 0.000131,-0.009979,-0.000013, 0.000039, 0.000171,-0.345830,-0.068433, 0.038798,1,-0.000165, 0.006439, 0.014867,1, 0.000111, 0.008755,-0.996691,-0.000611, 0.005237, 0.015938, 0.001376,-0.080277,-0.147510,-0.000000, 0.000001, 0.000000,1,0
1777416588037412499,1427198000000,  1427.198,-0.000016, 0.000131,-0.009979,-0.000013, 0.000039, 0.000171,-0.345830,-0.068433, 0.038798,1,-0.000165, 0.006439, 0.014867,1, 0.000111, 0.008755,-0.996691,-0.000611, 0.005237, 0.015938, 0.001376,-0.080277,-0.147510,-0.000000, 0.000001, 0.000000,1,0
1777416588047017101,1427218000000,  1427.218,-0.000088, 0.000054,-0.009931,-0.000028, 0.000010, 0.000202,-0.384910,-0.021787, 0.034613,1,-0.000214, 0.004345, 0.017379,1,-0.005344, 0.007670,-0.994723,-0.001410, 0.002829, 0.018686, 0.001160,-0.080358,-0.147711,-0.000000, 0.000001, 0.000000,1,0
1777416588057100963,1427218000000,  1427.218,-0.000088, 0.000054,-0.009931,-0.000028, 0.000010, 0.000202,-0.384910,-0.021787, 0.034613,1,-0.000214, 0.004345, 0.017379,1,-0.005344, 0.007670,-0.994723,-0.001410, 0.002829, 0.018686, 0.001160,-0.080358,-0.147711,-0.000000, 0.000001, 0.000000,1,0
1777416588076808167,1427228000000,  1427.233,-0.000122, 0.000024,-0.009992,-0.000018, 0.000013, 0.000203,-0.446785,-0.066983, 0.024487,1,-0.001589, 0.002091, 0.019395,1,-0.008533, 0.005190,-0.996745,-0.001589, 0.002092, 0.019395, 0.001388,-0.080523,-0.147172,-0.000000, 0.000001, 0.000000,1,0
1777416588086509599,1427248000000,  1427.253,-0.000122,-0.000045,-0.009958,-0.000020, 0.000021, 0.000186,-0.474982,-0.128515, 0.032171,1,-0.001811, 0.001999, 0.018989,1,-0.011364,-0.001069,-0.995960,-0.001811, 0.001999, 0.018989, 0.001804,-0.080734,-0.147167,-0.000000, 0.000001, 0.000000,1,0
1777416588096595183,1427248000000,  1427.253,-0.000122,-0.000045,-0.009958,-0.000020, 0.000021, 0.000186,-0.474982,-0.128515, 0.032171,1,-0.001811, 0.001999, 0.018989,1,-0.011364,-0.001069,-0.995960,-0.001811, 0.001999, 0.018989, 0.001804,-0.080734,-0.147167,-0.000000, 0.000001, 0.000000,1,0
1777416588106271431,1427268000000,  1427.273,-0.000062, 0.000007,-0.009941,-0.000025, 0.000020, 0.000179,-0.446109,-0.121612, 0.038345,1,-0.001887, 0.002159, 0.018166,1,-0.008370,-0.000347,-0.995328,-0.001887, 0.002159, 0.018166, 0.001227,-0.080553,-0.147194,-0.000000, 0.000001, 0.000000,1,0
1777416588116354922,1427268000000,  1427.273,-0.000062, 0.000007,-0.009941,-0.000025, 0.000020, 0.000179,-0.446109,-0.121612, 0.038345,1,-0.001887, 0.002159, 0.018166,1,-0.008370,-0.000347,-0.995328,-0.001887, 0.002159, 0.018166, 0.001227,-0.080553,-0.147194,-0.000000, 0.000001, 0.000000,1,0
1777416588126029170,1427288000000,  1427.293,-0.000011, 0.000015,-0.009936,-0.000018, 0.000025, 0.000185,-0.401059,-0.107303, 0.039642,1,-0.001936, 0.002175, 0.018553,1,-0.003730, 0.001138,-0.995194,-0.001936, 0.002176, 0.018553, 0.001623,-0.080197,-0.147522,-0.000000, 0.000001, 0.000000,1,0
1777416588136114939,1427288000000,  1427.293,-0.000011, 0.000015,-0.009936,-0.000018, 0.000025, 0.000185,-0.401059,-0.107303, 0.039642,1,-0.001936, 0.002175, 0.018553,1,-0.003730, 0.001138,-0.995194,-0.001936, 0.002176, 0.018553, 0.001623,-0.080197,-0.147522,-0.000000, 0.000001, 0.000000,1,0
1777416588155828124,1427308000000,  1427.313, 0.000049, 0.000019,-0.009973,-0.000022, 0.000017, 0.000181,-0.348347,-0.105195, 0.025888,1,-0.002072, 0.001881, 0.018350,1, 0.001690, 0.001384,-0.996594,-0.002072, 0.001881, 0.018350, 0.001123,-0.080240,-0.147386,-0.000000, 0.000001, 0.000000,1,0
1777416588165455911,1427328000000,  1427.333, 0.000104, 0.000065,-0.009969,-0.000030, 0.000001, 0.000188,-0.289393,-0.074197, 0.030716,1,-0.002812, 0.000856, 0.018549,1, 0.007292, 0.004538,-0.996117,-0.002812, 0.000856, 0.018549, 0.001065,-0.080285,-0.147237, 0.000000, 0.000001, 0.000000,1,0
1777416588175554994,1427328000000,  1427.333, 0.000104, 0.000065,-0.009969,-0.000030, 0.000001, 0.000188,-0.289393,-0.074197, 0.030716,1,-0.002812, 0.000856, 0.018549,1, 0.007292, 0.004538,-0.996117,-0.002812, 0.000856, 0.018549, 0.001065,-0.080285,-0.147237, 0.000000, 0.000001, 0.000000,1,0
1777416588185225557,1427348000000,  1427.353, 0.000120, 0.000026,-0.009967,-0.000035, 0.000001, 0.000208,-0.256152,-0.082235, 0.029088,1,-0.003231, 0.000186, 0.019837,1, 0.010462, 0.003743,-0.996291,-0.003231, 0.000186, 0.019837, 0.001218,-0.079977,-0.146723, 0.000000, 0.000001, 0.000000,1,0
1777416588195340418,1427348000000,  1427.353, 0.000120, 0.000026,-0.009967,-0.000035, 0.000001, 0.000208,-0.256152,-0.082235, 0.029088,1,-0.003231, 0.000186, 0.019837,1, 0.010462, 0.003743,-0.996291,-0.003231, 0.000186, 0.019837, 0.001218,-0.079977,-0.146723, 0.000000, 0.000001, 0.000000,1,0
1777416588205040738,1427368000000,  1427.373, 0.000131,-0.000032,-0.009952,-0.000021, 0.000018, 0.000204,-0.238864,-0.122082, 0.035965,1,-0.002389, 0.001025, 0.020292,1, 0.012170,-0.000288,-0.995591,-0.002389, 0.001025, 0.020292, 0.001655,-0.079820,-0.146885, 0.000000, 0.000001, 0.000000,1,0
1777416588215125008,1427368000000,  1427.373, 0.000131,-0.000032,-0.009952,-0.000021, 0.000018, 0.000204,-0.238864,-0.122082, 0.035965,1,-0.002389, 0.001025, 0.020292,1, 0.012170,-0.000288,-0.995591,-0.002389, 0.001025, 0.020292, 0.001655,-0.079820,-0.146885, 0.000000, 0.000001, 0.000000,1,0
1777416588234787010,1427388000000,  1427.393, 0.000132,-0.000073,-0.009951,-0.000014, 0.000028, 0.000183,-0.231124,-0.166813, 0.038182,1,-0.001679, 0.001842, 0.018995,1, 0.012968,-0.004827,-0.995364,-0.001679, 0.001842, 0.018995, 0.001589,-0.079934,-0.147464, 0.000000, 0.000001, 0.000000,1,0
1777416588250343388,1427408000000,  1427.413, 0.000075,-0.000007,-0.009959,-0.000019, 0.000032, 0.000162,-0.262763,-0.146463, 0.034918,1,-0.001870, 0.002638, 0.017139,1, 0.009783,-0.002729,-0.995696,-0.001870, 0.002639, 0.017139, 0.001376,-0.080351,-0.147736, 0.000000, 0.000001, 0.000000,1,0
1777416588260054597,1427428000000,  1427.433, 0.000059, 0.000010,-0.009957,-0.000010, 0.000054, 0.000159,-0.290281,-0.122431, 0.032217,1,-0.001316, 0.004461, 0.016251,1, 0.007051,-0.000259,-0.995968,-0.001316, 0.004461, 0.016251, 0.001197,-0.080375,-0.147267, 0.000000, 0.000001, 0.000000,1,0
1777416588270138441,1427428000000,  1427.433, 0.000059, 0.000010,-0.009957,-0.000010, 0.000054, 0.000159,-0.290281,-0.122431, 0.032217,1,-0.001316, 0.004461, 0.016251,1, 0.007051,-0.000259,-0.995968,-0.001316, 0.004461, 0.016251, 0.001197,-0.080375,-0.147267, 0.000000, 0.000001, 0.000000,1,0
1777416588289787962,1427448000000,  1427.448, 0.000067, 0.000038,-0.009949, 0.000004, 0.000061, 0.000163,-0.294805,-0.097903, 0.032658,1,-0.000315, 0.005596, 0.016161,1, 0.006697, 0.002247,-0.995919,-0.000315, 0.005596, 0.016161, 0.001224,-0.080503,-0.147255, 0.000000, 0.000001, 0.000000,1,0
1777416588299487079,1427468000000,  1427.468, 0.000040, 0.000074,-0.009974, 0.000003, 0.000059, 0.000172,-0.307285,-0.069606, 0.026257,1, 0.000014, 0.005695, 0.016712,1, 0.005537, 0.005127,-0.996568, 0.000014, 0.005696, 0.016712, 0.001269,-0.080383,-0.146831, 0.000000, 0.000001, 0.000000,1,0
1777416588309570811,1427468000000,  1427.468, 0.000040, 0.000074,-0.009974, 0.000003, 0.000059, 0.000172,-0.307285,-0.069606, 0.026257,1, 0.000014, 0.005695, 0.016712,1, 0.005537, 0.005127,-0.996568, 0.000014, 0.005696, 0.016712, 0.001269,-0.080383,-0.146831, 0.000000, 0.000001, 0.000000,1,0
1777416588328974156,1427488000000,  1427.488, 0.000028, 0.000106,-0.009997,-0.000001, 0.000054, 0.000193,-0.317748,-0.061667, 0.044827,1,-0.000533, 0.005325, 0.017506,1, 0.003660, 0.008032,-0.996881,-0.000343, 0.005475, 0.018375, 0.001519,-0.080378,-0.147322, 0.000000, 0.000001, 0.000000,1,0
1777416588338659255,1427508000000,  1427.508, 0.000012, 0.000053,-0.009950, 0.000002, 0.000055, 0.000220,-0.332855,-0.037762, 0.032337,1, 0.000516, 0.005750, 0.019439,1, 0.002278, 0.006813,-0.995706, 0.000335, 0.005616, 0.020590, 0.001438,-0.080438,-0.147757, 0.000000, 0.000001, 0.000000,1,0
1777416588348762839,1427508000000,  1427.508, 0.000012, 0.000053,-0.009950, 0.000002, 0.000055, 0.000220,-0.332855,-0.037762, 0.032337,1, 0.000516, 0.005750, 0.019439,1, 0.002278, 0.006813,-0.995706, 0.000335, 0.005616, 0.020590, 0.001438,-0.080438,-0.147757, 0.000000, 0.000001, 0.000000,1,0
1777416588358364886,1427528000000,  1427.528, 0.000011,-0.000003,-0.009969, 0.000007, 0.000038, 0.000223,-0.344477,-0.076903, 0.036697,1, 0.000566, 0.004916, 0.021278,1, 0.001488, 0.002088,-0.996175, 0.000707, 0.004441, 0.021740, 0.001445,-0.080154,-0.148072, 0.000000, 0.000001, 0.000000,1,0
1777416588368448618,1427528000000,  1427.528, 0.000011,-0.000003,-0.009969, 0.000007, 0.000038, 0.000223,-0.344477,-0.076903, 0.036697,1, 0.000566, 0.004916, 0.021278,1, 0.001488, 0.002088,-0.996175, 0.000707, 0.004441, 0.021740, 0.001445,-0.080154,-0.148072, 0.000000, 0.000001, 0.000000,1,0
1777416588378121421,1427548000000,  1427.548, 0.000008,-0.000080,-0.009940,-0.000018, 0.000007, 0.000200,-0.344516,-0.133257, 0.040826,1, 0.000423, 0.004026, 0.021559,1, 0.001058,-0.004548,-0.994686,-0.000613, 0.002458, 0.020818, 0.001185,-0.080202,-0.147488, 0.000000, 0.000001, 0.000000,1,0
1777416588388208801,1427548000000,  1427.548, 0.000008,-0.000080,-0.009940,-0.000018, 0.000007, 0.000200,-0.344516,-0.133257, 0.040826,1, 0.000423, 0.004026, 0.021559,1, 0.001058,-0.004548,-0.994686,-0.000613, 0.002458, 0.020818, 0.001185,-0.080202,-0.147488, 0.000000, 0.000001, 0.000000,1,0
1777416588407920690,1427568000000,  1427.568,-0.000022,-0.000085,-0.009951,-0.000047,-0.000035, 0.000165,-0.352671,-0.183249, 0.035166,1,-0.001814, 0.000490, 0.019534,1,-0.000789,-0.007485,-0.995373,-0.003158,-0.001281, 0.018097, 0.001195,-0.080132,-0.146868, 0.000000, 0.000001, 0.000000,1,0
1777416588417625178,1427588000000,  1427.588,-0.000029, 0.000043,-0.009940,-0.000078,-0.000056, 0.000147,-0.372420,-0.175525, 0.034005,1,-0.004150,-0.003060, 0.016852,1,-0.002233,-0.001001,-0.995423,-0.005820,-0.004208, 0.015885, 0.001759,-0.080441,-0.147250, 0.000000, 0.000001, 0.000000,1,0
1777416588427708354,1427588000000,  1427.588,-0.000029, 0.000043,-0.009940,-0.000078,-0.000056, 0.000147,-0.372420,-0.175525, 0.034005,1,-0.004150,-0.003060, 0.016852,1,-0.002233,-0.001001,-0.995423,-0.005820,-0.004208, 0.015885, 0.001759,-0.080441,-0.147250, 0.000000, 0.000001, 0.000000,1,0
1777416588437310883,1427608000000,  1427.608,-0.000018, 0.000114,-0.009897,-0.000035,-0.000012, 0.000176,-0.379370,-0.079303, 0.018696,1,-0.006175,-0.004318, 0.015872,1,-0.002122, 0.007561,-0.994000,-0.005039,-0.002897, 0.016626, 0.001374,-0.080404,-0.147546, 0.000000, 0.000001, 0.000000,1,0
1777416588447395448,1427608000000,  1427.608,-0.000018, 0.000114,-0.009897,-0.000035,-0.000012, 0.000176,-0.379370,-0.079303, 0.018696,1,-0.006175,-0.004318, 0.015872,1,-0.002122, 0.007561,-0.994000,-0.005039,-0.002897, 0.016626, 0.001374,-0.080404,-0.147546, 0.000000, 0.000001, 0.000000,1,0
1777416588457067492,1427628000000,  1427.628,-0.000003, 0.000111,-0.009891,-0.000005, 0.000031, 0.000216,-0.373329,-0.010125, 0.005029,1,-0.003215,-0.000908, 0.017940,1,-0.001036, 0.010669,-0.994610,-0.001935, 0.001008, 0.019683, 0.001426,-0.080369,-0.148022, 0.000000, 0.000001, 0.000000,1,0
1777416588467150854,1427628000000,  1427.628,-0.000003, 0.000111,-0.009891,-0.000005, 0.000031, 0.000216,-0.373329,-0.010125, 0.005029,1,-0.003215,-0.000908, 0.017940,1,-0.001036, 0.010669,-0.994610,-0.001935, 0.001008, 0.019683, 0.001426,-0.080369,-0.148022, 0.000000, 0.000001, 0.000000,1,0
1777416588486867039,1427638000000,  1427.643, 0.000030,-0.000007,-0.010028,-0.000012, 0.000040, 0.000231,-0.345223,-0.071879, 0.010072,1,-0.001506, 0.002401, 0.021281,1, 0.000970, 0.004939,-0.998243,-0.001506, 0.002401, 0.021281, 0.001600,-0.080489,-0.148322, 0.000000, 0.000001, 0.000000,1,0
1777416588496558823,1427658000000,  1427.663, 0.000084,-0.000108,-0.010019, 0.000011, 0.000091, 0.000195,-0.302889,-0.177403, 0.017847,1, 0.000065, 0.006318, 0.020472,1, 0.005369,-0.005817,-0.997447, 0.000065, 0.006318, 0.020472, 0.001239,-0.080474,-0.147800, 0.000000, 0.000001, 0.000000,1,0
1777416588506661666,1427658000000,  1427.663, 0.000084,-0.000108,-0.010019, 0.000011, 0.000091, 0.000195,-0.302889,-0.177403, 0.017847,1, 0.000065, 0.006318, 0.020472,1, 0.005369,-0.005817,-0.997447, 0.000065, 0.006318, 0.020472, 0.001239,-0.080474,-0.147800, 0.000000, 0.000001, 0.000000,1,0
1777416588516261305,1427678000000,  1427.683, 0.000135,-0.000104,-0.010001, 0.000012, 0.000110, 0.000149,-0.250519,-0.219508, 0.024071,1, 0.000733, 0.009716, 0.017049,1, 0.010883,-0.010134,-0.996807, 0.000733, 0.009716, 0.017049, 0.001444,-0.080349,-0.147408, 0.000000, 0.000001, 0.000000,1,0
1777416588526344945,1427678000000,  1427.683, 0.000135,-0.000104,-0.010001, 0.000012, 0.000110, 0.000149,-0.250519,-0.219508, 0.024071,1, 0.000733, 0.009716, 0.017049,1, 0.010883,-0.010134,-0.996807, 0.000733, 0.009716, 0.017049, 0.001444,-0.080349,-0.147408, 0.000000, 0.000001, 0.000000,1,0
1777416588536074246,1427698000000,  1427.703, 0.000157, 0.000124,-0.009960, 0.000012, 0.000094, 0.000148,-0.217373,-0.092027, 0.037507,1, 0.000992, 0.010273, 0.015149,1, 0.014480, 0.002831,-0.995429, 0.000992, 0.010274, 0.015149, 0.001717,-0.080286,-0.147085, 0.000000, 0.000001, 0.000000,1,0
1777416588546157182,1427698000000,  1427.703, 0.000157, 0.000124,-0.009960, 0.000012, 0.000094, 0.000148,-0.217373,-0.092027, 0.037507,1, 0.000992, 0.010273, 0.015149,1, 0.014480, 0.002831,-0.995429, 0.000992, 0.010274, 0.015149, 0.001717,-0.080286,-0.147085, 0.000000, 0.000001, 0.000000,1,0
1777416588565393385,1427718000000,  1427.723, 0.000137, 0.000174,-0.009954, 0.000015, 0.000086, 0.000204,-0.219235, 0.012458, 0.036053,1, 0.001207, 0.009274, 0.018282,1, 0.014303, 0.013421,-0.995578, 0.001207, 0.009274, 0.018282, 0.001157,-0.080560,-0.147922, 0.000000, 0.000001, 0.000000,1,0
1777416588575079170,1427738000000,  1427.743, 0.000108, 0.000016,-0.009948, 0.000018, 0.000072, 0.000227,-0.236933,-0.050158, 0.037249,1, 0.001636, 0.008191, 0.021348,1, 0.012211, 0.006914,-0.995467, 0.001636, 0.008191, 0.021349, 0.001106,-0.080178,-0.148332, 0.000000, 0.000001, 0.000000,1,0
1777416588585164735,1427738000000,  1427.743, 0.000108, 0.000016,-0.009948, 0.000018, 0.000072, 0.000227,-0.236933,-0.050158, 0.037249,1, 0.001636, 0.008191, 0.021348,1, 0.012211, 0.006914,-0.995467, 0.001636, 0.008191, 0.021349, 0.001106,-0.080178,-0.148332, 0.000000, 0.000001, 0.000000,1,0
1777416588604879976,1427758000000,  1427.763, 0.000086,-0.000058,-0.009951, 0.000016, 0.000057, 0.000199,-0.261300,-0.131940, 0.039367,1, 0.001645, 0.006864, 0.020693,1, 0.009746,-0.001498,-0.995252, 0.001645, 0.006864, 0.020693, 0.001184,-0.079839,-0.148144, 0.000000, 0.000001, 0.000000,1,0
1777416588614571075,1427758000000,  1427.783, 0.000086,-0.000058,-0.009951, 0.000016, 0.000057, 0.000199,-0.292272,-0.182206, 0.036860,1, 0.000878, 0.006054, 0.018824,1, 0.009746,-0.001498,-0.995252, 0.001645, 0.006864, 0.020693, 0.001184,-0.079839,-0.148144, 0.000000, 0.000001, 0.000000,1,0
1777416588624655974,1427758000000,  1427.783, 0.000086,-0.000058,-0.009951, 0.000016, 0.000057, 0.000199,-0.292272,-0.182206, 0.036860,1, 0.000878, 0.006054, 0.018824,1, 0.009746,-0.001498,-0.995252, 0.001645, 0.006864, 0.020693, 0.001184,-0.079839,-0.148144, 0.000000, 0.000001, 0.000000,1,0
1777416588640211019,1427798000000,  1427.803,-0.000008, 0.000036,-0.009975,-0.000004, 0.000046, 0.000181,-0.341382,-0.115742, 0.027546,1,-0.000335, 0.004692, 0.018085,1, 0.001771, 0.000088,-0.996451,-0.000335, 0.004692, 0.018085, 0.001396,-0.080011,-0.147340, 0.000000, 0.000001, 0.000000,1,0
1777416588659947259,1427818000000,  1427.823,-0.000021, 0.000058,-0.009987,-0.000007, 0.000060, 0.000184,-0.376923,-0.081117, 0.029590,1,-0.000729, 0.005528, 0.018432,1,-0.001747, 0.003615,-0.996239,-0.000729, 0.005528, 0.018432, 0.000926,-0.079786,-0.146896, 0.000000, 0.000001, 0.000000,1,0
1777416588669583267,1427838000000,  1427.838,-0.000065, 0.000033,-0.009989,-0.000011, 0.000032, 0.000201,-0.407943,-0.078610, 0.024287,1,-0.000864, 0.004006, 0.019529,1,-0.004815, 0.003872,-0.996776,-0.000864, 0.004007, 0.019529, 0.001102,-0.080468,-0.147088, 0.000000, 0.000001, 0.000000,1,0
1777416588679685147,1427838000000,  1427.838,-0.000065, 0.000033,-0.009989,-0.000011, 0.000032, 0.000201,-0.407943,-0.078610, 0.024287,1,-0.000864, 0.004006, 0.019529,1,-0.004815, 0.003872,-0.996776,-0.000864, 0.004007, 0.019529, 0.001102,-0.080468,-0.147088, 0.000000, 0.000001, 0.000000,1,0
1777416588689091609,1427858000000,  1427.858,-0.000043, 0.000000,-0.009963,-0.000014, 0.000035, 0.000191,-0.407639,-0.098000, 0.037662,1,-0.000879, 0.004251, 0.019525,1,-0.004509, 0.000982,-0.995867,-0.001073, 0.003913, 0.019352, 0.001606,-0.080552,-0.147699, 0.000000, 0.000001, 0.000000,1,0
1777416588699190637,1427858000000,  1427.858,-0.000043, 0.000000,-0.009963,-0.000014, 0.000035, 0.000191,-0.407639,-0.098000, 0.037662,1,-0.000879, 0.004251, 0.019525,1,-0.004509, 0.000982,-0.995867,-0.001073, 0.003913, 0.019352, 0.001606,-0.080552,-0.147699, 0.000000, 0.000001, 0.000000,1,0
1777416588718831751,1427878000000,  1427.878, 0.000038,-0.000085,-0.009945,-0.000036, 0.000048, 0.000175,-0.388022,-0.132907, 0.023975,1,-0.001240, 0.004193, 0.019523,1, 0.000504,-0.005199,-0.996373,-0.002450, 0.004449, 0.018621, 0.001680,-0.080539,-0.146710, 0.000000, 0.000001, 0.000000,1,0
1777416588728518924,1427898000000,  1427.898, 0.000104, 0.000058,-0.009973,-0.000041, 0.000013, 0.000155,-0.312524,-0.195999, 0.048853,1,-0.003134, 0.003559, 0.017093,1, 0.007531,-0.001385,-0.995581,-0.003485, 0.002513, 0.016401, 0.001167,-0.080220,-0.147841, 0.000000, 0.000001, 0.000000,1,0
1777416588738603360,1427898000000,  1427.898, 0.000104, 0.000058,-0.009973,-0.000041, 0.000013, 0.000155,-0.312524,-0.195999, 0.048853,1,-0.003134, 0.003559, 0.017093,1, 0.007531,-0.001385,-0.995581,-0.003485, 0.002513, 0.016401, 0.001167,-0.080220,-0.147841, 0.000000, 0.000001, 0.000000,1,0
1777416588748220498,1427918000000,  1427.918, 0.000110, 0.000183,-0.009939,-0.000002, 0.000054, 0.000215,-0.262124,-0.036986, 0.040946,1,-0.002661, 0.003091, 0.017065,1, 0.010669, 0.012691,-0.994454,-0.001515, 0.004171, 0.019215, 0.000891,-0.080380,-0.147537, 0.000000, 0.000001, 0.000000,1,0
1777416588758305194,1427918000000,  1427.918, 0.000110, 0.000183,-0.009939,-0.000002, 0.000054, 0.000215,-0.262124,-0.036986, 0.040946,1,-0.002661, 0.003091, 0.017065,1, 0.010669, 0.012691,-0.994454,-0.001515, 0.004171, 0.019215, 0.000891,-0.080380,-0.147537, 0.000000, 0.000001, 0.000000,1,0
1777416588778025379,1427938000000,  1427.938, 0.000028, 0.000049,-0.009989,-0.000032, 0.000005, 0.000251,-0.255339,-0.000397, 0.038870,1,-0.001702, 0.004478, 0.021517,1, 0.007132, 0.009145,-0.996936,-0.002514, 0.002607, 0.023134, 0.000722,-0.080044,-0.146275, 0.000000, 0.000001, 0.000000,1,0
1777416588797783192,1427958000000,  1427.958, 0.000015,-0.000071,-0.009840, 0.000010, 0.000030, 0.000234,-0.322886,-0.054778, 0.005637,1,-0.002023,-0.000800, 0.023410,1, 0.002518, 0.000428,-0.992068,-0.000993, 0.001014, 0.023282, 0.000902,-0.079869,-0.146775, 0.000000, 0.000001, 0.000000,1,0
1777416588807474754,1427978000000,  1427.978,-0.000062,-0.000174,-0.009859,-0.000006, 0.000067, 0.000187,-0.341725,-0.177742, 0.007513,1,-0.000723, 0.002827, 0.022381,1,-0.001754,-0.011353,-0.992198,-0.000803, 0.004578, 0.020587, 0.001048,-0.079847,-0.147184, 0.000000, 0.000001, 0.000000,1,0
1777416588817559319,1427978000000,  1427.978,-0.000062,-0.000174,-0.009859,-0.000006, 0.000067, 0.000187,-0.341725,-0.177742, 0.007513,1,-0.000723, 0.002827, 0.022381,1,-0.001754,-0.011353,-0.992198,-0.000803, 0.004578, 0.020587, 0.001048,-0.079847,-0.147184, 0.000000, 0.000001, 0.000000,1,0
1777416588827169292,1427998000000,  1427.998,-0.000010,-0.000016,-0.009971,-0.000024, 0.000025, 0.000139,-0.371022,-0.245767, 0.017005,1,-0.002578, 0.003797, 0.018039,1,-0.001554,-0.007780,-0.996895,-0.002355, 0.003362, 0.016198, 0.001295,-0.080012,-0.147516, 0.000000, 0.000001, 0.000000,1,0
1777416588837254561,1427998000000,  1427.998,-0.000010,-0.000016,-0.009971,-0.000024, 0.000025, 0.000139,-0.371022,-0.245767, 0.017005,1,-0.002578, 0.003797, 0.018039,1,-0.001554,-0.007780,-0.996895,-0.002355, 0.003362, 0.016198, 0.001295,-0.080012,-0.147516, 0.000000, 0.000001, 0.000000,1,0
1777416588857041929,1428008000000,  1428.013, 0.000073, 0.000074,-0.009920,-0.000028, 0.000052, 0.000130,-0.333449,-0.126969, 0.040273,1,-0.002615, 0.004221, 0.014756,1, 0.002495,-0.000993,-0.995156,-0.002615, 0.004222, 0.014756, 0.001655,-0.080305,-0.148043, 0.000000, 0.000001, 0.000000,1,0
1777416588876751207,1428028000000,  1428.033, 0.000045, 0.000037,-0.009893,-0.000003, 0.000049, 0.000147,-0.326765,-0.083833, 0.052766,1,-0.001358, 0.004323, 0.014711,1, 0.003260, 0.003435,-0.993878,-0.001358, 0.004323, 0.014711, 0.001689,-0.080061,-0.147293, 0.000000, 0.000001, 0.000000,1,0
1777416588886423010,1428048000000,  1428.053, 0.000039, 0.000093,-0.009977,-0.000009, 0.000011, 0.000173,-0.318182,-0.051489, 0.026134,1,-0.001541, 0.002015, 0.016125,1, 0.004193, 0.006761,-0.996592,-0.001541, 0.002015, 0.016125, 0.001205,-0.080346,-0.146856, 0.000000, 0.000001, 0.000000,1,0
1777416588896507687,1428048000000,  1428.053, 0.000039, 0.000093,-0.009977,-0.000009, 0.000011, 0.000173,-0.318182,-0.051489, 0.026134,1,-0.001541, 0.002015, 0.016125,1, 0.004193, 0.006761,-0.996592,-0.001541, 0.002015, 0.016125, 0.001205,-0.080346,-0.146856, 0.000000, 0.000001, 0.000000,1,0
1777416588906180564,1428068000000,  1428.073, 0.000055, 0.000043,-0.010028,-0.000003, 0.000041, 0.000209,-0.303590,-0.062058, 0.012368,1,-0.001159, 0.003102, 0.019046,1, 0.005735, 0.005706,-0.997993,-0.001159, 0.003102, 0.019046, 0.001221,-0.080383,-0.146934, 0.000000, 0.000001, 0.000000,1,0
1777416588916274426,1428068000000,  1428.073, 0.000055, 0.000043,-0.010028,-0.000003, 0.000041, 0.000209,-0.303590,-0.062058, 0.012368,1,-0.001159, 0.003102, 0.019046,1, 0.005735, 0.005706,-0.997993,-0.001159, 0.003102, 0.019046, 0.001221,-0.080383,-0.146934, 0.000000, 0.000001, 0.000000,1,0
1777416588936000610,1428088000000,  1428.093, 0.000103,-0.000006,-0.010025,-0.000017, 0.000039, 0.000202,-0.274830,-0.106329, 0.012422,1,-0.001261, 0.004018, 0.020063,1, 0.008753, 0.001200,-0.997984,-0.001261, 0.004019, 0.020063, 0.000944,-0.080366,-0.146858, 0.000000, 0.000001, 0.000000,1,0
1777416588955670908,1428108000000,  1428.113, 0.000104,-0.000001,-0.009977,-0.000016, 0.000024, 0.000198,-0.264946,-0.112492, 0.029556,1,-0.001333, 0.002870, 0.019788,1, 0.009835, 0.000580,-0.996234,-0.001333, 0.002871, 0.019788, 0.001230,-0.080446,-0.147520, 0.000000, 0.000001, 0.000000,1,0
1777416588965387303,1428128000000,  1428.133, 0.000067,-0.000024,-0.009958,-0.000015, 0.000039, 0.000179,-0.277788,-0.132204, 0.035253,1,-0.001388, 0.003572, 0.018541,1, 0.008064,-0.001488,-0.995671,-0.001388, 0.003572, 0.018541, 0.001460,-0.080389,-0.147986, 0.000000, 0.000001, 0.000000,1,0
1777416588975472016,1428128000000,  1428.133, 0.000067,-0.000024,-0.009958,-0.000015, 0.000039, 0.000179,-0.277788,-0.132204, 0.035253,1,-0.001388, 0.003572, 0.018541,1, 0.008064,-0.001488,-0.995671,-0.001388, 0.003572, 0.018541, 0.001460,-0.080389,-0.147986, 0.000000, 0.000001, 0.000000,1,0
1777416588985124987,1428148000000,  1428.153, 0.000052,-0.000003,-0.009933,-0.000024, 0.000023, 0.000168,-0.294041,-0.125834, 0.038986,1,-0.001752, 0.002965, 0.017377,1, 0.006200,-0.000859,-0.995298,-0.001752, 0.002966, 0.017377, 0.001745,-0.080138,-0.146980, 0.000000, 0.000001, 0.000000,1,0
1777416588995208756,1428148000000,  1428.153, 0.000052,-0.000003,-0.009933,-0.000024, 0.000023, 0.000168,-0.294041,-0.125834, 0.038986,1,-0.001752, 0.002965, 0.017377,1, 0.006200,-0.000859,-0.995298,-0.001752, 0.002966, 0.017377, 0.001745,-0.080138,-0.146980, 0.000000, 0.000001, 0.000000,1,0
1777416589014920700,1428168000000,  1428.173, 0.000060, 0.000051,-0.009939,-0.000015, 0.000040, 0.000182,-0.296025,-0.103728, 0.030101,1,-0.001596, 0.003292, 0.017643,1, 0.005971, 0.003064,-0.995206,-0.001595, 0.003649, 0.017905, 0.001164,-0.080027,-0.146940, 0.000000, 0.000001, 0.000000,1,0
1777416589024616631,1428188000000,  1428.193, 0.000045, 0.000010,-0.009958,-0.000008, 0.000031, 0.000194,-0.304666,-0.096896, 0.032791,1,-0.001004, 0.003325, 0.018937,1, 0.005156, 0.002110,-0.995928,-0.001004, 0.003326, 0.018937, 0.001002,-0.079998,-0.146684, 0.000000, 0.000001, 0.000000,1,0
1777416589034761046,1428188000000,  1428.193, 0.000045, 0.000010,-0.009958,-0.000008, 0.000031, 0.000194,-0.304666,-0.096896, 0.032791,1,-0.001004, 0.003325, 0.018937,1, 0.005156, 0.002110,-0.995928,-0.001004, 0.003326, 0.018937, 0.001002,-0.079998,-0.146684, 0.000000, 0.000001, 0.000000,1,0
1777416589050193724,1428208000000,  1428.213, 0.000016, 0.000021,-0.009962,-0.000001, 0.000032, 0.000191,-0.326661,-0.095134, 0.032758,1,-0.000592, 0.002929, 0.019036,1, 0.002969, 0.002293,-0.995929,-0.000592, 0.002930, 0.019036, 0.001097,-0.080164,-0.145957, 0.000000, 0.000001, 0.000000,1,0
1777416589069991609,1428228000000,  1428.233,-0.000007,-0.000011,-0.009959,-0.000007, 0.000032, 0.000177,-0.351484,-0.115492, 0.034809,1,-0.000744, 0.002939, 0.018264,1, 0.000496, 0.000219,-0.995718,-0.000744, 0.002940, 0.018264, 0.001323,-0.080396,-0.146769, 0.000000, 0.000001, 0.000000,1,0
1777416589079628579,1428248000000,  1428.248,-0.000009, 0.000006,-0.009969,-0.000018, 0.000029, 0.000176,-0.363661,-0.114011, 0.030060,1,-0.001338, 0.003001, 0.017797,1,-0.000681, 0.000374,-0.996200,-0.001338, 0.003002, 0.017797, 0.001148,-0.080588,-0.147708, 0.000000, 0.000001, 0.000000,1,0
1777416589089713200,1428248000000,  1428.248,-0.000009, 0.000006,-0.009969,-0.000018, 0.000029, 0.000176,-0.363661,-0.114011, 0.030060,1,-0.001338, 0.003001, 0.017797,1,-0.000681, 0.000374,-0.996200,-0.001338, 0.003002, 0.017797, 0.001148,-0.080588,-0.147708, 0.000000, 0.000001, 0.000000,1,0
1777416589099132919,1428268000000,  1428.268, 0.000013, 0.000027,-0.009957,-0.000017, 0.000040, 0.000182,-0.360392,-0.112875, 0.030485,1,-0.001536, 0.003021, 0.018044,1, 0.000472, 0.001592,-0.995883,-0.001611, 0.003531, 0.018102, 0.001299,-0.080242,-0.147785, 0.000000, 0.000001, 0.000000,1,0
1777416589109216447,1428268000000,  1428.268, 0.000013, 0.000027,-0.009957,-0.000017, 0.000040, 0.000182,-0.360392,-0.112875, 0.030485,1,-0.001536, 0.003021, 0.018044,1, 0.000472, 0.001592,-0.995883,-0.001611, 0.003531, 0.018102, 0.001299,-0.080242,-0.147785, 0.000000, 0.000001, 0.000000,1,0
1777416589128875226,1428288000000,  1428.288, 0.000057, 0.000048,-0.009961, 0.000000, 0.000050, 0.000197,-0.337192,-0.086508, 0.028818,1,-0.001127, 0.003639, 0.018491,1, 0.003806, 0.003931,-0.996132,-0.000597, 0.004229, 0.019035, 0.001500,-0.080272,-0.147065, 0.000000, 0.000001, 0.000000,1,0
1777416589138507049,1428308000000,  1428.308, 0.000118,-0.000011,-0.009965,-0.000011, 0.000036, 0.000197,-0.299070,-0.084018, 0.033822,1,-0.000366, 0.004120, 0.019512,1, 0.008757, 0.001324,-0.996042,-0.000662, 0.003846, 0.019523, 0.001657,-0.079916,-0.147046, 0.000000, 0.000001, 0.000000,1,0
1777416589148590873,1428308000000,  1428.308, 0.000118,-0.000011,-0.009965,-0.000011, 0.000036, 0.000197,-0.299070,-0.084018, 0.033822,1,-0.000366, 0.004120, 0.019512,1, 0.008757, 0.001324,-0.996042,-0.000662, 0.003846, 0.019523, 0.001657,-0.079916,-0.147046, 0.000000, 0.000001, 0.000000,1,0
1777416589158268620,1428328000000,  1428.328, 0.000106,-0.000005,-0.009962,-0.000010, 0.000033, 0.000185,-0.258442,-0.120852, 0.042220,1,-0.001483, 0.002969, 0.019233,1, 0.010248,-0.000296,-0.995283,-0.001247, 0.003242, 0.018853, 0.001466,-0.080259,-0.146885, 0.000000, 0.000001, 0.000000,1,0
1777416589168352314,1428328000000,  1428.328, 0.000106,-0.000005,-0.009962,-0.000010, 0.000033, 0.000185,-0.258442,-0.120852, 0.042220,1,-0.001483, 0.002969, 0.019233,1, 0.010248,-0.000296,-0.995283,-0.001247, 0.003242, 0.018853, 0.001466,-0.080259,-0.146885, 0.000000, 0.000001, 0.000000,1,0
1777416589178010673,1428348000000,  1428.348, 0.000018,-0.000029,-0.010033,-0.000020, 0.000022, 0.000189,-0.253272,-0.121917, 0.058325,1,-0.001430, 0.002976, 0.018892,1, 0.006290,-0.002176,-0.998929,-0.001500, 0.002656, 0.018932, 0.001838,-0.080125,-0.147597, 0.000000, 0.000001, 0.000000,1,0
1777416589188095293,1428348000000,  1428.348, 0.000018,-0.000029,-0.010033,-0.000020, 0.000022, 0.000189,-0.253272,-0.121917, 0.058325,1,-0.001430, 0.002976, 0.018892,1, 0.006290,-0.002176,-0.998929,-0.001500, 0.002656, 0.018932, 0.001838,-0.080125,-0.147597, 0.000000, 0.000001, 0.000000,1,0
1777416589207824699,1428368000000,  1428.368, 0.000049,-0.000066,-0.010000,-0.000039, 0.000010, 0.000159,-0.303821,-0.158500, 0.043248,1,-0.000553, 0.003480, 0.018217,1, 0.004708,-0.005159,-0.997699,-0.001928, 0.002235, 0.017180, 0.001618,-0.080013,-0.147982, 0.000000, 0.000001, 0.000000,1,0
1777416589217463632,1428388000000,  1428.388, 0.000054, 0.000119,-0.009940, 0.000001, 0.000072, 0.000152,-0.303368,-0.132673, 0.033138,1,-0.002010, 0.002959, 0.016132,1, 0.005189, 0.004812,-0.994590,-0.001005, 0.004959, 0.015728, 0.001421,-0.080232,-0.147741, 0.000000, 0.000001, 0.000000,1,0
1777416589227548531,1428388000000,  1428.388, 0.000054, 0.000119,-0.009940, 0.000001, 0.000072, 0.000152,-0.303368,-0.132673, 0.033138,1,-0.002010, 0.002959, 0.016132,1, 0.005189, 0.004812,-0.994590,-0.001005, 0.004959, 0.015728, 0.001421,-0.080232,-0.147741, 0.000000, 0.000001, 0.000000,1,0
1777416589237213222,1428408000000,  1428.408, 0.000060, 0.000111,-0.009946,-0.000004, 0.000040, 0.000205,-0.299897,-0.024390, 0.026357,1,-0.000139, 0.006001, 0.016864,1, 0.005734, 0.010131,-0.995911,-0.000244, 0.004975, 0.018588, 0.001622,-0.080240,-0.146984, 0.000000, 0.000001, 0.000000,1,0
1777416589247297935,1428408000000,  1428.408, 0.000060, 0.000111,-0.009946,-0.000004, 0.000040, 0.000205,-0.299897,-0.024390, 0.026357,1,-0.000139, 0.006001, 0.016864,1, 0.005734, 0.010131,-0.995911,-0.000244, 0.004975, 0.018588, 0.001622,-0.080240,-0.146984, 0.000000, 0.000001, 0.000000,1,0
1777416589267007638,1428418000000,  1428.423, 0.000042, 0.000076,-0.009992,-0.000013,-0.000002, 0.000220,-0.305137,-0.030569, 0.018667,1,-0.000819, 0.002479, 0.020154,1, 0.005036, 0.008859,-0.997371,-0.000819, 0.002480, 0.020154, 0.001121,-0.080242,-0.147089, 0.000000, 0.000001, 0.000000,1,0
1777416589286782653,1428438000000,  1428.443,-0.000006,-0.000036,-0.009993,-0.000005, 0.000013, 0.000216,-0.340764,-0.105127, 0.026192,1,-0.000872, 0.001009, 0.021343,1, 0.001427, 0.001265,-0.996603,-0.000872, 0.001010, 0.021343, 0.000988,-0.080323,-0.147661, 0.000000, 0.000001, 0.000000,1,0
1777416589296476251,1428458000000,  1428.463, 0.000015,-0.000142,-0.009989,-0.000011, 0.000041, 0.000181,-0.342180,-0.204116, 0.025399,1,-0.000818, 0.003324, 0.019573,1, 0.001338,-0.008829,-0.996682,-0.000818, 0.003325, 0.019573, 0.001296,-0.080641,-0.147429, 0.000000, 0.000001, 0.000000,1,0
1777416589306560538,1428458000000,  1428.463, 0.000015,-0.000142,-0.009989,-0.000011, 0.000041, 0.000181,-0.342180,-0.204116, 0.025399,1,-0.000818, 0.003324, 0.019573,1, 0.001338,-0.008829,-0.996682,-0.000818, 0.003325, 0.019573, 0.001296,-0.080641,-0.147429, 0.000000, 0.000001, 0.000000,1,0
1777416589316158955,1428478000000,  1428.483, 0.000017,-0.000015,-0.009988,-0.000029, 0.000015, 0.000145,-0.341459,-0.177610, 0.027083,1,-0.002412, 0.002498, 0.016358,1, 0.001476,-0.006103,-0.996507,-0.002412, 0.002499, 0.016358, 0.001129,-0.080338,-0.147429, 0.000000, 0.000001, 0.000000,1,0
1777416589326242390,1428478000000,  1428.483, 0.000017,-0.000015,-0.009988,-0.000029, 0.000015, 0.000145,-0.341459,-0.177610, 0.027083,1,-0.002412, 0.002498, 0.016358,1, 0.001476,-0.006103,-0.996507,-0.002412, 0.002499, 0.016358, 0.001129,-0.080338,-0.147429, 0.000000, 0.000001, 0.000000,1,0
1777416589345965259,1428498000000,  1428.503, 0.000038, 0.000095,-0.009964,-0.000018, 0.000050, 0.000162,-0.328206,-0.077438, 0.032267,1,-0.002137, 0.003946, 0.015929,1, 0.002894, 0.004148,-0.995976,-0.002137, 0.003947, 0.015929, 0.001294,-0.080374,-0.147363, 0.000000, 0.000001, 0.000000,1,0
1777416589355649728,1428518000000,  1428.523, 0.000070, 0.000030,-0.009959,-0.000025, 0.000019, 0.000173,-0.299316,-0.080542, 0.034987,1,-0.002120, 0.003095, 0.016882,1, 0.005731, 0.003816,-0.995703,-0.002120, 0.003096, 0.016882, 0.001161,-0.080448,-0.147380, 0.000000, 0.000001, 0.000000,1,0
1777416589365733089,1428518000000,  1428.523, 0.000070, 0.000030,-0.009959,-0.000025, 0.000019, 0.000173,-0.299316,-0.080542, 0.034987,1,-0.002120, 0.003095, 0.016882,1, 0.005731, 0.003816,-0.995703,-0.002120, 0.003096, 0.016882, 0.001161,-0.080448,-0.147380, 0.000000, 0.000001, 0.000000,1,0
1777416589375412910,1428538000000,  1428.543, 0.000065, 0.000040,-0.009956,-0.000030, 0.000005, 0.000169,-0.286521,-0.079979, 0.034648,1,-0.002757, 0.001382, 0.016934,1, 0.006592, 0.003810,-0.995754,-0.002757, 0.001383, 0.016934, 0.000900,-0.080027,-0.146626, 0.000000, 0.000001, 0.000000,1,0
1777416589385499030,1428538000000,  1428.543, 0.000065, 0.000040,-0.009956,-0.000030, 0.000005, 0.000169,-0.286521,-0.079979, 0.034648,1,-0.002757, 0.001382, 0.016934,1, 0.006592, 0.003810,-0.995754,-0.002757, 0.001383, 0.016934, 0.000900,-0.080027,-0.146626, 0.000000, 0.000001, 0.000000,1,0
1777416589395171277,1428558000000,  1428.563, 0.000046, 0.000007,-0.009946,-0.000019, 0.000035, 0.000182,-0.296674,-0.096404, 0.038053,1,-0.002325, 0.002595, 0.017812,1, 0.005460, 0.002144,-0.995410,-0.002325, 0.002595, 0.017812, 0.000672,-0.080073,-0.147194, 0.000000, 0.000001, 0.000000,1,0
1777416589405255361,1428558000000,  1428.563, 0.000046, 0.000007,-0.009946,-0.000019, 0.000035, 0.000182,-0.296674,-0.096404, 0.038053,1,-0.002325, 0.002595, 0.017812,1, 0.005460, 0.002144,-0.995410,-0.002325, 0.002595, 0.017812, 0.000672,-0.080073,-0.147194, 0.000000, 0.000001, 0.000000,1,0
1777416589424961119,1428578000000,  1428.583, 0.000044, 0.000031,-0.009962,-0.000023, 0.000015, 0.000188,-0.301843,-0.093840, 0.029058,1,-0.002245, 0.002094, 0.018415,1, 0.004941, 0.002427,-0.996327,-0.002245, 0.002095, 0.018415, 0.001658,-0.080544,-0.147323, 0.000000, 0.000001, 0.000000,1,0
1777416589434607737,1428598000000,  1428.603, 0.000045, 0.000014,-0.009959,-0.000006, 0.000034, 0.000201,-0.305048,-0.094895, 0.033481,1,-0.001263, 0.002917, 0.019522,1, 0.004656, 0.002338,-0.995874,-0.001263, 0.002918, 0.019522, 0.001248,-0.080335,-0.147889, 0.000000, 0.000001, 0.000000,1,0
1777416589444691117,1428598000000,  1428.603, 0.000045, 0.000014,-0.009959,-0.000006, 0.000034, 0.000201,-0.305048,-0.094895, 0.033481,1,-0.001263, 0.002917, 0.019522,1, 0.004656, 0.002338,-0.995874,-0.001263, 0.002918, 0.019522, 0.001248,-0.080335,-0.147889, 0.000000, 0.000001, 0.000000,1,0
1777416589460232736,1428618000000,  1428.623, 0.000045,-0.000068,-0.009954,-0.000008, 0.000024, 0.000176,-0.306934,-0.150068, 0.037376,1,-0.001133, 0.002898, 0.018448,1, 0.004526,-0.003278,-0.995474,-0.001133, 0.002898, 0.018448, 0.001663,-0.080143,-0.147464, 0.000000, 0.000001, 0.000000,1,0
1777416589479978289,1428638000000,  1428.643, 0.000034,-0.000012,-0.009951,-0.000024, 0.000030, 0.000154,-0.312922,-0.142867, 0.032590,1,-0.002084, 0.002922, 0.016439,1, 0.003979,-0.002524,-0.995960,-0.002084, 0.002922, 0.016439, 0.001665,-0.080277,-0.146902, 0.000000, 0.000001, 0.000000,1,0
1777416589489671369,1428658000000,  1428.658, 0.000048, 0.000050,-0.009970,-0.000016, 0.000038, 0.000165,-0.310939,-0.098824, 0.029321,1,-0.001880, 0.003465, 0.016248,1, 0.004249, 0.001997,-0.996290,-0.001880, 0.003465, 0.016248, 0.001863,-0.080284,-0.146555, 0.000000, 0.000001, 0.000000,1,0
1777416589499759322,1428658000000,  1428.658, 0.000048, 0.000050,-0.009970,-0.000016, 0.000038, 0.000165,-0.310939,-0.098824, 0.029321,1,-0.001880, 0.003465, 0.016248,1, 0.004249, 0.001997,-0.996290,-0.001880, 0.003465, 0.016248, 0.001863,-0.080284,-0.146555, 0.000000, 0.000001, 0.000000,1,0
1777416589509427866,1428678000000,  1428.678, 0.000047, 0.000127,-0.009965,-0.000011, 0.000036, 0.000187,-0.308323,-0.031415, 0.029295,1,-0.001444, 0.003305, 0.017833,1, 0.004584, 0.008893,-0.996290,-0.001444, 0.003306, 0.017833, 0.001479,-0.080466,-0.146644, 0.000000, 0.000001, 0.000000,1,0
1777416589519512653,1428678000000,  1428.678, 0.000047, 0.000127,-0.009965,-0.000011, 0.000036, 0.000187,-0.308323,-0.031415, 0.029295,1,-0.001444, 0.003305, 0.017833,1, 0.004584, 0.008893,-0.996290,-0.001444, 0.003306, 0.017833, 0.001479,-0.080466,-0.146644, 0.000000, 0.000001, 0.000000,1,0
1777416589538858425,1428698000000,  1428.698, 0.000067, 0.000061,-0.009960,-0.000006, 0.000038, 0.000212,-0.304676,-0.021753, 0.034195,1,-0.000938, 0.003539, 0.019158,1, 0.005779, 0.008014,-0.995906,-0.000740, 0.003622, 0.020145, 0.002177,-0.080415,-0.148292, 0.000000, 0.000001, 0.000000,1,0
1777416589548556282,1428718000000,  1428.718, 0.000070,-0.000061,-0.009957,-0.000014, 0.000022, 0.000202,-0.293378,-0.081868, 0.032853,1,-0.000402, 0.003367, 0.020782,1, 0.006617,-0.000719,-0.995873,-0.000893, 0.002783, 0.020519, 0.001386,-0.080495,-0.148160, 0.000000, 0.000001, 0.000000,1,0
1777416589558643254,1428718000000,  1428.718, 0.000070,-0.000061,-0.009957,-0.000014, 0.000022, 0.000202,-0.293378,-0.081868, 0.032853,1,-0.000402, 0.003367, 0.020782,1, 0.006617,-0.000719,-0.995873,-0.000893, 0.002783, 0.020519, 0.001386,-0.080495,-0.148160, 0.000000, 0.000001, 0.000000,1,0
1777416589577915881,1428738000000,  1428.738, 0.000046,-0.000071,-0.009940,-0.000019, 0.000030, 0.000179,-0.287776,-0.156182, 0.037472,1,-0.000880, 0.003086, 0.019838,1, 0.005506,-0.005326,-0.994668,-0.001358, 0.003020, 0.018940, 0.001290,-0.080061,-0.147845, 0.000000, 0.000001, 0.000000,1,0
1777416589587628682,1428758000000,  1428.758, 0.000036,-0.000018,-0.009956,-0.000024, 0.000027, 0.000162,-0.301714,-0.170528, 0.034792,1,-0.001848, 0.002823, 0.018320,1, 0.004178,-0.003607,-0.995693,-0.002149, 0.002767, 0.017362, 0.001390,-0.080110,-0.147469, 0.000000, 0.000001, 0.000000,1,0
1777416589597712265,1428758000000,  1428.758, 0.000036,-0.000018,-0.009956,-0.000024, 0.000027, 0.000162,-0.301714,-0.170528, 0.034792,1,-0.001848, 0.002823, 0.018320,1, 0.004178,-0.003607,-0.995693,-0.002149, 0.002767, 0.017362, 0.001390,-0.080110,-0.147469, 0.000000, 0.000001, 0.000000,1,0
1777416589607379179,1428778000000,  1428.778, 0.000033, 0.000073,-0.009951,-0.000022, 0.000030, 0.000169,-0.309473,-0.118156, 0.029723,1,-0.002169, 0.002236, 0.017166,1, 0.003586, 0.003338,-0.995744,-0.002162, 0.002587, 0.017029, 0.001178,-0.079982,-0.147287, 0.000000, 0.000001, 0.000000,1,0
1777416589617462429,1428778000000,  1428.778, 0.000033, 0.000073,-0.009951,-0.000022, 0.000030, 0.000169,-0.309473,-0.118156, 0.029723,1,-0.002169, 0.002236, 0.017166,1, 0.003586, 0.003338,-0.995744,-0.002162, 0.002587, 0.017029, 0.001178,-0.079982,-0.147287, 0.000000, 0.000001, 0.000000,1,0
1777416589627192026,1428798000000,  1428.798, 0.000030, 0.000068,-0.009962,-0.000019, 0.000025, 0.000185,-0.315995,-0.064763, 0.037595,1,-0.002119, 0.002677, 0.017423,1, 0.003089, 0.006030,-0.995987,-0.002054, 0.002582, 0.017946, 0.001237,-0.080179,-0.147505, 0.000000, 0.000001, 0.000000,1,0
1777416589637275628,1428798000000,  1428.798, 0.000030, 0.000068,-0.009962,-0.000019, 0.000025, 0.000185,-0.315995,-0.064763, 0.037595,1,-0.002119, 0.002677, 0.017423,1, 0.003089, 0.006030,-0.995987,-0.002054, 0.002582, 0.017946, 0.001237,-0.080179,-0.147505, 0.000000, 0.000001, 0.000000,1,0
1777416589656863539,1428808000000,  1428.813, 0.000024, 0.000056,-0.009963,-0.000014, 0.000022, 0.000195,-0.320936,-0.061242, 0.031742,1,-0.001691, 0.002385, 0.018670,1, 0.002760, 0.005805,-0.996061,-0.001691, 0.002385, 0.018670, 0.001301,-0.080123,-0.147595, 0.000000, 0.000001, 0.000000,1,0
1777416589666561785,1428828000000,  1428.833, 0.000041, 0.000032,-0.009968,-0.000005, 0.000018, 0.000204,-0.313835,-0.077366, 0.030579,1,-0.001037, 0.001863, 0.019699,1, 0.003526, 0.004174,-0.996177,-0.001037, 0.001864, 0.019699, 0.001722,-0.080396,-0.147965, 0.000000, 0.000001, 0.000000,1,0
1777416589676645757,1428828000000,  1428.833, 0.000041, 0.000032,-0.009968,-0.000005, 0.000018, 0.000204,-0.313835,-0.077366, 0.030579,1,-0.001037, 0.001863, 0.019699,1, 0.003526, 0.004174,-0.996177,-0.001037, 0.001864, 0.019699, 0.001722,-0.080396,-0.147965, 0.000000, 0.000001, 0.000000,1,0
1777416589686321412,1428848000000,  1428.853, 0.000049,-0.000007,-0.009972,-0.000002, 0.000037, 0.000213,-0.305284,-0.106337, 0.026001,1,-0.000542, 0.002965, 0.020728,1, 0.004450, 0.001219,-0.996642,-0.000542, 0.002965, 0.020728, 0.001708,-0.080632,-0.148542, 0.000000, 0.000001, 0.000000,1,0
1777416589696404977,1428848000000,  1428.853, 0.000049,-0.000007,-0.009972,-0.000002, 0.000037, 0.000213,-0.305284,-0.106337, 0.026001,1,-0.000542, 0.002965, 0.020728,1, 0.004450, 0.001219,-0.996642,-0.000542, 0.002965, 0.020728, 0.001708,-0.080632,-0.148542, 0.000000, 0.000001, 0.000000,1,0
1777416589706093371,1428868000000,  1428.873, 0.000075,-0.000016,-0.010017,-0.000005, 0.000034, 0.000203,-0.291844,-0.127686, 0.014564,1,-0.000501, 0.003116, 0.020500,1, 0.005886,-0.000962,-0.997806,-0.000501, 0.003117, 0.020500, 0.001531,-0.080457,-0.148174, 0.000000, 0.000001, 0.000000,1,0
1777416589716205750,1428868000000,  1428.873, 0.000075,-0.000016,-0.010017,-0.000005, 0.000034, 0.000203,-0.291844,-0.127686, 0.014564,1,-0.000501, 0.003116, 0.020500,1, 0.005886,-0.000962,-0.997806,-0.000501, 0.003117, 0.020500, 0.001531,-0.080457,-0.148174, 0.000000, 0.000001, 0.000000,1,0
1777416589735860658,1428888000000,  1428.893, 0.000066,-0.000034,-0.010025,-0.000011, 0.000017, 0.000183,-0.287291,-0.146127, 0.016801,1,-0.000950, 0.002390, 0.019125,1, 0.006413,-0.002841,-0.997576,-0.000950, 0.002391, 0.019125, 0.001437,-0.080334,-0.147855, 0.000000, 0.000001, 0.000000,1,0
1777416589745552830,1428908000000,  1428.913, 0.000044, 0.000005,-0.010008,-0.000015, 0.000028, 0.000174,-0.300594,-0.131560, 0.022871,1,-0.001459, 0.002713, 0.017894,1, 0.005110,-0.001338,-0.996955,-0.001459, 0.002713, 0.017894, 0.000893,-0.080279,-0.147003, 0.000000, 0.000001, 0.000000,1,0
1777416589755665635,1428908000000,  1428.913, 0.000044, 0.000005,-0.010008,-0.000015, 0.000028, 0.000174,-0.300594,-0.131560, 0.022871,1,-0.001459, 0.002713, 0.017894,1, 0.005110,-0.001338,-0.996955,-0.001459, 0.002713, 0.017894, 0.000893,-0.080279,-0.147003, 0.000000, 0.000001, 0.000000,1,0
1777416589765305402,1428928000000,  1428.933, 0.000048, 0.000044,-0.009993,-0.000014, 0.000025, 0.000176,-0.297773,-0.096876, 0.023186,1,-0.001312, 0.002804, 0.017597,1, 0.004971, 0.002069,-0.996940,-0.001312, 0.002805, 0.017597, 0.001062,-0.080224,-0.147344, 0.000000, 0.000001, 0.000000,1,0
1777416589775418040,1428928000000,  1428.933, 0.000048, 0.000044,-0.009993,-0.000014, 0.000025, 0.000176,-0.297773,-0.096876, 0.023186,1,-0.001312, 0.002804, 0.017597,1, 0.004971, 0.002069,-0.996940,-0.001312, 0.002805, 0.017597, 0.001062,-0.080224,-0.147344, 0.000000, 0.000001, 0.000000,1,0
1777416589785038807,1428948000000,  1428.953, 0.000052, 0.000056,-0.009983,-0.000024,-0.000004, 0.000188,-0.292955,-0.077744, 0.025593,1,-0.001948, 0.001113, 0.018308,1, 0.005254, 0.003966,-0.996702,-0.001948, 0.001113, 0.018308, 0.001343,-0.080316,-0.148105, 0.000000, 0.000001, 0.000000,1,0
1777416589795151186,1428948000000,  1428.953, 0.000052, 0.000056,-0.009983,-0.000024,-0.000004, 0.000188,-0.292955,-0.077744, 0.025593,1,-0.001948, 0.001113, 0.018308,1, 0.005254, 0.003966,-0.996702,-0.001948, 0.001113, 0.018308, 0.001343,-0.080316,-0.148105, 0.000000, 0.000001, 0.000000,1,0
1777416589814939978,1428968000000,  1428.973, 0.000066, 0.000053,-0.009952,-0.000014,-0.000015, 0.000194,-0.283940,-0.068892, 0.034517,1,-0.001562,-0.000152, 0.018966,1, 0.006116, 0.004866,-0.995794,-0.001562,-0.000151, 0.018966, 0.001056,-0.080245,-0.147702, 0.000000, 0.000001, 0.000000,1,0
1777416589824549987,1428988000000,  1428.993, 0.000079,-0.000025,-0.009948,-0.000042,-0.000069, 0.000195,-0.272625,-0.109609, 0.040593,1,-0.003132,-0.003925, 0.019369,1, 0.007218, 0.000741,-0.995176,-0.003132,-0.003925, 0.019369, 0.001493,-0.080228,-0.148227, 0.000000, 0.000001, 0.000000,1,0
1777416589834704308,1428988000000,  1428.993, 0.000079,-0.000025,-0.009948,-0.000042,-0.000069, 0.000195,-0.272625,-0.109609, 0.040593,1,-0.003132,-0.003925, 0.019369,1, 0.007218, 0.000741,-0.995176,-0.003132,-0.003925, 0.019369, 0.001493,-0.080228,-0.148227, 0.000000, 0.000001, 0.000000,1,0
1777416589850211151,1429008000000,  1429.013, 0.000024, 0.000034,-0.010025,-0.000048,-0.000166, 0.000189,-0.293692,-0.105139, 0.005795,1,-0.004688,-0.011932, 0.018905,1, 0.004892, 0.001274,-0.998730,-0.004688,-0.011931, 0.018905, 0.001596,-0.080408,-0.147154, 0.000000, 0.000001, 0.000000,1,0
1777416589870009887,1429028000000,  1429.028,-0.000358, 0.000760,-0.010096, 0.000124, 0.000078, 0.000218,-0.470602, 0.206433,-0.090710,1, 0.003214,-0.003899, 0.020498,1,-0.013403, 0.033075,-1.008579, 0.003214,-0.003898, 0.020498, 0.001690,-0.080178,-0.146691, 0.000000, 0.000001, 0.000000,1,0
1777416589889733811,1429048000000,  1429.048,-0.000567,-0.001712,-0.012922,-0.000732, 0.000542, 0.000161,-0.673968,-0.704168,-1.258044,1,-0.025993, 0.014201, 0.021029,1,-0.034136,-0.059723,-1.127613,-0.025993, 0.014202, 0.021029, 0.001759,-0.080514,-0.147117, 0.000000, 0.000001, 0.000000,1,0
1777416589899051794,1429068000000,  1429.068,-0.000387, 0.000695,-0.011640,-0.000030,-0.000103,-0.000061,-0.892940,-0.681229, 0.887513,1, 0.001382, 0.011684, 0.009302,1,-0.047596, 0.001221,-1.018851, 0.002380,-0.000666, 0.002797, 0.001644,-0.080175,-0.147437, 0.000000, 0.000001, 0.000000,1,0
1777416589909247003,1429068000000,  1429.068,-0.000387, 0.000695,-0.011640,-0.000030,-0.000103,-0.000061,-0.892940,-0.681229, 0.887513,1, 0.001382, 0.011684, 0.009302,1,-0.047596, 0.001221,-1.018851, 0.002380,-0.000666, 0.002797, 0.001644,-0.080175,-0.147437, 0.000000, 0.000001, 0.000000,1,0
1777416589928830081,1429088000000,  1429.088,-0.000022,-0.000144,-0.010014,-0.000031,-0.000025, 0.000136,-0.384187,-0.035972, 0.026494,1, 0.007290, 0.012500, 0.006895,1,-0.001872,-0.000306,-0.987341, 0.005944, 0.009619, 0.009650, 0.001193,-0.080155,-0.147594, 0.000000, 0.000001, 0.000000,1,0
1777416589938503253,1429108000000,  1429.108, 0.000714, 0.000720,-0.009691,-0.000047, 0.000002, 0.000127,-0.156389,-0.127241,-0.098976,1,-0.001434, 0.009323, 0.006676,1, 0.040972, 0.033992,-0.979115,-0.002164, 0.003917, 0.009680, 0.001549,-0.080235,-0.147747, 0.000000, 0.000001, 0.000000,1,0
1777416589948654297,1429108000000,  1429.108, 0.000714, 0.000720,-0.009691,-0.000047, 0.000002, 0.000127,-0.156389,-0.127241,-0.098976,1,-0.001434, 0.009323, 0.006676,1, 0.040972, 0.033992,-0.979115,-0.002164, 0.003917, 0.009680, 0.001549,-0.080235,-0.147747, 0.000000, 0.000001, 0.000000,1,0
1777416589958315212,1429128000000,  1429.128, 0.000570, 0.000385,-0.009890, 0.000127, 0.000103, 0.000312, 0.112486, 0.479347, 0.118807,1,-0.006163, 0.002817, 0.015919,1, 0.052775, 0.051252,-0.985174, 0.002464, 0.005969, 0.022808, 0.001559,-0.080160,-0.147853, 0.000000, 0.000001, 0.000000,1,0
1777416589968467589,1429128000000,  1429.128, 0.000570, 0.000385,-0.009890, 0.000127, 0.000103, 0.000312, 0.112486, 0.479347, 0.118807,1,-0.006163, 0.002817, 0.015919,1, 0.052775, 0.051252,-0.985174, 0.002464, 0.005969, 0.022808, 0.001559,-0.080160,-0.147853, 0.000000, 0.000001, 0.000000,1,0
1777416589988091054,1429148000000,  1429.148, 0.000385, 0.000084,-0.010326, 0.000056,-0.000058, 0.000461, 0.058326, 0.419629, 0.048757,1, 0.005987, 0.006821, 0.029744,1, 0.038346, 0.033382,-1.004425, 0.005674, 0.000077, 0.037244, 0.001387,-0.080365,-0.147373, 0.000000, 0.000001, 0.000000,1,0
1777416590007861013,1429168000000,  1429.168, 0.000090,-0.000546,-0.010009, 0.000053,-0.000022, 0.000368,-0.108931,-0.007572, 0.049063,1,-0.006459,-0.008875, 0.039750,1, 0.015632,-0.019128,-0.985784,-0.001395,-0.005903, 0.038048, 0.001527,-0.080340,-0.147727, 0.000000, 0.000001, 0.000000,1,0
1777416590017452448,1429188000000,  1429.188,-0.000059,-0.000581,-0.009910, 0.000038, 0.000090, 0.000139,-0.202211,-0.516638,-0.030405,1,-0.003159,-0.003901, 0.030910,1, 0.006717,-0.047625,-0.993087,-0.000042, 0.002456, 0.022695, 0.001322,-0.080535,-0.147634, 0.000000, 0.000001, 0.000000,1,0
1777416590027606084,1429188000000,  1429.188,-0.000059,-0.000581,-0.009910, 0.000038, 0.000090, 0.000139,-0.202211,-0.516638,-0.030405,1,-0.003159,-0.003901, 0.030910,1, 0.006717,-0.047625,-0.993087,-0.000042, 0.002456, 0.022695, 0.001322,-0.080535,-0.147634, 0.000000, 0.000001, 0.000000,1,0
1777416590037250998,1429208000000,  1429.208, 0.000034,-0.000063,-0.009992,-0.000006, 0.000078, 0.000094,-0.303117,-0.474624, 0.006180,1, 0.001033, 0.003265, 0.015106,1, 0.003344,-0.022718,-0.992751, 0.000343, 0.005354, 0.012635, 0.001792,-0.080309,-0.148247, 0.000000, 0.000001, 0.000000,1,0
1777416590047405596,1429208000000,  1429.208, 0.000034,-0.000063,-0.009992,-0.000006, 0.000078, 0.000094,-0.303117,-0.474624, 0.006180,1, 0.001033, 0.003265, 0.015106,1, 0.003344,-0.022718,-0.992751, 0.000343, 0.005354, 0.012635, 0.001792,-0.080309,-0.148247, 0.000000, 0.000001, 0.000000,1,0
1777416590067029986,1429218000000,  1429.223, 0.000230,-0.000103,-0.009948,-0.000099, 0.000142, 0.000097,-0.208392,-0.276438,-0.014639,1,-0.004638, 0.009073, 0.011212,1, 0.013205,-0.016116,-1.000826,-0.004638, 0.009074, 0.011212, 0.001701,-0.080583,-0.148291, 0.000000, 0.000001, 0.000000,1,0
1777416590086789667,1429238000000,  1429.243, 0.000138, 0.000190,-0.009592,-0.000057, 0.000037, 0.000091,-0.208037,-0.052440, 0.131903,1,-0.004720, 0.003560, 0.010537,1, 0.013314, 0.006818,-0.985879,-0.004720, 0.003561, 0.010537, 0.001554,-0.080294,-0.146975, 0.000000, 0.000001, 0.000000,1,0
1777416590096396749,1429258000000,  1429.263, 0.000141, 0.000283,-0.009699, 0.000020, 0.000101, 0.000174,-0.185798, 0.128763, 0.082858,1, 0.000738, 0.008257, 0.014485,1, 0.015721, 0.025306,-0.990876, 0.000738, 0.008257, 0.014485, 0.001114,-0.080298,-0.147086, 0.000000, 0.000001, 0.000000,1,0
1777416590106546866,1429258000000,  1429.263, 0.000141, 0.000283,-0.009699, 0.000020, 0.000101, 0.000174,-0.185798, 0.128763, 0.082858,1, 0.000738, 0.008257, 0.014485,1, 0.015721, 0.025306,-0.990876, 0.000738, 0.008257, 0.014485, 0.001114,-0.080298,-0.147086, 0.000000, 0.000001, 0.000000,1,0
1777416590116150782,1429278000000,  1429.283, 0.000030,-0.000033,-0.009898,-0.000057,-0.000061, 0.000209,-0.267447,-0.025142, 0.018736,1,-0.002800,-0.001771, 0.019236,1, 0.007438, 0.009616,-0.997413,-0.002800,-0.001771, 0.019236, 0.001197,-0.080022,-0.146474, 0.000000, 0.000001, 0.000000,1,0
1777416590126302307,1429278000000,  1429.283, 0.000030,-0.000033,-0.009898,-0.000057,-0.000061, 0.000209,-0.267447,-0.025142, 0.018736,1,-0.002800,-0.001771, 0.019236,1, 0.007438, 0.009616,-0.997413,-0.002800,-0.001771, 0.019236, 0.001197,-0.080022,-0.146474, 0.000000, 0.000001, 0.000000,1,0
1777416590145973084,1429298000000,  1429.303,-0.000064, 0.000042,-0.010016, 0.000010, 0.000064, 0.000179,-0.362415,-0.067982, 0.009592,1,-0.000404, 0.003313, 0.018663,1,-0.002221, 0.005268,-0.998344,-0.000404, 0.003313, 0.018663, 0.001332,-0.079831,-0.147629, 0.000000, 0.000001, 0.000000,1,0
1777416590155654570,1429318000000,  1429.323,-0.000087,-0.000190,-0.009993,-0.000011, 0.000058, 0.000183,-0.416655,-0.211291, 0.018163,1, 0.000314, 0.004943, 0.018730,1,-0.007948,-0.009487,-0.997478, 0.000314, 0.004944, 0.018730, 0.001439,-0.080052,-0.147873, 0.000000, 0.000001, 0.000000,1,0
1777416590165805984,1429318000000,  1429.323,-0.000087,-0.000190,-0.009993,-0.000011, 0.000058, 0.000183,-0.416655,-0.211291, 0.018163,1, 0.000314, 0.004943, 0.018730,1,-0.007948,-0.009487,-0.997478, 0.000314, 0.004944, 0.018730, 0.001439,-0.080052,-0.147873, 0.000000, 0.000001, 0.000000,1,0
1777416590175412011,1429338000000,  1429.343,-0.000080, 0.000089,-0.009923,-0.000045, 0.000001, 0.000181,-0.415596,-0.111421, 0.033886,1,-0.002436, 0.002168, 0.018144,1,-0.008495, 0.000422,-0.995901,-0.002436, 0.002169, 0.018144, 0.001355,-0.080275,-0.148483, 0.000000, 0.000001, 0.000000,1,0
1777416590185563239,1429338000000,  1429.343,-0.000080, 0.000089,-0.009923,-0.000045, 0.000001, 0.000181,-0.415596,-0.111421, 0.033886,1,-0.002436, 0.002168, 0.018144,1,-0.008495, 0.000422,-0.995901,-0.002436, 0.002169, 0.018144, 0.001355,-0.080275,-0.148483, 0.000000, 0.000001, 0.000000,1,0
1777416590195142933,1429358000000,  1429.363,-0.000108, 0.000016,-0.009886, 0.000015, 0.000097, 0.000197,-0.428513,-0.080225, 0.055705,1,-0.000060, 0.005767, 0.019315,1,-0.009963, 0.003533,-0.993682,-0.000060, 0.005768, 0.019315, 0.001425,-0.080242,-0.147510, 0.000000, 0.000001, 0.000000,1,0
1777416590205294217,1429358000000,  1429.363,-0.000108, 0.000016,-0.009886, 0.000015, 0.000097, 0.000197,-0.428513,-0.080225, 0.055705,1,-0.000060, 0.005767, 0.019315,1,-0.009963, 0.003533,-0.993682,-0.000060, 0.005768, 0.019315, 0.001425,-0.080242,-0.147510, 0.000000, 0.000001, 0.000000,1,0
1777416590224929810,1429378000000,  1429.383,-0.000107, 0.000024,-0.009947,-0.000044,-0.000020, 0.000176,-0.431867,-0.094082, 0.023147,1,-0.002010, 0.001775, 0.018282,1,-0.010275, 0.002091,-0.997001,-0.002010, 0.001776, 0.018282, 0.000924,-0.080273,-0.147110, 0.000000, 0.000001, 0.000000,1,0
1777416590234590983,1429398000000,  1429.403,-0.000077, 0.000014,-0.009956,-0.000019, 0.000048, 0.000168,-0.419022,-0.093894, 0.033939,1,-0.002054, 0.002871, 0.017219,1,-0.008948, 0.002136,-0.995900,-0.002054, 0.002872, 0.017219, 0.001335,-0.080757,-0.146943, 0.000000, 0.000001, 0.000000,1,0
1777416590244745674,1429398000000,  1429.403,-0.000077, 0.000014,-0.009956,-0.000019, 0.000048, 0.000168,-0.419022,-0.093894, 0.033939,1,-0.002054, 0.002871, 0.017219,1,-0.008948, 0.002136,-0.995900,-0.002054, 0.002872, 0.017219, 0.001335,-0.080757,-0.146943, 0.000000, 0.000001, 0.000000,1,0
1777416590260224109,1429418000000,  1429.423, 0.000004,-0.000009,-0.009989,-0.000019, 0.000032, 0.000177,-0.363602,-0.118558, 0.019373,1,-0.001640, 0.003587, 0.017517,1,-0.003226,-0.000359,-0.997383,-0.001640, 0.003587, 0.017517, 0.001493,-0.080319,-0.147876, 0.000000, 0.000001, 0.000000,1,0
1777416590280041658,1429438000000,  1429.443, 0.000074, 0.000099,-0.009986,-0.000029, 0.000032, 0.000208,-0.300276,-0.054984, 0.021563,1,-0.002333, 0.003497, 0.019376,1, 0.003309, 0.006149,-0.997156,-0.002333, 0.003498, 0.019376, 0.001293,-0.080245,-0.147741, 0.000000, 0.000001, 0.000000,1,0
1777416590299767322,1429458000000,  1429.458, 0.000085,-0.000002,-0.009967,-0.000015, 0.000043, 0.000204,-0.264157,-0.087188, 0.030119,1,-0.001930, 0.003295, 0.020504,1, 0.007053, 0.002896,-0.996281,-0.001929, 0.003296, 0.020504, 0.001901,-0.080252,-0.147805, 0.000000, 0.000001, 0.000000,1,0
1777416590309047601,1429478000000,  1429.478, 0.000112, 0.000016,-0.009995,-0.000020, 0.000033, 0.000193,-0.250620,-0.093538, 0.048586,1,-0.000796, 0.004125, 0.020205,1, 0.009699, 0.001937,-0.997153,-0.001343, 0.003664, 0.019784, 0.001682,-0.080377,-0.147419, 0.000000, 0.000001, 0.000000,1,0
1777416590319199681,1429478000000,  1429.478, 0.000112, 0.000016,-0.009995,-0.000020, 0.000033, 0.000193,-0.250620,-0.093538, 0.048586,1,-0.000796, 0.004125, 0.020205,1, 0.009699, 0.001937,-0.997153,-0.001343, 0.003664, 0.019784, 0.001682,-0.080377,-0.147419, 0.000000, 0.000001, 0.000000,1,0
1777416590338890032,1429498000000,  1429.498, 0.000116,-0.000065,-0.009955,-0.000019, 0.000028, 0.000177,-0.233353,-0.126285, 0.036853,1,-0.001387, 0.002736, 0.019435,1, 0.010918,-0.003468,-0.995851,-0.001600, 0.002839, 0.018569, 0.001713,-0.080060,-0.147557, 0.000000, 0.000001, 0.000000,1,0
1777416590348555112,1429518000000,  1429.518, 0.000130, 0.000029,-0.009960,-0.000011, 0.000033, 0.000171,-0.216706,-0.142707, 0.036283,1,-0.001773, 0.003665, 0.017791,1, 0.012463,-0.000087,-0.995851,-0.001468, 0.003488, 0.017532, 0.001188,-0.080285,-0.148227, 0.000000, 0.000001, 0.000000,1,0
1777416590358706784,1429518000000,  1429.518, 0.000130, 0.000029,-0.009960,-0.000011, 0.000033, 0.000171,-0.216706,-0.142707, 0.036283,1,-0.001773, 0.003665, 0.017791,1, 0.012463,-0.000087,-0.995851,-0.001468, 0.003488, 0.017532, 0.001188,-0.080285,-0.148227, 0.000000, 0.000001, 0.000000,1,0
1777416590368366531,1429538000000,  1429.538, 0.000110, 0.000025,-0.009981,-0.000010, 0.000033, 0.000189,-0.211080,-0.105799, 0.043196,1,-0.001414, 0.003096, 0.017869,1, 0.011663, 0.001679,-0.996611,-0.001204, 0.003142, 0.018393, 0.001173,-0.080030,-0.148040, 0.000000, 0.000001, 0.000000,1,0
1777416590378518926,1429538000000,  1429.538, 0.000110, 0.000025,-0.009981,-0.000010, 0.000033, 0.000189,-0.211080,-0.105799, 0.043196,1,-0.001414, 0.003096, 0.017869,1, 0.011663, 0.001679,-0.996611,-0.001204, 0.003142, 0.018393, 0.001173,-0.080030,-0.148040, 0.000000, 0.000001, 0.000000,1,0
1777416590388045900,1429558000000,  1429.558, 0.000062, 0.000054,-0.009957,-0.000016, 0.000026, 0.000193,-0.227507,-0.088044, 0.036532,1,-0.001246, 0.002476, 0.018716,1, 0.008437, 0.004003,-0.995737,-0.001406, 0.002600, 0.019010, 0.001785,-0.080226,-0.148030, 0.000000, 0.000001, 0.000000,1,0
1777416590398203536,1429558000000,  1429.558, 0.000062, 0.000054,-0.009957,-0.000016, 0.000026, 0.000193,-0.227507,-0.088044, 0.036532,1,-0.001246, 0.002476, 0.018716,1, 0.008437, 0.004003,-0.995737,-0.001406, 0.002600, 0.019010, 0.001785,-0.080226,-0.148030, 0.000000, 0.000001, 0.000000,1,0
1777416590417835499,1429578000000,  1429.578, 0.000053, 0.000018,-0.009983, 0.000001, 0.000048, 0.000193,-0.260029,-0.075873, 0.039858,1,-0.000644, 0.003242, 0.018693,1, 0.006204, 0.002903,-0.996831,-0.000290, 0.003925, 0.018978, 0.001445,-0.080457,-0.147856, 0.000000, 0.000001, 0.000000,1,0
1777416590427511801,1429598000000,  1429.598, 0.000045,-0.000008,-0.009956,-0.000014, 0.000033, 0.000180,-0.273036,-0.115980, 0.028494,1,-0.000593, 0.003535, 0.018803,1, 0.005198,-0.000273,-0.996316,-0.000999, 0.003445, 0.018410, 0.001486,-0.080554,-0.147637, 0.000000, 0.000001, 0.000000,1,0
1777416590437664344,1429598000000,  1429.598, 0.000045,-0.000008,-0.009956,-0.000014, 0.000033, 0.000180,-0.273036,-0.115980, 0.028494,1,-0.000593, 0.003535, 0.018803,1, 0.005198,-0.000273,-0.996316,-0.000999, 0.003445, 0.018410, 0.001486,-0.080554,-0.147637, 0.000000, 0.000001, 0.000000,1,0
1777416590447226576,1429618000000,  1429.618, 0.000053, 0.000036,-0.009962, 0.000001, 0.000049, 0.000193,-0.277786,-0.102733, 0.038744,1,-0.000813, 0.004159, 0.018460,1, 0.005384, 0.002316,-0.996079,-0.000498, 0.004498, 0.018845, 0.001737,-0.080530,-0.147416, 0.000000, 0.000001, 0.000000,1,0
1777416590457415581,1429618000000,  1429.618, 0.000053, 0.000036,-0.009962, 0.000001, 0.000049, 0.000193,-0.277786,-0.102733, 0.038744,1,-0.000813, 0.004159, 0.018460,1, 0.005384, 0.002316,-0.996079,-0.000498, 0.004498, 0.018845, 0.001737,-0.080530,-0.147416, 0.000000, 0.000001, 0.000000,1,0
1777416590477065062,1429628000000,  1429.633, 0.000036, 0.000031,-0.009955,-0.000005, 0.000043, 0.000196,-0.286988,-0.089081, 0.036873,1,-0.000512, 0.004395, 0.019241,1, 0.004545, 0.002663,-0.995599,-0.000512, 0.004396, 0.019241, 0.001160,-0.080362,-0.147375, 0.000000, 0.000001, 0.000000,1,0
1777416590496841761,1429648000000,  1429.653,-0.000015, 0.000013,-0.009951,-0.000013, 0.000017, 0.000199,-0.321707,-0.098153, 0.036266,1,-0.001028, 0.002696, 0.019655,1, 0.001080, 0.001742,-0.995659,-0.001028, 0.002696, 0.019655, 0.001681,-0.080335,-0.147476, 0.000000, 0.000001, 0.000000,1,0
1777416590506446806,1429668000000,  1429.673,-0.000061,-0.000035,-0.009942,-0.000012, 0.000018, 0.000186,-0.367642,-0.126031, 0.044315,1,-0.001327, 0.002203, 0.018990,1,-0.003551,-0.001089,-0.994836,-0.001327, 0.002204, 0.018990, 0.001135,-0.080116,-0.148017, 0.000000, 0.000001, 0.000000,1,0
1777416590516649440,1429668000000,  1429.673,-0.000061,-0.000035,-0.009942,-0.000012, 0.000018, 0.000186,-0.367642,-0.126031, 0.044315,1,-0.001327, 0.002203, 0.018990,1,-0.003551,-0.001089,-0.994836,-0.001327, 0.002204, 0.018990, 0.001135,-0.080116,-0.148017, 0.000000, 0.000001, 0.000000,1,0
1777416590526179136,1429688000000,  1429.693,-0.000041,-0.000102,-0.009954,-0.000032, 0.000035, 0.000155,-0.375339,-0.185510, 0.028906,1,-0.002393, 0.003003, 0.017038,1,-0.004277,-0.007130,-0.996405,-0.002393, 0.003003, 0.017038, 0.001252,-0.079966,-0.147597, 0.000000, 0.000001, 0.000000,1,0
1777416590536334087,1429688000000,  1429.693,-0.000041,-0.000102,-0.009954,-0.000032, 0.000035, 0.000155,-0.375339,-0.185510, 0.028906,1,-0.002393, 0.003003, 0.017038,1,-0.004277,-0.007130,-0.996405,-0.002393, 0.003003, 0.017038, 0.001252,-0.079966,-0.147597, 0.000000, 0.000001, 0.000000,1,0
1777416590556031270,1429708000000,  1429.713, 0.000034, 0.000125,-0.009934,-0.000012, 0.000049, 0.000158,-0.330497,-0.076413, 0.039954,1,-0.002086, 0.004020, 0.015808,1, 0.000367, 0.004033,-0.995275,-0.002086, 0.004020, 0.015808, 0.001168,-0.079882,-0.146912, 0.000000, 0.000001, 0.000000,1,0
1777416590575397429,1429728000000,  1429.733, 0.000076, 0.000155,-0.009957,-0.000003, 0.000037, 0.000211,-0.278110, 0.009696, 0.035272,1,-0.000770, 0.004186, 0.018942,1, 0.005302, 0.012680,-0.995768,-0.000770, 0.004187, 0.018942, 0.001305,-0.080018,-0.147499, 0.000000, 0.000001, 0.000000,1,0
1777416590595085890,1429748000000,  1429.753, 0.000021, 0.000036,-0.009948,-0.000013, 0.000008, 0.000226,-0.292145,-0.040290, 0.038789,1,-0.001285, 0.001901, 0.021370,1, 0.003669, 0.007520,-0.995417,-0.001285, 0.001902, 0.021370, 0.001471,-0.080231,-0.147228, 0.000000, 0.000001, 0.000000,1,0
1777416590614790906,1429768000000,  1429.773, 0.000004,-0.000067,-0.009955, 0.000004, 0.000048, 0.000209,-0.316553,-0.124681, 0.034713,1,-0.000176, 0.003557, 0.021245,1, 0.001161,-0.001106,-0.995833,-0.000176, 0.003558, 0.021245, 0.001037,-0.080141,-0.147856, 0.000000, 0.000001, 0.000000,1,0
1777416590630481204,1429788000000,  1429.793, 0.000056,-0.000110,-0.009957,-0.000022, 0.000035, 0.000178,-0.293094,-0.195070, 0.030614,1,-0.001365, 0.003717, 0.019073,1, 0.003612,-0.008289,-0.996249,-0.001365, 0.003718, 0.019073, 0.001317,-0.080274,-0.148164, 0.000000, 0.000001, 0.000000,1,0
1777416590640014992,1429808000000,  1429.813, 0.000103, 0.000026,-0.009929,-0.000019, 0.000031, 0.000169,-0.252680,-0.134209, 0.047047,1,-0.001817, 0.003095, 0.017518,1, 0.007797,-0.002061,-0.994571,-0.001817, 0.003095, 0.017518, 0.001698,-0.080393,-0.148144, 0.000000, 0.000001, 0.000000,1,0
1777416590650170832,1429808000000,  1429.813, 0.000103, 0.000026,-0.009929,-0.000019, 0.000031, 0.000169,-0.252680,-0.134209, 0.047047,1,-0.001817, 0.003095, 0.017518,1, 0.007797,-0.002061,-0.994571,-0.001817, 0.003095, 0.017518, 0.001698,-0.080393,-0.148144, 0.000000, 0.000001, 0.000000,1,0
1777416590669858015,1429828000000,  1429.828, 0.000090, 0.000063,-0.009929,-0.000008, 0.000038, 0.000186,-0.244594,-0.078663, 0.045968,1,-0.001270, 0.003779, 0.018039,1, 0.008699, 0.003619,-0.994679,-0.001270, 0.003780, 0.018039, 0.001243,-0.080459,-0.147488, 0.000000, 0.000001, 0.000000,1,0
1777416590679531021,1429848000000,  1429.848, 0.000052, 0.000060,-0.009947,-0.000019, 0.000012, 0.000186,-0.267642,-0.058096, 0.034538,1,-0.001628, 0.001860, 0.018427,1, 0.006405, 0.005734,-0.995842,-0.001628, 0.001861, 0.018427, 0.001644,-0.080164,-0.147971, 0.000000, 0.000001, 0.000000,1,0
1777416590689686101,1429848000000,  1429.848, 0.000052, 0.000060,-0.009947,-0.000019, 0.000012, 0.000186,-0.267642,-0.058096, 0.034538,1,-0.001628, 0.001860, 0.018427,1, 0.006405, 0.005734,-0.995842,-0.001628, 0.001861, 0.018427, 0.001644,-0.080164,-0.147971, 0.000000, 0.000001, 0.000000,1,0
1777416590709052167,1429868000000,  1429.868, 0.000021,-0.000009,-0.009948,-0.000000, 0.000044, 0.000188,-0.285004,-0.073929, 0.030109,1,-0.001521, 0.002639, 0.018352,1, 0.003504, 0.001771,-0.995762,-0.000845, 0.003484, 0.018558, 0.001617,-0.079906,-0.147079, 0.000000, 0.000001, 0.000000,1,0
1777416590728740554,1429888000000,  1429.888, 0.000040, 0.000013,-0.009954,-0.000006, 0.000038, 0.000179,-0.304223,-0.104862, 0.029794,1,-0.000469, 0.003942, 0.018316,1, 0.003332, 0.001233,-0.995855,-0.000578, 0.003862, 0.018181, 0.001775,-0.080239,-0.147336, 0.000000, 0.000001, 0.000000,1,0
1777416590738405338,1429908000000,  1429.908, 0.000042, 0.000013,-0.009941,-0.000017, 0.000033, 0.000203,-0.294832,-0.100383, 0.032526,1,-0.000952, 0.003587, 0.018800,1, 0.004053, 0.001253,-0.995219,-0.001282, 0.003551, 0.019542, 0.001274,-0.080152,-0.147873, 0.000000, 0.000001, 0.000000,1,0
1777416590748559788,1429908000000,  1429.908, 0.000042, 0.000013,-0.009941,-0.000017, 0.000033, 0.000203,-0.294832,-0.100383, 0.032526,1,-0.000952, 0.003587, 0.018800,1, 0.004053, 0.001253,-0.995219,-0.001282, 0.003551, 0.019542, 0.001274,-0.080152,-0.147873, 0.000000, 0.000001, 0.000000,1,0
1777416590758153019,1429928000000,  1429.928, 0.000037,-0.000006,-0.009958,-0.000004, 0.000040, 0.000187,-0.294141,-0.109587, 0.036393,1,-0.001516, 0.003119, 0.019641,1, 0.003742,-0.000020,-0.995936,-0.000983, 0.003525, 0.019216, 0.001367,-0.080090,-0.147924, 0.000000, 0.000001, 0.000000,1,0
1777416590768307803,1429928000000,  1429.928, 0.000037,-0.000006,-0.009958,-0.000004, 0.000040, 0.000187,-0.294141,-0.109587, 0.036393,1,-0.001516, 0.003119, 0.019641,1, 0.003742,-0.000020,-0.995936,-0.000983, 0.003525, 0.019216, 0.001367,-0.080090,-0.147924, 0.000000, 0.000001, 0.000000,1,0
1777416590787988746,1429948000000,  1429.948, 0.000040, 0.000024,-0.009964,-0.000011, 0.000030, 0.000182,-0.288321,-0.106484, 0.035085,1,-0.000980, 0.003374, 0.018952,1, 0.003932, 0.001432,-0.996046,-0.001038, 0.003202, 0.018619, 0.001688,-0.080263,-0.148011, 0.000000, 0.000001, 0.000000,1,0
1777416590797602495,1429968000000,  1429.968, 0.000049, 0.000010,-0.009965,-0.000011, 0.000038, 0.000180,-0.284916,-0.097315, 0.036324,1,-0.001383, 0.003470, 0.018138,1, 0.004509, 0.001298,-0.995974,-0.001247, 0.003674, 0.018093, 0.001484,-0.080509,-0.147416, 0.000000, 0.000001, 0.000000,1,0
1777416590807759630,1429968000000,  1429.968, 0.000049, 0.000010,-0.009965,-0.000011, 0.000038, 0.000180,-0.284916,-0.097315, 0.036324,1,-0.001383, 0.003470, 0.018138,1, 0.004509, 0.001298,-0.995974,-0.001247, 0.003674, 0.018093, 0.001484,-0.080509,-0.147416, 0.000000, 0.000001, 0.000000,1,0
1777416590817418007,1429988000000,  1429.988, 0.000063, 0.000048,-0.009965,-0.000013, 0.000033, 0.000180,-0.273538,-0.097335, 0.038162,1,-0.001339, 0.003981, 0.017905,1, 0.005753, 0.003153,-0.995914,-0.001275, 0.003721, 0.017998, 0.001241,-0.080223,-0.147545, 0.000000, 0.000001, 0.000000,1,0
1777416590827573791,1429988000000,  1429.988, 0.000063, 0.000048,-0.009965,-0.000013, 0.000033, 0.000180,-0.273538,-0.097335, 0.038162,1,-0.001339, 0.003981, 0.017905,1, 0.005753, 0.003153,-0.995914,-0.001275, 0.003721, 0.017998, 0.001241,-0.080223,-0.147545, 0.000000, 0.000001, 0.000000,1,0
1777416590837087395,1430008000000,  1430.008, 0.000037, 0.000060,-0.009951,-0.000005, 0.000027, 0.000206,-0.269727,-0.067642, 0.035090,1,-0.001025, 0.003692, 0.018646,1, 0.004848, 0.005222,-0.995473,-0.000835, 0.003156, 0.019504, 0.001121,-0.080540,-0.147169, 0.000000, 0.000001, 0.000000,1,0
1777416590847257808,1430008000000,  1430.008, 0.000037, 0.000060,-0.009951,-0.000005, 0.000027, 0.000206,-0.269727,-0.067642, 0.035090,1,-0.001025, 0.003692, 0.018646,1, 0.004848, 0.005222,-0.995473,-0.000835, 0.003156, 0.019504, 0.001121,-0.080540,-0.147169, 0.000000, 0.000001, 0.000000,1,0
1777416590866981323,1430018000000,  1430.023, 0.000012, 0.000025,-0.009960,-0.000009, 0.000018, 0.000207,-0.296913,-0.074760, 0.035911,1,-0.000876, 0.002495, 0.020028,1, 0.003094, 0.003893,-0.995715,-0.000876, 0.002495, 0.020028, 0.001113,-0.080557,-0.147504, 0.000000, 0.000001, 0.000000,1,0
1777416590876611904,1430038000000,  1430.043,-0.000036,-0.000059,-0.009955,-0.000008, 0.000023, 0.000192,-0.340333,-0.135789, 0.036390,1,-0.000950, 0.002166, 0.019708,1,-0.001288,-0.002323,-0.995664,-0.000950, 0.002167, 0.019708, 0.000982,-0.080517,-0.147964, 0.000000, 0.000001, 0.000000,1,0
1777416590886766910,1430038000000,  1430.043,-0.000036,-0.000059,-0.009955,-0.000008, 0.000023, 0.000192,-0.340333,-0.135789, 0.036390,1,-0.000950, 0.002166, 0.019708,1,-0.001288,-0.002323,-0.995664,-0.000950, 0.002167, 0.019708, 0.000982,-0.080517,-0.147964, 0.000000, 0.000001, 0.000000,1,0
1777416590896284366,1430058000000,  1430.063,-0.000027,-0.000069,-0.009953,-0.000023, 0.000037, 0.000161,-0.352233,-0.169103, 0.036637,1,-0.001507, 0.002965, 0.017429,1,-0.002448,-0.005712,-0.995637,-0.001507, 0.002966, 0.017429, 0.001265,-0.080658,-0.147643, 0.000000, 0.000001, 0.000000,1,0
1777416590906466538,1430058000000,  1430.063,-0.000027,-0.000069,-0.009953,-0.000023, 0.000037, 0.000161,-0.352233,-0.169103, 0.036637,1,-0.001507, 0.002965, 0.017429,1,-0.002448,-0.005712,-0.995637,-0.001507, 0.002966, 0.017429, 0.001265,-0.080658,-0.147643, 0.000000, 0.000001, 0.000000,1,0
1777416590916039992,1430078000000,  1430.083, 0.000013, 0.000021,-0.009948,-0.000025, 0.000035, 0.000150,-0.331582,-0.125876, 0.038726,1,-0.002190, 0.003152, 0.015865,1,-0.000278,-0.001278,-0.995422,-0.002190, 0.003153, 0.015865, 0.000965,-0.079933,-0.147249, 0.000000, 0.000001, 0.000000,1,0
1777416590926196090,1430078000000,  1430.083, 0.000013, 0.000021,-0.009948,-0.000025, 0.000035, 0.000150,-0.331582,-0.125876, 0.038726,1,-0.002190, 0.003152, 0.015865,1,-0.000278,-0.001278,-0.995422,-0.002190, 0.003153, 0.015865, 0.000965,-0.079933,-0.147249, 0.000000, 0.000001, 0.000000,1,0
1777416590945883181,1430098000000,  1430.103, 0.000037, 0.000095,-0.009953,-0.000018, 0.000038, 0.000176,-0.305577,-0.057654, 0.035875,1,-0.002155, 0.003323, 0.016711,1, 0.002440, 0.005715,-0.995710,-0.002155, 0.003323, 0.016711, 0.001100,-0.079797,-0.147057, 0.000000, 0.000001, 0.000000,1,0
1777416590955556094,1430118000000,  1430.123, 0.000049, 0.000079,-0.009957,-0.000015, 0.000029, 0.000190,-0.287932,-0.037298, 0.034239,1,-0.001840, 0.002895, 0.018220,1, 0.004115, 0.007778,-0.995881,-0.001840, 0.002896, 0.018220, 0.001002,-0.080273,-0.147213, 0.000000, 0.000001, 0.000000,1,0
1777416590965712341,1430118000000,  1430.123, 0.000049, 0.000079,-0.009957,-0.000015, 0.000029, 0.000190,-0.287932,-0.037298, 0.034239,1,-0.001840, 0.002895, 0.018220,1, 0.004115, 0.007778,-0.995881,-0.001840, 0.002896, 0.018220, 0.001002,-0.080273,-0.147213, 0.000000, 0.000001, 0.000000,1,0
1777416590975315886,1430138000000,  1430.143, 0.000057, 0.000017,-0.009954,-0.000016, 0.000032, 0.000202,-0.273486,-0.070586, 0.036254,1,-0.001646, 0.003031, 0.019608,1, 0.005175, 0.004295,-0.995690,-0.001646, 0.003032, 0.019608, 0.001203,-0.080460,-0.147035, 0.000000, 0.000001, 0.000000,1,0
1777416590985472541,1430138000000,  1430.143, 0.000057, 0.000017,-0.009954,-0.000016, 0.000032, 0.000202,-0.273486,-0.070586, 0.036254,1,-0.001646, 0.003031, 0.019608,1, 0.005175, 0.004295,-0.995690,-0.001646, 0.003032, 0.019608, 0.001203,-0.080460,-0.147035, 0.000000, 0.000001, 0.000000,1,0
1777416591005076375,1430158000000,  1430.163, 0.000078,-0.000029,-0.009954,-0.000013, 0.000036, 0.000192,-0.257709,-0.115712, 0.036334,1,-0.001323, 0.003256, 0.019438,1, 0.006709,-0.000323,-0.995685,-0.001323, 0.003257, 0.019438, 0.001690,-0.080402,-0.147614, 0.000000, 0.000001, 0.000000,1,0
1777416591024843610,1430178000000,  1430.183, 0.000091,-0.000031,-0.009953,-0.000013, 0.000027, 0.000178,-0.243584,-0.135703, 0.038001,1,-0.001087, 0.003010, 0.018460,1, 0.008178,-0.002362,-0.995514,-0.001087, 0.003010, 0.018460, 0.001671,-0.080404,-0.148000, 0.000000, 0.000001, 0.000000,1,0
1777416591034504393,1430198000000,  1430.203, 0.000098, 0.000016,-0.009950,-0.000015, 0.000033, 0.000182,-0.233074,-0.114270, 0.039435,1,-0.001365, 0.003181, 0.018154,1, 0.009303,-0.000166,-0.995366,-0.001365, 0.003181, 0.018154, 0.001489,-0.080504,-0.147823, 0.000000, 0.000001, 0.000000,1,0
1777416591044660010,1430198000000,  1430.203, 0.000098, 0.000016,-0.009950,-0.000015, 0.000033, 0.000182,-0.233074,-0.114270, 0.039435,1,-0.001365, 0.003181, 0.018154,1, 0.009303,-0.000166,-0.995366,-0.001365, 0.003181, 0.018154, 0.001489,-0.080504,-0.147823, 0.000000, 0.000001, 0.000000,1,0
1777416591060132296,1430218000000,  1430.223, 0.000068, 0.000049,-0.009955,-0.000017, 0.000036, 0.000186,-0.247892,-0.080940, 0.036623,1,-0.001494, 0.003227, 0.018416,1, 0.007854, 0.003249,-0.995650,-0.001494, 0.003228, 0.018416, 0.001321,-0.080528,-0.147370, 0.000000, 0.000001, 0.000000,1,0
1777416591079907678,1430238000000,  1430.238, 0.000046, 0.000033,-0.009957,-0.000002, 0.000028, 0.000192,-0.268770,-0.079233, 0.035938,1,-0.000838, 0.002951, 0.018921,1, 0.005789, 0.003435,-0.995718,-0.000838, 0.002951, 0.018921, 0.001176,-0.080081,-0.146657, 0.000000, 0.000001, 0.000000,1,0
1777416591089599572,1430258000000,  1430.258, 0.000021,-0.000013,-0.009960,-0.000015, 0.000024, 0.000186,-0.293097,-0.106052, 0.034220,1,-0.001193, 0.002650, 0.018664,1, 0.003368, 0.000708,-0.995891,-0.001193, 0.002651, 0.018664, 0.001619,-0.080053,-0.147009, 0.000000, 0.000001, 0.000000,1,0
1777416591099753114,1430258000000,  1430.258, 0.000021,-0.000013,-0.009960,-0.000015, 0.000024, 0.000186,-0.293097,-0.106052, 0.034220,1,-0.001193, 0.002650, 0.018664,1, 0.003368, 0.000708,-0.995891,-0.001193, 0.002651, 0.018664, 0.001619,-0.080053,-0.147009, 0.000000, 0.000001, 0.000000,1,0
1777416591119019886,1430278000000,  1430.278, 0.000007,-0.000008,-0.009960,-0.000011, 0.000031, 0.000177,-0.301596,-0.118214, 0.034969,1,-0.001334, 0.002782, 0.018512,1, 0.001679,-0.000631,-0.995893,-0.001222, 0.002895, 0.018159, 0.001446,-0.079931,-0.147780, 0.000000, 0.000001, 0.000000,1,0
1777416591138789491,1430298000000,  1430.298, 0.000008, 0.000032,-0.009964,-0.000021, 0.000027, 0.000179,-0.316773,-0.111414, 0.033074,1,-0.001189, 0.002911, 0.017880,1, 0.000931, 0.001638,-0.996218,-0.001594, 0.002772, 0.017896, 0.001766,-0.080080,-0.147774, 0.000000, 0.000001, 0.000000,1,0
1777416591148458663,1430318000000,  1430.318, 0.000017, 0.000058,-0.009958,-0.000013, 0.000036, 0.000183,-0.316111,-0.083942, 0.030715,1,-0.001748, 0.002961, 0.018120,1, 0.001407, 0.004325,-0.996061,-0.001474, 0.003252, 0.018210, 0.001720,-0.080144,-0.147451, 0.000000, 0.000001, 0.000000,1,0
1777416591158613039,1430318000000,  1430.318, 0.000017, 0.000058,-0.009958,-0.000013, 0.000036, 0.000183,-0.316111,-0.083942, 0.030715,1,-0.001748, 0.002961, 0.018120,1, 0.001407, 0.004325,-0.996061,-0.001474, 0.003252, 0.018210, 0.001720,-0.080144,-0.147451, 0.000000, 0.000001, 0.000000,1,0
1777416591168193121,1430338000000,  1430.338, 0.000039, 0.000054,-0.009962,-0.000005, 0.000036, 0.000189,-0.302332,-0.062011, 0.034205,1,-0.001330, 0.003279, 0.018495,1, 0.002959, 0.005201,-0.996119,-0.000990, 0.003464, 0.018690, 0.001192,-0.080181,-0.147259, 0.000000, 0.000001, 0.000000,1,0
1777416591178345590,1430338000000,  1430.338, 0.000039, 0.000054,-0.009962,-0.000005, 0.000036, 0.000189,-0.302332,-0.062011, 0.034205,1,-0.001330, 0.003279, 0.018495,1, 0.002959, 0.005201,-0.996119,-0.000990, 0.003464, 0.018690, 0.001192,-0.080181,-0.147259, 0.000000, 0.000001, 0.000000,1,0
1777416591197981515,1430358000000,  1430.358, 0.000051, 0.000016,-0.009958,-0.000006, 0.000033, 0.000203,-0.284330,-0.066780, 0.034922,1,-0.000568, 0.003722, 0.019424,1, 0.004392, 0.003124,-0.995937,-0.000620, 0.003507, 0.019838, 0.001539,-0.080314,-0.146734, 0.000000, 0.000001, 0.000000,1,0
1777416591207651205,1430378000000,  1430.378, 0.000065,-0.000011,-0.009962,-0.000009, 0.000035, 0.000203,-0.270290,-0.093779, 0.037337,1,-0.000351, 0.003173, 0.020221,1, 0.005781, 0.000462,-0.995917,-0.000581, 0.003335, 0.020254, 0.001408,-0.080448,-0.147229, 0.000000, 0.000001, 0.000000,1,0
1777416591217802099,1430378000000,  1430.378, 0.000065,-0.000011,-0.009962,-0.000009, 0.000035, 0.000203,-0.270290,-0.093779, 0.037337,1,-0.000351, 0.003173, 0.020221,1, 0.005781, 0.000462,-0.995917,-0.000581, 0.003335, 0.020254, 0.001408,-0.080448,-0.147229, 0.000000, 0.000001, 0.000000,1,0
1777416591227459809,1430398000000,  1430.398, 0.000058,-0.000018,-0.009962,-0.000013, 0.000031, 0.000193,-0.263075,-0.116414, 0.036565,1,-0.000825, 0.003412, 0.020160,1, 0.005904,-0.001114,-0.995903,-0.000996, 0.003264, 0.019792, 0.001374,-0.080451,-0.148004, 0.000000, 0.000001, 0.000000,1,0
1777416591237611629,1430398000000,  1430.398, 0.000058,-0.000018,-0.009962,-0.000013, 0.000031, 0.000193,-0.263075,-0.116414, 0.036565,1,-0.000825, 0.003412, 0.020160,1, 0.005904,-0.001114,-0.995903,-0.000996, 0.003264, 0.019792, 0.001374,-0.080451,-0.148004, 0.000000, 0.000001, 0.000000,1,0
1777416591247148287,1430418000000,  1430.418, 0.000035,-0.000011,-0.009957,-0.000008, 0.000023, 0.000183,-0.269292,-0.122565, 0.035827,1,-0.001188, 0.003244, 0.019247,1, 0.004489,-0.001135,-0.995781,-0.000972, 0.002776, 0.018781, 0.001074,-0.080443,-0.148071, 0.000000, 0.000001, 0.000000,1,0
1777416591257299904,1430418000000,  1430.418, 0.000035,-0.000011,-0.009957,-0.000008, 0.000023, 0.000183,-0.269292,-0.122565, 0.035827,1,-0.001188, 0.003244, 0.019247,1, 0.004489,-0.001135,-0.995781,-0.000972, 0.002776, 0.018781, 0.001074,-0.080443,-0.148071, 0.000000, 0.000001, 0.000000,1,0
1777416591276984345,1430428000000,  1430.433, 0.000025,-0.000001,-0.009961,-0.000013, 0.000028, 0.000180,-0.287441,-0.116953, 0.033775,1,-0.001129, 0.002778, 0.018384,1, 0.003597,-0.000611,-0.995950,-0.001129, 0.002779, 0.018384, 0.001337,-0.080282,-0.147541, 0.000000, 0.000001, 0.000000,1,0
1777416591286591168,1430448000000,  1430.453, 0.000020, 0.000023,-0.009954,-0.000013, 0.000030, 0.000180,-0.298516,-0.099223, 0.037238,1,-0.001267, 0.002988, 0.017989,1, 0.002528, 0.001209,-0.995595,-0.001267, 0.002988, 0.017989, 0.001138,-0.080011,-0.146554, 0.000000, 0.000001, 0.000000,1,0
1777416591296746006,1430448000000,  1430.453, 0.000020, 0.000023,-0.009954,-0.000013, 0.000030, 0.000180,-0.298516,-0.099223, 0.037238,1,-0.001267, 0.002988, 0.017989,1, 0.002528, 0.001209,-0.995595,-0.001267, 0.002988, 0.017989, 0.001138,-0.080011,-0.146554, 0.000000, 0.000001, 0.000000,1,0
1777416591306470268,1430468000000,  1430.473, 0.000016, 0.000020,-0.009959,-0.000016, 0.000032, 0.000180,-0.305257,-0.093928, 0.033704,1,-0.001488, 0.003096, 0.018000,1, 0.001906, 0.001764,-0.995953,-0.001488, 0.003096, 0.018000, 0.001365,-0.079843,-0.146920, 0.000000, 0.000001, 0.000000,1,0
1777416591316624366,1430468000000,  1430.473, 0.000016, 0.000020,-0.009959,-0.000016, 0.000032, 0.000180,-0.305257,-0.093928, 0.033704,1,-0.001488, 0.003096, 0.018000,1, 0.001906, 0.001764,-0.995953,-0.001488, 0.003096, 0.018000, 0.001365,-0.079843,-0.146920, 0.000000, 0.000001, 0.000000,1,0
1777416591326086546,1430488000000,  1430.493, 0.000017, 0.000021,-0.009962,-0.000020, 0.000031, 0.000185,-0.307804,-0.092812, 0.032864,1,-0.001605, 0.002906, 0.018332,1, 0.001708, 0.001893,-0.996036,-0.001605, 0.002906, 0.018332, 0.001380,-0.079922,-0.147091, 0.000000, 0.000001, 0.000000,1,0
1777416591336239977,1430488000000,  1430.493, 0.000017, 0.000021,-0.009962,-0.000020, 0.000031, 0.000185,-0.307804,-0.092812, 0.032864,1,-0.001605, 0.002906, 0.018332,1, 0.001708, 0.001893,-0.996036,-0.001605, 0.002906, 0.018332, 0.001380,-0.079922,-0.147091, 0.000000, 0.000001, 0.000000,1,0
1777416591355924549,1430508000000,  1430.513, 0.000036, 0.000024,-0.009959,-0.000011, 0.000031, 0.000184,-0.297460,-0.090611, 0.034535,1,-0.001266, 0.002935, 0.018391,1, 0.002823, 0.002135,-0.995864,-0.001266, 0.002936, 0.018391, 0.001741,-0.080046,-0.147456, 0.000000, 0.000001, 0.000000,1,0
1777416591365598461,1430528000000,  1430.533, 0.000049, 0.000030,-0.009963,-0.000009, 0.000025, 0.000188,-0.279834,-0.083992, 0.032734,1,-0.001222, 0.002852, 0.018618,1, 0.004174, 0.002694,-0.996063,-0.001222, 0.002853, 0.018618, 0.001263,-0.080339,-0.147758, 0.000000, 0.000001, 0.000000,1,0
1777416591375753485,1430528000000,  1430.533, 0.000049, 0.000030,-0.009963,-0.000009, 0.000025, 0.000188,-0.279834,-0.083992, 0.032734,1,-0.001222, 0.002852, 0.018618,1, 0.004174, 0.002694,-0.996063,-0.001222, 0.002853, 0.018618, 0.001263,-0.080339,-0.147758, 0.000000, 0.000001, 0.000000,1,0
1777416591385645130,1430548000000,  1430.553, 0.000051, 0.000007,-0.009957,-0.000013, 0.000031, 0.000185,-0.272783,-0.094932, 0.036285,1,-0.001347, 0.003218, 0.018699,1, 0.004693, 0.001520,-0.995709,-0.001347, 0.003219, 0.018699, 0.001346,-0.080274,-0.148235, 0.000000, 0.000001, 0.000000,1,0
1777416591395810486,1430548000000,  1430.553, 0.000051, 0.000007,-0.009957,-0.000013, 0.000031, 0.000185,-0.272783,-0.094932, 0.036285,1,-0.001347, 0.003218, 0.018699,1, 0.004693, 0.001520,-0.995709,-0.001347, 0.003219, 0.018699, 0.001346,-0.080274,-0.148235, 0.000000, 0.000001, 0.000000,1,0
1777416591405045304,1430568000000,  1430.573, 0.000048,-0.000003,-0.009963,-0.000023, 0.000032, 0.000187,-0.270386,-0.105702, 0.034689,1,-0.001760, 0.003360, 0.018752,1, 0.004931, 0.000416,-0.995872,-0.001760, 0.003361, 0.018752, 0.001105,-0.080507,-0.148316, 0.000000, 0.000001, 0.000000,1,0
1777416591415198606,1430568000000,  1430.573, 0.000048,-0.000003,-0.009963,-0.000023, 0.000032, 0.000187,-0.270386,-0.105702, 0.034689,1,-0.001760, 0.003360, 0.018752,1, 0.004931, 0.000416,-0.995872,-0.001760, 0.003361, 0.018752, 0.001105,-0.080507,-0.148316, 0.000000, 0.000001, 0.000000,1,0
1777416591434879733,1430588000000,  1430.593, 0.000051, 0.000007,-0.009961,-0.000008, 0.000036, 0.000182,-0.269195,-0.106717, 0.034017,1,-0.001219, 0.003591, 0.018413,1, 0.005101, 0.000326,-0.995938,-0.001219, 0.003592, 0.018413, 0.001141,-0.080531,-0.147623, 0.000000, 0.000001, 0.000000,1,0
1777416591444544979,1430608000000,  1430.613, 0.000037, 0.000019,-0.009954,-0.000011, 0.000029, 0.000179,-0.277825,-0.097074, 0.038528,1,-0.001184, 0.003011, 0.018100,1, 0.004283, 0.001322,-0.995476,-0.001184, 0.003012, 0.018100, 0.001183,-0.080679,-0.148037, 0.000000, 0.000001, 0.000000,1,0
1777416591454696077,1430608000000,  1430.613, 0.000037, 0.000019,-0.009954,-0.000011, 0.000029, 0.000179,-0.277825,-0.097074, 0.038528,1,-0.001184, 0.003011, 0.018100,1, 0.004283, 0.001322,-0.995476,-0.001184, 0.003012, 0.018100, 0.001183,-0.080679,-0.148037, 0.000000, 0.000001, 0.000000,1,0
1777416591470187251,1430628000000,  1430.633, 0.000023, 0.000011,-0.009957,-0.000013, 0.000030, 0.000180,-0.290299,-0.097928, 0.036129,1,-0.001414, 0.003034, 0.018058,1, 0.003076, 0.001249,-0.995719,-0.001414, 0.003035, 0.018058, 0.001818,-0.080297,-0.147772, 0.000000, 0.000001, 0.000000,1,0
1777416591489960263,1430648000000,  1430.648, 0.000026, 0.000015,-0.009954,-0.000016, 0.000032, 0.000178,-0.295613,-0.097346, 0.036725,1,-0.001300, 0.003007, 0.017847,1, 0.002596, 0.001321,-0.995656,-0.001300, 0.003008, 0.017847, 0.001777,-0.080159,-0.148077, 0.000000, 0.000001, 0.000000,1,0
1777416591499568567,1430668000000,  1430.668, 0.000042, 0.000016,-0.009957,-0.000016, 0.000027, 0.000180,-0.287210,-0.095943, 0.035950,1,-0.001477, 0.002857, 0.018074,1, 0.003518, 0.001483,-0.995732,-0.001477, 0.002857, 0.018074, 0.001785,-0.079920,-0.148045, 0.000000, 0.000001, 0.000000,1,0
