Time,reference_time,gps_timestamp,deltaVelX,deltaVelY,deltaVelZ,deltaThetaX,deltaThetaY,deltaThetaZ,estLinearAccelX,estLinearAccelY,estLinearAccelZ,estLinearAccel:valid,estAngularRateX,estAngularRateY,estAngularRateZ,estAngularRate:valid,scaledAccelX,scaledAccelY,scaledAccelZ,scaledGyroX,scaledGyroY,scaledGyroZ,scaledMagX,scaledMagY,scaledMagZ,estGyroBiasX,estGyroBiasY,estGyroBiasZ,estGyroBias:valid,flagStop
1777416456062585372,1264291000000,  1264.291, 0.000057, 0.000016,-0.009957,-0.000015, 0.000037, 0.000201,-0.067288, 0.036797, 0.042775,1,-0.001497, 0.002948, 0.018714,1, 0.005003, 0.002935,-0.995628,-0.001477, 0.003306, 0.019363, 0.000446,-0.077779,-0.145034,-0.000000, 0.000000, 0.000000,1,0
1777416456072787004,1295241000000,  1295.241, 0.000039,-0.000020,-0.009973,-0.000011, 0.000033, 0.000184,-0.082746,-0.035034, 0.045344,1,-0.000296, 0.003681, 0.018930,1, 0.003150,-0.001713,-0.995957,-0.001317, 0.002929, 0.018621, 0.000794,-0.079128,-0.144762,-0.000000, 0.000000, 0.000000,1,0
1777416456082877323,1295241000000,  1295.241, 0.000039,-0.000020,-0.009973,-0.000011, 0.000033, 0.000184,-0.082746,-0.035034, 0.045344,1,-0.000296, 0.003681, 0.018930,1, 0.003150,-0.001713,-0.995957,-0.001317, 0.002929, 0.018621, 0.000794,-0.079128,-0.144762,-0.000000, 0.000000, 0.000000,1,0
1777416456092552559,1295261000000,  1295.261, 0.000031,-0.000018,-0.009952,-0.000011, 0.000025, 0.000184,-0.204387,-0.122512, 0.033261,1,-0.001289, 0.003161, 0.018576,1, 0.003272,-0.001743,-0.995619,-0.001190, 0.002914, 0.018497, 0.000912,-0.079211,-0.145716,-0.000001, 0.000002, 0.000006,1,0
1777416456102651211,1295261000000,  1295.261, 0.000031,-0.000018,-0.009952,-0.000011, 0.000025, 0.000184,-0.204387,-0.122512, 0.033261,1,-0.001289, 0.003161, 0.018576,1, 0.003272,-0.001743,-0.995619,-0.001190, 0.002914, 0.018497, 0.000912,-0.079211,-0.145716,-0.000001, 0.000002, 0.000006,1,0
1777416456121923555,1295271000000,  1295.276, 0.000033,-0.000016,-0.009972,-0.000013, 0.000033, 0.000188,-0.195632,-0.124170, 0.032242,1,-0.001233, 0.003071, 0.018608,1, 0.003264,-0.001736,-0.996383,-0.001234, 0.003073, 0.018614, 0.000882,-0.079190,-0.145493,-0.000001, 0.000002, 0.000006,1,0
1777416456131540588,1295291000000,  1295.296, 0.000039,-0.000016,-0.009971,-0.000016, 0.000032, 0.000184,-0.189483,-0.125292, 0.031190,1,-0.001555, 0.002992, 0.018436,1, 0.003589,-0.001798,-0.996497,-0.001555, 0.002993, 0.018443, 0.000590,-0.079153,-0.144676,-0.000001, 0.000002, 0.000006,1,0
1777416456141628666,1295291000000,  1295.296, 0.000039,-0.000016,-0.009971,-0.000016, 0.000032, 0.000184,-0.189483,-0.125292, 0.031190,1,-0.001555, 0.002992, 0.018436,1, 0.003589,-0.001798,-0.996497,-0.001555, 0.002993, 0.018443, 0.000590,-0.079153,-0.144676,-0.000001, 0.000002, 0.000006,1,0
1777416456151291606,1295311000000,  1295.316, 0.000040,-0.000013,-0.009981,-0.000015, 0.000031, 0.000182,-0.186355,-0.122344, 0.030743,1,-0.001395, 0.002864, 0.018321,1, 0.003860,-0.001470,-0.996543,-0.001396, 0.002866, 0.018327, 0.000580,-0.079361,-0.144346,-0.000001, 0.000002, 0.000006,1,0
1777416456161377963,1295311000000,  1295.316, 0.000040,-0.000013,-0.009981,-0.000015, 0.000031, 0.000182,-0.186355,-0.122344, 0.030743,1,-0.001395, 0.002864, 0.018321,1, 0.003860,-0.001470,-0.996543,-0.001396, 0.002866, 0.018327, 0.000580,-0.079361,-0.144346,-0.000001, 0.000002, 0.000006,1,0
1777416456171030328,1295331000000,  1295.336, 0.000036,-0.000001,-0.009969,-0.000004, 0.000026, 0.000186,-0.188207,-0.116373, 0.035304,1,-0.001108, 0.002882, 0.018439,1, 0.003703,-0.000838,-0.996077,-0.001109, 0.002883, 0.018446, 0.000232,-0.079313,-0.144675,-0.000001, 0.000002, 0.000006,1,0
1777416456181115000,1295331000000,  1295.336, 0.000036,-0.000001,-0.009969,-0.000004, 0.000026, 0.000186,-0.188207,-0.116373, 0.035304,1,-0.001108, 0.002882, 0.018439,1, 0.003703,-0.000838,-0.996077,-0.001109, 0.002883, 0.018446, 0.000232,-0.079313,-0.144675,-0.000001, 0.000002, 0.000006,1,0
1777416456200848333,1295351000000,  1295.356, 0.000035,-0.000000,-0.009955,-0.000017, 0.000025, 0.000185,-0.190000,-0.111975, 0.040598,1,-0.001491, 0.002808, 0.018349,1, 0.003575,-0.000370,-0.995536,-0.001492, 0.002810, 0.018355, 0.001036,-0.079258,-0.144982,-0.000001, 0.000002, 0.000006,1,0
1777416456210550179,1295371000000,  1295.376, 0.000029,-0.000008,-0.009948,-0.000016, 0.000026, 0.000187,-0.193649,-0.115431, 0.042236,1,-0.001445, 0.002779, 0.018511,1, 0.003261,-0.000701,-0.995367,-0.001446, 0.002780, 0.018518, 0.001163,-0.079423,-0.145331,-0.000001, 0.000002, 0.000006,1,0
1777416456220635758,1295371000000,  1295.376, 0.000029,-0.000008,-0.009948,-0.000016, 0.000026, 0.000187,-0.193649,-0.115431, 0.042236,1,-0.001445, 0.002779, 0.018511,1, 0.003261,-0.000701,-0.995367,-0.001446, 0.002780, 0.018518, 0.001163,-0.079423,-0.145331,-0.000001, 0.000002, 0.000006,1,0
1777416456230280291,1295391000000,  1295.396, 0.000029,-0.000013,-0.009958,-0.000011, 0.000032, 0.000190,-0.195381,-0.118336, 0.037308,1,-0.001109, 0.002957, 0.018801,1, 0.003146,-0.000982,-0.995868,-0.001110, 0.002959, 0.018808, 0.001137,-0.079128,-0.145537,-0.000001, 0.000002, 0.000006,1,0
1777416456240365036,1295391000000,  1295.396, 0.000029,-0.000013,-0.009958,-0.000011, 0.000032, 0.000190,-0.195381,-0.118336, 0.037308,1,-0.001109, 0.002957, 0.018801,1, 0.003146,-0.000982,-0.995868,-0.001110, 0.002959, 0.018808, 0.001137,-0.079128,-0.145537,-0.000001, 0.000002, 0.000006,1,0
1777416456260055056,1295411000000,  1295.416, 0.000034,-0.000014,-0.009956,-0.000009, 0.000029, 0.000182,-0.194475,-0.121893, 0.037440,1,-0.001038, 0.002946, 0.018570,1, 0.003303,-0.001333,-0.995853,-0.001039, 0.002948, 0.018576, 0.001168,-0.079169,-0.145368,-0.000001, 0.000002, 0.000006,1,0
1777416456275616979,1295431000000,  1295.436, 0.000035,-0.000004,-0.009962,-0.000013, 0.000036, 0.000187,-0.192437,-0.116425, 0.035576,1,-0.001233, 0.003400, 0.018564,1, 0.003580,-0.000760,-0.996041,-0.001234, 0.003402, 0.018570, 0.000771,-0.079242,-0.144972,-0.000001, 0.000002, 0.000006,1,0
1777416456285291863,1295451000000,  1295.456, 0.000037,-0.000007,-0.009963,-0.000013, 0.000028, 0.000189,-0.192948,-0.115030, 0.037362,1,-0.001087, 0.003123, 0.018750,1, 0.003596,-0.000605,-0.995857,-0.001088, 0.003125, 0.018757, 0.000628,-0.079015,-0.144472,-0.000001, 0.000002, 0.000006,1,0
1777416456295376979,1295451000000,  1295.456, 0.000037,-0.000007,-0.009963,-0.000013, 0.000028, 0.000189,-0.192948,-0.115030, 0.037362,1,-0.001087, 0.003123, 0.018750,1, 0.003596,-0.000605,-0.995857,-0.001088, 0.003125, 0.018757, 0.000628,-0.079015,-0.144472,-0.000001, 0.000002, 0.000006,1,0
1777416456305054622,1295471000000,  1295.471, 0.000043,-0.000005,-0.009960,-0.000009, 0.000032, 0.000188,-0.180474,-0.115347, 0.037504,1,-0.001191, 0.003167, 0.018886,1, 0.003932,-0.000547,-0.995863,-0.001192, 0.003168, 0.018892, 0.001058,-0.079092,-0.144596,-0.000001, 0.000002, 0.000006,1,0
1777416456315138404,1295471000000,  1295.471, 0.000043,-0.000005,-0.009960,-0.000009, 0.000032, 0.000188,-0.180474,-0.115347, 0.037504,1,-0.001191, 0.003167, 0.018886,1, 0.003932,-0.000547,-0.995863,-0.001192, 0.003168, 0.018892, 0.001058,-0.079092,-0.144596,-0.000001, 0.000002, 0.000006,1,0
1777416456334629910,1295491000000,  1295.491, 0.000042,-0.000011,-0.009954,-0.000008, 0.000032, 0.000187,-0.174643,-0.119306, 0.037772,1,-0.000936, 0.003309, 0.018804,1, 0.004242,-0.000913,-0.995842,-0.000937, 0.003310, 0.018810, 0.001046,-0.079308,-0.145067,-0.000001, 0.000002, 0.000006,1,0
1777416456344175648,1295511000000,  1295.511, 0.000044,-0.000008,-0.009955,-0.000004, 0.000045, 0.000191,-0.173005,-0.120636, 0.037294,1,-0.001142, 0.003171, 0.018596,1, 0.004419,-0.000964,-0.995739,-0.000778, 0.003750, 0.018818, 0.000868,-0.079563,-0.145243,-0.000001, 0.000002, 0.000006,1,0
1777416456354260227,1295511000000,  1295.511, 0.000044,-0.000008,-0.009955,-0.000004, 0.000045, 0.000191,-0.173005,-0.120636, 0.037294,1,-0.001142, 0.003171, 0.018596,1, 0.004419,-0.000964,-0.995739,-0.000778, 0.003750, 0.018818, 0.000868,-0.079563,-0.145243,-0.000001, 0.000002, 0.000006,1,0
1777416456374005449,1295531000000,  1295.531, 0.000042,-0.000025,-0.009951,-0.000014, 0.000038, 0.000186,-0.170422,-0.123997, 0.036250,1,-0.001179, 0.003641, 0.018928,1, 0.004466,-0.001888,-0.995623,-0.001265, 0.003750, 0.018801, 0.001008,-0.079279,-0.145707,-0.000001, 0.000002, 0.000006,1,0
1777416456393756597,1295551000000,  1295.551, 0.000035,-0.000015,-0.009957,-0.000014, 0.000034, 0.000184,-0.175150,-0.129620, 0.038132,1,-0.001330, 0.003475, 0.018783,1, 0.003873,-0.001725,-0.995828,-0.001321, 0.003481, 0.018631, 0.001350,-0.079425,-0.144448,-0.000001, 0.000002, 0.000006,1,0
1777416456403433814,1295571000000,  1295.571, 0.000036,-0.000009,-0.009965,-0.000017, 0.000031, 0.000188,-0.183110,-0.126505, 0.040361,1,-0.001291, 0.003387, 0.018440,1, 0.003561,-0.001268,-0.996098,-0.001456, 0.003266, 0.018593, 0.000833,-0.079566,-0.144801,-0.000001, 0.000002, 0.000006,1,0
1777416456413517671,1295571000000,  1295.571, 0.000036,-0.000009,-0.009965,-0.000017, 0.000031, 0.000188,-0.183110,-0.126505, 0.040361,1,-0.001291, 0.003387, 0.018440,1, 0.003561,-0.001268,-0.996098,-0.001456, 0.003266, 0.018593, 0.000833,-0.079566,-0.144801,-0.000001, 0.000002, 0.000006,1,0
1777416456423183444,1295591000000,  1295.591, 0.000033,-0.000010,-0.009967,-0.000011, 0.000028, 0.000182,-0.184673,-0.123122, 0.037784,1,-0.001202, 0.003185, 0.018479,1, 0.003361,-0.001145,-0.996228,-0.001206, 0.002985, 0.018388, 0.000789,-0.079378,-0.145089,-0.000001, 0.000002, 0.000006,1,0
1777416456433267319,1295591000000,  1295.591, 0.000033,-0.000010,-0.009967,-0.000011, 0.000028, 0.000182,-0.184673,-0.123122, 0.037784,1,-0.001202, 0.003185, 0.018479,1, 0.003361,-0.001145,-0.996228,-0.001206, 0.002985, 0.018388, 0.000789,-0.079378,-0.145089,-0.000001, 0.000002, 0.000006,1,0
1777416456452954690,1295611000000,  1295.611, 0.000028,-0.000001,-0.009965,-0.000025, 0.000031, 0.000190,-0.188890,-0.122230, 0.035760,1,-0.001707, 0.003038, 0.018619,1, 0.002948,-0.000584,-0.996211,-0.002022, 0.003045, 0.018785, 0.001072,-0.079254,-0.145125,-0.000001, 0.000002, 0.000006,1,0
1777416456462644129,1295631000000,  1295.631, 0.000036, 0.000001,-0.009963,-0.000010, 0.000031, 0.000194,-0.186799,-0.114467, 0.041372,1,-0.001675, 0.003321, 0.018812,1, 0.003426,-0.000148,-0.995933,-0.001390, 0.003235, 0.019063, 0.000779,-0.079161,-0.145036,-0.000001, 0.000002, 0.000006,1,0
1777416456472727893,1295631000000,  1295.631, 0.000036, 0.000001,-0.009963,-0.000010, 0.000031, 0.000194,-0.186799,-0.114467, 0.041372,1,-0.001675, 0.003321, 0.018812,1, 0.003426,-0.000148,-0.995933,-0.001390, 0.003235, 0.019063, 0.000779,-0.079161,-0.145036,-0.000001, 0.000002, 0.000006,1,0
1777416456482398703,1295651000000,  1295.651, 0.000027,-0.000004,-0.009954,-0.000022, 0.000038, 0.000193,-0.190448,-0.112577, 0.038689,1,-0.001168, 0.003109, 0.018961,1, 0.002850,-0.000206,-0.995738,-0.001632, 0.003415, 0.019126, 0.000701,-0.079212,-0.144656,-0.000001, 0.000002, 0.000006,1,0
1777416456492481819,1295651000000,  1295.651, 0.000027,-0.000004,-0.009954,-0.000022, 0.000038, 0.000193,-0.190448,-0.112577, 0.038689,1,-0.001168, 0.003109, 0.018961,1, 0.002850,-0.000206,-0.995738,-0.001632, 0.003415, 0.019126, 0.000701,-0.079212,-0.144656,-0.000001, 0.000002, 0.000006,1,0
1777416456502133925,1295661000000,  1295.666, 0.000028,-0.000009,-0.009959,-0.000009, 0.000029, 0.000186,-0.187554,-0.117851, 0.039532,1,-0.001341, 0.003242, 0.018890,1, 0.002815,-0.000559,-0.995662,-0.001342, 0.003244, 0.018896, 0.000703,-0.079378,-0.144718,-0.000001, 0.000002, 0.000006,1,0
1777416456512218800,1295661000000,  1295.666, 0.000028,-0.000009,-0.009959,-0.000009, 0.000029, 0.000186,-0.187554,-0.117851, 0.039532,1,-0.001341, 0.003242, 0.018890,1, 0.002815,-0.000559,-0.995662,-0.001342, 0.003244, 0.018896, 0.000703,-0.079378,-0.144718,-0.000001, 0.000002, 0.000006,1,0
1777416456531890802,1295681000000,  1295.686, 0.000021,-0.000012,-0.009951,-0.000003, 0.000031, 0.000184,-0.185554,-0.123615, 0.040334,1,-0.000679, 0.003328, 0.018745,1, 0.002457,-0.001099,-0.995592,-0.000680, 0.003330, 0.018752, 0.000777,-0.079117,-0.144234,-0.000001, 0.000002, 0.000006,1,0
1777416456541588648,1295681000000,  1295.706, 0.000021,-0.000012,-0.009951,-0.000003, 0.000031, 0.000184,-0.181187,-0.120873, 0.042363,1,-0.000624, 0.003775, 0.019175,1, 0.002457,-0.001099,-0.995592,-0.000680, 0.003330, 0.018752, 0.000777,-0.079117,-0.144234,-0.000001, 0.000002, 0.000006,1,0
1777416456551692115,1295681000000,  1295.706, 0.000021,-0.000012,-0.009951,-0.000003, 0.000031, 0.000184,-0.181187,-0.120873, 0.042363,1,-0.000624, 0.003775, 0.019175,1, 0.002457,-0.001099,-0.995592,-0.000680, 0.003330, 0.018752, 0.000777,-0.079117,-0.144234,-0.000001, 0.000002, 0.000006,1,0
1777416456561333204,1295721000000,  1295.726, 0.000037,-0.000009,-0.009941,-0.000010, 0.000046, 0.000195,-0.175119,-0.120491, 0.042664,1,-0.000847, 0.004122, 0.019439,1, 0.003439,-0.000755,-0.995356,-0.000848, 0.004123, 0.019446, 0.001409,-0.079470,-0.144782,-0.000001, 0.000002, 0.000006,1,0
1777416456571418338,1295721000000,  1295.726, 0.000037,-0.000009,-0.009941,-0.000010, 0.000046, 0.000195,-0.175119,-0.120491, 0.042664,1,-0.000847, 0.004122, 0.019439,1, 0.003439,-0.000755,-0.995356,-0.000848, 0.004123, 0.019446, 0.001409,-0.079470,-0.144782,-0.000001, 0.000002, 0.000006,1,0
1777416456581166683,1295741000000,  1295.746, 0.000044,-0.000014,-0.009949,-0.000009, 0.000026, 0.000190,-0.169049,-0.125756, 0.039308,1,-0.000937, 0.003380, 0.019171,1, 0.004123,-0.001282,-0.995697,-0.000938, 0.003382, 0.019178, 0.001620,-0.079557,-0.145463,-0.000001, 0.000002, 0.000006,1,0
1777416456591272891,1295741000000,  1295.746, 0.000044,-0.000014,-0.009949,-0.000009, 0.000026, 0.000190,-0.169049,-0.125756, 0.039308,1,-0.000937, 0.003380, 0.019171,1, 0.004123,-0.001282,-0.995697,-0.000938, 0.003382, 0.019178, 0.001620,-0.079557,-0.145463,-0.000001, 0.000002, 0.000006,1,0
1777416456610903745,1295761000000,  1295.766, 0.000052,-0.000014,-0.009967,-0.000001, 0.000039, 0.000193,-0.163597,-0.128129, 0.033845,1,-0.000517, 0.003681, 0.019190,1, 0.004751,-0.001515,-0.996252,-0.000518, 0.003683, 0.019196, 0.001174,-0.079482,-0.145188,-0.000001, 0.000002, 0.000006,1,0
1777416456620602554,1295781000000,  1295.786, 0.000053,-0.000014,-0.009965,-0.000005, 0.000034, 0.000188,-0.163167,-0.128585, 0.035387,1,-0.000776, 0.003448, 0.019089,1, 0.004869,-0.001554,-0.996093,-0.000777, 0.003449, 0.019095, 0.001085,-0.079253,-0.144560,-0.000001, 0.000002, 0.000006,1,0
1777416456630687411,1295781000000,  1295.786, 0.000053,-0.000014,-0.009965,-0.000005, 0.000034, 0.000188,-0.163167,-0.128585, 0.035387,1,-0.000776, 0.003448, 0.019089,1, 0.004869,-0.001554,-0.996093,-0.000777, 0.003449, 0.019095, 0.001085,-0.079253,-0.144560,-0.000001, 0.000002, 0.000006,1,0
1777416456640273278,1295801000000,  1295.806, 0.000045,-0.000026,-0.009959,-0.000013, 0.000032, 0.000184,-0.165969,-0.134528, 0.040528,1,-0.001142, 0.003360, 0.018756,1, 0.004655,-0.002148,-0.995567,-0.001142, 0.003362, 0.018762, 0.000750,-0.079007,-0.144116,-0.000001, 0.000002, 0.000006,1,0
1777416456650357801,1295801000000,  1295.806, 0.000045,-0.000026,-0.009959,-0.000013, 0.000032, 0.000184,-0.165969,-0.134528, 0.040528,1,-0.001142, 0.003360, 0.018756,1, 0.004655,-0.002148,-0.995567,-0.001142, 0.003362, 0.018762, 0.000750,-0.079007,-0.144116,-0.000001, 0.000002, 0.000006,1,0
1777416456660043889,1295821000000,  1295.826, 0.000032,-0.000035,-0.009954,-0.000014, 0.000026, 0.000179,-0.175917,-0.142394, 0.040570,1,-0.001351, 0.002937, 0.018335,1, 0.003708,-0.002935,-0.995562,-0.001351, 0.002938, 0.018341,-0.000035,-0.078945,-0.143910,-0.000001, 0.000002, 0.000006,1,0
1777416456670127801,1295821000000,  1295.826, 0.000032,-0.000035,-0.009954,-0.000014, 0.000026, 0.000179,-0.175917,-0.142394, 0.040570,1,-0.001351, 0.002937, 0.018335,1, 0.003708,-0.002935,-0.995562,-0.001351, 0.002938, 0.018341,-0.000035,-0.078945,-0.143910,-0.000001, 0.000002, 0.000006,1,0
1777416456685669317,1295841000000,  1295.846, 0.000014,-0.000032,-0.009947,-0.000012, 0.000027, 0.000172,-0.189155,-0.144474, 0.039975,1,-0.001538, 0.002698, 0.017649,1, 0.002417,-0.003122,-0.995621,-0.001538, 0.002699, 0.017655, 0.000768,-0.078804,-0.144372,-0.000001, 0.000002, 0.000006,1,0
1777416456695351756,1295861000000,  1295.866, 0.000001,-0.000015,-0.009953,-0.000021, 0.000016, 0.000173,-0.196594,-0.136777, 0.037720,1,-0.001811, 0.001984, 0.017331,1, 0.001096,-0.002218,-0.995861,-0.001812, 0.001986, 0.017338, 0.000764,-0.079058,-0.144626,-0.000001, 0.000002, 0.000006,1,0
1777416456705454576,1295861000000,  1295.866, 0.000001,-0.000015,-0.009953,-0.000021, 0.000016, 0.000173,-0.196594,-0.136777, 0.037720,1,-0.001811, 0.001984, 0.017331,1, 0.001096,-0.002218,-0.995861,-0.001812, 0.001986, 0.017338, 0.000764,-0.079058,-0.144626,-0.000001, 0.000002, 0.000006,1,0
1777416456715103812,1295881000000,  1295.881,-0.000004, 0.000008,-0.009962,-0.000020, 0.000022, 0.000170,-0.200846,-0.120031, 0.035939,1,-0.001897, 0.002085, 0.017215,1, 0.000019,-0.000374,-0.996054,-0.001897, 0.002087, 0.017222, 0.000731,-0.079122,-0.144827,-0.000001, 0.000002, 0.000006,1,0
1777416456725188335,1295881000000,  1295.881,-0.000004, 0.000008,-0.009962,-0.000020, 0.000022, 0.000170,-0.200846,-0.120031, 0.035939,1,-0.001897, 0.002085, 0.017215,1, 0.000019,-0.000374,-0.996054,-0.001897, 0.002087, 0.017222, 0.000731,-0.079122,-0.144827,-0.000001, 0.000002, 0.000006,1,0
1777416456744867096,1295901000000,  1295.901, 0.000002, 0.000013,-0.009967,-0.000011, 0.000030, 0.000180,-0.199607,-0.109029, 0.034411,1,-0.001387, 0.002432, 0.017599,1,-0.000012, 0.000807,-0.996213,-0.001388, 0.002434, 0.017606, 0.000848,-0.079371,-0.144192,-0.000001, 0.000002, 0.000006,1,0
1777416456754231597,1295921000000,  1295.921, 0.000013, 0.000004,-0.009964,-0.000020, 0.000025, 0.000189,-0.196972,-0.108330, 0.038222,1,-0.001631, 0.002579, 0.017910,1, 0.000762, 0.000661,-0.995973,-0.001809, 0.002547, 0.018378, 0.000636,-0.079659,-0.144523,-0.000001, 0.000002, 0.000006,1,0
1777416456764316546,1295921000000,  1295.921, 0.000013, 0.000004,-0.009964,-0.000020, 0.000025, 0.000189,-0.196972,-0.108330, 0.038222,1,-0.001631, 0.002579, 0.017910,1, 0.000762, 0.000661,-0.995973,-0.001809, 0.002547, 0.018378, 0.000636,-0.079659,-0.144523,-0.000001, 0.000002, 0.000006,1,0
1777416456784053565,1295941000000,  1295.941, 0.000028,-0.000008,-0.009954,-0.000010, 0.000031, 0.000190,-0.187262,-0.113653, 0.037986,1,-0.001510, 0.002706, 0.018575,1, 0.002003,-0.000166,-0.995593,-0.001270, 0.002912, 0.018765, 0.001109,-0.079693,-0.144453,-0.000001, 0.000002, 0.000006,1,0
1777416456803807972,1295961000000,  1295.961, 0.000039,-0.000015,-0.009952,-0.000008, 0.000027, 0.000186,-0.175937,-0.125647, 0.035294,1,-0.001352, 0.003092, 0.018789,1, 0.003160,-0.001124,-0.995720,-0.001076, 0.002937, 0.018725, 0.000781,-0.079721,-0.144976,-0.000001, 0.000002, 0.000006,1,0
1777416456813481948,1295981000000,  1295.981, 0.000062,-0.000011,-0.009954,-0.000009, 0.000040, 0.000182,-0.159685,-0.130539, 0.034399,1,-0.000885, 0.003053, 0.018570,1, 0.005133,-0.001193,-0.995854,-0.000896, 0.003424, 0.018413, 0.000745,-0.079488,-0.145331,-0.000001, 0.000002, 0.000006,1,0
1777416456823567009,1295981000000,  1295.981, 0.000062,-0.000011,-0.009954,-0.000009, 0.000040, 0.000182,-0.159685,-0.130539, 0.034399,1,-0.000885, 0.003053, 0.018570,1, 0.005133,-0.001193,-0.995854,-0.000896, 0.003424, 0.018413, 0.000745,-0.079488,-0.145331,-0.000001, 0.000002, 0.000006,1,0
1777416456833187764,1296001000000,  1296.001, 0.000081,-0.000008,-0.009957,-0.000014, 0.000033, 0.000184,-0.139547,-0.126579, 0.033722,1,-0.001065, 0.003515, 0.018585,1, 0.007196,-0.000881,-0.996067,-0.001229, 0.003458, 0.018538, 0.001253,-0.079108,-0.145350,-0.000001, 0.000002, 0.000006,1,0
1777416456843272269,1296001000000,  1296.001, 0.000081,-0.000008,-0.009957,-0.000014, 0.000033, 0.000184,-0.139547,-0.126579, 0.033722,1,-0.001065, 0.003515, 0.018585,1, 0.007196,-0.000881,-0.996067,-0.001229, 0.003458, 0.018538, 0.001253,-0.079108,-0.145350,-0.000001, 0.000002, 0.000006,1,0
1777416456863052897,1296021000000,  1296.021, 0.000088,-0.000011,-0.009954,-0.000015, 0.000034, 0.000186,-0.125095,-0.124884, 0.043009,1,-0.001266, 0.003401, 0.018683,1, 0.008309,-0.000853,-0.995393,-0.001350, 0.003412, 0.018684, 0.001467,-0.078890,-0.144785,-0.000001, 0.000002, 0.000006,1,0
1777416456882763787,1296041000000,  1296.041, 0.000077,-0.000014,-0.009963,-0.000017, 0.000040, 0.000186,-0.122172,-0.129427, 0.041624,1,-0.001506, 0.003347, 0.018565,1, 0.007997,-0.001234,-0.995836,-0.001603, 0.003643, 0.018606, 0.001322,-0.079254,-0.144765,-0.000001, 0.000002, 0.000006,1,0
1777416456892453522,1296061000000,  1296.061, 0.000068,-0.000009,-0.009965,-0.000013, 0.000021, 0.000188,-0.138899,-0.140423, 0.045345,1,-0.001711, 0.003759, 0.018682,1, 0.006187,-0.001726,-0.994825,-0.001362, 0.003000, 0.018817, 0.000797,-0.079485,-0.145124,-0.000001, 0.000002, 0.000006,1,0
1777416456902539249,1296061000000,  1296.061, 0.000068,-0.000009,-0.009965,-0.000013, 0.000021, 0.000188,-0.138899,-0.140423, 0.045345,1,-0.001711, 0.003759, 0.018682,1, 0.006187,-0.001726,-0.994825,-0.001362, 0.003000, 0.018817, 0.000797,-0.079485,-0.145124,-0.000001, 0.000002, 0.000006,1,0
1777416456912211522,1296071000000,  1296.076, 0.000086, 0.000061,-0.010007,-0.000017, 0.000038, 0.000186,-0.125271,-0.097377, 0.013138,1,-0.001435, 0.003059, 0.018729,1, 0.007185, 0.002169,-0.998388,-0.001436, 0.003060, 0.018735, 0.000731,-0.079300,-0.144925,-0.000001, 0.000002, 0.000006,1,0
1777416456922301971,1296071000000,  1296.076, 0.000086, 0.000061,-0.010007,-0.000017, 0.000038, 0.000186,-0.125271,-0.097377, 0.013138,1,-0.001435, 0.003059, 0.018729,1, 0.007185, 0.002169,-0.998388,-0.001436, 0.003060, 0.018735, 0.000731,-0.079300,-0.144925,-0.000001, 0.000002, 0.000006,1,0
1777416456941955084,1296091000000,  1296.096, 0.000050,-0.000164,-0.010118,-0.000039, 0.000081, 0.000212,-0.156856,-0.171544,-0.011443,1,-0.002552, 0.005095, 0.020266,1, 0.003725,-0.005369,-1.000899,-0.002553, 0.005097, 0.020273, 0.001288,-0.079507,-0.145282,-0.000001, 0.000002, 0.000006,1,0
1777416456951643968,1296111000000,  1296.116, 0.000209, 0.000330,-0.010073,-0.000012, 0.000073, 0.000179,-0.064071, 0.014725,-0.033277,1, 0.000124, 0.006488, 0.018845,1, 0.013266, 0.013617,-1.003124, 0.000123, 0.006489, 0.018851, 0.001061,-0.079450,-0.145481,-0.000001, 0.000002, 0.000006,1,0
1777416456961729917,1296111000000,  1296.116, 0.000209, 0.000330,-0.010073,-0.000012, 0.000073, 0.000179,-0.064071, 0.014725,-0.033277,1, 0.000124, 0.006488, 0.018845,1, 0.013266, 0.013617,-1.003124, 0.000123, 0.006489, 0.018851, 0.001061,-0.079450,-0.145481,-0.000001, 0.000002, 0.000006,1,0
1777416456971377301,1296131000000,  1296.136, 0.000005, 0.000060,-0.009904,-0.000004, 0.000057, 0.000281,-0.156787, 0.009360, 0.065136,1, 0.000567, 0.004616, 0.024931,1, 0.003878, 0.013047,-0.993087, 0.000566, 0.004618, 0.024937, 0.000797,-0.079289,-0.146044,-0.000001, 0.000002, 0.000006,1,0
1777416456981461824,1296131000000,  1296.136, 0.000005, 0.000060,-0.009904,-0.000004, 0.000057, 0.000281,-0.156787, 0.009360, 0.065136,1, 0.000567, 0.004616, 0.024931,1, 0.003878, 0.013047,-0.993087, 0.000566, 0.004618, 0.024937, 0.000797,-0.079289,-0.146044,-0.000001, 0.000002, 0.000006,1,0
1777416456991132523,1296151000000,  1296.156,-0.000022, 0.000048,-0.009956,-0.000015, 0.000030, 0.000294,-0.188816,-0.053573, 0.009768,1,-0.000505, 0.002754, 0.027999,1, 0.000674, 0.006615,-0.998732,-0.000506, 0.002756, 0.028006, 0.000867,-0.079415,-0.144950,-0.000001, 0.000002, 0.000006,1,0
1777416457001216750,1296151000000,  1296.156,-0.000022, 0.000048,-0.009956,-0.000015, 0.000030, 0.000294,-0.188816,-0.053573, 0.009768,1,-0.000505, 0.002754, 0.027999,1, 0.000674, 0.006615,-0.998732,-0.000506, 0.002756, 0.028006, 0.000867,-0.079415,-0.144950,-0.000001, 0.000002, 0.000006,1,0
1777416457020900786,1296171000000,  1296.176,-0.000019,-0.000192,-0.010034, 0.000005, 0.000047, 0.000290,-0.210276,-0.195733, 0.018025,1, 0.000722, 0.003880, 0.028995,1,-0.001452,-0.007906,-0.997889, 0.000721, 0.003882, 0.029001, 0.001308,-0.079437,-0.144325,-0.000001, 0.000002, 0.000006,1,0
1777416457030650110,1296191000000,  1296.196,-0.000018,-0.000117,-0.009998,-0.000012, 0.000026, 0.000214,-0.209701,-0.250063, 0.013938,1,-0.000472, 0.003083, 0.024543,1,-0.001318,-0.013456,-0.998305,-0.000473, 0.003085, 0.024550, 0.000622,-0.079393,-0.144474,-0.000001, 0.000002, 0.000006,1,0
1777416457040734483,1296191000000,  1296.196,-0.000018,-0.000117,-0.009998,-0.000012, 0.000026, 0.000214,-0.209701,-0.250063, 0.013938,1,-0.000472, 0.003083, 0.024543,1,-0.001318,-0.013456,-0.998305,-0.000473, 0.003085, 0.024550, 0.000622,-0.079393,-0.144474,-0.000001, 0.000002, 0.000006,1,0
1777416457050329478,1296211000000,  1296.216, 0.000009,-0.000018,-0.009999,-0.000019, 0.000017, 0.000214,-0.199894,-0.177550, 0.033203,1,-0.000997, 0.003041, 0.022307,1,-0.000241,-0.006065,-0.996339,-0.000998, 0.003042, 0.022313, 0.000621,-0.078930,-0.145011,-0.000001, 0.000002, 0.000006,1,0
1777416457060414296,1296211000000,  1296.216, 0.000009,-0.000018,-0.009999,-0.000019, 0.000017, 0.000214,-0.199894,-0.177550, 0.033203,1,-0.000997, 0.003041, 0.022307,1,-0.000241,-0.006065,-0.996339,-0.000998, 0.003042, 0.022313, 0.000621,-0.078930,-0.145011,-0.000001, 0.000002, 0.000006,1,0
1777416457070079956,1296231000000,  1296.236,-0.000018,-0.000194,-0.010168,-0.000023, 0.000019, 0.000183,-0.237776,-0.266473,-0.030954,1,-0.001725, 0.000585, 0.020374,1,-0.004086,-0.015113,-1.002880,-0.001726, 0.000587, 0.020380, 0.001012,-0.078875,-0.145306,-0.000001, 0.000002, 0.000006,1,0
1777416457080163903,1296231000000,  1296.236,-0.000018,-0.000194,-0.010168,-0.000023, 0.000019, 0.000183,-0.237776,-0.266473,-0.030954,1,-0.001725, 0.000585, 0.020374,1,-0.004086,-0.015113,-1.002880,-0.001726, 0.000587, 0.020380, 0.001012,-0.078875,-0.145306,-0.000001, 0.000002, 0.000006,1,0
1777416457095720249,1296251000000,  1296.256, 0.000017, 0.000001,-0.010050,-0.000022, 0.000019, 0.000147,-0.209639,-0.187023, 0.018139,1,-0.001897, 0.001410, 0.016655,1,-0.001188,-0.006976,-0.997873,-0.001897, 0.001412, 0.016662, 0.000931,-0.079091,-0.145153,-0.000001, 0.000002, 0.000006,1,0
1777416457115038255,1296271000000,  1296.271, 0.000032,-0.000127,-0.010010,-0.000025, 0.000021, 0.000124,-0.174192,-0.219904, 0.028028,1,-0.002525, 0.002044, 0.014024,1, 0.001699,-0.010283,-0.996879,-0.002526, 0.002046, 0.014030, 0.000820,-0.078991,-0.144549,-0.000001, 0.000002, 0.000006,1,0
1777416457134474943,1296291000000,  1296.291, 0.000071, 0.000098,-0.009933,-0.000023, 0.000038, 0.000117,-0.152033,-0.181785, 0.021643,1,-0.003347, 0.002306, 0.012383,1, 0.005140, 0.001144,-0.994892,-0.002817, 0.003167, 0.012150, 0.000743,-0.079051,-0.144358,-0.000001, 0.000002, 0.000006,1,0
1777416457144103530,1296311000000,  1296.311, 0.000180, 0.000109,-0.010045,-0.000003, 0.000084, 0.000164,-0.103268,-0.070254, 0.064213,1,-0.002241, 0.004053, 0.013292,1, 0.012909, 0.007571,-0.998877,-0.001381, 0.005885, 0.014792, 0.001252,-0.079183,-0.144913,-0.000001, 0.000002, 0.000006,1,0
1777416457154210458,1296311000000,  1296.311, 0.000180, 0.000109,-0.010045,-0.000003, 0.000084, 0.000164,-0.103268,-0.070254, 0.064213,1,-0.002241, 0.004053, 0.013292,1, 0.012909, 0.007571,-0.998877,-0.001381, 0.005885, 0.014792, 0.001252,-0.079183,-0.144913,-0.000001, 0.000002, 0.000006,1,0
1777416457173921121,1296331000000,  1296.331, 0.000177, 0.000224,-0.009996,-0.000007, 0.000049, 0.000204,-0.040975,-0.017353, 0.056776,1,-0.000764, 0.005698, 0.016395,1, 0.016058, 0.015985,-0.995858,-0.000678, 0.005310, 0.018339, 0.001020,-0.079430,-0.144625,-0.000001, 0.000002, 0.000006,1,0
1777416457183675224,1296351000000,  1296.351, 0.000127, 0.000097,-0.009989, 0.000011, 0.000043, 0.000276,-0.039199, 0.053825, 0.054454,1,-0.000168, 0.005696, 0.021299,1, 0.014099, 0.013617,-0.995798, 0.000427, 0.005077, 0.024224, 0.001252,-0.079753,-0.145050,-0.000001, 0.000002, 0.000006,1,0
1777416457193758856,1296351000000,  1296.351, 0.000127, 0.000097,-0.009989, 0.000011, 0.000043, 0.000276,-0.039199, 0.053825, 0.054454,1,-0.000168, 0.005696, 0.021299,1, 0.014099, 0.013617,-0.995798, 0.000427, 0.005077, 0.024224, 0.001252,-0.079753,-0.145050,-0.000001, 0.000002, 0.000006,1,0
1777416457203360665,1296371000000,  1296.371, 0.000074,-0.000074,-0.009964, 0.000009, 0.000052, 0.000266,-0.072133,-0.064283, 0.042331,1, 0.000246, 0.005045, 0.025927,1, 0.009943,-0.000212,-0.995319, 0.000545, 0.005163, 0.026247, 0.000863,-0.079082,-0.144871,-0.000001, 0.000002, 0.000006,1,0
1777416457213444668,1296371000000,  1296.371, 0.000074,-0.000074,-0.009964, 0.000009, 0.000052, 0.000266,-0.072133,-0.064283, 0.042331,1, 0.000246, 0.005045, 0.025927,1, 0.009943,-0.000212,-0.995319, 0.000545, 0.005163, 0.026247, 0.000863,-0.079082,-0.144871,-0.000001, 0.000002, 0.000006,1,0
1777416457223044292,1296391000000,  1296.391, 0.000034, 0.000028,-0.009947, 0.000022, 0.000038, 0.000261,-0.115305,-0.127982, 0.033510,1, 0.000170, 0.004771, 0.025942,1, 0.005811, 0.000710,-0.995278, 0.001125, 0.004394, 0.025999, 0.000929,-0.079045,-0.144952,-0.000001, 0.000002, 0.000006,1,0
1777416457233128554,1296391000000,  1296.391, 0.000034, 0.000028,-0.009947, 0.000022, 0.000038, 0.000261,-0.115305,-0.127982, 0.033510,1, 0.000170, 0.004771, 0.025942,1, 0.005811, 0.000710,-0.995278, 0.001125, 0.004394, 0.025999, 0.000929,-0.079045,-0.144952,-0.000001, 0.000002, 0.000006,1,0
1777416457252864051,1296411000000,  1296.411,-0.000024, 0.000053,-0.009973, 0.000006, 0.000031, 0.000289,-0.167109,-0.084112, 0.041014,1, 0.001101, 0.004152, 0.026785,1, 0.000331, 0.004339,-0.996165, 0.000839, 0.003569, 0.027780, 0.000767,-0.078896,-0.144591,-0.000001, 0.000002, 0.000006,1,0
1777416457262542747,1296431000000,  1296.431,-0.000128,-0.000048,-0.009950,-0.000000,-0.000018, 0.000301,-0.229814,-0.086949, 0.044570,1, 0.000654, 0.001324, 0.028788,1,-0.007934,-0.000621,-0.994895, 0.000332,-0.000063, 0.029390, 0.000917,-0.078770,-0.144976,-0.000001, 0.000002, 0.000006,1,0
1777416457272626565,1296431000000,  1296.431,-0.000128,-0.000048,-0.009950,-0.000000,-0.000018, 0.000301,-0.229814,-0.086949, 0.044570,1, 0.000654, 0.001324, 0.028788,1,-0.007934,-0.000621,-0.994895, 0.000332,-0.000063, 0.029390, 0.000917,-0.078770,-0.144976,-0.000001, 0.000002, 0.000006,1,0
1777416457282296743,1296441000000,  1296.446,-0.000162,-0.000155,-0.009970,-0.000008,-0.000003, 0.000276,-0.309226,-0.193674, 0.036169,1,-0.000183,-0.000167, 0.028477,1,-0.011740,-0.007611,-0.996042,-0.000184,-0.000166, 0.028484, 0.000740,-0.078807,-0.144999,-0.000001, 0.000002, 0.000006,1,0
1777416457292379820,1296441000000,  1296.446,-0.000162,-0.000155,-0.009970,-0.000008,-0.000003, 0.000276,-0.309226,-0.193674, 0.036169,1,-0.000183,-0.000167, 0.028477,1,-0.011740,-0.007611,-0.996042,-0.000184,-0.000166, 0.028484, 0.000740,-0.078807,-0.144999,-0.000001, 0.000002, 0.000006,1,0
1777416457302050221,1296461000000,  1296.466,-0.000157,-0.000273,-0.009937,-0.000021,-0.000004, 0.000204,-0.333857,-0.318784, 0.042819,1,-0.001200,-0.000298, 0.023690,1,-0.014694,-0.020456,-0.995374,-0.001200,-0.000297, 0.023697, 0.000594,-0.078802,-0.145427,-0.000001, 0.000002, 0.000006,1,0
1777416457312134353,1296461000000,  1296.466,-0.000157,-0.000273,-0.009937,-0.000021,-0.000004, 0.000204,-0.333857,-0.318784, 0.042819,1,-0.001200,-0.000298, 0.023690,1,-0.014694,-0.020456,-0.995374,-0.001200,-0.000297, 0.023697, 0.000594,-0.078802,-0.145427,-0.000001, 0.000002, 0.000006,1,0
1777416457331820332,1296481000000,  1296.486,-0.000122,-0.000100,-0.009932,-0.000030, 0.000007, 0.000157,-0.316679,-0.268121, 0.042411,1,-0.002496, 0.000372, 0.018268,1,-0.013435,-0.015355,-0.995425,-0.002497, 0.000374, 0.018274, 0.001011,-0.078666,-0.145480,-0.000001, 0.000002, 0.000006,1,0
1777416457341507603,1296501000000,  1296.506,-0.000036,-0.000040,-0.009944,-0.000030, 0.000022, 0.000153,-0.257096,-0.189349, 0.034868,1,-0.002974, 0.001544, 0.016094,1,-0.007481,-0.007301,-0.996197,-0.002975, 0.001545, 0.016100, 0.001008,-0.079010,-0.144798,-0.000001, 0.000002, 0.000006,1,0
1777416457351592253,1296501000000,  1296.506,-0.000036,-0.000040,-0.009944,-0.000030, 0.000022, 0.000153,-0.257096,-0.189349, 0.034868,1,-0.002974, 0.001544, 0.016094,1,-0.007481,-0.007301,-0.996197,-0.002975, 0.001545, 0.016100, 0.001008,-0.079010,-0.144798,-0.000001, 0.000002, 0.000006,1,0
1777416457361254191,1296521000000,  1296.526, 0.000039, 0.000051,-0.009921,-0.000019, 0.000011, 0.000161,-0.186232,-0.112352, 0.043347,1,-0.002399, 0.001673, 0.015898,1,-0.000260, 0.000590,-0.995332,-0.002399, 0.001674, 0.015904, 0.000325,-0.079052,-0.144427,-0.000001, 0.000002, 0.000006,1,0
1777416457371337712,1296521000000,  1296.526, 0.000039, 0.000051,-0.009921,-0.000019, 0.000011, 0.000161,-0.186232,-0.112352, 0.043347,1,-0.002399, 0.001673, 0.015898,1,-0.000260, 0.000590,-0.995332,-0.002399, 0.001674, 0.015904, 0.000325,-0.079052,-0.144427,-0.000001, 0.000002, 0.000006,1,0
1777416457381010946,1296541000000,  1296.546, 0.000068, 0.000104,-0.009921,-0.000011, 0.000021, 0.000182,-0.139679,-0.043947, 0.047050,1,-0.001642, 0.001667, 0.017244,1, 0.004507, 0.007597,-0.994953,-0.001643, 0.001668, 0.017251, 0.000663,-0.079140,-0.144075,-0.000001, 0.000002, 0.000006,1,0
1777416457391095486,1296541000000,  1296.546, 0.000068, 0.000104,-0.009921,-0.000011, 0.000021, 0.000182,-0.139679,-0.043947, 0.047050,1,-0.001642, 0.001667, 0.017244,1, 0.004507, 0.007597,-0.994953,-0.001643, 0.001668, 0.017251, 0.000663,-0.079140,-0.144075,-0.000001, 0.000002, 0.000006,1,0
1777416457410761984,1296561000000,  1296.566, 0.000092, 0.000054,-0.009953,-0.000005, 0.000020, 0.000204,-0.109046,-0.053810, 0.036719,1,-0.000829, 0.001785, 0.019362,1, 0.007666, 0.006607,-0.996006,-0.000830, 0.001787, 0.019369, 0.001310,-0.078882,-0.144964,-0.000001, 0.000002, 0.000006,1,0
1777416457420441866,1296581000000,  1296.586, 0.000088, 0.000007,-0.009955, 0.000002, 0.000037, 0.000222,-0.101504,-0.087860, 0.038387,1,-0.000133, 0.003047, 0.021290,1, 0.008486, 0.003134,-0.995835,-0.000134, 0.003049, 0.021296, 0.001027,-0.078878,-0.145320,-0.000001, 0.000002, 0.000006,1,0
1777416457430525350,1296581000000,  1296.586, 0.000088, 0.000007,-0.009955, 0.000002, 0.000037, 0.000222,-0.101504,-0.087860, 0.038387,1,-0.000133, 0.003047, 0.021290,1, 0.008486, 0.003134,-0.995835,-0.000134, 0.003049, 0.021296, 0.001027,-0.078878,-0.145320,-0.000001, 0.000002, 0.000006,1,0
1777416457440193343,1296601000000,  1296.606, 0.000097,-0.000008,-0.009956,-0.000001, 0.000040, 0.000225,-0.095159,-0.114948, 0.039699,1,-0.000095, 0.003542, 0.022035,1, 0.009202, 0.000365,-0.995700,-0.000096, 0.003544, 0.022041, 0.001481,-0.078901,-0.144908,-0.000001, 0.000002, 0.000006,1,0
1777416457450276994,1296601000000,  1296.606, 0.000097,-0.000008,-0.009956,-0.000001, 0.000040, 0.000225,-0.095159,-0.114948, 0.039699,1,-0.000095, 0.003542, 0.022035,1, 0.009202, 0.000365,-0.995700,-0.000096, 0.003544, 0.022041, 0.001481,-0.078901,-0.144908,-0.000001, 0.000002, 0.000006,1,0
1777416457470014620,1296621000000,  1296.626, 0.000083, 0.000019,-0.009950,-0.000001, 0.000015, 0.000242,-0.096057,-0.108670, 0.042203,1, 0.000012, 0.002846, 0.022665,1, 0.008701, 0.001411,-0.995383,-0.000036, 0.002226, 0.023423, 0.000927,-0.078566,-0.144358,-0.000001, 0.000002, 0.000006,1,0
1777416457485586447,1296641000000,  1296.646, 0.000051,-0.000026,-0.009966,-0.000001, 0.000002, 0.000243,-0.121196,-0.126132, 0.036688,1, 0.000207, 0.000821, 0.023948,1, 0.006644,-0.000797,-0.996005, 0.000206, 0.000823, 0.023955, 0.001139,-0.078337,-0.144253,-0.000001, 0.000002, 0.000006,1,0
1777416457495296940,1296661000000,  1296.666, 0.000004,-0.000053,-0.010000,-0.000008,-0.000004, 0.000229,-0.157633,-0.153506, 0.024215,1,-0.000313,-0.000269, 0.023337,1, 0.002604,-0.003680,-0.997284,-0.000314,-0.000267, 0.023343, 0.000925,-0.078763,-0.145205,-0.000001, 0.000002, 0.000006,1,0
1777416457505382109,1296661000000,  1296.666, 0.000004,-0.000053,-0.010000,-0.000008,-0.000004, 0.000229,-0.157633,-0.153506, 0.024215,1,-0.000313,-0.000269, 0.023337,1, 0.002604,-0.003680,-0.997284,-0.000314,-0.000267, 0.023343, 0.000925,-0.078763,-0.145205,-0.000001, 0.000002, 0.000006,1,0
1777416457525023182,1296681000000,  1296.681,-0.000019,-0.000097,-0.009984,-0.000012,-0.000012, 0.000212,-0.184422,-0.190563, 0.032650,1,-0.000713,-0.000596, 0.021994,1,-0.000503,-0.007553,-0.996432,-0.000714,-0.000594, 0.022001, 0.001410,-0.079001,-0.144851,-0.000001, 0.000002, 0.000006,1,0
1777416457544462277,1296701000000,  1296.701,-0.000057,-0.000102,-0.009973,-0.000014,-0.000002, 0.000184,-0.203142,-0.203764, 0.042630,1,-0.001261,-0.000649, 0.021056,1,-0.004096,-0.009471,-0.995994,-0.001301,-0.000617, 0.019790, 0.000981,-0.079076,-0.145323,-0.000001, 0.000002, 0.000006,1,0
1777416457554153955,1296721000000,  1296.721,-0.000131,-0.000060,-0.010012,-0.000023, 0.000017, 0.000134,-0.274685,-0.204506, 0.042766,1,-0.001332,-0.000464, 0.018234,1,-0.010252,-0.007788,-0.997671,-0.001765, 0.000309, 0.015937, 0.000891,-0.078809,-0.145245,-0.000001, 0.000002, 0.000006,1,0
1777416457564256161,1296721000000,  1296.721,-0.000131,-0.000060,-0.010012,-0.000023, 0.000017, 0.000134,-0.274685,-0.204506, 0.042766,1,-0.001332,-0.000464, 0.018234,1,-0.010252,-0.007788,-0.997671,-0.001765, 0.000309, 0.015937, 0.000891,-0.078809,-0.145245,-0.000001, 0.000002, 0.000006,1,0
1777416457583971769,1296741000000,  1296.741,-0.000079,-0.000007,-0.009994,-0.000024,-0.000001, 0.000152,-0.247702,-0.173147, 0.057913,1,-0.002108,-0.001051, 0.015860,1,-0.007293,-0.003736,-0.996315,-0.002218,-0.000457, 0.015594, 0.001036,-0.079014,-0.144696,-0.000001, 0.000002, 0.000006,1,0
1777416457593726279,1296761000000,  1296.761,-0.000362,-0.000063,-0.009950,-0.000001, 0.000066, 0.000145,-0.308946,-0.204949, 0.021732,1,-0.004464, 0.002601, 0.015436,1,-0.023241,-0.006896,-0.994330,-0.002230, 0.004880, 0.014910, 0.001316,-0.079137,-0.144754,-0.000001, 0.000002, 0.000006,1,0
1777416457603809318,1296761000000,  1296.761,-0.000362,-0.000063,-0.009950,-0.000001, 0.000066, 0.000145,-0.308946,-0.204949, 0.021732,1,-0.004464, 0.002601, 0.015436,1,-0.023241,-0.006896,-0.994330,-0.002230, 0.004880, 0.014910, 0.001316,-0.079137,-0.144754,-0.000001, 0.000002, 0.000006,1,0
1777416457613339759,1296781000000,  1296.781,-0.000391, 0.000172,-0.009877, 0.000031, 0.000073, 0.000168,-0.426383,-0.083738, 0.033200,1,-0.001576, 0.004105, 0.014438,1,-0.031575, 0.009584,-0.992160, 0.000722, 0.005819, 0.015615, 0.000860,-0.079216,-0.144723,-0.000001, 0.000002, 0.000006,1,0
1777416457623424613,1296781000000,  1296.781,-0.000391, 0.000172,-0.009877, 0.000031, 0.000073, 0.000168,-0.426383,-0.083738, 0.033200,1,-0.001576, 0.004105, 0.014438,1,-0.031575, 0.009584,-0.992160, 0.000722, 0.005819, 0.015615, 0.000860,-0.079216,-0.144723,-0.000001, 0.000002, 0.000006,1,0
1777416457633093033,1296801000000,  1296.801,-0.000459, 0.000232,-0.009743,-0.000000, 0.000042, 0.000225,-0.523405,-0.010374,-0.048535,1, 0.001065, 0.004577, 0.017358,1,-0.039881, 0.016370,-0.991584, 0.000977, 0.004649, 0.019792, 0.001210,-0.078925,-0.144824,-0.000001, 0.000002, 0.000006,1,0
1777416457643177165,1296801000000,  1296.801,-0.000459, 0.000232,-0.009743,-0.000000, 0.000042, 0.000225,-0.523405,-0.010374,-0.048535,1, 0.001065, 0.004577, 0.017358,1,-0.039881, 0.016370,-0.991584, 0.000977, 0.004649, 0.019792, 0.001210,-0.078925,-0.144824,-0.000001, 0.000002, 0.000006,1,0
1777416457662914754,1296821000000,  1296.821,-0.000444, 0.000010,-0.009820, 0.000012, 0.000047, 0.000268,-0.584897, 0.044213,-0.007944,1,-0.000489, 0.004053, 0.022113,1,-0.042577, 0.009007,-0.992553, 0.000330, 0.004490, 0.024205, 0.000922,-0.078544,-0.144808,-0.000001, 0.000002, 0.000006,1,0
1777416457672597728,1296841000000,  1296.841,-0.000418, 0.000016,-0.009987, 0.000022, 0.000030, 0.000255,-0.590979,-0.079394, 0.042907,1, 0.001293, 0.004159, 0.025071,1,-0.041755, 0.003207,-0.997547, 0.001785, 0.003560, 0.025309, 0.001075,-0.078099,-0.145246,-0.000001, 0.000002, 0.000006,1,0
1777416457682681249,1296841000000,  1296.841,-0.000418, 0.000016,-0.009987, 0.000022, 0.000030, 0.000255,-0.590979,-0.079394, 0.042907,1, 0.001293, 0.004159, 0.025071,1,-0.041755, 0.003207,-0.997547, 0.001785, 0.003560, 0.025309, 0.001075,-0.078099,-0.145246,-0.000001, 0.000002, 0.000006,1,0
1777416457692342743,1296851000000,  1296.856,-0.000430, 0.000063,-0.009967, 0.000036, 0.000047, 0.000269,-0.596385,-0.069672, 0.026285,1, 0.002608, 0.004070, 0.026051,1,-0.042226, 0.004820,-0.997076, 0.002607, 0.004071, 0.026058, 0.000877,-0.078323,-0.145131,-0.000001, 0.000002, 0.000006,1,0
1777416457702443301,1296851000000,  1296.856,-0.000430, 0.000063,-0.009967, 0.000036, 0.000047, 0.000269,-0.596385,-0.069672, 0.026285,1, 0.002608, 0.004070, 0.026051,1,-0.042226, 0.004820,-0.997076, 0.002607, 0.004071, 0.026058, 0.000877,-0.078323,-0.145131,-0.000001, 0.000002, 0.000006,1,0
1777416457712051036,1296871000000,  1296.876,-0.000462, 0.000071,-0.009961, 0.000042, 0.000070, 0.000311,-0.608395,-0.044704, 0.046348,1, 0.003121, 0.005742, 0.028968,1,-0.043603, 0.007143,-0.995035, 0.003120, 0.005743, 0.028974, 0.000912,-0.078432,-0.144888,-0.000001, 0.000002, 0.000006,1,0
1777416457722148594,1296871000000,  1296.876,-0.000462, 0.000071,-0.009961, 0.000042, 0.000070, 0.000311,-0.608395,-0.044704, 0.046348,1, 0.003121, 0.005742, 0.028968,1,-0.043603, 0.007143,-0.995035, 0.003120, 0.005743, 0.028974, 0.000912,-0.078432,-0.144888,-0.000001, 0.000002, 0.000006,1,0
1777416457741870702,1296891000000,  1296.896,-0.000486,-0.000100,-0.009776, 0.000023, 0.000107, 0.000327,-0.635142,-0.149508, 0.097527,1, 0.001829, 0.009758, 0.031621,1,-0.046252,-0.003664,-0.989816, 0.001828, 0.009760, 0.031627, 0.000698,-0.078480,-0.143997,-0.000001, 0.000002, 0.000006,1,0
1777416457751539380,1296911000000,  1296.916,-0.000440,-0.000217,-0.010065,-0.000055, 0.000143, 0.000290,-0.615185,-0.263512,-0.074583,1,-0.003139, 0.012844, 0.029971,1,-0.044010,-0.015313,-1.007363,-0.003140, 0.012845, 0.029977, 0.000766,-0.078981,-0.144412,-0.000001, 0.000002, 0.000006,1,0
1777416457761623124,1296911000000,  1296.916,-0.000440,-0.000217,-0.010065,-0.000055, 0.000143, 0.000290,-0.615185,-0.263512,-0.074583,1,-0.003139, 0.012844, 0.029971,1,-0.044010,-0.015313,-1.007363,-0.003140, 0.012845, 0.029977, 0.000766,-0.078981,-0.144412,-0.000001, 0.000002, 0.000006,1,0
1777416457771309413,1296931000000,  1296.936,-0.000343,-0.000186,-0.009936,-0.000111, 0.000214, 0.000260,-0.561172,-0.309104,-0.009101,1,-0.008441, 0.018527, 0.027344,1,-0.038192,-0.019859,-1.000679,-0.008442, 0.018528, 0.027350, 0.000899,-0.078737,-0.145528,-0.000001, 0.000002, 0.000006,1,0
1777416457781393378,1296931000000,  1296.936,-0.000343,-0.000186,-0.009936,-0.000111, 0.000214, 0.000260,-0.561172,-0.309104,-0.009101,1,-0.008441, 0.018527, 0.027344,1,-0.038192,-0.019859,-1.000679,-0.008442, 0.018528, 0.027350, 0.000899,-0.078737,-0.145528,-0.000001, 0.000002, 0.000006,1,0
1777416457801054117,1296951000000,  1296.956,-0.000442, 0.000430,-0.009573,-0.000064, 0.000096, 0.000323,-0.517431, 0.065517, 0.124960,1,-0.005648, 0.010395, 0.029557,1,-0.033431, 0.018449,-0.987001,-0.005649, 0.010397, 0.029563, 0.000894,-0.078897,-0.144846,-0.000001, 0.000002, 0.000006,1,0
1777416457820814687,1296971000000,  1296.976,-0.000394, 0.000516,-0.010053, 0.000043, 0.000044, 0.000460,-0.579769, 0.269540, 0.064372,1, 0.002213, 0.004525, 0.040116,1,-0.039659, 0.039248,-0.993177, 0.002212, 0.004527, 0.040122, 0.000704,-0.078514,-0.144671,-0.000001, 0.000002, 0.000006,1,0
1777416457830482124,1296991000000,  1296.996,-0.000367, 0.000097,-0.009997, 0.000033, 0.000003, 0.000554,-0.560831, 0.091558,-0.003048,1, 0.004612, 0.000160, 0.050678,1,-0.037709, 0.020989,-1.000053, 0.004611, 0.000161, 0.050685, 0.000539,-0.077995,-0.144165,-0.000001, 0.000002, 0.000006,1,0
1777416457840565146,1296991000000,  1296.996,-0.000367, 0.000097,-0.009997, 0.000033, 0.000003, 0.000554,-0.560831, 0.091558,-0.003048,1, 0.004612, 0.000160, 0.050678,1,-0.037709, 0.020989,-1.000053, 0.004611, 0.000161, 0.050685, 0.000539,-0.077995,-0.144165,-0.000001, 0.000002, 0.000006,1,0
1777416457850303489,1297011000000,  1297.016,-0.000227,-0.000142,-0.010003,-0.000105, 0.000101, 0.000523,-0.475892,-0.164592,-0.086909,1,-0.002202, 0.004986, 0.053355,1,-0.029005,-0.005197,-1.008604,-0.002203, 0.004988, 0.053361, 0.000370,-0.077646,-0.144532,-0.000001, 0.000002, 0.000006,1,0
1777416457860420454,1297011000000,  1297.016,-0.000227,-0.000142,-0.010003,-0.000105, 0.000101, 0.000523,-0.475892,-0.164592,-0.086909,1,-0.002202, 0.004986, 0.053355,1,-0.029005,-0.005197,-1.008604,-0.002203, 0.004988, 0.053361, 0.000370,-0.077646,-0.144532,-0.000001, 0.000002, 0.000006,1,0
1777416457870002838,1297031000000,  1297.036,-0.000183,-0.000047,-0.010170,-0.000050, 0.000060, 0.000500,-0.418128,-0.203655,-0.045512,1,-0.003669, 0.005754, 0.051583,1,-0.022990,-0.009139,-1.004380,-0.003670, 0.005756, 0.051589, 0.000297,-0.077338,-0.145070,-0.000001, 0.000002, 0.000006,1,0
1777416457880088378,1297031000000,  1297.036,-0.000183,-0.000047,-0.010170,-0.000050, 0.000060, 0.000500,-0.418128,-0.203655,-0.045512,1,-0.003669, 0.005754, 0.051583,1,-0.022990,-0.009139,-1.004380,-0.003670, 0.005756, 0.051589, 0.000297,-0.077338,-0.145070,-0.000001, 0.000002, 0.000006,1,0
1777416457895620077,1297051000000,  1297.056,-0.000437,-0.000175,-0.009863,-0.000057, 0.000058, 0.000455,-0.521545,-0.275898, 0.093953,1,-0.002776, 0.004763, 0.048353,1,-0.033422,-0.016480,-0.990156,-0.002777, 0.004764, 0.048359, 0.000125,-0.077088,-0.145309,-0.000001, 0.000002, 0.000006,1,0
1777416457905312255,1297071000000,  1297.076,-0.000613,-0.000080,-0.010327,-0.000020,-0.000000, 0.000417,-0.700538,-0.242106,-0.048205,1,-0.001908, 0.001230, 0.044119,1,-0.051827,-0.013132,-1.004656,-0.001908, 0.001232, 0.044125, 0.000322,-0.077157,-0.145833,-0.000001, 0.000002, 0.000006,1,0
1777416457915396535,1297071000000,  1297.076,-0.000613,-0.000080,-0.010327,-0.000020,-0.000000, 0.000417,-0.700538,-0.242106,-0.048205,1,-0.001908, 0.001230, 0.044119,1,-0.051827,-0.013132,-1.004656,-0.001908, 0.001232, 0.044125, 0.000322,-0.077157,-0.145833,-0.000001, 0.000002, 0.000006,1,0
1777416457925012270,1297091000000,  1297.091,-0.000673,-0.000315,-0.010267,-0.000010,-0.000007, 0.000299,-0.798429,-0.402435,-0.027764,1,-0.000061, 0.001960, 0.035791,1,-0.061834,-0.029531,-1.002573,-0.000062, 0.001962, 0.035797, 0.000192,-0.077281,-0.145193,-0.000001, 0.000002, 0.000006,1,0
1777416457935095995,1297091000000,  1297.091,-0.000673,-0.000315,-0.010267,-0.000010,-0.000007, 0.000299,-0.798429,-0.402435,-0.027764,1,-0.000061, 0.001960, 0.035791,1,-0.061834,-0.029531,-1.002573,-0.000062, 0.001962, 0.035797, 0.000192,-0.077281,-0.145193,-0.000001, 0.000002, 0.000006,1,0
1777416457954506499,1297111000000,  1297.111,-0.000788,-0.000171,-0.009747, 0.000072,-0.000036, 0.000218,-0.883807,-0.321766, 0.183052,1, 0.003889,-0.000820, 0.026798,1,-0.070540,-0.021361,-0.981076, 0.003888,-0.000818, 0.026805,-0.000005,-0.077275,-0.144528,-0.000001, 0.000002, 0.000006,1,0
1777416457964209139,1297131000000,  1297.131,-0.000745,-0.000230,-0.010793, 0.000239,-0.000128, 0.000178,-0.914926,-0.310185, 0.274446,1, 0.005069,-0.004289, 0.022567,1,-0.074920,-0.024034,-1.023828, 0.014141,-0.008145, 0.020636, 0.000079,-0.077105,-0.144488,-0.000001, 0.000002, 0.000006,1,0
1777416457974293049,1297131000000,  1297.131,-0.000745,-0.000230,-0.010793, 0.000239,-0.000128, 0.000178,-0.914926,-0.310185, 0.274446,1, 0.005069,-0.004289, 0.022567,1,-0.074920,-0.024034,-1.023828, 0.014141,-0.008145, 0.020636, 0.000079,-0.077105,-0.144488,-0.000001, 0.000002, 0.000006,1,0
1777416457993960140,1297151000000,  1297.151,-0.000841,-0.000306,-0.008846,-0.000125,-0.000066, 0.000215,-0.749391, 0.069094,-0.382612,1,-0.000889, 0.000865, 0.017491,1,-0.070936, 0.000197,-0.976477,-0.009508, 0.000127, 0.018455, 0.000337,-0.077284,-0.144333,-0.000001, 0.000002, 0.000006,1,0
1777416458003776426,1297171000000,  1297.171,-0.000650,-0.000403,-0.009489,-0.000022, 0.000067, 0.000284,-0.672076, 0.108775, 0.218027,1,-0.000388,-0.007788, 0.021490,1,-0.054204,-0.008985,-0.993261,-0.004370,-0.002383, 0.024406, 0.000443,-0.076939,-0.145171,-0.000001, 0.000002, 0.000006,1,0
1777416458013859371,1297171000000,  1297.171,-0.000650,-0.000403,-0.009489,-0.000022, 0.000067, 0.000284,-0.672076, 0.108775, 0.218027,1,-0.000388,-0.007788, 0.021490,1,-0.054204,-0.008985,-0.993261,-0.004370,-0.002383, 0.024406, 0.000443,-0.076939,-0.145171,-0.000001, 0.000002, 0.000006,1,0
1777416458023392940,1297191000000,  1297.191,-0.000780, 0.000040,-0.009182,-0.000042,-0.000027, 0.000200,-0.754205,-0.216666,-0.128416,1, 0.000805,-0.002901, 0.024096,1,-0.069495,-0.002816,-0.974131,-0.002591,-0.004111, 0.022261, 0.000110,-0.076659,-0.145291,-0.000001, 0.000002, 0.000006,1,0
1777416458033477607,1297191000000,  1297.191,-0.000780, 0.000040,-0.009182,-0.000042,-0.000027, 0.000200,-0.754205,-0.216666,-0.128416,1, 0.000805,-0.002901, 0.024096,1,-0.069495,-0.002816,-0.974131,-0.002591,-0.004111, 0.022261, 0.000110,-0.076659,-0.145291,-0.000001, 0.000002, 0.000006,1,0
1777416458043148210,1297211000000,  1297.211,-0.000764, 0.000187,-0.010232,-0.000099,-0.000058, 0.000327,-0.784880, 0.098498,-0.133478,1,-0.001965, 0.004577, 0.022392,1,-0.069554, 0.019067,-1.026026,-0.006705, 0.000369, 0.027209, 0.000099,-0.076945,-0.145493,-0.000001, 0.000002, 0.000006,1,0
1777416458053255488,1297211000000,  1297.211,-0.000764, 0.000187,-0.010232,-0.000099,-0.000058, 0.000327,-0.784880, 0.098498,-0.133478,1,-0.001965, 0.004577, 0.022392,1,-0.069554, 0.019067,-1.026026,-0.006705, 0.000369, 0.027209, 0.000099,-0.076945,-0.145493,-0.000001, 0.000002, 0.000006,1,0
1777416458072971425,1297231000000,  1297.231,-0.000690,-0.000002,-0.009867,-0.000187, 0.000185, 0.000274,-0.933885, 0.003518, 0.450402,1,-0.002031,-0.003415, 0.030931,1,-0.072000, 0.011276,-0.985630,-0.009616, 0.005865, 0.029126, 0.000190,-0.076368,-0.144987,-0.000001, 0.000002, 0.000006,1,0
1777416458082642176,1297251000000,  1297.251,-0.000909,-0.000171,-0.008354,-0.000155, 0.000000, 0.000296,-0.884301,-0.094478,-0.609264,1,-0.005212, 0.000818, 0.029873,1,-0.080136,-0.005454,-0.970955,-0.012718, 0.001655, 0.029306, 0.000159,-0.076297,-0.145319,-0.000001, 0.000002, 0.000006,1,0
1777416458092727065,1297251000000,  1297.251,-0.000909,-0.000171,-0.008354,-0.000155, 0.000000, 0.000296,-0.884301,-0.094478,-0.609264,1,-0.005212, 0.000818, 0.029873,1,-0.080136,-0.005454,-0.970955,-0.012718, 0.001655, 0.029306, 0.000159,-0.076297,-0.145319,-0.000001, 0.000002, 0.000006,1,0
1777416458111972865,1297261000000,  1297.266,-0.000786, 0.000234,-0.010205, 0.000065, 0.000048, 0.000264,-0.982680,-0.039567, 0.195842,1,-0.003892, 0.003517, 0.027955,1,-0.080795, 0.007407,-0.979776,-0.003893, 0.003518, 0.027961, 0.000086,-0.076552,-0.145230,-0.000001, 0.000002, 0.000006,1,0
1777416458121640412,1297281000000,  1297.286,-0.000610, 0.000239,-0.009964,-0.000178,-0.000046, 0.000381,-0.935823,-0.034116,-0.117113,1,-0.008452, 0.006202, 0.030130,1,-0.068813, 0.013400,-0.991509,-0.008422, 0.001526, 0.034209,-0.000245,-0.076523,-0.145211,-0.000001, 0.000002, 0.000006,1,0
1777416458131723949,1297281000000,  1297.286,-0.000610, 0.000239,-0.009964,-0.000178,-0.000046, 0.000381,-0.935823,-0.034116,-0.117113,1,-0.008452, 0.006202, 0.030130,1,-0.068813, 0.013400,-0.991509,-0.008422, 0.001526, 0.034209,-0.000245,-0.076523,-0.145211,-0.000001, 0.000002, 0.000006,1,0
1777416458141409903,1297301000000,  1297.306,-0.000749,-0.000328,-0.012306,-0.000209, 0.000026, 0.000319,-0.874735,-0.167122,-0.816434,1,-0.014477, 0.003975, 0.033070,1,-0.069728,-0.005229,-1.082994,-0.014478, 0.003976, 0.033077, 0.000173,-0.076245,-0.145364,-0.000001, 0.000002, 0.000006,1,0
1777416458151494460,1297301000000,  1297.306,-0.000749,-0.000328,-0.012306,-0.000209, 0.000026, 0.000319,-0.874735,-0.167122,-0.816434,1,-0.014477, 0.003975, 0.033070,1,-0.069728,-0.005229,-1.082994,-0.014478, 0.003976, 0.033077, 0.000173,-0.076245,-0.145364,-0.000001, 0.000002, 0.000006,1,0
1777416458161161396,1297321000000,  1297.326,-0.000616, 0.000783,-0.012610,-0.000225, 0.000309, 0.000286,-0.977591, 0.270351,-0.652218,1,-0.018335, 0.007133, 0.030786,1,-0.080247, 0.039620,-1.066246,-0.018336, 0.007135, 0.030792, 0.000285,-0.076502,-0.145437,-0.000001, 0.000002, 0.000006,1,0
1777416458171244785,1297321000000,  1297.326,-0.000616, 0.000783,-0.012610,-0.000225, 0.000309, 0.000286,-0.977591, 0.270351,-0.652218,1,-0.018335, 0.007133, 0.030786,1,-0.080247, 0.039620,-1.066246,-0.018336, 0.007135, 0.030792, 0.000285,-0.076502,-0.145437,-0.000001, 0.000002, 0.000006,1,0
1777416458190927557,1297341000000,  1297.346,-0.000590,-0.000041,-0.012234, 0.000088,-0.000068, 0.000352,-0.901378,-0.142858,-0.517960,1,-0.003478, 0.001152, 0.033864,1,-0.072366,-0.002388,-1.052552,-0.003479, 0.001154, 0.033871,-0.000286,-0.076249,-0.145436,-0.000001, 0.000002, 0.000006,1,0
1777416458200598752,1297361000000,  1297.366,-0.000701, 0.000905,-0.011556, 0.000013,-0.000134, 0.000281,-0.838440, 0.036344,-0.337241,1,-0.011591,-0.008020, 0.029528,1,-0.065874, 0.015970,-1.034121,-0.011592,-0.008018, 0.029534,-0.000491,-0.075973,-0.144790,-0.000001, 0.000002, 0.000006,1,0
1777416458210681975,1297361000000,  1297.366,-0.000701, 0.000905,-0.011556, 0.000013,-0.000134, 0.000281,-0.838440, 0.036344,-0.337241,1,-0.011591,-0.008020, 0.029528,1,-0.065874, 0.015970,-1.034121,-0.011592,-0.008018, 0.029534,-0.000491,-0.075973,-0.144790,-0.000001, 0.000002, 0.000006,1,0
1777416458220366632,1297381000000,  1297.386,-0.000812,-0.000007,-0.009212, 0.000069,-0.000160, 0.000459,-0.921809,-0.056469, 0.497302,1,-0.009038, 0.003631, 0.039847,1,-0.074221, 0.006680,-0.949016,-0.009039, 0.003632, 0.039854,-0.000399,-0.075645,-0.144758,-0.000001, 0.000002, 0.000006,1,0
1777416458230450652,1297381000000,  1297.386,-0.000812,-0.000007,-0.009212, 0.000069,-0.000160, 0.000459,-0.921809,-0.056469, 0.497302,1,-0.009038, 0.003631, 0.039847,1,-0.074221, 0.006680,-0.949016,-0.009039, 0.003632, 0.039854,-0.000399,-0.075645,-0.144758,-0.000001, 0.000002, 0.000006,1,0
1777416458240120069,1297401000000,  1297.406,-0.000465, 0.000243,-0.011165,-0.000205, 0.000127, 0.000354,-0.580012,-0.226983,-0.612320,1,-0.013820, 0.004957, 0.037891,1,-0.039202,-0.010501,-1.062160,-0.013821, 0.004958, 0.037898, 0.000327,-0.075282,-0.145160,-0.000001, 0.000002, 0.000006,1,0
1777416458250203199,1297401000000,  1297.406,-0.000465, 0.000243,-0.011165,-0.000205, 0.000127, 0.000354,-0.580012,-0.226983,-0.612320,1,-0.013820, 0.004957, 0.037891,1,-0.039202,-0.010501,-1.062160,-0.013821, 0.004958, 0.037898, 0.000327,-0.075282,-0.145160,-0.000001, 0.000002, 0.000006,1,0
1777416458269932359,1297421000000,  1297.426,-0.000050, 0.000202,-0.011320, 0.000139,-0.000113, 0.000467,-0.589418,-0.047909, 0.063454,1, 0.002136,-0.000270, 0.043610,1,-0.039993, 0.008102,-0.993243, 0.002135,-0.000269, 0.043616,-0.000135,-0.075036,-0.145124,-0.000001, 0.000002, 0.000006,1,0
1777416458285487332,1297441000000,  1297.446,-0.000491,-0.000642,-0.009775,-0.000226, 0.000099, 0.000265,-0.595559,-0.596764,-0.174221,1,-0.013910, 0.012745, 0.033873,1,-0.040493,-0.047846,-1.017476,-0.013911, 0.012747, 0.033879,-0.000511,-0.074911,-0.145493,-0.000001, 0.000002, 0.000006,1,0
1777416458295179360,1297461000000,  1297.461,-0.000224,-0.000135,-0.009169,-0.000160, 0.000538, 0.000333,-0.533106,-0.107368, 0.200796,1,-0.014219, 0.015565, 0.031565,1,-0.034060, 0.002100,-0.979233,-0.014220, 0.015567, 0.031572,-0.000425,-0.075023,-0.145625,-0.000001, 0.000002, 0.000006,1,0
1777416458305264101,1297461000000,  1297.461,-0.000224,-0.000135,-0.009169,-0.000160, 0.000538, 0.000333,-0.533106,-0.107368, 0.200796,1,-0.014219, 0.015565, 0.031565,1,-0.034060, 0.002100,-0.979233,-0.014220, 0.015567, 0.031572,-0.000425,-0.075023,-0.145625,-0.000001, 0.000002, 0.000006,1,0
1777416458324942021,1297481000000,  1297.481,-0.000520,-0.000458,-0.008123,-0.000332, 0.000189, 0.000414,-0.538313,-0.291007, 0.306108,1,-0.016908, 0.011453, 0.039445,1,-0.034556,-0.016469,-0.968492,-0.016909, 0.011455, 0.039452,-0.000210,-0.074522,-0.144688,-0.000001, 0.000002, 0.000006,1,0
1777416458334311167,1297501000000,  1297.501,-0.000026,-0.000266,-0.010426,-0.000148, 0.000093, 0.000262,-0.492460,-0.423835,-0.078125,1,-0.005280, 0.014250, 0.036960,1,-0.013594,-0.028161,-1.039569,-0.009777, 0.011864, 0.032165,-0.000339,-0.074608,-0.145066,-0.000001, 0.000002, 0.000006,1,0
1777416458344394446,1297501000000,  1297.501,-0.000026,-0.000266,-0.010426,-0.000148, 0.000093, 0.000262,-0.492460,-0.423835,-0.078125,1,-0.005280, 0.014250, 0.036960,1,-0.013594,-0.028161,-1.039569,-0.009777, 0.011864, 0.032165,-0.000339,-0.074608,-0.145066,-0.000001, 0.000002, 0.000006,1,0
1777416458354061474,1297521000000,  1297.521, 0.000258,-0.000380,-0.011694, 0.000401, 0.000062, 0.000099,-0.705889,-0.603827, 0.828314,1, 0.008004, 0.004803, 0.031807,1,-0.017555,-0.044178,-1.016645, 0.026225, 0.001722, 0.022264,-0.000549,-0.074536,-0.145777,-0.000001, 0.000002, 0.000006,1,0
1777416458364145252,1297521000000,  1297.521, 0.000258,-0.000380,-0.011694, 0.000401, 0.000062, 0.000099,-0.705889,-0.603827, 0.828314,1, 0.008004, 0.004803, 0.031807,1,-0.017555,-0.044178,-1.016645, 0.026225, 0.001722, 0.022264,-0.000549,-0.074536,-0.145777,-0.000001, 0.000002, 0.000006,1,0
1777416458383886782,1297541000000,  1297.541,-0.000113, 0.000221,-0.009306, 0.000297,-0.000358, 0.000083,-0.407587,-0.645670,-0.383442,1, 0.012560, 0.010497, 0.011680,1,-0.018792,-0.025291,-0.961956, 0.015572,-0.011349, 0.010507,-0.000502,-0.074481,-0.145998,-0.000001, 0.000002, 0.000006,1,0
1777416458393558051,1297561000000,  1297.561,-0.000216,-0.000137,-0.007103, 0.000302, 0.000176, 0.000278,-0.360302, 0.269741,-1.052563,1, 0.002010, 0.006478, 0.012153,1,-0.016254, 0.006077,-0.924569, 0.008326, 0.014839, 0.019271,-0.000661,-0.074670,-0.145747,-0.000001, 0.000002, 0.000006,1,0
1777416458403642552,1297561000000,  1297.561,-0.000216,-0.000137,-0.007103, 0.000302, 0.000176, 0.000278,-0.360302, 0.269741,-1.052563,1, 0.002010, 0.006478, 0.012153,1,-0.016254, 0.006077,-0.924569, 0.008326, 0.014839, 0.019271,-0.000661,-0.074670,-0.145747,-0.000001, 0.000002, 0.000006,1,0
1777416458413262155,1297581000000,  1297.581,-0.000140,-0.000133,-0.008040, 0.000019, 0.000287, 0.000235,-0.171833,-0.146502,-1.008137,1, 0.003935, 0.005844, 0.025608,1,-0.001042,-0.010610,-0.971647, 0.003725, 0.017141, 0.024710,-0.000870,-0.074340,-0.145264,-0.000001, 0.000002, 0.000006,1,0
1777416458423346749,1297581000000,  1297.581,-0.000140,-0.000133,-0.008040, 0.000019, 0.000287, 0.000235,-0.171833,-0.146502,-1.008137,1, 0.003935, 0.005844, 0.025608,1,-0.001042,-0.010610,-0.971647, 0.003725, 0.017141, 0.024710,-0.000870,-0.074340,-0.145264,-0.000001, 0.000002, 0.000006,1,0
1777416458433016055,1297601000000,  1297.601, 0.000667,-0.000177,-0.011585, 0.000349, 0.000196, 0.000161,-0.166434,-0.344706, 0.023672,1, 0.010671, 0.021796, 0.018921,1, 0.035060,-0.023590,-1.061531, 0.024510, 0.020058, 0.017758,-0.001251,-0.073877,-0.144885,-0.000001, 0.000002, 0.000006,1,0
1777416458443099852,1297601000000,  1297.601, 0.000667,-0.000177,-0.011585, 0.000349, 0.000196, 0.000161,-0.166434,-0.344706, 0.023672,1, 0.010671, 0.021796, 0.018921,1, 0.035060,-0.023590,-1.061531, 0.024510, 0.020058, 0.017758,-0.001251,-0.073877,-0.144885,-0.000001, 0.000002, 0.000006,1,0
1777416458462895991,1297621000000,  1297.621, 0.000429, 0.000367,-0.010215, 0.000137,-0.000199, 0.000034,-0.051099,-0.384449, 0.785375,1, 0.025577, 0.016890, 0.013158,1, 0.028095, 0.004178,-0.952832, 0.019519,-0.001494, 0.008730,-0.001353,-0.073754,-0.144834,-0.000001, 0.000002, 0.000006,1,0
1777416458472522743,1297641000000,  1297.641,-0.000377, 0.002183,-0.007184,-0.000213,-0.000165, 0.000196,-0.009034, 0.009978,-0.593574,1, 0.015989,-0.005159, 0.014596,1,-0.010798, 0.113671,-0.911679,-0.000275,-0.008017, 0.017940,-0.000463,-0.073708,-0.145371,-0.000001, 0.000002, 0.000006,1,0
1777416458482606521,1297641000000,  1297.641,-0.000377, 0.002183,-0.007184,-0.000213,-0.000165, 0.000196,-0.009034, 0.009978,-0.593574,1, 0.015989,-0.005159, 0.014596,1,-0.010798, 0.113671,-0.911679,-0.000275,-0.008017, 0.017940,-0.000463,-0.073708,-0.145371,-0.000001, 0.000002, 0.000006,1,0
1777416458492200755,1297651000000,  1297.656, 0.000309,-0.001150,-0.011691, 0.000375, 0.000147, 0.000571,-0.207370,-0.086718, 0.086867,1, 0.018875,-0.000713, 0.035417,1, 0.000365, 0.002468,-0.990847, 0.018874,-0.000712, 0.035423,-0.000541,-0.073704,-0.145653,-0.000001, 0.000002, 0.000006,1,0
1777416458502284256,1297651000000,  1297.656, 0.000309,-0.001150,-0.011691, 0.000375, 0.000147, 0.000571,-0.207370,-0.086718, 0.086867,1, 0.018875,-0.000713, 0.035417,1, 0.000365, 0.002468,-0.990847, 0.018874,-0.000712, 0.035423,-0.000541,-0.073704,-0.145653,-0.000001, 0.000002, 0.000006,1,0
1777416458522027063,1297671000000,  1297.676,-0.000607,-0.000819,-0.008132, 0.000370, 0.000289, 0.000503,-0.304921,-0.615712, 0.378108,1, 0.005578, 0.021866, 0.041276,1,-0.010056,-0.052007,-0.961164, 0.005577, 0.021868, 0.041282,-0.000383,-0.073375,-0.145681,-0.000001, 0.000002, 0.000006,1,0
1777416458541765296,1297691000000,  1297.696, 0.000330, 0.000715,-0.009534, 0.000348, 0.000474, 0.000340, 0.084648, 0.122289,-0.083042,1, 0.041652, 0.017976, 0.034404,1, 0.029659, 0.022509,-1.008196, 0.041651, 0.017977, 0.034410,-0.000705,-0.073383,-0.145796,-0.000001, 0.000002, 0.000006,1,0
1777416458551451972,1297711000000,  1297.716,-0.000177, 0.001635,-0.010577, 0.000449,-0.000346, 0.000443,-0.100317, 0.808839,-0.232336,1, 0.053174,-0.018071, 0.042032,1, 0.010687, 0.091351,-1.023433, 0.053173,-0.018070, 0.042039,-0.000949,-0.073606,-0.145817,-0.000001, 0.000002, 0.000006,1,0
1777416458561551362,1297711000000,  1297.716,-0.000177, 0.001635,-0.010577, 0.000449,-0.000346, 0.000443,-0.100317, 0.808839,-0.232336,1, 0.053174,-0.018071, 0.042032,1, 0.010687, 0.091351,-1.023433, 0.053173,-0.018070, 0.042039,-0.000949,-0.073606,-0.145817,-0.000001, 0.000002, 0.000006,1,0
1777416458571159651,1297731000000,  1297.736, 0.000531, 0.001272,-0.012816, 0.000131,-0.000203, 0.000733, 0.141285, 0.814979,-0.662944,1, 0.042020,-0.011154, 0.064191,1, 0.035228, 0.090890,-1.067354, 0.042019,-0.011152, 0.064197,-0.000975,-0.073257,-0.145572,-0.000001, 0.000002, 0.000006,1,0
1777416458581244485,1297731000000,  1297.736, 0.000531, 0.001272,-0.012816, 0.000131,-0.000203, 0.000733, 0.141285, 0.814979,-0.662944,1, 0.042020,-0.011154, 0.064191,1, 0.035228, 0.090890,-1.067354, 0.042019,-0.011152, 0.064197,-0.000975,-0.073257,-0.145572,-0.000001, 0.000002, 0.000006,1,0
1777416458600977607,1297751000000,  1297.756, 0.000372, 0.000476,-0.011746, 0.000327,-0.000012, 0.001005, 0.046451, 0.494112,-0.339280,1, 0.018042, 0.003972, 0.087590,1, 0.025611, 0.057473,-1.034354, 0.018042, 0.003974, 0.087597,-0.000829,-0.073045,-0.145509,-0.000001, 0.000002, 0.000006,1,0
1777416458610666672,1297771000000,  1297.776, 0.000461, 0.000234,-0.010984, 0.000060, 0.000136, 0.001158, 0.164527, 0.128019,-0.184853,1, 0.020785, 0.008507, 0.107731,1, 0.037762, 0.019759,-1.018607, 0.020784, 0.008509, 0.107738,-0.000842,-0.072315,-0.145696,-0.000001, 0.000002, 0.000006,1,0
1777416458620751413,1297771000000,  1297.776, 0.000461, 0.000234,-0.010984, 0.000060, 0.000136, 0.001158, 0.164527, 0.128019,-0.184853,1, 0.020785, 0.008507, 0.107731,1, 0.037762, 0.019759,-1.018607, 0.020784, 0.008509, 0.107738,-0.000842,-0.072315,-0.145696,-0.000001, 0.000002, 0.000006,1,0
1777416458630402072,1297791000000,  1297.796,-0.000199, 0.000478,-0.011115,-0.000014, 0.000132, 0.001287,-0.090630, 0.357672,-0.260032,1, 0.010318, 0.009062, 0.121104,1, 0.011893, 0.043137,-1.026270, 0.010317, 0.009063, 0.121110,-0.001055,-0.071135,-0.145911,-0.000001, 0.000002, 0.000006,1,0
1777416458640486165,1297791000000,  1297.796,-0.000199, 0.000478,-0.011115,-0.000014, 0.000132, 0.001287,-0.090630, 0.357672,-0.260032,1, 0.010318, 0.009062, 0.121104,1, 0.011893, 0.043137,-1.026270, 0.010317, 0.009063, 0.121110,-0.001055,-0.071135,-0.145911,-0.000001, 0.000002, 0.000006,1,0
1777416458650167638,1297811000000,  1297.816,-0.000053, 0.000285,-0.011049, 0.000082, 0.000046, 0.001231,-0.216347, 0.143171,-0.152579,1, 0.019165, 0.007144, 0.123962,1,-0.000738, 0.021023,-1.015310, 0.019164, 0.007146, 0.123968,-0.001440,-0.070216,-0.145941,-0.000001, 0.000002, 0.000006,1,0
1777416458660252731,1297811000000,  1297.816,-0.000053, 0.000285,-0.011049, 0.000082, 0.000046, 0.001231,-0.216347, 0.143171,-0.152579,1, 0.019165, 0.007144, 0.123962,1,-0.000738, 0.021023,-1.015310, 0.019164, 0.007146, 0.123968,-0.001440,-0.070216,-0.145941,-0.000001, 0.000002, 0.000006,1,0
1777416458679980816,1297831000000,  1297.836,-0.000320, 0.000806,-0.010835, 0.000089,-0.000222, 0.001283,-0.412916, 0.404446, 0.065845,1, 0.014660,-0.008028, 0.125016,1,-0.020712, 0.047345,-0.993038, 0.014659,-0.008026, 0.125022,-0.001783,-0.069245,-0.145697,-0.000001, 0.000002, 0.000006,1,0
1777416458695537160,1297851000000,  1297.856,-0.000314, 0.000281,-0.011832, 0.000028,-0.000054, 0.001258,-0.539636, 0.215680,-0.687200,1, 0.004023,-0.002472, 0.124568,1,-0.033675, 0.027786,-1.069830, 0.004022,-0.002471, 0.124574,-0.001575,-0.068697,-0.145395,-0.000001, 0.000002, 0.000006,1,0
1777416458705231891,1297871000000,  1297.876,-0.000250, 0.000766,-0.012199,-0.000250, 0.000005, 0.001310,-0.639137, 0.435638,-0.628531,1,-0.009770,-0.000187, 0.129158,1,-0.042505, 0.051893,-1.063806,-0.009771,-0.000185, 0.129164,-0.001961,-0.068113,-0.145162,-0.000001, 0.000002, 0.000006,1,0
1777416458715316429,1297871000000,  1297.876,-0.000250, 0.000766,-0.012199,-0.000250, 0.000005, 0.001310,-0.639137, 0.435638,-0.628531,1,-0.009770,-0.000187, 0.129158,1,-0.042505, 0.051893,-1.063806,-0.009771,-0.000185, 0.129164,-0.001961,-0.068113,-0.145162,-0.000001, 0.000002, 0.000006,1,0
1777416458735024793,1297891000000,  1297.891,-0.000329,-0.000555,-0.012204, 0.000058,-0.000167, 0.001292,-0.731498,-0.262399,-0.354581,1,-0.004063,-0.007080, 0.132289,1,-0.051444,-0.018651,-1.035856,-0.004064,-0.007078, 0.132296,-0.002017,-0.067489,-0.145857,-0.000001, 0.000002, 0.000006,1,0
1777416458754426366,1297911000000,  1297.911,-0.000770,-0.000278,-0.010809,-0.000104,-0.000063, 0.001428,-0.653847,-0.378199, 0.474101,1,-0.005240,-0.001396, 0.138091,1,-0.059952,-0.029656,-1.001546,-0.006815,-0.005001, 0.140313,-0.001722,-0.067134,-0.145671,-0.000001, 0.000002, 0.000006,1,0
1777416458764114413,1297931000000,  1297.931,-0.000452,-0.000594,-0.010338, 0.000194,-0.000010, 0.001412,-0.677686,-0.559404,-0.395770,1,-0.018091, 0.004313, 0.139217,1,-0.042230,-0.063312,-1.024369, 0.000091, 0.002302, 0.140700,-0.002543,-0.066177,-0.145990,-0.000001, 0.000002, 0.000006,1,0
1777416458774199247,1297931000000,  1297.931,-0.000452,-0.000594,-0.010338, 0.000194,-0.000010, 0.001412,-0.677686,-0.559404,-0.395770,1,-0.018091, 0.004313, 0.139217,1,-0.042230,-0.063312,-1.024369, 0.000091, 0.002302, 0.140700,-0.002543,-0.066177,-0.145990,-0.000001, 0.000002, 0.000006,1,0
1777416458793938795,1297951000000,  1297.951, 0.000069,-0.000623,-0.013593,-0.000328, 0.000073, 0.001295,-0.936463,-0.180564, 0.944425,1,-0.017939, 0.005598, 0.135135,1,-0.036847,-0.027711,-1.092588,-0.023591, 0.003813, 0.131931,-0.002744,-0.065360,-0.145455,-0.000001, 0.000002, 0.000006,1,0
1777416458803605157,1297971000000,  1297.971,-0.000357,-0.000106,-0.011946,-0.000271, 0.000010, 0.001131,-0.716118,-0.592282, 0.723874,1,-0.027713, 0.009210, 0.128616,1,-0.039173,-0.033522,-1.043585,-0.025943, 0.004693, 0.121643,-0.002530,-0.064536,-0.145558,-0.000001, 0.000002, 0.000006,1,0
1777416458813708583,1297971000000,  1297.971,-0.000357,-0.000106,-0.011946,-0.000271, 0.000010, 0.001131,-0.716118,-0.592282, 0.723874,1,-0.027713, 0.009210, 0.128616,1,-0.039173,-0.033522,-1.043585,-0.025943, 0.004693, 0.121643,-0.002530,-0.064536,-0.145558,-0.000001, 0.000002, 0.000006,1,0
1777416458823315131,1297991000000,  1297.991,-0.000450,-0.000588,-0.011126,-0.000283,-0.000000, 0.001125,-0.684901,-0.443811, 0.613787,1,-0.036471, 0.005582, 0.117709,1,-0.047963,-0.046936,-1.007945,-0.032734, 0.002176, 0.115249,-0.002932,-0.063871,-0.145306,-0.000001, 0.000002, 0.000006,1,0
1777416458833400039,1297991000000,  1297.991,-0.000450,-0.000588,-0.011126,-0.000283,-0.000000, 0.001125,-0.684901,-0.443811, 0.613787,1,-0.036471, 0.005582, 0.117709,1,-0.047963,-0.046936,-1.007945,-0.032734, 0.002176, 0.115249,-0.002932,-0.063871,-0.145306,-0.000001, 0.000002, 0.000006,1,0
1777416458843067568,1298011000000,  1298.011,-0.000319,-0.001031,-0.010729,-0.000262,-0.000006, 0.000943,-0.675408,-0.521671, 0.208922,1,-0.041128,-0.001868, 0.107329,1,-0.040196,-0.068520,-1.023231,-0.037479,-0.003399, 0.100638,-0.003235,-0.063218,-0.145601,-0.000001, 0.000002, 0.000006,1,0
1777416458853160346,1298011000000,  1298.011,-0.000319,-0.001031,-0.010729,-0.000262,-0.000006, 0.000943,-0.675408,-0.521671, 0.208922,1,-0.041128,-0.001868, 0.107329,1,-0.040196,-0.068520,-1.023231,-0.037479,-0.003399, 0.100638,-0.003235,-0.063218,-0.145601,-0.000001, 0.000002, 0.000006,1,0
1777416458872987281,1298031000000,  1298.031,-0.000134,-0.000378,-0.009799,-0.000300, 0.000202, 0.000798,-0.519982,-0.743914,-0.044028,1,-0.033967,-0.010724, 0.093763,1,-0.019240,-0.054899,-1.011774,-0.034094, 0.001917, 0.087346,-0.002848,-0.062510,-0.146111,-0.000001, 0.000002, 0.000006,1,0
1777416458882573737,1298051000000,  1298.051,-0.000306,-0.000612,-0.009202,-0.000322, 0.000018, 0.000617,-0.472232,-0.608420,-0.014688,1,-0.025795, 0.001492, 0.082421,1,-0.028394,-0.054354,-0.963872,-0.029068, 0.001064, 0.072773,-0.002999,-0.061977,-0.146407,-0.000001, 0.000002, 0.000006,1,0
1777416458892659460,1298051000000,  1298.051,-0.000306,-0.000612,-0.009202,-0.000322, 0.000018, 0.000617,-0.472232,-0.608420,-0.014688,1,-0.025795, 0.001492, 0.082421,1,-0.028394,-0.054354,-0.963872,-0.029068, 0.001064, 0.072773,-0.002999,-0.061977,-0.146407,-0.000001, 0.000002, 0.000006,1,0
1777416458902249546,1298061000000,  1298.066,-0.000142,-0.000669,-0.010092,-0.000150, 0.000027, 0.000499,-0.447223,-0.724395, 0.136417,1,-0.022601, 0.001734, 0.062146,1,-0.021835,-0.062066,-0.985737,-0.022602, 0.001736, 0.062153,-0.002990,-0.061955,-0.145945,-0.000001, 0.000002, 0.000006,1,0
1777416458912335269,1298061000000,  1298.066,-0.000142,-0.000669,-0.010092,-0.000150, 0.000027, 0.000499,-0.447223,-0.724395, 0.136417,1,-0.022601, 0.001734, 0.062146,1,-0.021835,-0.062066,-0.985737,-0.022602, 0.001736, 0.062153,-0.002990,-0.061955,-0.145945,-0.000001, 0.000002, 0.000006,1,0
1777416458922015871,1298081000000,  1298.086,-0.000064,-0.000849,-0.008189,-0.000274,-0.000063, 0.000223,-0.377086,-0.832183, 0.587886,1,-0.020368,-0.004935, 0.036788,1,-0.014924,-0.072699,-0.939701,-0.020369,-0.004933, 0.036794,-0.002936,-0.061497,-0.145974,-0.000001, 0.000002, 0.000006,1,0
1777416458932100372,1298081000000,  1298.086,-0.000064,-0.000849,-0.008189,-0.000274,-0.000063, 0.000223,-0.377086,-0.832183, 0.587886,1,-0.020368,-0.004935, 0.036788,1,-0.014924,-0.072699,-0.939701,-0.020369,-0.004933, 0.036794,-0.002936,-0.061497,-0.145974,-0.000001, 0.000002, 0.000006,1,0
1777416458951817772,1298101000000,  1298.106, 0.000186,-0.000754,-0.010581,-0.000038, 0.000112, 0.000004,-0.338089,-0.764356,-0.204316,1,-0.012583, 0.002839, 0.014401,1,-0.010950,-0.065500,-1.020480,-0.012583, 0.002841, 0.014407,-0.003051,-0.061668,-0.145418,-0.000001, 0.000002, 0.000006,1,0
1777416458961506115,1298121000000,  1298.126, 0.000168,-0.000729,-0.010122,-0.000021, 0.000103,-0.000140,-0.104085,-0.943509,-0.104203,1,-0.006735, 0.008685,-0.003863,1, 0.013043,-0.083623,-1.010267,-0.006736, 0.008686,-0.003856,-0.003023,-0.062031,-0.145572,-0.000001, 0.000002, 0.000006,1,0
1777416458971590597,1298121000000,  1298.126, 0.000168,-0.000729,-0.010122,-0.000021, 0.000103,-0.000140,-0.104085,-0.943509,-0.104203,1,-0.006735, 0.008685,-0.003863,1, 0.013043,-0.083623,-1.010267,-0.006736, 0.008686,-0.003856,-0.003023,-0.062031,-0.145572,-0.000001, 0.000002, 0.000006,1,0
1777416458981260755,1298141000000,  1298.146,-0.000038,-0.000568,-0.009782,-0.000169,-0.000096,-0.000338,-0.257350,-0.692750, 0.332778,1,-0.009879,-0.001345,-0.022146,1,-0.002579,-0.057732,-0.965703,-0.009880,-0.001343,-0.022140,-0.002857,-0.062172,-0.146495,-0.000001, 0.000002, 0.000006,1,0
1777416458991344774,1298141000000,  1298.146,-0.000038,-0.000568,-0.009782,-0.000169,-0.000096,-0.000338,-0.257350,-0.692750, 0.332778,1,-0.009879,-0.001345,-0.022146,1,-0.002579,-0.057732,-0.965703,-0.009880,-0.001343,-0.022140,-0.002857,-0.062172,-0.146495,-0.000001, 0.000002, 0.000006,1,0
1777416459011026546,1298161000000,  1298.166,-0.000100,-0.000716,-0.009875,-0.000138,-0.000117,-0.000548,-0.336367,-0.820654, 0.184185,1,-0.009082,-0.002455,-0.042382,1,-0.010643,-0.070525,-0.980852,-0.009083,-0.002454,-0.042376,-0.002414,-0.062179,-0.146738,-0.000001, 0.000002, 0.000006,1,0
1777416459030762979,1298181000000,  1298.186,-0.000041,-0.001181,-0.009945, 0.000076,-0.000026,-0.000722,-0.261089,-1.056942,-0.078806,1,-0.008373,-0.008169,-0.062872,1,-0.003047,-0.094396,-1.007668,-0.008374,-0.008168,-0.062865,-0.002361,-0.062307,-0.146153,-0.000001, 0.000002, 0.000006,1,0
1777416459040449264,1298201000000,  1298.206,-0.000168,-0.000638,-0.009733, 0.000315, 0.000125,-0.000977,-0.354859,-0.813020, 0.159543,1, 0.019098,-0.001144,-0.084221,1,-0.012839,-0.069486,-0.983368, 0.019097,-0.001142,-0.084215,-0.002227,-0.062413,-0.145385,-0.000001, 0.000002, 0.000006,1,0
1777416459050532763,1298201000000,  1298.206,-0.000168,-0.000638,-0.009733, 0.000315, 0.000125,-0.000977,-0.354859,-0.813020, 0.159543,1, 0.019098,-0.001144,-0.084221,1,-0.012839,-0.069486,-0.983368, 0.019097,-0.001142,-0.084215,-0.002227,-0.062413,-0.145385,-0.000001, 0.000002, 0.000006,1,0
1777416459060156624,1298221000000,  1298.226,-0.000736,-0.001402,-0.012673, 0.000388, 0.000468,-0.001009,-0.612223,-1.090532,-1.291900,1, 0.038792, 0.016217,-0.096005,1,-0.039459,-0.098070,-1.131387, 0.038792, 0.016219,-0.095998,-0.002567,-0.062861,-0.145439,-0.000001, 0.000002, 0.000006,1,0
1777416459070259826,1298221000000,  1298.226,-0.000736,-0.001402,-0.012673, 0.000388, 0.000468,-0.001009,-0.612223,-1.090532,-1.291900,1, 0.038792, 0.016217,-0.096005,1,-0.039459,-0.098070,-1.131387, 0.038792, 0.016219,-0.095998,-0.002567,-0.062861,-0.145439,-0.000001, 0.000002, 0.000006,1,0
1777416459089975334,1298241000000,  1298.246,-0.000670, 0.002220,-0.010865,-0.000974, 0.000567,-0.001017,-0.974338, 1.236217,-0.350049,1, 0.002248, 0.019727,-0.104194,1,-0.076927, 0.139303,-1.035356, 0.002247, 0.019728,-0.104187,-0.001593,-0.063387,-0.145876,-0.000001, 0.000002, 0.000006,1,0
1777416459105221126,1298261000000,  1298.261,-0.000441, 0.000437,-0.007820,-0.000405,-0.000183,-0.000567,-0.750160, 0.665429, 0.876125,1,-0.007012, 0.021544,-0.078403,1,-0.053619, 0.081133,-0.910310,-0.007013, 0.021546,-0.078396,-0.001663,-0.064142,-0.146571,-0.000001, 0.000002, 0.000006,1,0
1777416459124844950,1298281000000,  1298.281,-0.000004,-0.000887,-0.013678,-0.000674,-0.000182,-0.000560,-0.431632, 0.100683,-1.320606,1,-0.067315,-0.005468,-0.070178,1,-0.020684, 0.024249,-1.134294,-0.067316,-0.005466,-0.070171,-0.001503,-0.064636,-0.146137,-0.000001, 0.000002, 0.000006,1,0
1777416459134230131,1298301000000,  1298.301,-0.000559, 0.000429,-0.010237,-0.000193, 0.000587,-0.000632,-0.648655,-0.232536, 0.257847,1,-0.049887,-0.007582,-0.066064,1,-0.047182, 0.009248,-1.012579,-0.035217, 0.019899,-0.064707,-0.000700,-0.064768,-0.145614,-0.000001, 0.000002, 0.000006,1,0
1777416459144313612,1298301000000,  1298.301,-0.000559, 0.000429,-0.010237,-0.000193, 0.000587,-0.000632,-0.648655,-0.232536, 0.257847,1,-0.049887,-0.007582,-0.066064,1,-0.047182, 0.009248,-1.012579,-0.035217, 0.019899,-0.064707,-0.000700,-0.064768,-0.145614,-0.000001, 0.000002, 0.000006,1,0
1777416459164045600,1298321000000,  1298.321,-0.000472,-0.001070,-0.008483, 0.000412,-0.000025,-0.000678,-0.468310,-0.240216, 0.076839,1,-0.016375, 0.012496,-0.063487,1,-0.029256,-0.072418,-0.935142, 0.008729, 0.005806,-0.065172,-0.001320,-0.065128,-0.145878,-0.000001, 0.000002, 0.000006,1,0
1777416459183802552,1298341000000,  1298.341,-0.000098, 0.001759,-0.011812, 0.000136, 0.000010,-0.000989,-0.656666,-0.957439, 0.627677,1, 0.039590,-0.004144,-0.080271,1,-0.025576, 0.022414,-1.051399, 0.038200,-0.000614,-0.086509,-0.000803,-0.065536,-0.145780,-0.000001, 0.000002, 0.000006,1,0
1777416459193414339,1298361000000,  1298.361,-0.000558, 0.001177,-0.009299,-0.000526, 0.000290,-0.000407,-0.473532, 0.955679,-0.563655,1, 0.020338, 0.007292,-0.079248,1,-0.037942, 0.113203,-1.002258,-0.008434, 0.020756,-0.061318,-0.000440,-0.066241,-0.146715,-0.000001, 0.000002, 0.000006,1,0
1777416459203499097,1298361000000,  1298.361,-0.000558, 0.001177,-0.009299,-0.000526, 0.000290,-0.000407,-0.473532, 0.955679,-0.563655,1, 0.020338, 0.007292,-0.079248,1,-0.037942, 0.113203,-1.002258,-0.008434, 0.020756,-0.061318,-0.000440,-0.066241,-0.146715,-0.000001, 0.000002, 0.000006,1,0
1777416459213172068,1298381000000,  1298.381,-0.000371,-0.000305,-0.008626,-0.000147, 0.000183,-0.000187,-0.472139, 0.368258,-0.056401,1,-0.016491, 0.028348,-0.039051,1,-0.029275, 0.001495,-0.925118,-0.003104, 0.025395,-0.028154,-0.000849,-0.065813,-0.147185,-0.000001, 0.000002, 0.000006,1,0
1777416459223255659,1298381000000,  1298.381,-0.000371,-0.000305,-0.008626,-0.000147, 0.000183,-0.000187,-0.472139, 0.368258,-0.056401,1,-0.016491, 0.028348,-0.039051,1,-0.029275, 0.001495,-0.925118,-0.003104, 0.025395,-0.028154,-0.000849,-0.065813,-0.147185,-0.000001, 0.000002, 0.000006,1,0
1777416459242990463,1298401000000,  1298.401, 0.000115,-0.000167,-0.008925,-0.000386, 0.000092,-0.000533,-0.586184,-0.447220,-0.039376,1,-0.003552, 0.012630,-0.032178,1,-0.015376,-0.021132,-0.970174,-0.009661, 0.015507,-0.040497,-0.000707,-0.065943,-0.146810,-0.000001, 0.000002, 0.000006,1,0
1777416459252671693,1298421000000,  1298.421,-0.000382, 0.000546,-0.008576, 0.000295, 0.000214,-0.000394,-0.333773,-0.328057,-0.074789,1,-0.001164, 0.024694,-0.042840,1,-0.019221,-0.007439,-0.924339, 0.020872, 0.031906,-0.039055,-0.000330,-0.065718,-0.146090,-0.000001, 0.000002, 0.000006,1,0
1777416459262771358,1298421000000,  1298.421,-0.000382, 0.000546,-0.008576, 0.000295, 0.000214,-0.000394,-0.333773,-0.328057,-0.074789,1,-0.001164, 0.024694,-0.042840,1,-0.019221,-0.007439,-0.924339, 0.020872, 0.031906,-0.039055,-0.000330,-0.065718,-0.146090,-0.000001, 0.000002, 0.000006,1,0
1777416459272424403,1298441000000,  1298.441,-0.000509,-0.000831,-0.007943, 0.000377, 0.000011,-0.000612,-0.359977,-0.533694,-0.388154,1, 0.018531, 0.022170,-0.039970,1,-0.027742,-0.061852,-0.918856, 0.029927, 0.018071,-0.049501,-0.000069,-0.066014,-0.146223,-0.000001, 0.000002, 0.000006,1,0
1777416459282507902,1298441000000,  1298.441,-0.000509,-0.000831,-0.007943, 0.000377, 0.000011,-0.000612,-0.359977,-0.533694,-0.388154,1, 0.018531, 0.022170,-0.039970,1,-0.027742,-0.061852,-0.918856, 0.029927, 0.018071,-0.049501,-0.000069,-0.066014,-0.146223,-0.000001, 0.000002, 0.000006,1,0
1777416459292122652,1298451000000,  1298.456,-0.000071, 0.000282,-0.011132,-0.000040,-0.000134,-0.000792,-0.410753,-0.310797,-0.053676,1, 0.019956, 0.006267,-0.062758,1,-0.017126,-0.015788,-1.005040, 0.019955, 0.006269,-0.062752,-0.000411,-0.066131,-0.146151,-0.000001, 0.000002, 0.000006,1,0
1777416459302206206,1298451000000,  1298.456,-0.000071, 0.000282,-0.011132,-0.000040,-0.000134,-0.000792,-0.410753,-0.310797,-0.053676,1, 0.019956, 0.006267,-0.062758,1,-0.017126,-0.015788,-1.005040, 0.019955, 0.006269,-0.062752,-0.000411,-0.066131,-0.146151,-0.000001, 0.000002, 0.000006,1,0
1777416459322002749,1298471000000,  1298.476, 0.000065, 0.000023,-0.012200,-0.000318,-0.000052,-0.000689,-0.282691,-0.029416,-0.904389,1,-0.010215,-0.002194,-0.065539,1,-0.004479, 0.012448,-1.091806,-0.010216,-0.002193,-0.065533,-0.000070,-0.066352,-0.146317,-0.000001, 0.000002, 0.000006,1,0
1777416459341693943,1298491000000,  1298.496, 0.000375,-0.000466,-0.014611, 0.000378, 0.000117,-0.000700,-0.300708,-0.889237,-1.002192,1, 0.022793, 0.013896,-0.060300,1,-0.006197,-0.075610,-1.101782, 0.022792, 0.013898,-0.060293, 0.000331,-0.067041,-0.146910,-0.000001, 0.000002, 0.000006,1,0
1777416459351380728,1298511000000,  1298.516, 0.000529,-0.000315,-0.017893,-0.000084,-0.000003,-0.001015,-0.276119,-0.257354,-2.266601,1, 0.010818, 0.000296,-0.084574,1,-0.003580,-0.011377,-1.230716, 0.010817, 0.000297,-0.084567,-0.000003,-0.067657,-0.147347,-0.000001, 0.000002, 0.000006,1,0
1777416459361464153,1298511000000,  1298.516, 0.000529,-0.000315,-0.017893,-0.000084,-0.000003,-0.001015,-0.276119,-0.257354,-2.266601,1, 0.010818, 0.000296,-0.084574,1,-0.003580,-0.011377,-1.230716, 0.010817, 0.000297,-0.084567,-0.000003,-0.067657,-0.147347,-0.000001, 0.000002, 0.000006,1,0
1777416459371076848,1298531000000,  1298.536, 0.001057,-0.000163,-0.018112,-0.000038,-0.000095,-0.000828,-0.353549, 0.292827,-1.248522,1, 0.010029, 0.007444,-0.082538,1,-0.011330, 0.044415,-1.126902, 0.010028, 0.007445,-0.082532, 0.000517,-0.067946,-0.147265,-0.000001, 0.000002, 0.000006,1,0
1777416459381179087,1298531000000,  1298.536, 0.001057,-0.000163,-0.018112,-0.000038,-0.000095,-0.000828,-0.353549, 0.292827,-1.248522,1, 0.010029, 0.007444,-0.082538,1,-0.011330, 0.044415,-1.126902, 0.010028, 0.007445,-0.082532, 0.000517,-0.067946,-0.147265,-0.000001, 0.000002, 0.000006,1,0
1777416459400865984,1298551000000,  1298.556,-0.000043, 0.000275,-0.013705, 0.000504,-0.000266,-0.000929,-0.426672,-0.088686,-0.492978,1, 0.009003,-0.008867,-0.091687,1,-0.018670, 0.005013,-1.049862, 0.009003,-0.008865,-0.091681, 0.000650,-0.068086,-0.146891,-0.000001, 0.000002, 0.000006,1,0
1777416459410565454,1298571000000,  1298.576,-0.000117,-0.000931,-0.014350, 0.001000,-0.000046,-0.000729,-0.373582,-0.478571,-1.020475,1, 0.045576, 0.006614,-0.080732,1,-0.013157,-0.035329,-1.103657, 0.045576, 0.006616,-0.080725, 0.000569,-0.068532,-0.146332,-0.000001, 0.000002, 0.000006,1,0
1777416459420650379,1298571000000,  1298.576,-0.000117,-0.000931,-0.014350, 0.001000,-0.000046,-0.000729,-0.373582,-0.478571,-1.020475,1, 0.045576, 0.006614,-0.080732,1,-0.013157,-0.035329,-1.103657, 0.045576, 0.006616,-0.080725, 0.000569,-0.068532,-0.146332,-0.000001, 0.000002, 0.000006,1,0
1777416459430321905,1298591000000,  1298.596, 0.000096, 0.001738,-0.015129, 0.000010,-0.000242,-0.001193,-0.342550, 0.543759,-0.972563,1, 0.066861, 0.001134,-0.098711,1,-0.009908, 0.068385,-1.098777, 0.066860, 0.001136,-0.098704, 0.000884,-0.068805,-0.146003,-0.000001, 0.000002, 0.000006,1,0
1777416459440406219,1298591000000,  1298.596, 0.000096, 0.001738,-0.015129, 0.000010,-0.000242,-0.001193,-0.342550, 0.543759,-0.972563,1, 0.066861, 0.001134,-0.098711,1,-0.009908, 0.068385,-1.098777, 0.066860, 0.001136,-0.098704, 0.000884,-0.068805,-0.146003,-0.000001, 0.000002, 0.000006,1,0
1777416459450073468,1298611000000,  1298.616, 0.000669,-0.000628,-0.015483, 0.000210, 0.000045,-0.000338,-0.111456, 0.885093,-1.458764,1, 0.021391, 0.011030,-0.072614,1, 0.013910, 0.102627,-1.148356, 0.021390, 0.011031,-0.072607, 0.001090,-0.069420,-0.146282,-0.000001, 0.000002, 0.000006,1,0
1777416459460158689,1298611000000,  1298.616, 0.000669,-0.000628,-0.015483, 0.000210, 0.000045,-0.000338,-0.111456, 0.885093,-1.458764,1, 0.021391, 0.011030,-0.072614,1, 0.013910, 0.102627,-1.148356, 0.021390, 0.011031,-0.072607, 0.001090,-0.069420,-0.146282,-0.000001, 0.000002, 0.000006,1,0
1777416459475705863,1298631000000,  1298.636, 0.000019, 0.001380,-0.013851, 0.000222, 0.000032,-0.000750,-0.288065, 0.449428,-0.932942,1, 0.027522, 0.013555,-0.067255,1,-0.003825, 0.057881,-1.094734, 0.027521, 0.013556,-0.067249, 0.001476,-0.069850,-0.147420,-0.000001, 0.000002, 0.000006,1,0
1777416459485388000,1298651000000,  1298.656,-0.000214,-0.000113,-0.009335, 0.000318,-0.000140,-0.000641,-0.418828, 0.016331, 0.584026,1, 0.033466, 0.001685,-0.060261,1,-0.017044, 0.013142,-0.940050, 0.033465, 0.001687,-0.060255, 0.001715,-0.070234,-0.147435,-0.000001, 0.000002, 0.000006,1,0
1777416459495472407,1298651000000,  1298.656,-0.000214,-0.000113,-0.009335, 0.000318,-0.000140,-0.000641,-0.418828, 0.016331, 0.584026,1, 0.033466, 0.001685,-0.060261,1,-0.017044, 0.013142,-0.940050, 0.033465, 0.001687,-0.060255, 0.001715,-0.070234,-0.147435,-0.000001, 0.000002, 0.000006,1,0
1777416459505090934,1298671000000,  1298.671,-0.000087, 0.001669,-0.010479, 0.000205,-0.000082,-0.000423,-0.382837, 1.131231, 0.218081,1, 0.013741,-0.006397,-0.055968,1,-0.014174, 0.125992,-0.977396, 0.013740,-0.006395,-0.055962, 0.001575,-0.070715,-0.146829,-0.000001, 0.000002, 0.000006,1,0
1777416459515175229,1298671000000,  1298.671,-0.000087, 0.001669,-0.010479, 0.000205,-0.000082,-0.000423,-0.382837, 1.131231, 0.218081,1, 0.013741,-0.006397,-0.055968,1,-0.014174, 0.125992,-0.977396, 0.013740,-0.006395,-0.055962, 0.001575,-0.070715,-0.146829,-0.000001, 0.000002, 0.000006,1,0
1777416459534895404,1298691000000,  1298.691,-0.000197,-0.000398,-0.005988, 0.000772, 0.000367, 0.000208,-0.218014, 0.600861, 1.107191,1, 0.006412, 0.022595,-0.015038,1, 0.002586, 0.071409,-0.886738, 0.006411, 0.022597,-0.015032, 0.002153,-0.070857,-0.146484,-0.000001, 0.000002, 0.000006,1,0
1777416459544280751,1298711000000,  1298.711,-0.000212,-0.000590,-0.006450, 0.000259,-0.000401,-0.000319,-0.452245,-0.060443,-0.843971,1, 0.019635, 0.017143,-0.007000,1,-0.027675, 0.002143,-0.865510, 0.029017,-0.009174,-0.020286, 0.001835,-0.070786,-0.146737,-0.000001, 0.000002, 0.000006,1,0
1777416459554364584,1298711000000,  1298.711,-0.000212,-0.000590,-0.006450, 0.000259,-0.000401,-0.000319,-0.452245,-0.060443,-0.843971,1, 0.019635, 0.017143,-0.007000,1,-0.027675, 0.002143,-0.865510, 0.029017,-0.009174,-0.020286, 0.001835,-0.070786,-0.146737,-0.000001, 0.000002, 0.000006,1,0
1777416459574035796,1298731000000,  1298.731, 0.000055, 0.002162,-0.008114,-0.000173,-0.000035,-0.000049,-0.329508, 0.331328,-0.706636,1, 0.021538,-0.010087,-0.025127,1,-0.002876, 0.133374,-0.955537, 0.005152,-0.003873,-0.015828, 0.001725,-0.070806,-0.147432,-0.000001, 0.000002, 0.000006,1,0
1777416459593834080,1298751000000,  1298.751, 0.000078,-0.001375,-0.007935,-0.000054, 0.000349, 0.000240,-0.208461, 0.902814,-0.572633,1,-0.027371, 0.004907, 0.004355,1, 0.011814,-0.010414,-0.928046,-0.025691, 0.015078, 0.011193, 0.001840,-0.070776,-0.147212,-0.000001, 0.000002, 0.000006,1,0
1777416459603467459,1298771000000,  1298.771, 0.000016,-0.001218,-0.009859, 0.000048,-0.000144, 0.000076,-0.286933,-0.402048,-0.498756,1,-0.018278, 0.012723, 0.016378,1,-0.006630,-0.068403,-0.997678,-0.006387,-0.004881, 0.012066, 0.001730,-0.070454,-0.147032,-0.000001, 0.000002, 0.000006,1,0
1777416459613552791,1298771000000,  1298.771, 0.000016,-0.001218,-0.009859, 0.000048,-0.000144, 0.000076,-0.286933,-0.402048,-0.498756,1,-0.018278, 0.012723, 0.016378,1,-0.006630,-0.068403,-0.997678,-0.006387,-0.004881, 0.012066, 0.001730,-0.070454,-0.147032,-0.000001, 0.000002, 0.000006,1,0
1777416459623222429,1298791000000,  1298.791, 0.001440,-0.000471,-0.018377,-0.000423,-0.000443, 0.000153,-0.134271, 0.148285, 1.460377,1,-0.033852,-0.011519, 0.004462,1, 0.074703,-0.009345,-1.321689,-0.043805,-0.035566, 0.008489, 0.001722,-0.069981,-0.146830,-0.000001, 0.000002, 0.000006,1,0
1777416459633307038,1298791000000,  1298.791, 0.001440,-0.000471,-0.018377,-0.000423,-0.000443, 0.000153,-0.134271, 0.148285, 1.460377,1,-0.033852,-0.011519, 0.004462,1, 0.074703,-0.009345,-1.321689,-0.043805,-0.035566, 0.008489, 0.001722,-0.069981,-0.146830,-0.000001, 0.000002, 0.000006,1,0
1777416459653046453,1298811000000,  1298.811, 0.000636,-0.000495,-0.016049,-0.000349, 0.000634, 0.000371,-0.143415,-0.118506, 1.787839,1,-0.010444,-0.027821, 0.023783,1, 0.045542,-0.049852,-1.206984,-0.011703, 0.006904, 0.031841, 0.001711,-0.070278,-0.146832,-0.000001, 0.000002, 0.000006,1,0
1777416459672788071,1298831000000,  1298.831, 0.000513, 0.000364,-0.013308,-0.000401,-0.000039, 0.000148, 0.057202,-0.444535, 1.297364,1,-0.014745,-0.002315, 0.027554,1, 0.044071, 0.005363,-1.085579,-0.024650,-0.008602, 0.020844, 0.001523,-0.070104,-0.147246,-0.000001, 0.000002, 0.000006,1,0
1777416459682413080,1298851000000,  1298.851, 0.000956, 0.002246,-0.014220, 0.000434,-0.000407,-0.000031,-0.010624,-0.930694, 1.208979,1,-0.031937,-0.000770, 0.022905,1, 0.050797, 0.063467,-1.066235, 0.009630,-0.022555, 0.012321, 0.002289,-0.070286,-0.148108,-0.000001, 0.000002, 0.000006,1,0
1777416459692497875,1298851000000,  1298.851, 0.000956, 0.002246,-0.014220, 0.000434,-0.000407,-0.000031,-0.010624,-0.930694, 1.208979,1,-0.031937,-0.000770, 0.022905,1, 0.050797, 0.063467,-1.066235, 0.009630,-0.022555, 0.012321, 0.002289,-0.070286,-0.148108,-0.000001, 0.000002, 0.000006,1,0
1777416459702171291,1298861000000,  1298.866, 0.000084,-0.000397,-0.008068,-0.000515, 0.000933, 0.000468, 0.147326,-0.123872,-0.142202,1,-0.016763, 0.034310, 0.028674,1, 0.039972,-0.000769,-1.014119,-0.016764, 0.034312, 0.028681, 0.002240,-0.070262,-0.148493,-0.000001, 0.000002, 0.000008,1,0
1777416459712256215,1298861000000,  1298.866, 0.000084,-0.000397,-0.008068,-0.000515, 0.000933, 0.000468, 0.147326,-0.123872,-0.142202,1,-0.016763, 0.034310, 0.028674,1, 0.039972,-0.000769,-1.014119,-0.016764, 0.034312, 0.028681, 0.002240,-0.070262,-0.148493,-0.000001, 0.000002, 0.000008,1,0
1777416459732052370,1298881000000,  1298.886,-0.000347, 0.001225,-0.009383,-0.001057, 0.000242, 0.000621, 0.065025, 1.170239, 0.105104,1,-0.019214, 0.012526, 0.045858,1, 0.031523, 0.131930,-0.988893,-0.019215, 0.012528, 0.045865, 0.002541,-0.069929,-0.148789,-0.000001, 0.000002, 0.000008,1,0
1777416459751730656,1298901000000,  1298.906,-0.000055,-0.000704,-0.011596,-0.000190,-0.000073, 0.000624,-0.268477,-0.079702, 0.066790,1,-0.001570, 0.002134, 0.059161,1,-0.002439, 0.005042,-0.992791,-0.001571, 0.002136, 0.059169, 0.002184,-0.069527,-0.147989,-0.000001, 0.000002, 0.000008,1,0
1777416459761431645,1298921000000,  1298.926, 0.000118,-0.000552,-0.011877, 0.000008,-0.000386, 0.000212,-0.112802,-1.353717,-0.741485,1,-0.014283,-0.010626, 0.038204,1, 0.013332,-0.124939,-1.075216,-0.014284,-0.010624, 0.038212, 0.001334,-0.068708,-0.148347,-0.000001, 0.000002, 0.000008,1,0
1777416459771516440,1298921000000,  1298.926, 0.000118,-0.000552,-0.011877, 0.000008,-0.000386, 0.000212,-0.112802,-1.353717,-0.741485,1,-0.014283,-0.010626, 0.038204,1, 0.013332,-0.124939,-1.075216,-0.014284,-0.010624, 0.038212, 0.001334,-0.068708,-0.148347,-0.000001, 0.000002, 0.000008,1,0
1777416459781125745,1298941000000,  1298.946, 0.000197, 0.001167,-0.013631, 0.000236, 0.000498, 0.000563,-0.502149, 0.112511,-1.244956,1, 0.033559, 0.011813, 0.049736,1,-0.026436, 0.024729,-1.126555, 0.033558, 0.011815, 0.049744, 0.000955,-0.068557,-0.148136,-0.000001, 0.000002, 0.000008,1,0
1777416459791210559,1298941000000,  1298.946, 0.000197, 0.001167,-0.013631, 0.000236, 0.000498, 0.000563,-0.502149, 0.112511,-1.244956,1, 0.033559, 0.011813, 0.049736,1,-0.026436, 0.024729,-1.126555, 0.033558, 0.011815, 0.049744, 0.000955,-0.068557,-0.148136,-0.000001, 0.000002, 0.000008,1,0
1777416459810947751,1298961000000,  1298.966,-0.000912,-0.000099,-0.009593,-0.000166, 0.000411, 0.000553,-0.678017,-0.895080, 0.154044,1, 0.002272, 0.031436, 0.055927,1,-0.044190,-0.077725,-0.983889, 0.002272, 0.031438, 0.055935, 0.001377,-0.068492,-0.149041,-0.000001, 0.000002, 0.000008,1,0
1777416459820610704,1298981000000,  1298.986,-0.000335,-0.000497,-0.014027,-0.001425,-0.000079,-0.000015,-0.519933,-0.302824,-1.545672,1,-0.021157,-0.015053, 0.023985,1,-0.028043,-0.016715,-1.157202,-0.021158,-0.015051, 0.023993, 0.001866,-0.068359,-0.148346,-0.000001, 0.000002, 0.000008,1,0
1777416459830694166,1298981000000,  1298.986,-0.000335,-0.000497,-0.014027,-0.001425,-0.000079,-0.000015,-0.519933,-0.302824,-1.545672,1,-0.021157,-0.015053, 0.023985,1,-0.028043,-0.016715,-1.157202,-0.021158,-0.015051, 0.023993, 0.001866,-0.068359,-0.148346,-0.000001, 0.000002, 0.000008,1,0
1777416459840373877,1299001000000,  1299.006, 0.000350,-0.000359,-0.014548,-0.000116, 0.000173, 0.000373,-0.343574, 0.063643,-1.082927,1, 0.000803, 0.009648, 0.026391,1,-0.010170, 0.020898,-1.110014, 0.000802, 0.009650, 0.026398, 0.001324,-0.067888,-0.148097,-0.000001, 0.000002, 0.000008,1,0
1777416459850468209,1299001000000,  1299.006, 0.000350,-0.000359,-0.014548,-0.000116, 0.000173, 0.000373,-0.343574, 0.063643,-1.082927,1, 0.000803, 0.009648, 0.026391,1,-0.010170, 0.020898,-1.110014, 0.000802, 0.009650, 0.026398, 0.001324,-0.067888,-0.148097,-0.000001, 0.000002, 0.000008,1,0
1777416459860111496,1299021000000,  1299.026, 0.000191,-0.000559,-0.013781, 0.000028,-0.000361, 0.000292,-0.141773,-0.552701,-0.779943,1, 0.014931,-0.012318, 0.026926,1, 0.010440,-0.041762,-1.079115, 0.014930,-0.012316, 0.026934, 0.000954,-0.067676,-0.148529,-0.000001, 0.000002, 0.000008,1,0
1777416459870198791,1299021000000,  1299.026, 0.000191,-0.000559,-0.013781, 0.000028,-0.000361, 0.000292,-0.141773,-0.552701,-0.779943,1, 0.014931,-0.012318, 0.026926,1, 0.010440,-0.041762,-1.079115, 0.014930,-0.012316, 0.026934, 0.000954,-0.067676,-0.148529,-0.000001, 0.000002, 0.000008,1,0
1777416459889893577,1299041000000,  1299.046,-0.001535,-0.000089,-0.009526, 0.000736,-0.001026, 0.000082,-0.659942,-0.760298, 0.755044,1, 0.029072,-0.028879, 0.013846,1,-0.042472,-0.063060,-0.922594, 0.029071,-0.028877, 0.013853, 0.001578,-0.067881,-0.148106,-0.000001, 0.000002, 0.000008,1,0
1777416459905515990,1299061000000,  1299.066,-0.000741,-0.000387,-0.008867, 0.000549,-0.000238, 0.000164,-0.701039,-0.673989, 0.491028,1, 0.031718,-0.006320, 0.012768,1,-0.046980,-0.054477,-0.949527, 0.031717,-0.006317, 0.012776, 0.001453,-0.068138,-0.148524,-0.000001, 0.000002, 0.000009,1,0
1777416459915147147,1299081000000,  1299.081,-0.000566,-0.000237,-0.009353,-0.000024,-0.000115,-0.000171,-0.644133,-0.275313,-0.108158,1, 0.019986,-0.013259,-0.002976,1,-0.041501,-0.014003,-1.010638, 0.019985,-0.013257,-0.002968, 0.001431,-0.067959,-0.148907,-0.000001, 0.000002, 0.000009,1,0
1777416459925229812,1299081000000,  1299.081,-0.000566,-0.000237,-0.009353,-0.000024,-0.000115,-0.000171,-0.644133,-0.275313,-0.108158,1, 0.019986,-0.013259,-0.002976,1,-0.041501,-0.014003,-1.010638, 0.019985,-0.013257,-0.002968, 0.001431,-0.067959,-0.148907,-0.000001, 0.000002, 0.000009,1,0
1777416459944949153,1299101000000,  1299.101,-0.001227,-0.000534,-0.007932, 0.000638,-0.000512,-0.000224,-0.787531,-1.027712, 0.515619,1,-0.002333,-0.030683,-0.016595,1,-0.056418,-0.091013,-0.947041,-0.002334,-0.030681,-0.016586, 0.001726,-0.067897,-0.148478,-0.000001, 0.000002, 0.000009,1,0
1777416459954331723,1299121000000,  1299.121,-0.000408,-0.000129,-0.009111, 0.000238,-0.000183, 0.000284,-0.685455, 0.675957,-0.353786,1,-0.000102, 0.016821,-0.013011,1,-0.048409, 0.024847,-0.943395, 0.018243, 0.000228, 0.007437, 0.002233,-0.067856,-0.148260,-0.000001, 0.000002, 0.000009,1,0
1777416459964417685,1299121000000,  1299.121,-0.000408,-0.000129,-0.009111, 0.000238,-0.000183, 0.000284,-0.685455, 0.675957,-0.353786,1,-0.000102, 0.016821,-0.013011,1,-0.048409, 0.024847,-0.943395, 0.018243, 0.000228, 0.007437, 0.002233,-0.067856,-0.148260,-0.000001, 0.000002, 0.000009,1,0
1777416459974026120,1299141000000,  1299.141,-0.000386,-0.000138,-0.009264, 0.000244, 0.000219,-0.000231,-1.069607,-0.606668,-0.226955,1, 0.012511, 0.007721, 0.002710,1,-0.076112,-0.008335,-0.939841, 0.022397, 0.014886,-0.008935, 0.002172,-0.067646,-0.147963,-0.000001, 0.000002, 0.000009,1,0
1777416459984110860,1299141000000,  1299.141,-0.000386,-0.000138,-0.009264, 0.000244, 0.000219,-0.000231,-1.069607,-0.606668,-0.226955,1, 0.012511, 0.007721, 0.002710,1,-0.076112,-0.008335,-0.939841, 0.022397, 0.014886,-0.008935, 0.002172,-0.067646,-0.147963,-0.000001, 0.000002, 0.000009,1,0
1777416460003826182,1299161000000,  1299.161,-0.000467, 0.001182,-0.009791, 0.000749,-0.000456,-0.000330,-0.768664,-0.500414, 0.612579,1, 0.029934, 0.019869,-0.019123,1,-0.053594, 0.031446,-0.919190, 0.063719,-0.003584,-0.024397, 0.002194,-0.067978,-0.148553,-0.000001, 0.000002, 0.000009,1,0
1777416460013514818,1299181000000,  1299.181, 0.000554, 0.001566,-0.012437, 0.000659,-0.000419,-0.000599,-0.978252,-0.528467,-0.313227,1, 0.048535, 0.003337,-0.031567,1,-0.015591, 0.072341,-1.069717, 0.075390,-0.017992,-0.044628, 0.001881,-0.067757,-0.147613,-0.000001, 0.000002, 0.000009,1,0
1777416460023599778,1299181000000,  1299.181, 0.000554, 0.001566,-0.012437, 0.000659,-0.000419,-0.000599,-0.978252,-0.528467,-0.313227,1, 0.048535, 0.003337,-0.031567,1,-0.015591, 0.072341,-1.069717, 0.075390,-0.017992,-0.044628, 0.001881,-0.067757,-0.147613,-0.000001, 0.000002, 0.000009,1,0
1777416460033279302,1299201000000,  1299.201, 0.000431, 0.000075,-0.013638,-0.000005,-0.000715, 0.000002,-0.808354, 0.512072, 0.759293,1, 0.040228, 0.041234,-0.021908,1,-0.024482, 0.048520,-1.029289, 0.037440,-0.011054,-0.010862, 0.002466,-0.068063,-0.148079,-0.000001, 0.000002, 0.000009,1,0
1777416460043384095,1299201000000,  1299.201, 0.000431, 0.000075,-0.013638,-0.000005,-0.000715, 0.000002,-0.808354, 0.512072, 0.759293,1, 0.040228, 0.041234,-0.021908,1,-0.024482, 0.048520,-1.029289, 0.037440,-0.011054,-0.010862, 0.002466,-0.068063,-0.148079,-0.000001, 0.000002, 0.000009,1,0
1777416460053036305,1299221000000,  1299.221,-0.000800, 0.000734,-0.008180, 0.000842,-0.000297, 0.000172,-0.514056, 0.028084,-0.222983,1,-0.035527, 0.009782,-0.019909,1,-0.058503, 0.029222,-0.854628, 0.017193,-0.007014,-0.002583, 0.002387,-0.068215,-0.148250,-0.000001, 0.000002, 0.000009,1,0
1777416460063121117,1299221000000,  1299.221,-0.000800, 0.000734,-0.008180, 0.000842,-0.000297, 0.000172,-0.514056, 0.028084,-0.222983,1,-0.035527, 0.009782,-0.019909,1,-0.058503, 0.029222,-0.854628, 0.017193,-0.007014,-0.002583, 0.002387,-0.068215,-0.148250,-0.000001, 0.000002, 0.000009,1,0
1777416460082772919,1299241000000,  1299.241,-0.000678, 0.000211,-0.007427, 0.000305,-0.000296, 0.000197,-0.494748,-0.010608,-0.786058,1,-0.012493, 0.018073, 0.006286,1,-0.047379, 0.003559,-0.890500, 0.012530, 0.004938, 0.013467, 0.002581,-0.068020,-0.149159,-0.000001, 0.000002, 0.000009,1,0
1777416460092476443,1299261000000,  1299.261,-0.000815, 0.000327,-0.002861,-0.000704, 0.000139, 0.000215,-0.362355,-0.168810,-1.643217,1,-0.000681,-0.006424, 0.013227,1,-0.042494,-0.001594,-0.790076,-0.041016, 0.005160, 0.017877, 0.002823,-0.068063,-0.149227,-0.000001, 0.000002, 0.000009,1,0
1777416460102560051,1299261000000,  1299.261,-0.000815, 0.000327,-0.002861,-0.000704, 0.000139, 0.000215,-0.362355,-0.168810,-1.643217,1,-0.000681,-0.006424, 0.013227,1,-0.042494,-0.001594,-0.790076,-0.041016, 0.005160, 0.017877, 0.002823,-0.068063,-0.149227,-0.000001, 0.000002, 0.000009,1,0
1777416460121833990,1299271000000,  1299.276, 0.000221, 0.002385,-0.017096,-0.000053,-0.000349, 0.000217,-0.451730, 0.793896,-1.750650,1,-0.019065,-0.023557, 0.021779,1,-0.021920, 0.094202,-1.178137,-0.019066,-0.023555, 0.021789, 0.002287,-0.067980,-0.149097,-0.000001, 0.000003, 0.000010,1,0
1777416460131535774,1299291000000,  1299.296, 0.000112,-0.000755,-0.016402,-0.000198,-0.000484, 0.000147,-0.516140, 0.003899,-1.743204,1,-0.031864,-0.025521, 0.023086,1,-0.028452, 0.013870,-1.177374,-0.031865,-0.025519, 0.023095, 0.002383,-0.067971,-0.148583,-0.000001, 0.000003, 0.000010,1,0
1777416460141619530,1299291000000,  1299.296, 0.000112,-0.000755,-0.016402,-0.000198,-0.000484, 0.000147,-0.516140, 0.003899,-1.743204,1,-0.031864,-0.025521, 0.023086,1,-0.028452, 0.013870,-1.177374,-0.031865,-0.025519, 0.023095, 0.002383,-0.067971,-0.148583,-0.000001, 0.000003, 0.000010,1,0
1777416460151232037,1299311000000,  1299.316, 0.000047, 0.000511,-0.014318, 0.000171, 0.000200, 0.000375,-0.607509, 0.296956,-0.905912,1, 0.001163, 0.014573, 0.034650,1,-0.037648, 0.043818,-1.091990, 0.001162, 0.014575, 0.034660, 0.002147,-0.067316,-0.148900,-0.000001, 0.000003, 0.000010,1,0
1777416460161315553,1299311000000,  1299.316, 0.000047, 0.000511,-0.014318, 0.000171, 0.000200, 0.000375,-0.607509, 0.296956,-0.905912,1, 0.001163, 0.014573, 0.034650,1,-0.037648, 0.043818,-1.091990, 0.001162, 0.014575, 0.034660, 0.002147,-0.067316,-0.148900,-0.000001, 0.000003, 0.000010,1,0
1777416460171048983,1299331000000,  1299.336,-0.000807,-0.000442,-0.009681,-0.000096, 0.000112, 0.000563,-0.768553, 0.148690, 0.375262,1,-0.017428, 0.015067, 0.044265,1,-0.053873, 0.028836,-0.961340,-0.017429, 0.015070, 0.044275, 0.002627,-0.067202,-0.149357,-0.000001, 0.000003, 0.000010,1,0
1777416460181132647,1299331000000,  1299.336,-0.000807,-0.000442,-0.009681,-0.000096, 0.000112, 0.000563,-0.768553, 0.148690, 0.375262,1,-0.017428, 0.015067, 0.044265,1,-0.053873, 0.028836,-0.961340,-0.017429, 0.015070, 0.044275, 0.002627,-0.067202,-0.149357,-0.000001, 0.000003, 0.000010,1,0
1777416460200801300,1299351000000,  1299.356,-0.000207,-0.000562,-0.009702, 0.000027, 0.000098, 0.000587,-0.649718,-0.342902, 0.183302,1,-0.016455, 0.015519, 0.053062,1,-0.041552,-0.021210,-0.980909,-0.016456, 0.015521, 0.053072, 0.003151,-0.066935,-0.149717,-0.000001, 0.000003, 0.000010,1,0
1777416460210476584,1299371000000,  1299.376, 0.000076, 0.001022,-0.010257,-0.000223, 0.000022, 0.000522,-0.238719,-0.042049,-0.379019,1,-0.005237, 0.016092, 0.057806,1, 0.000588, 0.009707,-1.038240,-0.005238, 0.016095, 0.057816, 0.002996,-0.066440,-0.149604,-0.000001, 0.000003, 0.000010,1,0
1777416460220559544,1299371000000,  1299.376, 0.000076, 0.001022,-0.010257,-0.000223, 0.000022, 0.000522,-0.238719,-0.042049,-0.379019,1,-0.005237, 0.016092, 0.057806,1, 0.000588, 0.009707,-1.038240,-0.005238, 0.016095, 0.057816, 0.002996,-0.066440,-0.149604,-0.000001, 0.000003, 0.000010,1,0
1777416460230243865,1299391000000,  1299.396, 0.000115,-0.000205,-0.011257,-0.000102, 0.000344, 0.000657,-0.528725,-0.023779,-0.442529,1, 0.008750, 0.019425, 0.068576,1,-0.028634, 0.011874,-1.044703, 0.008749, 0.019427, 0.068586, 0.003158,-0.065813,-0.148932,-0.000001, 0.000003, 0.000010,1,0
1777416460240328269,1299391000000,  1299.396, 0.000115,-0.000205,-0.011257,-0.000102, 0.000344, 0.000657,-0.528725,-0.023779,-0.442529,1, 0.008750, 0.019425, 0.068576,1,-0.028634, 0.011874,-1.044703, 0.008749, 0.019427, 0.068586, 0.003158,-0.065813,-0.148932,-0.000001, 0.000003, 0.000010,1,0
1777416460250059922,1299411000000,  1299.416, 0.000405,-0.000112,-0.014515,-0.000399,-0.000291, 0.000455,-0.429307, 0.068508,-0.747888,1,-0.013151, 0.003425, 0.054092,1,-0.018203, 0.021546,-1.075830,-0.013152, 0.003427, 0.054102, 0.002797,-0.065636,-0.149216,-0.000001, 0.000003, 0.000010,1,0
1777416460260144215,1299411000000,  1299.416, 0.000405,-0.000112,-0.014515,-0.000399,-0.000291, 0.000455,-0.429307, 0.068508,-0.747888,1,-0.013151, 0.003425, 0.054092,1,-0.018203, 0.021546,-1.075830,-0.013152, 0.003427, 0.054102, 0.002797,-0.065636,-0.149216,-0.000001, 0.000003, 0.000010,1,0
1777416460275607851,1299431000000,  1299.436, 0.000201, 0.000170,-0.013163,-0.000255, 0.000372, 0.000578,-0.375358, 0.352287,-0.821857,1,-0.048766, 0.016544, 0.050966,1,-0.012394, 0.050702,-1.083362,-0.048768, 0.016547, 0.050976, 0.002500,-0.065104,-0.149640,-0.000001, 0.000003, 0.000010,1,0
1777416460285255376,1299451000000,  1299.456, 0.000884,-0.000567,-0.015054,-0.000408,-0.000348, 0.000480,-0.189466, 0.056989,-1.091944,1,-0.056644,-0.006778, 0.055849,1, 0.007115, 0.021038,-1.110882,-0.056646,-0.006776, 0.055858, 0.002617,-0.065113,-0.150199,-0.000001, 0.000003, 0.000010,1,0
1777416460295340058,1299451000000,  1299.456, 0.000884,-0.000567,-0.015054,-0.000408,-0.000348, 0.000480,-0.189466, 0.056989,-1.091944,1,-0.056644,-0.006778, 0.055849,1, 0.007115, 0.021038,-1.110882,-0.056646,-0.006776, 0.055858, 0.002617,-0.065113,-0.150199,-0.000001, 0.000003, 0.000010,1,0
1777416460305065341,1299471000000,  1299.471,-0.001091,-0.001554,-0.010999, 0.001439,-0.000143, 0.000547,-0.755688,-1.992942, 0.088176,1, 0.031200,-0.000785, 0.055910,1,-0.050397,-0.187999,-0.990537, 0.031199,-0.000782, 0.055920, 0.003074,-0.065044,-0.150818,-0.000001, 0.000003, 0.000011,1,0
1777416460315149246,1299471000000,  1299.471,-0.001091,-0.001554,-0.010999, 0.001439,-0.000143, 0.000547,-0.755688,-1.992942, 0.088176,1, 0.031200,-0.000785, 0.055910,1,-0.050397,-0.187999,-0.990537, 0.031199,-0.000782, 0.055920, 0.003074,-0.065044,-0.150818,-0.000001, 0.000003, 0.000011,1,0
1777416460334499406,1299491000000,  1299.491,-0.000774,-0.000606,-0.012924,-0.000056, 0.000018, 0.000244,-0.628247,-0.746324,-1.244057,1, 0.007249, 0.019303, 0.027448,1,-0.037224,-0.061024,-1.126384, 0.007248, 0.019306, 0.027459, 0.002978,-0.065034,-0.151539,-0.000001, 0.000003, 0.000011,1,0
1777416460344188689,1299511000000,  1299.511,-0.000895, 0.001923,-0.010472,-0.000168, 0.000844, 0.000527,-0.767099,-0.202067, 0.295458,1,-0.018625, 0.002863, 0.024951,1,-0.068895, 0.046001,-1.069091,-0.032148, 0.035766, 0.041993, 0.002814,-0.064479,-0.151585,-0.000001, 0.000003, 0.000011,1,0
1777416460354271946,1299511000000,  1299.511,-0.000895, 0.001923,-0.010472,-0.000168, 0.000844, 0.000527,-0.767099,-0.202067, 0.295458,1,-0.018625, 0.002863, 0.024951,1,-0.068895, 0.046001,-1.069091,-0.032148, 0.035766, 0.041993, 0.002814,-0.064479,-0.151585,-0.000001, 0.000003, 0.000011,1,0
1777416460373953284,1299531000000,  1299.531,-0.000724,-0.000391,-0.010417,-0.000170,-0.000101, 0.000415,-1.034498,-0.786834, 0.506218,1, 0.007069, 0.029931, 0.068677,1,-0.091560,-0.053010,-0.950720, 0.017342, 0.008630, 0.058497, 0.003292,-0.064221,-0.151562,-0.000001, 0.000003, 0.000011,1,0
1777416460383679029,1299551000000,  1299.551,-0.000706, 0.000590,-0.006382, 0.000323,-0.000393, 0.000268,-0.728315,-0.539579,-0.917865,1,-0.012951, 0.048326, 0.039951,1,-0.060767, 0.006491,-0.842724, 0.011020, 0.012317, 0.033595, 0.003012,-0.063983,-0.151827,-0.000001, 0.000003, 0.000011,1,0
1777416460393803303,1299551000000,  1299.551,-0.000706, 0.000590,-0.006382, 0.000323,-0.000393, 0.000268,-0.728315,-0.539579,-0.917865,1,-0.012951, 0.048326, 0.039951,1,-0.060767, 0.006491,-0.842724, 0.011020, 0.012317, 0.033595, 0.003012,-0.063983,-0.151827,-0.000001, 0.000003, 0.000011,1,0
1777416460403442995,1299571000000,  1299.571,-0.000396,-0.000107,-0.008511, 0.000409, 0.000497, 0.000327,-1.356628, 0.150866, 0.140290,1, 0.001817, 0.017950, 0.034496,1,-0.091006, 0.015545,-0.899171, 0.020018, 0.038790, 0.034352, 0.002904,-0.063626,-0.151966,-0.000001, 0.000003, 0.000011,1,0
1777416460413569010,1299571000000,  1299.571,-0.000396,-0.000107,-0.008511, 0.000409, 0.000497, 0.000327,-1.356628, 0.150866, 0.140290,1, 0.001817, 0.017950, 0.034496,1,-0.091006, 0.015545,-0.899171, 0.020018, 0.038790, 0.034352, 0.002904,-0.063626,-0.151966,-0.000001, 0.000003, 0.000011,1,0
1777416460423200794,1299591000000,  1299.591,-0.000091,-0.000301,-0.009723, 0.000167, 0.000323, 0.000272,-0.846968,-0.222066, 0.022572,1, 0.029337, 0.027868, 0.029317,1,-0.021372,-0.016845,-1.012299, 0.026015, 0.038917, 0.027820, 0.002716,-0.063578,-0.151743,-0.000001, 0.000003, 0.000011,1,0
1777416460433397011,1299591000000,  1299.591,-0.000091,-0.000301,-0.009723, 0.000167, 0.000323, 0.000272,-0.846968,-0.222066, 0.022572,1, 0.029337, 0.027868, 0.029317,1,-0.021372,-0.016845,-1.012299, 0.026015, 0.038917, 0.027820, 0.002716,-0.063578,-0.151743,-0.000001, 0.000003, 0.000011,1,0
1777416460453031017,1299611000000,  1299.611,-0.000768, 0.000389,-0.009024,-0.000402, 0.000260, 0.000467,-1.073914, 0.109086, 0.662834,1, 0.037413, 0.014829, 0.028952,1,-0.087467, 0.042988,-0.893342, 0.006915, 0.021761, 0.036079, 0.003153,-0.063266,-0.152288,-0.000001, 0.000003, 0.000011,1,0
1777416460472715688,1299631000000,  1299.631,-0.000318, 0.000589,-0.010998,-0.000066, 0.000709, 0.000451,-1.251775, 0.134112, 0.703898,1,-0.006077, 0.048494, 0.043527,1,-0.072025, 0.048084,-1.026240,-0.002821, 0.059687, 0.043979, 0.003068,-0.063103,-0.151949,-0.000001, 0.000003, 0.000011,1,0
1777416460482424545,1299651000000,  1299.651, 0.000032, 0.000163,-0.012378,-0.000221, 0.001719, 0.000648,-1.061029,-0.314617, 1.645574,1,-0.018456, 0.073641, 0.054677,1,-0.031135,-0.012161,-1.085485,-0.016687, 0.121943, 0.060239, 0.002925,-0.063046,-0.152062,-0.000001, 0.000003, 0.000011,1,0
1777416460492617077,1299651000000,  1299.651, 0.000032, 0.000163,-0.012378,-0.000221, 0.001719, 0.000648,-1.061029,-0.314617, 1.645574,1,-0.018456, 0.073641, 0.054677,1,-0.031135,-0.012161,-1.085485,-0.016687, 0.121943, 0.060239, 0.002925,-0.063046,-0.152062,-0.000001, 0.000003, 0.000011,1,0
1777416460502172123,1299661000000,  1299.666,-0.001157, 0.000824,-0.007294, 0.000018, 0.000588, 0.000752,-1.089052, 0.102876, 1.383964,1,-0.001705, 0.099376, 0.068213,1,-0.078430, 0.025906,-0.858223,-0.001706, 0.099379, 0.068224, 0.003116,-0.062796,-0.152974,-0.000001, 0.000003, 0.000012,1,0
1777416460512326081,1299661000000,  1299.666,-0.001157, 0.000824,-0.007294, 0.000018, 0.000588, 0.000752,-1.089052, 0.102876, 1.383964,1,-0.001705, 0.099376, 0.068213,1,-0.078430, 0.025906,-0.858223,-0.001706, 0.099379, 0.068224, 0.003116,-0.062796,-0.152974,-0.000001, 0.000003, 0.000012,1,0
1777416460532003808,1299681000000,  1299.686,-0.000180,-0.000148,-0.009229, 0.000330, 0.001142, 0.000768,-0.873855,-0.003463, 0.313852,1, 0.000751, 0.120987, 0.073283,1,-0.054044, 0.014966,-0.967262, 0.000749, 0.120990, 0.073295, 0.003172,-0.062780,-0.154242,-0.000001, 0.000003, 0.000012,1,0
1777416460551758311,1299701000000,  1299.706,-0.000700, 0.000696,-0.006764,-0.000115, 0.001111, 0.000566,-0.935541, 0.192818, 1.164205,1, 0.004387, 0.111534, 0.065708,1,-0.057960, 0.034585,-0.880470, 0.004385, 0.111537, 0.065720, 0.003111,-0.062132,-0.154703,-0.000001, 0.000003, 0.000012,1,0
1777416460561371226,1299721000000,  1299.726, 0.000103, 0.000098,-0.010551,-0.000397, 0.001967, 0.000621,-0.939253, 0.020492,-0.234174,1,-0.039759, 0.140152, 0.064626,1,-0.055486, 0.016920,-1.022954,-0.039760, 0.140155, 0.064638, 0.003765,-0.061607,-0.155541,-0.000001, 0.000003, 0.000012,1,0
1777416460571522018,1299721000000,  1299.726, 0.000103, 0.000098,-0.010551,-0.000397, 0.001967, 0.000621,-0.939253, 0.020492,-0.234174,1,-0.039759, 0.140152, 0.064626,1,-0.055486, 0.016920,-1.022954,-0.039760, 0.140155, 0.064638, 0.003765,-0.061607,-0.155541,-0.000001, 0.000003, 0.000012,1,0
1777416460581183339,1299741000000,  1299.746,-0.000064, 0.000785,-0.012516, 0.000144, 0.001462, 0.000621,-0.949323, 0.599297,-0.763223,1,-0.014525, 0.133677, 0.061575,1,-0.053335, 0.076118,-1.076766,-0.014526, 0.133681, 0.061587, 0.003581,-0.061412,-0.156008,-0.000001, 0.000003, 0.000012,1,0
1777416460591335890,1299741000000,  1299.746,-0.000064, 0.000785,-0.012516, 0.000144, 0.001462, 0.000621,-0.949323, 0.599297,-0.763223,1,-0.014525, 0.133677, 0.061575,1,-0.053335, 0.076118,-1.076766,-0.014526, 0.133681, 0.061587, 0.003581,-0.061412,-0.156008,-0.000001, 0.000003, 0.000012,1,0
1777416460610967636,1299761000000,  1299.766,-0.000628, 0.000149,-0.008176, 0.000768, 0.001629, 0.000774,-0.660563,-0.359803, 0.641079,1, 0.014907, 0.165508, 0.069319,1,-0.020876,-0.021806,-0.933433, 0.014906, 0.165511, 0.069331, 0.003625,-0.061180,-0.156992,-0.000001, 0.000003, 0.000012,1,0
1777416460620632828,1299781000000,  1299.786,-0.000164, 0.001249,-0.006417,-0.000581, 0.001949, 0.000540,-0.864085, 0.441457, 1.548487,1,-0.016228, 0.183474, 0.061818,1,-0.038653, 0.060136,-0.840757,-0.016230, 0.183478, 0.061830, 0.003760,-0.060628,-0.157637,-0.000001, 0.000003, 0.000012,1,0
1777416460630785305,1299781000000,  1299.786,-0.000164, 0.001249,-0.006417,-0.000581, 0.001949, 0.000540,-0.864085, 0.441457, 1.548487,1,-0.016228, 0.183474, 0.061818,1,-0.038653, 0.060136,-0.840757,-0.016230, 0.183478, 0.061830, 0.003760,-0.060628,-0.157637,-0.000001, 0.000003, 0.000012,1,0
1777416460640319703,1299801000000,  1299.806, 0.000712,-0.001656,-0.014689,-0.000235, 0.001004, 0.000872,-0.326588,-0.450275,-1.516495,1,-0.074402, 0.125781, 0.068987,1, 0.019641,-0.030231,-1.153110,-0.074403, 0.125785, 0.068999, 0.003832,-0.060100,-0.159199,-0.000001, 0.000003, 0.000012,1,0
1777416460650471402,1299801000000,  1299.806, 0.000712,-0.001656,-0.014689,-0.000235, 0.001004, 0.000872,-0.326588,-0.450275,-1.516495,1,-0.074402, 0.125781, 0.068987,1, 0.019641,-0.030231,-1.153110,-0.074403, 0.125785, 0.068999, 0.003832,-0.060100,-0.159199,-0.000001, 0.000003, 0.000012,1,0
1777416460660199925,1299821000000,  1299.826,-0.000438,-0.000241,-0.011229,-0.000597, 0.002037, 0.000872,-0.095474,-0.965510,-1.191196,1,-0.076614, 0.177077, 0.080528,1, 0.046636,-0.081967,-1.119737,-0.076615, 0.177081, 0.080540, 0.003824,-0.059796,-0.160390,-0.000001, 0.000003, 0.000012,1,0
1777416460670377809,1299821000000,  1299.826,-0.000438,-0.000241,-0.011229,-0.000597, 0.002037, 0.000872,-0.095474,-0.965510,-1.191196,1,-0.076614, 0.177077, 0.080528,1, 0.046636,-0.081967,-1.119737,-0.076615, 0.177081, 0.080540, 0.003824,-0.059796,-0.160390,-0.000001, 0.000003, 0.000012,1,0
1777416460685710152,1299841000000,  1299.846, 0.000638, 0.000243,-0.010823, 0.000078, 0.001353, 0.001137, 0.112133, 0.204333,-0.022731,1,-0.064847, 0.148190, 0.092615,1, 0.071367, 0.038694,-1.000356,-0.064848, 0.148194, 0.092628, 0.004308,-0.059478,-0.162354,-0.000001, 0.000003, 0.000012,1,0
1777416460695465878,1299861000000,  1299.866,-0.000586,-0.001033,-0.009770,-0.000290, 0.001999, 0.000755,-0.650349,-0.902614,-0.171965,1,-0.045569, 0.178829, 0.085126,1,-0.003409,-0.073430,-1.015378,-0.045570, 0.178833, 0.085138, 0.004024,-0.059168,-0.162896,-0.000001, 0.000003, 0.000012,1,0
1777416460705621633,1299861000000,  1299.866,-0.000586,-0.001033,-0.009770,-0.000290, 0.001999, 0.000755,-0.650349,-0.902614,-0.171965,1,-0.045569, 0.178829, 0.085126,1,-0.003409,-0.073430,-1.015378,-0.045570, 0.178833, 0.085138, 0.004024,-0.059168,-0.162896,-0.000001, 0.000003, 0.000012,1,0
1777416460715215344,1299881000000,  1299.881, 0.000098, 0.000352,-0.013443,-0.000382, 0.001950, 0.000589,-0.306847,-0.307206,-0.784832,1,-0.021676, 0.193354, 0.070877,1, 0.035017,-0.012078,-1.077640,-0.021677, 0.193357, 0.070889, 0.004312,-0.058703,-0.163734,-0.000001, 0.000003, 0.000012,1,0
1777416460725404321,1299881000000,  1299.881, 0.000098, 0.000352,-0.013443,-0.000382, 0.001950, 0.000589,-0.306847,-0.307206,-0.784832,1,-0.021676, 0.193354, 0.070877,1, 0.035017,-0.012078,-1.077640,-0.021677, 0.193357, 0.070889, 0.004312,-0.058703,-0.163734,-0.000001, 0.000003, 0.000012,1,0
1777416460744992087,1299901000000,  1299.901, 0.000395, 0.000530,-0.011812, 0.000048, 0.001482, 0.000559,-0.235635, 0.067045,-0.617982,1,-0.009267, 0.175328, 0.059603,1, 0.045878, 0.026441,-1.060373,-0.009268, 0.175331, 0.059615, 0.004406,-0.058381,-0.164342,-0.000001, 0.000003, 0.000012,1,0
1777416460754271250,1299921000000,  1299.921, 0.000096, 0.000189,-0.007417,-0.000013, 0.002192, 0.000866,-0.349851, 0.603067,-0.496364,1,-0.021408, 0.186712, 0.053936,1, 0.013229, 0.052116,-0.884242,-0.019692, 0.204780, 0.068605, 0.004762,-0.058399,-0.166402,-0.000001, 0.000003, 0.000012,1,0
1777416460764426523,1299921000000,  1299.921, 0.000096, 0.000189,-0.007417,-0.000013, 0.002192, 0.000866,-0.349851, 0.603067,-0.496364,1,-0.021408, 0.186712, 0.053936,1, 0.013229, 0.052116,-0.884242,-0.019692, 0.204780, 0.068605, 0.004762,-0.058399,-0.166402,-0.000001, 0.000003, 0.000012,1,0
1777416460774014642,1299941000000,  1299.941,-0.000101,-0.001100,-0.008231, 0.000547, 0.001882, 0.000688,-0.033992,-0.355195,-0.757381,1,-0.024459, 0.186673, 0.070679,1, 0.036869,-0.057330,-0.968456, 0.005549, 0.187883, 0.068109, 0.004438,-0.057986,-0.168325,-0.000001, 0.000003, 0.000012,1,0
1777416460784170952,1299941000000,  1299.941,-0.000101,-0.001100,-0.008231, 0.000547, 0.001882, 0.000688,-0.033992,-0.355195,-0.757381,1,-0.024459, 0.186673, 0.070679,1, 0.036869,-0.057330,-0.968456, 0.005549, 0.187883, 0.068109, 0.004438,-0.057986,-0.168325,-0.000001, 0.000003, 0.000012,1,0
1777416460803873734,1299961000000,  1299.961, 0.000395, 0.000245,-0.012550,-0.000160, 0.002240, 0.000590,-0.245233,-0.405908, 0.731094,1, 0.020621, 0.179747, 0.062218,1, 0.053572, 0.002554,-1.119249,-0.001388, 0.199614, 0.061043, 0.004785,-0.057651,-0.169493,-0.000001, 0.000003, 0.000012,1,0
1777416460813527352,1299981000000,  1299.981,-0.000082, 0.000003,-0.012426,-0.000572, 0.001584, 0.000600, 0.299714, 0.051212, 0.577052,1, 0.069713, 0.178092, 0.068134,1, 0.061358, 0.022952,-1.101806, 0.011766, 0.167538, 0.064551, 0.004808,-0.057375,-0.170207,-0.000001, 0.000003, 0.000012,1,0
1777416460823680310,1299981000000,  1299.981,-0.000082, 0.000003,-0.012426,-0.000572, 0.001584, 0.000600, 0.299714, 0.051212, 0.577052,1, 0.069713, 0.178092, 0.068134,1, 0.061358, 0.022952,-1.101806, 0.011766, 0.167538, 0.064551, 0.004808,-0.057375,-0.170207,-0.000001, 0.000003, 0.000012,1,0
1777416460833281336,1300001000000,  1300.001, 0.000042, 0.001285,-0.011351, 0.000396, 0.001895, 0.000808,-0.194521, 0.048429, 0.841724,1, 0.011048, 0.143715, 0.061485,1, 0.042209, 0.065299,-1.001451, 0.018826, 0.157790, 0.071059, 0.005528,-0.057230,-0.170745,-0.000001, 0.000003, 0.000012,1,0
1777416460843434054,1300001000000,  1300.001, 0.000042, 0.001285,-0.011351, 0.000396, 0.001895, 0.000808,-0.194521, 0.048429, 0.841724,1, 0.011048, 0.143715, 0.061485,1, 0.042209, 0.065299,-1.001451, 0.018826, 0.157790, 0.071059, 0.005528,-0.057230,-0.170745,-0.000001, 0.000003, 0.000012,1,0
1777416460853093653,1300021000000,  1300.021,-0.000077,-0.000413,-0.009687, 0.000189, 0.001417, 0.000727,-0.460890,-0.195081, 0.641075,1, 0.008795, 0.181947, 0.078411,1, 0.018756,-0.024135,-0.922966, 0.014341, 0.161378, 0.076151, 0.005190,-0.057065,-0.171609,-0.000001, 0.000003, 0.000012,1,0
1777416460863295388,1300021000000,  1300.021,-0.000077,-0.000413,-0.009687, 0.000189, 0.001417, 0.000727,-0.460890,-0.195081, 0.641075,1, 0.008795, 0.181947, 0.078411,1, 0.018756,-0.024135,-0.922966, 0.014341, 0.161378, 0.076151, 0.005190,-0.057065,-0.171609,-0.000001, 0.000003, 0.000012,1,0
1777416460882842581,1300041000000,  1300.041, 0.000194,-0.000004,-0.010097, 0.000020, 0.001000, 0.000849,-0.559296,-0.187866, 0.898396,1, 0.012279, 0.170883, 0.074464,1, 0.026468,-0.008365,-0.930729, 0.010767, 0.138694, 0.080431, 0.005363,-0.057016,-0.173607,-0.000001, 0.000003, 0.000012,1,0
1777416460892483551,1300061000000,  1300.061, 0.000405, 0.000879,-0.008851,-0.000835, 0.001539, 0.000831,-0.478042,-0.272929, 0.454628,1,-0.023090, 0.154237, 0.077200,1, 0.045348, 0.039430,-0.919439,-0.047967, 0.156490, 0.081133, 0.005347,-0.056633,-0.175339,-0.000001, 0.000003, 0.000012,1,0
1777416460902636102,1300061000000,  1300.061, 0.000405, 0.000879,-0.008851,-0.000835, 0.001539, 0.000831,-0.478042,-0.272929, 0.454628,1,-0.023090, 0.154237, 0.077200,1, 0.045348, 0.039430,-0.919439,-0.047967, 0.156490, 0.081133, 0.005347,-0.056633,-0.175339,-0.000001, 0.000003, 0.000012,1,0
1777416460912221147,1300071000000,  1300.076, 0.001573, 0.002332,-0.012964,-0.000172, 0.001423, 0.001139, 0.070516, 1.118344,-1.012962,1,-0.023181, 0.150805, 0.097039,1, 0.105889, 0.132161,-1.098243,-0.023183, 0.150808, 0.097051, 0.005418,-0.056376,-0.175898,-0.000001, 0.000003, 0.000012,1,0
1777416460922375957,1300071000000,  1300.076, 0.001573, 0.002332,-0.012964,-0.000172, 0.001423, 0.001139, 0.070516, 1.118344,-1.012962,1,-0.023181, 0.150805, 0.097039,1, 0.105889, 0.132161,-1.098243,-0.023183, 0.150808, 0.097051, 0.005418,-0.056376,-0.175898,-0.000001, 0.000003, 0.000012,1,0
1777416460942060073,1300091000000,  1300.096, 0.000745,-0.001988,-0.009847,-0.000239, 0.000888, 0.001017,-0.262344,-0.470566, 0.148219,1,-0.019942, 0.101399, 0.107975,1, 0.073949,-0.029588,-0.979631,-0.019943, 0.101402, 0.107987, 0.005758,-0.055814,-0.176296,-0.000001, 0.000003, 0.000012,1,0
1777416460961762095,1300111000000,  1300.116, 0.000499, 0.000503,-0.009744,-0.000479, 0.001422, 0.000704,-0.494202,-0.109612, 0.134118,1,-0.025101, 0.148109, 0.087183,1, 0.052920, 0.007550,-0.980794,-0.025102, 0.148112, 0.087195, 0.005904,-0.055286,-0.176494,-0.000001, 0.000003, 0.000012,1,0
1777416460971439139,1300131000000,  1300.136, 0.001114,-0.001096,-0.008726, 0.001092, 0.001656, 0.000700,-0.199082,-1.371751, 0.435558,1, 0.062626, 0.168951, 0.078324,1, 0.085954,-0.121140,-0.949745, 0.062625, 0.168954, 0.078336, 0.005530,-0.054954,-0.177863,-0.000001, 0.000003, 0.000012,1,0
