Time,reference_time,gps_timestamp,deltaVelX,deltaVelY,deltaVelZ,deltaThetaX,deltaThetaY,deltaThetaZ,estLinearAccelX,estLinearAccelY,estLinearAccelZ,estLinearAccel:valid,estAngularRateX,estAngularRateY,estAngularRateZ,estAngularRate:valid,scaledAccelX,scaledAccelY,scaledAccelZ,scaledGyroX,scaledGyroY,scaledGyroZ,scaledMagX,scaledMagY,scaledMagZ,estGyroBiasX,estGyroBiasY,estGyroBiasZ,estGyroBias:valid,flagStop
1777416250135659197,1040789000000,  1040.789, 0.000058,-0.000030,-0.009957,-0.000018, 0.000025, 0.000187,-0.086849,-0.022824, 0.040644,1,-0.001850, 0.003059, 0.018672,1, 0.005529,-0.002808,-0.995759,-0.001786, 0.002782, 0.018668,-0.006436,-0.100694,-0.146985,-0.000000, 0.000000,-0.000000,1,0
1777416250155917786,1089319000000,  1089.319, 0.000089,-0.000037,-0.009936,-0.000020, 0.000018, 0.000192,-0.079199,-0.027526, 0.041354,1,-0.001131, 0.003378, 0.018840,1, 0.006703,-0.005606,-0.995048,-0.001677, 0.002606, 0.019607,-0.006623,-0.101397,-0.145720,-0.000000, 0.000000,-0.000000,1,0
1777416250165616972,1089339000000,  1089.339, 0.000121,-0.000000,-0.009949,-0.000003, 0.000026, 0.000213,-0.279265,-0.091857, 0.024564,1,-0.001720, 0.002731, 0.019686,1, 0.010139,-0.001607,-0.995805,-0.001069, 0.002628, 0.020456,-0.006534,-0.101232,-0.145898,-0.000001, 0.000002, 0.000006,1,0
1777416250175706022,1089339000000,  1089.339, 0.000121,-0.000000,-0.009949,-0.000003, 0.000026, 0.000213,-0.279265,-0.091857, 0.024564,1,-0.001720, 0.002731, 0.019686,1, 0.010139,-0.001607,-0.995805,-0.001069, 0.002628, 0.020456,-0.006534,-0.101232,-0.145898,-0.000001, 0.000002, 0.000006,1,0
1777416250185362649,1089359000000,  1089.359, 0.000106,-0.000061,-0.009961,-0.000010, 0.000039, 0.000221,-0.260162,-0.090006, 0.033117,1,-0.000974, 0.002644, 0.021233,1, 0.010593,-0.004268,-0.995899,-0.001032, 0.003231, 0.021622,-0.006033,-0.101421,-0.146067,-0.000001, 0.000002, 0.000006,1,0
1777416250195451125,1089359000000,  1089.359, 0.000106,-0.000061,-0.009961,-0.000010, 0.000039, 0.000221,-0.260162,-0.090006, 0.033117,1,-0.000974, 0.002644, 0.021233,1, 0.010593,-0.004268,-0.995899,-0.001032, 0.003231, 0.021622,-0.006033,-0.101421,-0.146067,-0.000001, 0.000002, 0.000006,1,0
1777416250205069694,1089379000000,  1089.379, 0.000091,-0.000094,-0.009947,-0.000005, 0.000035, 0.000208,-0.263719,-0.128592, 0.031743,1,-0.001258, 0.002904, 0.021623,1, 0.009483,-0.007698,-0.995419,-0.000995, 0.003196, 0.021203,-0.005889,-0.101440,-0.146070,-0.000001, 0.000002, 0.000006,1,0
1777416250215154781,1089379000000,  1089.379, 0.000091,-0.000094,-0.009947,-0.000005, 0.000035, 0.000208,-0.263719,-0.128592, 0.031743,1,-0.001258, 0.002904, 0.021623,1, 0.009483,-0.007698,-0.995419,-0.000995, 0.003196, 0.021203,-0.005889,-0.101440,-0.146070,-0.000001, 0.000002, 0.000006,1,0
1777416250234888513,1089399000000,  1089.399, 0.000095,-0.000069,-0.009938,-0.000006, 0.000052, 0.000211,-0.268838,-0.136693, 0.029600,1,-0.000928, 0.003113, 0.021140,1, 0.009591,-0.007063,-0.995002,-0.000851, 0.004076, 0.021098,-0.005967,-0.101585,-0.146330,-0.000001, 0.000002, 0.000006,1,0
1777416250244585477,1089419000000,  1089.419, 0.000097,-0.000047,-0.009975,-0.000015, 0.000038, 0.000210,-0.257957,-0.134089, 0.042351,1,-0.000901, 0.003684, 0.021176,1, 0.010279,-0.006065,-0.996099,-0.001232, 0.003793, 0.021095,-0.005865,-0.101307,-0.146374,-0.000001, 0.000002, 0.000006,1,0
1777416250254670212,1089419000000,  1089.419, 0.000097,-0.000047,-0.009975,-0.000015, 0.000038, 0.000210,-0.257957,-0.134089, 0.042351,1,-0.000901, 0.003684, 0.021176,1, 0.010279,-0.006065,-0.996099,-0.001232, 0.003793, 0.021095,-0.005865,-0.101307,-0.146374,-0.000001, 0.000002, 0.000006,1,0
1777416250264314135,1089429000000,  1089.434, 0.000133,-0.000025,-0.009969,-0.000009, 0.000028, 0.000215,-0.245768,-0.106268, 0.028399,1,-0.001128, 0.003356, 0.021247,1, 0.011744,-0.004349,-0.996406,-0.001129, 0.003358, 0.021254,-0.005971,-0.101354,-0.146266,-0.000001, 0.000002, 0.000006,1,0
1777416250274400296,1089429000000,  1089.434, 0.000133,-0.000025,-0.009969,-0.000009, 0.000028, 0.000215,-0.245768,-0.106268, 0.028399,1,-0.001128, 0.003356, 0.021247,1, 0.011744,-0.004349,-0.996406,-0.001129, 0.003358, 0.021254,-0.005971,-0.101354,-0.146266,-0.000001, 0.000002, 0.000006,1,0
1777416250284023087,1089449000000,  1089.454, 0.000030,-0.000211,-0.009888,-0.000052, 0.000088, 0.000207,-0.285292,-0.179520, 0.058244,1,-0.002853, 0.006116, 0.021142,1, 0.007808,-0.011810,-0.993359,-0.002854, 0.006118, 0.021148,-0.006319,-0.101319,-0.145623,-0.000001, 0.000002, 0.000006,1,0
1777416250294109285,1089449000000,  1089.454, 0.000030,-0.000211,-0.009888,-0.000052, 0.000088, 0.000207,-0.285292,-0.179520, 0.058244,1,-0.002853, 0.006116, 0.021142,1, 0.007808,-0.011810,-0.993359,-0.002854, 0.006118, 0.021148,-0.006319,-0.101319,-0.145623,-0.000001, 0.000002, 0.000006,1,0
1777416250313835943,1089469000000,  1089.474,-0.000118,-0.000173,-0.009904,-0.000052, 0.000036, 0.000132,-0.403502,-0.220508, 0.060790,1,-0.004692, 0.004396, 0.016459,1,-0.004143,-0.015926,-0.993095,-0.004692, 0.004398, 0.016466,-0.006524,-0.101145,-0.145485,-0.000001, 0.000002, 0.000006,1,0
1777416250323512775,1089489000000,  1089.494,-0.000123, 0.000075,-0.009964,-0.000051, 0.000079, 0.000118,-0.450334,-0.068479, 0.039511,1,-0.005460, 0.005852, 0.012919,1,-0.008824,-0.000327,-0.995260,-0.005461, 0.005854, 0.012925,-0.006547,-0.100820,-0.145819,-0.000001, 0.000002, 0.000006,1,0
1777416250333597492,1089489000000,  1089.494,-0.000123, 0.000075,-0.009964,-0.000051, 0.000079, 0.000118,-0.450334,-0.068479, 0.039511,1,-0.005460, 0.005852, 0.012919,1,-0.008824,-0.000327,-0.995260,-0.005461, 0.005854, 0.012925,-0.006547,-0.100820,-0.145819,-0.000001, 0.000002, 0.000006,1,0
1777416250343284640,1089509000000,  1089.514,-0.000065, 0.000021,-0.010064,-0.000038, 0.000041, 0.000113,-0.432811,-0.056493,-0.002912,1,-0.005029, 0.005931, 0.011571,1,-0.006898, 0.001002,-0.999580,-0.005029, 0.005933, 0.011578,-0.006380,-0.100866,-0.146104,-0.000001, 0.000002, 0.000006,1,0
1777416250353370172,1089509000000,  1089.514,-0.000065, 0.000021,-0.010064,-0.000038, 0.000041, 0.000113,-0.432811,-0.056493,-0.002912,1,-0.005029, 0.005931, 0.011571,1,-0.006898, 0.001002,-0.999580,-0.005029, 0.005933, 0.011578,-0.006380,-0.100866,-0.146104,-0.000001, 0.000002, 0.000006,1,0
1777416250363037837,1089529000000,  1089.534, 0.000045, 0.000034,-0.010074,-0.000041, 0.000020, 0.000098,-0.364828,-0.046444,-0.012559,1,-0.004049, 0.003830, 0.010216,1, 0.000140, 0.002105,-1.000560,-0.004049, 0.003832, 0.010222,-0.006649,-0.101208,-0.146270,-0.000001, 0.000002, 0.000006,1,0
1777416250373121942,1089529000000,  1089.534, 0.000045, 0.000034,-0.010074,-0.000041, 0.000020, 0.000098,-0.364828,-0.046444,-0.012559,1,-0.004049, 0.003830, 0.010216,1, 0.000140, 0.002105,-1.000560,-0.004049, 0.003832, 0.010222,-0.006649,-0.101208,-0.146270,-0.000001, 0.000002, 0.000006,1,0
1777416250392859915,1089549000000,  1089.554, 0.000116, 0.000071,-0.009915,-0.000037, 0.000041, 0.000106,-0.304248,-0.023336, 0.044518,1,-0.002839, 0.003725, 0.010520,1, 0.006393, 0.004505,-0.994736,-0.002840, 0.003727, 0.010526,-0.006896,-0.100953,-0.146555,-0.000001, 0.000002, 0.000006,1,0
1777416250402486837,1089569000000,  1089.574, 0.000187,-0.000033,-0.009860,-0.000012, 0.000025, 0.000159,-0.229075,-0.063412, 0.053697,1,-0.001042, 0.003099, 0.013769,1, 0.013848, 0.000372,-0.993808,-0.001042, 0.003101, 0.013775,-0.006326,-0.101260,-0.145970,-0.000001, 0.000002, 0.000006,1,0
1777416250412571998,1089569000000,  1089.574, 0.000187,-0.000033,-0.009860,-0.000012, 0.000025, 0.000159,-0.229075,-0.063412, 0.053697,1,-0.001042, 0.003099, 0.013769,1, 0.013848, 0.000372,-0.993808,-0.001042, 0.003101, 0.013775,-0.006326,-0.101260,-0.145970,-0.000001, 0.000002, 0.000006,1,0
1777416250422229199,1089589000000,  1089.594, 0.000214,-0.000015,-0.009942,-0.000003, 0.000015, 0.000186,-0.234367,-0.124442, 0.021841,1,-0.000594, 0.002444, 0.017465,1, 0.013231,-0.005878,-0.997060,-0.000594, 0.002446, 0.017472,-0.006045,-0.101687,-0.145621,-0.000001, 0.000002, 0.000006,1,0
1777416250432313860,1089589000000,  1089.594, 0.000214,-0.000015,-0.009942,-0.000003, 0.000015, 0.000186,-0.234367,-0.124442, 0.021841,1,-0.000594, 0.002444, 0.017465,1, 0.013231,-0.005878,-0.997060,-0.000594, 0.002446, 0.017472,-0.006045,-0.101687,-0.145621,-0.000001, 0.000002, 0.000006,1,0
1777416250442002620,1089609000000,  1089.614, 0.000156,-0.000163,-0.009989,-0.000049, 0.000038, 0.000215,-0.232598,-0.189680, 0.025627,1,-0.002851, 0.004135, 0.020902,1, 0.013445,-0.012528,-0.996673,-0.002851, 0.004136, 0.020908,-0.006368,-0.101255,-0.146133,-0.000001, 0.000002, 0.000006,1,0
1777416250452089318,1089609000000,  1089.614, 0.000156,-0.000163,-0.009989,-0.000049, 0.000038, 0.000215,-0.232598,-0.189680, 0.025627,1,-0.002851, 0.004135, 0.020902,1, 0.013445,-0.012528,-0.996673,-0.002851, 0.004136, 0.020908,-0.006368,-0.101255,-0.146133,-0.000001, 0.000002, 0.000006,1,0
1777416250467629962,1089629000000,  1089.634, 0.000023,-0.000222,-0.009944,-0.000080, 0.000039, 0.000170,-0.293323,-0.240703, 0.047459,1,-0.004968, 0.004148, 0.019011,1, 0.007327,-0.017691,-0.994443,-0.004968, 0.004150, 0.019018,-0.006367,-0.100996,-0.146525,-0.000001, 0.000002, 0.000006,1,0
1777416250477286330,1089649000000,  1089.649,-0.000007,-0.000091,-0.009856,-0.000033, 0.000062, 0.000112,-0.336032,-0.183446, 0.068890,1,-0.004121, 0.004614, 0.013994,1, 0.003044,-0.011773,-0.992255,-0.004122, 0.004616, 0.014000,-0.006276,-0.101049,-0.146449,-0.000001, 0.000002, 0.000006,1,0
1777416250487371380,1089649000000,  1089.649,-0.000007,-0.000091,-0.009856,-0.000033, 0.000062, 0.000112,-0.336032,-0.183446, 0.068890,1,-0.004121, 0.004614, 0.013994,1, 0.003044,-0.011773,-0.992255,-0.004122, 0.004616, 0.014000,-0.006276,-0.101049,-0.146449,-0.000001, 0.000002, 0.000006,1,0
1777416250497013136,1089669000000,  1089.669, 0.000026, 0.000319,-0.009986,-0.000011, 0.000025, 0.000123,-0.325044, 0.066628, 0.000301,1,-0.003138, 0.004074, 0.012363,1, 0.004233, 0.013809,-0.999246,-0.003138, 0.004076, 0.012369,-0.006460,-0.101109,-0.146469,-0.000001, 0.000002, 0.000006,1,0
1777416250507098667,1089669000000,  1089.669, 0.000026, 0.000319,-0.009986,-0.000011, 0.000025, 0.000123,-0.325044, 0.066628, 0.000301,1,-0.003138, 0.004074, 0.012363,1, 0.004233, 0.013809,-0.999246,-0.003138, 0.004076, 0.012369,-0.006460,-0.101109,-0.146469,-0.000001, 0.000002, 0.000006,1,0
1777416250526507615,1089689000000,  1089.689, 0.000181, 0.000305,-0.009809, 0.000003,-0.000022, 0.000259,-0.264852, 0.167074, 0.022470,1, 0.004985, 0.001090, 0.016926,1, 0.013986, 0.026179,-0.994669, 0.002669,-0.000871, 0.021166,-0.006426,-0.101080,-0.146447,-0.000001, 0.000002, 0.000006,1,0
1777416250536203375,1089709000000,  1089.709, 0.000052,-0.000212,-0.009888, 0.000006, 0.000014, 0.000275,-0.249256, 0.096043, 0.018116,1, 0.004004,-0.002780, 0.025389,1, 0.008537,-0.000795,-0.996444, 0.002202,-0.001021, 0.026195,-0.006523,-0.101101,-0.144999,-0.000001, 0.000002, 0.000006,1,0
1777416250546287647,1089709000000,  1089.709, 0.000052,-0.000212,-0.009888, 0.000006, 0.000014, 0.000275,-0.249256, 0.096043, 0.018116,1, 0.004004,-0.002780, 0.025389,1, 0.008537,-0.000795,-0.996444, 0.002202,-0.001021, 0.026195,-0.006523,-0.101101,-0.144999,-0.000001, 0.000002, 0.000006,1,0
1777416250566027361,1089729000000,  1089.729,-0.000054,-0.000575,-0.009973,-0.000007, 0.000105, 0.000180,-0.328938,-0.239602, 0.080847,1, 0.001614, 0.002695, 0.025433,1,-0.000603,-0.035754,-0.994460, 0.000398, 0.006053, 0.021796,-0.006529,-0.101152,-0.145670,-0.000001, 0.000002, 0.000006,1,0
1777416250585758185,1089749000000,  1089.749,-0.000012,-0.000231,-0.010012,-0.000089,-0.000013, 0.000059,-0.362690,-0.463283, 0.077488,1,-0.001878, 0.006612, 0.015452,1,-0.000510,-0.032343,-0.995789,-0.005032, 0.002919, 0.011113,-0.006403,-0.101181,-0.145747,-0.000001, 0.000002, 0.000006,1,0
1777416250605035011,1089769000000,  1089.769, 0.000092,-0.000010,-0.009938,-0.000087, 0.000062, 0.000083,-0.359735,-0.279405, 0.043083,1,-0.006016, 0.004519, 0.008296,1, 0.004522,-0.011974,-0.994948,-0.007206, 0.005270, 0.008386,-0.006904,-0.101694,-0.146419,-0.000001, 0.000002, 0.000006,1,0
1777416250624916199,1089789000000,  1089.789, 0.000087, 0.000080,-0.009809,-0.000036, 0.000056, 0.000102,-0.324012,-0.146172, 0.000363,1,-0.005822, 0.005916, 0.009202,1, 0.006163,-0.000032,-0.990841,-0.004983, 0.005504, 0.009731,-0.007182,-0.101441,-0.146159,-0.000001, 0.000002, 0.000006,1,0
1777416250634457892,1089799000000,  1089.804, 0.000012, 0.000342,-0.010159,-0.000042,-0.000005, 0.000137,-0.330987, 0.079545,-0.028600,1,-0.004164, 0.002843, 0.011731,1, 0.003593, 0.015126,-1.002194,-0.004165, 0.002844, 0.011737,-0.006889,-0.101735,-0.145543,-0.000001, 0.000002, 0.000006,1,0
1777416250644542923,1089799000000,  1089.804, 0.000012, 0.000342,-0.010159,-0.000042,-0.000005, 0.000137,-0.330987, 0.079545,-0.028600,1,-0.004164, 0.002843, 0.011731,1, 0.003593, 0.015126,-1.002194,-0.004165, 0.002844, 0.011737,-0.006889,-0.101735,-0.145543,-0.000001, 0.000002, 0.000006,1,0
1777416250654226627,1089819000000,  1089.824,-0.000038, 0.000266,-0.010174,-0.000032, 0.000039, 0.000207,-0.372645, 0.156267,-0.034177,1,-0.003811, 0.003621, 0.017159,1,-0.000608, 0.023022,-1.002761,-0.003812, 0.003623, 0.017165,-0.006703,-0.101509,-0.145057,-0.000001, 0.000002, 0.000006,1,0
1777416250664311565,1089819000000,  1089.824,-0.000038, 0.000266,-0.010174,-0.000032, 0.000039, 0.000207,-0.372645, 0.156267,-0.034177,1,-0.003811, 0.003621, 0.017159,1,-0.000608, 0.023022,-1.002761,-0.003812, 0.003623, 0.017165,-0.006703,-0.101509,-0.145057,-0.000001, 0.000002, 0.000006,1,0
1777416250684050131,1089839000000,  1089.844, 0.000032,-0.000024,-0.009929,-0.000031,-0.000007, 0.000229,-0.339766, 0.003325, 0.028952,1,-0.001541, 0.002260, 0.021172,1, 0.002824, 0.007431,-0.996320,-0.001542, 0.002262, 0.021179,-0.006476,-0.101133,-0.145202,-0.000001, 0.000002, 0.000006,1,0
1777416250703785438,1089859000000,  1089.864, 0.000118,-0.000107,-0.009764,-0.000004,-0.000022, 0.000194,-0.293232,-0.123564, 0.073545,1, 0.000918,-0.000441, 0.020658,1, 0.007588,-0.005546,-0.991773, 0.000918,-0.000439, 0.020664,-0.006082,-0.101197,-0.145899,-0.000001, 0.000002, 0.000006,1,0
1777416250713417674,1089879000000,  1089.884, 0.000240,-0.000055,-0.009861,-0.000009, 0.000039, 0.000169,-0.244111,-0.161536, 0.043947,1, 0.000093, 0.002552, 0.018262,1, 0.012620,-0.009469,-0.994790, 0.000092, 0.002553, 0.018268,-0.006219,-0.101195,-0.146393,-0.000001, 0.000002, 0.000006,1,0
1777416250723502983,1089879000000,  1089.884, 0.000240,-0.000055,-0.009861,-0.000009, 0.000039, 0.000169,-0.244111,-0.161536, 0.043947,1, 0.000093, 0.002552, 0.018262,1, 0.012620,-0.009469,-0.994790, 0.000092, 0.002553, 0.018268,-0.006219,-0.101195,-0.146393,-0.000001, 0.000002, 0.000006,1,0
1777416250733189928,1089899000000,  1089.904, 0.000216,-0.000042,-0.009994,-0.000032, 0.000017, 0.000218,-0.198004,-0.125891, 0.023149,1,-0.001652, 0.003335, 0.020565,1, 0.017404,-0.005858,-0.996908,-0.001653, 0.003337, 0.020571,-0.006237,-0.101143,-0.146223,-0.000001, 0.000002, 0.000006,1,0
1777416250743275830,1089899000000,  1089.904, 0.000216,-0.000042,-0.009994,-0.000032, 0.000017, 0.000218,-0.198004,-0.125891, 0.023149,1,-0.001652, 0.003335, 0.020565,1, 0.017404,-0.005858,-0.996908,-0.001653, 0.003337, 0.020571,-0.006237,-0.101143,-0.146223,-0.000001, 0.000002, 0.000006,1,0
1777416250763009173,1089919000000,  1089.924, 0.000159,-0.000065,-0.009989,-0.000001, 0.000033, 0.000234,-0.227872,-0.111613, 0.028035,1,-0.001011, 0.002189, 0.022374,1, 0.014399,-0.004403,-0.996408,-0.001011, 0.002190, 0.022380,-0.006359,-0.101215,-0.146237,-0.000001, 0.000002, 0.000006,1,0
1777416250782745905,1089939000000,  1089.944, 0.000154,-0.000216,-0.009981, 0.000017, 0.000036, 0.000204,-0.221885,-0.214836, 0.038380,1, 0.000184, 0.002978, 0.021528,1, 0.015058,-0.014933,-0.995352, 0.000184, 0.002980, 0.021534,-0.006067,-0.101265,-0.146186,-0.000001, 0.000002, 0.000006,1,0
1777416250792375753,1089959000000,  1089.964, 0.000102,-0.000167,-0.009958,-0.000012,-0.000014, 0.000117,-0.238221,-0.228284, 0.036018,1,-0.001537, 0.000152, 0.015627,1, 0.013273,-0.016334,-0.995597,-0.001538, 0.000154, 0.015633,-0.006309,-0.101383,-0.146345,-0.000001, 0.000002, 0.000006,1,0
1777416250802460858,1089959000000,  1089.964, 0.000102,-0.000167,-0.009958,-0.000012,-0.000014, 0.000117,-0.238221,-0.228284, 0.036018,1,-0.001537, 0.000152, 0.015627,1, 0.013273,-0.016334,-0.995597,-0.001538, 0.000154, 0.015633,-0.006309,-0.101383,-0.146345,-0.000001, 0.000002, 0.000006,1,0
1777416250812137802,1089979000000,  1089.984, 0.000056,-0.000025,-0.009993,-0.000011, 0.000049, 0.000096,-0.278455,-0.144895, 0.039388,1,-0.002467, 0.002785, 0.011206,1, 0.008909,-0.007872,-0.995263,-0.002468, 0.002787, 0.011212,-0.006426,-0.101382,-0.146226,-0.000001, 0.000002, 0.000006,1,0
1777416250822222963,1089979000000,  1089.984, 0.000056,-0.000025,-0.009993,-0.000011, 0.000049, 0.000096,-0.278455,-0.144895, 0.039388,1,-0.002467, 0.002785, 0.011206,1, 0.008909,-0.007872,-0.995263,-0.002468, 0.002787, 0.011212,-0.006426,-0.101382,-0.146226,-0.000001, 0.000002, 0.000006,1,0
1777416250837756014,1089999000000,  1090.004,-0.000072, 0.000137,-0.010048,-0.000015, 0.000034, 0.000129,-0.371197,-0.038064, 0.014153,1,-0.003187, 0.003394, 0.012053,1,-0.000563, 0.003061,-0.997837,-0.003188, 0.003396, 0.012060,-0.006281,-0.101468,-0.146871,-0.000001, 0.000002, 0.000006,1,0
1777416250847543189,1090019000000,  1090.024,-0.000219, 0.000248,-0.010159,-0.000016, 0.000033, 0.000229,-0.501842, 0.098618,-0.029339,1,-0.002454, 0.003095, 0.018505,1,-0.013854, 0.017042,-1.002271,-0.002455, 0.003097, 0.018512,-0.006126,-0.101854,-0.146986,-0.000001, 0.000002, 0.000006,1,0
1777416250857649555,1090019000000,  1090.024,-0.000219, 0.000248,-0.010159,-0.000016, 0.000033, 0.000229,-0.501842, 0.098618,-0.029339,1,-0.002454, 0.003095, 0.018505,1,-0.013854, 0.017042,-1.002271,-0.002455, 0.003097, 0.018512,-0.006126,-0.101854,-0.146986,-0.000001, 0.000002, 0.000006,1,0
1777416250867239770,1090039000000,  1090.039,-0.000211,-0.000120,-0.010237,-0.000014,-0.000008, 0.000243,-0.560316,-0.082410,-0.056563,1,-0.001535, 0.001663, 0.022932,1,-0.019756,-0.001395,-1.005044,-0.001536, 0.001664, 0.022938,-0.006323,-0.101606,-0.146011,-0.000001, 0.000002, 0.000006,1,0
1777416250877348173,1090039000000,  1090.039,-0.000211,-0.000120,-0.010237,-0.000014,-0.000008, 0.000243,-0.560316,-0.082410,-0.056563,1,-0.001535, 0.001663, 0.022932,1,-0.019756,-0.001395,-1.005044,-0.001536, 0.001664, 0.022938,-0.006323,-0.101606,-0.146011,-0.000001, 0.000002, 0.000006,1,0
1777416250896718099,1090059000000,  1090.059, 0.000030, 0.000077,-0.009998, 0.000020,-0.000018, 0.000220,-0.429197,-0.055629, 0.008613,1, 0.001859,-0.000057, 0.022260,1,-0.006365, 0.001295,-0.998398, 0.001858,-0.000055, 0.022267,-0.006305,-0.101294,-0.145965,-0.000001, 0.000002, 0.000006,1,0
1777416250906354280,1090079000000,  1090.079, 0.000235,-0.000156,-0.009852,-0.000004, 0.000024, 0.000214,-0.342936,-0.073724, 0.040777,1, 0.003893, 0.000375, 0.022555,1, 0.012205,-0.007729,-0.991393, 0.001981, 0.001392, 0.022097,-0.006327,-0.101253,-0.145572,-0.000001, 0.000002, 0.000006,1,0
1777416250916440330,1090079000000,  1090.079, 0.000235,-0.000156,-0.009852,-0.000004, 0.000024, 0.000214,-0.342936,-0.073724, 0.040777,1, 0.003893, 0.000375, 0.022555,1, 0.012205,-0.007729,-0.991393, 0.001981, 0.001392, 0.022097,-0.006327,-0.101253,-0.145572,-0.000001, 0.000002, 0.000006,1,0
1777416250926107477,1090099000000,  1090.099, 0.000112,-0.000179,-0.009945,-0.000031, 0.000037, 0.000179,-0.201139,-0.201172, 0.051516,1, 0.000078, 0.000852, 0.021040,1, 0.014185,-0.015734,-0.993967,-0.001363, 0.002269, 0.019568,-0.006246,-0.101421,-0.145961,-0.000001, 0.000002, 0.000006,1,0
1777416250936192101,1090099000000,  1090.099, 0.000112,-0.000179,-0.009945,-0.000031, 0.000037, 0.000179,-0.201139,-0.201172, 0.051516,1, 0.000078, 0.000852, 0.021040,1, 0.014185,-0.015734,-0.993967,-0.001363, 0.002269, 0.019568,-0.006246,-0.101421,-0.145961,-0.000001, 0.000002, 0.000006,1,0
1777416250955991597,1090119000000,  1090.119,-0.000046,-0.000083,-0.010006,-0.000018, 0.000062, 0.000165,-0.265492,-0.196867, 0.049537,1,-0.002377, 0.003555, 0.018186,1, 0.003399,-0.010926,-0.996675,-0.002013, 0.004728, 0.017419,-0.006218,-0.101470,-0.146472,-0.000001, 0.000002, 0.000006,1,0
1777416250965605147,1090139000000,  1090.139,-0.000043,-0.000038,-0.010046,-0.000055,-0.000006, 0.000167,-0.374016,-0.162933, 0.059421,1,-0.003018, 0.003719, 0.016755,1,-0.002526,-0.007169,-0.998199,-0.003984, 0.001852, 0.016819,-0.006265,-0.101407,-0.146555,-0.000001, 0.000002, 0.000006,1,0
1777416250975752721,1090139000000,  1090.139,-0.000043,-0.000038,-0.010046,-0.000055,-0.000006, 0.000167,-0.374016,-0.162933, 0.059421,1,-0.003018, 0.003719, 0.016755,1,-0.002526,-0.007169,-0.998199,-0.003984, 0.001852, 0.016819,-0.006265,-0.101407,-0.146555,-0.000001, 0.000002, 0.000006,1,0
1777416250985370586,1090159000000,  1090.159,-0.000008,-0.000170,-0.010013,-0.000045, 0.000039, 0.000134,-0.402756,-0.172348, 0.048773,1,-0.004207, 0.002714, 0.016185,1,-0.002164,-0.013430,-0.997891,-0.004382, 0.003306, 0.014835,-0.006704,-0.101676,-0.146287,-0.000001, 0.000002, 0.000006,1,0
1777416250995455654,1090159000000,  1090.159,-0.000008,-0.000170,-0.010013,-0.000045, 0.000039, 0.000134,-0.402756,-0.172348, 0.048773,1,-0.004207, 0.002714, 0.016185,1,-0.002164,-0.013430,-0.997891,-0.004382, 0.003306, 0.014835,-0.006704,-0.101676,-0.146287,-0.000001, 0.000002, 0.000006,1,0
1777416251005064704,1090179000000,  1090.179, 0.000068,-0.000122,-0.009917,-0.000060, 0.000040, 0.000083,-0.374085,-0.211666, 0.034442,1,-0.002908, 0.005388, 0.012996,1, 0.002620,-0.013378,-0.994553,-0.004382, 0.004622, 0.010860,-0.006124,-0.101587,-0.145339,-0.000001, 0.000002, 0.000006,1,0
1777416251015150484,1090179000000,  1090.179, 0.000068,-0.000122,-0.009917,-0.000060, 0.000040, 0.000083,-0.374085,-0.211666, 0.034442,1,-0.002908, 0.005388, 0.012996,1, 0.002620,-0.013378,-0.994553,-0.004382, 0.004622, 0.010860,-0.006124,-0.101587,-0.145339,-0.000001, 0.000002, 0.000006,1,0
1777416251034931553,1090199000000,  1090.199, 0.000112, 0.000060,-0.009913,-0.000037, 0.000032, 0.000090,-0.317974,-0.153428, 0.013250,1,-0.004397, 0.003785, 0.009634,1, 0.007985,-0.001727,-0.995085,-0.004092, 0.003579, 0.009379,-0.006371,-0.101839,-0.145485,-0.000001, 0.000002, 0.000006,1,0
1777416251044562669,1090219000000,  1090.219, 0.000248, 0.000365,-0.009884, 0.000022, 0.000071, 0.000196,-0.246135, 0.031426,-0.002943,1,-0.002955, 0.004290, 0.010830,1, 0.018055, 0.022107,-0.994359,-0.000643, 0.005625, 0.014959,-0.006311,-0.101769,-0.146345,-0.000001, 0.000002, 0.000006,1,0
1777416251054647764,1090219000000,  1090.219, 0.000248, 0.000365,-0.009884, 0.000022, 0.000071, 0.000196,-0.246135, 0.031426,-0.002943,1,-0.002955, 0.004290, 0.010830,1, 0.018055, 0.022107,-0.994359,-0.000643, 0.005625, 0.014959,-0.006311,-0.101769,-0.146345,-0.000001, 0.000002, 0.000006,1,0
1777416251064313494,1090229000000,  1090.234, 0.000159, 0.000193,-0.009909,-0.000022, 0.000038, 0.000233,-0.187306, 0.139336, 0.063768,1,-0.001690, 0.004623, 0.018666,1, 0.018424, 0.021325,-0.992768,-0.001691, 0.004625, 0.018672,-0.006550,-0.101574,-0.145842,-0.000001, 0.000002, 0.000006,1,0
1777416251074398516,1090229000000,  1090.234, 0.000159, 0.000193,-0.009909,-0.000022, 0.000038, 0.000233,-0.187306, 0.139336, 0.063768,1,-0.001690, 0.004623, 0.018666,1, 0.018424, 0.021325,-0.992768,-0.001691, 0.004625, 0.018672,-0.006550,-0.101574,-0.145842,-0.000001, 0.000002, 0.000006,1,0
1777416251084072005,1090249000000,  1090.254, 0.000114,-0.000006,-0.009763,-0.000005, 0.000044, 0.000284,-0.242096, 0.040429, 0.098055,1,-0.001046, 0.004290, 0.025205,1, 0.012924, 0.011225,-0.989268,-0.001046, 0.004292, 0.025211,-0.006599,-0.101460,-0.146166,-0.000001, 0.000002, 0.000006,1,0
1777416251094156971,1090249000000,  1090.254, 0.000114,-0.000006,-0.009763,-0.000005, 0.000044, 0.000284,-0.242096, 0.040429, 0.098055,1,-0.001046, 0.004290, 0.025205,1, 0.012924, 0.011225,-0.989268,-0.001046, 0.004292, 0.025211,-0.006599,-0.101460,-0.146166,-0.000001, 0.000002, 0.000006,1,0
1777416251113818586,1090269000000,  1090.274, 0.000032,-0.000331,-0.009885,-0.000024, 0.000005, 0.000271,-0.304329,-0.223658, 0.053403,1,-0.002457, 0.001405, 0.026814,1, 0.006621,-0.015697,-0.993820,-0.002458, 0.001406, 0.026820,-0.006578,-0.101401,-0.146721,-0.000001, 0.000002, 0.000006,1,0
1777416251123525263,1090289000000,  1090.294, 0.000000,-0.000286,-0.009983,-0.000044,-0.000114, 0.000169,-0.348216,-0.341094, 0.017961,1,-0.004544,-0.006693, 0.020768,1, 0.002097,-0.027607,-0.997435,-0.004544,-0.006691, 0.020774,-0.006607,-0.101273,-0.145464,-0.000001, 0.000002, 0.000006,1,0
1777416251133627101,1090289000000,  1090.294, 0.000000,-0.000286,-0.009983,-0.000044,-0.000114, 0.000169,-0.348216,-0.341094, 0.017961,1,-0.004544,-0.006693, 0.020768,1, 0.002097,-0.027607,-0.997435,-0.004544,-0.006691, 0.020774,-0.006607,-0.101273,-0.145464,-0.000001, 0.000002, 0.000006,1,0
1777416251143289571,1090309000000,  1090.314,-0.000016, 0.000101,-0.010067,-0.000113,-0.000259, 0.000128,-0.365404,-0.128572, 0.027023,1,-0.008131,-0.017985, 0.015205,1, 0.000107,-0.005821,-0.996519,-0.008132,-0.017984, 0.015212,-0.006504,-0.101450,-0.145299,-0.000001, 0.000002, 0.000006,1,0
1777416251153375204,1090309000000,  1090.314,-0.000016, 0.000101,-0.010067,-0.000113,-0.000259, 0.000128,-0.365404,-0.128572, 0.027023,1,-0.008131,-0.017985, 0.015205,1, 0.000107,-0.005821,-0.996519,-0.008132,-0.017984, 0.015212,-0.006504,-0.101450,-0.145299,-0.000001, 0.000002, 0.000006,1,0
1777416251163036044,1090329000000,  1090.334, 0.000025, 0.000063,-0.009883,-0.000072,-0.000254, 0.000174,-0.373887,-0.030204, 0.079721,1,-0.006903,-0.019281, 0.016279,1,-0.001061, 0.004330,-0.991156,-0.006903,-0.019280, 0.016286,-0.005959,-0.101250,-0.145603,-0.000001, 0.000002, 0.000006,1,0
1777416251173119769,1090329000000,  1090.334, 0.000025, 0.000063,-0.009883,-0.000072,-0.000254, 0.000174,-0.373887,-0.030204, 0.079721,1,-0.006903,-0.019281, 0.016279,1,-0.001061, 0.004330,-0.991156,-0.006903,-0.019280, 0.016286,-0.005959,-0.101250,-0.145603,-0.000001, 0.000002, 0.000006,1,0
1777416251192778940,1090349000000,  1090.354,-0.001059, 0.000759,-0.009819, 0.000051,-0.000032, 0.000103,-0.893217, 0.311182, 0.079575,1,-0.000704,-0.014157, 0.013998,1,-0.054475, 0.039240,-0.991187,-0.000704,-0.014155, 0.014005,-0.006138,-0.101486,-0.145921,-0.000001, 0.000002, 0.000006,1,0
1777416251202468727,1090369000000,  1090.374,-0.000457,-0.001113,-0.009527,-0.000297, 0.000297, 0.000082,-0.812719,-0.399628, 0.073932,1,-0.011407, 0.010756, 0.007800,1,-0.046604,-0.033337,-0.991775,-0.011407, 0.010758, 0.007807,-0.006239,-0.101602,-0.146973,-0.000001, 0.000002, 0.000006,1,0
1777416251212553174,1090369000000,  1090.374,-0.000457,-0.001113,-0.009527,-0.000297, 0.000297, 0.000082,-0.812719,-0.399628, 0.073932,1,-0.011407, 0.010756, 0.007800,1,-0.046604,-0.033337,-0.991775,-0.011407, 0.010758, 0.007807,-0.006239,-0.101602,-0.146973,-0.000001, 0.000002, 0.000006,1,0
1777416251222226386,1090389000000,  1090.394,-0.000473,-0.000408,-0.009786,-0.000040, 0.000076,-0.000039,-0.947227,-0.520052, 0.048243,1,-0.006355, 0.006903, 0.001836,1,-0.060312,-0.045474,-0.994394,-0.006355, 0.006905, 0.001843,-0.006509,-0.101569,-0.146520,-0.000001, 0.000002, 0.000006,1,0
1777416251232310481,1090389000000,  1090.394,-0.000473,-0.000408,-0.009786,-0.000040, 0.000076,-0.000039,-0.947227,-0.520052, 0.048243,1,-0.006355, 0.006903, 0.001836,1,-0.060312,-0.045474,-0.994394,-0.006355, 0.006905, 0.001843,-0.006509,-0.101569,-0.146520,-0.000001, 0.000002, 0.000006,1,0
1777416251247852018,1090409000000,  1090.414,-0.000245, 0.000289,-0.009529, 0.000034, 0.000067, 0.000078,-0.757367,-0.000119, 0.155014,1, 0.000026, 0.007203, 0.004134,1,-0.040842, 0.007585,-0.983502, 0.000026, 0.007205, 0.004141,-0.006533,-0.101803,-0.145861,-0.000001, 0.000002, 0.000006,1,0
1777416251257544861,1090429000000,  1090.434, 0.000197, 0.000356,-0.009835,-0.000051, 0.000113, 0.000282,-0.386801, 0.254176, 0.044897,1,-0.003639, 0.011852, 0.018994,1,-0.002824, 0.033538,-0.994722,-0.003640, 0.011854, 0.019000,-0.005894,-0.101354,-0.146541,-0.000001, 0.000002, 0.000006,1,0
1777416251267630790,1090429000000,  1090.434, 0.000197, 0.000356,-0.009835,-0.000051, 0.000113, 0.000282,-0.386801, 0.254176, 0.044897,1,-0.003639, 0.011852, 0.018994,1,-0.002824, 0.033538,-0.994722,-0.003640, 0.011854, 0.019000,-0.005894,-0.101354,-0.146541,-0.000001, 0.000002, 0.000006,1,0
1777416251277311132,1090449000000,  1090.449,-0.000055,-0.000022,-0.009740, 0.000017, 0.000023, 0.000346,-0.380526, 0.067928, 0.129349,1,-0.001410, 0.003157, 0.030238,1,-0.002093, 0.014605,-0.986107,-0.001410, 0.003158, 0.030245,-0.006047,-0.101523,-0.146190,-0.000001, 0.000002, 0.000006,1,0
1777416251287409543,1090449000000,  1090.449,-0.000055,-0.000022,-0.009740, 0.000017, 0.000023, 0.000346,-0.380526, 0.067928, 0.129349,1,-0.001410, 0.003157, 0.030238,1,-0.002093, 0.014605,-0.986107,-0.001410, 0.003158, 0.030245,-0.006047,-0.101523,-0.146190,-0.000001, 0.000002, 0.000006,1,0
1777416251297008916,1090469000000,  1090.469,-0.000355,-0.000403,-0.009751,-0.000093, 0.000024, 0.000265,-0.551429,-0.251703, 0.096304,1,-0.004138, 0.000670, 0.028627,1,-0.019515,-0.017986,-0.989476,-0.004138, 0.000672, 0.028633,-0.005810,-0.101360,-0.146601,-0.000001, 0.000002, 0.000006,1,0
1777416251307093512,1090469000000,  1090.469,-0.000355,-0.000403,-0.009751,-0.000093, 0.000024, 0.000265,-0.551429,-0.251703, 0.096304,1,-0.004138, 0.000670, 0.028627,1,-0.019515,-0.017986,-0.989476,-0.004138, 0.000672, 0.028633,-0.005810,-0.101360,-0.146601,-0.000001, 0.000002, 0.000006,1,0
1777416251326506829,1090489000000,  1090.489,-0.000571,-0.000252,-0.009830, 0.000020, 0.000049, 0.000126,-0.674146,-0.354241, 0.001070,1,-0.004517, 0.002161, 0.024004,1,-0.043246,-0.026555,-0.993176,-0.001487, 0.003517, 0.018698,-0.006361,-0.101264,-0.146580,-0.000001, 0.000002, 0.000006,1,0
1777416251336200061,1090509000000,  1090.509,-0.000613, 0.000076,-0.010015,-0.000019,-0.000035, 0.000153,-0.848037,-0.240625, 0.013905,1,-0.000277, 0.002443, 0.015991,1,-0.055289,-0.004898,-1.000630,-0.000937,-0.000302, 0.015779,-0.006367,-0.101317,-0.146613,-0.000001, 0.000002, 0.000006,1,0
1777416251346283898,1090509000000,  1090.509,-0.000613, 0.000076,-0.010015,-0.000019,-0.000035, 0.000153,-0.848037,-0.240625, 0.013905,1,-0.000277, 0.002443, 0.015991,1,-0.055289,-0.004898,-1.000630,-0.000937,-0.000302, 0.015779,-0.006367,-0.101317,-0.146613,-0.000001, 0.000002, 0.000006,1,0
1777416251356016114,1090529000000,  1090.529,-0.000624, 0.000241,-0.009870, 0.000006,-0.000024, 0.000271,-0.932570, 0.025835, 0.080758,1,-0.000323,-0.000455, 0.018245,1,-0.060338, 0.016482,-0.990359, 0.000129,-0.001519, 0.022422,-0.006324,-0.101538,-0.145735,-0.000001, 0.000002, 0.000006,1,0
1777416251366100672,1090529000000,  1090.529,-0.000624, 0.000241,-0.009870, 0.000006,-0.000024, 0.000271,-0.932570, 0.025835, 0.080758,1,-0.000323,-0.000455, 0.018245,1,-0.060338, 0.016482,-0.990359, 0.000129,-0.001519, 0.022422,-0.006324,-0.101538,-0.145735,-0.000001, 0.000002, 0.000006,1,0
1777416251385758065,1090549000000,  1090.549,-0.000801,-0.000058,-0.009795, 0.000047,-0.000063, 0.000254,-1.019816, 0.044679, 0.077168,1, 0.001426,-0.003588, 0.026278,1,-0.073070, 0.004041,-0.987941, 0.002910,-0.004839, 0.025868,-0.006208,-0.101190,-0.145794,-0.000001, 0.000002, 0.000006,1,0
1777416251395393866,1090569000000,  1090.569,-0.000686,-0.000185,-0.009645,-0.000017,-0.000091, 0.000222,-1.085126,-0.068084,-0.038291,1, 0.002008,-0.005960, 0.024659,1,-0.071819,-0.008112,-0.986540, 0.000132,-0.007418, 0.023576,-0.006352,-0.101249,-0.145604,-0.000001, 0.000002, 0.000006,1,0
1777416251405477906,1090569000000,  1090.569,-0.000686,-0.000185,-0.009645,-0.000017,-0.000091, 0.000222,-1.085126,-0.068084,-0.038291,1, 0.002008,-0.005960, 0.024659,1,-0.071819,-0.008112,-0.986540, 0.000132,-0.007418, 0.023576,-0.006352,-0.101249,-0.145604,-0.000001, 0.000002, 0.000006,1,0
1777416251415152488,1090589000000,  1090.589,-0.001167,-0.000438,-0.010014,-0.000152,-0.000060, 0.000181,-1.159235,-0.251342, 0.107932,1,-0.003213,-0.008084, 0.022703,1,-0.097786,-0.029699,-0.999121,-0.008844,-0.006989, 0.020418,-0.006255,-0.101473,-0.146422,-0.000001, 0.000002, 0.000006,1,0
1777416251425237010,1090589000000,  1090.589,-0.001167,-0.000438,-0.010014,-0.000152,-0.000060, 0.000181,-1.159235,-0.251342, 0.107932,1,-0.003213,-0.008084, 0.022703,1,-0.097786,-0.029699,-0.999121,-0.008844,-0.006989, 0.020418,-0.006255,-0.101473,-0.146422,-0.000001, 0.000002, 0.000006,1,0
1777416251444958815,1090609000000,  1090.609,-0.001150, 0.000950,-0.012520,-0.000327, 0.000081, 0.000007,-1.351843,-0.650399, 0.582739,1,-0.024307,-0.013302, 0.017096,1,-0.097586, 0.008861,-1.098490,-0.028040,-0.005185, 0.010308,-0.006453,-0.101539,-0.146820,-0.000001, 0.000002, 0.000006,1,0
1777416251454654269,1090629000000,  1090.629,-0.000992, 0.000101,-0.012386,-0.000082,-0.000202, 0.000337,-1.828937, 0.183908, 0.973726,1,-0.029460, 0.000554, 0.013214,1,-0.136047, 0.019295,-1.016023,-0.018237,-0.010265, 0.022950,-0.006437,-0.101422,-0.146588,-0.000001, 0.000002, 0.000006,1,0
1777416251464738679,1090629000000,  1090.629,-0.000992, 0.000101,-0.012386,-0.000082,-0.000202, 0.000337,-1.828937, 0.183908, 0.973726,1,-0.029460, 0.000554, 0.013214,1,-0.136047, 0.019295,-1.016023,-0.018237,-0.010265, 0.022950,-0.006437,-0.101422,-0.146588,-0.000001, 0.000002, 0.000006,1,0
1777416251474349664,1090639000000,  1090.644,-0.000931, 0.000022,-0.009705,-0.000140, 0.000110, 0.000313,-1.492381, 0.044383,-0.149089,1,-0.016871,-0.001272, 0.026730,1,-0.116262, 0.013211,-1.014520,-0.016871,-0.001270, 0.026737,-0.006498,-0.101440,-0.146520,-0.000001, 0.000002, 0.000006,1,0
1777416251484434889,1090639000000,  1090.644,-0.000931, 0.000022,-0.009705,-0.000140, 0.000110, 0.000313,-1.492381, 0.044383,-0.149089,1,-0.016871,-0.001272, 0.026730,1,-0.116262, 0.013211,-1.014520,-0.016871,-0.001270, 0.026737,-0.006498,-0.101440,-0.146520,-0.000001, 0.000002, 0.000006,1,0
1777416251494112657,1090659000000,  1090.664,-0.000743, 0.000297,-0.010493,-0.000214, 0.000059, 0.000406,-1.330332, 0.255701,-0.176786,1,-0.017428,-0.000918, 0.034626,1,-0.099798, 0.035044,-1.017344,-0.017429,-0.000916, 0.034633,-0.006277,-0.101145,-0.145442,-0.000001, 0.000002, 0.000006,1,0
1777416251504196845,1090659000000,  1090.664,-0.000743, 0.000297,-0.010493,-0.000214, 0.000059, 0.000406,-1.330332, 0.255701,-0.176786,1,-0.017428,-0.000918, 0.034626,1,-0.099798, 0.035044,-1.017344,-0.017429,-0.000916, 0.034633,-0.006277,-0.101145,-0.145442,-0.000001, 0.000002, 0.000006,1,0
1777416251523913557,1090679000000,  1090.684,-0.000572, 0.000122,-0.011434,-0.000209, 0.000023, 0.000489,-1.139500, 0.167525,-0.475365,1,-0.015700,-0.001682, 0.045050,1,-0.080394, 0.026324,-1.047790,-0.015701,-0.001680, 0.045057,-0.006420,-0.100693,-0.145577,-0.000001, 0.000002, 0.000006,1,0
1777416251533619901,1090699000000,  1090.704,-0.000628,-0.000575,-0.010882, 0.000028, 0.000072, 0.000392,-1.027538,-0.380957,-0.216480,1,-0.003287, 0.004284, 0.042018,1,-0.068949,-0.029487,-1.021389,-0.003288, 0.004285, 0.042025,-0.006566,-0.100427,-0.145264,-0.000001, 0.000002, 0.000006,1,0
1777416251543705515,1090699000000,  1090.704,-0.000628,-0.000575,-0.010882, 0.000028, 0.000072, 0.000392,-1.027538,-0.380957,-0.216480,1,-0.003287, 0.004284, 0.042018,1,-0.068949,-0.029487,-1.021389,-0.003288, 0.004285, 0.042025,-0.006566,-0.100427,-0.145264,-0.000001, 0.000002, 0.000006,1,0
1777416251553309388,1090719000000,  1090.724,-0.000394, 0.000189,-0.010860, 0.000184, 0.000058, 0.000332,-0.873983,-0.039044,-0.285759,1, 0.011202, 0.005891, 0.035843,1,-0.053162, 0.005230,-1.028450, 0.011201, 0.005892, 0.035849,-0.006579,-0.100187,-0.145672,-0.000001, 0.000002, 0.000006,1,0
1777416251563394706,1090719000000,  1090.724,-0.000394, 0.000189,-0.010860, 0.000184, 0.000058, 0.000332,-0.873983,-0.039044,-0.285759,1, 0.011202, 0.005891, 0.035843,1,-0.053162, 0.005230,-1.028450, 0.011201, 0.005892, 0.035849,-0.006579,-0.100187,-0.145672,-0.000001, 0.000002, 0.000006,1,0
1777416251573064158,1090739000000,  1090.744, 0.000083, 0.000274,-0.010308, 0.000215, 0.000092, 0.000432,-0.513763, 0.063774,-0.098356,1, 0.016853, 0.012096, 0.040363,1,-0.016152, 0.015454,-1.009332, 0.016852, 0.012098, 0.040369,-0.006316,-0.100190,-0.146202,-0.000001, 0.000002, 0.000006,1,0
1777416251583148068,1090739000000,  1090.744, 0.000083, 0.000274,-0.010308, 0.000215, 0.000092, 0.000432,-0.513763, 0.063774,-0.098356,1, 0.016853, 0.012096, 0.040363,1,-0.016152, 0.015454,-1.009332, 0.016852, 0.012098, 0.040369,-0.006316,-0.100190,-0.146202,-0.000001, 0.000002, 0.000006,1,0
1777416251602445433,1090759000000,  1090.764, 0.000193,-0.000524,-0.010284, 0.000277,-0.000001, 0.000272,-0.226701,-0.440880,-0.093691,1, 0.024921, 0.007132, 0.033132,1, 0.013302,-0.036530,-1.008855, 0.024921, 0.007134, 0.033139,-0.006806,-0.100524,-0.146391,-0.000001, 0.000002, 0.000006,1,0
1777416251612141850,1090779000000,  1090.784, 0.000202, 0.000451,-0.009227, 0.000394, 0.000099, 0.000188,-0.096446,-0.034591, 0.349842,1, 0.030206, 0.007702, 0.023455,1, 0.026659, 0.004317,-0.963629, 0.030205, 0.007704, 0.023462,-0.006570,-0.100195,-0.145713,-0.000001, 0.000002, 0.000006,1,0
1777416251622227964,1090779000000,  1090.784, 0.000202, 0.000451,-0.009227, 0.000394, 0.000099, 0.000188,-0.096446,-0.034591, 0.349842,1, 0.030206, 0.007702, 0.023455,1, 0.026659, 0.004317,-0.963629, 0.030205, 0.007704, 0.023462,-0.006570,-0.100195,-0.145713,-0.000001, 0.000002, 0.000006,1,0
1777416251637754722,1090799000000,  1090.804, 0.000133, 0.000172,-0.009085, 0.000297,-0.000142, 0.000282,-0.154379, 0.005924, 0.273297,1, 0.030221,-0.003187, 0.026258,1, 0.020787, 0.007775,-0.971438, 0.030221,-0.003186, 0.026265,-0.006252,-0.100399,-0.145997,-0.000001, 0.000002, 0.000006,1,0
1777416251647453602,1090819000000,  1090.824, 0.000347,-0.000428,-0.009355, 0.000312, 0.000008, 0.000297, 0.028899,-0.231297, 0.157548,1, 0.025985, 0.001222, 0.026493,1, 0.039502,-0.017013,-0.983244, 0.025985, 0.001224, 0.026499,-0.006770,-0.099887,-0.145799,-0.000001, 0.000002, 0.000006,1,0
1777416251657538587,1090819000000,  1090.824, 0.000347,-0.000428,-0.009355, 0.000312, 0.000008, 0.000297, 0.028899,-0.231297, 0.157548,1, 0.025985, 0.001222, 0.026493,1, 0.039502,-0.017013,-0.983244, 0.025985, 0.001224, 0.026499,-0.006770,-0.099887,-0.145799,-0.000001, 0.000002, 0.000006,1,0
1777416251667206743,1090839000000,  1090.839, 0.000691, 0.000085,-0.009828, 0.000272,-0.000039, 0.000176, 0.250014,-0.146671, 0.053711,1, 0.021557, 0.000545, 0.020070,1, 0.062124,-0.008783,-0.993833, 0.021557, 0.000547, 0.020076,-0.006709,-0.099858,-0.145817,-0.000001, 0.000002, 0.000006,1,0
1777416251677291505,1090839000000,  1090.839, 0.000691, 0.000085,-0.009828, 0.000272,-0.000039, 0.000176, 0.250014,-0.146671, 0.053711,1, 0.021557, 0.000545, 0.020070,1, 0.062124,-0.008783,-0.993833, 0.021557, 0.000547, 0.020076,-0.006709,-0.099858,-0.145817,-0.000001, 0.000002, 0.000006,1,0
1777416251696648726,1090859000000,  1090.859, 0.000385,-0.000519,-0.009741, 0.000415,-0.000006, 0.000052, 0.300157,-0.304270,-0.225084,1, 0.020971, 0.000516, 0.014164,1, 0.053582,-0.039159,-1.005304, 0.029891, 0.000823, 0.009758,-0.006270,-0.099772,-0.146216,-0.000001, 0.000002, 0.000006,1,0
1777416251706340865,1090879000000,  1090.879, 0.000010,-0.000702,-0.009910, 0.000177, 0.000114,-0.000194, 0.117484,-0.538104, 0.144159,1, 0.031545, 0.001394, 0.000498,1, 0.027830,-0.058589,-0.990400, 0.024894, 0.006017,-0.008927,-0.006517,-0.099552,-0.145497,-0.000001, 0.000002, 0.000006,1,0
1777416251716425812,1090879000000,  1090.879, 0.000010,-0.000702,-0.009910, 0.000177, 0.000114,-0.000194, 0.117484,-0.538104, 0.144159,1, 0.031545, 0.001394, 0.000498,1, 0.027830,-0.058589,-0.990400, 0.024894, 0.006017,-0.008927,-0.006517,-0.099552,-0.145497,-0.000001, 0.000002, 0.000006,1,0
1777416251726098209,1090899000000,  1090.899, 0.000269,-0.000335,-0.010235, 0.000117, 0.000116,-0.000362,-0.161502,-0.573567, 0.101269,1, 0.023194, 0.006590,-0.017887,1, 0.024238,-0.044037,-1.006982, 0.017789, 0.008805,-0.026338,-0.006338,-0.099421,-0.145136,-0.000001, 0.000002, 0.000006,1,0
1777416251736182527,1090899000000,  1090.899, 0.000269,-0.000335,-0.010235, 0.000117, 0.000116,-0.000362,-0.161502,-0.573567, 0.101269,1, 0.023194, 0.006590,-0.017887,1, 0.024238,-0.044037,-1.006982, 0.017789, 0.008805,-0.026338,-0.006338,-0.099421,-0.145136,-0.000001, 0.000002, 0.000006,1,0
1777416251755907554,1090919000000,  1090.919, 0.000259,-0.000292,-0.010105, 0.000255, 0.000072,-0.000410,-0.159726,-0.346937, 0.139636,1, 0.020556, 0.009106,-0.031906,1, 0.021291,-0.031547,-0.997317, 0.023073, 0.008067,-0.035799,-0.006415,-0.099428,-0.145020,-0.000001, 0.000002, 0.000006,1,0
1777416251765598249,1090939000000,  1090.939,-0.000279,-0.000245,-0.009970, 0.000172, 0.000038,-0.000441,-0.424652,-0.393966, 0.228445,1, 0.018814, 0.008454,-0.038669,1,-0.019462,-0.034754,-0.975638, 0.018542, 0.005735,-0.040167,-0.005934,-0.100043,-0.146060,-0.000001, 0.000002, 0.000006,1,0
1777416251775695160,1090939000000,  1090.939,-0.000279,-0.000245,-0.009970, 0.000172, 0.000038,-0.000441,-0.424652,-0.393966, 0.228445,1, 0.018814, 0.008454,-0.038669,1,-0.019462,-0.034754,-0.975638, 0.018542, 0.005735,-0.040167,-0.005934,-0.100043,-0.146060,-0.000001, 0.000002, 0.000006,1,0
1777416251785303793,1090959000000,  1090.959,-0.000610,-0.000809,-0.009804, 0.000074,-0.000019,-0.000390,-0.678418,-0.260456,-0.149775,1, 0.007933, 0.011060,-0.043192,1,-0.046745,-0.049287,-0.990590, 0.007933, 0.004623,-0.041391,-0.006112,-0.100531,-0.146417,-0.000001, 0.000002, 0.000006,1,0
1777416251795387814,1090959000000,  1090.959,-0.000610,-0.000809,-0.009804, 0.000074,-0.000019,-0.000390,-0.678418,-0.260456,-0.149775,1, 0.007933, 0.011060,-0.043192,1,-0.046745,-0.049287,-0.990590, 0.007933, 0.004623,-0.041391,-0.006112,-0.100531,-0.146417,-0.000001, 0.000002, 0.000006,1,0
1777416251805122049,1090979000000,  1090.979,-0.000680,-0.000569,-0.009908, 0.000116,-0.000014,-0.000425,-0.921068,-0.572657,-0.051432,1, 0.002804, 0.011615,-0.044775,1,-0.064787,-0.054868,-0.989857, 0.006065, 0.004123,-0.043916,-0.006030,-0.100744,-0.146291,-0.000001, 0.000002, 0.000006,1,0
1777416251815207423,1090979000000,  1090.979,-0.000680,-0.000569,-0.009908, 0.000116,-0.000014,-0.000425,-0.921068,-0.572657,-0.051432,1, 0.002804, 0.011615,-0.044775,1,-0.064787,-0.054868,-0.989857, 0.006065, 0.004123,-0.043916,-0.006030,-0.100744,-0.146291,-0.000001, 0.000002, 0.000006,1,0
1777416251834873260,1090999000000,  1090.999,-0.001042,-0.000437,-0.009672, 0.000244, 0.000122,-0.000506,-1.080989,-0.486736,-0.056203,1, 0.004696, 0.010296,-0.048148,1,-0.089478,-0.047158,-0.983059, 0.013106, 0.011669,-0.049371,-0.005761,-0.101246,-0.145826,-0.000001, 0.000002, 0.000006,1,0
1777416251845364868,1091009000000,  1091.014,-0.001179,-0.000530,-0.010087,-0.000047, 0.000030,-0.000660,-1.381436,-0.472437, 0.073042,1, 0.005145, 0.006746,-0.057397,1,-0.104244,-0.045620,-0.991877, 0.005145, 0.006748,-0.057391,-0.006129,-0.101447,-0.145477,-0.000001, 0.000002, 0.000006,1,0
1777416251855472651,1091009000000,  1091.014,-0.001179,-0.000530,-0.010087,-0.000047, 0.000030,-0.000660,-1.381436,-0.472437, 0.073042,1, 0.005145, 0.006746,-0.057397,1,-0.104244,-0.045620,-0.991877, 0.005145, 0.006748,-0.057391,-0.006129,-0.101447,-0.145477,-0.000001, 0.000002, 0.000006,1,0
1777416251874360650,1091029000000,  1091.034,-0.001163,-0.000420,-0.010895, 0.000030, 0.000077,-0.000786,-1.462884,-0.286940,-0.245675,1, 0.001133, 0.007039,-0.071935,1,-0.112418,-0.026759,-1.024373, 0.001133, 0.007040,-0.071928,-0.005963,-0.101973,-0.145393,-0.000001, 0.000002, 0.000006,1,0
1777416251884000952,1091049000000,  1091.054,-0.001610,-0.000498,-0.009476, 0.000005, 0.000011,-0.000881,-1.727244,-0.398726, 0.306263,1,-0.003475, 0.003900,-0.083470,1,-0.139304,-0.038149,-0.968088,-0.003476, 0.003902,-0.083463,-0.005867,-0.102358,-0.146176,-0.000001, 0.000002, 0.000006,1,0
1777416251894085714,1091049000000,  1091.054,-0.001610,-0.000498,-0.009476, 0.000005, 0.000011,-0.000881,-1.727244,-0.398726, 0.306263,1,-0.003475, 0.003900,-0.083470,1,-0.139304,-0.038149,-0.968088,-0.003476, 0.003902,-0.083463,-0.005867,-0.102358,-0.146176,-0.000001, 0.000002, 0.000006,1,0
1777416251913821038,1091069000000,  1091.074,-0.001299,-0.000838,-0.009604, 0.000200, 0.000012,-0.000893,-1.685555,-0.377189, 0.192784,1, 0.009107, 0.001468,-0.088378,1,-0.134983,-0.035913,-0.979657, 0.009107, 0.001469,-0.088371,-0.005376,-0.102972,-0.146373,-0.000001, 0.000002, 0.000006,1,0
1777416251923516604,1091089000000,  1091.094,-0.001289, 0.000399,-0.009769, 0.000098, 0.000014,-0.000852,-1.628240, 0.203109, 0.072717,1, 0.004933, 0.001009,-0.089006,1,-0.129145, 0.023243,-0.991901, 0.004932, 0.001011,-0.088999,-0.005413,-0.103055,-0.146304,-0.000001, 0.000002, 0.000006,1,0
1777416251933602588,1091089000000,  1091.094,-0.001289, 0.000399,-0.009769, 0.000098, 0.000014,-0.000852,-1.628240, 0.203109, 0.072717,1, 0.004933, 0.001009,-0.089006,1,-0.129145, 0.023243,-0.991901, 0.004932, 0.001011,-0.088999,-0.005413,-0.103055,-0.146304,-0.000001, 0.000002, 0.000006,1,0
1777416251943291024,1091109000000,  1091.114,-0.001156, 0.001074,-0.009290,-0.000038,-0.000105,-0.000670,-1.499780, 0.358886, 0.423369,1, 0.007198,-0.001247,-0.070919,1,-0.116054, 0.039158,-0.956145, 0.007198,-0.001245,-0.070912,-0.004873,-0.103794,-0.146543,-0.000001, 0.000002, 0.000006,1,0
1777416251953376749,1091109000000,  1091.114,-0.001156, 0.001074,-0.009290,-0.000038,-0.000105,-0.000670,-1.499780, 0.358886, 0.423369,1, 0.007198,-0.001247,-0.070919,1,-0.116054, 0.039158,-0.956145, 0.007198,-0.001245,-0.070912,-0.004873,-0.103794,-0.146543,-0.000001, 0.000002, 0.000006,1,0
1777416251963007680,1091129000000,  1091.134,-0.000378, 0.000077,-0.010323,-0.000015, 0.000228,-0.000355,-0.910598, 0.442255,-0.607157,1,-0.002449, 0.011259,-0.050732,1,-0.055957, 0.047746,-1.061228,-0.002450, 0.011261,-0.050725,-0.005070,-0.103601,-0.146208,-0.000001, 0.000002, 0.000006,1,0
1777416251973093757,1091129000000,  1091.134,-0.000378, 0.000077,-0.010323,-0.000015, 0.000228,-0.000355,-0.910598, 0.442255,-0.607157,1,-0.002449, 0.011259,-0.050732,1,-0.055957, 0.047746,-1.061228,-0.002450, 0.011261,-0.050725,-0.005070,-0.103601,-0.146208,-0.000001, 0.000002, 0.000006,1,0
1777416251992771243,1091149000000,  1091.154,-0.000632,-0.000490,-0.010222,-0.000297, 0.000134,-0.000232,-0.932311, 0.156043,-0.087437,1,-0.014603, 0.003727,-0.030198,1,-0.058101, 0.018434,-1.008229,-0.014604, 0.003729,-0.030192,-0.004427,-0.103939,-0.145559,-0.000001, 0.000002, 0.000006,1,0
1777416252002473291,1091169000000,  1091.174,-0.000604, 0.000405,-0.012183,-0.000235,-0.000000, 0.000427,-1.072557, 1.006227,-0.579239,1,-0.045139,-0.012976, 0.004028,1,-0.072733, 0.105435,-1.058390,-0.045140,-0.012974, 0.004035,-0.004759,-0.104252,-0.145258,-0.000001, 0.000002, 0.000007,1,0
1777416252012559084,1091169000000,  1091.174,-0.000604, 0.000405,-0.012183,-0.000235,-0.000000, 0.000427,-1.072557, 1.006227,-0.579239,1,-0.045139,-0.012976, 0.004028,1,-0.072733, 0.105435,-1.058390,-0.045140,-0.012974, 0.004035,-0.004759,-0.104252,-0.145258,-0.000001, 0.000002, 0.000007,1,0
1777416252022232879,1091189000000,  1091.194,-0.000204,-0.001304,-0.009752,-0.000883, 0.000342, 0.000532,-0.689314, 0.126467,-0.553115,1,-0.070272, 0.021581, 0.036755,1,-0.033528, 0.016242,-1.055720,-0.070272, 0.021583, 0.036762,-0.004992,-0.104105,-0.146228,-0.000001, 0.000002, 0.000007,1,0
1777416252032318410,1091189000000,  1091.194,-0.000204,-0.001304,-0.009752,-0.000883, 0.000342, 0.000532,-0.689314, 0.126467,-0.553115,1,-0.070272, 0.021581, 0.036755,1,-0.033528, 0.016242,-1.055720,-0.070272, 0.021583, 0.036762,-0.004992,-0.104105,-0.146228,-0.000001, 0.000002, 0.000007,1,0
1777416252047846208,1091209000000,  1091.214,-0.000958, 0.000259,-0.011381, 0.000180,-0.000105, 0.000763,-1.383065,-0.458667, 0.015292,1, 0.002365, 0.006899, 0.070678,1,-0.104160,-0.042858,-0.997753, 0.002364, 0.006901, 0.070685,-0.004957,-0.103952,-0.146927,-0.000001, 0.000002, 0.000007,1,0
1777416252057550246,1091229000000,  1091.234,-0.000833,-0.000122,-0.009027,-0.000493, 0.000403, 0.000723,-1.163879, 0.171682, 0.172110,1,-0.026309, 0.020721, 0.070032,1,-0.081611, 0.021844,-0.981753,-0.026309, 0.020723, 0.070039,-0.004852,-0.103246,-0.146323,-0.000001, 0.000002, 0.000007,1,0
1777416252067635591,1091229000000,  1091.234,-0.000833,-0.000122,-0.009027,-0.000493, 0.000403, 0.000723,-1.163879, 0.171682, 0.172110,1,-0.026309, 0.020721, 0.070032,1,-0.081611, 0.021844,-0.981753,-0.026309, 0.020723, 0.070039,-0.004852,-0.103246,-0.146323,-0.000001, 0.000002, 0.000007,1,0
1777416252077244067,1091249000000,  1091.249,-0.000745, 0.000018,-0.011645,-0.000387, 0.000100, 0.000736,-1.437875, 0.262281,-0.478487,1,-0.025020, 0.001851, 0.073242,1,-0.109323, 0.031585,-1.048084,-0.025020, 0.001853, 0.073249,-0.004386,-0.103125,-0.146459,-0.000001, 0.000002, 0.000007,1,0
1777416252087329430,1091249000000,  1091.249,-0.000745, 0.000018,-0.011645,-0.000387, 0.000100, 0.000736,-1.437875, 0.262281,-0.478487,1,-0.025020, 0.001851, 0.073242,1,-0.109323, 0.031585,-1.048084,-0.025020, 0.001853, 0.073249,-0.004386,-0.103125,-0.146459,-0.000001, 0.000002, 0.000007,1,0
1777416252106728117,1091269000000,  1091.269,-0.001101,-0.000143,-0.010200,-0.000141,-0.000369, 0.000655,-1.437875, 0.262281,-0.478487,1,-0.025020, 0.001851, 0.073242,1,-0.117480, 0.007969,-0.953553,-0.013549,-0.016612, 0.068895,-0.004961,-0.102753,-0.146546,-0.000001, 0.000002, 0.000007,1,0
1777416252116435952,1091289000000,  1091.289,-0.000913,-0.000551,-0.008020, 0.000164,-0.000120, 0.000597,-1.252512,-0.232383,-0.286164,1,-0.012902,-0.013493, 0.063133,1,-0.089817,-0.025297,-0.921716,-0.007346,-0.011916, 0.059195,-0.005483,-0.102474,-0.146857,-0.000001, 0.000002, 0.000007,1,0
1777416252126520593,1091289000000,  1091.289,-0.000913,-0.000551,-0.008020, 0.000164,-0.000120, 0.000597,-1.252512,-0.232383,-0.286164,1,-0.012902,-0.013493, 0.063133,1,-0.089817,-0.025297,-0.921716,-0.007346,-0.011916, 0.059195,-0.005483,-0.102474,-0.146857,-0.000001, 0.000002, 0.000007,1,0
1777416252136192277,1091309000000,  1091.309,-0.000629,-0.000096,-0.007916,-0.000268, 0.000188, 0.000692,-1.014597,-0.009209,-0.612411,1,-0.013342,-0.007724, 0.058350,1,-0.063258,-0.000141,-0.943476,-0.023994, 0.006003, 0.062631,-0.005167,-0.101828,-0.146585,-0.000001, 0.000002, 0.000007,1,0
1777416252146276677,1091309000000,  1091.309,-0.000629,-0.000096,-0.007916,-0.000268, 0.000188, 0.000692,-1.014597,-0.009209,-0.612411,1,-0.013342,-0.007724, 0.058350,1,-0.063258,-0.000141,-0.943476,-0.023994, 0.006003, 0.062631,-0.005167,-0.101828,-0.146585,-0.000001, 0.000002, 0.000007,1,0
1777416252166003426,1091329000000,  1091.329,-0.000975,-0.000759,-0.009438,-0.000104, 0.000080, 0.000584,-1.100899,-0.264676, 0.009836,1,-0.037047,-0.008422, 0.065170,1,-0.087540,-0.047566,-0.987667,-0.030504,-0.003941, 0.061343,-0.005458,-0.100980,-0.146162,-0.000001, 0.000002, 0.000007,1,0
1777416252185701340,1091349000000,  1091.349, 0.000584,-0.002452,-0.018514,-0.001326, 0.000259, 0.000081,-1.748739,-0.020054, 1.183912,1, 0.011299,-0.016969, 0.052400,1,-0.023685,-0.064863,-1.398591,-0.076728,-0.004371, 0.024375,-0.005653,-0.100732,-0.146398,-0.000001, 0.000002, 0.000007,1,0
1777416252195396229,1091369000000,  1091.369, 0.000201, 0.004715,-0.018275,-0.000615, 0.000070, 0.000220,-1.428650,-0.958021, 2.791943,1,-0.023066,-0.008645, 0.027510,1,-0.061871, 0.169393,-1.208442,-0.030842,-0.011092, 0.027091,-0.005358,-0.100349,-0.146258,-0.000001, 0.000002, 0.000009,1,0
1777416252205480630,1091369000000,  1091.369, 0.000201, 0.004715,-0.018275,-0.000615, 0.000070, 0.000220,-1.428650,-0.958021, 2.791943,1,-0.023066,-0.008645, 0.027510,1,-0.061871, 0.169393,-1.208442,-0.030842,-0.011092, 0.027091,-0.005358,-0.100349,-0.146258,-0.000001, 0.000002, 0.000009,1,0
1777416252215208781,1091389000000,  1091.389, 0.000078,-0.003897,-0.012006,-0.000999, 0.000175, 0.000506,-1.080900, 1.873596, 0.846253,1,-0.087752, 0.006590, 0.030838,1,-0.030559,-0.028354,-1.055860,-0.117713, 0.007204, 0.031724,-0.005375,-0.100224,-0.145843,-0.000001, 0.000002, 0.000009,1,0
1777416252225293329,1091389000000,  1091.389, 0.000078,-0.003897,-0.012006,-0.000999, 0.000175, 0.000506,-1.080900, 1.873596, 0.846253,1,-0.087752, 0.006590, 0.030838,1,-0.030559,-0.028354,-1.055860,-0.117713, 0.007204, 0.031724,-0.005375,-0.100224,-0.145843,-0.000001, 0.000002, 0.000009,1,0
1777416252244965519,1091409000000,  1091.409,-0.000155,-0.000984,-0.013463, 0.000288,-0.000139,-0.000226,-1.541224,-1.401537, 1.156603,1,-0.075752,-0.000777, 0.025707,1,-0.075957,-0.109794,-1.079115,-0.037713,-0.012469, 0.001708,-0.005510,-0.100413,-0.146441,-0.000001, 0.000002, 0.000009,1,0
1777416252254586754,1091419000000,  1091.424,-0.001651, 0.000899,-0.004475,-0.000392, 0.000116,-0.000098,-1.490356,-0.271968, 1.733236,1,-0.040183, 0.004216,-0.003279,1,-0.115673,-0.020486,-0.822573,-0.040184, 0.004218,-0.003271,-0.005001,-0.100646,-0.147010,-0.000001, 0.000002, 0.000009,1,0
1777416252264671525,1091419000000,  1091.424,-0.001651, 0.000899,-0.004475,-0.000392, 0.000116,-0.000098,-1.490356,-0.271968, 1.733236,1,-0.040183, 0.004216,-0.003279,1,-0.115673,-0.020486,-0.822573,-0.040184, 0.004218,-0.003271,-0.005001,-0.100646,-0.147010,-0.000001, 0.000002, 0.000009,1,0
1777416252274346117,1091439000000,  1091.444, 0.000048,-0.002369,-0.007608,-0.000320, 0.001036,-0.000083,-0.838556,-0.332436,-0.346546,1,-0.024974, 0.024916,-0.004521,1,-0.049032,-0.026155,-1.034642,-0.024975, 0.024918,-0.004512,-0.004911,-0.100491,-0.147472,-0.000001, 0.000002, 0.000009,1,0
1777416252284431073,1091439000000,  1091.444, 0.000048,-0.002369,-0.007608,-0.000320, 0.001036,-0.000083,-0.838556,-0.332436,-0.346546,1,-0.024974, 0.024916,-0.004521,1,-0.049032,-0.026155,-1.034642,-0.024975, 0.024918,-0.004512,-0.004911,-0.100491,-0.147472,-0.000001, 0.000002, 0.000009,1,0
1777416252294086718,1091459000000,  1091.464,-0.000794, 0.000574,-0.012670,-0.000140,-0.000166,-0.000412,-1.039727,-0.122319,-0.566822,1,-0.023309,-0.005246,-0.028558,1,-0.069286,-0.004651,-1.057094,-0.023310,-0.005243,-0.028550,-0.004332,-0.100709,-0.147707,-0.000001, 0.000002, 0.000009,1,0
1777416252304172249,1091459000000,  1091.464,-0.000794, 0.000574,-0.012670,-0.000140,-0.000166,-0.000412,-1.039727,-0.122319,-0.566822,1,-0.023309,-0.005246,-0.028558,1,-0.069286,-0.004651,-1.057094,-0.023310,-0.005243,-0.028550,-0.004332,-0.100709,-0.147707,-0.000001, 0.000002, 0.000009,1,0
1777416252323911721,1091479000000,  1091.484, 0.000611,-0.000326,-0.011690, 0.000074, 0.000175,-0.000256,-0.384710,-0.032218,-0.883382,1,-0.038428, 0.008100,-0.033877,1,-0.002309, 0.004530,-1.089367,-0.038428, 0.008102,-0.033868,-0.005113,-0.100581,-0.147161,-0.000001, 0.000002, 0.000009,1,0
1777416252333604276,1091499000000,  1091.504, 0.000330,-0.000556,-0.010349, 0.000386, 0.000470,-0.000264,-0.769546,-0.153883,-0.046664,1,-0.000772, 0.009100,-0.026557,1,-0.041384,-0.007903,-1.004040,-0.000772, 0.009102,-0.026548,-0.004853,-0.100392,-0.146747,-0.000001, 0.000002, 0.000009,1,0
1777416252343708234,1091499000000,  1091.504, 0.000330,-0.000556,-0.010349, 0.000386, 0.000470,-0.000264,-0.769546,-0.153883,-0.046664,1,-0.000772, 0.009100,-0.026557,1,-0.041384,-0.007903,-1.004040,-0.000772, 0.009102,-0.026548,-0.004853,-0.100392,-0.146747,-0.000001, 0.000002, 0.000009,1,0
1777416252353305283,1091519000000,  1091.524, 0.000377, 0.000147,-0.012181, 0.000265, 0.000189,-0.000398,-0.353134,-0.022730,-0.718265,1, 0.037071, 0.008534,-0.030954,1, 0.001048, 0.005491,-1.072525, 0.037071, 0.008536,-0.030946,-0.004341,-0.100439,-0.146712,-0.000001, 0.000002, 0.000009,1,0
1777416252363391331,1091519000000,  1091.524, 0.000377, 0.000147,-0.012181, 0.000265, 0.000189,-0.000398,-0.353134,-0.022730,-0.718265,1, 0.037071, 0.008534,-0.030954,1, 0.001048, 0.005491,-1.072525, 0.037071, 0.008536,-0.030946,-0.004341,-0.100439,-0.146712,-0.000001, 0.000002, 0.000009,1,0
1777416252373041199,1091539000000,  1091.544, 0.000571, 0.000191,-0.015249,-0.000042, 0.000170,-0.000446, 0.110495,-0.582537,-1.309315,1, 0.068268, 0.028499,-0.029294,1, 0.048480,-0.051679,-1.132790, 0.068267, 0.028501,-0.029285,-0.004131,-0.100512,-0.147387,-0.000001, 0.000002, 0.000009,1,0
1777416252383126174,1091539000000,  1091.544, 0.000571, 0.000191,-0.015249,-0.000042, 0.000170,-0.000446, 0.110495,-0.582537,-1.309315,1, 0.068268, 0.028499,-0.029294,1, 0.048480,-0.051679,-1.132790, 0.068267, 0.028501,-0.029285,-0.004131,-0.100512,-0.147387,-0.000001, 0.000002, 0.000009,1,0
1777416252402876461,1091559000000,  1091.564,-0.000263, 0.000335,-0.013302,-0.000391, 0.000036,-0.000473,-0.323011,-0.004770,-0.628001,1, 0.043846, 0.017243,-0.036935,1, 0.004118, 0.006943,-1.063323, 0.043846, 0.017245,-0.036926,-0.004481,-0.100974,-0.148060,-0.000001, 0.000003, 0.000010,1,0
1777416252412578759,1091579000000,  1091.584, 0.001332, 0.002387,-0.013107,-0.000463, 0.000256,-0.000350,-0.571467, 1.346439, 0.067762,1, 0.083326, 0.017672,-0.020739,1,-0.021902, 0.144686,-0.992401, 0.083325, 0.017674,-0.020729,-0.004049,-0.101055,-0.148157,-0.000001, 0.000003, 0.000010,1,0
1777416252422663789,1091579000000,  1091.584, 0.001332, 0.002387,-0.013107,-0.000463, 0.000256,-0.000350,-0.571467, 1.346439, 0.067762,1, 0.083326, 0.017672,-0.020739,1,-0.021902, 0.144686,-0.992401, 0.083325, 0.017674,-0.020729,-0.004049,-0.101055,-0.148157,-0.000001, 0.000003, 0.000010,1,0
1777416252432322305,1091599000000,  1091.604,-0.000244,-0.001697,-0.010241,-0.000808, 0.000249,-0.000211,-0.868904, 1.081170, 0.508597,1,-0.059123, 0.016969,-0.037166,1,-0.052289, 0.117608,-0.947450,-0.059124, 0.016972,-0.037156,-0.004067,-0.101236,-0.147872,-0.000001, 0.000003, 0.000010,1,0
1777416252442407446,1091599000000,  1091.604,-0.000244,-0.001697,-0.010241,-0.000808, 0.000249,-0.000211,-0.868904, 1.081170, 0.508597,1,-0.059123, 0.016969,-0.037166,1,-0.052289, 0.117608,-0.947450,-0.059124, 0.016972,-0.037156,-0.004067,-0.101236,-0.147872,-0.000001, 0.000003, 0.000010,1,0
1777416252457939856,1091619000000,  1091.624,-0.000070,-0.000453,-0.010252,-0.000119, 0.000609,-0.000260,-0.247644, 0.152637,-0.635505,1,-0.063403, 0.028323,-0.038856,1, 0.011254, 0.022937,-1.064109,-0.063403, 0.028326,-0.038847,-0.004141,-0.101387,-0.147838,-0.000001, 0.000003, 0.000010,1,0
1777416252467644561,1091639000000,  1091.644, 0.000418, 0.001144,-0.010707,-0.000373,-0.000151,-0.000541,-0.190863, 0.454236,-0.165374,1,-0.023664,-0.008879,-0.045991,1, 0.017371, 0.054111,-1.016154,-0.023665,-0.008877,-0.045981,-0.003809,-0.101557,-0.148340,-0.000001, 0.000003, 0.000010,1,0
1777416252477728721,1091639000000,  1091.644, 0.000418, 0.001144,-0.010707,-0.000373,-0.000151,-0.000541,-0.190863, 0.454236,-0.165374,1,-0.023664,-0.008879,-0.045991,1, 0.017371, 0.054111,-1.016154,-0.023665,-0.008877,-0.045981,-0.003809,-0.101557,-0.148340,-0.000001, 0.000003, 0.000010,1,0
1777416252487339844,1091659000000,  1091.659, 0.000378,-0.003093,-0.012057,-0.000220, 0.001584,-0.000546,-0.339450, 0.178821,-1.153138,1,-0.053550, 0.050522,-0.067546,1, 0.002678, 0.026671,-1.116855,-0.053551, 0.050524,-0.067536,-0.003965,-0.101940,-0.148838,-0.000001, 0.000003, 0.000010,1,0
1777416252497423856,1091659000000,  1091.659, 0.000378,-0.003093,-0.012057,-0.000220, 0.001584,-0.000546,-0.339450, 0.178821,-1.153138,1,-0.053550, 0.050522,-0.067546,1, 0.002678, 0.026671,-1.116855,-0.053551, 0.050524,-0.067536,-0.003965,-0.101940,-0.148838,-0.000001, 0.000003, 0.000010,1,0
1777416252516831655,1091679000000,  1091.679,-0.000364, 0.000732,-0.014707,-0.001111, 0.000252,-0.000938,-0.177925,-0.052474,-1.353866,1,-0.057196, 0.027567,-0.094379,1, 0.019515, 0.003287,-1.137309,-0.057197, 0.027570,-0.094369,-0.004013,-0.102015,-0.148784,-0.000001, 0.000003, 0.000010,1,0
1777416252526526655,1091699000000,  1091.699, 0.000069,-0.000745,-0.009663,-0.000149, 0.000577,-0.001353,-0.333869,-1.083345, 0.548766,1,-0.031517, 0.016125,-0.093101,1, 0.011020,-0.094384,-0.998253,-0.022261, 0.040876,-0.112045,-0.003563,-0.102841,-0.149297,-0.000001, 0.000003, 0.000010,1,0
1777416252536610870,1091699000000,  1091.699, 0.000069,-0.000745,-0.009663,-0.000149, 0.000577,-0.001353,-0.333869,-1.083345, 0.548766,1,-0.031517, 0.016125,-0.093101,1, 0.011020,-0.094384,-0.998253,-0.022261, 0.040876,-0.112045,-0.003563,-0.102841,-0.149297,-0.000001, 0.000003, 0.000010,1,0
1777416252546286703,1091719000000,  1091.719,-0.000713,-0.000381,-0.009998,-0.000220,-0.000171,-0.001735,-0.466974,-1.503227, 0.455696,1,-0.015095, 0.009663,-0.122444,1,-0.030433,-0.097529,-1.003385,-0.023367,-0.005431,-0.146125,-0.003685,-0.102901,-0.148654,-0.000001, 0.000003, 0.000010,1,0
1777416252556371992,1091719000000,  1091.719,-0.000713,-0.000381,-0.009998,-0.000220,-0.000171,-0.001735,-0.466974,-1.503227, 0.455696,1,-0.015095, 0.009663,-0.122444,1,-0.030433,-0.097529,-1.003385,-0.023367,-0.005431,-0.146125,-0.003685,-0.102901,-0.148654,-0.000001, 0.000003, 0.000010,1,0
1777416252576023124,1091739000000,  1091.739,-0.000936,-0.001263,-0.011731, 0.000641, 0.000187,-0.001810,-1.031933,-0.819554, 0.326616,1, 0.000532,-0.006953,-0.159378,1,-0.078554,-0.101123,-1.086546, 0.022764, 0.004689,-0.170052,-0.003604,-0.103463,-0.148281,-0.000001, 0.000003, 0.000010,1,0
1777416252595794062,1091759000000,  1091.759,-0.000333,-0.000382,-0.010237,-0.000151, 0.000021,-0.001834,-1.132059,-0.276691, 0.519889,1, 0.032864, 0.004191,-0.174460,1,-0.062135,-0.024366,-0.972411, 0.014400, 0.001389,-0.178523,-0.003511,-0.104733,-0.149075,-0.000001, 0.000003, 0.000010,1,0
1777416252605030342,1091779000000,  1091.779,-0.000716,-0.000638,-0.007701, 0.000225, 0.000234,-0.001821,-0.883180,-0.130817,-0.382594,1,-0.001699,-0.006177,-0.182660,1,-0.065925,-0.029246,-0.916103, 0.007609, 0.010577,-0.182812,-0.003213,-0.105888,-0.149015,-0.000001, 0.000003, 0.000010,1,0
1777416252615115520,1091779000000,  1091.779,-0.000716,-0.000638,-0.007701, 0.000225, 0.000234,-0.001821,-0.883180,-0.130817,-0.382594,1,-0.001699,-0.006177,-0.182660,1,-0.065925,-0.029246,-0.916103, 0.007609, 0.010577,-0.182812,-0.003213,-0.105888,-0.149015,-0.000001, 0.000003, 0.000010,1,0
1777416252634851937,1091799000000,  1091.799,-0.001307, 0.000029,-0.006836, 0.000140,-0.000081,-0.001830,-0.364407,-0.288595,-1.233661,1, 0.010335, 0.013351,-0.188206,1,-0.050655,-0.020875,-0.923806, 0.014682, 0.005942,-0.185339,-0.002059,-0.107064,-0.149335,-0.000001, 0.000003, 0.000010,1,0
1777416252644545178,1091809000000,  1091.814,-0.000419,-0.000076,-0.012965, 0.000004, 0.000212,-0.001868,-0.834659,-0.281569,-0.950782,1, 0.010152, 0.010736,-0.185168,1,-0.047876,-0.020506,-1.096225, 0.010151, 0.010739,-0.185158,-0.002176,-0.107762,-0.149115,-0.000001, 0.000003, 0.000010,1,0
1777416252654629226,1091809000000,  1091.814,-0.000419,-0.000076,-0.012965, 0.000004, 0.000212,-0.001868,-0.834659,-0.281569,-0.950782,1, 0.010152, 0.010736,-0.185168,1,-0.047876,-0.020506,-1.096225, 0.010151, 0.010739,-0.185158,-0.002176,-0.107762,-0.149115,-0.000001, 0.000003, 0.000010,1,0
1777416252664310263,1091829000000,  1091.834,-0.000628, 0.000184,-0.012490, 0.000100,-0.000211,-0.001885,-0.868426,-0.207803,-0.300214,1, 0.017094, 0.000076,-0.187805,1,-0.051212,-0.012994,-1.029882, 0.017093, 0.000079,-0.187795,-0.001678,-0.108548,-0.149631,-0.000001, 0.000003, 0.000010,1,0
1777416252674394682,1091829000000,  1091.834,-0.000628, 0.000184,-0.012490, 0.000100,-0.000211,-0.001885,-0.868426,-0.207803,-0.300214,1, 0.017094, 0.000076,-0.187805,1,-0.051212,-0.012994,-1.029882, 0.017093, 0.000079,-0.187795,-0.001678,-0.108548,-0.149631,-0.000001, 0.000003, 0.000010,1,0
1777416252694049833,1091849000000,  1091.854,-0.000245,-0.000698,-0.011459,-0.000133,-0.000241,-0.002079,-0.692629,-0.435295,-0.231767,1,-0.006710,-0.010486,-0.199001,1,-0.033387,-0.036049,-1.022905,-0.006711,-0.010483,-0.198991,-0.001432,-0.109557,-0.148610,-0.000001, 0.000003, 0.000010,1,0
1777416252713819214,1091869000000,  1091.874,-0.000127, 0.001139,-0.010807,-0.000061,-0.000050,-0.002262,-0.530276, 0.332393, 0.613505,1, 0.025660, 0.007735,-0.214340,1,-0.016698, 0.042559,-0.936703, 0.025659, 0.007738,-0.214330,-0.000656,-0.110740,-0.148545,-0.000001, 0.000003, 0.000010,1,0
1777416252723511029,1091889000000,  1091.894, 0.000701, 0.000198,-0.008242, 0.000344, 0.000578,-0.002038,-0.103775, 0.541208, 0.255564,1, 0.002379, 0.041212,-0.212373,1, 0.027391, 0.063768,-0.973181, 0.002378, 0.041214,-0.212364,-0.000655,-0.111737,-0.148256,-0.000001, 0.000003, 0.000010,1,0
1777416252733595337,1091889000000,  1091.894, 0.000701, 0.000198,-0.008242, 0.000344, 0.000578,-0.002038,-0.103775, 0.541208, 0.255564,1, 0.002379, 0.041212,-0.212373,1, 0.027391, 0.063768,-0.973181, 0.002378, 0.041214,-0.212364,-0.000655,-0.111737,-0.148256,-0.000001, 0.000003, 0.000010,1,0
1777416252743330267,1091909000000,  1091.914, 0.000592, 0.000932,-0.008411, 0.000364, 0.000203,-0.001552,-0.063220, 0.631873, 0.373709,1, 0.030087, 0.025488,-0.177275,1, 0.031995, 0.073113,-0.961115, 0.030086, 0.025491,-0.177265,-0.000786,-0.112506,-0.148956,-0.000001, 0.000003, 0.000010,1,0
1777416252753414890,1091909000000,  1091.914, 0.000592, 0.000932,-0.008411, 0.000364, 0.000203,-0.001552,-0.063220, 0.631873, 0.373709,1, 0.030087, 0.025488,-0.177275,1, 0.031995, 0.073113,-0.961115, 0.030086, 0.025491,-0.177265,-0.000786,-0.112506,-0.148956,-0.000001, 0.000003, 0.000010,1,0
1777416252773003387,1091929000000,  1091.934, 0.000588, 0.000913,-0.008964, 0.000056, 0.000662,-0.001495, 0.074315, 0.977793, 0.007821,1, 0.005211, 0.039837,-0.159738,1, 0.046637, 0.108214,-0.998403, 0.005210, 0.039840,-0.159729,-0.000611,-0.113036,-0.149553,-0.000001, 0.000003, 0.000010,1,0
1777416252792773158,1091949000000,  1091.954, 0.001581, 0.000365,-0.009948, 0.000406, 0.000285,-0.001215, 0.690834, 0.619227,-0.300781,1, 0.004469, 0.024434,-0.135375,1, 0.109982, 0.071610,-1.029853, 0.004468, 0.024437,-0.135365,-0.000455,-0.113571,-0.149473,-0.000001, 0.000003, 0.000010,1,0
1777416252802459602,1091969000000,  1091.974, 0.001137,-0.000470,-0.012012, 0.000296, 0.000111,-0.001201, 0.622784,-0.175776,-0.543178,1, 0.011138, 0.018936,-0.122535,1, 0.101456,-0.010572,-1.054640, 0.011137, 0.018939,-0.122525,-0.001004,-0.114253,-0.150037,-0.000001, 0.000003, 0.000010,1,0
1777416252812544614,1091969000000,  1091.974, 0.001137,-0.000470,-0.012012, 0.000296, 0.000111,-0.001201, 0.622784,-0.175776,-0.543178,1, 0.011138, 0.018936,-0.122535,1, 0.101456,-0.010572,-1.054640, 0.011137, 0.018939,-0.122525,-0.001004,-0.114253,-0.150037,-0.000001, 0.000003, 0.000010,1,0
1777416252822210334,1091989000000,  1091.994, 0.000675,-0.000021,-0.009617,-0.000010,-0.000340,-0.001493, 0.438219,-0.238918, 0.645864,1, 0.012437, 0.001409,-0.137639,1, 0.081830,-0.017569,-0.933426, 0.012436, 0.001412,-0.137630,-0.001066,-0.115372,-0.149794,-0.000001, 0.000003, 0.000010,1,0
1777416252832295976,1091989000000,  1091.994, 0.000675,-0.000021,-0.009617,-0.000010,-0.000340,-0.001493, 0.438219,-0.238918, 0.645864,1, 0.012437, 0.001409,-0.137639,1, 0.081830,-0.017569,-0.933426, 0.012436, 0.001412,-0.137630,-0.001066,-0.115372,-0.149794,-0.000001, 0.000003, 0.000010,1,0
1777416252847840183,1091989000000,  1092.014, 0.000675,-0.000021,-0.009617,-0.000010,-0.000340,-0.001493, 0.148937, 0.555540, 0.124736,1, 0.000123,-0.006926,-0.139683,1, 0.081830,-0.017569,-0.933426, 0.012436, 0.001412,-0.137630,-0.001066,-0.115372,-0.149794,-0.000001, 0.000003, 0.000010,1,0
1777416252857566148,1092029000000,  1092.029, 0.000791, 0.001248,-0.012059, 0.000003,-0.000037,-0.001123, 0.462519, 0.614556,-0.488044,1,-0.021939,-0.012225,-0.120311,1, 0.083617, 0.069834,-1.049076,-0.021940,-0.012222,-0.120301,-0.000925,-0.116600,-0.150094,-0.000001, 0.000003, 0.000010,1,0
1777416252867658994,1092029000000,  1092.029, 0.000791, 0.001248,-0.012059, 0.000003,-0.000037,-0.001123, 0.462519, 0.614556,-0.488044,1,-0.021939,-0.012225,-0.120311,1, 0.083617, 0.069834,-1.049076,-0.021940,-0.012222,-0.120301,-0.000925,-0.116600,-0.150094,-0.000001, 0.000003, 0.000010,1,0
1777416252877362440,1092049000000,  1092.049, 0.000718, 0.001454,-0.009975, 0.000122,-0.000267,-0.001032, 0.298497, 0.702724, 0.446021,1, 0.003716,-0.000859,-0.108595,1, 0.066733, 0.079274,-0.953830, 0.003715,-0.000856,-0.108586,-0.000678,-0.116945,-0.150652,-0.000001, 0.000003, 0.000010,1,0
1777416252887449618,1092049000000,  1092.049, 0.000718, 0.001454,-0.009975, 0.000122,-0.000267,-0.001032, 0.298497, 0.702724, 0.446021,1, 0.003716,-0.000859,-0.108595,1, 0.066733, 0.079274,-0.953830, 0.003715,-0.000856,-0.108586,-0.000678,-0.116945,-0.150652,-0.000001, 0.000003, 0.000010,1,0
1777416252906783578,1092069000000,  1092.069, 0.000399, 0.000532,-0.008516,-0.000177,-0.000185,-0.000907, 0.635162, 0.799771, 0.087406,1,-0.024316, 0.004567,-0.103176,1, 0.075669, 0.071612,-0.919477,-0.025668,-0.006590,-0.098318,-0.000337,-0.117662,-0.150745,-0.000001, 0.000003, 0.000010,1,0
1777416252916500450,1092089000000,  1092.089, 0.000494,-0.000318,-0.005576, 0.001248, 0.000355,-0.000973, 0.403299,-0.039875,-1.494826,1,-0.018888, 0.000488,-0.097535,1, 0.054916,-0.020409,-0.847313, 0.045536, 0.019379,-0.097001, 0.000037,-0.118148,-0.150298,-0.000001, 0.000003, 0.000010,1,0
1777416252926602685,1092089000000,  1092.089, 0.000494,-0.000318,-0.005576, 0.001248, 0.000355,-0.000973, 0.403299,-0.039875,-1.494826,1,-0.018888, 0.000488,-0.097535,1, 0.054916,-0.020409,-0.847313, 0.045536, 0.019379,-0.097001, 0.000037,-0.118148,-0.150298,-0.000001, 0.000003, 0.000010,1,0
1777416252936174862,1092109000000,  1092.109, 0.001162,-0.000346,-0.016586, 0.000326, 0.000178,-0.000998, 0.454160, 0.651860, 1.625554,1,-0.034136,-0.032253,-0.106255,1, 0.114607, 0.036914,-1.173689,-0.002716,-0.015443,-0.105134, 0.000244,-0.118416,-0.150220,-0.000001, 0.000003, 0.000010,1,0
1777416252946325804,1092109000000,  1092.109, 0.001162,-0.000346,-0.016586, 0.000326, 0.000178,-0.000998, 0.454160, 0.651860, 1.625554,1,-0.034136,-0.032253,-0.106255,1, 0.114607, 0.036914,-1.173689,-0.002716,-0.015443,-0.105134, 0.000244,-0.118416,-0.150220,-0.000001, 0.000003, 0.000010,1,0
1777416252966005346,1092129000000,  1092.129, 0.001016,-0.000296,-0.013224, 0.000828,-0.000520,-0.001103,-0.132147,-0.207994, 1.373545,1, 0.000267, 0.011034,-0.106295,1, 0.046440,-0.022225,-1.006170, 0.041435,-0.019154,-0.108191, 0.000213,-0.118518,-0.150998,-0.000001, 0.000003, 0.000010,1,0
1777416252985691944,1092149000000,  1092.149, 0.000779, 0.000700,-0.010928, 0.000137,-0.000386,-0.001214, 0.225765,-0.312363,-0.149636,1, 0.029565,-0.011099,-0.115325,1, 0.064795, 0.022486,-1.005673, 0.025679,-0.023008,-0.117032, 0.000778,-0.119257,-0.150916,-0.000001, 0.000003, 0.000010,1,0
1777416252995390000,1092169000000,  1092.169, 0.000225, 0.000388,-0.005828,-0.000113,-0.000033,-0.000818, 0.630416, 0.434624,-0.811476,1,-0.001534, 0.011974,-0.105693,1, 0.063256, 0.037904,-0.825346, 0.000549, 0.007629,-0.093758, 0.000444,-0.120043,-0.151584,-0.000001, 0.000003, 0.000010,1,0
1777416253005475472,1092169000000,  1092.169, 0.000225, 0.000388,-0.005828,-0.000113,-0.000033,-0.000818, 0.630416, 0.434624,-0.811476,1,-0.001534, 0.011974,-0.105693,1, 0.063256, 0.037904,-0.825346, 0.000549, 0.007629,-0.093758, 0.000444,-0.120043,-0.151584,-0.000001, 0.000003, 0.000010,1,0
1777416253015130034,1092189000000,  1092.189, 0.000726,-0.001144,-0.006805, 0.000457,-0.000034,-0.000950, 0.245233,-0.081751,-0.776917,1,-0.019168,-0.013563,-0.088234,1, 0.067794,-0.050242,-0.896806, 0.007408,-0.010356,-0.092225, 0.000330,-0.120389,-0.151110,-0.000001, 0.000003, 0.000010,1,0
1777416253025215407,1092189000000,  1092.189, 0.000726,-0.001144,-0.006805, 0.000457,-0.000034,-0.000950, 0.245233,-0.081751,-0.776917,1,-0.019168,-0.013563,-0.088234,1, 0.067794,-0.050242,-0.896806, 0.007408,-0.010356,-0.092225, 0.000330,-0.120389,-0.151110,-0.000001, 0.000003, 0.000010,1,0
1777416253044945970,1092209000000,  1092.209, 0.000620, 0.000790,-0.008910, 0.000202,-0.000166,-0.000949, 0.358789,-0.361928,-0.394680,1, 0.010024,-0.022303,-0.096480,1, 0.069260, 0.013569,-0.975896, 0.016969,-0.017386,-0.094421, 0.000762,-0.120469,-0.151222,-0.000001, 0.000003, 0.000010,1,0
1777416253054585068,1092219000000,  1092.224, 0.000876, 0.000533,-0.011052, 0.000090,-0.000121,-0.000871, 0.405090, 0.197022,-0.271810,1, 0.016915,-0.013364,-0.090403,1, 0.078834, 0.028766,-1.026975, 0.016914,-0.013361,-0.090393, 0.001403,-0.120979,-0.151527,-0.000001, 0.000003, 0.000010,1,0
1777416253064669941,1092219000000,  1092.224, 0.000876, 0.000533,-0.011052, 0.000090,-0.000121,-0.000871, 0.405090, 0.197022,-0.271810,1, 0.016915,-0.013364,-0.090403,1, 0.078834, 0.028766,-1.026975, 0.016914,-0.013361,-0.090393, 0.001403,-0.120979,-0.151527,-0.000001, 0.000003, 0.000010,1,0
1777416253074403953,1092239000000,  1092.244, 0.001064,-0.000206,-0.010477, 0.000008,-0.000106,-0.000757, 0.267118, 0.237963, 0.203784,1, 0.006635,-0.017061,-0.081181,1, 0.064608, 0.032883,-0.978484, 0.006634,-0.017058,-0.081171, 0.001212,-0.121737,-0.150903,-0.000001, 0.000003, 0.000010,1,0
1777416253084488585,1092239000000,  1092.244, 0.001064,-0.000206,-0.010477, 0.000008,-0.000106,-0.000757, 0.267118, 0.237963, 0.203784,1, 0.006635,-0.017061,-0.081181,1, 0.064608, 0.032883,-0.978484, 0.006634,-0.017058,-0.081171, 0.001212,-0.121737,-0.150903,-0.000001, 0.000003, 0.000010,1,0
1777416253094092625,1092259000000,  1092.264, 0.001357, 0.000168,-0.011182, 0.000123,-0.000133,-0.000788, 0.681613, 0.053527,-0.550801,1, 0.012704,-0.013702,-0.079287,1, 0.106654, 0.013898,-1.055440, 0.012703,-0.013699,-0.079277, 0.001531,-0.122339,-0.151447,-0.000001, 0.000003, 0.000010,1,0
1777416253104177349,1092259000000,  1092.264, 0.001357, 0.000168,-0.011182, 0.000123,-0.000133,-0.000788, 0.681613, 0.053527,-0.550801,1, 0.012704,-0.013702,-0.079287,1, 0.106654, 0.013898,-1.055440, 0.012703,-0.013699,-0.079277, 0.001531,-0.122339,-0.151447,-0.000001, 0.000003, 0.000010,1,0
1777416253123899523,1092279000000,  1092.284, 0.000911, 0.000446,-0.010242,-0.000286,-0.000032,-0.000639, 0.498652, 0.140319, 0.063205,1,-0.000648,-0.004269,-0.070263,1, 0.087847, 0.022623,-0.992835,-0.000649,-0.004267,-0.070253, 0.001662,-0.122355,-0.151309,-0.000001, 0.000003, 0.000010,1,0
1777416253133538195,1092299000000,  1092.304, 0.000973, 0.000087,-0.010445, 0.000370, 0.000147,-0.000705, 0.473650, 0.165427,-0.216681,1, 0.004427,-0.008422,-0.069908,1, 0.085241, 0.025105,-1.021379, 0.004426,-0.008419,-0.069899, 0.001444,-0.122710,-0.152035,-0.000001, 0.000003, 0.000010,1,0
1777416253143623568,1092299000000,  1092.304, 0.000973, 0.000087,-0.010445, 0.000370, 0.000147,-0.000705, 0.473650, 0.165427,-0.216681,1, 0.004427,-0.008422,-0.069908,1, 0.085241, 0.025105,-1.021379, 0.004426,-0.008419,-0.069899, 0.001444,-0.122710,-0.152035,-0.000001, 0.000003, 0.000010,1,0
1777416253153286390,1092319000000,  1092.324, 0.001009, 0.000300,-0.011303, 0.000222,-0.000171,-0.000713, 0.742744, 0.085814,-0.569028,1, 0.009864,-0.007252,-0.071682,1, 0.112751, 0.016634,-1.057308, 0.009863,-0.007249,-0.071672, 0.001496,-0.122875,-0.151704,-0.000001, 0.000003, 0.000010,1,0
1777416253163372558,1092319000000,  1092.324, 0.001009, 0.000300,-0.011303, 0.000222,-0.000171,-0.000713, 0.742744, 0.085814,-0.569028,1, 0.009864,-0.007252,-0.071682,1, 0.112751, 0.016634,-1.057308, 0.009863,-0.007249,-0.071672, 0.001496,-0.122875,-0.151704,-0.000001, 0.000003, 0.000010,1,0
1777416253173035843,1092339000000,  1092.344, 0.001007, 0.000946,-0.008979,-0.000046,-0.000061,-0.000616, 0.592494, 0.680918, 0.402252,1, 0.011340,-0.000957,-0.066248,1, 0.097390, 0.076974,-0.958269, 0.011339,-0.000955,-0.066238, 0.001715,-0.123249,-0.151354,-0.000001, 0.000003, 0.000010,1,0
1777416253183120642,1092339000000,  1092.344, 0.001007, 0.000946,-0.008979,-0.000046,-0.000061,-0.000616, 0.592494, 0.680918, 0.402252,1, 0.011340,-0.000957,-0.066248,1, 0.097390, 0.076974,-0.958269, 0.011339,-0.000955,-0.066238, 0.001715,-0.123249,-0.151354,-0.000001, 0.000003, 0.000010,1,0
1777416253202855391,1092359000000,  1092.364, 0.000582, 0.000228,-0.008426, 0.000175,-0.000006,-0.000377, 0.572812, 0.269723, 0.400968,1, 0.014674, 0.000288,-0.049076,1, 0.095936, 0.034991,-0.958380, 0.014673, 0.000291,-0.049067, 0.001754,-0.123661,-0.151515,-0.000001, 0.000003, 0.000010,1,0
1777416253212559790,1092379000000,  1092.384, 0.001130,-0.000264,-0.010141, 0.000344, 0.000106,-0.000403, 0.699923,-0.043397,-0.184924,1, 0.020205, 0.007203,-0.043562,1, 0.109922, 0.003137,-1.018085, 0.020204, 0.007206,-0.043552, 0.002018,-0.124055,-0.151118,-0.000001, 0.000003, 0.000010,1,0
1777416253222644570,1092379000000,  1092.384, 0.001130,-0.000264,-0.010141, 0.000344, 0.000106,-0.000403, 0.699923,-0.043397,-0.184924,1, 0.020205, 0.007203,-0.043562,1, 0.109922, 0.003137,-1.018085, 0.020204, 0.007206,-0.043552, 0.002018,-0.124055,-0.151118,-0.000001, 0.000003, 0.000010,1,0
1777416253232298706,1092399000000,  1092.404, 0.001001, 0.000172,-0.009219,-0.000175, 0.000137,-0.000393, 0.522331, 0.119383, 0.423772,1,-0.003194, 0.001005,-0.040576,1, 0.092058, 0.019831,-0.956005,-0.003195, 0.001007,-0.040566, 0.001729,-0.124341,-0.151021,-0.000001, 0.000003, 0.000010,1,0
1777416253242384079,1092399000000,  1092.404, 0.001001, 0.000172,-0.009219,-0.000175, 0.000137,-0.000393, 0.522331, 0.119383, 0.423772,1,-0.003194, 0.001005,-0.040576,1, 0.092058, 0.019831,-0.956005,-0.003195, 0.001007,-0.040566, 0.001729,-0.124341,-0.151021,-0.000001, 0.000003, 0.000010,1,0
1777416253257938882,1092419000000,  1092.424, 0.000349, 0.000071,-0.007662,-0.000276,-0.000181,-0.000279, 0.172964, 0.065433, 0.926595,1,-0.010230,-0.006633,-0.032458,1, 0.056507, 0.014533,-0.904727,-0.010231,-0.006630,-0.032449, 0.002723,-0.124606,-0.151342,-0.000001, 0.000003, 0.000010,1,0
1777416253267572684,1092439000000,  1092.444, 0.000594, 0.000001,-0.009031, 0.000068, 0.000065,-0.000308, 0.151601, 0.087937, 0.156215,1, 0.000614, 0.001050,-0.031536,1, 0.054315, 0.016987,-0.983283, 0.000613, 0.001053,-0.031526, 0.002460,-0.125066,-0.151604,-0.000001, 0.000003, 0.000010,1,0
1777416253277674465,1092439000000,  1092.444, 0.000594, 0.000001,-0.009031, 0.000068, 0.000065,-0.000308, 0.151601, 0.087937, 0.156215,1, 0.000614, 0.001050,-0.031536,1, 0.054315, 0.016987,-0.983283, 0.000613, 0.001053,-0.031526, 0.002460,-0.125066,-0.151604,-0.000001, 0.000003, 0.000010,1,0
1777416253287307896,1092459000000,  1092.459, 0.000916, 0.000073,-0.010201, 0.000010, 0.000370,-0.000129, 0.377121, 0.217490,-0.587045,1, 0.001350, 0.016850,-0.021064,1, 0.077387, 0.030177,-1.059072, 0.001349, 0.016853,-0.021055, 0.002040,-0.125123,-0.151363,-0.000001, 0.000003, 0.000010,1,0
1777416253297392972,1092459000000,  1092.459, 0.000916, 0.000073,-0.010201, 0.000010, 0.000370,-0.000129, 0.377121, 0.217490,-0.587045,1, 0.001350, 0.016850,-0.021064,1, 0.077387, 0.030177,-1.059072, 0.001349, 0.016853,-0.021055, 0.002040,-0.125123,-0.151363,-0.000001, 0.000003, 0.000010,1,0
1777416253316825828,1092479000000,  1092.479, 0.001011, 0.000000,-0.012298,-0.000078, 0.000286,-0.000076, 0.279680, 0.029178, 0.751275,1, 0.015655, 0.000935,-0.013548,1, 0.086697, 0.004693,-1.107083, 0.004624, 0.011855,-0.010876, 0.002540,-0.125108,-0.150436,-0.000001, 0.000003, 0.000010,1,0
1777416253326461481,1092499000000,  1092.499, 0.001159, 0.000359,-0.012827,-0.000089, 0.000157,-0.000039, 0.397037,-0.115074, 1.087058,1, 0.021786, 0.004665,-0.005680,1, 0.098455, 0.007632,-1.092462, 0.011207, 0.008884,-0.003837, 0.002085,-0.124973,-0.150698,-0.000001, 0.000003, 0.000010,1,0
1777416253336545594,1092499000000,  1092.499, 0.001159, 0.000359,-0.012827,-0.000089, 0.000157,-0.000039, 0.397037,-0.115074, 1.087058,1, 0.021786, 0.004665,-0.005680,1, 0.098455, 0.007632,-1.092462, 0.011207, 0.008884,-0.003837, 0.002085,-0.124973,-0.150698,-0.000001, 0.000003, 0.000010,1,0
1777416253346203879,1092519000000,  1092.519, 0.000931, 0.000423,-0.012842,-0.000211,-0.000071, 0.000010, 0.473321,-0.100882, 1.095397,1, 0.022940, 0.008385, 0.001935,1, 0.089414, 0.017658,-1.073175, 0.008154, 0.001036, 0.002543, 0.002488,-0.125041,-0.150898,-0.000001, 0.000003, 0.000010,1,0
1777416253356288455,1092519000000,  1092.519, 0.000931, 0.000423,-0.012842,-0.000211,-0.000071, 0.000010, 0.473321,-0.100882, 1.095397,1, 0.022940, 0.008385, 0.001935,1, 0.089414, 0.017658,-1.073175, 0.008154, 0.001036, 0.002543, 0.002488,-0.125041,-0.150898,-0.000001, 0.000003, 0.000010,1,0
1777416253376021389,1092539000000,  1092.539, 0.001004, 0.000330,-0.010845,-0.000026,-0.000105, 0.000036, 0.417283, 0.073229, 0.167405,1, 0.007046, 0.010341, 0.002245,1, 0.085909, 0.030672,-1.007808, 0.002944,-0.000099, 0.002913, 0.002625,-0.125047,-0.151214,-0.000001, 0.000003, 0.000010,1,0
1777416253395783325,1092559000000,  1092.559, 0.000760, 0.000163,-0.010329, 0.000040,-0.000216, 0.000140, 0.494621, 0.248463, 0.067322,1,-0.009993, 0.007027, 0.003591,1, 0.080868, 0.031505,-0.985364,-0.006526,-0.007471, 0.007477, 0.002798,-0.125054,-0.151683,-0.000001, 0.000003, 0.000010,1,0
1777416253405479131,1092579000000,  1092.579, 0.000647, 0.000185,-0.010077, 0.000133, 0.000065, 0.000233, 0.373421, 0.053796, 0.048363,1,-0.007539, 0.004158, 0.009248,1, 0.073633, 0.011275,-0.992564, 0.001101, 0.006341, 0.015761, 0.002533,-0.125047,-0.151014,-0.000001, 0.000003, 0.000010,1,0
1777416253415564615,1092579000000,  1092.579, 0.000647, 0.000185,-0.010077, 0.000133, 0.000065, 0.000233, 0.373421, 0.053796, 0.048363,1,-0.007539, 0.004158, 0.009248,1, 0.073633, 0.011275,-0.992564, 0.001101, 0.006341, 0.015761, 0.002533,-0.125047,-0.151014,-0.000001, 0.000003, 0.000010,1,0
1777416253425218381,1092599000000,  1092.599, 0.000656, 0.000204,-0.009252, 0.000115, 0.000206, 0.000270, 0.418061, 0.082322,-0.249947,1, 0.004639, 0.003771, 0.018765,1, 0.078291, 0.017418,-0.982345, 0.008608, 0.012019, 0.022468, 0.002762,-0.125141,-0.150625,-0.000001, 0.000003, 0.000010,1,0
1777416253435303698,1092599000000,  1092.599, 0.000656, 0.000204,-0.009252, 0.000115, 0.000206, 0.000270, 0.418061, 0.082322,-0.249947,1, 0.004639, 0.003771, 0.018765,1, 0.078291, 0.017418,-0.982345, 0.008608, 0.012019, 0.022468, 0.002762,-0.125141,-0.150625,-0.000001, 0.000003, 0.000010,1,0
1777416253454989443,1092619000000,  1092.619, 0.000732, 0.000090,-0.008862,-0.000033, 0.000083, 0.000370, 0.384686, 0.056466,-0.259958,1, 0.000646, 0.010564, 0.026513,1, 0.078392, 0.009576,-0.955567,-0.001243, 0.010104, 0.031364, 0.003275,-0.125185,-0.151744,-0.000001, 0.000003, 0.000010,1,0
1777416253464690472,1092629000000,  1092.634, 0.000824, 0.000294,-0.010806,-0.000200, 0.000175, 0.000396, 0.387372, 0.094194,-0.230989,1,-0.008941, 0.013645, 0.035347,1, 0.081573, 0.017824,-1.022635,-0.008942, 0.013648, 0.035357, 0.003015,-0.125100,-0.152223,-0.000001, 0.000003, 0.000010,1,0
1777416253474790642,1092629000000,  1092.634, 0.000824, 0.000294,-0.010806,-0.000200, 0.000175, 0.000396, 0.387372, 0.094194,-0.230989,1,-0.008941, 0.013645, 0.035347,1, 0.081573, 0.017824,-1.022635,-0.008942, 0.013648, 0.035357, 0.003015,-0.125100,-0.152223,-0.000001, 0.000003, 0.000010,1,0
1777416253484498041,1092649000000,  1092.654, 0.000724,-0.000101,-0.009677,-0.000110, 0.000074, 0.000440, 0.345643,-0.109921, 0.135098,1,-0.006278, 0.011170, 0.042235,1, 0.077593,-0.002926,-0.985292,-0.006279, 0.011173, 0.042245, 0.002663,-0.125066,-0.152176,-0.000001, 0.000003, 0.000010,1,0
1777416253494582136,1092649000000,  1092.654, 0.000724,-0.000101,-0.009677,-0.000110, 0.000074, 0.000440, 0.345643,-0.109921, 0.135098,1,-0.006278, 0.011170, 0.042235,1, 0.077593,-0.002926,-0.985292,-0.006279, 0.011173, 0.042245, 0.002663,-0.125066,-0.152176,-0.000001, 0.000003, 0.000010,1,0
1777416253504184268,1092669000000,  1092.674, 0.000633,-0.000135,-0.010225,-0.000073, 0.000126, 0.000414, 0.238520,-0.148320,-0.075448,1,-0.007313, 0.009327, 0.042363,1, 0.066834,-0.006708,-1.006754,-0.007314, 0.009330, 0.042373, 0.002899,-0.124967,-0.152156,-0.000001, 0.000003, 0.000010,1,0
1777416253514268640,1092669000000,  1092.674, 0.000633,-0.000135,-0.010225,-0.000073, 0.000126, 0.000414, 0.238520,-0.148320,-0.075448,1,-0.007313, 0.009327, 0.042363,1, 0.066834,-0.006708,-1.006754,-0.007314, 0.009330, 0.042373, 0.002899,-0.124967,-0.152156,-0.000001, 0.000003, 0.000010,1,0
1777416253534004315,1092689000000,  1092.694, 0.000505,-0.000115,-0.009834,-0.000099, 0.000034, 0.000366, 0.147830,-0.222570, 0.128884,1,-0.008641, 0.009024, 0.038742,1, 0.057798,-0.014160,-0.985908,-0.008642, 0.009027, 0.038752, 0.002810,-0.124586,-0.151168,-0.000001, 0.000003, 0.000010,1,0
1777416253553692320,1092709000000,  1092.714, 0.000673,-0.000011,-0.010299,-0.000110, 0.000047, 0.000364, 0.209670,-0.161175,-0.108397,1,-0.009951, 0.006887, 0.036815,1, 0.064281,-0.007742,-1.010095,-0.009952, 0.006890, 0.036824, 0.002809,-0.124333,-0.151879,-0.000001, 0.000003, 0.000010,1,0
1777416253563373847,1092729000000,  1092.734, 0.000616, 0.000357,-0.010367,-0.000107, 0.000016, 0.000397, 0.196309, 0.107248,-0.123584,1,-0.008360, 0.001960, 0.038702,1, 0.063016, 0.019756,-1.011638,-0.008361, 0.001963, 0.038712, 0.002607,-0.124090,-0.152406,-0.000001, 0.000003, 0.000010,1,0
1777416253573459535,1092729000000,  1092.734, 0.000616, 0.000357,-0.010367,-0.000107, 0.000016, 0.000397, 0.196309, 0.107248,-0.123584,1,-0.008360, 0.001960, 0.038702,1, 0.063016, 0.019756,-1.011638,-0.008361, 0.001963, 0.038712, 0.002607,-0.124090,-0.152406,-0.000001, 0.000003, 0.000010,1,0
1777416253583135043,1092749000000,  1092.754, 0.000657, 0.000249,-0.010469, 0.000005,-0.000049, 0.000530, 0.217757, 0.133723,-0.131293,1,-0.000702,-0.003933, 0.048400,1, 0.065169, 0.022485,-1.012425,-0.000703,-0.003930, 0.048410, 0.002636,-0.123719,-0.151922,-0.000001, 0.000003, 0.000010,1,0
1777416253593220082,1092749000000,  1092.754, 0.000657, 0.000249,-0.010469, 0.000005,-0.000049, 0.000530, 0.217757, 0.133723,-0.131293,1,-0.000702,-0.003933, 0.048400,1, 0.065169, 0.022485,-1.012425,-0.000703,-0.003930, 0.048410, 0.002636,-0.123719,-0.151922,-0.000001, 0.000003, 0.000010,1,0
1777416253612583710,1092769000000,  1092.774, 0.000617, 0.000199,-0.010237,-0.000046,-0.000031, 0.000641, 0.170738, 0.132206,-0.043128,1,-0.002002,-0.005019, 0.058776,1, 0.062252, 0.023297,-1.003342,-0.002003,-0.005016, 0.058786, 0.002056,-0.123785,-0.152719,-0.000001, 0.000003, 0.000010,1,0
1777416253628074787,1092789000000,  1092.794, 0.000577, 0.000010,-0.010082,-0.000118,-0.000136, 0.000685, 0.144576,-0.045770, 0.004264,1,-0.006248,-0.008431, 0.065807,1, 0.060330, 0.005579,-0.998472,-0.006249,-0.008428, 0.065817, 0.002275,-0.123901,-0.152476,-0.000001, 0.000003, 0.000010,1,0
1777416253647843150,1092809000000,  1092.814, 0.000466, 0.000255,-0.010203,-0.000060,-0.000059, 0.000751, 0.081818, 0.077596,-0.025538,1,-0.006542,-0.004104, 0.071243,1, 0.054096, 0.018364,-1.001502,-0.006543,-0.004101, 0.071253, 0.002052,-0.123328,-0.151819,-0.000001, 0.000003, 0.000010,1,0
1777416253657532826,1092829000000,  1092.829, 0.000418, 0.000266,-0.010095,-0.000006,-0.000061, 0.000835,-0.023116, 0.147270, 0.032983,1,-0.003201,-0.003948, 0.078630,1, 0.043416, 0.025528,-0.995533,-0.003202,-0.003945, 0.078640, 0.002477,-0.123078,-0.151721,-0.000001, 0.000003, 0.000010,1,0
1777416253667616828,1092829000000,  1092.829, 0.000418, 0.000266,-0.010095,-0.000006,-0.000061, 0.000835,-0.023116, 0.147270, 0.032983,1,-0.003201,-0.003948, 0.078630,1, 0.043416, 0.025528,-0.995533,-0.003202,-0.003945, 0.078640, 0.002477,-0.123078,-0.151721,-0.000001, 0.000003, 0.000010,1,0
1777416253677273205,1092849000000,  1092.849, 0.000344, 0.000407,-0.009959, 0.000016, 0.000072, 0.000982,-0.082194, 0.228120,-0.000106,1,-0.000883, 0.001655, 0.090775,1, 0.037397, 0.033738,-0.998907,-0.000884, 0.001658, 0.090785, 0.002485,-0.122781,-0.152335,-0.000001, 0.000003, 0.000010,1,0
1777416253687358263,1092849000000,  1092.849, 0.000344, 0.000407,-0.009959, 0.000016, 0.000072, 0.000982,-0.082194, 0.228120,-0.000106,1,-0.000883, 0.001655, 0.090775,1, 0.037397, 0.033738,-0.998907,-0.000884, 0.001658, 0.090785, 0.002485,-0.122781,-0.152335,-0.000001, 0.000003, 0.000010,1,0
1777416253706782692,1092869000000,  1092.869, 0.000382, 0.000181,-0.009742,-0.000023, 0.000099, 0.001095,-0.080984, 0.212972,-0.071125,1,-0.002857, 0.003377, 0.097151,1, 0.038013, 0.025456,-0.991201,-0.002653, 0.006483, 0.102823, 0.002666,-0.122384,-0.152500,-0.000001, 0.000003, 0.000010,1,0
1777416253716403863,1092889000000,  1092.889, 0.000388, 0.000236,-0.009673,-0.000038, 0.000066, 0.001177,-0.056883, 0.138915,-0.049743,1,-0.003676, 0.007296, 0.107118,1, 0.039413, 0.023540,-0.985703,-0.003636, 0.007121, 0.112044, 0.002274,-0.121637,-0.153482,-0.000001, 0.000003, 0.000010,1,0
1777416253726488698,1092889000000,  1092.889, 0.000388, 0.000236,-0.009673,-0.000038, 0.000066, 0.001177,-0.056883, 0.138915,-0.049743,1,-0.003676, 0.007296, 0.107118,1, 0.039413, 0.023540,-0.985703,-0.003636, 0.007121, 0.112044, 0.002274,-0.121637,-0.153482,-0.000001, 0.000003, 0.000010,1,0
1777416253736163391,1092909000000,  1092.909, 0.000375, 0.000088,-0.009927, 0.000006, 0.000004, 0.001215,-0.042257, 0.057259, 0.087108,1,-0.003144, 0.006681, 0.115194,1, 0.039644, 0.012967,-0.990653,-0.001432, 0.003718, 0.118073, 0.002010,-0.121125,-0.153062,-0.000001, 0.000003, 0.000010,1,0
1777416253746249190,1092909000000,  1092.909, 0.000375, 0.000088,-0.009927, 0.000006, 0.000004, 0.001215,-0.042257, 0.057259, 0.087108,1,-0.003144, 0.006681, 0.115194,1, 0.039644, 0.012967,-0.990653,-0.001432, 0.003718, 0.118073, 0.002010,-0.121125,-0.153062,-0.000001, 0.000003, 0.000010,1,0
1777416253765934139,1092929000000,  1092.929, 0.000313, 0.000098,-0.009945,-0.000081, 0.000039, 0.001281,-0.091288, 0.020069, 0.020508,1,-0.001477, 0.002759, 0.121144,1, 0.034610, 0.011138,-0.997352,-0.004631, 0.003488, 0.124367, 0.002027,-0.120338,-0.152601,-0.000001, 0.000003, 0.000010,1,0
1777416253775622518,1092949000000,  1092.949, 0.000356,-0.000032,-0.010057,-0.000107, 0.000044, 0.001298,-0.099662,-0.048954,-0.054143,1,-0.007488, 0.003696, 0.127070,1, 0.035815, 0.001221,-1.006133,-0.009043, 0.004247, 0.128322, 0.001469,-0.119669,-0.151868,-0.000001, 0.000003, 0.000010,1,0
1777416253785707520,1092949000000,  1092.949, 0.000356,-0.000032,-0.010057,-0.000107, 0.000044, 0.001298,-0.099662,-0.048954,-0.054143,1,-0.007488, 0.003696, 0.127070,1, 0.035815, 0.001221,-1.006133,-0.009043, 0.004247, 0.128322, 0.001469,-0.119669,-0.151868,-0.000001, 0.000003, 0.000010,1,0
1777416253795362823,1092969000000,  1092.969, 0.000204, 0.000113,-0.009871,-0.000054, 0.000055, 0.001334,-0.161842,-0.100539, 0.042186,1,-0.008561, 0.003386, 0.129486,1, 0.025915, 0.005150,-0.991116,-0.006863, 0.004495, 0.131411, 0.001078,-0.119426,-0.151950,-0.000001, 0.000003, 0.000010,1,0
1777416253805448881,1092969000000,  1092.969, 0.000204, 0.000113,-0.009871,-0.000054, 0.000055, 0.001334,-0.161842,-0.100539, 0.042186,1,-0.008561, 0.003386, 0.129486,1, 0.025915, 0.005150,-0.991116,-0.006863, 0.004495, 0.131411, 0.001078,-0.119426,-0.151950,-0.000001, 0.000003, 0.000010,1,0
1777416253815130649,1092989000000,  1092.989, 0.000085, 0.000270,-0.010120,-0.000037,-0.000057, 0.001331,-0.233755,-0.146798, 0.186716,1,-0.004349, 0.002755, 0.133235,1, 0.016390, 0.012815,-0.995807,-0.004433,-0.001071, 0.133280, 0.000802,-0.119007,-0.152272,-0.000001, 0.000003, 0.000010,1,0
1777416253825216244,1092989000000,  1092.989, 0.000085, 0.000270,-0.010120,-0.000037,-0.000057, 0.001331,-0.233755,-0.146798, 0.186716,1,-0.004349, 0.002755, 0.133235,1, 0.016390, 0.012815,-0.995807,-0.004433,-0.001071, 0.133280, 0.000802,-0.119007,-0.152272,-0.000001, 0.000003, 0.000010,1,0
1777416253844897155,1093009000000,  1093.009, 0.000145,-0.000123,-0.010385,-0.000008, 0.000028, 0.001365,-0.349054,-0.064383, 0.160237,1,-0.002197,-0.000285, 0.135450,1, 0.013553,-0.002665,-1.012585,-0.002075, 0.001070, 0.135854, 0.000636,-0.118425,-0.153058,-0.000001, 0.000003, 0.000010,1,0
1777416253854634335,1093019000000,  1093.024,-0.000003,-0.000218,-0.009752,-0.000038,-0.000025, 0.001370,-0.402676,-0.233045, 0.056565,1,-0.003300,-0.000260, 0.136233,1, 0.007022,-0.011060,-0.992994,-0.003301,-0.000258, 0.136242, 0.000848,-0.118047,-0.153148,-0.000001, 0.000003, 0.000010,1,0
1777416253864734838,1093019000000,  1093.024,-0.000003,-0.000218,-0.009752,-0.000038,-0.000025, 0.001370,-0.402676,-0.233045, 0.056565,1,-0.003300,-0.000260, 0.136233,1, 0.007022,-0.011060,-0.992994,-0.003301,-0.000258, 0.136242, 0.000848,-0.118047,-0.153148,-0.000001, 0.000003, 0.000010,1,0
1777416253874323692,1093039000000,  1093.044, 0.000017,-0.000183,-0.009622,-0.000008, 0.000050, 0.001341,-0.438125,-0.263380, 0.145001,1,-0.003244, 0.002903, 0.134739,1, 0.003482,-0.014172,-0.983973,-0.003245, 0.002906, 0.134748, 0.000886,-0.117818,-0.152563,-0.000001, 0.000003, 0.000010,1,0
1777416253884409749,1093039000000,  1093.044, 0.000017,-0.000183,-0.009622,-0.000008, 0.000050, 0.001341,-0.438125,-0.263380, 0.145001,1,-0.003244, 0.002903, 0.134739,1, 0.003482,-0.014172,-0.983973,-0.003245, 0.002906, 0.134748, 0.000886,-0.117818,-0.152563,-0.000001, 0.000003, 0.000010,1,0
1777416253894074294,1093059000000,  1093.064,-0.000014,-0.000243,-0.009742,-0.000058, 0.000003, 0.001285,-0.469296,-0.314734, 0.102436,1,-0.005084, 0.001369, 0.130793,1, 0.000389,-0.019443,-0.988310,-0.005085, 0.001372, 0.130802, 0.000839,-0.117198,-0.152362,-0.000001, 0.000003, 0.000010,1,0
1777416253904159537,1093059000000,  1093.064,-0.000014,-0.000243,-0.009742,-0.000058, 0.000003, 0.001285,-0.469296,-0.314734, 0.102436,1,-0.005084, 0.001369, 0.130793,1, 0.000389,-0.019443,-0.988310,-0.005085, 0.001372, 0.130802, 0.000839,-0.117198,-0.152362,-0.000001, 0.000003, 0.000010,1,0
1777416253923901545,1093079000000,  1093.084, 0.000009,-0.000050,-0.009949,-0.000099, 0.000052, 0.001233,-0.479188,-0.236074, 0.029938,1,-0.008495, 0.003885, 0.125575,1,-0.000522,-0.011413,-0.995698,-0.008496, 0.003888, 0.125585, 0.000515,-0.116427,-0.151988,-0.000001, 0.000003, 0.000010,1,0
1777416253933593925,1093099000000,  1093.104, 0.000012,-0.000058,-0.009974,-0.000049, 0.000091, 0.001221,-0.477253,-0.177492, 0.048722,1,-0.006778, 0.006048, 0.123102,1,-0.000198,-0.005409,-0.993776,-0.006779, 0.006051, 0.123112, 0.000117,-0.115856,-0.152149,-0.000001, 0.000003, 0.000010,1,0
1777416253943679927,1093099000000,  1093.104, 0.000012,-0.000058,-0.009974,-0.000049, 0.000091, 0.001221,-0.477253,-0.177492, 0.048722,1,-0.006778, 0.006048, 0.123102,1,-0.000198,-0.005409,-0.993776,-0.006779, 0.006051, 0.123112, 0.000117,-0.115856,-0.152149,-0.000001, 0.000003, 0.000010,1,0
1777416253953288430,1093119000000,  1093.124, 0.000064, 0.000092,-0.010034, 0.000050, 0.000070, 0.001245,-0.437921,-0.100904, 0.008313,1, 0.001253, 0.006358, 0.124085,1, 0.003973, 0.002317,-0.997890, 0.001252, 0.006360, 0.124095, 0.000440,-0.115029,-0.152773,-0.000001, 0.000003, 0.000010,1,0
1777416253963375192,1093119000000,  1093.124, 0.000064, 0.000092,-0.010034, 0.000050, 0.000070, 0.001245,-0.437921,-0.100904, 0.008313,1, 0.001253, 0.006358, 0.124085,1, 0.003973, 0.002317,-0.997890, 0.001252, 0.006360, 0.124095, 0.000440,-0.115029,-0.152773,-0.000001, 0.000003, 0.000010,1,0
1777416253973040644,1093139000000,  1093.144, 0.000018, 0.000407,-0.010121, 0.000051, 0.000014, 0.001402,-0.448668, 0.174069, 0.008768,1, 0.003186, 0.004224, 0.133167,1, 0.003032, 0.030165,-0.997838, 0.003185, 0.004227, 0.133176,-0.000365,-0.114689,-0.153176,-0.000001, 0.000003, 0.000010,1,0
1777416253983125813,1093139000000,  1093.144, 0.000018, 0.000407,-0.010121, 0.000051, 0.000014, 0.001402,-0.448668, 0.174069, 0.008768,1, 0.003186, 0.004224, 0.133167,1, 0.003032, 0.030165,-0.997838, 0.003185, 0.004227, 0.133176,-0.000365,-0.114689,-0.153176,-0.000001, 0.000003, 0.000010,1,0
1777416254002860673,1093159000000,  1093.164, 0.000059, 0.000603,-0.009891,-0.000060, 0.000067, 0.001568,-0.416807, 0.337337, 0.037572,1,-0.002526, 0.006243, 0.148133,1, 0.006203, 0.046751,-0.994905,-0.002527, 0.006246, 0.148143,-0.000721,-0.113972,-0.152980,-0.000001, 0.000003, 0.000010,1,0
1777416254012614307,1093179000000,  1093.179, 0.000120, 0.000618,-0.009837,-0.000008, 0.000086, 0.001753,-0.383364, 0.437497, 0.071106,1,-0.000900, 0.006599, 0.165437,1, 0.009398, 0.056988,-0.991496,-0.000901, 0.006602, 0.165447,-0.000697,-0.113379,-0.152599,-0.000001, 0.000003, 0.000010,1,0
1777416254022699892,1093179000000,  1093.179, 0.000120, 0.000618,-0.009837,-0.000008, 0.000086, 0.001753,-0.383364, 0.437497, 0.071106,1,-0.000900, 0.006599, 0.165437,1, 0.009398, 0.056988,-0.991496,-0.000901, 0.006602, 0.165447,-0.000697,-0.113379,-0.152599,-0.000001, 0.000003, 0.000010,1,0
1777416254038166452,1093199000000,  1093.204,-0.000035, 0.000473,-0.010016, 0.000007,-0.000028, 0.001924,-0.453433, 0.389652, 0.039963,1, 0.000046, 0.001348, 0.182781,1, 0.002267, 0.051979,-0.994673, 0.000045, 0.001351, 0.182791,-0.000680,-0.112522,-0.152573,-0.000001, 0.000003, 0.000010,1,0
1777416254057875903,1093219000000,  1093.224,-0.000016,-0.000121,-0.010036, 0.000142,-0.000073, 0.002054,-0.516988, 0.081542, 0.018183,1, 0.008426,-0.003045, 0.197591,1,-0.004219, 0.020308,-0.996897, 0.008425,-0.003042, 0.197601,-0.000789,-0.111624,-0.152707,-0.000001, 0.000003, 0.000010,1,0
1777416254067625056,1093239000000,  1093.239,-0.000177,-0.000619,-0.009630, 0.000201,-0.000010, 0.001971,-0.586397,-0.382760, 0.049249,1, 0.014638, 0.000226, 0.198029,1,-0.011288,-0.027410,-0.993733, 0.014637, 0.000229, 0.198038,-0.001068,-0.110900,-0.153302,-0.000001, 0.000003, 0.000010,1,0
1777416254077710807,1093239000000,  1093.239,-0.000177,-0.000619,-0.009630, 0.000201,-0.000010, 0.001971,-0.586397,-0.382760, 0.049249,1, 0.014638, 0.000226, 0.198029,1,-0.011288,-0.027410,-0.993733, 0.014637, 0.000229, 0.198038,-0.001068,-0.110900,-0.153302,-0.000001, 0.000003, 0.000010,1,0
1777416254087300856,1093259000000,  1093.259,-0.000364, 0.000106,-0.008708, 0.000214, 0.000022, 0.001872,-0.733597,-0.183371, 0.528394,1, 0.018403, 0.001801, 0.190010,1,-0.026248,-0.007584,-0.944877, 0.018402, 0.001804, 0.190020,-0.001649,-0.110071,-0.152950,-0.000001, 0.000003, 0.000010,1,0
1777416254097385422,1093259000000,  1093.259,-0.000364, 0.000106,-0.008708, 0.000214, 0.000022, 0.001872,-0.733597,-0.183371, 0.528394,1, 0.018403, 0.001801, 0.190010,1,-0.026248,-0.007584,-0.944877, 0.018402, 0.001804, 0.190020,-0.001649,-0.110071,-0.152950,-0.000001, 0.000003, 0.000010,1,0
1777416254116813944,1093279000000,  1093.279,-0.000402,-0.000545,-0.009138, 0.000107,-0.000058, 0.001886,-0.774066,-0.122748, 0.180397,1, 0.016632,-0.001774, 0.189900,1,-0.034941,-0.027616,-0.950980, 0.013160,-0.003575, 0.189075,-0.002158,-0.109071,-0.151795,-0.000001, 0.000003, 0.000010,1,0
1777416254126499296,1093299000000,  1093.299,-0.000509, 0.000032,-0.008173,-0.000331,-0.000089, 0.001842,-0.861888,-0.267146,-0.355353,1,-0.002876,-0.001543, 0.184651,1,-0.046591,-0.008505,-0.934408,-0.017457,-0.005233, 0.184600,-0.002302,-0.107970,-0.151559,-0.000001, 0.000003, 0.000010,1,0
1777416254136584196,1093299000000,  1093.299,-0.000509, 0.000032,-0.008173,-0.000331,-0.000089, 0.001842,-0.861888,-0.267146,-0.355353,1,-0.002876,-0.001543, 0.184651,1,-0.046591,-0.008505,-0.934408,-0.017457,-0.005233, 0.184600,-0.002302,-0.107970,-0.151559,-0.000001, 0.000003, 0.000010,1,0
1777416254146206765,1093319000000,  1093.319,-0.000214,-0.000075,-0.010227, 0.000028,-0.000059, 0.001968,-0.933396, 0.154085,-0.280495,1,-0.036869,-0.001160, 0.184145,1,-0.034863, 0.006422,-1.024143,-0.020082,-0.003701, 0.190011,-0.002473,-0.106700,-0.151903,-0.000001, 0.000003, 0.000010,1,0
1777416254156292220,1093319000000,  1093.319,-0.000214,-0.000075,-0.010227, 0.000028,-0.000059, 0.001968,-0.933396, 0.154085,-0.280495,1,-0.036869,-0.001160, 0.184145,1,-0.034863, 0.006422,-1.024143,-0.020082,-0.003701, 0.190011,-0.002473,-0.106700,-0.151903,-0.000001, 0.000003, 0.000010,1,0
1777416254176025506,1093339000000,  1093.339,-0.000103,-0.000541,-0.010560,-0.000041, 0.000157, 0.001814,-0.850278,-0.380426, 0.018193,1,-0.003576,-0.009057, 0.187971,1,-0.024113,-0.040900,-1.020765,-0.002852, 0.003043, 0.184930,-0.002204,-0.105895,-0.152364,-0.000001, 0.000003, 0.000010,1,0
1777416254195782108,1093359000000,  1093.359,-0.000111,-0.000455,-0.009998, 0.000097, 0.000205, 0.001588,-0.694113,-0.804020, 0.099109,1, 0.005212, 0.004063, 0.179658,1,-0.016199,-0.059571,-0.994983, 0.007183, 0.011869, 0.169989,-0.002770,-0.105454,-0.152765,-0.000001, 0.000003, 0.000010,1,0
1777416254205456941,1093379000000,  1093.379,-0.000213,-0.000650,-0.010053, 0.000017, 0.000049, 0.001513,-0.580872,-0.600067, 0.144362,1, 0.005099, 0.003633, 0.163498,1,-0.014525,-0.058948,-0.996614, 0.004084, 0.005082, 0.157865,-0.002850,-0.104352,-0.152846,-0.000001, 0.000003, 0.000009,1,0
1777416254215546378,1093379000000,  1093.379,-0.000213,-0.000650,-0.010053, 0.000017, 0.000049, 0.001513,-0.580872,-0.600067, 0.144362,1, 0.005099, 0.003633, 0.163498,1,-0.014525,-0.058948,-0.996614, 0.004084, 0.005082, 0.157865,-0.002850,-0.104352,-0.152846,-0.000001, 0.000003, 0.000009,1,0
1777416254225151112,1093399000000,  1093.399,-0.000029,-0.000186,-0.009944,-0.000016, 0.000009, 0.001350,-0.511901,-0.730163,-0.187283,1, 0.002457, 0.006655, 0.149454,1,-0.003938,-0.041759,-1.005122, 0.000296, 0.004148, 0.142782,-0.003068,-0.103733,-0.152329,-0.000001, 0.000003, 0.000009,1,0
1777416254235236160,1093399000000,  1093.399,-0.000029,-0.000186,-0.009944,-0.000016, 0.000009, 0.001350,-0.511901,-0.730163,-0.187283,1, 0.002457, 0.006655, 0.149454,1,-0.003938,-0.041759,-1.005122, 0.000296, 0.004148, 0.142782,-0.003068,-0.103733,-0.152329,-0.000001, 0.000003, 0.000009,1,0
1777416254254976669,1093419000000,  1093.419, 0.000177, 0.000226,-0.010254, 0.000067, 0.000082, 0.001441,-0.433155,-0.195967, 0.105864,1,-0.000999, 0.006780, 0.139401,1, 0.010554, 0.005143,-1.002226, 0.002227, 0.007345, 0.141633,-0.002881,-0.103347,-0.152395,-0.000001, 0.000003, 0.000009,1,0
1777416254264663298,1093429000000,  1093.434, 0.000149, 0.000130,-0.009435, 0.000028, 0.000110, 0.001482,-0.353950,-0.000184, 0.184991,1, 0.001609, 0.009335, 0.144524,1, 0.012695, 0.009912,-0.979896, 0.001608, 0.009338, 0.144533,-0.002657,-0.103058,-0.152397,-0.000001, 0.000003, 0.000009,1,0
1777416254274748606,1093429000000,  1093.434, 0.000149, 0.000130,-0.009435, 0.000028, 0.000110, 0.001482,-0.353950,-0.000184, 0.184991,1, 0.001609, 0.009335, 0.144524,1, 0.012695, 0.009912,-0.979896, 0.001608, 0.009338, 0.144533,-0.002657,-0.103058,-0.152397,-0.000001, 0.000003, 0.000009,1,0
1777416254284403659,1093449000000,  1093.454, 0.000227,-0.000051,-0.009566,-0.000059, 0.000127, 0.001541,-0.238321,-0.035001, 0.042906,1,-0.002384, 0.009332, 0.151461,1, 0.024679, 0.006209,-0.994376,-0.002385, 0.009336, 0.151470,-0.002906,-0.102346,-0.152500,-0.000001, 0.000003, 0.000009,1,0
1777416254294511097,1093449000000,  1093.454, 0.000227,-0.000051,-0.009566,-0.000059, 0.000127, 0.001541,-0.238321,-0.035001, 0.042906,1,-0.002384, 0.009332, 0.151461,1, 0.024679, 0.006209,-0.994376,-0.002385, 0.009336, 0.151470,-0.002906,-0.102346,-0.152500,-0.000001, 0.000003, 0.000009,1,0
1777416254304164020,1093449000000,  1093.474, 0.000227,-0.000051,-0.009566,-0.000059, 0.000127, 0.001541,-0.316324, 0.093821, 0.249651,1,-0.011274, 0.009633, 0.158029,1, 0.024679, 0.006209,-0.994376,-0.002385, 0.009336, 0.151470,-0.002906,-0.102346,-0.152500,-0.000001, 0.000003, 0.000009,1,0
1777416254314249365,1093449000000,  1093.474, 0.000227,-0.000051,-0.009566,-0.000059, 0.000127, 0.001541,-0.316324, 0.093821, 0.249651,1,-0.011274, 0.009633, 0.158029,1, 0.024679, 0.006209,-0.994376,-0.002385, 0.009336, 0.151470,-0.002906,-0.102346,-0.152500,-0.000001, 0.000003, 0.000009,1,0
1777416254333932332,1093489000000,  1093.494, 0.000203,-0.000427,-0.009596,-0.000135, 0.000111, 0.001591,-0.263200,-0.253203, 0.063893,1,-0.012081, 0.011820, 0.159053,1, 0.022606,-0.016007,-0.992213,-0.012082, 0.011823, 0.159062,-0.003467,-0.100618,-0.153036,-0.000001, 0.000003, 0.000009,1,0
1777416254343685337,1093509000000,  1093.514, 0.000303,-0.000318,-0.010241,-0.000060, 0.000165, 0.001536,-0.255039,-0.299523,-0.071769,1,-0.008680, 0.013939, 0.155489,1, 0.023727,-0.020684,-1.006032,-0.008681, 0.013942, 0.155498,-0.003413,-0.099841,-0.153149,-0.000001, 0.000003, 0.000009,1,0
1777416254353769792,1093509000000,  1093.514, 0.000303,-0.000318,-0.010241,-0.000060, 0.000165, 0.001536,-0.255039,-0.299523,-0.071769,1,-0.008680, 0.013939, 0.155489,1, 0.023727,-0.020684,-1.006032,-0.008681, 0.013942, 0.155498,-0.003413,-0.099841,-0.153149,-0.000001, 0.000003, 0.000009,1,0
1777416254363380508,1093529000000,  1093.534, 0.000257,-0.000033,-0.010177,-0.000045, 0.000117, 0.001484,-0.275231,-0.228235, 0.018861,1,-0.004844, 0.012641, 0.150674,1, 0.021981,-0.013459,-0.996775,-0.004845, 0.012644, 0.150683,-0.003973,-0.098772,-0.152384,-0.000001, 0.000003, 0.000009,1,0
1777416254373464945,1093529000000,  1093.534, 0.000257,-0.000033,-0.010177,-0.000045, 0.000117, 0.001484,-0.275231,-0.228235, 0.018861,1,-0.004844, 0.012641, 0.150674,1, 0.021981,-0.013459,-0.996775,-0.004845, 0.012644, 0.150683,-0.003973,-0.098772,-0.152384,-0.000001, 0.000003, 0.000009,1,0
1777416254383131999,1093549000000,  1093.554, 0.000340,-0.000444,-0.010294, 0.000025, 0.000154, 0.001444,-0.230474,-0.443318,-0.120901,1, 0.000821, 0.014293, 0.147818,1, 0.026831,-0.035529,-1.011014, 0.000820, 0.014297, 0.147827,-0.003999,-0.097703,-0.152247,-0.000001, 0.000003, 0.000009,1,0
1777416254393216492,1093549000000,  1093.554, 0.000340,-0.000444,-0.010294, 0.000025, 0.000154, 0.001444,-0.230474,-0.443318,-0.120901,1, 0.000821, 0.014293, 0.147818,1, 0.026831,-0.035529,-1.011014, 0.000820, 0.014297, 0.147827,-0.003999,-0.097703,-0.152247,-0.000001, 0.000003, 0.000009,1,0
1777416254412948907,1093569000000,  1093.574, 0.000237,-0.000249,-0.010138, 0.000037, 0.000120, 0.001391,-0.249807,-0.353097,-0.010490,1, 0.002979, 0.010222, 0.142092,1, 0.025183,-0.027309,-0.999747, 0.002978, 0.010226, 0.142102,-0.004447,-0.097933,-0.152446,-0.000001, 0.000004, 0.000011,1,0
1777416254422701245,1093589000000,  1093.594, 0.000231,-0.000294,-0.010133,-0.000001, 0.000005, 0.001314,-0.264562,-0.355174,-0.000633,1, 0.003069, 0.005286, 0.135618,1, 0.023902,-0.028111,-0.998736, 0.003068, 0.005290, 0.135628,-0.004391,-0.097284,-0.153215,-0.000001, 0.000004, 0.000011,1,0
1777416254432785626,1093589000000,  1093.594, 0.000231,-0.000294,-0.010133,-0.000001, 0.000005, 0.001314,-0.264562,-0.355174,-0.000633,1, 0.003069, 0.005286, 0.135618,1, 0.023902,-0.028111,-0.998736, 0.003068, 0.005290, 0.135628,-0.004391,-0.097284,-0.153215,-0.000001, 0.000004, 0.000011,1,0
1777416254442325745,1093609000000,  1093.614, 0.000216,-0.000085,-0.009978, 0.000003,-0.000018, 0.001217,-0.257800,-0.280565, 0.030984,1, 0.000475, 0.000642, 0.126439,1, 0.024679,-0.020775,-0.995510, 0.000474, 0.000646, 0.126450,-0.004157,-0.097014,-0.153559,-0.000001, 0.000004, 0.000011,1,0
1777416254452429276,1093609000000,  1093.614, 0.000216,-0.000085,-0.009978, 0.000003,-0.000018, 0.001217,-0.257800,-0.280565, 0.030984,1, 0.000475, 0.000642, 0.126439,1, 0.024679,-0.020775,-0.995510, 0.000474, 0.000646, 0.126450,-0.004157,-0.097014,-0.153559,-0.000001, 0.000004, 0.000011,1,0
1777416254468017956,1093629000000,  1093.634, 0.000277,-0.000364,-0.009946, 0.000077, 0.000030, 0.001192,-0.234141,-0.354087, 0.029098,1, 0.004300, 0.002337, 0.121792,1, 0.027143,-0.028483,-0.995701, 0.004299, 0.002341, 0.121802,-0.004284,-0.096666,-0.153479,-0.000001, 0.000004, 0.000011,1,0
1777416254487784689,1093649000000,  1093.649, 0.000237,-0.000320,-0.009890, 0.000016, 0.000018, 0.001104,-0.238119,-0.381711, 0.053927,1, 0.002350, 0.003183, 0.114470,1, 0.026830,-0.031506,-0.993166, 0.002349, 0.003186, 0.114480,-0.004809,-0.095728,-0.152404,-0.000001, 0.000004, 0.000011,1,0
1777416254497409462,1093669000000,  1093.669, 0.000237,-0.000166,-0.009902,-0.000018, 0.000056, 0.001037,-0.258390,-0.289908, 0.052320,1,-0.000907, 0.004335, 0.107302,1, 0.024854,-0.022268,-0.993327,-0.000909, 0.004338, 0.107313,-0.004970,-0.095244,-0.152413,-0.000001, 0.000004, 0.000011,1,0
1777416254507510103,1093669000000,  1093.669, 0.000237,-0.000166,-0.009902,-0.000018, 0.000056, 0.001037,-0.258390,-0.289908, 0.052320,1,-0.000907, 0.004335, 0.107302,1, 0.024854,-0.022268,-0.993327,-0.000909, 0.004338, 0.107313,-0.004970,-0.095244,-0.152413,-0.000001, 0.000004, 0.000011,1,0
1777416254526849601,1093689000000,  1093.689, 0.000363,-0.000330,-0.010063,-0.000026, 0.000070, 0.000962,-0.243941,-0.352214,-0.001042,1,-0.001816, 0.004052, 0.104423,1, 0.031115,-0.030290,-1.002280,-0.002322, 0.005421, 0.100590,-0.005037,-0.094262,-0.152288,-0.000001, 0.000004, 0.000011,1,0
1777416254536522766,1093709000000,  1093.709, 0.000412,-0.000288,-0.010024,-0.000004, 0.000115, 0.000923,-0.166009,-0.346399, 0.024248,1,-0.000638, 0.006020, 0.097472,1, 0.037679,-0.028474,-1.000400,-0.000670, 0.008622, 0.095071,-0.004976,-0.094008,-0.152815,-0.000001, 0.000004, 0.000011,1,0
1777416254546607295,1093709000000,  1093.709, 0.000412,-0.000288,-0.010024,-0.000004, 0.000115, 0.000923,-0.166009,-0.346399, 0.024248,1,-0.000638, 0.006020, 0.097472,1, 0.037679,-0.028474,-1.000400,-0.000670, 0.008622, 0.095071,-0.004976,-0.094008,-0.152815,-0.000001, 0.000004, 0.000011,1,0
1777416254556284239,1093729000000,  1093.729, 0.000466,-0.000324,-0.010032,-0.000005, 0.000165, 0.000880,-0.121408,-0.318979, 0.046688,1,-0.000245, 0.010478, 0.092976,1, 0.043436,-0.029207,-0.999563,-0.000517, 0.013099, 0.090639,-0.005346,-0.093714,-0.153005,-0.000001, 0.000004, 0.000011,1,0
1777416254566369472,1093729000000,  1093.729, 0.000466,-0.000324,-0.010032,-0.000005, 0.000165, 0.000880,-0.121408,-0.318979, 0.046688,1,-0.000245, 0.010478, 0.092976,1, 0.043436,-0.029207,-0.999563,-0.000517, 0.013099, 0.090639,-0.005346,-0.093714,-0.153005,-0.000001, 0.000004, 0.000011,1,0
1777416254576050861,1093749000000,  1093.749, 0.000493,-0.000304,-0.010023,-0.000060, 0.000085, 0.000775,-0.074893,-0.436686, 0.038732,1,-0.001865, 0.010433, 0.087796,1, 0.046552,-0.033839,-0.997130,-0.003523, 0.009500, 0.083090,-0.004953,-0.093334,-0.152717,-0.000001, 0.000004, 0.000011,1,0
1777416254586136149,1093749000000,  1093.749, 0.000493,-0.000304,-0.010023,-0.000060, 0.000085, 0.000775,-0.074893,-0.436686, 0.038732,1,-0.001865, 0.010433, 0.087796,1, 0.046552,-0.033839,-0.997130,-0.003523, 0.009500, 0.083090,-0.004953,-0.093334,-0.152717,-0.000001, 0.000004, 0.000011,1,0
1777416254605419087,1093769000000,  1093.769, 0.000457,-0.000205,-0.009998,-0.000015, 0.000063, 0.000727,-0.027154,-0.366838, 0.073366,1,-0.003222, 0.008977, 0.079202,1, 0.047390,-0.025831,-0.993196,-0.002230, 0.007862, 0.076196,-0.004986,-0.093415,-0.153442,-0.000001, 0.000004, 0.000011,1,0
1777416254615058490,1093789000000,  1093.789, 0.000409,-0.000152,-0.010028,-0.000009, 0.000021, 0.000699,-0.045295,-0.269052, 0.087787,1,-0.002172, 0.006582, 0.073769,1, 0.044183,-0.018462,-0.994753,-0.001578, 0.004677, 0.072019,-0.005237,-0.093097,-0.152316,-0.000001, 0.000004, 0.000011,1,0
1777416254625157410,1093789000000,  1093.789, 0.000409,-0.000152,-0.010028,-0.000009, 0.000021, 0.000699,-0.045295,-0.269052, 0.087787,1,-0.002172, 0.006582, 0.073769,1, 0.044183,-0.018462,-0.994753,-0.001578, 0.004677, 0.072019,-0.005237,-0.093097,-0.152316,-0.000001, 0.000004, 0.000011,1,0
1777416254644874676,1093799000000,  1093.804, 0.000435,-0.000148,-0.009926,-0.000023, 0.000042, 0.000676,-0.078311,-0.225936, 0.040657,1,-0.001973, 0.004322, 0.069952,1, 0.043867,-0.016725,-0.994489,-0.001974, 0.004326, 0.069962,-0.005366,-0.092845,-0.152124,-0.000001, 0.000004, 0.000011,1,0
1777416254654572010,1093819000000,  1093.824, 0.000354,-0.000255,-0.009939, 0.000010, 0.000086, 0.000637,-0.132132,-0.265777, 0.026750,1,-0.000281, 0.006136, 0.066306,1, 0.038460,-0.020862,-0.995903,-0.000283, 0.006140, 0.066317,-0.005927,-0.092732,-0.152778,-0.000001, 0.000004, 0.000011,1,0
1777416254664657243,1093819000000,  1093.824, 0.000354,-0.000255,-0.009939, 0.000010, 0.000086, 0.000637,-0.132132,-0.265777, 0.026750,1,-0.000281, 0.006136, 0.066306,1, 0.038460,-0.020862,-0.995903,-0.000283, 0.006140, 0.066317,-0.005927,-0.092732,-0.152778,-0.000001, 0.000004, 0.000011,1,0
1777416254674320167,1093839000000,  1093.844, 0.000279,-0.000433,-0.009987, 0.000009, 0.000096, 0.000546,-0.199585,-0.402614, 0.009025,1, 0.000909, 0.008391, 0.059306,1, 0.031732,-0.034903,-0.997703, 0.000908, 0.008395, 0.059317,-0.005538,-0.092389,-0.153330,-0.000001, 0.000004, 0.000011,1,0
1777416254684404956,1093839000000,  1093.844, 0.000279,-0.000433,-0.009987, 0.000009, 0.000096, 0.000546,-0.199585,-0.402614, 0.009025,1, 0.000909, 0.008391, 0.059306,1, 0.031732,-0.034903,-0.997703, 0.000908, 0.008395, 0.059317,-0.005538,-0.092389,-0.153330,-0.000001, 0.000004, 0.000011,1,0
1777416254694075232,1093859000000,  1093.864, 0.000280,-0.000348,-0.010007,-0.000011, 0.000083, 0.000454,-0.224464,-0.416855, 0.000779,1,-0.000382, 0.008447, 0.050351,1, 0.029368,-0.036417,-0.998536,-0.000383, 0.008450, 0.050361,-0.005413,-0.092115,-0.153000,-0.000001, 0.000004, 0.000011,1,0
1777416254704159910,1093859000000,  1093.864, 0.000280,-0.000348,-0.010007,-0.000011, 0.000083, 0.000454,-0.224464,-0.416855, 0.000779,1,-0.000382, 0.008447, 0.050351,1, 0.029368,-0.036417,-0.998536,-0.000383, 0.008450, 0.050361,-0.005413,-0.092115,-0.153000,-0.000001, 0.000004, 0.000011,1,0
1777416254723901103,1093879000000,  1093.884, 0.000297,-0.000312,-0.009999,-0.000016, 0.000062, 0.000380,-0.223322,-0.381847, 0.013084,1,-0.001067, 0.007271, 0.042587,1, 0.029651,-0.032882,-0.997272,-0.001068, 0.007275, 0.042598,-0.005499,-0.092314,-0.152776,-0.000001, 0.000004, 0.000011,1,0
1777416254733502023,1093899000000,  1093.904, 0.000302,-0.000240,-0.010000,-0.000028, 0.000002, 0.000312,-0.220846,-0.334710, 0.021294,1,-0.001906, 0.002924, 0.035324,1, 0.030010,-0.028089,-0.996430,-0.001907, 0.002928, 0.035335,-0.005589,-0.092076,-0.152531,-0.000001, 0.000004, 0.000011,1,0
1777416254743586737,1093899000000,  1093.904, 0.000302,-0.000240,-0.010000,-0.000028, 0.000002, 0.000312,-0.220846,-0.334710, 0.021294,1,-0.001906, 0.002924, 0.035324,1, 0.030010,-0.028089,-0.996430,-0.001907, 0.002928, 0.035335,-0.005589,-0.092076,-0.152531,-0.000001, 0.000004, 0.000011,1,0
1777416254753263625,1093919000000,  1093.924, 0.000262,-0.000165,-0.009968,-0.000026,-0.000001, 0.000260,-0.243751,-0.261785, 0.030263,1,-0.002465, 0.000840, 0.029080,1, 0.027713,-0.020638,-0.995513,-0.002466, 0.000844, 0.029091,-0.005698,-0.091673,-0.152394,-0.000001, 0.000004, 0.000011,1,0
1777416254763348896,1093919000000,  1093.924, 0.000262,-0.000165,-0.009968,-0.000026,-0.000001, 0.000260,-0.243751,-0.261785, 0.030263,1,-0.002465, 0.000840, 0.029080,1, 0.027713,-0.020638,-0.995513,-0.002466, 0.000844, 0.029091,-0.005698,-0.091673,-0.152394,-0.000001, 0.000004, 0.000011,1,0
1777416254773024191,1093939000000,  1093.944, 0.000252,-0.000238,-0.009952,-0.000024,-0.000005, 0.000214,-0.259930,-0.277255, 0.032447,1,-0.002192, 0.000143, 0.024125,1, 0.026078,-0.022200,-0.995289,-0.002193, 0.000147, 0.024136,-0.005700,-0.091485,-0.152956,-0.000001, 0.000004, 0.000011,1,0
1777416254783124925,1093939000000,  1093.944, 0.000252,-0.000238,-0.009952,-0.000024,-0.000005, 0.000214,-0.259930,-0.277255, 0.032447,1,-0.002192, 0.000143, 0.024125,1, 0.026078,-0.022200,-0.995289,-0.002193, 0.000147, 0.024136,-0.005700,-0.091485,-0.152956,-0.000001, 0.000004, 0.000011,1,0
1777416254802852655,1093959000000,  1093.964, 0.000242,-0.000195,-0.009933,-0.000021,-0.000015, 0.000169,-0.269067,-0.263592, 0.034164,1,-0.002117,-0.000925, 0.019479,1, 0.025002,-0.020981,-0.995123,-0.002118,-0.000921, 0.019490,-0.005372,-0.091648,-0.154402,-0.000001, 0.000004, 0.000011,1,0
1777416254812476465,1093979000000,  1093.984, 0.000224,-0.000144,-0.009942,-0.000017,-0.000005, 0.000140,-0.281639,-0.216543, 0.031383,1,-0.002017,-0.000748, 0.016007,1, 0.023430,-0.016544,-0.995424,-0.002018,-0.000744, 0.016018,-0.005426,-0.091414,-0.153471,-0.000001, 0.000004, 0.000011,1,0
1777416254822561735,1093979000000,  1093.984, 0.000224,-0.000144,-0.009942,-0.000017,-0.000005, 0.000140,-0.281639,-0.216543, 0.031383,1,-0.002017,-0.000748, 0.016007,1, 0.023430,-0.016544,-0.995424,-0.002018,-0.000744, 0.016018,-0.005426,-0.091414,-0.153471,-0.000001, 0.000004, 0.000011,1,0
1777416254838106098,1093999000000,  1094.004, 0.000174,-0.000098,-0.009949,-0.000029,-0.000009, 0.000118,-0.315833,-0.176461, 0.027864,1,-0.002420,-0.000886, 0.013160,1, 0.019845,-0.012543,-0.995788,-0.002421,-0.000883, 0.013170,-0.005678,-0.091859,-0.153133,-0.000001, 0.000004, 0.000011,1,0
1777416254858050695,1094019000000,  1094.024, 0.000124,-0.000034,-0.009948,-0.000018, 0.000002, 0.000105,-0.361338,-0.118730, 0.031681,1,-0.002050,-0.000376, 0.011299,1, 0.015165,-0.006655,-0.995401,-0.002051,-0.000372, 0.011310,-0.005966,-0.092115,-0.152850,-0.000001, 0.000004, 0.000011,1,0
1777416254877628358,1094039000000,  1094.039, 0.000071,-0.000011,-0.009959,-0.000015, 0.000010, 0.000116,-0.410829,-0.082246, 0.028229,1,-0.001817, 0.000372, 0.011509,1, 0.010110,-0.002915,-0.995753,-0.001819, 0.000376, 0.011520,-0.005657,-0.091861,-0.153026,-0.000001, 0.000004, 0.000011,1,0
1777416254887008761,1094059000000,  1094.059, 0.000017, 0.000039,-0.009979,-0.000011, 0.000028, 0.000142,-0.463483,-0.037088, 0.021173,1,-0.001283, 0.001758, 0.013136,1, 0.004758, 0.001703,-0.996472,-0.001285, 0.001761, 0.013147,-0.005554,-0.092048,-0.153043,-0.000001, 0.000004, 0.000011,1,0
1777416254897094272,1094059000000,  1094.059, 0.000017, 0.000039,-0.009979,-0.000011, 0.000028, 0.000142,-0.463483,-0.037088, 0.021173,1,-0.001283, 0.001758, 0.013136,1, 0.004758, 0.001703,-0.996472,-0.001285, 0.001761, 0.013147,-0.005554,-0.092048,-0.153043,-0.000001, 0.000004, 0.000011,1,0
1777416254916879562,1094079000000,  1094.079,-0.000017,-0.000048,-0.009963,-0.000002, 0.000053, 0.000166,-0.485449,-0.043280, 0.022301,1,-0.000819, 0.003213, 0.014231,1, 0.000595,-0.001720,-0.996262,-0.000505, 0.004228, 0.015319,-0.005456,-0.091951,-0.152859,-0.000001, 0.000004, 0.000011,1,0
1777416254926490500,1094099000000,  1094.099,-0.000016,-0.000095,-0.009956,-0.000009, 0.000053, 0.000148,-0.515630,-0.107876, 0.019920,1,-0.000427, 0.005022, 0.015385,1,-0.000908,-0.007263,-0.996071,-0.000652, 0.005050, 0.015112,-0.005715,-0.092095,-0.153561,-0.000001, 0.000004, 0.000011,1,0
1777416254936575808,1094099000000,  1094.099,-0.000016,-0.000095,-0.009956,-0.000009, 0.000053, 0.000148,-0.515630,-0.107876, 0.019920,1,-0.000427, 0.005022, 0.015385,1,-0.000908,-0.007263,-0.996071,-0.000652, 0.005050, 0.015112,-0.005715,-0.092095,-0.153561,-0.000001, 0.000004, 0.000011,1,0
1777416254946188450,1094119000000,  1094.119,-0.000002,-0.000013,-0.009957,-0.000014, 0.000026, 0.000141,-0.521872,-0.120886, 0.034352,1,-0.000933, 0.004562, 0.014618,1,-0.000577,-0.004127,-0.995348,-0.001198, 0.003657, 0.014441,-0.005184,-0.091687,-0.153288,-0.000001, 0.000004, 0.000011,1,0
1777416254956273906,1094119000000,  1094.119,-0.000002,-0.000013,-0.009957,-0.000014, 0.000026, 0.000141,-0.521872,-0.120886, 0.034352,1,-0.000933, 0.004562, 0.014618,1,-0.000577,-0.004127,-0.995348,-0.001198, 0.003657, 0.014441,-0.005184,-0.091687,-0.153288,-0.000001, 0.000004, 0.000011,1,0
1777416254976017785,1094139000000,  1094.139, 0.000004, 0.000076,-0.009956,-0.000010, 0.000006, 0.000172,-0.512788,-0.057862, 0.032293,1,-0.001444, 0.002874, 0.015040,1, 0.000177, 0.003269,-0.995415,-0.001198, 0.001870, 0.016108,-0.005775,-0.091807,-0.152833,-0.000001, 0.000004, 0.000011,1,0
1777416254995753737,1094159000000,  1094.159,-0.000003, 0.000057,-0.009958,-0.000017, 0.000021, 0.000211,-0.514223, 0.003538, 0.031507,1,-0.001280, 0.001321, 0.017811,1,-0.000208, 0.005670,-0.995608,-0.001456, 0.001693, 0.019356,-0.005848,-0.091656,-0.153022,-0.000001, 0.000004, 0.000011,1,0
1777416255005441977,1094179000000,  1094.179, 0.000005,-0.000038,-0.009955,-0.000009, 0.000024, 0.000221,-0.508055,-0.023403, 0.029808,1,-0.001472, 0.002076, 0.020633,1, 0.000325,-0.000007,-0.995583,-0.001220, 0.002246, 0.021331,-0.005455,-0.091830,-0.152770,-0.000001, 0.000004, 0.000011,1,0
