FILE_INFO
ListSeparator=,
DecimalSeparator=.

SESSION_INFO
TimeZone,UTC
TimeZoneOffset,0
DateTimeFormat,nnnnnnnnnnnnnnnnnnn
StartTime,01/01/70 00:00:00.000000000
TimeFormat,Unix

DEVICE_INFO
Address,*

CHANNEL_INFO
Channel,Type,SampleRate,Equation,Coefficients,Unit,UnitSymbol,WhereApplied,WhenApplied
inertial-6286.188861:scaledAccelX,Timeseries,100Hz,,,,,,
inertial-6286.188861:scaledAccelY,Timeseries,100Hz,,,,,,
inertial-6286.188861:scaledAccelZ,Timeseries,100Hz,,,,,,
inertial-6286.188861:deltaVelX,Timeseries,100Hz,,,,,,
inertial-6286.188861:deltaVelY,Timeseries,100Hz,,,,,,
inertial-6286.188861:deltaVelZ,Timeseries,100Hz,,,,,,
inertial-6286.188861:estLinearAccelX,Timeseries,100Hz,,,,,,
inertial-6286.188861:estLinearAccelX:valid,ValidFlag,100Hz,,,,,,
inertial-6286.188861:estLinearAccelY,Timeseries,100Hz,,,,,,
inertial-6286.188861:estLinearAccelY:valid,ValidFlag,100Hz,,,,,,
inertial-6286.188861:estLinearAccelZ,Timeseries,100Hz,,,,,,
inertial-6286.188861:estLinearAccelZ:valid,ValidFlag,100Hz,,,,,,
inertial-6286.188861:estAngularRateX,Timeseries,100Hz,,,,,,
inertial-6286.188861:estAngularRateX:valid,ValidFlag,100Hz,,,,,,
inertial-6286.188861:estAngularRateY,Timeseries,100Hz,,,,,,
inertial-6286.188861:estAngularRateY:valid,ValidFlag,100Hz,,,,,,
inertial-6286.188861:estAngularRateZ,Timeseries,100Hz,,,,,,
inertial-6286.188861:estAngularRateZ:valid,ValidFlag,100Hz,,,,,,
inertial-6286.188861:estFilterState,Timeseries,100Hz,,,,,,
inertial-6286.188861:estFilterStatusFlags,Timeseries,100Hz,,,,,,
inertial-6286.188861:estGravityVectorX,Timeseries,100Hz,,,,,,
inertial-6286.188861:estGravityVectorX:valid,ValidFlag,100Hz,,,,,,
inertial-6286.188861:estGravityVectorY,Timeseries,100Hz,,,,,,
inertial-6286.188861:estGravityVectorY:valid,ValidFlag,100Hz,,,,,,
inertial-6286.188861:estGravityVectorZ,Timeseries,100Hz,,,,,,
inertial-6286.188861:estGravityVectorZ:valid,ValidFlag,100Hz,,,,,,

DATA_START
Time,inertial-6286.188861:scaledAccelX,inertial-6286.188861:scaledAccelY,inertial-6286.188861:scaledAccelZ,inertial-6286.188861:deltaVelX,inertial-6286.188861:deltaVelY,inertial-6286.188861:deltaVelZ,inertial-6286.188861:estLinearAccelX,inertial-6286.188861:estLinearAccelX:valid,inertial-6286.188861:estLinearAccelY,inertial-6286.188861:estLinearAccelY:valid,inertial-6286.188861:estLinearAccelZ,inertial-6286.188861:estLinearAccelZ:valid,inertial-6286.188861:estAngularRateX,inertial-6286.188861:estAngularRateX:valid,inertial-6286.188861:estAngularRateY,inertial-6286.188861:estAngularRateY:valid,inertial-6286.188861:estAngularRateZ,inertial-6286.188861:estAngularRateZ:valid,inertial-6286.188861:estFilterState,inertial-6286.188861:estFilterStatusFlags,inertial-6286.188861:estGravityVectorX,inertial-6286.188861:estGravityVectorX:valid,inertial-6286.188861:estGravityVectorY,inertial-6286.188861:estGravityVectorY:valid,inertial-6286.188861:estGravityVectorZ,inertial-6286.188861:estGravityVectorZ:valid
1778106073845282560,,,,,,,0.6673057079315186,1,-0.03602276369929314,1,0.1082832515239716,1,-0.005796982906758785,1,0.0002156786213163286,1,0.002716645831242204,1,3,1,0.2076435536146164,1,0.5297589898109436,1,9.790128707885742,1
1778106073847542016,0.04680731147527695,-0.05595573782920837,-0.9946103692054749,0.0004365347849670798,-0.0005331860156729817,-0.009953634813427925,,,,,,,,,,,,,,,,,,,,
1778106073855261696,,,,,,,0.6902909874916077,1,-0.01945919543504715,1,0.09446880221366882,1,-0.0068233422935009,1,0.0008211707463487983,1,0.001462027663365006,1,3,1,0.2076001465320587,1,0.5290828943252563,1,9.790166854858398,1
1778106073857518336,0.04533955082297325,-0.05335122346878052,-0.9954454898834229,0.0004382553161121905,-0.0005074497312307358,-0.009963043034076691,,,,,,,,,,,,,,,,,,,,
1778106073865220864,,,,,,,0.7095291614532471,1,-0.01408984884619713,1,0.08279560506343842,1,-0.004756718408316374,1,5.307083483785391e-05,1,-0.0007458394975401461,1,3,1,0.207594707608223,1,0.5285558700561523,1,9.790194511413574,1
1778106073867474688,0.04485543817281723,-0.05143771693110466,-0.9960950016975403,0.0004463706573005766,-0.0004917785990983248,-0.009967907331883907,,,,,,,,,,,,,,,,,,,,
1778106073875160320,,,,,,,0.7136719822883606,1,-0.02248021028935909,1,0.07973683625459671,1,-0.004716706462204456,1,0.0005310009000822902,1,-0.002145964419469237,1,3,1,0.2076098322868347,1,0.5281447172164917,1,9.790216445922852,1
1778106073877411072,0.04455646872520447,-0.05204987153410912,-0.9964560270309448,0.0004448401159606874,-0.0005253370618447661,-0.009968284517526627,,,,,,,,,,,,,,,,,,,,
1778106073885080320,,,,,,,0.7141289710998535,1,-0.03823864087462425,1,0.08621373027563095,1,-0.007528514601290226,1,0.0007986335549503565,1,-0.001758617465384305,1,3,1,0.2075225412845612,1,0.52744060754776,1,9.790256500244141,1
1778106073887328000,0.04272452741861343,-0.05394888669252396,-0.9960951805114746,0.0004067866830155253,-0.0005601612501777709,-0.009960895404219627,,,,,,,,,,,,,,,,,,,,
1778106073894980864,,,,,,,0.7100377082824707,1,-0.05468275770545006,1,0.08119682967662811,1,-0.0117554971948266,1,-2.712692366912961e-05,1,-0.001208170666359365,1,3,1,0.2074716091156006,1,0.5264109373092651,1,9.790312767028809,1
1778106073897225216,0.04014842957258224,-0.05598250776529312,-0.9948556423187256,0.0003766987356357276,-0.0005847561405971646,-0.009934610687196255,,,,,,,,,,,,,,,,,,,,
1778106073904861696,,,,,,,0.7029584050178528,1,-0.0637672021985054,1,0.07248964160680771,1,-0.01551700290292501,1,0.002337403362616897,1,-0.0009590160334482789,1,3,1,0.2072342187166214,1,0.5249786972999573,1,9.79039478302002,1
1778106073907102720,0.03787820786237717,-0.05589819326996803,-0.9946929812431335,0.0003550616092979908,-0.0005610415828414261,-0.009940020740032196,,,,,,,,,,,,,,,,,,,,
1778106073914722816,,,,,,,0.7041656374931335,1,-0.06370919942855835,1,0.05331357568502426,1,-0.01747427508234978,1,0.0009740075329318643,1,-0.001446159323677421,1,3,1,0.2070959061384201,1,0.5232968926429749,1,9.790488243103027,1
1778106073916961024,0.03694654256105423,-0.05355910584330559,-0.9964458346366882,0.0003602222132030874,-0.0005091622588224709,-0.009981555864214897,,,,,,,,,,,,,,,,,,,,
1778106073924564736,,,,,,,0.6913186311721802,1,-0.04902949184179306,1,0.04223144054412842,1,-0.01540187001228333,1,0.0008521632989868522,1,-0.0011935920920223,1,3,1,0.2069971412420273,1,0.5217130780220032,1,9.79057502746582,1
1778106073926799360,0.03756860643625259,-0.04879605397582054,-1.004186987876892,0.0003757986123673618,-0.0004340990271884948,-0.01012909319251776,,,,,,,,,,,,,,,,,,,,
1778106073934386944,,,,,,,0.666090190410614,1,-0.02617454342544079,1,0.03673113882541656,1,-0.01466953381896019,1,0.001353629864752293,1,-0.0002670364920049906,1,3,1,0.2068837583065033,1,0.5202429294586182,1,9.790655136108398,1
1778106073936801280,0.03834381699562073,-0.04531069844961166,-1.012219548225403,0.0003908245416823775,-0.0004121826204936951,-0.01021972484886646,,,,,,,,,,,,,,,,,,,,
1778106073944189440,,,,,,,0.6516120433807373,1,-0.002116300165653229,1,0.02862146869301796,1,-0.01608126610517502,1,0.0006002208683639765,1,0.0004796301363967359,1,3,1,0.206866979598999,1,0.5186726450920105,1,9.790739059448242,1
1778106073946966016,0.03663736581802368,-0.04472389072179794,-1.012955546379089,0.0003424357564654201,-0.0004416358424350619,-0.01014042552560568,,,,,,,,,,,,,,,,,,,,
1778106073953972480,,,,,,,0.6468115448951721,1,0.01513832993805408,1,0.02233366668224335,1,-0.015142229385674,1,-0.0003526289365254343,1,-0.0001766601926647127,1,3,1,0.2068924307823181,1,0.5171743631362915,1,9.790817260742188,1
1778106073957110784,0.03601711615920067,-0.04571030288934708,-1.009174823760986,0.0003446686023380607,-0.0004705140017904341,-0.01004756428301334,,,,,,,,,,,,,,,,,,,,
1778106073963736064,,,,,,,0.6438860893249512,1,0.007661880925297737,1,0.01887174881994724,1,-0.01494784280657768,1,-0.002313896548002958,1,-0.001996776089072227,1,3,1,0.2070375382900238,1,0.5157597661018372,1,9.790888786315918,1
1778106073967235328,0.03698538243770599,-0.0467071607708931,-0.9998204708099365,0.0003816215030383319,-0.0004829490499105304,-0.009899260476231575,,,,,,,,,,,,,,,,,,,,
1778106073973480704,,,,,,,0.6260792016983032,1,-0.01244639977812767,1,0.02248637937009335,1,-0.01749212294816971,1,-0.004381688311696053,1,-0.001742441556416452,1,3,1,0.2074586153030396,1,0.5141512751579285,1,9.79096508026123,1
1778106073977339648,0.03714398667216301,-0.04759521409869194,-0.9872084856033325,0.0003731164615601301,-0.0004897289327345788,-0.00972482655197382,,,,,,,,,,,,,,,,,,,,
1778106073983205888,,,,,,,0.6011144518852234,1,-0.03406089544296265,1,0.03472335264086723,1,-0.0222663190215826,1,-0.004400530364364386,1,0.001215819735080004,1,3,1,0.2079251706600189,1,0.5120651125907898,1,9.791064262390137,1
1778106073987423744,0.03810508549213409,-0.04634882882237434,-0.9819542765617371,0.0003936289867851883,-0.0004526538541540504,-0.009752454236149788,,,,,,,,,,,,,,,,,,,,
1778106073992911872,,,,,,,0.5791698098182678,1,-0.0352512001991272,1,0.03641811385750771,1,-0.02878019772469997,1,-0.003429028205573559,1,0.005069445818662643,1,3,1,0.2082373052835464,1,0.5093671679496765,1,9.79119873046875,1
1778106073997488128,0.0358259379863739,-0.04328519105911255,-0.9760605096817017,0.0003369500336702913,-0.0003978216846007854,-0.009703200310468674,,,,,,,,,,,,,,,,,,,,
1778106074002598656,,,,,,,0.570330023765564,1,-0.01462171785533428,1,0.01934193260967731,1,-0.03452226519584656,1,-0.001493851188570261,1,0.006666942499577999,1,3,1,0.2084019035100937,1,0.50667804479599,1,9.79133415222168,1
1778106074007532800,0.03133130073547363,-0.0416652150452137,-0.967821478843689,0.0002624136686790735,-0.0003990568802691996,-0.009580723941326141,,,,,,,,,,,,,,,,,,,,
1778106074012265984,,,,,,,0.5765835046768188,1,0.02933807298541069,1,-0.05643396079540253,1,-0.03328261896967888,1,-0.0005896660150028765,1,0.006643673405051231,1,3,1,0.2083635479211807,1,0.5032838582992554,1,9.791510581970215,1
1778106074017557760,0.02775937877595425,-0.04011943936347961,-0.9705020189285278,0.0002377474884269759,-0.0003839382552541792,-0.009721376933157444,,,,,,,,,,,,,,,,,,,,
1778106074022096896,,,,,,,0.5844084620475769,1,0.06061116605997086,1,-0.1350602954626083,1,-0.02640677243471146,1,-0.006806580815464258,1,0.004829840734601021,1,3,1,0.2089366465806961,1,0.5004762411117554,1,9.791642189025879,1
1778106074027562752,0.02605540119111538,-0.03952969610691071,-0.9846893548965454,0.0002462787670083344,-0.00038765391218476,-0.01000509317964315,,,,,,,,,,,,,,,,,,,,
1778106074032091392,,,,,,,0.568146288394928,1,0.06369663029909134,1,-0.1421525627374649,1,-0.02162968181073666,1,-0.007307516876608133,1,0.003195860655978322,1,3,1,0.2097049653530121,1,0.4982742369174957,1,9.79173755645752,1
1778106074037548032,0.02215264737606049,-0.04128555953502655,-0.9983369708061218,0.0001745839108480141,-0.0004297428531572223,-0.01014159247279167,,,,,,,,,,,,,,,,,,,,
1778106074042066176,,,,,,,0.5626238584518433,1,0.05160731077194214,1,-0.1049644351005554,1,-0.02106032334268093,1,-0.0042910510674119,1,0.004313224460929632,1,3,1,0.2102475315332413,1,0.4961621463298798,1,9.791833877563477,1
1778106074047513344,0.01554874330759048,-0.04605068266391754,-1.004264950752258,8.59402134665288e-05,-0.0005146448384039104,-0.01011834759265184,,,,,,,,,,,,,,,,,,,,
1778106074052020992,,,,,,,0.5726260542869568,1,0.0395660363137722,1,-0.01312441565096378,1,-0.0197260957211256,1,-0.003077641362324357,1,0.007844195701181889,1,3,1,0.210660845041275,1,0.4941271841526031,1,9.791927337646484,1
1778106074057458688,0.01297530718147755,-0.04973798245191574,-1.009668946266174,9.434902312932536e-05,-0.0005427163559943438,-0.01015749759972095,,,,,,,,,,,,,,,,,,,,
1778106074061955840,,,,,,,0.5744801759719849,1,0.02872767113149166,1,0.1106593683362007,1,-0.02061877958476543,1,0.004572160076349974,1,0.007776537444442511,1,3,1,0.2103971838951111,1,0.4921180605888367,1,9.792034149169922,1
1778106074067384832,0.01001362688839436,-0.04989330470561981,-1.00912618637085,6.941853644093499e-05,-0.00050258421106264,-0.01009045075625181,,,,,,,,,,,,,,,,,,,,
1778106074071871232,,,,,,,0.5838358402252197,1,0.03882565349340439,1,0.162294790148735,1,-0.02182978205382824,1,0.004457283299416304,1,0.00688947644084692,1,3,1,0.2099085748195648,1,0.4899536669254303,1,9.792153358459473,1
1778106074077291008,0.007761315908282995,-0.04974120482802391,-0.997481107711792,5.753822915721685e-05,-0.0004930326249450445,-0.009856837801635265,,,,,,,,,,,,,,,,,,,,
1778106074081766912,,,,,,,0.5613666176795959,1,0.06683279573917389,1,0.2201972454786301,1,-0.01661276444792747,1,8.897334919311106e-05,1,0.008721021935343742,1,3,1,0.2099241465330124,1,0.4882447421550751,1,9.792238235473633,1
1778106074087177472,0.003515445394441485,-0.0485757477581501,-0.9890567660331726,-2.32239381148247e-05,-0.0004750220978166908,-0.009774330072104931,,,,,,,,,,,,,,,,,,,,
1778106074091643392,,,,,,,0.5171430110931396,1,0.08089447766542435,1,0.3010894358158112,1,-0.01568653807044029,1,0.008133796975016594,1,0.01191995944827795,1,3,1,0.2093973159790039,1,0.486692488193512,1,9.792326927185059,1
1778106074097043968,0.004620152059942484,-0.04596777260303497,-0.9995631575584412,6.058980579837225e-05,-0.0004337263235356659,-0.01010584086179733,,,,,,,,,,,,,,,,,,,,
1778106074101500160,,,,,,,0.481546014547348,1,0.09437738358974457,1,0.274897962808609,1,-0.0127054201439023,1,0.01374152582138777,1,0.009429158642888069,1,3,1,0.2081090956926346,1,0.4853135049343109,1,9.792423248291016,1
1778106074106891520,0.00421954644843936,-0.04505294561386108,-1.013107895851135,3.798167017521337e-05,-0.0004369170928839594,-0.01029522065073252,,,,,,,,,,,,,,,,,,,,
1778106074111337216,,,,,,,0.4639546871185303,1,0.09888728708028793,1,0.1358498781919479,1,-0.00199364498257637,1,0.01026388257741928,1,0.005260443780571222,1,3,1,0.2070058882236481,1,0.4849684238433838,1,9.792463302612305,1
1778106074116719104,0.001655279076658189,-0.04742070287466049,-1.016469836235046,-8.675684512127191e-06,-0.0004995919880457222,-0.01020496431738138,,,,,,,,,,,,,,,,,,,,
1778106074121155072,,,,,,,0.4248926341533661,1,0.08117770403623581,1,0.002054011449217796,1,0.01028510369360447,1,0.003452004631981254,1,0.003057412337511778,1,3,1,0.206600084900856,1,0.4859000146389008,1,9.792426109313965,1
1778106074126713088,0.003419374581426382,-0.04885971546173096,-1.020700693130493,4.864808943239041e-05,-0.0005050884792581201,-0.01025628950446844,,,,,,,,,,,,,,,,,,,,
1778106074130953472,,,,,,,0.359620988368988,1,0.03476289287209511,1,-0.05608386173844337,1,0.01384384837001562,1,0.002153208944946527,1,0.003586482722312212,1,3,1,0.2064670324325562,1,0.4872918128967285,1,9.792359352111816,1
1778106074136873216,0.006715870928019285,-0.05085881054401398,-1.013727068901062,0.0001091420999728143,-0.0005277776508592069,-0.0100689148530364,,,,,,,,,,,,,,,,,,,,
1778106074140731904,,,,,,,0.3339248895645142,1,-0.000665077066514641,1,-0.1091070473194122,1,0.01191364880651236,1,0.005780213512480259,1,0.005497070960700512,1,3,1,0.2059023827314377,1,0.4884231686592102,1,9.792314529418945,1
1778106074147012864,0.009222695603966713,-0.0532369539141655,-0.9950942397117615,0.0001177392114186659,-0.0005566441104747355,-0.009746681898832321,,,,,,,,,,,,,,,,,,,,
1778106074150491392,,,,,,,0.3045850992202759,1,-0.001179042155854404,1,-0.1038289740681648,1,0.0165814682841301,1,-0.003026707097887993,1,0.006018922198563814,1,3,1,0.2061978131532669,1,0.4899616837501526,1,9.792231559753418,1
1778106074157132544,0.01252890098839998,-0.05370977893471718,-0.9756732583045959,0.0001669724297244102,-0.0005415345076471567,-0.009537052363157272,,,,,,,,,,,,,,,,,,,,
1778106074160231424,,,,,,,0.2826652526855469,1,0.001705957460217178,1,0.01029837690293789,1,0.02058029733598232,1,-0.009269718080759048,1,0.005364122800529003,1,3,1,0.2071508914232254,1,0.4919750392436981,1,9.792110443115234,1
1778106074167231744,0.01516674645245075,-0.05318508669734001,-0.9570022821426392,0.0001771738316165283,-0.0005257687880657613,-0.009346983395516872,,,,,,,,,,,,,,,,,,,,
1778106074169952000,,,,,,,0.2413616180419922,1,0.01470508053898811,1,0.09282749891281128,1,0.0161008145660162,1,0.004008053336292505,1,0.000681239936966449,1,3,1,0.2070902585983276,1,0.4935528635978699,1,9.792032241821289,1
1778106074177311488,0.01468643452972174,-0.05300768092274666,-0.9490942358970642,0.000138199859065935,-0.0005273334099911153,-0.009390481747686863,,,,,,,,,,,,,,,,,,,,
1778106074179653120,,,,,,,0.2521979510784149,1,0.0417369119822979,1,-0.010278245434165,1,0.01338155381381512,1,0.00189753039740026,1,-0.004279341548681259,1,3,1,0.2068155407905579,1,0.4947711825370789,1,9.791976928710938,1
1778106074187371008,0.01717995852231979,-0.05284671857953072,-0.9605376720428467,0.0002050006587523967,-0.0005236457218416035,-0.009722601622343063,,,,,,,,,,,,,,,,,,,,
1778106074189335296,,,,,,,0.2484053075313568,1,0.0522516630589962,1,-0.1431881189346313,1,0.02307098545134068,1,-0.006733656395226717,1,-0.00476875388994813,1,3,1,0.2074712961912155,1,0.4968429505825043,1,9.791858673095703,1
1778106074197410304,0.01733138598501682,-0.05349370837211609,-0.98253333568573,0.0001667103351792321,-0.0005390980513766408,-0.01006266474723816,,,,,,,,,,,,,,,,,,,,
1778106074198998016,,,,,,,0.2236442118883133,1,0.03084018267691135,1,-0.1762572228908539,1,0.02608444727957249,1,-0.005296714138239622,1,-0.004443074110895395,1,3,1,0.2080396115779877,1,0.4988841116428375,1,9.791742324829102,1
1778106074207429632,0.01651692762970924,-0.05525864660739899,-1.005479454994202,0.0001588814338902012,-0.0005722633213736117,-0.01032614801079035,,,,,,,,,,,,,,,,,,,,
1778106074209013504,,,,,,,0.2413143366575241,1,0.01886199042201042,1,-0.217863455414772,1,0.03133567795157433,1,-0.00517988670617342,1,-0.007297448813915253,1,3,1,0.2084024250507355,1,0.5017948150634766,1,9.791585922241211,1
1778106074217429504,0.01443723496049643,-0.05715960264205933,-1.018382668495178,0.0001224521402036771,-0.0005898401723243296,-0.01034615188837051,,,,,,,,,,,,,,,,,,,,
1778106074219009280,,,,,,,0.2741713523864746,1,0.002016292884945869,1,-0.1496264040470123,1,0.03937335684895515,1,-0.0106150321662426,1,-0.0107079790905118,1,3,1,0.2093556970357895,1,0.505631148815155,1,9.79136848449707,1
1778106074227409408,0.01003693137317896,-0.05928878858685493,-1.014322519302368,4.85071650473401e-05,-0.0006181139033287764,-0.01010030601173639,,,,,,,,,,,,,,,,,,,,
1778106074228984832,,,,,,,0.2994127571582794,1,-0.01790647581219673,1,0.03290915489196777,1,0.04269669204950333,1,-0.006786076817661524,1,-0.009679559618234634,1,3,1,0.2099902331829071,1,0.5099091529846191,1,9.791132926940918,1
1778106074237369344,0.007286927662789822,-0.06004538759589195,-1.006047606468201,5.210525705479085e-05,-0.0006065629422664642,-0.00997714139521122,,,,,,,,,,,,,,,,,,,,
1778106074238940416,,,,,,,0.3324330449104309,1,-0.01882172375917435,1,0.2231591939926147,1,0.04104826971888542,1,-0.006405078805983067,1,-0.01319308113306761,1,3,1,0.2105003893375397,1,0.5139338970184326,1,9.790911674499512,1
1778106074247309312,0.005629692692309618,-0.05867685377597809,-1.000446915626526,3.503494008327834e-05,-0.0005676185246556997,-0.009931206703186035,,,,,,,,,,,,,,,,,,,,
1778106074248876288,,,,,,,0.3588251769542694,1,-0.009856995195150375,1,0.4060485363006592,1,0.03803624585270882,1,-0.002275680424645543,1,-0.01275184936821461,1,3,1,0.2107622176408768,1,0.5177486538887024,1,9.790704727172852,1
1778106074257229568,0.004359381273388863,-0.05753300338983536,-1.002587556838989,2.597147067717742e-05,-0.0005595130496658385,-0.01003899425268173,,,,,,,,,,,,,,,,,,,,
1778106074258792704,,,,,,,0.3543227016925812,1,-0.004379053134471178,1,0.4833993911743164,1,0.03600584715604782,1,0.00614504748955369,1,-0.01068385783582926,1,3,1,0.2102595865726471,1,0.5213226079940796,1,9.790526390075684,1
1778106074267129856,0.007145985495299101,-0.05815454944968224,-1.009421944618225,0.0001028984843287617,-0.0005825540283694863,-0.01018363982439041,,,,,,,,,,,,,,,,,,,,
1778106074268689408,,,,,,,0.3784897029399872,1,0.0007697174442000687,1,0.3709942400455475,1,0.0346209816634655,1,0.007522779051214457,1,-0.01564222387969494,1,3,1,0.2093336582183838,1,0.5246397852897644,1,9.790369033813477,1
1778106074277010688,0.009622547775506973,-0.06032194942235947,-1.011473655700684,0.0001196128650917672,-0.0006276463391259313,-0.01013565436005592,,,,,,,,,,,,,,,,,,,,
1778106074278566144,,,,,,,0.3793609738349915,1,-0.002009025774896145,1,0.1551139503717422,1,0.03846655040979385,1,0.01097720116376877,1,-0.02032703161239624,1,3,1,0.2081781178712845,1,0.5283742547035217,1,9.790192604064941,1
1778106074286872064,0.0173377338796854,-0.06370947510004044,-1.009655117988586,0.0002603374887257814,-0.0006768096354790032,-0.01007740665227175,,,,,,,,,,,,,,,,,,,,
1778106074288423424,,,,,,,0.3706008791923523,1,-0.01552011258900166,1,-0.07009761035442352,1,0.0438072606921196,1,0.004619035869836807,1,-0.01745086349546909,1,3,1,0.2075017839670181,1,0.532656192779541,1,9.789975166320801,1
1778106074296713472,0.02319142781198025,-0.06514672935009003,-0.9989891648292542,0.0002978450793307275,-0.0006681852391920984,-0.009874786250293255,,,,,,,,,,,,,,,,,,,,
1778106074298261248,,,,,,,0.3496717810630798,1,-0.02997798845171928,1,-0.1968494057655334,1,0.04904668405652046,1,-0.00173020176589489,1,-0.01758419722318649,1,3,1,0.2075039893388748,1,0.5375020503997803,1,9.78971004486084,1
1778106074306535936,0.02910143882036209,-0.06562923640012741,-0.9813437461853027,0.0003626561665441841,-0.0006605105591006577,-0.009622743353247643,,,,,,,,,,,,,,,,,,,,
1778106074308079616,,,,,,,0.3063414990901947,1,-0.0463772751390934,1,-0.1572737991809845,1,0.04602673649787903,1,-0.002572145313024521,1,-0.01570038497447968,1,3,1,0.2077727168798447,1,0.5421892404556274,1,9.789445877075195,1
1778106074316712448,0.03234793990850449,-0.06365545839071274,-0.9617917537689209,0.0003574378206394613,-0.000614834891166538,-0.009392108768224716,,,,,,,,,,,,,,,,,,,,
1778106074317878272,,,,,,,0.2794848084449768,1,-0.04929934442043304,1,-0.07637408375740051,1,0.04420823976397514,1,-0.01029706839472055,1,-0.01365675497800112,1,3,1,0.2085580974817276,1,0.5466457605361938,1,9.789180755615234,1
1778106074326868736,0.03230927884578705,-0.06112564355134964,-0.9514903426170349,0.0003245714178774506,-0.000586259295232594,-0.009381229057908058,,,,,,,,,,,,,,,,,,,,
1778106074327657216,,,,,,,0.2637245953083038,1,-0.03155895322561264,1,-0.02170091681182384,1,0.03775093331933022,1,-0.01119975745677948,1,-0.01908536814153194,1,3,1,0.2094976007938385,1,0.5504917502403259,1,9.788945198059082,1
1778106074337004800,0.03123892657458782,-0.05934098362922668,-0.9571531414985657,0.0003035053086932749,-0.000573404598981142,-0.009628423489630222,,,,,,,,,,,,,,,,,,,,
1778106074337416704,,,,,,,0.2520155012607574,1,-0.01642249710857868,1,-0.04292641580104828,1,0.03157046437263489,1,-0.01287322025746107,1,-0.02222339436411858,1,3,1,0.210617870092392,1,0.553693413734436,1,9.788741111755371,1
1778106074347120896,0.02338959276676178,-0.06113434955477715,-0.9667698740959167,0.0001391907717334107,-0.0006324349087662995,-0.009769778698682785,,,,,,,,,,,,,,,,,,,,
1778106074347156736,,,,,,,0.2802266180515289,1,-0.01896276324987411,1,-0.1101674884557724,1,0.03305546566843987,1,-0.01289588306099176,1,-0.02043207362294197,1,3,1,0.2116592079401016,1,0.5568954944610596,1,9.78853702545166,1
1778106074356877824,,,,,,,0.3054639399051666,1,-0.03680248931050301,1,-0.1305015981197357,1,0.0328487940132618,1,-0.00951495673507452,1,-0.01874322630465031,1,3,1,0.2125511318445206,1,0.5601198673248291,1,9.788333892822266,1
1778106074357216512,0.01845654100179672,-0.06234490126371384,-0.9891650080680847,0.0001264950842596591,-0.0006405753665603697,-0.01014131307601929,,,,,,,,,,,,,,,,,,,,
1778106074366579456,,,,,,,0.382020115852356,1,-0.06668635457754135,1,-0.1128759160637856,1,0.03140247613191605,1,-0.009428742341697216,1,-0.02078798972070217,1,3,1,0.2133801579475403,1,0.5633084774017334,1,9.788132667541504,1
1778106074367292416,0.01834415271878242,-0.06257490068674088,-1.014618039131165,0.0001812114642234519,-0.0006263460963964462,-0.01044659316539764,,,,,,,,,,,,,,,,,,,,
1778106074376261888,,,,,,,0.4403130710124969,1,-0.07755306363105774,1,-0.008483285084366798,1,0.03179998695850372,1,-0.008567774668335915,1,-0.02180170267820358,1,3,1,0.2142272591590881,1,0.5664305090904236,1,9.787933349609375,1
1778106074377348352,0.01075504720211029,-0.06578929722309113,-1.0238196849823,2.961311474791728e-05,-0.0006937755388207734,-0.01035101711750031,,,,,,,,,,,,,,,,,,,,
1778106074386112000,,,,,,,0.4990070760250092,1,-0.07906241714954376,1,0.1643579304218292,1,0.03211077302694321,1,-0.005415528081357479,1,-0.02096743695437908,1,3,1,0.214656189084053,1,0.5696596503257751,1,9.787736892700195,1
1778106074387384064,0.00626445235684514,-0.06628989428281784,-1.032677292823792,7.814385753590614e-06,-0.0006680337246507406,-0.01042704842984676,,,,,,,,,,,,,,,,,,,,
1778106074396129280,,,,,,,0.5312623381614685,1,-0.05651950091123581,1,0.3559046983718872,1,0.02531778439879417,1,0.001887541264295578,1,-0.02106761001050472,1,3,1,0.2143450677394867,1,0.5726603269577026,1,9.787569046020508,1
1778106074397399808,-9.849251364357769e-05,-0.06500153988599777,-1.036561369895935,-7.758491847198457e-05,-0.0006351230549626052,-0.01042189914733171,,,,,,,,,,,,,,,,,,,,
1778106074406126848,,,,,,,0.5308220982551575,1,-0.02888152934610844,1,0.456765204668045,1,0.02100362814962864,1,0.008307612501084805,1,-0.0182256530970335,1,3,1,0.2135153859853745,1,0.5747435688972473,1,9.78746509552002,1
1778106074407396096,-0.001482531661167741,-0.06735190004110336,-1.027839541435242,-3.903127071680501e-05,-0.0007000978221185505,-0.01018439792096615,,,,,,,,,,,,,,,,,,,,
1778106074416104704,,,,,,,0.5199525356292725,1,-0.008899818174540997,1,0.4010949432849884,1,0.02211564220488071,1,0.003004582831636071,1,-0.01639664545655251,1,3,1,0.2130170315504074,1,0.5768643021583557,1,9.787350654602051,1
1778106074417372928,-0.0003335558576509356,-0.06903062760829926,-1.016979336738586,3.599768206186127e-06,-0.0007164069684222341,-0.01004331279546022,,,,,,,,,,,,,,,,,,,,
1778106074426062592,,,,,,,0.4425659477710724,1,-0.02416912466287613,1,0.3066596984863281,1,0.01879571750760078,1,0.01063453685492277,1,-0.0137422326952219,1,3,1,0.2122397422790527,1,0.5788527131080627,1,9.787250518798828,1
1778106074427329792,0.006983335129916668,-0.06931346654891968,-1.0047767162323,0.0001626342855161056,-0.0006977728335186839,-0.009914500638842583,,,,,,,,,,,,,,,,,,,,
1778106074436000512,,,,,,,0.393273651599884,1,-0.03412143513560295,1,0.08694585412740707,1,0.01101714093238115,1,0.01823236420750618,1,-0.01184019260108471,1,3,1,0.2104215025901794,1,0.5799739360809326,1,9.787222862243652,1
1778106074437266944,0.01094738580286503,-0.06904233247041702,-0.9810510277748108,0.00016316122491844,-0.0006832585204392672,-0.009545274078845978,,,,,,,,,,,,,,,,,,,,
1778106074445918976,,,,,,,0.391027569770813,1,-0.03485262393951416,1,-0.162727564573288,1,0.01457923091948032,1,0.004802334122359753,1,-0.0149571355432272,1,3,1,0.2095853984355927,1,0.581199049949646,1,9.787168502807617,1
1778106074447184640,0.01277540437877178,-0.06695177406072617,-0.954987108707428,0.000149985877214931,-0.0006445287726819515,-0.009254079312086105,,,,,,,,,,,,,,,,,,,,
1778106074455817728,,,,,,,0.3160233795642853,1,-0.0648348331451416,1,-0.2530421018600464,1,0.01307734381407499,1,-0.003984607290476561,1,-0.01389478053897619,1,3,1,0.2100207060575485,1,0.5826998353004456,1,9.787070274353027,1
1778106074457082368,0.01605041138827801,-0.05997510626912117,-0.9481300115585327,0.0001948949357029051,-0.0005240748287178576,-0.009382417425513268,,,,,,,,,,,,,,,,,,,,
1778106074465696512,,,,,,,0.2718574404716492,1,-0.06863903254270554,1,-0.3399696946144104,1,-0.002155046444386244,1,-0.00836536381393671,1,-0.01231913454830647,1,3,1,0.2105756253004074,1,0.5826438665390015,1,9.78706169128418,1
1778106074466960128,0.01572894677519798,-0.05328578874468803,-0.9536304473876953,0.0001582725235493854,-0.0004572701873257756,-0.00958777591586113,,,,,,,,,,,,,,,,,,,,
1778106074475555840,,,,,,,0.209950864315033,1,-0.05570016801357269,1,-0.3780884742736816,1,-0.006156308576464653,1,-0.0173290129750967,1,-0.01108196005225182,1,3,1,0.2121794074773788,1,0.5818631649017334,1,9.787073135375977,1
1778106074476818688,0.01079651713371277,-0.05138048529624939,-0.9678424000740051,5.640235758619383e-05,-0.0004897215403616428,-0.009839766658842564,,,,,,,,,,,,,,,,,,,,
1778106074485395968,,,,,,,0.1973646581172943,1,-0.07885919511318207,1,-0.2925715148448944,1,-0.00603383919224143,1,-0.01268427819013596,1,-0.00993290264159441,1,3,1,0.2135361284017563,1,0.5812817215919495,1,9.787077903747559,1
1778106074486657536,0.006645999383181334,-0.05057614296674728,-0.9885703325271606,2.134877831849735e-05,-0.0004941743100062013,-0.01012176740914583,,,,,,,,,,,,,,,,,,,,
1778106074495216896,,,,,,,0.2095438539981842,1,-0.09570989012718201,1,-0.186066746711731,1,-0.007968498393893242,1,-0.00302632711827755,1,-0.01314729824662209,1,3,1,0.2139592170715332,1,0.58046954870224,1,9.787117004394531,1
1778106074496659712,0.001245160354301333,-0.05325151234865189,-1.004950284957886,-4.352887845016085e-05,-0.0005604312173090875,-0.01024026423692703,,,,,,,,,,,,,,,,,,,,
1778106074505018112,,,,,,,0.2820049524307251,1,-0.098932184278965,1,-0.06638647615909576,1,-0.002956966869533062,1,-0.01077438797801733,1,-0.01761952973902225,1,3,1,0.2147722840309143,1,0.5801746845245361,1,9.787117004394531,1
1778106074506824960,-0.004088305868208408,-0.0569518655538559,-1.018383264541626,-0.0001032434083754197,-0.0006097201257944107,-0.01034105010330677,,,,,,,,,,,,,,,,,,,,
1778106074514800128,,,,,,,0.3217617571353912,1,-0.09656897187232971,1,0.1662808358669281,1,-0.00500818807631731,1,-0.01124917436391115,1,-0.0146866524592042,1,3,1,0.2158832550048828,1,0.5799812078475952,1,9.787103652954102,1
1778106074516970240,-0.01180952787399292,-0.05990808084607124,-1.03003203868866,-0.0002039238752331585,-0.0006316832732409239,-0.01043936889618635,,,,,,,,,,,,,,,,,,,,
1778106074524562688,,,,,,,0.3403652906417847,1,-0.07661859691143036,1,0.421898752450943,1,-0.01610992662608624,1,0.001399541972205043,1,-0.00738563435152173,1,3,1,0.2157863974571228,1,0.5786561369895935,1,9.787184715270996,1
1778106074527095552,-0.01800554618239403,-0.06541725248098373,-1.026343822479248,-0.0002533182851038873,-0.0007161412504501641,-0.01023601647466421,,,,,,,,,,,,,,,,,,,,
1778106074534305792,,,,,,,0.3725081980228424,1,-0.009455205872654915,1,0.4892172813415527,1,-0.02186626009643078,1,0.01090137381106615,1,-0.01024321187287569,1,3,1,0.214658260345459,1,0.5763314962387085,1,9.787345886230469,1
1778106074534306792,,,,,,,0.3689581155776978,1,0.05472858250141144,1,0.4353683292865753,1,-0.009407777339220047,1,0.007442121859639883,1,-0.01131225377321243,1,3,1,0.2139347642660141,1,0.575267493724823,1,9.78742504119873,1
1778106074534307792,,,,,,,0.3200463652610779,1,0.07254905253648758,1,0.2960599660873413,1,0.00271894596517086,1,0.007999585010111332,1,-0.01492380909621716,1,3,1,0.2131863534450531,1,0.5755403637886047,1,9.78742504119873,1
1778106074534308792,,,,,,,0.2786126434803009,1,0.0802236869931221,1,0.0928170382976532,1,0.01016142964363098,1,0.008594742976129055,1,-0.01875445060431957,1,3,1,0.2121886014938354,1,0.5763752460479736,1,9.787397384643555,1
1778106074534309792,,,,,,,0.2248958349227905,1,0.0545039176940918,1,-0.06783025711774826,1,0.01649352349340916,1,0.005367024801671505,1,-0.0208063293248415,1,3,1,0.2115470767021179,1,0.5780167579650879,1,9.787314414978027,1
1778106074534310792,,,,,,,0.1719379872083664,1,0.01917289197444916,1,-0.1996057033538818,1,0.01006609667092562,1,0.0003049345687031746,1,-0.02098647132515907,1,3,1,0.2111983895301819,1,0.5792145729064941,1,9.787251472473145,1
1778106074534311792,,,,,,,0.09603884816169739,1,-0.008884947746992111,1,-0.3138925433158875,1,0.005458730272948742,1,-0.01496937870979309,1,-0.02264783717691898,1,3,1,0.2121572196483612,1,0.5800697803497314,1,9.787179946899414,1
1778106074534312792,,,,,,,0.03599581494927406,1,-0.06198643520474434,1,-0.2777932286262512,1,0.009925126098096371,1,-0.02362335287034512,1,-0.02045563235878944,1,3,1,0.214330643415451,1,0.5810565948486328,1,9.787074089050293,1
1778106074534313792,,,,,,,-0.01856385916471481,1,-0.109319306910038,1,-0.1117637380957603,1,0.01222638506442308,1,-0.02031170576810837,1,-0.01673776283860207,1,3,1,0.2163985967636108,1,0.5822591185569763,1,9.786956787109375,1
1778106074534314792,,,,,,,0.08483791351318359,1,-0.1094855442643166,1,0.056297417730093,1,0.01044401619583368,1,-0.01613414473831654,1,-0.0260250810533762,1,3,1,0.2175699770450592,1,0.5833855271339417,1,9.786864280700684,1
1778106074534315792,,,,,,,0.1244912371039391,1,-0.07279326766729355,1,0.2144438922405243,1,0.01040739100426435,1,-0.008183981291949749,1,-0.02823475562036037,1,3,1,0.2184683084487915,1,0.5844431519508362,1,9.786781311035156,1
1778106074534316792,,,,,,,0.1934454590082169,1,-0.0336214080452919,1,0.229448139667511,1,0.000810811179690063,1,0.01023435406386852,1,-0.02527965791523457,1,3,1,0.2175504416227341,1,0.58463054895401,1,9.786789894104004,1
1778106074534317792,,,,,,,0.3063883781433105,1,0.03169053792953491,1,0.1047224178910255,1,-0.001471205032430589,1,0.01260941382497549,1,-0.02475074678659439,1,3,1,0.2160657793283463,1,0.5843349695205688,1,9.786840438842773,1
1778106074534318792,,,,,,,0.3576640188694,1,0.08627350628376007,1,0.05136715993285179,1,0.02381686121225357,1,-0.009608511812984943,1,-0.02465584315359592,1,3,1,0.216605007648468,1,0.5863461494445801,1,9.786708831787109,1
1778106074537200384,-0.02371215634047985,-0.07034726440906525,-1.009404420852661,-0.0003001884615514427,-0.0007606839062646031,-0.009905640035867691,,,,,,,,,,,,,,,,,,,,
1778106074540589568,,,,,,,0.3111640512943268,1,0.09354773163795471,1,0.1382019370794296,1,0.04298069328069687,1,-0.01009572949260473,1,-0.02510504610836506,1,3,1,0.2176787406206131,1,0.5904346704483032,1,9.786438941955566,1
1778106074547285248,-0.01331001799553633,-0.07047589123249054,-0.9922571182250977,-2.103550104948226e-05,-0.0007047668914310634,-0.009720544330775738,,,,,,,,,,,,,,,,,,,,
1778106074550669312,,,,,,,0.2264107167720795,1,0.0779498815536499,1,0.2367242574691772,1,0.04048801213502884,1,0.01085599418729544,1,-0.02760376967489719,1,3,1,0.2168072164058685,1,0.5945785045623779,1,9.78620719909668,1
1778106074557350144,-0.009400258772075176,-0.06684375554323196,-0.9761212468147278,-5.681587572325952e-05,-0.0006258041248656809,-0.009573671966791153,,,,,,,,,,,,,,,,,,,,
1778106074560729088,,,,,,,0.214927926659584,1,0.06809554994106293,1,0.1196953654289246,1,0.03509563207626343,1,0.0278276763856411,1,-0.0322539210319519,1,3,1,0.2139437049627304,1,0.598092257976532,1,9.786056518554688,1
1778106074567395072,-0.002433519344776869,-0.06293672323226929,-0.9745845794677734,5.557110125664622e-05,-0.0005835026386193931,-0.009721585549414158,,,,,,,,,,,,,,,,,,,,
1778106074570768896,,,,,,,0.2017296701669693,1,0.0752299576997757,1,-0.1262512803077698,1,0.03206010535359383,1,0.01828228868544102,1,-0.03614180535078049,1,3,1,0.2116604298353195,1,0.6011530160903931,1,9.785918235778809,1
1778106074577420032,0.009114719927310944,-0.05631472915410995,-0.9873015284538269,0.0002141529112122953,-0.0004935621400363743,-0.009995754808187485,,,,,,,,,,,,,,,,,,,,
1778106074580788480,,,,,,,0.1765961498022079,1,0.04642392694950104,1,-0.3011730909347534,1,0.04329172521829605,1,-0.01107871904969215,1,-0.03500977158546448,1,3,1,0.212182953953743,1,0.6053584814071655,1,9.785647392272949,1
1778106074587425280,0.01437967829406261,-0.05081271007657051,-0.9927391409873962,0.0002131644578184932,-0.0004428754618857056,-0.01001126412302256,,,,,,,,,,,,,,,,,,,,
1778106074590788352,,,,,,,0.05286779999732971,1,-0.02224215120077133,1,-0.2115908265113831,1,0.04341882094740868,1,-0.01515397895127535,1,-0.02973065711557865,1,3,1,0.2138193249702454,1,0.6097827553749084,1,9.785337448120117,1
1778106074597411072,0.009605931118130684,-0.05026163905858994,-0.9838722944259644,4.785582132171839e-05,-0.0004879269399680197,-0.009745895862579346,,,,,,,,,,,,,,,,,,,,
1778106074600768512,,,,,,,-0.04635098576545715,1,-0.07892144471406937,1,-0.07340218126773834,1,0.03424937278032303,1,0.00143296062014997,1,-0.01739871874451637,1,3,1,0.2136274576187134,1,0.6132643818855286,1,9.785123825073242,1
1778106074607376896,0.0009451034129597247,-0.05215604975819588,-0.9738070964813232,-9.547684749122709e-05,-0.0005423687980510294,-0.009607848711311817,,,,,,,,,,,,,,,,,,,,
1778106074610728704,,,,,,,-0.008821993134915829,1,-0.1045914143323898,1,0.02185977250337601,1,0.0250544548034668,1,0.006151246838271618,1,-0.02403226122260094,1,3,1,0.2126077115535736,1,0.61588054895401,1,9.784981727600098,1
1778106074617323264,-0.0001341297756880522,-0.05349960178136826,-0.9857222437858582,-2.545727329561487e-05,-0.0005507975583896041,-0.009980890899896622,,,,,,,,,,,,,,,,,,,,
1778106074620669184,,,,,,,0.003305156715214252,1,-0.1053410321474075,1,0.1295894980430603,1,0.02611818723380566,1,0.007791589945554733,1,-0.02957132086157799,1,3,1,0.2117589563131332,1,0.6183993816375732,1,9.784841537475586,1
1778106074627249920,-0.00130378664471209,-0.053104218095541,-1.010785579681396,-3.405702955205925e-05,-0.0005287661333568394,-0.01038324739784002,,,,,,,,,,,,,,,,,,,,
1778106074630960896,,,,,,,0.04320961609482765,1,-0.09836398065090179,1,0.1351406276226044,1,0.02071062289178371,1,0.005655651912093163,1,-0.02934903092682362,1,3,1,0.2108883559703827,1,0.6204115748405457,1,9.784732818603516,1
1778106074637156608,-0.003738177008926868,-0.05639491230249405,-1.028603911399841,-6.100719474488869e-05,-0.0005956527311354876,-0.01051219645887613,,,,,,,,,,,,,,,,,,,,
1778106074641232128,,,,,,,0.0656404048204422,1,-0.07070741802453995,1,0.1361789852380753,1,0.018281240016222,1,-0.003164760768413544,1,-0.02484689094126225,1,3,1,0.211059957742691,1,0.6222982406616211,1,9.784609794616699,1
1778106074647043584,-0.01635578647255898,-0.06379608809947968,-1.019444346427917,-0.0003023204626515508,-0.0007162592955864966,-0.01010520942509174,,,,,,,,,,,,,,,,,,,,
1778106074651483392,,,,,,,0.03960483148694038,1,-0.04061871021986008,1,0.2200836539268494,1,0.01148345414549112,1,0.003120533190667629,1,-0.01186957396566868,1,3,1,0.2109571099281311,1,0.6236687302589417,1,9.784524917602539,1
1778106074656911104,-0.02649708278477192,-0.06997358053922653,-1.005328059196472,-0.0003802719875238836,-0.0007710494101047516,-0.009894806891679764,,,,,,,,,,,,,,,,,,,,
1778106074661714176,,,,,,,0.04769586026668549,1,0.01612834446132183,1,0.1892301440238953,1,0.005510343704372644,1,0.01493361964821815,1,-0.01051419414579868,1,3,1,0.2090887874364853,1,0.6245319247245789,1,9.784509658813477,1
1778106074666759168,-0.02264473587274551,-0.07294544577598572,-0.9955925345420837,-0.0001941184309544042,-0.0007584849372506142,-0.009838670492172241,,,,,,,,,,,,,,,,,,,,
1778106074671924992,,,,,,,0.07413884997367859,1,0.0655670166015625,1,0.1243373304605484,1,0.01090660039335489,1,0.01038562972098589,1,-0.01654127240180969,1,3,1,0.2079876661300659,1,0.62531578540802,1,9.784482955932617,1
1778106074676587264,-0.02135741151869297,-0.07332802563905716,-0.9845890998840332,-0.0002156572300009429,-0.0007341549498960376,-0.009720099158585072,,,,,,,,,,,,,,,,,,,,
1778106074682115328,,,,,,,0.06719472259283066,1,0.08058182895183563,1,0.02814889326691628,1,0.02011336758732796,1,0.009418745525181293,1,-0.02389201708137989,1,3,1,0.2070282250642776,1,0.6273565292358398,1,9.784372329711914,1
1778106074686582016,-0.01721600443124771,-0.0728880986571312,-0.9840075373649597,-0.0001283492019865662,-0.0007288448978215456,-0.009826101362705231,,,,,,,,,,,,,,,,,,,,
1778106074692285440,,,,,,,0.04684511199593544,1,0.07092445343732834,1,-0.1557499021291733,1,0.02156081236898899,1,-0.003927849233150482,1,-0.02953079529106617,1,3,1,0.2069871127605438,1,0.6293463706970215,1,9.784245491027832,1
1778106074696742144,-0.01487920619547367,-0.07030734419822693,-0.9838876724243164,-0.0001260814897250384,-0.000675590184982866,-0.009832879528403282,,,,,,,,,,,,,,,,,,,,
1778106074702435328,,,,,,,-0.03474246710538864,1,0.007167801260948181,1,-0.1694150567054749,1,0.02432250790297985,1,-0.008836318738758564,1,-0.02077936381101608,1,3,1,0.2079981565475464,1,0.6318789720535278,1,9.784061431884766,1
1778106074706882304,-0.0175140704959631,-0.06744609773159027,-0.9753190875053406,-0.0002077603421639651,-0.0006427110638469458,-0.009658369235694408,,,,,,,,,,,,,,,,,,,,
1778106074712565248,,,,,,,-0.06948348879814148,1,-0.07405071705579758,1,-0.1149745285511017,1,0.01038458850234747,1,0.003888980019837618,1,-0.01074565201997757,1,3,1,0.2076699882745743,1,0.6331723928451538,1,9.783984184265137,1
1778106074717002496,-0.01662019453942776,-0.06181731075048447,-0.9784567356109619,-0.0001671836798777804,-0.000553633610252291,-0.009816531091928482,,,,,,,,,,,,,,,,,,,,
1778106074722675200,,,,,,,-0.06425529718399048,1,-0.122676320374012,1,-0.05897641554474831,1,0.003396438434720039,1,0.007856685668230057,1,-0.01028103567659855,1,3,1,0.2069205045700073,1,0.6335926055908203,1,9.78397274017334,1
1778106074727102464,-0.01381843537092209,-0.05689355731010437,-0.9850687980651855,-0.0001034360975609161,-0.0005161933368071914,-0.009918301366269588,,,,,,,,,,,,,,,,,,,,
1778106074732764672,,,,,,,0.0048491470515728,1,-0.1320757120847702,1,0.0182236023247242,1,0.008059303276240826,1,-0.001265225815586746,1,-0.01828285306692123,1,3,1,0.2067255675792694,1,0.6342196464538574,1,9.783936500549316,1
1778106074737182720,-0.01442419830709696,-0.05550308153033257,-0.9948705434799194,-0.0001509379944764078,-0.0005370507133193314,-0.01005622372031212,,,,,,,,,,,,,,,,,,,,
1778106074742834176,,,,,,,0.03678747266530991,1,-0.1240514740347862,1,0.141423299908638,1,0.006715778727084398,1,0.004524940624833107,1,-0.02120733633637428,1,3,1,0.206319585442543,1,0.6350552439689636,1,9.783890724182129,1
1778106074747242752,-0.01641670241951942,-0.0566558912396431,-1.013614058494568,-0.0001829333486966789,-0.0005808694986626506,-0.01035148836672306,,,,,,,,,,,,,,,,,,,,
1778106074752883968,,,,,,,0.05171681195497513,1,-0.1025210469961166,1,0.2242252975702286,1,0.002602535765618086,1,0.004014289006590843,1,-0.01748894527554512,1,3,1,0.2057915478944778,1,0.6355257630348206,1,9.783871650695801,1
1778106074757282560,-0.02472862042486668,-0.06336081773042679,-1.014994502067566,-0.0003356130619067699,-0.0007072025910019875,-0.01018213480710983,,,,,,,,,,,,,,,,,,,,
1778106074762913536,,,,,,,0.07757990062236786,1,-0.04942083358764648,1,0.2466248124837875,1,-0.00212158216163516,1,0.009505195543169975,1,-0.01361275278031826,1,3,1,0.2048061341047287,1,0.6353045105934143,1,9.783906936645508,1
1778106074767302912,-0.02827685885131359,-0.07184180617332458,-1.009430289268494,-0.0003305026621092111,-0.000820312590803951,-0.01002839300781488,,,,,,,,,,,,,,,,,,,,
1778106074772923136,,,,,,,0.0835103765130043,1,0.01584727503359318,1,0.2350159734487534,1,-0.003063524374738336,1,0.01232710480690002,1,-0.01109297573566437,1,3,1,0.2035250812768936,1,0.6350939869880676,1,9.783946990966797,1
1778106074777303296,-0.02771789953112602,-0.07693962752819061,-1.003711581230164,-0.0002805548429023474,-0.0008313843864016235,-0.009978005662560463,,,,,,,,,,,,,,,,,,,,
1778106074782912768,,,,,,,0.1038471758365631,1,0.06078703701496124,1,0.1535238474607468,1,0.00178381334990263,1,0.005691479425877333,1,-0.01380512677133083,1,3,1,0.2026994973421097,1,0.6351884603500366,1,9.783957481384277,1
1778106074787283712,-0.02063051983714104,-0.07799302786588669,-0.9958342313766479,-0.0001091143349185586,-0.000792293285485357,-0.009878916665911674,,,,,,,,,,,,,,,,,,,,
1778106074792882688,,,,,,,0.06954295933246613,1,0.08205438405275345,1,0.06389071047306061,1,0.007594189140945673,1,0.01137122977524996,1,-0.02246855571866035,1,3,1,0.2016248553991318,1,0.635983943939209,1,9.783928871154785,1
1778106074797244160,-0.01734595373272896,-0.07726820558309555,-0.9832658171653748,-0.0001471254654461518,-0.0007654898217879236,-0.009672405198216438,,,,,,,,,,,,,,,,,,,,
1778106074802832896,,,,,,,0.08675628155469894,1,0.08445122092962265,1,-0.1673926562070847,1,0.009612445719540119,1,0.00623905286192894,1,-0.03035221993923187,1,3,1,0.2003676444292068,1,0.6369871497154236,1,9.783888816833496,1
1778106074807184896,-0.01578098721802235,-0.07515305280685425,-0.9748180508613586,-0.0001298604183830321,-0.0007302707526832819,-0.009661756455898285,,,,,,,,,,,,,,,,,,,,
1778106074812950528,,,,,,,0.05480185523629189,1,0.05138905346393585,1,-0.2850085496902466,1,0.02439180016517639,1,-0.0128374882042408,1,-0.02700131200253963,1,3,1,0.2013359814882278,1,0.6393390893936157,1,9.783716201782227,1
1778106074817106176,-0.01308557949960232,-0.06978096067905426,-0.9725323915481567,-9.939791198121384e-05,-0.000635425269138068,-0.009690259583294392,,,,,,,,,,,,,,,,,,,,
1778106074823235072,,,,,,,0.01142419781535864,1,-0.03255405649542809,1,-0.2058669030666351,1,0.01785207167267799,1,-0.00672602653503418,1,-0.02007398940622807,1,3,1,0.2020325213670731,1,0.6413629651069641,1,9.7835693359375,1
1778106074827007488,-0.01239404734224081,-0.06314018368721008,-0.9737169742584229,-0.00011707071098499,-0.0005590870277956128,-0.009736789390444756,,,,,,,,,,,,,,,,,,,,
1778106074833499136,,,,,,,0.03605197370052338,1,-0.08236316591501236,1,-0.1099642962217331,1,0.01109594851732254,1,-0.002801038790494204,1,-0.01854328811168671,1,3,1,0.2020667195320129,1,0.6424695253372192,1,9.783495903015137,1
1778106074836888832,-0.01022129412740469,-0.05856013298034668,-0.9820287823677063,-7.125013507902622e-05,-0.000532016099896282,-0.009924309328198433,,,,,,,,,,,,,,,,,,,,
1778106074843742976,,,,,,,0.06189676374197006,1,-0.1225480586290359,1,0.06091607362031937,1,0.01294939313083887,1,-0.004225930199027061,1,-0.01900250092148781,1,3,1,0.2023860067129135,1,0.6438028216362,1,9.783401489257812,1
1778106074846750976,-0.01362863276153803,-0.05641859397292137,-0.9911689758300781,-0.000174598942976445,-0.0005395758780650795,-0.01000210829079151,,,,,,,,,,,,,,,,,,,,
1778106074853966592,,,,,,,0.138373076915741,1,-0.1452541947364807,1,0.2206561714410782,1,0.007139821071177721,1,0.003434454323723912,1,-0.02729977481067181,1,3,1,0.2019699364900589,1,0.6447228193283081,1,9.78334903717041,1
1778106074856593408,-0.01175657659769058,-0.05623245611786842,-1.01475191116333,-9.123250492848456e-05,-0.0005592968082055449,-0.01040918193757534,,,,,,,,,,,,,,,,,,,,
1778106074864169728,,,,,,,0.2090109288692474,1,-0.1177273690700531,1,0.2612324059009552,1,0.002359493402764201,1,0.01762809231877327,1,-0.02818986587226391,1,3,1,0.1992596983909607,1,0.6454256176948547,1,9.783358573913574,1
1778106074866416384,-0.01495847664773464,-0.0597158819437027,-1.026739239692688,-0.0001807555818231776,-0.0006282328977249563,-0.01042921096086502,,,,,,,,,,,,,,,,,,,,
1778106074874352384,,,,,,,0.2713550329208374,1,-0.07291444391012192,1,0.2178291380405426,1,0.007102827541530132,1,0.006709953304380178,1,-0.0246606282889843,1,3,1,0.1982183158397675,1,0.6461440324783325,1,9.783331871032715,1
1778106074876594432,-0.01939760334789753,-0.06844621151685715,-1.018657565116882,-0.0002462447446305305,-0.0007827986846677959,-0.01010076887905598,,,,,,,,,,,,,,,,,,,,
1778106074884515328,,,,,,,0.2862642705440521,1,-0.03219582885503769,1,0.2002171576023102,1,0.008425303734838963,1,0.009394211694598198,1,-0.01877948455512524,1,3,1,0.1971869766712189,1,0.6470568180084229,1,9.783292770385742,1
1778106074886752000,-0.0169035866856575,-0.07368213683366776,-1.008867621421814,-0.0001465567765990272,-0.0007985023548826575,-0.009977513924241066,,,,,,,,,,,,,,,,,,,,
1778106074894658560,,,,,,,0.2850342988967896,1,0.01581724919378757,1,0.1692517101764679,1,0.006759332027286291,1,0.009599532932043076,1,-0.0191999264061451,1,3,1,0.195913553237915,1,0.6477224230766296,1,9.78327465057373,1
1778106074896889344,-0.01428869180381298,-0.07792218774557114,-0.9914329051971436,-0.0001180580075015314,-0.0008285988587886095,-0.00972153153270483,,,,,,,,,,,,,,,,,,,,
1778106074904781312,,,,,,,0.2826140522956848,1,0.0441056527197361,1,0.1123733669519424,1,0.01068435423076153,1,0.006993000861257315,1,-0.02528121694922447,1,3,1,0.1948860734701157,1,0.648755669593811,1,9.783226013183594,1
1778106074907006720,-0.006498315371572971,-0.08036892861127853,-0.9751352071762085,3.302617187728174e-05,-0.0008306670933961868,-0.009561933577060699,,,,,,,,,,,,,,,,,,,,
1778106074914884096,,,,,,,0.2213001549243927,1,0.04286620765924454,1,-0.006213990971446037,1,0.003813804360106587,1,0.01239154487848282,1,-0.03058657608926296,1,3,1,0.1935084760189056,1,0.6494255065917969,1,9.783209800720215,1
1778106074917103872,0.0007860743207857013,-0.07766918838024139,-0.9709922075271606,7.953160093165934e-05,-0.0007480413187295198,-0.009639275260269642,,,,,,,,,,,,,,,,,,,,
1778106074924966400,,,,,,,0.1947142034769058,1,0.02089093066751957,1,-0.2446122467517853,1,0.001778711914084852,1,-0.000323538901284337,1,-0.03194936364889145,1,3,1,0.1928611397743225,1,0.6495771408081055,1,9.783211708068848,1
1778106074927181056,0.007273534312844276,-0.07318703830242157,-0.9754149913787842,0.0001606467412784696,-0.0006781435804441571,-0.009813975542783737,,,,,,,,,,,,,,,,,,,,
1778106074935029248,,,,,,,0.1164822578430176,1,-0.04116219282150269,1,-0.3041450977325439,1,0.004693806171417236,1,-0.01548328436911106,1,-0.02626888081431389,1,3,1,0.1941028088331223,1,0.6501802802085876,1,9.783147811889648,1
1778106074937238016,0.008906289003789425,-0.06912316381931305,-0.977207362651825,0.0001105960691347718,-0.0006389320478774607,-0.009795157238841057,,,,,,,,,,,,,,,,,,,,
1778106074945072128,,,,,,,0.07194648683071136,1,-0.1271878331899643,1,-0.203906461596489,1,0.001226879889145494,1,-0.01149115432053804,1,-0.01845680549740791,1,3,1,0.1951767355203629,1,0.6504639983177185,1,9.783106803894043,1
1778106074947275776,0.008900913409888744,-0.0643097460269928,-0.9803619384765625,9.263153333449736e-05,-0.000586757087148726,-0.009835151955485344,,,,,,,,,,,,,,,,,,,,
1778106074955094784,,,,,,,0.06860417872667313,1,-0.1766182631254196,1,-0.04922814667224884,1,-0.01195144467055798,1,-0.0002139679854735732,1,-0.0184760894626379,1,3,1,0.1952372640371323,1,0.6494560837745667,1,9.783172607421875,1
1778106074957293568,0.008771649561822414,-0.06150995567440987,-0.9861587285995483,8.746416278881952e-05,-0.0005799863720312715,-0.0099269924685359,,,,,,,,,,,,,,,,,,,,
1778106074965097472,,,,,,,0.1188725009560585,1,-0.1913377195596695,1,0.08768178522586823,1,-0.01499897893518209,1,-0.0003406020987313241,1,-0.02383005246520042,1,3,1,0.1951801627874374,1,0.6480432152748108,1,9.783267974853516,1
1778106074967291392,0.002635584678500891,-0.0617271400988102,-0.9982476234436035,-4.552682003122754e-05,-0.0006161353085190058,-0.0101056843996048,,,,,,,,,,,,,,,,,,,,
1778106074975080704,,,,,,,0.1626008301973343,1,-0.2006266713142395,1,0.1764893978834152,1,-0.02341077104210854,1,0.005434377584606409,1,-0.02510347217321396,1,3,1,0.1946897953748703,1,0.6458920240402222,1,9.783419609069824,1
1778106074977268992,4.312512464821339e-05,-0.06402745097875595,-1.022555947303772,-2.304316149093211e-05,-0.000658404896967113,-0.01050511281937361,,,,,,,,,,,,,,,,,,,,
1778106074985043968,,,,,,,0.2528679668903351,1,-0.1491674333810806,1,0.1317912638187408,1,-0.02593376860022545,1,0.00509731937199831,1,-0.02649536915123463,1,3,1,0.1938268691301346,1,0.6433171033859253,1,9.78360652923584,1
1778106074987227136,-0.007898438721895218,-0.07040930539369583,-1.028623700141907,-0.0001716146944090724,-0.0007684884476475418,-0.01036967150866985,,,,,,,,,,,,,,,,,,,,
1778106074994987264,,,,,,,0.2750021517276764,1,-0.09238132834434509,1,0.1892133951187134,1,-0.02286601811647415,1,-0.004456249065697193,1,-0.01778222434222698,1,3,1,0.1942474693059921,1,0.6411745548248291,1,9.78373908996582,1
1778106074997165568,-0.01247935183346272,-0.07923173904418945,-1.01839816570282,-0.0001803247432690114,-0.000890116672962904,-0.01008651219308376,,,,,,,,,,,,,,,,,,,,
1778106075005097984,,,,,,,0.2807790637016296,1,-0.02690690755844116,1,0.2510261833667755,1,-0.02847909554839134,1,0.01072210073471069,1,-0.01218173373490572,1,3,1,0.1933570504188538,1,0.6385119557380676,1,9.783930778503418,1
1778106075007084032,-0.01286611892282963,-0.08427861332893372,-1.002623915672302,-0.0001452988799428567,-0.0009063349571079016,-0.009839633479714394,,,,,,,,,,,,,,,,,,,,
1778106075015375872,,,,,,,0.3089273571968079,1,0.04598448798060417,1,0.2134559005498886,1,-0.03198033943772316,1,0.003889428218826652,1,-0.01722557842731476,1,3,1,0.1926634460687637,1,0.6354523301124573,1,9.784143447875977,1
1778106075016982784,-0.007761043030768633,-0.08572124689817429,-0.9886664748191833,-2.684421815501992e-05,-0.0008743191137909889,-0.009725835174322128,,,,,,,,,,,,,,,,,,,,
1778106075025633792,,,,,,,0.304668515920639,1,0.1043687984347343,1,0.1535962671041489,1,-0.0227177832275629,1,-0.003815742209553719,1,-0.02438148111104965,1,3,1,0.1929076164960861,1,0.6333012580871582,1,9.78427791595459,1
1778106075026862080,-0.003301619552075863,-0.08655247837305069,-0.9796183705329895,2.558044616307598e-05,-0.0008797049522399902,-0.009692631661891937,,,,,,,,,,,,,,,,,,,,
1778106075035871232,,,,,,,0.2621670365333557,1,0.1107281297445297,1,0.0320437029004097,1,-0.03239981457591057,1,0.007012740708887577,1,-0.0279104970395565,1,3,1,0.1922214329242706,1,0.6302438974380493,1,9.784488677978516,1
1778106075036721920,0.005943852011114359,-0.08112657070159912,-0.9841887950897217,0.0001610305916983634,-0.0007555291522294283,-0.009881045669317245,,,,,,,,,,,,,,,,,,,,
1778106075046088192,,,,,,,0.2520836889743805,1,0.06769739091396332,1,-0.1248469948768616,1,-0.0320952907204628,1,0.00317099504172802,1,-0.02301160618662834,1,3,1,0.191715806722641,1,0.6270694732666016,1,9.784703254699707,1
1778106075046561792,0.008224396966397762,-0.07513294368982315,-0.9783473014831543,0.0001205695225507952,-0.0006829163758084178,-0.009733025915920734,,,,,,,,,,,,,,,,,,,,
1778106075056284928,,,,,,,0.2393793016672134,1,-0.02252567932009697,1,-0.1334867477416992,1,-0.02874144166707993,1,-0.004983174614608288,1,-0.01893352158367634,1,3,1,0.1920961290597916,1,0.624314546585083,1,9.784872055053711,1
1778106075056382208,0.008836760185658932,-0.06823393702507019,-0.9720592498779297,8.802762749837711e-05,-0.0006109971436671913,-0.009642146527767181,,,,,,,,,,,,,,,,,,,,
1778106075066461440,,,,,,,0.2819104194641113,1,-0.09720279276371002,1,0.0007071346044540405,1,-0.03218027949333191,1,-0.002424892503768206,1,-0.01636640913784504,1,3,1,0.1918791830539703,1,0.6218141913414001,1,9.785035133361816,1
1778106075066557440,0.01176650263369083,-0.06054404377937317,-0.9759083390235901,0.0001545049308333546,-0.0005247950321063399,-0.009785685688257217,,,,,,,,,,,,,,,,,,,,
1778106075076617472,,,,,,,0.2259909361600876,1,-0.1887931674718857,1,0.2084432542324066,1,-0.04683022201061249,1,0.01266777515411377,1,-0.01418337970972061,1,3,1,0.1911344677209854,1,0.6176552772521973,1,9.785313606262207,1
1778106075076712704,0.01136672776192427,-0.05433064699172974,-0.982029914855957,0.0001140031454269774,-0.0004628502065315843,-0.009903327561914921,,,,,,,,,,,,,,,,,,,,
1778106075086753280,,,,,,,0.3066896498203278,1,-0.2121525257825851,1,0.1032390892505646,1,-0.0627734363079071,1,0.0228984709829092,1,-0.0247820783406496,1,3,1,0.1880808174610138,1,0.6117388606071472,1,9.785743713378906,1
1778106075086847744,0.007060225587338209,-0.05341936647891998,-0.9944424033164978,1.371868620481109e-05,-0.0005224749911576509,-0.01007376331835985,,,,,,,,,,,,,,,,,,,,
1778106075096868864,,,,,,,0.3187727630138397,1,-0.1760277599096298,1,-0.04074198007583618,1,-0.05594021081924438,1,0.004932331386953592,1,-0.01518983393907547,1,3,1,0.1871200799942017,1,0.6061611771583557,1,9.786109924316406,1
1778106075096962560,0.006081022322177887,-0.05751482769846916,-1.010460615158081,4.898841507383622e-05,-0.000620486622210592,-0.01029388234019279,,,,,,,,,,,,,,,,,,,,
1778106075106964736,,,,,,,0.2980415821075439,1,-0.1327441036701202,1,-0.004696464166045189,1,-0.05775442346930504,1,0.01138353254646063,1,-0.004115285351872444,1,3,1,0.1859231740236282,1,0.6006594896316528,1,9.786471366882324,1
1778106075107057408,0.004810525104403496,-0.06642143428325653,-1.011361122131348,4.744978286908008e-05,-0.0007611319306306541,-0.01014061458408833,,,,,,,,,,,,,,,,,,,,
1778106075117040896,,,,,,,0.2814473211765289,1,-0.01702366955578327,1,-0.01761024445295334,1,-0.05931372195482254,1,0.01158707682043314,1,-0.002491083927452564,1,3,1,0.184636577963829,1,0.5944962501525879,1,9.786871910095215,1
1778106075117132544,0.009161276742815971,-0.07375966012477875,-0.9976951479911804,0.0001340085145784542,-0.000822122092358768,-0.009830734692513943,,,,,,,,,,,,,,,,,,,,
1778106075127097600,,,,,,,0.2258650064468384,1,0.09943848103284836,1,0.03589191287755966,1,-0.05432547256350517,1,0.0007490842253901064,1,0.0006384601001627743,1,3,1,0.184617891907692,1,0.5892153382301331,1,9.787192344665527,1
1778106075127187456,0.003477442776784301,-0.08279117196798325,-0.976531982421875,-9.32038437895244e-06,-0.0009305565617978573,-0.009516127407550812,,,,,,,,,,,,,,,,,,,,
1778106075137134080,,,,,,,0.1568711251020432,1,0.1679967492818832,1,0.01818434335291386,1,-0.0651819035410881,1,0.007030636072158813,1,-0.008152661845088005,1,3,1,0.1840567588806152,1,0.5831451416015625,1,9.787566184997559,1
1778106075137222144,0.01183698233217001,-0.0847591832280159,-0.9872885346412659,0.0002153603272745386,-0.0008709690882824361,-0.009973737411201,,,,,,,,,,,,,,,,,,,,
1778106075147150336,,,,,,,0.1324811726808548,1,0.1868280470371246,1,-0.1659931689500809,1,-0.06202613934874535,1,-0.007630405947566032,1,-0.01495277974754572,1,3,1,0.1843138188123703,1,0.5769400596618652,1,9.787928581237793,1
1778106075147236864,0.01322335377335548,-0.08057565987110138,-1.002004861831665,0.0001541615929454565,-0.0007566384156234562,-0.01020181179046631,,,,,,,,,,,,,,,,,,,,
1778106075157147136,,,,,,,0.09263553470373154,1,0.09146731346845627,1,-0.2316911816596985,1,-0.05056361854076385,1,-0.02054373174905777,1,-0.009414730593562126,1,3,1,0.1863490343093872,1,0.5719760060310364,1,9.788181304931641,1
1778106075157232128,0.01123405341058969,-0.07563905417919159,-0.9983643889427185,7.857843593228608e-05,-0.0006995162693783641,-0.009957266040146351,,,,,,,,,,,,,,,,,,,,
1778106075167123968,,,,,,,0.05392861366271973,1,-0.04319046810269356,1,-0.1414265185594559,1,-0.05404648184776306,1,-0.009277656674385071,1,-0.002417835406959057,1,3,1,0.1875159293413162,1,0.5667795538902283,1,9.788461685180664,1
1778106075167207424,0.009670211933553219,-0.06327188760042191,-0.9997187256813049,6.49525536573492e-05,-0.0005008368170820177,-0.01000186707824469,,,,,,,,,,,,,,,,,,,,
1778106075177080832,,,,,,,0.1083610504865646,1,-0.1363368928432465,1,-0.03912758454680443,1,-0.05884800106287003,1,-0.01285615190863609,1,-0.005770990625023842,1,3,1,0.1884564608335495,1,0.5610590577125549,1,9.788773536682129,1
1778106075177163776,0.004095913842320442,-0.05083170905709267,-0.9942994117736816,-1.087034797819797e-05,-0.0003727616858668625,-0.009887188673019409,,,,,,,,,,,,,,,,,,,,
1778106075187018240,,,,,,,0.1258090436458588,1,-0.2013387978076935,1,0.06153447926044464,1,-0.06069723144173622,1,-0.003217362798750401,1,-0.007659707684069872,1,3,1,0.1889499723911285,1,0.5552951693534851,1,9.789092063903809,1
1778106075187100160,-0.002877709455788136,-0.04327305033802986,-0.9961407780647278,-0.0001094747203751467,-0.0003466545604169369,-0.009953576140105724,,,,,,,,,,,,,,,,,,,,
1778106075197016576,-0.005314511712640524,-0.04074752330780029,-1.014959096908569,-7.992135942913592e-05,-0.0003746580332517624,-0.0103633813560009,,,,,,,,,,,,,,,,,,,,
1778106075197116672,,,,,,,0.2250740230083466,1,-0.1916644126176834,1,0.06620306521654129,1,-0.07594086974859238,1,0.001111569232307374,1,-0.008485719561576843,1,3,1,0.1885686218738556,1,0.5481242537498474,1,9.789504051208496,1
1778106075206913536,-0.009420242160558701,-0.04988919571042061,-1.021692395210266,-0.0001370732497889549,-0.000596286728978157,-0.01032404601573944,,,,,,,,,,,,,,,,,,,,
1778106075207375872,,,,,,,0.2735022902488708,1,-0.09551803022623062,1,0.02384175918996334,1,-0.06977400928735733,1,-0.00126844085752964,1,-0.005345300771296024,1,3,1,0.1884889900684357,1,0.5410975217819214,1,9.789896011352539,1
1778106075216790784,-0.01346829161047935,-0.06307095289230347,-1.012518286705017,-0.0001870474952738732,-0.0007858214667066932,-0.01001772750169039,,,,,,,,,,,,,,,,,,,,
1778106075217614848,,,,,,,0.3063219487667084,1,0.01361949276179075,1,0.05384688451886177,1,-0.0611737072467804,1,-0.002531891223043203,1,-0.0008265661308541894,1,3,1,0.1885405629873276,1,0.5350661873817444,1,9.790226936340332,1
1778106075226648576,-0.008008532226085663,-0.0720132440328598,-1.00211763381958,-1.06117659015581e-05,-0.0008268737001344562,-0.009906968101859093,,,,,,,,,,,,,,,,,,,,
1778106075227833600,,,,,,,0.3485541641712189,1,0.1648928821086884,1,0.07300183176994324,1,-0.04708081856369972,1,-0.003223511856049299,1,-0.002738355193287134,1,3,1,0.1885804384946823,1,0.5302008986473083,1,9.790491104125977,1
1778106075236486400,-0.006320931017398834,-0.07807319611310959,-0.991884171962738,-4.843631541007198e-05,-0.0008516897796653211,-0.009796231053769588,,,,,,,,,,,,,,,,,,,,
1778106075238032128,,,,,,,0.3332775235176086,1,0.2716124355792999,1,0.1396631896495819,1,-0.03317412361502647,1,-0.0176355354487896,1,-0.01382381748408079,1,3,1,0.1901256442070007,1,0.5267677903175354,1,9.790646553039551,1
1778106075246486016,0.003761693136766553,-0.07647383213043213,-0.9914425015449524,0.0001597135851625353,-0.0007535931654274464,-0.009899166412651539,,,,,,,,,,,,,,,,,,,,
1778106075248210176,,,,,,,0.2740947008132935,1,0.2688731551170349,1,0.1875672787427902,1,-0.02162634767591953,1,-0.008021729066967964,1,-0.02157906070351601,1,3,1,0.1910380274057388,1,0.5246635675430298,1,9.790740966796875,1
1778106075256646144,0.008687735535204411,-0.06599551439285278,-0.9958000779151917,0.0001439816842321306,-0.0005422976100817323,-0.01001254469156265,,,,,,,,,,,,,,,,,,,,
1778106075258367744,,,,,,,0.2524977624416351,1,0.1839515417814255,1,0.1111640930175781,1,-0.02020207792520523,1,-0.003304856596514583,1,-0.02323505282402039,1,3,1,0.1911218464374542,1,0.5226921439170837,1,9.790844917297363,1
1778106075266786304,0.01202778518199921,-0.05420356243848801,-0.9927773475646973,0.0001621237461222336,-0.0004064969252794981,-0.009894998744130135,,,,,,,,,,,,,,,,,,,,
1778106075268505088,,,,,,,0.2624759376049042,1,0.06015020236372948,1,0.1068931519985199,1,-0.01173653081059456,1,-0.00820594746619463,1,-0.01931758411228657,1,3,1,0.1915305405855179,1,0.5214369893074036,1,9.79090404510498,1
1778106075276906496,0.01632898300886154,-0.03816493600606918,-0.9908578991889954,0.000198180103325285,-0.0001988165022339672,-0.009886140935122967,,,,,,,,,,,,,,,,,,,,
1778106075278622720,,,,,,,0.2834773063659668,1,-0.04803081601858139,1,0.1503043174743652,1,-0.01036316249519587,1,-0.0003034393885172904,1,-0.0182336363941431,1,3,1,0.1915964931249619,1,0.5204200744628906,1,9.790956497192383,1
1778106075287006720,0.01472446043044329,-0.02676417678594589,-0.9840878844261169,0.0001344802003586665,-0.0001349590165773407,-0.009764356538653374,,,,,,,,,,,,,,,,,,,,
1778106075288720896,,,,,,,0.3124350309371948,1,-0.1077464893460274,1,0.1434499323368073,1,-0.02067612484097481,1,0.004526242148131132,1,-0.0167877022176981,1,3,1,0.1911707669496536,1,0.5185307264328003,1,9.791065216064453,1
1778106075297086976,0.008600375615060329,-0.02664222195744514,-0.9792232513427734,1.768919173628092e-05,-0.0002533584774937481,-0.009731650352478027,,,,,,,,,,,,,,,,,,,,
1778106075298799104,,,,,,,0.3557644486427307,1,-0.1034103110432625,1,0.07326199114322662,1,-0.0217888243496418,1,0.01397430151700974,1,-0.0172315388917923,1,3,1,0.190077543258667,1,0.5164566040039062,1,9.791196823120117,1
1778106075307147008,0.006337175611406565,-0.03499089181423187,-0.9870299696922302,2.741596836131066e-05,-0.0004410860128700733,-0.009950535371899605,,,,,,,,,,,,,,,,,,,,
1778106075308857344,,,,,,,0.4011825323104858,1,-0.05551165714859962,1,-0.02605946362018585,1,-0.01651366986334324,1,0.01570756733417511,1,-0.0166966337710619,1,3,1,0.1885586977005005,1,0.5146567225456238,1,9.79132080078125,1
1778106075317186816,0.007310631684958935,-0.0473712645471096,-0.987477719783783,8.770006388658658e-05,-0.0006129849934950471,-0.009903104975819588,,,,,,,,,,,,,,,,,,,,
1778106075327206912,0.009411591105163097,-0.05822133272886276,-0.9830599427223206,0.0001045848621288314,-0.0007081844378262758,-0.009773009456694126,,,,,,,,,,,,,,,,,,,,
1778106075337207808,0.01235415227711201,-0.06414500623941422,-0.9837675094604492,0.0001563706900924444,-0.0007237958488985896,-0.009834472090005875,,,,,,,,,,,,,,,,,,,,
1778106075340492032,,,,,,,0.4928058385848999,1,0.03377573564648628,1,-0.1324812918901443,1,-0.002700796350836754,1,0.01306922174990177,1,-0.01552127860486507,1,3,1,0.1868892312049866,1,0.5141499042510986,1,9.791378974914551,1
1778106075347188992,0.01680070720613003,-0.06351689249277115,-0.9909351468086243,0.0002040399995166808,-0.0006388560868799686,-0.00998744647949934,,,,,,,,,,,,,,,,,,,,
1778106075350467328,,,,,,,0.5021969676017761,1,0.1522762775421143,1,-0.09482953697443008,1,0.009363958612084389,1,-0.001400747685693204,1,-0.01861557923257351,1,3,1,0.1868559569120407,1,0.5149315595626831,1,9.791338920593262,1
1778106075357150464,0.0215166974812746,-0.05843794345855713,-1.001075148582458,0.0002889998140744865,-0.0005320205818861723,-0.01013444550335407,,,,,,,,,,,,,,,,,,,,
1778106075360422656,,,,,,,0.4752640426158905,1,0.2471605390310287,1,0.01122687757015228,1,0.01761026866734028,1,-0.01354620978236198,1,-0.01930071972310543,1,3,1,0.1879477649927139,1,0.5166600942611694,1,9.791226387023926,1
1778106075367091968,0.03098752535879612,-0.04917756840586662,-1.011937737464905,0.0004184141871519387,-0.000389752589398995,-0.01025342382490635,,,,,,,,,,,,,,,,,,,,
1778106075370358016,,,,,,,0.3902308940887451,1,0.2643915712833405,1,0.1751014739274979,1,0.01443263422697783,1,-0.009292479604482651,1,-0.01556449383497238,1,3,1,0.188971146941185,1,0.5182299017906189,1,9.79112434387207,1
1778106075377014016,0.03204388171434402,-0.03702378273010254,-1.008103966712952,0.0003360388509463519,-0.0002381407684879377,-0.0100428769364953,,,,,,,,,,,,,,,,,,,,
1778106075380273920,,,,,,,0.327614963054657,1,0.1859681010246277,1,0.2863126397132874,1,0.002125994767993689,1,0.008005755022168159,1,-0.01396739203482866,1,3,1,0.1883269399404526,1,0.5186829566955566,1,9.791112899780273,1
1778106075386916352,0.02932265028357506,-0.02737521752715111,-0.9972882270812988,0.0002765952958725393,-0.0001574160851305351,-0.009864676743745804,,,,,,,,,,,,,,,,,,,,
1778106075390170112,,,,,,,0.354646235704422,1,0.07146953046321869,1,0.1692325472831726,1,0.002371935872361064,1,0.01137923635542393,1,-0.01860108412802219,1,3,1,0.1867431253194809,1,0.5188852548599243,1,9.791131973266602,1
1778106075396798720,0.02060838975012302,-0.0257132388651371,-0.980571985244751,0.0001108260767068714,-0.0002293162979185581,-0.009614402428269386,,,,,,,,,,,,,,,,,,,,
1778106075400233472,,,,,,,0.3576717972755432,1,-0.05932844802737236,1,0.0502847395837307,1,0.01000195927917957,1,-0.002760335337370634,1,-0.02163504436612129,1,3,1,0.186924159526825,1,0.5198255181312561,1,9.791078567504883,1
1778106075406661376,0.01419611275196075,-0.03380661457777023,-0.9692259430885315,7.368627848336473e-05,-0.0004240683047100902,-0.009547175839543343,,,,,,,,,,,,,,,,,,,,
1778106075410463232,,,,,,,0.3287197053432465,1,-0.1905114501714706,1,-0.07558983564376831,1,0.001098717213608325,1,0.006935717072337866,1,-0.01621635816991329,1,3,1,0.1863749921321869,1,0.5202353596687317,1,9.791067123413086,1
1778106075416504832,0.01700542494654655,-0.04554163664579391,-0.9811627268791199,0.0001866522943601012,-0.0005838258657604456,-0.009931953623890877,,,,,,,,,,,,,,,,,,,,
1778106075420673024,,,,,,,0.333553284406662,1,-0.2145985066890717,1,-0.2871123850345612,1,-0.01596487686038017,1,0.008089344017207623,1,-0.0007080046343617141,1,3,1,0.1853207945823669,1,0.5186923742294312,1,9.791169166564941,1
1778106075426328832,0.01736338995397091,-0.05894003808498383,-0.9932897686958313,0.000176281071617268,-0.0007395492284558713,-0.01007774565368891,,,,,,,,,,,,,,,,,,,,
1778106075430862592,,,,,,,0.2908869981765747,1,-0.1831385046243668,1,-0.3383516669273376,1,-0.01095237210392952,1,0.004501658026129007,1,0.005996841471642256,1,3,1,0.1852970570325851,1,0.5178359746932983,1,9.791214942932129,1
1778106075436506368,0.01444277074187994,-0.07238765805959702,-1.006122231483459,0.0001019178307615221,-0.0008834422915242612,-0.01019897498190403,,,,,,,,,,,,,,,,,,,,
1778106075441031936,,,,,,,0.3440880477428436,1,-0.03112839907407761,1,-0.396807461977005,1,-0.01282818056643009,1,0.006993468850851059,1,0.002690129680559039,1,3,1,0.1844377070665359,1,0.5163639783859253,1,9.791309356689453,1
1778106075446664448,0.01500056684017181,-0.07484535872936249,-1.027692675590515,0.0001332980318693444,-0.0008075620280578732,-0.0105069587007165,,,,,,,,,,,,,,,,,,,,
1778106075451180800,,,,,,,0.3724464774131775,1,0.1531691998243332,1,-0.3626050353050232,1,0.0003729410236701369,1,-0.02532505430281162,1,-0.003182821441441774,1,3,1,0.1863867193460464,1,0.5161252021789551,1,9.791284561157227,1
1778106075456802048,0.01069603301584721,-0.07158417999744415,-1.032921314239502,6.115010182838887e-05,-0.000680038589052856,-0.01042387261986732,,,,,,,,,,,,,,,,,,,,
1778106075461309696,,,,,,,0.2893139719963074,1,0.2516814768314362,1,-0.1019581258296967,1,0.02517687156796455,1,-0.05451339110732079,1,-0.003465207992121577,1,3,1,0.1915362030267715,1,0.5183055400848389,1,9.791069984436035,1
1778106075466919424,0.01618000119924545,-0.0559912733733654,-1.038888096809387,0.0002156616974389181,-0.0003902697353623807,-0.01044847071170807,,,,,,,,,,,,,,,,,,,,
1778106075471418624,,,,,,,0.1385085433721542,1,0.1996033787727356,1,0.4294722378253937,1,0.01157018262892962,1,-0.02354413270950317,1,0.0006910638185217977,1,3,1,0.1947515904903412,1,0.5198290944099426,1,9.790925979614258,1
1778106075477016576,0.01907706446945667,-0.03711078315973282,-1.035405158996582,0.0002392974274698645,-0.0001560080418130383,-0.01032184157520533,,,,,,,,,,,,,,,,,,,,
1778106075481507584,,,,,,,0.117451511323452,1,0.08328313380479813,1,0.7587385177612305,1,0.001829677959904075,1,0.005005864426493645,1,-0.008821124210953712,1,3,1,0.1947221457958221,1,0.5202010869979858,1,9.79090690612793,1
1778106075487094016,0.01041616313159466,-0.02707194909453392,-1.008822798728943,2.040111940004863e-05,-0.0001418259198544547,-0.009826386347413063,,,,,,,,,,,,,,,,,,,,
1778106075491576576,,,,,,,0.1981648951768875,1,-0.05493226274847984,1,0.6324836015701294,1,-0.003336109686642885,1,0.0157501045614481,1,-0.02019039168953896,1,3,1,0.1927648335695267,1,0.5194875597953796,1,9.790983200073242,1
1778106075497151232,-0.005275149364024401,-0.0324874222278595,-0.954620361328125,-0.0002404722763458267,-0.0003841773141175508,-0.008919340558350086,,,,,,,,,,,,,,,,,,,,
1778106075501625344,,,,,,,0.2613492012023926,1,-0.1990286260843277,1,0.3425206243991852,1,-0.01236401591449976,1,0.01804912462830544,1,-0.01370436232537031,1,3,1,0.1910547167062759,1,0.5187671184539795,1,9.791055679321289,1
1778106075507188736,-0.007643264252692461,-0.04443947225809097,-0.9210353493690491,-0.0001033829612424597,-0.0005673085688613355,-0.008799651637673378,,,,,,,,,,,,,,,,,,,,
1778106075511654656,,,,,,,0.2973578870296478,1,-0.1959672868251801,1,-0.0338217094540596,1,-0.005881985649466515,1,0.003460317384451628,1,-0.003765870817005634,1,3,1,0.1905253380537033,1,0.5179369449615479,1,9.791109085083008,1
1778106075517206528,0.0005367826670408249,-0.05856252834200859,-0.9339073300361633,0.0001031350184348412,-0.0007480443455278873,-0.009449737146496773,,,,,,,,,,,,,,,,,,,,
1778106075521664000,,,,,,,0.3347107172012329,1,-0.1379500031471252,1,-0.2870133817195892,1,-0.01615156605839729,1,0.01914059743285179,1,0.000814133498352021,1,3,1,0.1888214945793152,1,0.5166555047035217,1,9.791210174560547,1
1778106075527204096,0.007031981833279133,-0.07325145602226257,-0.9634765982627869,0.0001482544466853142,-0.0009125990327447653,-0.009971195831894875,,,,,,,,,,,,,,,,,,,,
1778106075531653120,,,,,,,0.3925721645355225,1,0.05303412303328514,1,-0.5230854153633118,1,-0.005697223823517561,1,0.0158639345318079,1,0.007465694565325975,1,3,1,0.1869695037603378,1,0.5156916975975037,1,9.79129695892334,1
1778106075537182208,0.01078650169074535,-0.07288436591625214,-1.001857399940491,0.0001684572052909061,-0.0007298460695892572,-0.01047093141824007,,,,,,,,,,,,,,,,,,,,
1778106075541622528,,,,,,,0.456462562084198,1,0.2180054634809494,1,-0.5636116862297058,1,0.02951783128082752,1,-0.0285443402826786,1,-0.007186267990618944,1,3,1,0.1890750527381897,1,0.5181213617324829,1,9.791128158569336,1
1778106075547140352,0.01468611229211092,-0.06690012663602829,-1.027680993080139,0.0001775285782059655,-0.0006104273488745093,-0.01056272815912962,,,,,,,,,,,,,,,,,,,,
1778106075551572480,,,,,,,0.3704211413860321,1,0.3148811161518097,1,-0.2599712908267975,1,0.05477558821439743,1,-0.05703194439411163,1,-0.01128457207232714,1,3,1,0.1947008669376373,1,0.5229173898696899,1,9.790762901306152,1
1778106075557078528,0.02073000371456146,-0.04732169955968857,-1.051761984825134,0.0002530039928387851,-0.0002637600991874933,-0.01079679280519485,,,,,,,,,,,,,,,,,,,,
1778106075561502464,,,,,,,0.1867917776107788,1,0.1949072033166885,1,0.4597695767879486,1,0.04591265693306923,1,-0.03310796245932579,1,-0.004782316274940968,1,3,1,0.1991187185049057,1,0.5281943678855896,1,9.790390968322754,1
1778106075566997248,0.02731074392795563,-0.03048728033900261,-1.055896520614624,0.0003544336650520563,-9.84232101473026e-05,-0.01065045967698097,,,,,,,,,,,,,,,,,,,,
1778106075571412480,,,,,,,0.1492589265108109,1,0.05953554809093475,1,0.8185054659843445,1,0.01170316152274609,1,0.01928305625915527,1,-0.01300124358385801,1,3,1,0.1975698173046112,1,0.5295504331588745,1,9.790349006652832,1
1778106075576896512,0.01836155727505684,-0.02078210562467575,-1.024921059608459,7.710791396675631e-05,-9.522782056592405e-05,-0.009917584247887135,,,,,,,,,,,,,,,,,,,,
1778106075581303040,,,,,,,0.2470532059669495,1,-0.09404002130031586,1,0.6121224164962769,1,-0.0006797551759518683,1,0.02454505860805511,1,-0.01919376105070114,1,3,1,0.1946749985218048,1,0.529534637928009,1,9.790407180786133,1
1778106075586775808,-0.000711934408172965,-0.03337547928094864,-0.9515019059181213,-0.000203628238523379,-0.0004702595470007509,-0.008695458993315697,,,,,,,,,,,,,,,,,,,,
1778106075591361280,,,,,,,0.3678463399410248,1,-0.2203349173069,1,0.2125524878501892,1,-0.01977970451116562,1,0.01554232835769653,1,-0.004348991438746452,1,3,1,0.1925666332244873,1,0.5275210738182068,1,9.790557861328125,1
1778106075596635392,-0.004758431576192379,-0.04750461131334305,-0.9148992300033569,-0.0001048751946655102,-0.0006353126373142004,-0.008675654418766499,,,,,,,,,,,,,,,,,,,,
1778106075601586432,,,,,,,0.4015600085258484,1,-0.2644398510456085,1,-0.1373802870512009,1,-0.009400173090398312,1,-0.0003374080406501889,1,0.005856962408870459,1,3,1,0.1927633583545685,1,0.526495099067688,1,9.790609359741211,1
1778106075606475264,0.005224540829658508,-0.06336002796888351,-0.93593430519104,0.000166136262123473,-0.0008117452962324023,-0.009571701288223267,,,,,,,,,,,,,,,,,,,,
1778106075611791616,,,,,,,0.4176973402500153,1,-0.1978517174720764,1,-0.3436240553855896,1,-0.01461293827742338,1,0.01426760759204626,1,0.01044377218931913,1,3,1,0.192028820514679,1,0.5250478386878967,1,9.790701866149902,1
1778106075616295936,0.01766308955848217,-0.07628890126943588,-0.9766788482666016,0.0002973719965666533,-0.0009381681447848678,-0.01022486016154289,,,,,,,,,,,,,,,,,,,,
1778106075621976320,,,,,,,0.5292919874191284,1,-0.006214123219251633,1,-0.5540710091590881,1,-0.02626986987888813,1,0.03632557764649391,1,0.01995778270065784,1,3,1,0.1885477602481842,1,0.522422730922699,1,9.790909767150879,1
1778106075626470912,0.02119036205112934,-0.08074125647544861,-1.01236629486084,0.0002502691640984267,-0.0008689865935593843,-0.01055860240012407,,,,,,,,,,,,,,,,,,,,
1778106075632140800,,,,,,,0.6686115860939026,1,0.2711562812328339,1,-0.6732563376426697,1,0.00698931235820055,1,-0.02405451238155365,1,0.0110334474593401,1,3,1,0.1898169368505478,1,0.5221596956253052,1,9.790899276733398,1
1778106075636626432,0.02288922108709812,-0.07387135177850723,-1.033402681350708,0.000239017273997888,-0.000672757625579834,-0.01057311426848173,,,,,,,,,,,,,,,,,,,,
1778106075642285312,,,,,,,0.5857669711112976,1,0.3782931268215179,1,-0.2002430260181427,1,0.04864067584276199,1,-0.06582359969615936,1,0.01118672545999289,1,3,1,0.1963870823383331,1,0.5267378091812134,1,9.790524482727051,1
1778106075646761472,0.03441765531897545,-0.05418755859136581,-1.054872751235962,0.0004469315463211387,-0.000342839804943651,-0.01078285370022058,,,,,,,,,,,,,,,,,,,,
1778106075652409600,,,,,,,0.3658636510372162,1,0.2889323532581329,1,0.6514889001846313,1,0.01748377457261086,1,-0.03454683348536491,1,0.01968465931713581,1,3,1,0.2010256499052048,1,0.529260516166687,1,9.79029369354248,1
1778106075656876288,0.04876654967665672,-0.02574727684259415,-1.067037463188171,0.0006634474266320467,6.541531183756888e-05,-0.01084171328693628,,,,,,,,,,,,,,,,,,,,
1778106075662513408,,,,,,,0.2261862754821777,1,0.1583651751279831,1,1.315349459648132,1,-0.01754482090473175,1,0.01060838997364044,1,0.02646788768470287,1,3,1,0.2009322047233582,1,0.5274531841278076,1,9.790393829345703,1
1778106075666971392,0.04016517102718353,-0.01487139612436295,-1.018797755241394,0.0003069651429541409,-6.441086952690966e-06,-0.009689603932201862,,,,,,,,,,,,,,,,,,,,
1778106075672597248,,,,,,,0.09201465547084808,1,-0.1271377801895142,1,1.124745845794678,1,-0.04572473093867302,1,0.07328619062900543,1,0.01035512983798981,1,3,1,0.1958745718002319,1,0.5242149233818054,1,9.790669441223145,1
1778106075677046272,0.01737721636891365,-0.02419466711580753,-0.9319267868995667,-9.267420682590455e-05,-0.0003416947438381612,-0.008335704915225506,,,,,,,,,,,,,,,,,,,,
1778106075682661376,,,,,,,0.4176671206951141,1,-0.1631080508232117,1,-0.1137392297387123,1,-0.04138387739658356,1,0.03573421016335487,1,0.01804148778319359,1,3,1,0.1883716881275177,1,0.5188761353492737,1,9.791101455688477,1
1778106075687100928,0.00285737169906497,-0.03760569170117378,-0.8642210960388184,-0.0001400420005666092,-0.0005305896629579365,-0.007838872261345387,,,,,,,,,,,,,,,,,,,,
1778106075692705280,,,,,,,0.3823265731334686,1,-0.189326673746109,1,-0.6821523904800415,1,-0.01391412690281868,1,-0.01995313167572021,1,0.02377774566411972,1,3,1,0.1901008486747742,1,0.5174998641014099,1,9.791140556335449,1
1778106075697135616,-0.01085235178470612,-0.06666559725999832,-0.8836596608161926,-0.0002339424681849778,-0.0009689751313999295,-0.008900946937501431,,,,,,,,,,,,,,,,,,,,
1778106075702729216,,,,,,,0.2660102248191833,1,-0.1793580800294876,1,-0.8202160596847534,1,-0.03119412064552307,1,0.03403884917497635,1,0.03222324699163437,1,3,1,0.1877698451280594,1,0.5155332684516907,1,9.791289329528809,1
1778106075707150848,0.0227631963789463,-0.07004546374082565,-1.009973526000977,0.0006168235559016466,-0.000729874474927783,-0.01155323348939419,,,,,,,,,,,,,,,,,,,,
1778106075712734208,,,,,,,0.5105108618736267,1,0.1057909727096558,1,-1.296503782272339,1,-0.03954660519957542,1,0.01320131123065948,1,0.0377083495259285,1,3,1,0.1843090057373047,1,0.5108007788658142,1,9.791603088378906,1
1778106075717145856,0.01940527185797691,-0.07244262844324112,-1.067955017089844,0.0001713930541882291,-0.0007404070347547531,-0.01138250529766083,,,,,,,,,,,,,,,,,,,,
1778106075722719232,,,,,,,0.5430930256843567,1,0.3768744766712189,1,-1.064786076545715,1,0.009077803231775761,1,-0.05860177055001259,1,0.05575834587216377,1,3,1,0.1896157413721085,1,0.510741651058197,1,9.791504859924316,1
1778106075727120896,0.007675773929804564,-0.071224644780159,-1.082046985626221,-6.732220208505169e-05,-0.000696881499607116,-0.01093451026827097,,,,,,,,,,,,,,,,,,,,
1778106075732684544,,,,,,,0.3617680966854095,1,0.4181011021137238,1,-0.1060799062252045,1,0.01788989640772343,1,-0.05498296394944191,1,0.0562576912343502,1,3,1,0.1963366121053696,1,0.5131049156188965,1,9.79124927520752,1
1778106075737076992,0.03288507461547852,-0.04183583334088326,-1.13063657283783,0.0005905891302973032,-8.86748093762435e-05,-0.01187746599316597,,,,,,,,,,,,,,,,,,,,
1778106075742630144,,,,,,,0.2136273235082626,1,0.2522779405117035,1,1.267730593681335,1,-0.06314578652381897,1,-0.01457125041633844,1,0.05384611338376999,1,3,1,0.1990703195333481,1,0.5085324645042419,1,9.79143238067627,1
1778106075747013376,0.03625227138400078,-0.01392476912587881,-1.107023119926453,0.0003906084748450667,0.0001868852123152465,-0.01085105817764997,,,,,,,,,,,,,,,,,,,,
1778106075752555776,,,,,,,0.1924064457416534,1,0.177331954240799,1,1.998911380767822,1,-0.09126552939414978,1,0.03977455571293831,1,0.05178169906139374,1,3,1,0.1953815966844559,1,0.4986193180084229,1,9.792016983032227,1
1778106075756929792,0.01746021956205368,-0.009672139771282673,-1.009259104728699,-3.558984826668166e-05,-3.055181878153235e-05,-0.00902937725186348,,,,,,,,,,,,,,,,,,,,
1778106075762461696,,,,,,,0.2772792875766754,1,0.1817076206207275,1,1.332018852233887,1,0.02060749381780624,1,0.04345513880252838,1,0.04617390781641006,1,3,1,0.191034659743309,1,0.497538149356842,1,9.792157173156738,1
1778106075766827008,0.001986812800168991,-0.02650179341435432,-0.8691663146018982,-0.0001288567727897316,-0.0004382175393402576,-0.007086813915520906,,,,,,,,,,,,,,,,,,,,
1778106075772347648,,,,,,,0.01753825694322586,1,-0.409483015537262,1,0.7086179256439209,1,-0.04178914055228233,1,0.08550387620925903,1,0.04269928485155106,1,3,1,0.186323955655098,1,0.5014447569847107,1,9.792048454284668,1
1778106075776704256,-0.0003097717126365751,-0.03368700295686722,-0.7946277260780334,-4.81663882965222e-05,-0.0004248109471518546,-0.0070212222635746,,,,,,,,,,,,,,,,,,,,
1778106075782395904,,,,,,,0.591953456401825,1,-0.01335366815328598,1,-0.9848955273628235,1,0.0291527695953846,1,-0.03626980260014534,1,0.07256661355495453,1,3,1,0.1812267452478409,1,0.4987433552742004,1,9.792282104492188,1
1778106075786561792,0.008473520167171955,-0.03272321820259094,-0.8626609444618225,0.0001744055334711447,-0.0003432084922678769,-0.00930487085133791,,,,,,,,,,,,,,,,,,,,
1778106075792605952,,,,,,,0.4464791417121887,1,0.03491107374429703,1,-1.031754851341248,1,-0.05677942931652069,1,0.02475687861442566,1,0.05746357887983322,1,3,1,0.1793928444385529,1,0.4943097531795502,1,9.79254150390625,1
1778106075796399616,-0.01779108121991158,-0.09302504360675812,-0.9262337684631348,-0.0003210776194464415,-0.001539076794870198,-0.01005026884377003,,,,,,,,,,,,,,,,,,,,
1778106075802796288,,,,,,,0.5010929703712463,1,0.232453465461731,1,-1.417241811752319,1,-0.005933711770921946,1,-0.01814206875860691,1,0.06537911295890808,1,3,1,0.1794987916946411,1,0.4930033087730408,1,9.792605400085449,1
1778106075806400000,0.04138158634305,-0.05237447470426559,-1.09894847869873,0.001200908329337835,7.836004078853875e-05,-0.01317608449608088,,,,,,,,,,,,,,,,,,,,
1778106075812966144,,,,,,,0.3255083560943604,1,0.2385147958993912,1,-0.9658081531524658,1,-0.02182946167886257,1,-0.05830500647425652,1,0.09447699785232544,1,3,1,0.1857193112373352,1,0.4914776980876923,1,9.79256534576416,1
1778106075816562176,0.02680316381156445,-0.04729746282100677,-1.103739738464355,-7.028091204119846e-06,-0.0004742890887428075,-0.0109667656943202,,,,,,,,,,,,,,,,,,,,
1778106075823115520,,,,,,,0.1948252320289612,1,0.2768053412437439,1,0.04700189083814621,1,-0.03913015872240067,1,-0.0213434062898159,1,0.101761557161808,1,3,1,0.1889511495828629,1,0.4873329997062683,1,9.79271125793457,1
1778106075826704384,0.0326031930744648,-0.02689075656235218,-1.143066167831421,0.0003562017809599638,-2.097230390063487e-05,-0.01193500496447086,,,,,,,,,,,,,,,,,,,,
1778106075833244672,,,,,,,0.01638012751936913,1,0.03061246871948242,1,1.341487765312195,1,-0.09638845175504684,1,0.0007036691531538963,1,0.08279908448457718,1,3,1,0.191452831029892,1,0.4797082841396332,1,9.793039321899414,1
1778106075836826368,0.01461644656956196,-0.0260966457426548,-1.097040176391602,-4.716399416793138e-05,-0.0002236982982140034,-0.01049821078777313,,,,,,,,,,,,,,,,,,,,
1778106075843354112,,,,,,,0.1039471477270126,1,0.02370057068765163,1,1.474479675292969,1,-0.05959192663431168,1,0.05493240058422089,1,0.06709524989128113,1,3,1,0.186020240187645,1,0.4716610908508301,1,9.793534278869629,1
1778106075846928128,0.001016712747514248,-0.02193804085254669,-0.9937697649002075,-0.0001646061427891254,-0.0001580315147293732,-0.00880050752311945,,,,,,,,,,,,,,,,,,,,
1778106075853443328,,,,,,,0.1716858297586441,1,0.02469132468104362,1,0.4442516565322876,1,0.08143110573291779,1,0.03897108882665634,1,0.07913299649953842,1,3,1,0.182165116071701,1,0.4764996469020844,1,9.793373107910156,1
1778106075857009664,-0.0174760315567255,-0.04665744677186012,-0.8617825508117676,-0.0003371059137862176,-0.0007315688417293131,-0.00700336741283536,,,,,,,,,,,,,,,,,,,,
1778106075863512832,,,,,,,0.1195931807160378,1,-0.1088481694459915,1,-0.3514430522918701,1,-0.07445083558559418,1,0.1301964521408081,1,0.07688042521476746,1,3,1,0.1733077019453049,1,0.4732279777526855,1,9.793691635131836,1
1778106075867071488,-0.008568494580686092,-0.04670192673802376,-0.8482533097267151,-1.168594826594926e-05,-0.0004717783303931355,-0.008262584917247295,,,,,,,,,,,,,,,,,,,,
1778106075873562368,,,,,,,0.3154299855232239,1,0.006292117759585381,1,-0.9723982810974121,1,-0.02187337726354599,1,-0.03427893668413162,1,0.1129819676280022,1,3,1,0.1763739585876465,1,0.4719536602497101,1,9.793699264526367,1
1778106075877113344,-0.001455648220144212,-0.04619843140244484,-0.9533309936523438,5.665170101565309e-05,-0.0004561505047604442,-0.01058873999863863,,,,,,,,,,,,,,,,,,,,
1778106075883592192,,,,,,,0.392768383026123,1,0.2426303178071976,1,-1.04823625087738,1,-0.04856974631547928,1,-0.02189191244542599,1,0.08874790370464325,1,3,1,0.1765008121728897,1,0.4651789367198944,1,9.794020652770996,1
1778106075887135488,-0.006410978734493256,-0.05976847931742668,-1.034478545188904,-0.0001255142415175214,-0.0008498259703628719,-0.01107116043567657,,,,,,,,,,,,,,,,,,,,
1778106075893602048,,,,,,,0.3361288905143738,1,0.2901885807514191,1,-0.5056846141815186,1,0.006157411262392998,1,-0.05903315916657448,1,0.1015036329627037,1,3,1,0.182352289557457,1,0.4662036597728729,1,9.793864250183105,1
1778106075897137664,0.0139501765370369,-0.04780348762869835,-1.097816586494446,0.0005805090186186135,-0.0002279695181641728,-0.01191322226077318,,,,,,,,,,,,,,,,,,,,
1778106075903591936,,,,,,,0.1322581321001053,1,0.1234571263194084,1,0.4095107913017273,1,-0.08186591416597366,1,0.02536557056009769,1,0.1239435374736786,1,3,1,0.1816211938858032,1,0.4594926238059998,1,9.794195175170898,1
1778106075907120384,0.02198090963065624,-0.02334003336727619,-1.105570077896118,0.0003032255626749247,2.642338222358376e-05,-0.01106918416917324,,,,,,,,,,,,,,,,,,,,
1778106075913561856,,,,,,,0.2035844922065735,1,0.07144148647785187,1,1.248520851135254,1,-0.07119149714708328,1,0.001942732371389866,1,0.09418022632598877,1,3,1,0.1804792881011963,1,0.4524058103561401,1,9.794546127319336,1
1778106075917083136,0.01608831807971001,-0.01822903193533421,-1.050255537033081,0.0001302240125369281,-8.754853479331359e-05,-0.009944500401616096,,,,,,,,,,,,,,,,,,,,
1778106075923511808,,,,,,,0.05023591965436935,1,0.03524542227387428,1,1.231767773628235,1,-0.0167803093791008,1,0.0426270104944706,1,0.06511227786540985,1,3,1,0.1779129952192307,1,0.4484827518463135,1,9.794774055480957,1
1778106075927025920,-0.004901011008769274,-0.03495721146464348,-0.9569410681724548,-0.0003150548145640641,-0.0005712732090614736,-0.008449526503682137,,,,,,,,,,,,,,,,,,,,
1778106075933442304,,,,,,,-0.2167495489120483,1,-0.5537668466567993,1,1.224587798118591,1,-0.04703434929251671,1,0.08673611283302307,1,0.06171358004212379,1,3,1,0.1716431528329849,1,0.4500730931758881,1,9.79481315612793,1
1778106075936948992,0.002372706774622202,-0.03974452987313271,-0.8714102506637573,0.0001205325970659032,-0.0004054141754750162,-0.007756700739264488,,,,,,,,,,,,,,,,,,,,
1778106075943352832,,,,,,,0.519910454750061,1,0.09199687838554382,1,-1.144601821899414,1,-0.005290079861879349,1,-0.001959316432476044,1,0.08094308525323868,1,3,1,0.1590447425842285,1,0.440049797296524,1,9.795480728149414,1
1778106075946852096,-0.01322944369167089,-0.04287153482437134,-0.8731455206871033,-0.0003194344462826848,-0.00048040461842902,-0.008660177700221539,,,,,,,,,,,,,,,,,,,,
1778106075953243648,,,,,,,0.1633801162242889,1,-0.02329045161604881,1,-1.154505491256714,1,-0.08327042311429977,1,-0.001517387805506587,1,0.0871749147772789,1,3,1,0.1617400348186493,1,0.4345320463180542,1,9.795682907104492,1
1778106075956736000,-0.04021462053060532,-0.1027419939637184,-0.8738910555839539,-0.0005796311888843775,-0.001546182669699192,-0.008715292438864708,,,,,,,,,,,,,,,,,,,,
1778106075963301888,,,,,,,0.2322942614555359,1,0.1880053132772446,1,-1.266648292541504,1,0.008747244253754616,1,-0.04896702617406845,1,0.09861219674348831,1,3,1,0.1651036888360977,1,0.4342349171638489,1,9.795639991760254,1
1778106075966599936,0.03577503561973572,-0.03625614568591118,-1.115525245666504,0.001120373141020536,0.0004506945260800421,-0.01405208092182875,,,,,,,,,,,,,,,,,,,,
1778106075973527296,,,,,,,0.1217706203460693,1,0.1640884578227997,1,-0.7482688426971436,1,-0.002993483562022448,1,-0.0624389536678791,1,0.09745007753372192,1,3,1,0.1722262799739838,1,0.4347183108329773,1,9.795495986938477,1
1778106075976444416,-0.0002409821609035134,-0.0475732795894146,-1.116561055183411,-0.000548823329154402,-0.0007006475934758782,-0.0110540958121419,,,,,,,,,,,,,,,,,,,,
1778106075983732480,,,,,,,-0.0687321275472641,1,0.1461354345083237,1,0.4037483036518097,1,-0.03921565040946007,1,0.005405694711953402,1,0.1040133088827133,1,3,1,0.1745626479387283,1,0.4311466217041016,1,9.795612335205078,1
1778106075986268928,0.006913622841238976,-0.02557718195021152,-1.128018975257874,0.0001285612815991044,3.501210085232742e-05,-0.01150586269795895,,,,,,,,,,,,,,,,,,,,
1778106075993917184,,,,,,,0.01365605182945728,1,0.06563909351825714,1,1.204862356185913,1,-0.05767634883522987,1,-0.02690513990819454,1,0.07462421059608459,1,3,1,0.1771692633628845,1,0.4257307350635529,1,9.795803070068359,1
1778106075996448000,-0.004597052931785583,-0.02783269807696342,-1.0751633644104,-0.0002265818475279957,-0.0002768650592770427,-0.01021876558661461,,,,,,,,,,,,,,,,,,,,
1778106076004081664,,,,,,,0.03942707553505898,1,0.1159957125782967,1,0.9467012286186218,1,0.02089472115039825,1,0.0002095439122058451,1,0.0595296137034893,1,3,1,0.1770287603139877,1,0.4250804483890533,1,9.795833587646484,1
1778106076006607104,-0.02439329028129578,-0.02946784347295761,-0.9576926827430725,-0.0005065018776804209,-0.0003111285041086376,-0.008235199376940727,,,,,,,,,,,,,,,,,,,,
1778106076014226432,,,,,,,-0.1523425281047821,1,-0.319339394569397,1,1.354067921638489,1,-0.01152106747031212,1,0.005664721131324768,1,0.06728331744670868,1,3,1,0.1780734062194824,1,0.4278552234172821,1,9.795693397521973,1
1778106076016746240,-0.01624085940420628,-0.03734847530722618,-0.8760119676589966,-2.040124672930688e-05,-0.0004467394028324634,-0.007743665482848883,,,,,,,,,,,,,,,,,,,,
1778106076024350720,,,,,,,0.5800738334655762,1,0.1678695380687714,1,-0.64300137758255,1,0.0004633460193872452,1,0.02201270312070847,1,0.08662033081054688,1,3,1,0.1648187637329102,1,0.4193103015422821,1,9.796295166015625,1
1778106076026864896,-0.01380509231239557,-0.03185155615210533,-0.902349591255188,-0.0001410774711985141,-0.000254952406976372,-0.009373191744089127,,,,,,,,,,,,,,,,,,,,
1778106076034454784,,,,,,,0.4220055639743805,1,0.03037822432816029,1,-0.6628513336181641,1,-0.04490324109792709,1,-0.005117785185575485,1,0.07923652976751328,1,3,1,0.1683201044797897,1,0.4170024991035461,1,9.796334266662598,1
1778106076036964096,-0.0335083082318306,-0.07623682171106339,-0.8608074188232422,-0.0004145198035985231,-0.001184692606329918,-0.008167686872184277,,,,,,,,,,,,,,,,,,,,
1778106076044538624,,,,,,,0.5048039555549622,1,0.1529387533664703,1,-0.3810448050498962,1,0.04923870787024498,1,-0.019605353474617,1,0.07977578788995743,1,3,1,0.1705707311630249,1,0.4203431308269501,1,9.796152114868164,1
1778106076047042816,0.0416535995900631,-0.02614624239504337,-1.064477920532227,0.001079863286577165,0.0002538149710744619,-0.01307472959160805,,,,,,,,,,,,,,,,,,,,
1778106076054602752,,,,,,,0.3235341012477875,1,0.084307000041008,1,0.01807207614183426,1,-0.009628720581531525,1,0.02550842426717281,1,0.07378008961677551,1,3,1,0.1699233502149582,1,0.4200641512870789,1,9.796175956726074,1
1778106076057101568,0.02569665387272835,-0.03992156311869621,-1.066515564918518,-3.813628427451476e-05,-0.0006391448550857604,-0.01064376533031464,,,,,,,,,,,,,,,,,,,,
1778106076064646912,,,,,,,0.1770768463611603,1,0.1230590045452118,1,0.4460970163345337,1,-0.0007263520965352654,1,0.01172284781932831,1,0.09549207240343094,1,3,1,0.1698790937662125,1,0.4194819629192352,1,9.796201705932617,1
1778106076067140096,0.03415294736623764,-0.02724710665643215,-1.037787199020386,0.0004134250339120626,-8.019469532882795e-05,-0.01016402244567871,,,,,,,,,,,,,,,,,,,,
1778106076074670848,,,,,,,0.01134842447936535,1,0.1072046011686325,1,0.8193484544754028,1,0.02366915717720985,1,-0.005042789503931999,1,0.07490251213312149,1,3,1,0.1705135554075241,1,0.4210450053215027,1,9.796123504638672,1
1778106076077158912,0.01561593264341354,-0.0342705063521862,-0.9970867037773132,-0.0001107157004298642,-0.0004398098972160369,-0.00945967435836792,,,,,,,,,,,,,,,,,,,,
1778106076084675584,,,,,,,-0.244051069021225,1,-0.1151703596115112,1,0.644896388053894,1,-0.03524835780262947,1,0.07583636790513992,1,0.04627625271677971,1,3,1,0.1649646311998367,1,0.4191218912601471,1,9.796300888061523,1
1778106076087158016,0.0006941513856872916,-0.03027790039777756,-0.9534423351287842,-0.000149542567669414,-0.0002460705582052469,-0.0090461615473032,,,,,,,,,,,,,,,,,,,,
1778106076094660608,,,,,,,-0.09338749945163727,1,-0.1515656709671021,1,-0.4514946937561035,1,-0.06563178449869156,1,0.05992721021175385,1,0.05659911036491394,1,3,1,0.1568187177181244,1,0.4117479920387268,1,9.796747207641602,1
1778106076097137152,-0.01619955897331238,-0.0318988673388958,-0.9153811931610107,-0.0003364935400895774,-0.0003149332478642464,-0.008717626333236694,,,,,,,,,,,,,,,,,,,,
1778106076104625664,,,,,,,-0.08187203109264374,1,-0.124783918261528,1,-1.146802067756653,1,-0.009186608716845512,1,-0.02655350789427757,1,0.05600970238447189,1,3,1,0.1585174798965454,1,0.4097801446914673,1,9.796802520751953,1
1778106076107096832,-0.0421452596783638,-0.05460523813962936,-0.9331707358360291,-0.0007399159949272871,-0.0008129623020067811,-0.009434112347662449,,,,,,,,,,,,,,,,,,,,
1778106076114571264,,,,,,,-0.1339626163244247,1,-0.1958085894584656,1,-1.164415955543518,1,0.01782676577568054,1,-0.04626433551311493,1,0.0570155531167984,1,3,1,0.1631195992231369,1,0.4114208817481995,1,9.796658515930176,1
1778106076117037056,-0.02631564065814018,-0.05805119127035141,-1.044990539550781,-0.0001082287053577602,-0.0006343421409837902,-0.01169971376657486,,,,,,,,,,,,,,,,,,,,
1778106076124497152,,,,,,,-0.1806749701499939,1,-0.2167493402957916,1,-0.6748118996620178,1,0.002988476771861315,1,-0.04853718355298042,1,0.07474483549594879,1,3,1,0.1682855933904648,1,0.4121212661266327,1,9.796541213989258,1
1778106076126957312,-0.02479176595807076,-0.05496029555797577,-1.115913271903992,-0.0002288894465891644,-0.000498556939419359,-0.0120332445949316,,,,,,,,,,,,,,,,,,,,
1778106076134403072,,,,,,,-0.2437769025564194,1,-0.1960184574127197,1,0.1914498507976532,1,-0.016524538397789,1,-0.03811830654740334,1,0.06621957570314407,1,3,1,0.1730538159608841,1,0.4108938276767731,1,9.796509742736816,1
1778106076136858368,-0.03010116145014763,-0.06203886866569519,-1.117716312408447,-0.0003717315848916769,-0.0007018204196356237,-0.01123986206948757,,,,,,,,,,,,,,,,,,,,
1778106076144289024,,,,,,,-0.1796730309724808,1,-0.1280937343835831,1,0.7740254402160645,1,-0.03052305802702904,1,-0.02259335480630398,1,0.05333191528916359,1,3,1,0.1752064079046249,1,0.4075571298599243,1,9.796610832214355,1
1778106076146739712,-0.03509916737675667,-0.06415122002363205,-1.067787647247314,-0.0004245260788593441,-0.0006767821032553911,-0.01013154815882444,,,,,,,,,,,,,,,,,,,,
1778106076154342144,,,,,,,-0.1742906123399734,1,-0.1334839314222336,1,0.9594451785087585,1,-0.05055500194430351,1,-0.007412789389491081,1,0.03645537048578262,1,3,1,0.1768836081027985,1,0.4032963514328003,1,9.796756744384766,1
1778106076156601088,-0.04190269112586975,-0.0620027519762516,-0.9794489145278931,-0.0004939278587698936,-0.0005880571552552283,-0.008806079626083374,,,,,,,,,,,,,,,,,,,,
1778106076164561664,,,,,,,-0.1056465655565262,1,-0.1261097192764282,1,0.5237870812416077,1,-0.09209313988685608,1,0.05950990319252014,1,0.03516514599323273,1,3,1,0.1721832901239395,1,0.394741952419281,1,9.797188758850098,1
1778106076166443008,-0.03569868206977844,-0.05492891743779182,-0.9200432300567627,-0.0002944339066743851,-0.0004778934235218912,-0.008479239419102669,,,,,,,,,,,,,,,,,,,,
1778106076174760704,,,,,,,0.118685781955719,1,0.02455077134072781,1,-0.3571312427520752,1,-0.04789912700653076,1,0.01093055680394173,1,0.03581598401069641,1,3,1,0.1701749861240387,1,0.3887676298618317,1,9.797463417053223,1
1778106076176264960,-0.03543510288000107,-0.05523554235696793,-0.9011408090591431,-0.0003410968347452581,-0.0005559991113841534,-0.008752811700105667,,,,,,,,,,,,,,,,,,,,
1778106076184939776,,,,,,,0.2076656222343445,1,0.02598544768989086,1,-0.6545571684837341,1,-0.002605337649583817,1,-0.0238927323371172,1,0.029363963752985,1,3,1,0.1728405505418777,1,0.3882997632026672,1,9.79743480682373,1
1778106076186440448,-0.02850241959095001,-0.0540330782532692,-0.9455830454826355,-0.0002384893014095724,-0.0005486701265908778,-0.009912054985761642,,,,,,,,,,,,,,,,,,,,
1778106076195098368,,,,,,,0.1889137029647827,1,-0.03418584540486336,1,-0.3518586754798889,1,0.009236302226781845,1,-0.02079043909907341,1,0.03586475923657417,1,3,1,0.1752767711877823,1,0.3894761502742767,1,9.797345161437988,1
1778106076196595456,-0.005464909132570028,-0.03805626183748245,-1.035439491271973,0.0002341215877095237,-0.000201202419702895,-0.011418835259974,,,,,,,,,,,,,,,,,,,,
1778106076205237248,,,,,,,0.1925144791603088,1,-0.05607429891824722,1,0.05056598782539368,1,0.008346927352249622,1,-0.02312019467353821,1,0.03071217425167561,1,3,1,0.1773725599050522,1,0.3901735842227936,1,9.797279357910156,1
1778106076206731008,0.003634240012615919,-0.03747083991765976,-1.065786719322205,0.0001578645606059581,-0.0003672254970297217,-0.01105072721838951,,,,,,,,,,,,,,,,,,,,
1778106076215355904,,,,,,,0.07371990382671356,1,-0.1014203503727913,1,0.6112260818481445,1,-0.0009997561573982239,1,-0.02880977466702461,1,0.02901715226471424,1,3,1,0.180584505200386,1,0.3903684914112091,1,9.797213554382324,1
1778106076216846080,0.001612087595276535,-0.04340444132685661,-1.034926414489746,1.056017026712652e-05,-0.0005023282719776034,-0.01003255229443312,,,,,,,,,,,,,,,,,,,,
1778106076225454080,,,,,,,-0.09250578284263611,1,-0.1604838073253632,1,0.992942750453949,1,-0.03651459515094757,1,0.006431661546230316,1,0.02495750784873962,1,3,1,0.1807020753622055,1,0.3873936533927917,1,9.797328948974609,1
1778106076226941440,0.001825486891902983,-0.04556235298514366,-0.9938907623291016,2.618818143673707e-05,-0.0004808100347872823,-0.009481193497776985,,,,,,,,,,,,,,,,,,,,
1778106076235532288,,,,,,,-0.146869882941246,1,-0.1713425070047379,1,0.6871380209922791,1,-0.07887275516986847,1,0.0480172336101532,1,0.01241551991552114,1,3,1,0.1762696206569672,1,0.3801421821117401,1,9.797694206237793,1
1778106076237016576,-0.01050925254821777,-0.05017266795039177,-0.9367160201072693,-0.0002279936597915366,-0.0005545211024582386,-0.008721033111214638,,,,,,,,,,,,,,,,,,,,
1778106076247071744,-0.02765581756830215,-0.05611787736415863,-0.89779132604599,-0.0004692001093644649,-0.000632373325061053,-0.00850184541195631,,,,,,,,,,,,,,,,,,,,
1778106076257106688,-0.03317885100841522,-0.056924007833004,-0.9289869070053101,-0.0004112971655558795,-0.0005924323340877891,-0.009579229168593884,,,,,,,,,,,,,,,,,,,,
1778106076267121920,-0.02389373630285263,-0.05152667313814163,-1.010128974914551,-0.0001379502355121076,-0.0004603418929036707,-0.01102287601679564,,,,,,,,,,,,,,,,,,,,
1778106076277117184,-0.01763270981609821,-0.04983941838145256,-1.070610523223877,-9.745133138494566e-05,-0.0004749232030007988,-0.01142411213368177,,,,,,,,,,,,,,,,,,,,
1778106076277252352,,,,,,,-0.05808988213539124,1,-0.1237187087535858,1,-0.1083458662033081,1,-0.07862076908349991,1,0.03439714387059212,1,0.01121905818581581,1,3,1,0.1722043454647064,1,0.3721517622470856,1,9.798072814941406,1
1778106076287092992,-0.01596844755113125,-0.0534784197807312,-1.082305550575256,-0.0001407611271133646,-0.0005744987865909934,-0.01100023649632931,,,,,,,,,,,,,,,,,,,,
1778106076287227392,,,,,,,0.001256600604392588,1,-0.1129085272550583,1,-0.7012099623680115,1,-0.04223829880356789,1,-0.001027112826704979,1,1.593097113072872e-05,1,3,1,0.1718720644712448,1,0.3674498796463013,1,9.798255920410156,1
1778106076297049600,-0.01954896189272404,-0.06144321709871292,-1.042192935943604,-0.0002168448700103909,-0.0006968692177906632,-0.01001063827425241,,,,,,,,,,,,,,,,,,,,
1778106076297182976,,,,,,,0.01703990623354912,1,-0.1527546942234039,1,-0.8157301545143127,1,-0.006248358637094498,1,-0.02498150058090687,1,-0.007602031342685223,1,3,1,0.1740370690822601,1,0.3665979206562042,1,9.798250198364258,1
1778106076306986240,-0.02985964342951775,-0.06815539300441742,-0.9726669788360596,-0.0004233727522660047,-0.0007679482805542648,-0.008926989510655403,,,,,,,,,,,,,,,,,,,,
1778106076307119360,,,,,,,-0.01682440005242825,1,-0.2331076860427856,1,-0.4222971200942993,1,-0.001253655413165689,1,-0.04162922874093056,1,0.0001669503981247544,1,3,1,0.1780669391155243,1,0.3667459785938263,1,9.798171997070312,1
1778106076316903424,-0.03326212242245674,-0.06857986003160477,-0.9256854653358459,-0.0003707939758896828,-0.0006929758237674832,-0.008707907050848007,,,,,,,,,,,,,,,,,,,,
1778106076317035776,,,,,,,-0.1156328693032265,1,-0.3008450269699097,1,0.259550929069519,1,-0.03740659728646278,1,-0.02393554709851742,1,0.0101742260158062,1,3,1,0.1808365136384964,1,0.3636743128299713,1,9.798235893249512,1
1778106076326800896,-0.04148557037115097,-0.06611731648445129,-0.9161951541900635,-0.000509629724547267,-0.0006450094515457749,-0.00900532491505146,,,,,,,,,,,,,,,,,,,,
1778106076326932992,,,,,,,-0.1466229259967804,1,-0.3082870244979858,1,0.7203604578971863,1,-0.06311369687318802,1,-0.02298728935420513,1,0.003341914620250463,1,3,1,0.1835116446018219,1,0.357881486415863,1,9.798398971557617,1
1778106076336678656,-0.03556736186146736,-0.05660631507635117,-0.9696884155273438,-0.0002981279685627669,-0.0004708188644144684,-0.01025778613984585,,,,,,,,,,,,,,,,,,,,
1778106076336810240,,,,,,,-0.22514608502388,1,-0.2894556820392609,1,0.8135851621627808,1,-0.09972261637449265,1,0.001093151047825813,1,-0.004779497161507607,1,3,1,0.1841236054897308,1,0.348592609167099,1,9.798722267150879,1
1778106076346536448,-0.01763425767421722,-0.03895459696650505,-1.051133513450623,3.308440136606805e-05,-0.0001913807936944067,-0.01145849376916885,,,,,,,,,,,,,,,,,,,,
1778106076346668032,,,,,,,-0.1668495982885361,1,-0.204321563243866,1,0.2892830371856689,1,-0.1339942216873169,1,0.03211358934640884,1,-0.01069173309952021,1,3,1,0.1808868199586868,1,0.3357517421245575,1,9.79923152923584,1
1778106076356374784,-0.01285768020898104,-0.0361829549074173,-1.077494859695435,-7.023812941042706e-05,-0.0003264747210778296,-0.01112897787243128,,,,,,,,,,,,,,,,,,,,
1778106076356505856,,,,,,,0.008384165354073048,1,-0.04135645925998688,1,-0.5090547800064087,1,-0.1017743051052094,1,-0.01328008621931076,1,-0.01949793100357056,1,3,1,0.1811899393796921,1,0.3246652483940125,1,9.799599647521973,1
1778106076366324480,,,,,,,0.05608648806810379,1,-0.02296586520969868,1,-0.7672879099845886,1,-0.04658703505992889,1,-0.02723207883536816,1,-0.02556945569813251,1,3,1,0.1842878609895706,1,0.3197478055953979,1,9.799703598022461,1
1778106076366375168,-0.002093871356919408,-0.03574108332395554,-1.065649747848511,9.263320680474862e-05,-0.0003601094358600676,-0.01054326537996531,,,,,,,,,,,,,,,,,,,,
1778106076376305152,,,,,,,0.1631441116333008,1,-0.02493681758642197,1,-0.6509405374526978,1,-0.02184550277888775,1,-0.02076327800750732,1,-0.02989822439849377,1,3,1,0.1862069070339203,1,0.3172696828842163,1,9.799747467041016,1
1778106076376536832,0.006589556112885475,-0.04000438749790192,-1.01587438583374,0.0001756660058163106,-0.0004516357148531824,-0.009617200121283531,,,,,,,,,,,,,,,,,,,,
1778106076386447360,,,,,,,0.2504002749919891,1,-0.07071743160486221,1,-0.1627155691385269,1,-0.008081980049610138,1,-0.03896929696202278,1,-0.02491284161806107,1,3,1,0.1898313015699387,1,0.3166078925132751,1,9.799699783325195,1
1778106076386678528,0.001608045538887382,-0.04573756456375122,-0.9476553201675415,-3.270047454861924e-05,-0.0005201134481467307,-0.008696772158145905,,,,,,,,,,,,,,,,,,,,
1778106076396569344,,,,,,,0.2045427411794662,1,-0.1296997517347336,1,0.5063194632530212,1,-0.02885434776544571,1,-0.03748270496726036,1,-0.03323645517230034,1,3,1,0.193766787648201,1,0.3143956661224365,1,9.79969310760498,1
1778106076396800256,-0.008609470911324024,-0.04893762990832329,-0.8925677537918091,-0.0001996935898205265,-0.0005329449777491391,-0.008269683457911015,,,,,,,,,,,,,,,,,,,,
1778106076406671360,,,,,,,0.1073640435934067,1,-0.1646207123994827,1,1.046599626541138,1,-0.06644728034734726,1,-0.0222486462444067,1,-0.03091330267488956,1,3,1,0.1961884051561356,1,0.3083944320678711,1,9.799836158752441,1
1778106076406901760,-0.01532357279211283,-0.04640015587210655,-0.8903548121452332,-0.0002387675776844844,-0.000447145284852013,-0.008817293681204319,,,,,,,,,,,,,,,,,,,,
1778106076416753152,,,,,,,0.0436210036277771,1,-0.1452396810054779,1,1.068434000015259,1,-0.09667573869228363,1,0.01006237231194973,1,-0.03444753587245941,1,3,1,0.1958823204040527,1,0.2993971705436707,1,9.800121307373047,1
1778106076416983040,-0.01656384766101837,-0.04192449897527695,-0.9476621150970459,-0.0001940851943800226,-0.0003776802332140505,-0.01008857227861881,,,,,,,,,,,,,,,,,,,,
1778106076426814976,,,,,,,0.0313505157828331,1,-0.1090840846300125,1,0.506682813167572,1,-0.1154762282967567,1,0.04735851287841797,1,-0.03213277459144592,1,3,1,0.1916578114032745,1,0.288277268409729,1,9.800538063049316,1
1778106076427044352,-0.001969927921891212,-0.03270357847213745,-1.038050174713135,0.0001515915937488899,-0.0002306730020791292,-0.01141773536801338,,,,,,,,,,,,,,,,,,,,
1778106076436856832,,,,,,,0.1724216789007187,1,-0.02786105498671532,1,-0.379403293132782,1,-0.09854719042778015,1,0.02675388753414154,1,-0.03652104735374451,1,3,1,0.1882621645927429,1,0.2780657410621643,1,9.800898551940918,1
1778106076437085952,0.00760176032781601,-0.03120256401598454,-1.086581707000732,0.0001859067415352911,-0.0002941823622677475,-0.01146603468805552,,,,,,,,,,,,,,,,,,,,
1778106076446878720,,,,,,,0.2647349238395691,1,-0.02151905000209808,1,-0.855057954788208,1,-0.05163165181875229,1,-0.006808508653193712,1,-0.03797857090830803,1,3,1,0.1886662393808365,1,0.2726212739944458,1,9.801044464111328,1
1778106076447107584,0.009832829236984253,-0.03209079056978226,-1.072329878807068,0.0001404116046614945,-0.000319569546263665,-0.01062084268778563,,,,,,,,,,,,,,,,,,,,
1778106076456880640,,,,,,,0.2864679396152496,1,-0.03623907268047333,1,-0.7151172757148743,1,-0.01853783801198006,1,-0.02215542830526829,1,-0.03903893008828163,1,3,1,0.1907530277967453,1,0.2707108557224274,1,9.801056861877441,1
1778106076457108992,0.01553733833134174,-0.03788526728749275,-1.030288219451904,0.0001944686664501205,-0.0004610698379110545,-0.009817613288760185,,,,,,,,,,,,,,,,,,,,
1778106076466862592,,,,,,,0.3428661525249481,1,-0.09744278341531754,1,-0.302712619304657,1,-0.04155506193637848,1,-0.007278353907167912,1,-0.03328043594956398,1,3,1,0.1911942064762115,1,0.2671875059604645,1,9.801144599914551,1
1778106076467091456,0.0126235093921423,-0.03817962482571602,-0.9746696949005127,0.0001048679550876841,-0.0003962405899073929,-0.009123879484832287,,,,,,,,,,,,,,,,,,,,
1778106076476825600,,,,,,,0.3153993785381317,1,-0.1050847843289375,1,0.2428294718265533,1,-0.06698037683963776,1,-0.03286776691675186,1,-0.02188596688210964,1,3,1,0.194266602396965,1,0.2609888315200806,1,9.801251411437988,1
1778106076477053952,0.0009163566865026951,-0.03739615902304649,-0.9152834415435791,-0.0001208686153404415,-0.0003530994290485978,-0.008460322394967079,,,,,,,,,,,,,,,,,,,,
1778106076486768640,,,,,,,0.2026124894618988,1,-0.1034698337316513,1,0.8253337740898132,1,-0.09598412364721298,1,-0.01940016075968742,1,-0.02254045195877552,1,3,1,0.1967525035142899,1,0.2522327899932861,1,9.801430702209473,1
1778106076486996992,-0.004210891667753458,-0.03260382637381554,-0.9158639311790466,-0.0001069940262823366,-0.0002886278089135885,-0.009090366773307323,,,,,,,,,,,,,,,,,,,,
1778106076496692224,,,,,,,0.1535245031118393,1,-0.06512515246868134,1,0.8198437094688416,1,-0.1425237506628036,1,0.01354372501373291,1,-0.01617574319243431,1,3,1,0.1956032812595367,1,0.2385777533054352,1,9.801795959472656,1
1778106076496920320,0.003648555837571621,-0.02155301347374916,-0.9647344946861267,0.0001273259695153683,-8.733470895094797e-05,-0.01020035520195961,,,,,,,,,,,,,,,,,,,,
1778106076506596096,,,,,,,0.2303559184074402,1,0.03216522932052612,1,0.3408696055412292,1,-0.1318899691104889,1,0.01331041567027569,1,-0.01488547306507826,1,3,1,0.1937442421913147,1,0.2251904010772705,1,9.802149772644043,1
1778106076506823680,0.01102742925286293,-0.01713693886995316,-1.017715334892273,0.0001892050640890375,-0.0001221943966811523,-0.01078713592141867,,,,,,,,,,,,,,,,,,,,
1778106076516480256,,,,,,,0.3019371330738068,1,0.06388051062822342,1,-0.1784017086029053,1,-0.1143979951739311,1,0.0125487232580781,1,-0.01790930517017841,1,3,1,0.1923378109931946,1,0.2136975228786469,1,9.802434921264648,1
1778106076516707328,0.02307725511491299,-0.0179972667247057,-1.059425950050354,0.0003619166673161089,-0.0001990006421692669,-0.01109010726213455,,,,,,,,,,,,,,,,,,,,
1778106076526344704,,,,,,,0.419172614812851,1,0.04452246800065041,1,-0.5871736407279968,1,-0.09732857346534729,1,-0.003172330791130662,1,-0.01554727926850319,1,3,1,0.1917692422866821,1,0.2043740302324295,1,9.802644729614258,1
1778106076526571776,0.019552918151021,-0.02508612722158432,-1.061176776885986,0.0001637564710108563,-0.000325025204801932,-0.01065871119499207,,,,,,,,,,,,,,,,,,,,
1778106076536189696,,,,,,,0.384353369474411,1,-0.03486290946602821,1,-0.6041204333305359,1,-0.08771093189716339,1,-0.002356806537136436,1,-0.01670857332646847,1,3,1,0.1923705041408539,1,0.1960058957338333,1,9.802803993225098,1
1778106076536416512,0.01953748427331448,-0.0284094549715519,-1.056598305702209,0.000188085570698604,-0.000328923953929916,-0.01051723770797253,,,,,,,,,,,,,,,,,,,,
1778106076546015232,,,,,,,0.3839439749717712,1,-0.07687422633171082,1,-0.5590163469314575,1,-0.0942634716629982,1,-0.004104095976799726,1,-0.005147434305399656,1,3,1,0.1921741664409637,1,0.1867936998605728,1,9.802987098693848,1
1778106076546241536,0.010229567065835,-0.02420291118323803,-1.034903407096863,9.992824061555439e-07,-0.000214576575672254,-0.01012360956519842,,,,,,,,,,,,,,,,,,,,
1778106076556008192,,,,,,,0.2934114634990692,1,-0.04511050879955292,1,-0.346085786819458,1,-0.0993620753288269,1,-0.03761536255478859,1,0.01015893463045359,1,3,1,0.1955617219209671,1,0.1770030707120895,1,9.803102493286133,1
1778106076556421120,-0.01209835615009069,-0.02656712755560875,-0.9846283793449402,-0.0003620040370151401,-0.0002888391318265349,-0.009279526770114899,,,,,,,,,,,,,,,,,,,,
1778106076566168320,,,,,,,0.07674376666545868,1,-0.07814051955938339,1,0.1470869481563568,1,-0.1261789053678513,1,-0.02122499793767929,1,0.008404822088778019,1,3,1,0.1989660859107971,1,0.1656648516654968,1,9.803231239318848,1
1778106076566580736,-0.01844522170722485,-0.01305752154439688,-0.982099711894989,-0.0002646932261995971,2.741359821811784e-06,-0.009737000800669193,,,,,,,,,,,,,,,,,,,,
1778106076576308480,,,,,,,0.01584436371922493,1,0.04247719049453735,1,0.1720687597990036,1,-0.150601252913475,1,0.01474787574261427,1,0.01083499006927013,1,3,1,0.1976703554391861,1,0.1503702253103256,1,9.80350399017334,1
1778106076576719872,-0.01371756009757519,-0.004257936961948872,-0.9984303116798401,-7.901139906607568e-05,5.753778168582357e-05,-0.0101739913225174,,,,,,,,,,,,,,,,,,,,
1778106076586428160,,,,,,,0.06237030029296875,1,0.1161791756749153,1,0.01212515123188496,1,-0.1214988827705383,1,0.007247847970575094,1,0.01346150785684586,1,3,1,0.1968531906604767,1,0.1382306665182114,1,9.803699493408203,1
1778106076586839040,-0.007017092779278755,-0.006356449332088232,-0.9972643256187439,-3.659987669379916e-06,-8.899846579879522e-05,-0.009996110573410988,,,,,,,,,,,,,,,,,,,,
1778106076596527872,,,,,,,0.127949982881546,1,0.08375883102416992,1,0.02374599874019623,1,-0.1052030026912689,1,0.01049981452524662,1,0.007427054457366467,1,3,1,0.1962052136659622,1,0.127900555729866,1,9.803853034973145,1
1778106076596937984,-0.0003958710003644228,-0.008306839503347874,-0.983613133430481,6.418072734959424e-05,-0.0001175694414996542,-0.009667370468378067,,,,,,,,,,,,,,,,,,,,
1778106076606607616,,,,,,,0.1919993907213211,1,0.05346269160509109,1,0.1577960401773453,1,-0.1049185022711754,1,0.03027342446148396,1,-0.003717562183737755,1,3,1,0.1935823410749435,1,0.1174935027956963,1,9.804035186767578,1
1778106076607017216,0.01256478484719992,-0.007957696914672852,-0.9899752736091614,0.0002696674782782793,-9.087823127629235e-05,-0.009969430044293404,,,,,,,,,,,,,,,,,,,,
1778106076616667392,,,,,,,0.3173681795597076,1,0.04616747051477432,1,0.09558171033859253,1,-0.1043240129947662,1,0.01826789788901806,1,0.002080307342112064,1,3,1,0.1913826018571854,1,0.1073417365550995,1,9.804194450378418,1
1778106076617076224,0.00292888330295682,-0.005615776870399714,-0.9792368412017822,-7.668056059628725e-05,-2.236696127511095e-05,-0.009716578759253025,,,,,,,,,,,,,,,,,,,,
1778106076626707200,,,,,,,0.2221319377422333,1,0.05878735333681107,1,0.2010321915149689,1,-0.1025698408484459,1,-0.009430657140910625,1,0.01487711258232594,1,3,1,0.1930106431245804,1,0.09751846641302109,1,9.804265022277832,1
1778106076627115008,-0.006590817123651505,-0.003288389416411519,-0.9588457345962524,-0.0001590463507454842,-2.353887612116523e-05,-0.009337251074612141,,,,,,,,,,,,,,,,,,,,
1778106076636727040,,,,,,,0.1287644356489182,1,0.07070180028676987,1,0.4011214673519135,1,-0.1272897124290466,1,0.00492255762219429,1,0.01654589362442493,1,3,1,0.1931910961866379,1,0.08483421057462692,1,9.804379463195801,1
1778106076637134848,-0.01252645719796419,-0.001342127798125148,-0.9699383974075317,-0.000174237517057918,9.894144568534102e-06,-0.00979822501540184,,,,,,,,,,,,,,,,,,,,
1778106076646727680,,,,,,,0.07006525993347168,1,0.07830473780632019,1,0.2924618124961853,1,-0.1147551164031029,1,0.01946471258997917,1,0.00749254459515214,1,3,1,0.1915819346904755,1,0.07331001758575439,1,9.80450439453125,1
1778106076647134720,-0.006626177579164505,0.003037088783457875,-1.000569939613342,2.25451985897962e-05,7.654374348931015e-05,-0.01035992987453938,,,,,,,,,,,,,,,,,,,,
1778106076656708352,,,,,,,0.1266956478357315,1,0.1100737228989601,1,-0.007808875292539597,1,-0.1010215505957603,1,0.0122145926579833,1,0.01480085868388414,1,3,1,0.1897881925106049,1,0.06303443759679794,1,9.804610252380371,1
1778106076657114880,-0.007874484173953533,0.002982864156365395,-1.016309499740601,-9.43347331485711e-05,3.380396447028033e-05,-0.01034601032733917,,,,,,,,,,,,,,,,,,,,
1778106076666669312,,,,,,,0.1129273325204849,1,0.09923750162124634,1,-0.1620522886514664,1,-0.09257917851209641,1,0.02498670294880867,1,0.01429978385567665,1,3,1,0.187310665845871,1,0.05411232635378838,1,9.80471134185791,1
1778106076667075328,0.004708184860646725,0.007004608400166035,-1.024831652641296,0.0001828955428209156,0.0001095672996598296,-0.01035190932452679,,,,,,,,,,,,,,,,,,,,
1778106076676610560,,,,,,,0.2343558818101883,1,0.1290758699178696,1,-0.2455222755670547,1,-0.08368416875600815,1,0.01032521482557058,1,0.0103404987603426,1,3,1,0.1854342073202133,1,0.04567831009626389,1,9.804790496826172,1
1778106076677015808,0.003308267798274755,0.003496198449283838,-0.9985033273696899,1.033504941005958e-05,1.545749910292216e-05,-0.009718978777527809,,,,,,,,,,,,,,,,,,,,
1778106076686532096,,,,,,,0.219473585486412,1,0.08635205775499344,1,0.01274250447750092,1,-0.05992176383733749,1,-0.005412175320088863,1,0.007770309690386057,1,3,1,0.1858925819396973,1,0.03990491852164268,1,9.804806709289551,1
1778106076686936832,0.001172261312603951,0.0008504874422214925,-0.974051833152771,-2.75000675173942e-05,-3.860715878545307e-05,-0.009447348304092884,,,,,,,,,,,,,,,,,,,,
1778106076696434176,,,,,,,0.1979209184646606,1,0.05273418501019478,1,0.2525806427001953,1,-0.08124101161956787,1,0.004361786879599094,1,0.01556584052741528,1,3,1,0.1854651421308517,1,0.03197792544960976,1,9.804843902587891,1
1778106076696838144,-0.002337384037673473,0.003525068750604987,-0.9513053894042969,-7.787301001371816e-05,5.917976886848919e-05,-0.009237820282578468,,,,,,,,,,,,,,,,,,,,
1778106076706316544,,,,,,,0.1630827188491821,1,0.07093199342489243,1,0.4756896197795868,1,-0.08929865062236786,1,0.002504076575860381,1,0.01247983518987894,1,3,1,0.1854006350040436,1,0.02325581386685371,1,9.804869651794434,1
1778106076706719488,-0.009931439533829689,0.002298299688845873,-0.9457953572273254,-0.0001847756066126749,7.587478648929391e-06,-0.009382051415741444,,,,,,,,,,,,,,,,,,,,
1778106076716178944,,,,,,,0.08826766908168793,1,0.05074185878038406,1,0.5297585725784302,1,-0.07384178787469864,1,0.01043820381164551,1,0.01242116931825876,1,3,1,0.1848266869783401,1,0.01562167424708605,1,9.804895401000977,1
1778106076716581888,-0.01357252337038517,0.00307952961884439,-0.9822666645050049,-0.0002165229234378785,2.079250225506257e-05,-0.01020030956715345,,,,,,,,,,,,,,,,,,,,
1778106076726022400,,,,,,,0.05120724067091942,1,0.05029366165399551,1,0.1721426695585251,1,-0.07909063994884491,1,0.03718626871705055,1,0.01008046418428421,1,3,1,0.1810397803783417,1,0.007073333952575922,1,9.804976463317871,1
1778106076726424320,-0.008744789287447929,0.008564098738133907,-1.017597436904907,-2.078415127471089e-05,0.0001407771924277768,-0.01062075048685074,,,,,,,,,,,,,,,,,,,,
1778106076735846144,,,,,,,0.09663832932710648,1,0.09612973034381866,1,-0.1742857247591019,1,-0.06670244038105011,1,0.01073030102998018,1,0.02224801294505596,1,3,1,0.179779440164566,1,6.406347529264167e-05,1,9.805002212524414,1
1778106076736247808,-0.01239821873605251,0.01081039849668741,-1.015744686126709,-0.0001830044930102304,0.0001333603722741827,-0.01016100775450468,,,,,,,,,,,,,,,,,,,,
1778106076745837312,,,,,,,0.05918807908892632,1,0.1110198348760605,1,-0.1560798734426498,1,-0.06002289056777954,1,0.02944403141736984,1,0.02419198304414749,1,3,1,0.1776387393474579,1,-0.005852153524756432,1,9.805039405822754,1
1778106076746425088,-0.002817681990563869,0.01589122600853443,-1.020047068595886,9.036260598804802e-05,0.0001985356648219749,-0.01023250259459019,,,,,,,,,,,,,,,,,,,,
1778106076755995392,,,,,,,0.1507013291120529,1,0.1540063619613647,1,-0.1982258409261703,1,-0.06737054139375687,1,0.03713741898536682,1,0.01247907057404518,1,3,1,0.1739537566900253,1,-0.01269470155239105,1,9.805098533630371,1
1778106076756582144,0.001341543160378933,0.02153181657195091,-1.016764283180237,8.427503780694678e-05,0.0002779742353595793,-0.01014852803200483,,,,,,,,,,,,,,,,,,,,
1778106076766133248,,,,,,,0.1891812682151794,1,0.2032269537448883,1,-0.165992870926857,1,-0.03502804785966873,1,0.0003120985347777605,1,0.005654929205775261,1,3,1,0.1733873635530472,1,-0.01648611761629581,1,9.805103302001953,1
1778106076766718720,-0.008626350201666355,0.01773943565785885,-0.9848508238792419,-0.0001601963012944907,0.0001466359390178695,-0.009509770199656487,,,,,,,,,,,,,,,,,,,,
1778106076776251136,,,,,,,0.0907164067029953,1,0.1617487221956253,1,0.1469817012548447,1,-0.01817935891449451,1,-0.02074297703802586,1,0.008716193027794361,1,3,1,0.1753777712583542,1,-0.01798110082745552,1,9.805065155029297,1
