FILE_INFO
ListSeparator=,
DecimalSeparator=.

SESSION_INFO
TimeZone,UTC
TimeZoneOffset,0
DateTimeFormat,nnnnnnnnnnnnnnnnnnn
StartTime,01/01/70 00:00:00.000000000
TimeFormat,Unix

DEVICE_INFO
Address,*

CHANNEL_INFO
Channel,Type,SampleRate,Equation,Coefficients,Unit,UnitSymbol,WhereApplied,WhenApplied
inertial-6286.188861:scaledAccelX,Timeseries,100Hz,,,,,,
inertial-6286.188861:scaledAccelY,Timeseries,100Hz,,,,,,
inertial-6286.188861:scaledAccelZ,Timeseries,100Hz,,,,,,
inertial-6286.188861:deltaVelX,Timeseries,100Hz,,,,,,
inertial-6286.188861:deltaVelY,Timeseries,100Hz,,,,,,
inertial-6286.188861:deltaVelZ,Timeseries,100Hz,,,,,,
inertial-6286.188861:estLinearAccelX,Timeseries,100Hz,,,,,,
inertial-6286.188861:estLinearAccelX:valid,ValidFlag,100Hz,,,,,,
inertial-6286.188861:estLinearAccelY,Timeseries,100Hz,,,,,,
inertial-6286.188861:estLinearAccelY:valid,ValidFlag,100Hz,,,,,,
inertial-6286.188861:estLinearAccelZ,Timeseries,100Hz,,,,,,
inertial-6286.188861:estLinearAccelZ:valid,ValidFlag,100Hz,,,,,,
inertial-6286.188861:estAngularRateX,Timeseries,100Hz,,,,,,
inertial-6286.188861:estAngularRateX:valid,ValidFlag,100Hz,,,,,,
inertial-6286.188861:estAngularRateY,Timeseries,100Hz,,,,,,
inertial-6286.188861:estAngularRateY:valid,ValidFlag,100Hz,,,,,,
inertial-6286.188861:estAngularRateZ,Timeseries,100Hz,,,,,,
inertial-6286.188861:estAngularRateZ:valid,ValidFlag,100Hz,,,,,,
inertial-6286.188861:estFilterState,Timeseries,100Hz,,,,,,
inertial-6286.188861:estFilterStatusFlags,Timeseries,100Hz,,,,,,
inertial-6286.188861:estGravityVectorX,Timeseries,100Hz,,,,,,
inertial-6286.188861:estGravityVectorX:valid,ValidFlag,100Hz,,,,,,
inertial-6286.188861:estGravityVectorY,Timeseries,100Hz,,,,,,
inertial-6286.188861:estGravityVectorY:valid,ValidFlag,100Hz,,,,,,
inertial-6286.188861:estGravityVectorZ,Timeseries,100Hz,,,,,,
inertial-6286.188861:estGravityVectorZ:valid,ValidFlag,100Hz,,,,,,

DATA_START
Time,inertial-6286.188861:scaledAccelX,inertial-6286.188861:scaledAccelY,inertial-6286.188861:scaledAccelZ,inertial-6286.188861:deltaVelX,inertial-6286.188861:deltaVelY,inertial-6286.188861:deltaVelZ,inertial-6286.188861:estLinearAccelX,inertial-6286.188861:estLinearAccelX:valid,inertial-6286.188861:estLinearAccelY,inertial-6286.188861:estLinearAccelY:valid,inertial-6286.188861:estLinearAccelZ,inertial-6286.188861:estLinearAccelZ:valid,inertial-6286.188861:estAngularRateX,inertial-6286.188861:estAngularRateX:valid,inertial-6286.188861:estAngularRateY,inertial-6286.188861:estAngularRateY:valid,inertial-6286.188861:estAngularRateZ,inertial-6286.188861:estAngularRateZ:valid,inertial-6286.188861:estFilterState,inertial-6286.188861:estFilterStatusFlags,inertial-6286.188861:estGravityVectorX,inertial-6286.188861:estGravityVectorX:valid,inertial-6286.188861:estGravityVectorY,inertial-6286.188861:estGravityVectorY:valid,inertial-6286.188861:estGravityVectorZ,inertial-6286.188861:estGravityVectorZ:valid
1778106173894965504,-0.01663338579237461,-0.00794075895100832,-0.99611896276474,-0.0001661137212067842,-7.596755312988535e-05,-0.009959299117326736,,,,,,,,,,,,,,,,,,,,
1778106173896070656,,,,,,,0.01210399065166712,1,-0.04140321537852287,1,0.04193899780511856,1,-0.01785334944725037,1,0.0006618931074626744,1,9.591760317562148e-05,1,3,1,0.1802883744239807,1,0.05523549392819405,1,9.804837226867676,1
1778106173904963584,-0.0167347826063633,-0.008163274265825748,-0.9958698153495789,-0.0001686213945504278,-8.435724885202944e-05,-0.009956462308764458,,,,,,,,,,,,,,,,,,,,
1778106173906248704,,,,,,,0.009678886272013187,1,-0.05475679039955139,1,0.04085255414247513,1,-0.02004904299974442,1,-8.475530194118619e-05,1,0.0005742536159232259,1,3,1,0.1802958548069,1,0.05327599495649338,1,9.804847717285156,1
1778106173915123712,-0.01705496571958065,-0.008977809920907021,-0.9955514073371887,-0.0001746824564179406,-9.941958705894649e-05,-0.009951748885214329,,,,,,,,,,,,,,,,,,,,
1778106173916406784,,,,,,,0.009488297626376152,1,-0.06044122576713562,1,0.03331437334418297,1,-0.02230760268867016,1,-0.0004186427977401763,1,0.0002844214031938463,1,3,1,0.1803404837846756,1,0.05111205205321312,1,9.804858207702637,1
1778106173925263872,-0.01716356351971626,-0.0100935185328126,-0.9955368041992188,-0.0001728990173432976,-0.00011449013982201,-0.00995473749935627,,,,,,,,,,,,,,,,,,,,
1778106173926544640,,,,,,,0.0125195337459445,1,-0.0617976225912571,1,0.03122137114405632,1,-0.02377227693796158,1,-0.001147150411270559,1,0.0007715756655670702,1,3,1,0.180468425154686,1,0.04876483231782913,1,9.804867744445801,1
1778106173935383552,-0.01740501075983047,-0.01129165757447481,-0.9956486821174622,-0.0001774018601281568,-0.0001284883765038103,-0.009957981295883656,,,,,,,,,,,,,,,,,,,,
1778106173936662528,,,,,,,0.0132271395996213,1,-0.0544469878077507,1,0.03167565912008286,1,-0.02638575434684753,1,-0.0004112893657293171,1,0.0009807664901018143,1,3,1,0.1805220097303391,1,0.04622126743197441,1,9.804879188537598,1
1778106173945483264,-0.01742273569107056,-0.01168601214885712,-0.9964184165000916,-0.0001744865876389667,-0.0001235241797985509,-0.009972333908081055,,,,,,,,,,,,,,,,,,,,
1778106173946760448,,,,,,,0.01815164834260941,1,-0.04599443450570107,1,0.03114116750657558,1,-0.0259160827845335,1,-0.0006394637166522443,1,0.001200074679218233,1,3,1,0.1806047111749649,1,0.04364299401640892,1,9.804889678955078,1
1778106173955563008,-0.01711713522672653,-0.01161682419478893,-0.9966328740119934,-0.0001674336235737428,-0.0001167380396509543,-0.009968898259103298,,,,,,,,,,,,,,,,,,,,
1778106173956838144,,,,,,,0.02478793263435364,1,-0.03681490570306778,1,0.03505953028798103,1,-0.02743715420365334,1,-0.0003206877736374736,1,0.000828964461106807,1,3,1,0.1806379556655884,1,0.04095616936683655,1,9.804901123046875,1
1778106173965623040,-0.017050975933671,-0.01064103282988071,-0.9965875148773193,-0.0001699201093288139,-9.657564078224823e-05,-0.009965736418962479,,,,,,,,,,,,,,,,,,,,
1778106173966895872,,,,,,,0.02656218037009239,1,-0.03303069248795509,1,0.04137908294796944,1,-0.02926146239042282,1,-0.0008066300069913268,1,0.0004315963014960289,1,3,1,0.1807205826044083,1,0.03812659904360771,1,9.804910659790039,1
1778106173975663104,-0.01655522920191288,-0.009535100311040878,-0.9966431260108948,-0.0001592450571479276,-8.37294792290777e-05,-0.009967363439500332,,,,,,,,,,,,,,,,,,,,
1778106173976933376,,,,,,,0.02603927813470364,1,-0.03427960723638535,1,0.0473688431084156,1,-0.02953069657087326,1,-0.0001759710721671581,1,0.0001585382269695401,1,3,1,0.180780291557312,1,0.03525503724813461,1,9.804920196533203,1
1778106173985682944,-0.01588431932032108,-0.008344344794750214,-0.9962446689605713,-0.0001513367460574955,-7.078680937411264e-05,-0.0099591463804245,,,,,,,,,,,,,,,,,,,,
1778106173986950912,,,,,,,0.02379029244184494,1,-0.03800529986619949,1,0.04520076885819435,1,-0.03092038631439209,1,0.000294547266094014,1,0.0002463507698848844,1,3,1,0.1807350516319275,1,0.03225507214665413,1,9.804931640625,1
1778106173995682816,-0.01570941507816315,-0.007691615261137486,-0.9956014752388,-0.0001553813781356439,-7.026740786386654e-05,-0.009949028491973877,,,,,,,,,,,,,,,,,,,,
1778106173996948736,,,,,,,0.02428526431322098,1,-0.03643672168254852,1,0.0405709333717823,1,-0.03114921972155571,1,-0.0007008888060227036,1,0.0008846313576214015,1,3,1,0.1808322817087173,1,0.02920630387961864,1,9.804939270019531,1
1778106174005662720,-0.01576999947428703,-0.007540528196841478,-0.9949917197227478,-0.0001586647413205355,-7.492085569538176e-05,-0.00994226336479187,,,,,,,,,,,,,,,,,,,,
1778106174006926592,,,,,,,0.02647671103477478,1,-0.03403821215033531,1,0.03508027642965317,1,-0.03175428882241249,1,-0.0008950637420639396,1,0.0006473594694398344,1,3,1,0.1809370517730713,1,0.02609753608703613,1,9.804945945739746,1
1778106174015622656,-0.01600217819213867,-0.007632099092006683,-0.9952138066291809,-0.0001623613352421671,-7.839811587473378e-05,-0.009954273700714111,,,,,,,,,,,,,,,,,,,,
1778106174016884480,,,,,,,0.02829566784203053,1,-0.02996530756354332,1,0.03016605041921139,1,-0.03255446627736092,1,-0.001070220256224275,1,0.001062832423485816,1,3,1,0.1810003966093063,1,0.02293223701417446,1,9.804952621459961,1
1778106174025563392,-0.01595554314553738,-0.007173754274845123,-0.995686948299408,-0.0001592176122358069,-6.830473284935579e-05,-0.009961693547666073,,,,,,,,,,,,,,,,,,,,
1778106174026822912,,,,,,,0.03048737533390522,1,-0.02699320763349533,1,0.0317099429666996,1,-0.0318412221968174,1,-0.001266919891349971,1,0.0006225464749149978,1,3,1,0.1811154186725616,1,0.01976661384105682,1,9.804957389831543,1
1778106174035484160,-0.01573872193694115,-0.006623562891036272,-0.9962477087974548,-0.0001543398684589192,-6.113530980655923e-05,-0.009969253093004227,,,,,,,,,,,,,,,,,,,,
1778106174036741632,,,,,,,0.03118273615837097,1,-0.02110646292567253,1,0.03725532814860344,1,-0.03154589608311653,1,-0.001297065988183022,1,0.0007841853075660765,1,3,1,0.1812544763088226,1,0.01666266657412052,1,9.804960250854492,1
1778106174045384960,-0.015559789724648,-0.005896120332181454,-0.9967496991157532,-0.0001536391646368429,-5.206208152230829e-05,-0.00997326523065567,,,,,,,,,,,,,,,,,,,,
1778106174046640384,,,,,,,0.03399236872792244,1,-0.01632950268685818,1,0.04155933484435081,1,-0.03223606944084167,1,-0.0009890060173347592,1,0.0010102215455845,1,3,1,0.1813702285289764,1,0.01347336266189814,1,9.804963111877441,1
1778106174055266048,-0.01534467004239559,-0.005274711176753044,-0.9965928792953491,-0.0001516840711701661,-4.732537490781397e-05,-0.009965028613805771,,,,,,,,,,,,,,,,,,,,
1778106174056707072,,,,,,,0.03692987188696861,1,-0.008167189545929432,1,0.04578783363103867,1,-0.03055502288043499,1,-0.001262304489500821,1,0.00182031374424696,1,3,1,0.1814750880002975,1,0.01049414183944464,1,9.804965019226074,1
1778106174065127936,-0.01528485305607319,-0.004356460645794868,-0.9960278868675232,-0.0001518126955488697,-3.448816642048769e-05,-0.009953727945685387,,,,,,,,,,,,,,,,,,,,
1778106174066940928,,,,,,,0.03665877878665924,1,0.0009776321239769459,1,0.0454697422683239,1,-0.02906450629234314,1,-0.0002554253442212939,1,0.0009799676481634378,1,3,1,0.1815119385719299,1,0.007609066553413868,1,9.804966926574707,1
1778106174074970112,-0.01501008681952953,-0.003549670102074742,-0.9955894351005554,-0.000147060098242946,-2.799427966237999e-05,-0.009950670413672924,,,,,,,,,,,,,,,,,,,,
1778106174077155072,,,,,,,0.03679364174604416,1,0.01178496517241001,1,0.04317694157361984,1,-0.02794185094535351,1,-0.000776760745793581,1,0.0008183721802197397,1,3,1,0.1815935969352722,1,0.004875277169048786,1,9.804966926574707,1
1778106174084792576,-0.01472143270075321,-0.002401452977210283,-0.9951585531234741,-0.0001434642763342708,-1.244021950697061e-05,-0.009946020320057869,,,,,,,,,,,,,,,,,,,,
1778106174087349248,,,,,,,0.03671232610940933,1,0.02286617644131184,1,0.03688812255859375,1,-0.02516979537904263,1,-0.001015877001918852,1,0.000152653839904815,1,3,1,0.1813906729221344,1,0.002780980663374066,1,9.804971694946289,1
1778106174094970624,-0.01475885417312384,-0.001160159124992788,-0.995191216468811,-0.0001483166124671698,1.438510480511468e-06,-0.009952178224921227,,,,,,,,,,,,,,,,,,,,
1778106174097523200,,,,,,,0.03668595105409622,1,0.03059477359056473,1,0.03488801047205925,1,-0.02154353447258472,1,-0.0006942239124327898,1,0.001217397628352046,1,3,1,0.1814192682504654,1,0.000614108401350677,1,9.804971694946289,1
1778106174105128704,-0.01475308742374182,0.0002391643065493554,-0.995425283908844,-0.0001470768911531195,1.686198083916679e-05,-0.009956363588571548,,,,,,,,,,,,,,,,,,,,
1778106174107676672,,,,,,,0.03528549522161484,1,0.03495956584811211,1,0.03953938558697701,1,-0.01851729489862919,1,-0.001754185766912997,1,0.0004903673543594778,1,3,1,0.1816105842590332,1,-0.001217867014929652,1,9.804967880249023,1
1778106174115266304,-0.01476059574633837,0.001639477559365332,-0.9960668087005615,-0.0001477428886573762,3.098294837400317e-05,-0.0099684689193964,,,,,,,,,,,,,,,,,,,,
1778106174117809920,,,,,,,0.03112834319472313,1,0.03520870581269264,1,0.04028350487351418,1,-0.01621946878731251,1,-0.0007725366740487516,1,0.0001563507248647511,1,3,1,0.1816902607679367,1,-0.002890212694182992,1,9.804965972900391,1
1778106174125384448,-0.01475993916392326,0.002675828989595175,-0.996271014213562,-0.0001475714234402403,3.799452315433882e-05,-0.009965131990611553,,,,,,,,,,,,,,,,,,,,
1778106174127923200,,,,,,,0.02836318872869015,1,0.03119299001991749,1,0.03491563349962234,1,-0.01306421868503094,1,-0.000179639711859636,1,9.780956315807998e-05,1,3,1,0.1817130744457245,1,-0.004280721303075552,1,9.804965019226074,1
1778106174135482112,-0.01490768417716026,0.003346733748912811,-0.9957966804504395,-0.0001499757636338472,4.106803316972218e-05,-0.00995357520878315,,,,,,,,,,,,,,,,,,,,
1778106174138016512,,,,,,,0.02864370681345463,1,0.02582380175590515,1,0.03474879264831543,1,-0.009935423731803894,1,8.551876089768484e-05,1,0.0001142291803262196,1,3,1,0.1817184239625931,1,-0.005311509594321251,1,9.804965019226074,1
1778106174145559808,-0.01533996034413576,0.003576678689569235,-0.9957206845283508,-0.0001591324689798057,3.777068195631728e-05,-0.009956485591828823,,,,,,,,,,,,,,,,,,,,
1778106174148089600,,,,,,,0.02819105982780457,1,0.02177577279508114,1,0.04029517993330956,1,-0.008194738999009132,1,-0.0003513498231768608,1,0.0003964133793488145,1,3,1,0.1817814409732819,1,-0.006128999870270491,1,9.804963111877441,1
1778106174155617280,-0.01562876999378204,0.003349121659994125,-0.9962679743766785,-0.0001589093590155244,2.99331295536831e-05,-0.009968047961592674,,,,,,,,,,,,,,,,,,,,
1778106174158142464,,,,,,,0.02602037042379379,1,0.02382482029497623,1,0.04315958172082901,1,-0.007396012078970671,1,-0.0002899414976127446,1,0.001170897274278104,1,3,1,0.1818369328975677,1,-0.006871480494737625,1,9.804961204528809,1
1778106174165655040,-0.01560451369732618,0.002953994087874889,-0.9962849617004395,-0.000155679474119097,2.426155697321519e-05,-0.009963621385395527,,,,,,,,,,,,,,,,,,,,
1778106174168175360,,,,,,,0.02570635825395584,1,0.02647724375128746,1,0.04509497806429863,1,-0.005505337379872799,1,-0.000481221970403567,1,0.0007156201172620058,1,3,1,0.1819102615118027,1,-0.007417229935526848,1,9.804960250854492,1
1778106174175672832,-0.01565499603748322,0.002665282692760229,-0.9957191348075867,-0.000157305839820765,2.24179766519228e-05,-0.009951217100024223,,,,,,,,,,,,,,,,,,,,
1778106174178188800,,,,,,,0.02382618561387062,1,0.02620423585176468,1,0.04700504243373871,1,-0.002704300452023745,1,-2.630412927828729e-05,1,0.0003399206325411797,1,3,1,0.1818723380565643,1,-0.007708642166107893,1,9.804960250854492,1
1778106174185670656,-0.01588164828717709,0.002977551426738501,-0.9954268336296082,-0.000160970987053588,3.281219323980622e-05,-0.009950769133865833,,,,,,,,,,,,,,,,,,,,
1778106174188182528,,,,,,,0.01944021321833134,1,0.01999947987496853,1,0.04486927390098572,1,-0.0007338067516684532,1,-0.0005597490817308426,1,-0.0002105992462020367,1,3,1,0.1819574236869812,1,-0.007819758728146553,1,9.804958343505859,1
1778106174195648512,-0.01591934822499752,0.003333325497806072,-0.9952293634414673,-0.0001599625538801774,3.723641930264421e-05,-0.009949658997356892,,,,,,,,,,,,,,,,,,,,
1778106174198156544,,,,,,,0.01706321910023689,1,0.008251572959125042,1,0.04673249647021294,1,-9.96363305603154e-05,1,0.0001267000188818201,1,-0.001172235002741218,1,3,1,0.181977242231369,1,-0.007821195758879185,1,9.804958343505859,1
1778106174205607168,-0.01611364632844925,0.003370555583387613,-0.9950345158576965,-0.0001627684250706807,3.390388519619592e-05,-0.009948062710464001,,,,,,,,,,,,,,,,,,,,
1778106174208110848,,,,,,,0.01371472049504519,1,-0.003940325696021318,1,0.04522509872913361,1,0.0002870926982723176,1,0.001054376480169594,1,-0.0006579910404980183,1,3,1,0.1818720251321793,1,-0.007784880232065916,1,9.804960250854492,1
1778106174215546112,-0.01656480692327023,0.002782055642455816,-0.995252251625061,-0.0001704092719592154,2.173392567783594e-05,-0.009955381974577904,,,,,,,,,,,,,,,,,,,,
1778106174218045440,,,,,,,0.01236241217702627,1,-0.01174458581954241,1,0.04068806394934654,1,0.002130114007741213,1,0.0006551380502060056,1,-0.0003243919927626848,1,3,1,0.1818020939826965,1,-0.007606540340930223,1,9.804962158203125,1
1778106174225465600,-0.01681164465844631,0.001609096303582191,-0.9950621128082275,-0.0001711903023533523,2.828048536684946e-06,-0.009947791695594788,,,,,,,,,,,,,,,,,,,,
1778106174227960320,,,,,,,0.01131541281938553,1,-0.01582943275570869,1,0.03499095886945724,1,0.001057283487170935,1,-0.0003264039114583284,1,-0.0002111408393830061,1,3,1,0.1818312704563141,1,-0.007478632498532534,1,9.804961204528809,1
1778106174235365376,-0.01715267077088356,0.0003784653672482818,-0.995215892791748,-0.0001754674012772739,-1.055285974871367e-05,-0.009953632950782776,,,,,,,,,,,,,,,,,,,,
1778106174237855488,,,,,,,0.009057746268808842,1,-0.01783687248826027,1,0.03592261672019958,1,0.001868256716988981,1,0.0009866280015558004,1,0.0004225527227390558,1,3,1,0.1817311197519302,1,-0.007292516995221376,1,9.804963111877441,1
1778106174245245440,-0.01728604920208454,-0.0004152930341660976,-0.9956786036491394,-0.0001746105845086277,-1.33608809846919e-05,-0.009962631389498711,,,,,,,,,,,,,,,,,,,,
1778106174247917568,,,,,,,0.01165526267141104,1,-0.01458958256989717,1,0.03621563315391541,1,0.00112572661601007,1,0.0003982103662565351,1,-0.0003524923522491008,1,3,1,0.1817337274551392,1,-0.007214079611003399,1,9.804963111877441,1
1778106174255105792,-0.01738991588354111,-0.0008390122675336897,-0.9962596297264099,-0.0001755516568664461,-1.357524342893157e-05,-0.009969540871679783,,,,,,,,,,,,,,,,,,,,
1778106174258145792,,,,,,,0.01030479557812214,1,-0.01007294654846191,1,0.03869990631937981,1,0.00228976528160274,1,-0.0001785272470442578,1,0.0001717675477266312,1,3,1,0.1817346066236496,1,-0.00700109452009201,1,9.804963111877441,1
1778106174264946688,-0.01761658862233162,-0.001054482883773744,-0.9961646795272827,-0.0001788419467629865,-1.339389109489275e-05,-0.009961278177797794,,,,,,,,,,,,,,,,,,,,
1778106174268353792,,,,,,,0.01162828598171473,1,-0.01030078064650297,1,0.04207367822527885,1,0.003115357831120491,1,-8.014685590751469e-06,1,-0.0005208356305956841,1,3,1,0.1817420572042465,1,-0.006697154603898525,1,9.804963111877441,1
1778106174274768128,-0.01734843291342258,-0.0007346603088080883,-0.996134877204895,-0.0001706517650745809,-4.102483671886148e-06,-0.009960159659385681,,,,,,,,,,,,,,,,,,,,
1778106174278541568,,,,,,,0.01192929875105619,1,-0.008931266143918037,1,0.04332918673753738,1,0.002919375663623214,1,0.0004385098873171955,1,2.233454870292917e-05,1,3,1,0.1816994547843933,1,-0.006435417104512453,1,9.804964065551758,1
1778106174284942592,-0.01748344674706459,-0.0002877289662137628,-0.9958816766738892,-0.0001764747576089576,2.287117013111128e-06,-0.009956629946827888,,,,,,,,,,,,,,,,,,,,
1778106174288708864,,,,,,,0.01466937363147736,1,-0.004786527715623379,1,0.0412588082253933,1,0.004706367384642363,1,-6.236855551833287e-05,1,7.888131949584931e-05,1,3,1,0.1814586520195007,1,-0.006146018858999014,1,9.80496883392334,1
1778106174295096832,-0.01734771393239498,-0.0003310845931991935,-0.9955376386642456,-0.0001723589521134272,-3.914736680599162e-06,-0.009951450861990452,,,,,,,,,,,,,,,,,,,,
1778106174298855680,,,,,,,0.01762844994664192,1,-0.0001921398215927184,1,0.04210441559553146,1,0.005328529048711061,1,-0.0004719009448308498,1,-0.0002730467822402716,1,3,1,0.1814987808465958,1,-0.005652973894029856,1,9.80496883392334,1
1778106174305230848,-0.01731550879776478,-0.0002150398067897186,-0.9954096078872681,-0.0001728207862470299,-5.896353059142712e-07,-0.009953145869076252,,,,,,,,,,,,,,,,,,,,
1778106174308983040,,,,,,,0.01922276616096497,1,0.004087819717824459,1,0.04215433821082115,1,0.006417877040803432,1,0.0006153766880743206,1,-0.000239306318690069,1,3,1,0.1814623922109604,1,-0.005076481960713863,1,9.804969787597656,1
1778106174315344896,-0.01702704653143883,0.000182911055162549,-0.9956207871437073,-0.0001673058868618682,7.193833880592138e-06,-0.009958974085748196,,,,,,,,,,,,,,,,,,,,
1778106174319089920,,,,,,,0.01959004625678062,1,0.006448249332606792,1,0.04376561939716339,1,0.008450130000710487,1,0.0005949837504886091,1,-0.0004216809757053852,1,3,1,0.1813973933458328,1,-0.004235194995999336,1,9.804971694946289,1
1778106174325438464,-0.01671745255589485,0.0006179589545354247,-0.9955347180366516,-0.0001629537000553682,1.119798253057525e-05,-0.009954694658517838,,,,,,,,,,,,,,,,,,,,
1778106174329177344,,,,,,,0.01872770674526691,1,0.006438904441893101,1,0.04439651221036911,1,0.009654729627072811,1,9.127455268753693e-05,1,-0.0001391730475006625,1,3,1,0.1813859045505524,1,-0.003337350906804204,1,9.804971694946289,1
1778106174335512576,-0.01655110530555248,0.001011406537145376,-0.9955298900604248,-0.0001630298065720126,1.52472994159325e-05,-0.009954936802387238,,,,,,,,,,,,,,,,,,,,
1778106174345566464,-0.01650846004486084,0.001193788950331509,-0.9953657388687134,-0.0001645062438910827,1.523644823464565e-05,-0.009952438995242119,,,,,,,,,,,,,,,,,,,,
1778106174355600384,-0.01659185253083706,0.001121144858188927,-0.9953014850616455,-0.0001673089864198118,1.110515040636528e-05,-0.009952746331691742,,,,,,,,,,,,,,,,,,,,
1778106174365614592,-0.01634975522756577,0.0009353247005492449,-0.9955411553382874,-0.0001604944263817742,8.483690180582926e-06,-0.009958394803106785,,,,,,,,,,,,,,,,,,,,
1778106174370374000,,,,,,,0.02107277512550354,1,0.005445464514195919,1,0.04204730316996574,1,0.01058651693165302,1,0.0003595849557314068,1,-0.0007551835151389241,1,3,1,0.1813595145940781,1,-0.002324958331882954,1,9.804972648620605,1
1778106174375609088,-0.0166636761277914,0.0004189582250546664,-0.9956100583076477,-0.000170193103258498,-1.289105966861825e-06,-0.009957039728760719,,,,,,,,,,,,,,,,,,,,
1778106174380359424,,,,,,,0.01795227639377117,1,0.001312009524554014,1,0.04137181490659714,1,0.01070149056613445,1,0.000433409441029653,1,-0.0008771392167545855,1,3,1,0.1812985986471176,1,-0.001268190681003034,1,9.804973602294922,1
1778106174385583872,-0.01678643189370632,-0.0006437296979129314,-0.9958348870277405,-0.0001694886013865471,-1.803945997380652e-05,-0.00996088981628418,,,,,,,,,,,,,,,,,,,,
1778106174390324736,,,,,,,0.01671984232962132,1,-0.008117054589092731,1,0.03916823491454124,1,0.01077948324382305,1,0.0003945259377360344,1,-0.0003760717809200287,1,3,1,0.1812906861305237,1,-0.0001957193744601682,1,9.804974555969238,1
1778106174395538688,-0.01669904962182045,-0.001824190840125084,-0.9958599805831909,-0.0001662951253820211,-3.055813067476265e-05,-0.00995935034006834,,,,,,,,,,,,,,,,,,,,
1778106174400270080,,,,,,,0.01752498559653759,1,-0.01866896636784077,1,0.03892315179109573,1,0.01076951436698437,1,0.0007698129047639668,1,-0.0005095208180136979,1,3,1,0.1811949610710144,1,0.0008640901651233435,1,9.804975509643555,1
1778106174405473536,-0.01687115244567394,-0.002831850899383426,-0.9959482550621033,-0.0001707742339931428,-3.929873491870239e-05,-0.009960903786122799,,,,,,,,,,,,,,,,,,,,
1778106174410195456,,,,,,,0.01578253321349621,1,-0.02749807760119438,1,0.03805846720933914,1,0.01124572195112705,1,0.0004681507125496864,1,-0.0001293789537157863,1,3,1,0.1811455637216568,1,0.001970006851479411,1,9.804976463317871,1
1778106174415388672,-0.01655163802206516,-0.003521181177347898,-0.9960318803787231,-0.0001621065166546032,-4.250626807333902e-05,-0.009960897266864777,,,,,,,,,,,,,,,,,,,,
1778106174420101120,,,,,,,0.01888202875852585,1,-0.03319708630442619,1,0.03723914921283722,1,0.01015991717576981,1,0.000461883784737438,1,0.0003941576578654349,1,3,1,0.1811382323503494,1,0.002996252151206136,1,9.804976463317871,1
1778106174425284096,-0.01604646258056164,-0.003586907405406237,-0.9963526129722595,-0.0001542725949548185,-3.650386861409061e-05,-0.009966949000954628,,,,,,,,,,,,,,,,,,,,
1778106174429987584,,,,,,,0.02380139753222466,1,-0.03284429013729095,1,0.03409415110945702,1,0.008912400342524052,1,0.0009164608782157302,1,0.000335843040375039,1,3,1,0.1810862571001053,1,0.003862318582832813,1,9.804977416992188,1
1778106174435160064,-0.01577327214181423,-0.003418067935854197,-0.9962056279182434,-0.0001548317814012989,-3.209402711945586e-05,-0.009961849078536034,,,,,,,,,,,,,,,,,,,,
1778106174439854080,,,,,,,0.02644453570246696,1,-0.03025897592306137,1,0.03553580492734909,1,0.008194671012461185,1,-0.0001440994383301586,1,0.0004182527191005647,1,3,1,0.1810928732156754,1,0.004688614048063755,1,9.804976463317871,1
1778106174445016320,-0.01549963373690844,-0.003221513703465462,-0.9957262873649597,-0.0001516269840067253,-2.986604340549093e-05,-0.009951121173799038,,,,,,,,,,,,,,,,,,,,
1778106174449701120,,,,,,,0.02911079116165638,1,-0.02746149152517319,1,0.04023651033639908,1,0.007525793742388487,1,-0.000404447695473209,1,-3.422056579438504e-06,1,3,1,0.1811037510633469,1,0.005463916808366776,1,9.804976463317871,1
1778106174454852864,-0.01531155407428741,-0.003171271644532681,-0.9953837394714355,-0.0001510985457571223,-3.038544309674762e-05,-0.009949984028935432,,,,,,,,,,,,,,,,,,,,
1778106174459528192,,,,,,,0.03096593171358109,1,-0.02614428848028183,1,0.04359524697065353,1,0.007568266242742538,1,-0.0007003817008808255,1,-0.0001658086112001911,1,3,1,0.1811640411615372,1,0.006239994894713163,1,9.804974555969238,1
1778106174464851968,-0.01538089662790298,-0.003204746870324016,-0.9953380823135376,-0.0001548804284539074,-3.227060369681567e-05,-0.00995258241891861,,,,,,,,,,,,,,,,,,,,
1778106174469518080,,,,,,,0.0302953515201807,1,-0.02567590773105621,1,0.04404206201434135,1,0.007825694046914577,1,0.0005834403564222157,1,-0.0008847767021507025,1,3,1,0.181117981672287,1,0.007014911621809006,1,9.804974555969238,1
1778106174475012608,-0.01532041374593973,-0.003206187859177589,-0.9953546524047852,-0.0001527709828224033,-3.167157410643995e-05,-0.009954145178198814,,,,,,,,,,,,,,,,,,,,
1778106174479669504,,,,,,,0.03088291920721531,1,-0.02489307895302773,1,0.04387901350855827,1,0.008446190506219864,1,0.0006854694802314043,1,-0.0003585158847272396,1,3,1,0.1810916662216187,1,0.007829791866242886,1,9.804974555969238,1
1778106174485153024,-0.01556368079036474,-0.003149382071569562,-0.9957780241966248,-0.0001589015882927924,-3.01924974337453e-05,-0.009962993673980236,,,,,,,,,,,,,,,,,,,,
1778106174489800704,,,,,,,0.02845718339085579,1,-0.02355022542178631,1,0.03972804546356201,1,0.006880946923047304,1,0.0007623363053426147,1,0.0001274335372727364,1,3,1,0.181006595492363,1,0.008536824025213718,1,9.804975509643555,1
1778106174495273728,-0.01551886927336454,-0.002928768983110785,-0.9958634376525879,-0.0001546642743051052,-2.695996954571456e-05,-0.009960303083062172,,,,,,,,,,,,,,,,,,,,
1778106174499912192,,,,,,,0.02884751558303833,1,-0.02064204029738903,1,0.03889122605323792,1,0.007423542439937592,1,0.0001467699330532923,1,0.0001030922430800274,1,3,1,0.1809714585542679,1,0.00925920158624649,1,9.804975509643555,1
1778106174505374208,-0.01543089933693409,-0.002167991129681468,-0.9965102672576904,-0.0001533857430331409,-1.309923482040176e-05,-0.009972739964723587,,,,,,,,,,,,,,,,,,,,
1778106174510003200,,,,,,,0.02966868318617344,1,-0.01241438090801239,1,0.03254789486527443,1,0.00856385100632906,1,-1.435066224075854e-06,1,0.0001687342009972781,1,3,1,0.1809442192316055,1,0.01010130904614925,1,9.804975509643555,1
1778106174515454464,-0.01519366074353456,-0.001506242901086807,-0.9964490532875061,-0.0001498512137914076,-6.642500466114143e-06,-0.00996427983045578,,,,,,,,,,,,,,,,,,,,
1778106174520074240,,,,,,,0.03188274800777435,1,-0.005051031243056059,1,0.03314941376447678,1,0.009370430372655392,1,-0.0001728439528960735,1,-0.0002222327893832698,1,3,1,0.1806549280881882,1,0.01119244657456875,1,9.80497932434082,1
1778106174525514496,-0.01514957379549742,-0.001248939079232514,-0.9960376620292664,-0.0001506072439951822,-8.985725798993371e-06,-0.009956430643796921,,,,,,,,,,,,,,,,,,,,
1778106174530125056,,,,,,,0.03221985697746277,1,-0.001600480522029102,1,0.03718382120132446,1,0.009942843578755856,1,2.139281423296779e-05,1,-4.606218863045797e-05,1,3,1,0.1806696206331253,1,0.01214276906102896,1,9.804978370666504,1
1778106174535554560,-0.01499700453132391,-0.001580015639774501,-0.9956328272819519,-0.0001479896891396493,-1.89816601050552e-05,-0.009951489977538586,,,,,,,,,,,,,,,,,,,,
1778106174540155904,,,,,,,0.03364310041069984,1,-0.003906314726918936,1,0.04115485772490501,1,0.009661453776061535,1,0.0004554491897579283,1,-0.000591869349591434,1,3,1,0.1806078404188156,1,0.01309187896549702,1,9.804978370666504,1
1778106174545574912,-0.01506965514272451,-0.002386548556387424,-0.9954131245613098,-0.0001512534217908978,-3.248255234211683e-05,-0.00995242316275835,,,,,,,,,,,,,,,,,,,,
1778106174550167040,,,,,,,0.03288235887885094,1,-0.0108839264139533,1,0.04330901801586151,1,0.009490111842751503,1,0.0001734155812300742,1,-0.00114844273775816,1,3,1,0.1806028485298157,1,0.01400644704699516,1,9.804976463317871,1
1778106174555575296,-0.01502597890794277,-0.003166904905810952,-0.9953367114067078,-0.0001504993415437639,-4.066654946655035e-05,-0.00995207391679287,,,,,,,,,,,,,,,,,,,,
1778106174560158208,,,,,,,0.03326072543859482,1,-0.01760027185082436,1,0.04405783861875534,1,0.009445010684430599,1,0.000732330372557044,1,8.365460234927014e-05,1,3,1,0.1805242747068405,1,0.01494199223816395,1,9.804976463317871,1
1778106174565555712,-0.01486657559871674,-0.003702847985550761,-0.9957738518714905,-0.0001473164593335241,-4.267311669536866e-05,-0.009962452575564384,,,,,,,,,,,,,,,,,,,,
1778106174570129408,,,,,,,0.03475706279277802,1,-0.02193267270922661,1,0.03977111354470253,1,0.009932656772434711,1,0.0009407609468325973,1,0.0001082976450561546,1,3,1,0.1804334074258804,1,0.01587148569524288,1,9.804977416992188,1
1778106174575516160,-0.01486508268862963,-0.003566375933587551,-0.9963429570198059,-0.0001488949783379212,-3.449877112871036e-05,-0.009969288483262062,,,,,,,,,,,,,,,,,,,,
1778106174580080640,,,,,,,0.03472075238823891,1,-0.01965349540114403,1,0.03418932482600212,1,0.01071587484329939,1,-0.000583422661293298,1,0.0005795475444756448,1,3,1,0.1804639995098114,1,0.01686404645442963,1,9.804974555969238,1
1778106174585457152,-0.01480637118220329,-0.003135608276352286,-0.996537983417511,-0.000146823440445587,-2.559731001383625e-05,-0.00996793806552887,,,,,,,,,,,,,,,,,,,,
1778106174590012672,,,,,,,0.03529167547821999,1,-0.01444348692893982,1,0.03227487578988075,1,0.0106890294700861,1,0.0002516319800633937,1,0.0002293000870849937,1,3,1,0.1804750263690948,1,0.01789998635649681,1,9.804972648620605,1
1778106174595378432,-0.01490348950028419,-0.002967483829706907,-0.9962551593780518,-0.0001502833911217749,-2.708837382670026e-05,-0.009960176423192024,,,,,,,,,,,,,,,,,,,,
1778106174599924736,,,,,,,0.03433322906494141,1,-0.01180347893387079,1,0.03504667058587074,1,0.01018565706908703,1,-0.0005441038520075381,1,0.0006481185555458069,1,3,1,0.1805043369531631,1,0.01887611113488674,1,9.804970741271973,1
1778106174605279744,-0.01518009416759014,-0.003101914655417204,-0.9954143762588501,-0.0001540925295557827,-3.141898196190596e-05,-0.009944797493517399,,,,,,,,,,,,,,,,,,,,
1778106174609817088,,,,,,,0.03163439035415649,1,-0.01212776731699705,1,0.04329024627804756,1,0.01051481813192368,1,-0.0001296040863962844,1,0.0003307213191874325,1,3,1,0.1805179268121719,1,0.0198880061507225,1,9.804967880249023,1
1778106174615161344,-0.01543415710330009,-0.00353055284358561,-0.9950234293937683,-0.0001564583071740344,-3.969824319938198e-05,-0.00994562916457653,,,,,,,,,,,,,,,,,,,,
1778106174619689728,,,,,,,0.02914005145430565,1,-0.01529539749026299,1,0.04712157696485519,1,0.01097140926867723,1,-4.58792201243341e-05,1,-0.001006911159493029,1,3,1,0.1804937422275543,1,0.0209983978420496,1,9.804965972900391,1
1778106174625023232,-0.0161092784255743,-0.003902872558683157,-0.9949699640274048,-0.0001690138306003064,-4.274564344086684e-05,-0.009948015213012695,,,,,,,,,,,,,,,,,,,,
1778106174629542656,,,,,,,0.02251346968114376,1,-0.01786901988089085,1,0.04764359071850777,1,0.01175816543400288,1,-0.0001072445884346962,1,-0.0007837636512704194,1,3,1,0.1804876327514648,1,0.0221534576267004,1,9.804964065551758,1
1778106174634865664,-0.01655859686434269,-0.004514049272984266,-0.9951621890068054,-0.0001706289913272485,-5.217706711846404e-05,-0.009953458793461323,,,,,,,,,,,,,,,,,,,,
1778106174639376384,,,,,,,0.01807383447885513,1,-0.0227387323975563,1,0.04575730115175247,1,0.0122940307483077,1,0.0008662003674544394,1,-0.0004336085694376379,1,3,1,0.1803801357746124,1,0.02335236966609955,1,9.804963111877441,1
1778106174644688640,-0.01720219478011131,-0.004834738560020924,-0.9960325956344604,-0.000179537499207072,-5.17778389621526e-05,-0.009969769045710564,,,,,,,,,,,,,,,,,,,,
1778106174649377536,,,,,,,0.01170000433921814,1,-0.02474472485482693,1,0.03722075745463371,1,0.0115717900916934,1,0.000625885499175638,1,-0.0008751277346163988,1,3,1,0.1802997142076492,1,0.02447818405926228,1,9.804962158203125,1
1778106174654866688,-0.01752752624452114,-0.00477679306641221,-0.99684739112854,-0.0001789162342902273,-4.604618879966438e-05,-0.009977240115404129,,,,,,,,,,,,,,,,,,,,
1778106174659545856,,,,,,,0.00843783188611269,1,-0.0230440516024828,1,0.0292288213968277,1,0.01109726447612047,1,0.0002061964478343725,1,-0.0001027574253384955,1,3,1,0.1802306175231934,1,0.02558733895421028,1,9.804960250854492,1
1778106174665024768,-0.01755446940660477,-0.004688919521868229,-0.9973298311233521,-0.0001760488812578842,-4.47833735961467e-05,-0.009979501366615295,,,,,,,,,,,,,,,,,,,,
1778106174669694720,,,,,,,0.00812919344753027,1,-0.02105693332850933,1,0.02449571527540684,1,0.01136438269168139,1,-0.0003459896252024919,1,-0.0002351801813347265,1,3,1,0.1802386492490768,1,0.02671580761671066,1,9.804957389831543,1
1778106174675162368,-0.01748102903366089,-0.004448164720088243,-0.9969749450683594,-0.0001748482027323917,-4.136358620598912e-05,-0.009965498931705952,,,,,,,,,,,,,,,,,,,,
1778106174679823104,,,,,,,0.008837250992655754,1,-0.01758592575788498,1,0.02797337062656879,1,0.01160885207355022,1,-0.0002382124657742679,1,-0.0001596709043951705,1,3,1,0.1802638173103333,1,0.02781278826296329,1,9.804953575134277,1
1778106174685280256,-0.0171759482473135,-0.004516749642789364,-0.9962508082389832,-0.0001679384731687605,-4.52395725005772e-05,-0.009955150075256824,,,,,,,,,,,,,,,,,,,,
1778106174689931776,,,,,,,0.01184040866792202,1,-0.01714491099119186,1,0.03507068380713463,1,0.01068445853888988,1,-0.0004659438563976437,1,-4.076898039784282e-05,1,3,1,0.1803133636713028,1,0.02888906933367252,1,9.804949760437012,1
1778106174695377920,-0.0166508574038744,-0.004470957443118095,-0.9954848289489746,-0.0001607281592441723,-4.369726229924709e-05,-0.009945613332092762,,,,,,,,,,,,,,,,,,,,
1778106174700020224,,,,,,,0.01701042242348194,1,-0.01562171708792448,1,0.0425792932510376,1,0.0109720379114151,1,0.0002417853393126279,1,0.0003245800617150962,1,3,1,0.1803122460842133,1,0.02993419952690601,1,9.804946899414062,1
1778106174705455616,-0.01646941713988781,-0.004827058874070644,-0.9950608611106873,-0.0001627561869099736,-5.152500307303853e-05,-0.009945070371031761,,,,,,,,,,,,,,,,,,,,
1778106174710088704,,,,,,,0.01879060454666615,1,-0.01803243160247803,1,0.04673422873020172,1,0.011371492408216,1,0.0002016654761973768,1,0.0004713095840997994,1,3,1,0.1802934408187866,1,0.03103706054389477,1,9.804943084716797,1
1778106174715513088,-0.01656891033053398,-0.005131025798618793,-0.9948140382766724,-0.000166719444678165,-5.367413905332796e-05,-0.009945234283804893,,,,,,,,,,,,,,,,,,,,
1778106174720136960,,,,,,,0.01770071685314178,1,-0.01986781321465969,1,0.04915348067879677,1,0.0111397709697485,1,0.000919605721719563,1,0.0003823388542514294,1,3,1,0.1799143403768539,1,0.03231120109558105,1,9.804945945739746,1
1778106174725551104,-0.01649303548038006,-0.005786196328699589,-0.9953767061233521,-0.0001645123120397329,-6.533752457471564e-05,-0.00995927769690752,,,,,,,,,,,,,,,,,,,,
1778106174730165760,,,,,,,0.01828381419181824,1,-0.02519702538847923,1,0.0436360277235508,1,0.009220052510499954,1,0.00120046897791326,1,0.0003122157359030098,1,3,1,0.1797843426465988,1,0.03320734575390816,1,9.804945945739746,1
1778106174735569408,-0.0166135486215353,-0.006666796747595072,-0.9958814382553101,-0.0001668842451181263,-7.572332833660766e-05,-0.009964689612388611,,,,,,,,,,,,,,,,,,,,
1778106174740174848,,,,,,,0.01696014776825905,1,-0.03283661976456642,1,0.03868598863482475,1,0.008478843607008457,1,0.001301710377447307,1,0.000197295579710044,1,3,1,0.1796641647815704,1,0.03405903279781342,1,9.80494499206543,1
1778106174745567744,-0.01684745587408543,-0.007617100141942501,-0.9961742162704468,-0.0001714351819828153,-8.64950634422712e-05,-0.009965542703866959,,,,,,,,,,,,,,,,,,,,
1778106174750163968,,,,,,,0.01455186866223812,1,-0.04123231396079063,1,0.03581366315484047,1,0.008384687826037407,1,0.0006658333586528897,1,0.0002059249090962112,1,3,1,0.1796103417873383,1,0.03489569202065468,1,9.804943084716797,1
1778106174755546112,-0.01691216789186001,-0.008658739738166332,-0.9966009855270386,-0.0001697141124168411,-9.871076326817274e-05,-0.009970598854124546,,,,,,,,,,,,,,,,,,,,
1778106174760133120,,,,,,,0.01382221840322018,1,-0.05061790347099304,1,0.03162699192762375,1,0.00644705630838871,1,0.0005947980098426342,1,0.000330166716594249,1,3,1,0.1795413345098495,1,0.03552743047475815,1,9.80494213104248,1
1778106174765505024,-0.01666741073131561,-0.009114994667470455,-0.9967437982559204,-0.0001640135451452807,-9.73604473983869e-05,-0.009968988597393036,,,,,,,,,,,,,,,,,,,,
1778106174770082816,,,,,,,0.01615473069250584,1,-0.05441376194357872,1,0.03022508695721626,1,0.0037146529648453,1,-0.0003946340875700116,1,0.0002139891148544848,1,3,1,0.1795433163642883,1,0.03591937199234962,1,9.804940223693848,1
1778106174775443968,-0.01619883067905903,-0.008712724782526493,-0.9967100620269775,-0.0001565441198181361,-8.290767436847091e-05,-0.009967234916985035,,,,,,,,,,,,,,,,,,,,
1778106174780012544,,,,,,,0.02072964236140251,1,-0.04996843636035919,1,0.03055443055927753,1,0.002008282113820314,1,0.0004086511908099055,1,0.001374740269966424,1,3,1,0.1795422732830048,1,0.03614245355129242,1,9.804939270019531,1
1778106174785363200,-0.01553711853921413,-0.007978284731507301,-0.9966982007026672,-0.0001474651071475819,-7.221654232125729e-05,-0.009966926649212837,,,,,,,,,,,,,,,,,,,,
1778106174789922560,,,,,,,0.02718906849622726,1,-0.04244188964366913,1,0.03067051619291306,1,0.000240690860664472,1,-0.0001485772372689098,1,0.002289004623889923,1,3,1,0.1795286238193512,1,0.03618554025888443,1,9.804940223693848,1
1778106174795262976,-0.01496818289160728,-0.006983749568462372,-0.9959648847579956,-0.0001428335381206125,-5.869815504411235e-05,-0.009951289743185043,,,,,,,,,,,,,,,,,,,,
1778106174799813120,,,,,,,0.03275122493505478,1,-0.03253095224499702,1,0.037861417979002,1,-0.0005386442062444985,1,0.0006661005900241435,1,0.002528949407860637,1,3,1,0.1794933378696442,1,0.03611830621957779,1,9.804940223693848,1
1778106174805142784,-0.01480986457318068,-0.006065848749130964,-0.9952903985977173,-0.000146070946357213,-4.999495649826713e-05,-0.009944850578904152,,,,,,,,,,,,,,,,,,,,
1778106174809683968,,,,,,,0.03427602350711823,1,-0.02349554561078548,1,0.04447553306818008,1,-0.001471505034714937,1,0.0002531851932872087,1,0.001860795891843736,1,3,1,0.1794716864824295,1,0.03597003221511841,1,9.804941177368164,1
1778106174815003136,-0.01472806092351675,-0.005535812582820654,-0.9951422810554504,-0.00014615009422414,-4.916478064842522e-05,-0.009949197992682457,,,,,,,,,,,,,,,,,,,,
1778106174819535104,,,,,,,0.0350421629846096,1,-0.01835546083748341,1,0.04592889547348022,1,-0.001603535260073841,1,0.0004074829630553722,1,0.002258633961901069,1,3,1,0.1794166713953018,1,0.03580038249492645,1,9.804943084716797,1
1778106174824844032,-0.01478486508131027,-0.004826479125767946,-0.9954861402511597,-0.0001484161330154166,-4.047521360917017e-05,-0.009958462789654732,,,,,,,,,,,,,,,,,,,,
1778106174829367040,,,,,,,0.03444646298885345,1,-0.0115067595615983,1,0.04255829378962517,1,-0.001154863042756915,1,0.0008187979110516608,1,0.001824920298531651,1,3,1,0.1793593019247055,1,0.03564991056919098,1,9.80494499206543,1
1778106174834665472,-0.01471468806266785,-0.004467694088816643,-0.9962201118469238,-0.0001460693165427074,-4.036553582409397e-05,-0.009970546700060368,,,,,,,,,,,,,,,,,,,,
1778106174839366400,,,,,,,0.03511513024568558,1,-0.008075587451457977,1,0.0353613942861557,1,0.0001665302261244506,1,-0.0001257283438462764,1,0.001959761139005423,1,3,1,0.1794055700302124,1,0.03563962876796722,1,9.804944038391113,1
1778106174844841472,-0.0145957563072443,-0.004121401812881231,-0.9966323375701904,-0.0001454031589673832,-3.690097582875751e-05,-0.009972551837563515,,,,,,,,,,,,,,,,,,,,
1778106174849532672,,,,,,,0.03628905490040779,1,-0.004692335613071918,1,0.0313187837600708,1,0.001384844770655036,1,-0.0003513626870699227,1,0.002705892780795693,1,3,1,0.1794527918100357,1,0.03576487675309181,1,9.804943084716797,1
1778106174854996992,-0.01485417038202286,-0.004052492789924145,-0.9968371391296387,-0.0001517304190201685,-3.908618236891925e-05,-0.009970118291676044,,,,,,,,,,,,,,,,,,,,
1778106174859678720,,,,,,,0.03374159708619118,1,-0.003983782138675451,1,0.0293108019977808,1,0.0008107271860353649,1,0.0002915749792009592,1,0.001815357245504856,1,3,1,0.1793806552886963,1,0.03582450374960899,1,9.804944038391113,1
1778106174865132032,-0.01472507230937481,-0.004751025233417749,-0.9966133236885071,-0.0001456970785511658,-5.492334457812831e-05,-0.009963398799300194,,,,,,,,,,,,,,,,,,,,
1778106174869804544,,,,,,,0.03499651700258255,1,-0.01075824908912182,1,0.03150516003370285,1,0.001629430917091668,1,0.0003301190154161304,1,0.001854613306932151,1,3,1,0.1793754249811172,1,0.03599010407924652,1,9.804943084716797,1
1778106174875247104,-0.01491119898855686,-0.005828925874084234,-0.9958997368812561,-0.0001507333508925512,-7.091761654010043e-05,-0.009953124448657036,,,,,,,,,,,,,,,,,,,,
1778106174879910400,,,,,,,0.03316002711653709,1,-0.02122792974114418,1,0.03850255906581879,1,0.001733579207211733,1,-0.0007507461123168468,1,0.001540684257633984,1,3,1,0.1794112622737885,1,0.03612221777439117,1,9.80494213104248,1
1778106174885342208,-0.01572523824870586,-0.007438898552209139,-0.9942448735237122,-0.0001667031901888549,-9.279628284275532e-05,-0.00992236752063036,,,,,,,,,,,,,,,,,,,,
1778106174889996288,,,,,,,0.02519736625254154,1,-0.036888238042593,1,0.05472923070192337,1,0.0008918857201933861,1,0.0001890479034045711,1,0.001832599984481931,1,3,1,0.1794263124465942,1,0.03624740615487099,1,9.804941177368164,1
1778106174895417344,-0.01594322361052036,-0.0081667210906744,-0.9943190813064575,-0.0001633861102163792,-9.196001337841153e-05,-0.009943148121237755,,,,,,,,,,,,,,,,,,,,
1778106174900061952,,,,,,,0.02301741763949394,1,-0.04395226761698723,1,0.05400215461850166,1,-0.001291035441681743,1,0.001393769518472254,1,0.001864051795564592,1,3,1,0.1792594939470291,1,0.03616419807076454,1,9.80494499206543,1
1778106174905472256,-0.01602706871926785,-0.008083636872470379,-0.9960729479789734,-0.0001607689046068117,-8.045387949096039e-05,-0.009980181232094765,,,,,,,,,,,,,,,,,,,,
1778106174910107392,,,,,,,0.02215380035340786,1,-0.04318250343203545,1,0.03680457174777985,1,-0.002220039954409003,1,0.0001491115835960954,1,0.0008470633765682578,1,3,1,0.1792763769626617,1,0.03595056012272835,1,9.80494499206543,1
1778106174915507456,-0.01626885309815407,-0.007927349768579006,-0.9965731501579285,-0.000165202101925388,-7.790575182298198e-05,-0.009973124600946903,,,,,,,,,,,,,,,,,,,,
1778106174920133376,,,,,,,0.01967253163456917,1,-0.04163682088255882,1,0.03190106898546219,1,-0.0007832133560441434,1,-0.0008882637484930456,1,3.990272671217099e-05,1,3,1,0.1790076941251755,1,0.03621454909443855,1,9.804948806762695,1
1778106174925523200,-0.01628642342984676,-0.007896711118519306,-0.9960659146308899,-0.0001645880984142423,-7.864195504225791e-05,-0.009957427158951759,,,,,,,,,,,,,,,,,,,,
1778106174930140416,,,,,,,0.01941362582147121,1,-0.04130614921450615,1,0.03687655180692673,1,-0.001255879062227905,1,-0.0005951180937699974,1,-0.0003230852598790079,1,3,1,0.1790424436330795,1,0.03611952438950539,1,9.804948806762695,1
1778106174935520512,-0.01608195155858994,-0.008431174792349339,-0.9961140155792236,-0.0001591438194736838,-9.157814201898873e-05,-0.009960741735994816,,,,,,,,,,,,,,,,,,,,
1778106174940128512,,,,,,,0.02140237763524055,1,-0.04668707400560379,1,0.03640521690249443,1,-0.006373038981109858,1,-0.0005164511385373771,1,-0.0004582960973493755,1,3,1,0.1791147291660309,1,0.03556199371814728,1,9.804949760437012,1
1778106174945497856,-0.01623503677546978,-0.008859923109412193,-0.9958287477493286,-0.000164824232342653,-9.583891369402409e-05,-0.009954879060387611,,,,,,,,,,,,,,,,,,,,
1778106174950096640,,,,,,,0.01990926824510098,1,-0.05125853046774864,1,0.03920403495430946,1,-0.006365791894495487,1,0.0009413952939212322,1,-0.0004653606738429517,1,3,1,0.1790906935930252,1,0.0349394902586937,1,9.804952621459961,1
1778106174955455232,-0.01598156802356243,-0.009449552744626999,-0.9954720139503479,-0.0001579379750182852,-0.0001027857870212756,-0.009951505810022354,,,,,,,,,,,,,,,,,,,,
1778106174960044800,,,,,,,0.02234972454607487,1,-0.05747790262103081,1,0.04270501807332039,1,-0.004769173916429281,1,0.0006995275616645813,1,-0.0003102367627434433,1,3,1,0.1789932399988174,1,0.0344894602894783,1,9.80495548248291,1
1778106174965392640,-0.01590774767100811,-0.009399634785950184,-0.9962493181228638,-0.0001557767100166529,-9.652096196077764e-05,-0.009969662874937057,,,,,,,,,,,,,,,,,,,,
1778106174969972992,,,,,,,0.02306878566741943,1,-0.05749286338686943,1,0.03508467599749565,1,-0.008628250099718571,1,-0.0005440940149128437,1,-0.0005209951777942479,1,3,1,0.1790954619646072,1,0.03373131528496742,1,9.804956436157227,1
1778106174975310336,-0.0158965066075325,-0.007035982795059681,-0.9955480098724365,-0.0001564866834087297,-4.546304262476042e-05,-0.009947937913239002,,,,,,,,,,,,,,,,,,,,
1778106174979881728,,,,,,,0.02319318428635597,1,-0.03496446087956429,1,0.04196428507566452,1,-0.007169227115809917,1,0.0001806648506317288,1,0.0006941808387637138,1,3,1,0.1790966987609863,1,0.03298062458634377,1,9.804959297180176,1
1778106174985208576,-0.01571094989776611,-0.002662557410076261,-0.9960137009620667,-0.0001528416469227523,2.326372487004846e-05,-0.009966871701180935,,,,,,,,,,,,,,,,,,,,
1778106174989770752,,,,,,,0.02497141063213348,1,0.007338324096053839,1,0.03740017861127853,1,-0.002519090194255114,1,0.0008250519167631865,1,-4.237936809659004e-05,1,3,1,0.1789585053920746,1,0.03266902640461922,1,9.804962158203125,1
1778106174995086848,-0.01609569974243641,0.002469461411237717,-0.9957293272018433,-0.0001655277155805379,8.229040395235643e-05,-0.009952320717275143,,,,,,,,,,,,,,,,,,,,
1778106174999640064,,,,,,,0.02114828862249851,1,0.05729618668556213,1,0.04019113257527351,1,0.001300817355513573,1,0.001693097874522209,1,0.001110482960939407,1,3,1,0.1788678616285324,1,0.03269729018211365,1,9.804964065551758,1
1778106175004945664,-0.01546245999634266,0.007938732393085957,-0.9957494139671326,-0.0001468742993893102,0.0001431900891475379,-0.009956896305084229,,,,,,,,,,,,,,,,,,,,
1778106175009489664,,,,,,,0.02726294286549091,1,0.1108851209282875,1,0.03999590128660202,1,0.007378541398793459,1,0.0001934459432959557,1,0.0001456673780921847,1,3,1,0.178777351975441,1,0.03328216820955276,1,9.804964065551758,1
1778106175014784512,-0.01465315371751785,0.01073600072413683,-0.9958170652389526,-0.0001380675821565092,0.0001397068263031542,-0.009963841177523136,,,,,,,,,,,,,,,,,,,,
1778106175019319552,,,,,,,0.0351579375565052,1,0.1388296633958817,1,0.03933129832148552,1,0.01669941656291485,1,-0.001224251696839929,1,-0.002555281156674027,1,3,1,0.1788522750139236,1,0.03483808413147926,1,9.804957389831543,1
1778106175024786688,-0.02152767404913902,0.01764144748449326,-0.9907556176185608,-0.0002854243793990463,0.0002802615636028349,-0.009823838248848915,,,,,,,,,,,,,,,,,,,,
1778106175029312512,,,,,,,-0.0320967510342598,1,0.2080842554569244,1,0.08895831555128098,1,0.04103793576359749,1,0.005618127062916756,1,-0.001398112857714295,1,3,1,0.1789993345737457,1,0.03861024230718613,1,9.804940223693848,1
1778106175034950912,-0.02456928975880146,0.02559634298086166,-0.9826468229293823,-0.0002703900099731982,0.0003817319520749152,-0.009719849564135075,,,,,,,,,,,,,,,,,,,,
1778106175039467520,,,,,,,-0.06231410428881645,1,0.2894198000431061,1,0.1684725135564804,1,0.0621749646961689,1,0.01396187301725149,1,0.001621604664251208,1,3,1,0.1776181161403656,1,0.04491189867258072,1,9.804938316345215,1
1778106175045095168,-0.02209209837019444,0.02581319026648998,-1.000608801841736,-0.0001628379977773875,0.0003018361167050898,-0.01023065578192472,,,,,,,,,,,,,,,,,,,,
1778106175049603072,,,,,,,-0.03869868069887161,1,0.2961962521076202,1,-0.007681841962039471,1,0.07170148938894272,1,-0.006099535617977381,1,-0.006097489967942238,1,3,1,0.1774690598249435,1,0.0514805018901825,1,9.804908752441406,1
1778106175055219456,-0.02178093418478966,0.02303086593747139,-0.9936335682868958,-0.0002101883146679029,0.0002609757357276976,-0.009885829873383045,,,,,,,,,,,,,,,,,,,,
1778106175059718144,,,,,,,-0.03596196323633194,1,0.275209903717041,1,0.06069497019052505,1,0.1058592423796654,1,-0.00713268993422389,1,-0.007219616323709488,1,3,1,0.1775359511375427,1,0.06119536980986595,1,9.804851531982422,1
1778106175065323264,-0.01956702768802643,0.01142256520688534,-1.004179835319519,-0.000174590852111578,-1.375416286464315e-05,-0.0101547809317708,,,,,,,,,,,,,,,,,,,,
1778106175069812992,,,,,,,-0.01429148018360138,1,0.1692814826965332,1,-0.04277219623327255,1,0.09936753660440445,1,-0.003428563242778182,1,-0.01669491641223431,1,3,1,0.1776766330003738,1,0.0705859437584877,1,9.804786682128906,1
1778106175075407104,-0.01992667093873024,-0.0126116406172514,-0.9937246441841125,-0.000212872022530064,-0.0004259288252796978,-0.009808789007365704,,,,,,,,,,,,,,,,,,,,
1778106175079887872,,,,,,,-0.01777132600545883,1,-0.05798390507698059,1,0.05970261618494987,1,0.07317914068698883,1,0.008565905503928661,1,-0.006772102322429419,1,3,1,0.1773162931203842,1,0.07851922512054443,1,9.804732322692871,1
1778106175085470976,-0.01459298189729452,-0.02796073257923126,-0.999546229839325,-9.279704681830481e-05,-0.0004545728152152151,-0.01006102003157139,,,,,,,,,,,,,,,,,,,,
1778106175089943040,,,,,,,0.03418056294322014,1,-0.2007139474153519,1,0.002562952693551779,1,0.07263700664043427,1,0.003153122495859861,1,-0.008825182914733887,1,3,1,0.176739364862442,1,0.08561594784259796,1,9.804683685302734,1
1778106175095514880,-0.01533178985118866,-0.03502773493528366,-0.9974981546401978,-0.0001618735550437123,-0.0004465566016733646,-0.009975829161703587,,,,,,,,,,,,,,,,,,,,
1778106175099977984,,,,,,,0.0267872978001833,1,-0.2626127004623413,1,0.02259252406656742,1,0.06797177344560623,1,-0.002851481549441814,1,0.002083154395222664,1,3,1,0.1770834922790527,1,0.09234917908906937,1,9.80461597442627,1
1778106175105538816,-0.01888134516775608,-0.03272689506411552,-0.9879125952720642,-0.0002292447898071259,-0.000316440244205296,-0.009751486591994762,,,,,,,,,,,,,,,,,,,,
1778106175109992960,,,,,,,-0.008039658889174461,1,-0.2334380149841309,1,0.1165382787585258,1,0.04309526830911636,1,0.004073380026966333,1,0.009730339050292969,1,3,1,0.1769367605447769,1,0.09698570519685745,1,9.804574012756348,1
1778106175115542528,-0.01835797727108002,-0.01945966295897961,-0.9881884455680847,-0.0001816337316995487,-3.036434281966649e-05,-0.009901886805891991,,,,,,,,,,,,,,,,,,,,
1778106175119987968,,,,,,,-0.003324702614918351,1,-0.09799720346927643,1,0.1137930378317833,1,0.04126230254769325,1,0.007405109237879515,1,0.01258676126599312,1,3,1,0.1758773922920227,1,0.1007454097270966,1,9.80455493927002,1
1778106175125527296,-0.017295828089118,-0.01011534966528416,-0.9998589754104614,-0.0001715465914458036,-3.471984655334381e-07,-0.01011963188648224,,,,,,,,,,,,,,,,,,,,
1778106175129964032,,,,,,,0.006540763657540083,1,-0.00206009903922677,1,-0.0006847819313406944,1,0.0282618310302496,1,0.006745199207216501,1,0.002596942707896233,1,3,1,0.1752256602048874,1,0.1033022329211235,1,9.804540634155273,1
1778106175135492096,-0.01496945321559906,-0.01545592583715916,-1.004781484603882,-0.0001243265433004126,-0.000211719234357588,-0.01010350417345762,,,,,,,,,,,,,,,,,,,,
1778106175139920128,,,,,,,0.02899661287665367,1,-0.05084271728992462,1,-0.04898646846413612,1,0.02726882882416248,1,-0.002479757182300091,1,-0.003813494462519884,1,3,1,0.1754949539899826,1,0.1060657799243927,1,9.804506301879883,1
1778106175145436928,-0.01234499085694551,-0.02842217683792114,-1.005156993865967,-9.68512031249702e-05,-0.0004216211382299662,-0.01007801573723555,,,,,,,,,,,,,,,,,,,,
1778106175149856256,,,,,,,0.05479298904538155,1,-0.1747682094573975,1,-0.05270198360085487,1,0.03018860705196857,1,-0.009756287559866905,1,-0.006298983469605446,1,3,1,0.1763205975294113,1,0.1090104952454567,1,9.804458618164062,1
1778106175155362304,-0.01396368071436882,-0.04284048080444336,-0.9998512268066406,-0.0001663224975345656,-0.0006082701729610562,-0.009935894981026649,,,,,,,,,,,,,,,,,,,,
1778106175159772928,,,,,,,0.03926929086446762,1,-0.313536673784256,1,-0.0007046316750347614,1,0.004884263966232538,1,0.004514358006417751,1,0.003137132618576288,1,3,1,0.1764116585254669,1,0.1098245680332184,1,9.804448127746582,1
1778106175165267968,-0.01188002526760101,-0.04563109204173088,-0.9933222532272339,-9.106982906814665e-05,-0.0004990599118173122,-0.009864082559943199,,,,,,,,,,,,,,,,,,,,
1778106175169669888,,,,,,,0.05971198901534081,1,-0.3396857976913452,1,0.06330922991037369,1,-0.01681846939027309,1,0.004963820334523916,1,0.01510877348482609,1,3,1,0.176045686006546,1,0.1085242107510567,1,9.804469108581543,1
1778106175175153920,-0.009220781736075878,-0.03243061527609825,-0.9950063228607178,-6.35519390925765e-05,-0.0001881908974610269,-0.009976314380764961,,,,,,,,,,,,,,,,,,,,
1778106175179547136,,,,,,,0.08563502132892609,1,-0.2107140719890594,1,0.04680177196860313,1,-0.02425018884241581,1,0.00215181615203619,1,0.02135659754276276,1,3,1,0.1758001446723938,1,0.1057411506772041,1,9.80450439453125,1
1778106175185020160,-0.01041166763752699,-0.01721034944057465,-0.9908092021942139,-0.0001185884102596901,-1.32176537590567e-05,-0.009851708076894283,,,,,,,,,,,,,,,,,,,,
1778106175189404416,,,,,,,0.07395758479833603,1,-0.06300105154514313,1,0.08797863870859146,1,-0.03301925212144852,1,0.0006057104328647256,1,0.02380158565938473,1,3,1,0.1760554313659668,1,0.102576918900013,1,9.804533004760742,1
1778106175194867200,-0.01081498526036739,-0.0005096625536680222,-0.9877842664718628,-0.0001111898163799196,0.0001783910993253812,-0.009855333715677261,,,,,,,,,,,,,,,,,,,,
1778106175199242752,,,,,,,0.0700155645608902,1,0.09853368997573853,1,0.1176674216985703,1,-0.02360165864229202,1,-0.002572876866906881,1,0.01567456312477589,1,3,1,0.1761979758739471,1,0.09992705285549164,1,9.804557800292969,1
1778106175204694528,-0.01922831125557423,0.01221336610615253,-0.9857267141342163,-0.0002895580546464771,0.0002642628387548029,-0.009835302829742432,,,,,,,,,,,,,,,,,,,,
1778106175209061120,,,,,,,-0.01243301946669817,1,0.2216662913560867,1,0.1378611028194427,1,0.01492404937744141,1,0.006642411462962627,1,-0.0005950679769739509,1,3,1,0.1759091764688492,1,0.1006111353635788,1,9.804555892944336,1
1778106175214687232,-0.02871771901845932,0.01470235828310251,-0.9841611385345459,-0.0003935975837521255,0.0001854279689723626,-0.009800401516258717,,,,,,,,,,,,,,,,,,,,
1778106175219230208,,,,,,,-0.1059165894985199,1,0.2468564212322235,1,0.1532136499881744,1,0.05282426625490189,1,0.01859736628830433,1,-0.01739780977368355,1,3,1,0.1744545251131058,1,0.1058065518736839,1,9.804527282714844,1
1778106175224845312,-0.02797172218561172,0.01306739449501038,-1.002025723457336,-0.000256953586358577,0.0001166630681836978,-0.01022114604711533,,,,,,,,,,,,,,,,,,,,
1778106175229379328,,,,,,,-0.09957455098628998,1,0.2341922372579575,1,-0.02199782058596611,1,0.07747481018304825,1,0.009361245669424534,1,-0.03010709397494793,1,3,1,0.1732450127601624,1,0.1131861060857773,1,9.804466247558594,1
1778106175234983680,-0.02676267363131046,0.003438141662627459,-1.005712985992432,-0.0002368665154790506,-5.798487109132111e-05,-0.01011089142411947,,,,,,,,,,,,,,,,,,,,
1778106175239508736,,,,,,,-0.08822184056043625,1,0.1457855999469757,1,-0.05821677297353745,1,0.1004074886441231,1,-0.01100140437483788,1,-0.03391967713832855,1,3,1,0.1741392761468887,1,0.1232881247997284,1,9.804328918457031,1
1778106175245101824,-0.02537475898861885,-0.006653908640146255,-1.002369046211243,-0.000227805896429345,-0.0001718830608297139,-0.009994375519454479,,,,,,,,,,,,,,,,,,,,
1778106175249617664,,,,,,,-0.07432296872138977,1,0.05464156344532967,1,-0.02552525699138641,1,0.1010178253054619,1,-0.0150105832144618,1,-0.03105128183960915,1,3,1,0.1754651069641113,1,0.1332047432661057,1,9.80417537689209,1
1778106175255199744,-0.02055284194648266,-0.01665308326482773,-0.9966217875480652,-0.0001670001656748354,-0.0002943514555227011,-0.009885085746645927,,,,,,,,,,,,,,,,,,,,
1778106175259706624,,,,,,,-0.02672140672802925,1,-0.03511473536491394,1,0.03072402998805046,1,0.07423703372478485,1,0.005817584227770567,1,-0.02757073752582073,1,3,1,0.1748798340559006,1,0.1409258842468262,1,9.804078102111816,1
1778106175265277440,-0.01074230205267668,-0.01639831997454166,-1.003709673881531,-7.47364538256079e-07,-0.0001624181750230491,-0.01011558342725039,,,,,,,,,,,,,,,,,,,,
1778106175275335680,-0.007623129524290562,-0.01428537163883448,-0.9992303252220154,-3.196117540937848e-05,-0.0001127587529481389,-0.009950686246156693,,,,,,,,,,,,,,,,,,,,
1778106175285374208,-0.009634490124881268,-0.01183074805885553,-0.9870844483375549,-0.0001152266195276752,-8.624577458249405e-05,-0.009724834933876991,,,,,,,,,,,,,,,,,,,,
1778106175295392512,-0.008875968866050243,-0.007695910055190325,-0.9845631718635559,-9.098432201426476e-05,-3.571169145288877e-05,-0.009816776961088181,,,,,,,,,,,,,,,,,,,,
1778106175301772200,,,,,,,0.06934718787670135,1,-0.02483184076845646,1,-0.03888785094022751,1,0.07879495620727539,1,0.001245110994204879,1,-0.02322970330715179,1,3,1,0.1744590997695923,1,0.1483694463968277,1,9.803975105285645,1
1778106175305391616,-0.00744352675974369,-0.008953043259680271,-0.9964811205863953,-4.654775693779811e-05,-0.0001094379113055766,-0.0100901210680604,,,,,,,,,,,,,,,,,,,,
1778106175311757824,,,,,,,0.1000455766916275,1,0.003942109644412994,1,0.004923128522932529,1,0.08701208233833313,1,-0.007985472679138184,1,-0.01240619271993637,1,3,1,0.175265833735466,1,0.1570878773927689,1,9.803825378417969,1
1778106175315371008,-0.00774201937019825,-0.0178988091647625,-0.9989248514175415,-5.58218416699674e-05,-0.0002665573265403509,-0.0100263524800539,,,,,,,,,,,,,,,,,,,,
1778106175321723392,,,,,,,0.08062858879566193,1,0.03604017943143845,1,0.1239061430096626,1,0.06789281964302063,1,0.002323633292689919,1,-0.00250795716419816,1,3,1,0.1753678768873215,1,0.1642450988292694,1,9.803706169128418,1
1778106175325330432,-0.0087369279935956,-0.02381383441388607,-0.9971805214881897,-0.0001069340141839348,-0.0003084584313910455,-0.009962692856788635,,,,,,,,,,,,,,,,,,,,
1778106175331669504,,,,,,,0.08785144984722137,1,0.08341073989868164,1,0.1485284864902496,1,0.03876606002449989,1,0.01291468366980553,1,0.009147514589130878,1,3,1,0.1740960031747818,1,0.168443500995636,1,9.803657531738281,1
1778106175335269888,-0.003744269255548716,-0.02666389010846615,-1.005850434303284,-1.560656528454274e-06,-0.0003302158147562295,-0.01013990771025419,,,,,,,,,,,,,,,,,,,,
1778106175341596416,,,,,,,0.1013680472970009,1,0.07618451863527298,1,0.03158057108521461,1,0.01862398907542229,1,0.003402359783649445,1,0.01808001101016998,1,3,1,0.1736551970243454,1,0.1707247197628021,1,9.80362606048584,1
1778106175345189632,-0.005034096073359251,-0.02831119671463966,-1.004422783851624,-7.73540887166746e-05,-0.0003305017598904669,-0.01003341935575008,,,,,,,,,,,,,,,,,,,,
1778106175351503360,,,,,,,0.09819737821817398,1,-0.00800725445151329,1,0.007562342099845409,1,0.005179259926080704,1,-0.01170373056083918,1,0.03042813576757908,1,3,1,0.1742918491363525,1,0.1719070374965668,1,9.803593635559082,1
1778106175355089920,-0.008969226852059364,-0.02606715448200703,-1.000160813331604,-0.0001470605930080637,-0.0002561865840107203,-0.009958937764167786,,,,,,,,,,,,,,,,,,,,
1778106175361390592,,,,,,,0.08841557055711746,1,-0.06398369371891022,1,0.02463600039482117,1,0.0002734381123445928,1,0.006495094392448664,1,0.03557255491614342,1,3,1,0.1737929284572601,1,0.1719562858343124,1,9.80360221862793,1
1778106175364970496,-0.01200674194842577,-0.02328799851238728,-0.9918076992034912,-0.0001536945637781173,-0.0002086558379232883,-0.009822892025113106,,,,,,,,,,,,,,,,,,,,
1778106175371258112,,,,,,,0.136965423822403,1,-0.09097927808761597,1,-0.06039485707879066,1,-0.001325224526226521,1,0.01038834266364574,1,0.03402172774076462,1,3,1,0.1727590262889862,1,0.1714992970228195,1,9.803627967834473,1
1778106175374831360,-0.01355509553104639,-0.02063003182411194,-0.9853304624557495,-0.000155137269757688,-0.0001737422426231205,-0.009776961989700794,,,,,,,,,,,,,,,,,,,,
1778106175381105664,,,,,,,0.1240693107247353,1,-0.1066457256674767,1,-0.0463990643620491,1,-0.0007048910483717918,1,-0.0004358694422990084,1,0.03651593253016472,1,3,1,0.1731902658939362,1,0.1714629530906677,1,9.803621292114258,1
1778106175384672512,-0.01257976610213518,-0.02012842893600464,-0.9913113713264465,-0.0001213251089211553,-0.000200424314243719,-0.009973768144845963,,,,,,,,,,,,,,,,,,,,
1778106175390934272,,,,,,,0.08546850830316544,1,-0.0845830887556076,1,-0.004602865315973759,1,-0.007402739953249693,1,0.0005645578494295478,1,0.03956653922796249,1,3,1,0.1733909696340561,1,0.1707396656274796,1,9.803629875183105,1
1778106175394493952,-0.01184016466140747,-0.02305512316524982,-0.9976431131362915,-0.000114237358502578,-0.0002691186382435262,-0.01004553027451038,,,,,,,,,,,,,,,,,,,,
1778106175400743168,,,,,,,0.05576632544398308,1,-0.05786342546343803,1,0.07732094079256058,1,-0.01882436871528625,1,-0.001129762968048453,1,0.04420628026127815,1,3,1,0.1736959964036942,1,0.1690636426210403,1,9.803653717041016,1
1778106175404669952,-0.01451200898736715,-0.02661924622952938,-0.9979663491249084,-0.0001794543786672875,-0.0003131377743557096,-0.009990238584578037,,,,,,,,,,,,,,,,,,,,
1778106175410532352,,,,,,,0.0406339056789875,1,-0.03307975828647614,1,0.1408615857362747,1,-0.02321884408593178,1,0.004819387570023537,1,0.04088331013917923,1,3,1,0.173452764749527,1,0.1667512357234955,1,9.80369758605957,1
1778106175414825728,-0.01664552837610245,-0.02622776105999947,-0.9978263378143311,-0.0001968286524061114,-0.0002705314254853874,-0.00997244194149971,,,,,,,,,,,,,,,,,,,,
1778106175420302080,,,,,,,0.04995306581258774,1,-0.0298834927380085,1,0.08224331587553024,1,-0.01495275087654591,1,0.007615363691002131,1,0.02800196595489979,1,3,1,0.1727242171764374,1,0.1648538708686829,1,9.803742408752441,1
1778106175424961280,-0.0182171668857336,-0.02101116999983788,-0.9971126914024353,-0.0001994266931433231,-0.0001566449063830078,-0.009962759912014008,,,,,,,,,,,,,,,,,,,,
1778106175430239488,,,,,,,0.05693491920828819,1,-0.0598096065223217,1,0.02017576806247234,1,0.005223541054874659,1,0.0001853702124208212,1,0.01596869342029095,1,3,1,0.1727400422096252,1,0.1650528013706207,1,9.803739547729492,1
1778106175435077120,-0.01724598929286003,-0.01319823320955038,-0.9961994886398315,-0.0001627973251743242,-4.16403345298022e-05,-0.009953888133168221,,,,,,,,,,,,,,,,,,,,
1778106175440343808,,,,,,,0.03069161623716354,1,-0.09486708045005798,1,0.01700848340988159,1,0.01803659088909626,1,0.0003114819701295346,1,0.009848304092884064,1,3,1,0.1729447096586227,1,0.1667787879705429,1,9.803706169128418,1
1778106175445172736,-0.01548015791922808,-0.006824389565736055,-0.9939250946044922,-0.0001308183127548546,9.200306521961465e-06,-0.00991547480225563,,,,,,,,,,,,,,,,,,,,
1778106175450428672,,,,,,,0.009673828259110451,1,-0.09031366556882858,1,0.01837188191711903,1,0.01551527623087168,1,0.005615302827209234,1,0.008628079667687416,1,3,1,0.1725611537694931,1,0.1683221906423569,1,9.80368709564209,1
1778106175455248384,-0.01621036604046822,-0.006288858596235514,-0.9876930713653564,-0.0001703777379589155,-4.853872087551281e-05,-0.009806915186345577,,,,,,,,,,,,,,,,,,,,
1778106175460493312,,,,,,,-0.005943404510617256,1,-0.03800018876791,1,0.02535387128591537,1,0.01946321502327919,1,0.003286404768005013,1,0.009680502116680145,1,3,1,0.1723510771989822,1,0.1701866388320923,1,9.803658485412598,1
1778106175465303808,-0.0159417912364006,-0.01002536341547966,-0.9891061782836914,-0.0001609017053851858,-0.0001409316319040954,-0.009901430457830429,,,,,,,,,,,,,,,,,,,,
1778106175470538240,,,,,,,0.003375724423676729,1,0.04029281437397003,1,0.03428437560796738,1,0.02954978868365288,1,0.001176098827272654,1,0.006707809399813414,1,3,1,0.1722196042537689,1,0.1728971749544144,1,9.80361270904541,1
1778106175475339264,-0.01490670908242464,-0.01433548238128424,-0.9938635230064392,-0.0001361485192319378,-0.0001957400236278772,-0.009987303987145424,,,,,,,,,,,,,,,,,,,,
1778106175480563200,,,,,,,0.0206865593791008,1,0.1053419336676598,1,0.05654393136501312,1,0.04530888795852661,1,-0.005533821880817413,1,-0.001998259220272303,1,3,1,0.1727263927459717,1,0.1771111041307449,1,9.803528785705566,1
1778106175485355008,-0.01471452321857214,-0.0168165247887373,-0.9966486692428589,-0.0001409851392963901,-0.0001955551706487313,-0.01000290643423796,,,,,,,,,,,,,,,,,,,,
1778106175490568192,,,,,,,0.01374235190451145,1,0.1143941730260849,1,0.1175866276025772,1,0.06139788031578064,1,-0.002322063315659761,1,-0.01126757822930813,1,3,1,0.1730455607175827,1,0.1830562502145767,1,9.803414344787598,1
1778106175495350784,-0.01633322052657604,-0.01629088632762432,-0.9960552453994751,-0.0001791126996977255,-0.0001541325618745759,-0.009958560578525066,,,,,,,,,,,,,,,,,,,,
1778106175500552960,,,,,,,0.01643833145499229,1,0.08267387002706528,1,0.1036372855305672,1,0.06481058895587921,1,0.005212245974689722,1,-0.01659564115107059,1,3,1,0.1726046055555344,1,0.1894077807664871,1,9.803300857543945,1
1778106175505326592,-0.01794413104653358,-0.01459074392914772,-0.993773877620697,-0.0001986673451028764,-0.0001223588333232328,-0.009908232837915421,,,,,,,,,,,,,,,,,,,,
1778106175510517760,,,,,,,0.02640078403055668,1,0.0460745245218277,1,0.05687944963574409,1,0.06834924221038818,1,0.005094700027257204,1,-0.01568841934204102,1,3,1,0.1721563041210175,1,0.1961068511009216,1,9.803177833557129,1
1778106175515283456,-0.0187845267355442,-0.0160229466855526,-0.9933197498321533,-0.0001965365227079019,-0.0001699477579677477,-0.009928157553076744,,,,,,,,,,,,,,,,,,,,
1778106175520463360,,,,,,,0.02801984548568726,1,0.02811909280717373,1,0.02944681979715824,1,0.07670681178569794,1,0.002112844260409474,1,-0.01006204728037119,1,3,1,0.1719279140233994,1,0.2036694586277008,1,9.803027153015137,1
1778106175525220608,-0.01942629553377628,-0.02118818089365959,-0.9943479895591736,-0.0002014440688071772,-0.000265808281255886,-0.009952597320079803,,,,,,,,,,,,,,,,,,,,
1778106175530388992,,,,,,,0.01192940585315228,1,0.04029139131307602,1,0.0351274199783802,1,0.08112789690494537,1,0.001625464297831059,1,-0.006417190656065941,1,3,1,0.1717852354049683,1,0.2116127163171768,1,9.802861213684082,1
1778106175535138304,-0.01939352601766586,-0.02817521803081036,-0.9962761402130127,-0.0001908672420540825,-0.0003589806146919727,-0.009982516057789326,,,,,,,,,,,,,,,,,,,,
1778106175540294912,,,,,,,-0.004103694576770067,1,0.06441615521907806,1,0.05734891071915627,1,0.08124642074108124,1,0.003693518694490194,1,-0.009190441109240055,1,3,1,0.1714289486408234,1,0.2195700109004974,1,9.802692413330078,1
1778106175545036032,-0.01982902362942696,-0.03278634697198868,-0.9962642192840576,-0.0002022821136051789,-0.0003792477364186198,-0.009963882155716419,,,,,,,,,,,,,,,,,,,,
1778106175550181888,,,,,,,-0.01277291215956211,1,0.05824003741145134,1,0.0616392120718956,1,0.08720024675130844,1,0.002507485449314117,1,-0.01621700823307037,1,3,1,0.1706611663103104,1,0.2282610535621643,1,9.802507400512695,1
1778106175554914048,-0.01850366033613682,-0.03073599375784397,-0.9980958104133606,-0.0001713094097794965,-0.0002843149995896965,-0.01000074110925198,,,,,,,,,,,,,,,,,,,,
1778106175560049664,,,,,,,-0.01948361285030842,1,0.01596580818295479,1,0.05137386173009872,1,0.09484653919935226,1,0.002252088161185384,1,-0.02421403862535954,1,3,1,0.1704163551330566,1,0.2374852448701859,1,9.802292823791504,1
1778106175564772352,-0.01683293841779232,-0.02415635995566845,-0.9987373352050781,-0.0001467148977098987,-0.0001636381784919649,-0.009996380656957626,,,,,,,,,,,,,,,,,,,,
1778106175569897728,,,,,,,-0.01947955787181854,1,-0.04364566877484322,1,0.03226213157176971,1,0.09688776731491089,1,0.0006715836934745312,1,-0.02518726512789726,1,3,1,0.1702843010425568,1,0.247090756893158,1,9.802057266235352,1
1778106175574611456,-0.01679565012454987,-0.01813933998346329,-0.9956732988357544,-0.0001648754841880873,-0.0001055892935255542,-0.009927025064826012,,,,,,,,,,,,,,,,,,,,
1778106175579726080,,,,,,,-0.02395527251064777,1,-0.07971153408288956,1,0.0321592353284359,1,0.0922674760222435,1,0.001324118464253843,1,-0.02084901370108128,1,3,1,0.1701853275299072,1,0.256343811750412,1,9.801821708679199,1
1778106175584613376,-0.01649490185081959,-0.01450399402529001,-0.9927982687950134,-0.0001642253046156839,-9.91049237200059e-05,-0.009890288114547729,,,,,,,,,,,,,,,,,,,,
1778106175589534720,,,,,,,-0.01123921107500792,1,-0.05060899630188942,1,0.01397689618170261,1,0.08710303902626038,1,0.0044244141317904,1,-0.01369325257837772,1,3,1,0.1696870923042297,1,0.2649401724338531,1,9.801601409912109,1
1778106175594778112,-0.01224555168300867,-0.01214678678661585,-0.9978033900260925,-7.361224561464041e-05,-9.024407336255535e-05,-0.01002865098416805,,,,,,,,,,,,,,,,,,,,
1778106175599323904,,,,,,,0.004858855623751879,1,0.02268487215042114,1,0.007461452856659889,1,0.0863325372338295,1,0.0002435159112792462,1,-0.007989656180143356,1,3,1,0.1695921868085861,1,0.2734176516532898,1,9.801370620727539,1
1778106175604922624,-0.01084891334176064,-0.01282075513154268,-0.9986748099327087,-8.482590055791661e-05,-0.0001266286126337945,-0.01000804547220469,,,,,,,,,,,,,,,,,,,,
1778106175609094144,,,,,,,0.005106502678245306,1,0.0903405100107193,1,0.03727903962135315,1,0.08622519671916962,1,-0.001147234812378883,1,-0.004489398095756769,1,3,1,0.169723778963089,1,0.2819210886955261,1,9.801127433776855,1
1778106175615046912,-0.01619365252554417,-0.0165318101644516,-0.989513099193573,-0.0002211829414591193,-0.0002018046216107905,-0.009796924889087677,,,,,,,,,,,,,,,,,,,,
1778106175619027200,,,,,,,0.007944166660308838,1,0.1345577836036682,1,0.06523771584033966,1,0.08706112951040268,1,0.004758312832564116,1,-0.006079885177314281,1,3,1,0.1693617105484009,1,0.2904168367385864,1,9.800885200500488,1
1778106175625151232,-0.01830977760255337,-0.02256863564252853,-0.9867584705352783,-0.0002110038622049615,-0.0002910472976509482,-0.009818556718528271,,,,,,,,,,,,,,,,,,,,
1778106175629123328,,,,,,,0.04934395104646683,1,0.1662251949310303,1,0.01591393537819386,1,0.08653055876493454,1,0.002528372220695019,1,-0.001792064518667758,1,3,1,0.1690129339694977,1,0.2989256381988525,1,9.80063533782959,1
1778106175635235584,-0.01475125458091497,-0.03014128841459751,-0.9977661371231079,-0.0001086976335500367,-0.0003823823062703013,-0.01010531932115555,,,,,,,,,,,,,,,,,,,,
1778106175639199232,,,,,,,0.06302796304225922,1,0.1681022197008133,1,0.007117764558643103,1,0.08344659209251404,1,-0.007391684222966433,1,0.01421176269650459,1,3,1,0.1697472929954529,1,0.3071995973587036,1,9.80036735534668,1
1778106175645299968,-0.01322259847074747,-0.0409887284040451,-1.004259705543518,-0.0001063468807842582,-0.0005260463221929967,-0.01012467313557863,,,,,,,,,,,,,,,,,,,,
1778106175649254912,,,,,,,0.0108446478843689,1,0.1398900598287582,1,0.0967109352350235,1,0.07746630907058716,1,0.004522223956882954,1,0.02790551446378231,1,3,1,0.1697579175233841,1,0.3147564232349396,1,9.800127029418945,1
1778106175655344384,-0.01470120996236801,-0.05321814492344856,-0.9989896416664124,-0.0001662779686739668,-0.0006742911064065993,-0.009941818192601204,,,,,,,,,,,,,,,,,,,,
1778106175659291136,,,,,,,-0.01031706389039755,1,0.08854308724403381,1,0.1234882697463036,1,0.07758986949920654,1,0.02057280205190182,1,0.02034084126353264,1,3,1,0.1679285913705826,1,0.322246640920639,1,9.799915313720703,1
1778106175665368832,-0.01250515412539244,-0.05401463806629181,-0.9987374544143677,-0.0001054876702255569,-0.0005484067951329052,-0.009986860677599907,,,,,,,,,,,,,,,,,,,,
1778106175669307136,,,,,,,0.02352300845086575,1,0.02232756465673447,1,0.01529912929981947,1,0.09530794620513916,1,0.01122622564435005,1,0.003972461912781,1,3,1,0.1665078550577164,1,0.3312854468822479,1,9.799637794494629,1
1778106175675373312,-0.005240694619715214,-0.04875050112605095,-1.002145767211914,2.578522617113777e-05,-0.0004394403949845582,-0.01005466189235449,,,,,,,,,,,,,,,,,,,,
1778106175679303680,,,,,,,0.03789116442203522,1,-0.0750940814614296,1,-0.04866699501872063,1,0.105280376970768,1,-0.01061319094151258,1,-0.002396482974290848,1,3,1,0.1672967970371246,1,0.3417001664638519,1,9.799266815185547,1
1778106175685357824,-0.00381771894171834,-0.04511427879333496,-0.9997227787971497,-1.502121995144989e-05,-0.0004117680655326694,-0.009973623789846897,,,,,,,,,,,,,,,,,,,,
1778106175689280256,,,,,,,0.02356507815420628,1,-0.1858867704868317,1,0.002702021505683661,1,0.07290705293416977,1,-0.006013198755681515,1,0.01533029414713383,1,3,1,0.1681933403015137,1,0.3496606349945068,1,9.798971176147461,1
1778106175695322880,-0.006148210726678371,-0.04555333405733109,-0.9907680749893188,-8.299318142235279e-05,-0.0004555576015263796,-0.009810038842260838,,,,,,,,,,,,,,,,,,,,
1778106175699236864,,,,,,,0.04528301581740379,1,-0.1863117814064026,1,0.004917769227176905,1,0.03902222216129303,1,0.006392791401594877,1,0.03519841656088829,1,3,1,0.1678994745016098,1,0.3536030054092407,1,9.798834800720215,1
1778106175705267968,-0.01084511075168848,-0.04747000336647034,-0.9829745292663574,-0.0001586061698617414,-0.0004911102587357163,-0.009738483466207981,,,,,,,,,,,,,,,,,,,,
1778106175709173504,,,,,,,0.1163020581007004,1,-0.1295896619558334,1,-0.02868032082915306,1,0.01684664748609066,1,0.007390632294118404,1,0.04546573385596275,1,3,1,0.1671978235244751,1,0.3551118075847626,1,9.798791885375977,1
1778106175715193088,-0.01499434001743793,-0.0493263266980648,-0.9832553863525391,-0.00019855223945342,-0.0005154620157554746,-0.009827924892306328,,,,,,,,,,,,,,,,,,,,
1778106175719090432,,,,,,,0.1301480978727341,1,-0.09036917984485626,1,-0.005039892625063658,1,0.02229520678520203,1,-0.0005323791992850602,1,0.04059285670518875,1,3,1,0.1675625443458557,1,0.3571467995643616,1,9.798711776733398,1
1778106175725098496,-0.01757550053298473,-0.04437863081693649,-0.9910246729850769,-0.0002073701471090317,-0.0003916150017175823,-0.0099972914904356,,,,,,,,,,,,,,,,,,,,
1778106175728987904,,,,,,,0.1073404774069786,1,-0.09155816584825516,1,0.08266325294971466,1,0.03044377639889717,1,0.000838765874505043,1,0.03138019144535065,1,3,1,0.1677044183015823,1,0.360077440738678,1,9.798602104187012,1
1778106175734984448,-0.01903737895190716,-0.03636611998081207,-0.9982597231864929,-0.0002067190944217145,-0.0002731755375862122,-0.01006567291915417,,,,,,,,,,,,,,,,,,,,
1778106175738865664,,,,,,,0.06123720109462738,1,-0.1072168871760368,1,0.1589781641960144,1,0.03497447445988655,1,0.005093846470117569,1,0.02182363532483578,1,3,1,0.1673613339662552,1,0.3634209930896759,1,9.798484802246094,1
1778106175744850688,-0.01711327023804188,-0.02896259911358356,-1.005415201187134,-0.0001539021759526804,-0.0002027302980422974,-0.01013328973203897,,,,,,,,,,,,,,,,,,,,
1778106175748723712,,,,,,,0.02007563412189484,1,-0.122267059981823,1,0.1561170965433121,1,0.02456684783101082,1,0.009257453493773937,1,0.02106184512376785,1,3,1,0.1660738885402679,1,0.3662025332450867,1,9.798402786254883,1
1778106175754698240,-0.008936933241784573,-0.02710268460214138,-1.013840317726135,1.966037416423205e-06,-0.0002397863427177072,-0.01023500226438046,,,,,,,,,,,,,,,,,,,,
1778106175758562048,,,,,,,-0.005905738100409508,1,-0.07106854766607285,1,0.07983897626399994,1,0.02189559675753117,1,0.005483090411871672,1,0.0278670322149992,1,3,1,0.1654871106147766,1,0.3681559264659882,1,9.79833984375,1
1778106175764526080,-0.005072318483144045,-0.03652586787939072,-1.010991454124451,3.139779892080696e-06,-0.0004574197228066623,-0.01009286753833294,,,,,,,,,,,,,,,,,,,,
1778106175768381184,,,,,,,-0.02069465070962906,1,0.01009870320558548,1,0.008798439055681229,1,0.03166664764285088,1,0.001775072538293898,1,0.02974049746990204,1,3,1,0.1654542535543442,1,0.3710626661777496,1,9.798230171203613,1
1778106175774520064,-0.002345014829188585,-0.04962789639830589,-0.9977349638938904,5.785675966762938e-06,-0.0006484847399406135,-0.009822946973145008,,,,,,,,,,,,,,,,,,,,
1778106175778180864,,,,,,,-0.002145079895853996,1,0.08579860627651215,1,-0.0614844337105751,1,0.04725401476025581,1,0.005056987982243299,1,0.01817099936306477,1,3,1,0.1651145964860916,1,0.3753924071788788,1,9.798070907592773,1
1778106175784679680,0.0002890877076424658,-0.05915217101573944,-0.984131932258606,3.53626164724119e-05,-0.0007025274680927396,-0.00968413520604372,,,,,,,,,,,,,,,,,,,,
1778106175787961856,,,,,,,0.07777684181928635,1,0.1083185449242592,1,-0.1442643851041794,1,0.07039287686347961,1,-0.004895478021353483,1,0.001821052166633308,1,3,1,0.1653239727020264,1,0.3820251822471619,1,9.797811508178711,1
1778106175794819328,5.660294846165925e-05,-0.05966511741280556,-0.9750612378120422,3.781558461923851e-07,-0.0006078015430830419,-0.00964298564940691,,,,,,,,,,,,,,,,,,,,
1778106175797723392,,,,,,,0.1160655990242958,1,0.02172267995774746,1,-0.1165589243173599,1,0.07887675613164902,1,-0.01616257801651955,1,-0.003753895638510585,1,3,1,0.1669450104236603,1,0.3899754583835602,1,9.797471046447754,1
1778106175804939008,-0.0003268408181611449,-0.05213284492492676,-0.9788099527359009,-1.076051739801187e-05,-0.000440809119027108,-0.009814921766519547,,,,,,,,,,,,,,,,,,,,
1778106175807836928,,,,,,,0.1435011327266693,1,-0.1004951000213623,1,0.01318539399653673,1,0.05471036210656166,1,-0.005622684024274349,1,0.01042807381600142,1,3,1,0.1675247550010681,1,0.3957311809062958,1,9.797229766845703,1
1778106175815038464,-0.001243597129359841,-0.04428686201572418,-0.9883344769477844,-2.071867675113026e-05,-0.0003524336207192391,-0.009991338476538658,,,,,,,,,,,,,,,,,,,,
1778106175817929984,,,,,,,0.1698553711175919,1,-0.1886640638113022,1,0.1463692635297775,1,0.02295896597206593,1,-0.0008134341333061457,1,0.02764247171580791,1,3,1,0.1677077859640121,1,0.3984547257423401,1,9.797116279602051,1
1778106175825117696,-0.004951102193444967,-0.04047511145472527,-0.997004508972168,-9.350579784950241e-05,-0.0003506849170662463,-0.01007157936692238,,,,,,,,,,,,,,,,,,,,
1778106175828003328,,,,,,,0.167800635099411,1,-0.1903309524059296,1,0.2351844310760498,1,0.004288542084395885,1,0.006856643594801426,1,0.03810105845332146,1,3,1,0.1672887355089188,1,0.3988802134990692,1,9.797106742858887,1
1778106175835176960,-0.006476480513811111,-0.04319201409816742,-1.006798505783081,-8.554477972211316e-05,-0.0004579634114634246,-0.01017788052558899,,,,,,,,,,,,,,,,,,,,
1778106175838056704,,,,,,,0.1637398451566696,1,-0.1145403981208801,1,0.1983509361743927,1,0.006635208614170551,1,0.0121355913579464,1,0.03025864809751511,1,3,1,0.1661349236965179,1,0.3992339372634888,1,9.797111511230469,1
1778106175845216256,-0.005370547994971275,-0.0473494715988636,-1.012945413589478,-4.236921085976064e-05,-0.0005204849294386804,-0.01020519994199276,,,,,,,,,,,,,,,,,,,,
1778106175848089856,,,,,,,0.1542227417230606,1,-0.03594785183668137,1,0.1048898994922638,1,0.02304220199584961,1,0.004416919313371181,1,0.01728700287640095,1,3,1,0.1656653583049774,1,0.401257187128067,1,9.797037124633789,1
1778106175855236096,-0.001641779206693172,-0.05183589830994606,-1.010324597358704,2.357185258006211e-05,-0.0005689671379514039,-0.01007830258458853,,,,,,,,,,,,,,,,,,,,
1778106175858103040,,,,,,,0.1174894794821739,1,0.003786474699154496,1,0.01977691985666752,1,0.04102649539709091,1,0.002741474658250809,1,0.004258237313479185,1,3,1,0.1654970347881317,1,0.4051808714866638,1,9.796877861022949,1
1778106175865235968,0.00173922220710665,-0.05277305468916893,-1.000704288482666,5.9078407502966e-05,-0.0005385250551626086,-0.009907356463372707,,,,,,,,,,,,,,,,,,,,
1778106175868096256,,,,,,,0.1021987572312355,1,-0.01969496719539165,1,-0.07639345526695251,1,0.03850007429718971,1,0.002365065971389413,1,9.149928519036621e-05,1,3,1,0.1652180403470993,1,0.4091441035270691,1,9.796718597412109,1
1778106175875215872,0.006214000750333071,-0.04951724782586098,-0.986240565776825,0.000103748643596191,-0.0004568414587993175,-0.009696893393993378,,,,,,,,,,,,,,,,,,,,
1778106175878070016,,,,,,,0.1128528118133545,1,-0.05717579647898674,1,-0.136807382106781,1,0.03297018632292747,1,-0.001758316764608026,1,0.004691418260335922,1,3,1,0.1653820723295212,1,0.4123551547527313,1,9.796581268310547,1
1778106175885175808,0.01243855804204941,-0.0417553186416626,-0.9860820770263672,0.0001598349772393703,-0.0003419530985411257,-0.009870617650449276,,,,,,,,,,,,,,,,,,,,
1778106175888024320,,,,,,,0.1494826972484589,1,-0.09793616831302643,1,-0.1112423837184906,1,0.0311471838504076,1,-0.005629151593893766,1,0.01057146396487951,1,3,1,0.1659061759710312,1,0.4154678583145142,1,9.796440124511719,1
1778106175895116544,0.01415598392486572,-0.03922047093510628,-0.990071177482605,0.0001473779120715335,-0.0003932775580324233,-0.009938380680978298,,,,,,,,,,,,,,,,,,,,
1778106175897958656,,,,,,,0.1830564439296722,1,-0.1040069088339806,1,-0.01703794114291668,1,0.03081229142844677,1,-0.01094141695648432,1,0.01472518965601921,1,3,1,0.1669624298810959,1,0.4184339046478271,1,9.796296119689941,1
1778106175905037312,0.0205357987433672,-0.03965884819626808,-0.993231475353241,0.0002657912264112383,-0.0004180004762019962,-0.009956962428987026,,,,,,,,,,,,,,,,,,,,
1778106175907873280,,,,,,,0.2275296151638031,1,-0.06910154968500137,1,0.1246670559048653,1,0.03166703134775162,1,-0.003723561530932784,1,0.008489637635648251,1,3,1,0.1674132943153381,1,0.4212675094604492,1,9.796167373657227,1
1778106175914938112,0.03222734481096268,-0.03757980838418007,-1.0085289478302,0.0004487769037950784,-0.0003611243737395853,-0.01027366705238819,,,,,,,,,,,,,,,,,,,,
1778106175917767936,,,,,,,0.2888186275959015,1,0.009919575415551662,1,0.1260933130979538,1,0.03761140257120132,1,0.003164206864312291,1,0.001962399575859308,1,3,1,0.1669399291276932,1,0.4243022203445435,1,9.79604434967041,1
1778106175924819200,0.03553184494376183,-0.03577791154384613,-1.003386378288269,0.0004125508421566337,-0.0003442341694608331,-0.009992369450628757,,,,,,,,,,,,,,,,,,,,
1778106175927643392,,,,,,,0.3059931099414825,1,0.03778998181223869,1,0.08683876693248749,1,0.03320414945483208,1,-0.0007447048556059599,1,-0.001433054450899363,1,3,1,0.1675831526517868,1,0.4272284507751465,1,9.795906066894531,1
1778106175934681088,0.04726778343319893,-0.03186484426259995,-0.99451744556427,0.0006055596750229597,-0.0003129771794192493,-0.009845470078289509,,,,,,,,,,,,,,,,,,,,
1778106175937499136,,,,,,,0.3687498569488525,1,0.03669048845767975,1,0.05570526421070099,1,0.0328563004732132,1,0.007088750600814819,1,-0.003383792005479336,1,3,1,0.1672908067703247,1,0.4306799173355103,1,9.795760154724121,1
1778106175944523264,0.0607280321419239,-0.02373600006103516,-1.000095009803772,0.0007692000363022089,-0.0001680535497143865,-0.01006365567445755,,,,,,,,,,,,,,,,,,,,
1778106175947335168,,,,,,,0.4834097921848297,1,0.06051972880959511,1,-0.09446343034505844,1,0.03987039998173714,1,-0.005114012863487005,1,-0.001254772068932652,1,3,1,0.1675267666578293,1,0.4348719120025635,1,9.795570373535156,1
1778106175954345728,0.07232509553432465,-0.01651848293840885,-1.006230592727661,0.0008562170551158488,-8.53074379847385e-05,-0.01014466024935246,,,,,,,,,,,,,,,,,,,,
1778106175957151744,,,,,,,0.5165419578552246,1,0.08225221931934357,1,-0.04422396421432495,1,0.05541158840060234,1,-0.01647180877625942,1,0.00540077080950141,1,3,1,0.1696701794862747,1,0.440142422914505,1,9.79529857635498,1
1778106175964523264,0.08000333607196808,-0.02174024656414986,-1.008736848831177,0.0009164982475340366,-0.0002763179945759475,-0.01012267172336578,,,,,,,,,,,,,,,,,,,,
1778106175966949120,,,,,,,0.6325167417526245,1,0.1253150701522827,1,0.04252723604440689,1,0.05370456725358963,1,-0.002424218924716115,1,0.0006926023634150624,1,3,1,0.1701308339834213,1,0.4454264342784882,1,9.795051574707031,1
1778106175974680576,0.07639865577220917,-0.04391515254974365,-0.9805769324302673,0.0007441841880790889,-0.0006731746252626181,-0.009511029347777367,,,,,,,,,,,,,,,,,,,,
1778106175976726784,,,,,,,0.7653440833091736,1,0.2103292047977448,1,-0.01242330949753523,1,0.07126918435096741,1,-0.008514225482940674,1,-0.004935333970934153,1,3,1,0.1711588650941849,1,0.4521917998790741,1,9.794723510742188,1
1778106175984817920,0.07255759835243225,-0.06608295440673828,-0.9686551690101624,0.0006962495390325785,-0.0009112926782108843,-0.009529486298561096,,,,,,,,,,,,,,,,,,,,
1778106175986672128,,,,,,,0.8798192739486694,1,0.2877896428108215,1,-0.07291319221258163,1,0.09226489812135696,1,0.001019821502268314,1,-0.001579040545038879,1,3,1,0.171386793255806,1,0.4613867402076721,1,9.794290542602539,1
1778106175994935552,0.06435670703649521,-0.08050812035799026,-0.9711560010910034,0.0005602284800261259,-0.0009791217744350433,-0.009737239219248295,,,,,,,,,,,,,,,,,,,,
1778106175996785152,,,,,,,0.9558126926422119,1,0.2442853301763535,1,-0.0978616327047348,1,0.08290304988622665,1,-0.009039590135216713,1,0.01014642044901848,1,3,1,0.1725448071956635,1,0.4698442816734314,1,9.793868064880371,1
1778106176005032960,0.0558306910097599,-0.08048570156097412,-0.9767687320709229,0.0004683862207457423,-0.0008214840199798346,-0.009821615181863308,,,,,,,,,,,,,,,,,,,,
1778106176006877952,,,,,,,0.9212663173675537,1,0.03467214852571487,1,0.1779100000858307,1,0.06558404862880707,1,0.006177838891744614,1,0.01823801547288895,1,3,1,0.1728049963712692,1,0.4772038757801056,1,9.79350757598877,1
1778106176015110656,0.0448729544878006,-0.06705426424741745,-0.9941053986549377,0.0003204951644875109,-0.0005318793701007962,-0.01012724917382002,,,,,,,,,,,,,,,,,,,,
1778106176016951040,,,,,,,0.8834378719329834,1,-0.1762554049491882,1,0.2945169508457184,1,0.0300322137773037,1,0.01929268054664135,1,0.004948741290718317,1,3,1,0.1709517538547516,1,0.4805730879306793,1,9.793375968933105,1
1778106176025168128,0.04520900920033455,-0.04843729734420776,-1.015111446380615,0.0004497193440329283,-0.0002743050863500684,-0.01039032824337482,,,,,,,,,,,,,,,,,,,,
1778106176027004416,,,,,,,0.8021268248558044,1,-0.3133322298526764,1,0.2697964310646057,1,0.01248002052307129,1,0.01810557954013348,1,0.01532841846346855,1,3,1,0.169291689991951,1,0.4818266332149506,1,9.793342590332031,1
1778106176035205632,0.04712885618209839,-0.03569944202899933,-1.029637455940247,0.0004912542644888163,-0.0002029549214057624,-0.01047403272241354,,,,,,,,,,,,,,,,,,,,
1778106176037037824,,,,,,,0.717513382434845,1,-0.3103812038898468,1,0.214640349149704,1,0.0006962554762139916,1,0.005868779961019754,1,0.02951426804065704,1,3,1,0.1686815023422241,1,0.4821342825889587,1,9.793338775634766,1
1778106176045222912,0.05126811936497688,-0.03821314498782158,-1.029364705085754,0.0005540546262636781,-0.000400173565139994,-0.01029569655656815,,,,,,,,,,,,,,,,,,,,
1778106176047051520,,,,,,,0.6093181967735291,1,-0.1774524003267288,1,0.04458067566156387,1,-0.01372263859957457,1,0.01255709957331419,1,0.0381460040807724,1,3,1,0.1679551303386688,1,0.4809526205062866,1,9.79340934753418,1
1778106176055220224,0.05892448127269745,-0.05078421533107758,-1.018132328987122,0.0006781999836675823,-0.0006477657589130104,-0.01005589962005615,,,,,,,,,,,,,,,,,,,,
1778106176057045248,,,,,,,0.6117867827415466,1,0.005000188946723938,1,-0.161397710442543,1,-0.02054839208722115,1,0.005160286091268063,1,0.04754151403903961,1,3,1,0.1673588901758194,1,0.4790062010288239,1,9.793514251708984,1
1778106176065198080,0.05989427492022514,-0.06623253226280212,-0.9910380840301514,0.0006205002428032458,-0.0008344429079443216,-0.009613870643079281,,,,,,,,,,,,,,,,,,,,
1778106176067019008,,,,,,,0.6303460597991943,1,0.1289054155349731,1,-0.3037950396537781,1,-0.01664613746106625,1,-0.006315044593065977,1,0.04103289917111397,1,3,1,0.168207198381424,1,0.4771126508712769,1,9.79359245300293,1
1778106176075156480,0.06594990193843842,-0.07045779377222061,-0.9843721389770508,0.0007091354345902801,-0.0007563714752905071,-0.009773757308721542,,,,,,,,,,,,,,,,,,,,
1778106176076972800,,,,,,,0.67121821641922,1,0.1030369624495506,1,-0.3010639846324921,1,-0.0146563732996583,1,-0.008268671110272408,1,0.03217381611466408,1,3,1,0.1691645979881287,1,0.4757407903671265,1,9.793642997741699,1
1778106176085095424,0.07043891400098801,-0.06593652814626694,-0.976130485534668,0.0007656097295694053,-0.0006201742216944695,-0.009673823602497578,,,,,,,,,,,,,,,,,,,,
1778106176086906880,,,,,,,0.7470014095306396,1,-0.02172758802771568,1,-0.1908516585826874,1,-0.02262160927057266,1,-0.01478574052453041,1,0.03057463653385639,1,3,1,0.1706305891275406,1,0.4735930263996124,1,9.793721199035645,1
1778106176095014656,0.07138508558273315,-0.05208404362201691,-0.978955864906311,0.0007133343606255949,-0.0003665727563202381,-0.009820796549320221,,,,,,,,,,,,,,,,,,,,
1778106176096821504,,,,,,,0.7577705979347229,1,-0.1751422882080078,1,0.07492345571517944,1,-0.03295557573437691,1,-0.0145987793803215,1,0.03748133406043053,1,3,1,0.1725694686174393,1,0.4707682728767395,1,9.7938232421875,1
1778106176104914176,0.07708603888750076,-0.03731733560562134,-0.9909138679504395,0.0008410565787926316,-0.000209020625334233,-0.01003776490688324,,,,,,,,,,,,,,,,,,,,
1778106176106717184,,,,,,,0.8180257678031921,1,-0.2194545716047287,1,0.1404177397489548,1,-0.0405399426817894,1,0.0006959483725950122,1,0.04890004172921181,1,3,1,0.1723014861345291,1,0.4664386510848999,1,9.794035911560059,1
1778106176114794240,0.07720547169446945,-0.02898229099810123,-0.9971467852592468,0.0007709055207669735,-0.0001903873198898509,-0.01005377899855375,,,,,,,,,,,,,,,,,,,,
1778106176116593152,,,,,,,0.8627973794937134,1,-0.1789635121822357,1,0.2214112281799316,1,-0.06048812344670296,1,-0.01215978991240263,1,0.05863484367728233,1,3,1,0.1735543310642242,1,0.4606039226055145,1,9.794289588928223,1
1778106176124654592,0.07907917350530624,-0.02830450981855392,-1.003718733787537,0.000803280679974705,-0.0002752004074864089,-0.01011211983859539,,,,,,,,,,,,,,,,,,,,
1778106176126449408,,,,,,,0.8727471828460693,1,-0.04821517691016197,1,0.1939327418804169,1,-0.06488914042711258,1,0.006015471648424864,1,0.0634215921163559,1,3,1,0.1733096390962601,1,0.4538726806640625,1,9.794608116149902,1
1778106176134495232,0.07666891068220139,-0.03401361405849457,-1.002700209617615,0.0007409056415781379,-0.0004082848026882857,-0.01002037338912487,,,,,,,,,,,,,,,,,,,,
1778106176136286208,,,,,,,0.9288559556007385,1,0.09076812863349915,1,0.07693339139223099,1,-0.0645015612244606,1,-0.002299489453434944,1,0.05981387197971344,1,3,1,0.173355296254158,1,0.4471975564956665,1,9.794914245605469,1
1778106176144498176,0.07311407476663589,-0.04368292167782784,-0.9942879676818848,0.0006877510459162295,-0.0005488086608238518,-0.009843443520367146,,,,,,,,,,,,,,,,,,,,
1778106176146103552,,,,,,,0.9303553104400635,1,0.1666854918003082,1,0.0160728245973587,1,-0.04778073728084564,1,0.0002715509035624564,1,0.05292241275310516,1,3,1,0.1736767143011093,1,0.442085862159729,1,9.795140266418457,1
1778106176154662912,0.07037319988012314,-0.04937337338924408,-0.9877896308898926,0.0006746484432369471,-0.0005649571539834142,-0.009803662076592445,,,,,,,,,,,,,,,,,,,,
1778106176155901440,,,,,,,0.9487855434417725,1,0.1682202070951462,1,-0.04814209416508675,1,-0.03416966274380684,1,0.004530509933829308,1,0.04761842638254166,1,3,1,0.1732206046581268,1,0.4383584260940552,1,9.795316696166992,1
1778106176164807168,0.0704057514667511,-0.04667356610298157,-0.9980475306510925,0.0006826570606790483,-0.0004385661450214684,-0.01010854076594114,,,,,,,,,,,,,,,,,,,,
1778106176165679360,,,,,,,0.9253423810005188,1,0.1081053391098976,1,-0.0379699245095253,1,-0.0257299616932869,1,-0.005697775632143021,1,0.04672405496239662,1,3,1,0.1740446090698242,1,0.435723751783371,1,9.795418739318848,1
1778106176174933504,0.06980055570602417,-0.04352748021483421,-1.000008702278137,0.0006941072060726583,-0.0004111559246666729,-0.01003396697342396,,,,,,,,,,,,,,,,,,,,
1778106176175619840,,,,,,,0.8908790946006775,1,0.009825995191931725,1,0.0446741133928299,1,-0.03283514827489853,1,-0.00088690739357844,1,0.04944166913628578,1,3,1,0.1744499355554581,1,0.4327549636363983,1,9.795543670654297,1
1778106176185039360,0.06651794165372849,-0.03740248829126358,-1.003542304039001,0.0006181542412377894,-0.0003127582313027233,-0.01007254421710968,,,,,,,,,,,,,,,,,,,,
1778106176185722368,,,,,,,0.8643456101417542,1,-0.04984582960605621,1,0.1085677370429039,1,-0.05977724492549896,1,-0.00122520187869668,1,0.05719198286533356,1,3,1,0.1747790724039078,1,0.427286297082901,1,9.795778274536133,1
1778106176195125248,0.06743324548006058,-0.03471202030777931,-1.003214955329895,0.0006903480971232057,-0.0003208495036233217,-0.01002863422036171,,,,,,,,,,,,,,,,,,,,
1778106176205190912,0.06323477625846863,-0.03564377129077911,-0.9985052943229675,0.0005861605750396848,-0.0003652883460745215,-0.009930157102644444,,,,,,,,,,,,,,,,,,,,
1778106176215236864,0.06577663868665695,-0.036811713129282,-1.001990437507629,0.000676322728395462,-0.0003826115280389786,-0.01005707029253244,,,,,,,,,,,,,,,,,,,,
1778106176225262848,0.06351988017559052,-0.03728919103741646,-1.003767251968384,0.0006094337441027164,-0.0003858377458527684,-0.01006065029650927,,,,,,,,,,,,,,,,,,,,
1778106176234644300,,,,,,,0.8647654056549072,1,-0.0284256674349308,1,0.008192466571927071,1,-0.05938912555575371,1,0.005447142757475376,1,0.06551545113325119,1,3,1,0.1742776334285736,1,0.4208808839321136,1,9.796064376831055,1
1778106176235269376,0.06663458049297333,-0.03778686746954918,-1.004053711891174,0.0006944636697880924,-0.0003923671320080757,-0.01004050765186548,,,,,,,,,,,,,,,,,,,,
1778106176244631040,,,,,,,0.8590266704559326,1,-0.003194905817508698,1,-0.01080046501010656,1,-0.06516291946172714,1,-0.008795103058218956,1,0.0691627636551857,1,3,1,0.1752490550279617,1,0.4143305122852325,1,9.79632568359375,1
1778106176245255680,0.07044386863708496,-0.03468228504061699,-0.9994080662727356,0.0007553229806944728,-0.0003212343144696206,-0.009932969696819782,,,,,,,,,,,,,,,,,,,,
1778106176254597632,,,,,,,0.8272238969802856,1,0.05080854147672653,1,-0.04520009085536003,1,-0.0588253028690815,1,0.003546029329299927,1,0.06724044680595398,1,3,1,0.1752843409776688,1,0.4080238342285156,1,9.796589851379395,1
1778106176255222528,0.07671127468347549,-0.03181946277618408,-0.993402898311615,0.0008381765219382942,-0.0002735103480517864,-0.00988618191331625,,,,,,,,,,,,,,,,,,,,
1778106176264544512,,,,,,,0.8365058302879333,1,0.07140568643808365,1,-0.04175050556659698,1,-0.05181680619716644,1,-0.008234250359237194,1,0.06144122034311295,1,3,1,0.1760333627462387,1,0.4028583168983459,1,9.79679012298584,1
1778106176265169408,0.07896830886602402,-0.03000211529433727,-0.983951210975647,0.0008202768513001502,-0.0002789757854770869,-0.009737025015056133,,,,,,,,,,,,,,,,,,,,
1778106176274471680,,,,,,,0.7959440946578979,1,0.05678010731935501,1,0.004654638469219208,1,-0.05448626726865768,1,-0.001612846041098237,1,0.05430298298597336,1,3,1,0.1766853779554367,1,0.3976099789142609,1,9.796993255615234,1
1778106176275096576,0.07922324538230896,-0.02959655039012432,-0.9813512563705444,0.000795618980191648,-0.0002942214778158814,-0.009777737781405449,,,,,,,,,,,,,,,,,,,,
1778106176284379136,,,,,,,0.8211587071418762,1,0.03968309983611107,1,-0.02929502353072166,1,-0.06194767728447914,1,-0.0002101652789860964,1,0.05948657542467117,1,3,1,0.1765290051698685,1,0.3914655745029449,1,9.797243118286133,1
1778106176285004032,0.07918544858694077,-0.0320412665605545,-0.9782512187957764,0.0008075331570580602,-0.0003478295402601361,-0.009752639569342136,,,,,,,,,,,,,,,,,,,,
1778106176294267136,,,,,,,0.7995742559432983,1,0.02897583693265915,1,-0.04648696258664131,1,-0.06631366908550262,1,-0.008981847204267979,1,0.06719979643821716,1,3,1,0.1777961999177933,1,0.3848164677619934,1,9.797483444213867,1
1778106176294891520,0.07497882843017578,-0.03383783996105194,-0.9776528477668762,0.0006956798024475574,-0.0003647085686679929,-0.009762121364474297,,,,,,,,,,,,,,,,,,,,
1778106176304135680,,,,,,,0.8308371305465698,1,0.01761024259030819,1,-0.04905004799365997,1,-0.07589720189571381,1,-0.004701991099864244,1,0.07883471995592117,1,3,1,0.1785118132829666,1,0.3773823976516724,1,9.797760009765625,1
1778106176304759808,0.07435809075832367,-0.03103385679423809,-0.985659658908844,0.000735377543605864,-0.0002876284706871957,-0.009953404776751995,,,,,,,,,,,,,,,,,,,,
1778106176313984256,,,,,,,0.869047224521637,1,0.04087518900632858,1,-0.003225226886570454,1,-0.08447755128145218,1,-0.007914584130048752,1,0.08360873162746429,1,3,1,0.1797045320272446,1,0.3690219521522522,1,9.798056602478027,1
1778106176314608384,0.07076707482337952,-0.02736414596438408,-0.9887554049491882,0.0006686369306407869,-0.0002375935291638598,-0.009925453923642635,,,,,,,,,,,,,,,,,,,,
1778106176323813888,,,,,,,0.9312995076179504,1,0.06159910187125206,1,0.05593222379684448,1,-0.06652209162712097,1,-0.003361088922247291,1,0.08173655718564987,1,3,1,0.1802021712064743,1,0.3622948229312897,1,9.798298835754395,1
1778106176324437248,0.07190116494894028,-0.02605974860489368,-0.9971867203712463,0.0007231939816847444,-0.0002537699474487454,-0.01005503814667463,,,,,,,,,,,,,,,,,,,,
1778106176333623808,,,,,,,0.9540582895278931,1,0.07229059189558029,1,0.1488796472549438,1,-0.07131603360176086,1,0.002707436680793762,1,0.07405730336904526,1,3,1,0.1803824752569199,1,0.3551590442657471,1,9.798556327819824,1
1778106176334432000,0.07373550534248352,-0.02541431784629822,-1.012600660324097,0.0007653303327970207,-0.0002483545104041696,-0.01030395366251469,,,,,,,,,,,,,,,,,,,,
1778106176343414016,,,,,,,0.956596851348877,1,0.06900070607662201,1,0.1746448576450348,1,-0.07586894184350967,1,0.01508379261940718,1,0.07766709476709366,1,3,1,0.179212287068367,1,0.3475454449653625,1,9.798851013183594,1
1778106176344592128,0.07229654490947723,-0.03099976852536201,-1.020188450813293,0.0007115438929758966,-0.0003664983960334212,-0.01029631122946739,,,,,,,,,,,,,,,,,,,,
1778106176353184768,,,,,,,0.9558588266372681,1,0.03744853660464287,1,0.2053267806768417,1,-0.08742596209049225,1,0.006216549314558506,1,0.08682949095964432,1,3,1,0.1787956357002258,1,0.3391212522983551,1,9.799153327941895,1
1778106176354732288,0.06583916395902634,-0.03722769394516945,-1.016538143157959,0.0005818760255351663,-0.0004495707107707858,-0.01013240031898022,,,,,,,,,,,,,,,,,,,,
1778106176362936064,,,,,,,0.9140517115592957,1,0.01132077071815729,1,0.2115056663751602,1,-0.1077257096767426,1,0.01746152900159359,1,0.09793036431074142,1,3,1,0.1775108724832535,1,0.3286727070808411,1,9.799532890319824,1
1778106176364852480,0.06160926073789597,-0.03802890330553055,-1.008825540542603,0.0005625973572023213,-0.0003968725213780999,-0.01001093816012144,,,,,,,,,,,,,,,,,,,,
1778106176372668416,,,,,,,0.907160758972168,1,0.02900515496730804,1,0.1333367377519608,1,-0.1154881343245506,1,0.006326416973024607,1,0.1101840957999229,1,3,1,0.1769272536039352,1,0.3170163631439209,1,9.799927711486816,1
1778106176374952448,0.05789992213249207,-0.03337682783603668,-1.002514123916626,0.0005305585800670087,-0.0002957389515358955,-0.009931777603924274,,,,,,,,,,,,,,,,,,,,
1778106176382381312,,,,,,,0.8715149164199829,1,0.05426404252648354,1,0.1033420562744141,1,-0.1143028736114502,1,0.00649725878611207,1,0.1119201704859734,1,3,1,0.1768926680088043,1,0.3051459193229675,1,9.800305366516113,1
1778106176385032192,0.06242147833108902,-0.02568326890468597,-1.000734686851501,0.0006800859700888395,-0.0001764064800227061,-0.009986170567572117,,,,,,,,,,,,,,,,,,,,
1778106176392074752,,,,,,,0.8820173144340515,1,0.05598741769790649,1,0.02102621458470821,1,-0.1130256056785583,1,0.01652334444224834,1,0.1017829328775406,1,3,1,0.1756067425012589,1,0.2938463091850281,1,9.800673484802246,1
1778106176395091712,0.06176736950874329,-0.01968487538397312,-0.9894437789916992,0.0006170317647047341,-0.0001264414167962968,-0.00976115744560957,,,,,,,,,,,,,,,,,,,,
1778106176402119168,,,,,,,0.8992170095443726,1,0.05149762332439423,1,-0.1297812014818192,1,-0.09324230998754501,1,0.004747990984469652,1,0.0872107595205307,1,3,1,0.1751231551170349,1,0.284173458814621,1,9.800967216491699,1
1778106176405131776,0.05720975622534752,-0.01804734207689762,-0.9783782958984375,0.0005072657950222492,-0.0001584806595928967,-0.009658943861722946,,,,,,,,,,,,,,,,,,,,
1778106176412144128,,,,,,,0.8848081231117249,1,-0.01300373487174511,1,-0.2038904577493668,1,-0.08163800090551376,1,-0.008093963377177715,1,0.07738064229488373,1,3,1,0.1758971512317657,1,0.2762094140052795,1,9.801180839538574,1
1778106176415151872,0.05566173791885376,-0.01810074597597122,-0.9742945432662964,0.0005444349953904748,-0.0001867095415946096,-0.009697794914245605,,,,,,,,,,,,,,,,,,,,
1778106176422149376,,,,,,,0.8218159079551697,1,-0.08333352953195572,1,-0.1678278595209122,1,-0.09817443788051605,1,-0.009177044034004211,1,0.08471474796533585,1,3,1,0.1769956946372986,1,0.2667723894119263,1,9.801423072814941,1
1778106176425152256,0.05468038469552994,-0.01815886795520782,-0.9769617915153503,0.0005334152956493199,-0.000189097088878043,-0.009782641194760799,,,,,,,,,,,,,,,,,,,,
1778106176432134656,,,,,,,0.7810177206993103,1,-0.1010444760322571,1,-0.09192850440740585,1,-0.1113964021205902,1,-0.01041409559547901,1,0.09508338570594788,1,3,1,0.1781561374664307,1,0.2556765079498291,1,9.801697731018066,1
1778106176435132928,0.05133869871497154,-0.02110322937369347,-0.9804445505142212,0.0004925655666738749,-0.0002483144635334611,-0.009842541068792343,,,,,,,,,,,,,,,,,,,,
1778106176442099968,,,,,,,0.7454471588134766,1,-0.06605888158082962,1,-0.02976156212389469,1,-0.1178658530116081,1,0.001082959119230509,1,0.0948345735669136,1,3,1,0.1786225885152817,1,0.2438603192567825,1,9.801990509033203,1
1778106176445093888,0.04677074775099754,-0.02231654711067677,-0.989014208316803,0.0004227102035656571,-0.0002278395841130987,-0.010007762350142,,,,,,,,,,,,,,,,,,,,
1778106176452045568,,,,,,,0.7903152108192444,1,-0.001431388780474663,1,-0.0120403915643692,1,-0.1037953346967697,1,-0.00620054267346859,1,0.08975187689065933,1,3,1,0.1791390776634216,1,0.2334462404251099,1,9.802234649658203,1
1778106176455034880,0.03418409824371338,-0.02347820065915585,-0.9857480525970459,0.0001955127372639254,-0.0002500395348761231,-0.009821473620831966,,,,,,,,,,,,,,,,,,,,
1778106176461971456,,,,,,,0.7846760749816895,1,0.04720012843608856,1,0.09892734885215759,1,-0.08913435786962509,1,-0.006654443219304085,1,0.0790804922580719,1,3,1,0.1802088767290115,1,0.2245931327342987,1,9.802421569824219,1
1778106176464956160,0.02378063835203648,-0.02185239642858505,-0.9931183457374573,0.000111772671516519,-0.0002098366385325789,-0.01000471692532301,,,,,,,,,,,,,,,,,,,,
1778106176471877888,,,,,,,0.7404841184616089,1,0.05383124947547913,1,0.2076620608568192,1,-0.08875997364521027,1,0.008536715991795063,1,0.07735853642225266,1,3,1,0.179734393954277,1,0.2160672694444656,1,9.802621841430664,1
1778106176474857472,0.02348366938531399,-0.01478821039199829,-1.011574983596802,0.0002247996308142319,-7.224097498692572e-05,-0.01032239571213722,,,,,,,,,,,,,,,,,,,,
1778106176481764608,,,,,,,0.7251098155975342,1,0.04378984123468399,1,0.247933492064476,1,-0.1033822447061539,1,0.01704131625592709,1,0.07613933831453323,1,3,1,0.178403839468956,1,0.2057959288358688,1,9.80286693572998,1
1778106176484739584,0.01877609081566334,-0.0115217138081789,-1.026195168495178,0.0001313696557190269,-8.22387301013805e-05,-0.01042871922254562,,,,,,,,,,,,,,,,,,,,
1778106176491631872,,,,,,,0.7144705057144165,1,0.03331834822893143,1,0.2220136225223541,1,-0.1007931679487228,1,0.02740968205034733,1,0.07304986566305161,1,3,1,0.175984114408493,1,0.1955840587615967,1,9.803119659423828,1
1778106176494601984,0.0190951693803072,-0.006778509356081486,-1.0393887758255,0.0002002380788326263,-1.35459640659974e-05,-0.01055733114480972,,,,,,,,,,,,,,,,,,,,
1778106176501479936,,,,,,,0.680205225944519,1,-0.005202681757509708,1,0.1880889385938644,1,-0.09032489359378815,1,0.01536959130316973,1,0.06844761967658997,1,3,1,0.1744656562805176,1,0.1866918802261353,1,9.80332088470459,1
1778106176504444416,0.01451679226011038,-0.004330530762672424,-1.029900074005127,0.0001096958294510841,-1.694093953119591e-05,-0.01018853113055229,,,,,,,,,,,,,,,,,,,,
1778106176511308288,,,,,,,0.634040355682373,1,-0.02600038424134254,1,0.1042552813887596,1,-0.0675189420580864,1,0.004643970169126987,1,0.06341628730297089,1,3,1,0.1736293137073517,1,0.1796275824308395,1,9.803467750549316,1
1778106176514267904,0.01401710323989391,-0.004549778532236814,-1.010648250579834,0.000139953030156903,-3.734483107109554e-05,-0.00989181362092495,,,,,,,,,,,,,,,,,,,,
1778106176521116928,,,,,,,0.5098715424537659,1,-0.04521237686276436,1,0.1364514976739883,1,-0.06776904314756393,1,0.0006038571009412408,1,0.06008062139153481,1,3,1,0.1737988740205765,1,0.173024520277977,1,9.803583145141602,1
1778106176524445952,0.02304886840283871,-0.0035082942340523,-0.9953919649124146,0.0003195200115442276,-1.336004243057687e-05,-0.00978940911591053,,,,,,,,,,,,,,,,,,,,
1778106176530906112,,,,,,,0.4071927666664124,1,-0.03689530119299889,1,0.06432675570249557,1,-0.07999584823846817,1,0.0125974640250206,1,0.0591723695397377,1,3,1,0.1727045029401779,1,0.1651005297899246,1,9.803738594055176,1
1778106176534603776,0.02988158911466599,-0.002517825691029429,-0.9811356067657471,0.000378523109247908,-1.847784915298689e-05,-0.009646633639931679,,,,,,,,,,,,,,,,,,,,
1778106176540675840,,,,,,,0.4035457074642181,1,0.02452681213617325,1,-0.1165182366967201,1,-0.07620559632778168,1,-0.0004734292160719633,1,0.05236362665891647,1,3,1,0.1724530458450317,1,0.1571616232395172,1,9.803874015808105,1
1778106176544741376,0.03083329647779465,-0.006383715663105249,-0.9634341597557068,0.000319090235279873,-0.0001111028832383454,-0.009429981000721455,,,,,,,,,,,,,,,,,,,,
1778106176550426112,,,,,,,0.3572787642478943,1,0.04916337877511978,1,-0.259764701128006,1,-0.06321759521961212,1,-0.00708033237606287,1,0.04768215492367744,1,3,1,0.1733480244874954,1,0.1508615463972092,1,9.803956985473633,1
1778106176554859008,0.02720032259821892,-0.009308339096605778,-0.9553327560424805,0.0002267836971441284,-0.0001296872942475602,-0.009453862905502319,,,,,,,,,,,,,,,,,,,,
1778106176560156928,,,,,,,0.3609569072723389,1,0.08906809985637665,1,-0.3890514671802521,1,-0.0489177368581295,1,-0.02252436801791191,1,0.05091815441846848,1,3,1,0.175310030579567,1,0.1457482129335403,1,9.803999900817871,1
1778106176564956672,0.02200909145176411,-0.006506529171019793,-0.9625805616378784,0.0001710087963147089,-4.161728429608047e-05,-0.009691685438156128,,,,,,,,,,,,,,,,,,,,
1778106176569868544,,,,,,,0.3177380859851837,1,0.1074226647615433,1,-0.2959398925304413,1,-0.04395134747028351,1,-0.0292561911046505,1,0.05427712202072144,1,3,1,0.1786109358072281,1,0.1414009630680084,1,9.804003715515137,1
1778106176575034368,0.02311834134161472,-0.002751107094809413,-0.9826275706291199,0.000235453320783563,1.259332293557236e-05,-0.01004527695477009,,,,,,,,,,,,,,,,,,,,
1778106176579748096,,,,,,,0.3146946728229523,1,0.1003422439098358,1,-0.1071023792028427,1,-0.03523441404104233,1,-0.01354947686195374,1,0.05998341366648674,1,3,1,0.1799582839012146,1,0.1375226378440857,1,9.804034233093262,1
1778106176585091840,0.01960207149386406,-0.0009274358162656426,-1.005730867385864,0.0001557329087518156,1.765849447110668e-05,-0.01033076178282499,,,,,,,,,,,,,,,,,,,,
1778106176589795072,,,,,,,0.4046162068843842,1,0.1061326190829277,1,0.04255201667547226,1,-0.03435395658016205,1,-0.005086283665150404,1,0.04259620979428291,1,3,1,0.1803770810365677,1,0.133905827999115,1,9.804076194763184,1
1778106176595129088,0.02227015607059002,-0.0009439908899366856,-1.029094815254211,0.000249501084908843,-6.409475645341445e-06,-0.01054701860994101,,,,,,,,,,,,,,,,,,,,
1778106176599822592,,,,,,,0.4725393354892731,1,0.1120632961392403,1,0.1823964715003967,1,-0.01594429090619087,1,-0.00436832569539547,1,0.03635559603571892,1,3,1,0.1807678043842316,1,0.1316423267126083,1,9.804100036621094,1
1778106176605146368,0.02137234248220921,-0.007330723572522402,-1.035354733467102,0.000219580892007798,-0.0001327128265984356,-0.01044612471014261,,,,,,,,,,,,,,,,,,,,
1778106176609829888,,,,,,,0.4826028645038605,1,0.07169358432292938,1,0.3560097217559814,1,-0.007021363358944654,1,-0.002522951457649469,1,0.03402653709053993,1,3,1,0.1812138110399246,1,0.131099745631218,1,9.804099082946777,1
1778106176615144192,0.01854892633855343,-0.007339888252317905,-1.034674167633057,0.0001485135580878705,-6.441158620873466e-05,-0.01036999654024839,,,,,,,,,,,,,,,,,,,,
1778106176619817472,,,,,,,0.4472788572311401,1,0.04111136123538017,1,0.4354780614376068,1,-0.02159879170358181,1,0.008280437439680099,1,0.03940915316343307,1,3,1,0.1805566251277924,1,0.1292230188846588,1,9.804136276245117,1
1778106176625122048,0.01944452151656151,-0.007954180240631104,-1.013948082923889,0.0001944446266861632,-0.000102590216556564,-0.009904193691909313,,,,,,,,,,,,,,,,,,,,
1778106176629785344,,,,,,,0.396060973405838,1,0.06620109081268311,1,0.3644383251667023,1,-0.03254183381795883,1,0.01361358817666769,1,0.04775559157133102,1,3,1,0.1793326735496521,1,0.1258076131343842,1,9.804203033447266,1
1778106176635080960,0.02170154638588428,-0.008875944651663303,-0.9770883917808533,0.0002343859669053927,-9.669284918345511e-05,-0.009353898465633392,,,,,,,,,,,,,,,,,,,,
1778106176639733248,,,,,,,0.4061522483825684,1,0.1004538685083389,1,0.1678929030895233,1,-0.0235019139945507,1,0.009778593666851521,1,0.04632667824625969,1,3,1,0.1781384348869324,1,0.1234374269843102,1,9.804254531860352,1
1778106176645019904,0.02669576369225979,-0.01086098607629538,-0.9501118063926697,0.0003134481084998697,-0.0001308765786234289,-0.009187933057546616,,,,,,,,,,,,,,,,,,,,
1778106176649661440,,,,,,,0.3710539042949677,1,0.116209402680397,1,-0.05863362550735474,1,-0.007236677221953869,1,0.002973646624013782,1,0.03589402511715889,1,3,1,0.1780208796262741,1,0.1225183233618736,1,9.804268836975098,1
1778106176654938880,0.0268916804343462,-0.01199919823557138,-0.9435989856719971,0.0002668843371793628,-0.0001350809034192935,-0.009339766576886177,,,,,,,,,,,,,,,,,,,,
1778106176659569664,,,,,,,0.3967812061309814,1,0.1149658784270287,1,-0.2877330780029297,1,0.01299620047211647,1,0.003391391830518842,1,0.026002312079072,1,3,1,0.1777326315641403,1,0.1234830245375633,1,9.804262161254883,1
1778106176664838656,0.02550585195422173,-0.01367850322276354,-0.955390453338623,0.0002362154627917334,-0.0001615823566680774,-0.009675164707005024,,,,,,,,,,,,,,,,,,,,
1778106176669458432,,,,,,,0.3880394101142883,1,0.0527820885181427,1,-0.3491291701793671,1,0.02239069528877735,1,-0.01736926473677158,1,0.02598542533814907,1,3,1,0.179301455616951,1,0.126127690076828,1,9.80419921875,1
1778106176674718464,0.01695795170962811,-0.02127568237483501,-0.9639994502067566,9.381968266097829e-05,-0.0003047921636607498,-0.009739751927554607,,,,,,,,,,,,,,,,,,,,
1778106176679327488,,,,,,,0.3610839545726776,1,0.05397776141762733,1,-0.3424839377403259,1,0.0343628041446209,1,-0.01758166588842869,1,0.03268329054117203,1,3,1,0.1807428300380707,1,0.1288513541221619,1,9.804137229919434,1
1778106176684578816,0.01147775631397963,-0.02496637403964996,-0.9856646060943604,3.038488102902193e-05,-0.0002967537438962609,-0.01009146776050329,,,,,,,,,,,,,,,,,,,,
1778106176689177600,,,,,,,0.3709580302238464,1,0.05004024505615234,1,-0.1392784714698792,1,0.03032426536083221,1,-0.01935911737382412,1,0.0417093001306057,1,3,1,0.182331383228302,1,0.1316428184509277,1,9.804071426391602,1
1778106176694419200,0.006905737332999706,-0.02864559553563595,-1.011579513549805,2.629772825457621e-05,-0.0003268881991971284,-0.01041266229003668,,,,,,,,,,,,,,,,,,,,
1778106176699008256,,,,,,,0.3945545256137848,1,0.04370338842272758,1,0.222127839922905,1,0.03799945861101151,1,-0.00939739216119051,1,0.03368774056434631,1,3,1,0.1838429868221283,1,0.1354554295539856,1,9.803991317749023,1
1778106176704427264,0.0005581669392995536,-0.03280898556113243,-1.037461161613464,-6.637966725975275e-05,-0.0003723865665961057,-0.01067959051579237,,,,,,,,,,,,,,,,,,,,
1778106176708819456,,,,,,,0.4442437291145325,1,0.02733535133302212,1,0.4866228103637695,1,0.03825236856937408,1,0.009165135212242603,1,0.02167481184005737,1,3,1,0.1828747987747192,1,0.1390202343463898,1,9.803958892822266,1
1778106176714602240,-0.007858744822442532,-0.03191507235169411,-1.058092713356018,-0.0001895136083476245,-0.0003122686175629497,-0.01082745380699635,,,,,,,,,,,,,,,,,,,,
1778106176718611456,,,,,,,0.4458721876144409,1,0.01952333748340607,1,0.5504509806632996,1,0.04263773187994957,1,0.02733352221548557,1,0.001514922827482224,1,3,1,0.1806812137365341,1,0.1428509056568146,1,9.80394458770752,1
1778106176724757248,-0.01513813808560371,-0.03602892160415649,-1.052337050437927,-0.0002423976693535224,-0.0004027719260193408,-0.01049419865012169,,,,,,,,,,,,,,,,,,,,
1778106176728383744,,,,,,,0.4308764636516571,1,0.00696473428979516,1,0.4347865283489227,1,0.05257143452763557,1,0.02742522209882736,1,0.00391099601984024,1,3,1,0.1780136674642563,1,0.1478328853845596,1,9.803919792175293,1
1778106176734892032,-0.01710096932947636,-0.0348120890557766,-1.028096795082092,-0.0002098620461765677,-0.0003408244519960135,-0.01000259816646576,,,,,,,,,,,,,,,,,,,,
1778106176738136576,,,,,,,0.3453801274299622,1,-0.06316735595464706,1,0.3503277003765106,1,0.03998823463916779,1,0.021302105858922,1,0.007727551274001598,1,3,1,0.176304042339325,1,0.152190625667572,1,9.80388355255127,1
1778106176745006592,-0.01101384777575731,-0.03471031785011292,-0.9961310029029846,-4.22760822402779e-05,-0.0003418999840505421,-0.009604701772332191,,,,,,,,,,,,,,,,,,,,
1778106176747869952,,,,,,,0.2895137667655945,1,-0.09538418799638748,1,0.1378438025712967,1,0.03314439207315445,1,0.03368343785405159,1,0.006664818152785301,1,3,1,0.1730549782514572,1,0.1554475724697113,1,9.803890228271484,1
1778106176755100928,-0.01272126380354166,-0.03617985546588898,-0.9633350372314453,-0.0001358507288387045,-0.000380334269721061,-0.009251009672880173,,,,,,,,,,,,,,,,,,,,
1778106176757584128,,,,,,,0.2424629628658295,1,-0.1277241110801697,1,-0.1163120493292809,1,0.03976733610033989,1,0.01483441982418299,1,-0.002119483426213264,1,3,1,0.1715808659791946,1,0.1592226624488831,1,9.803855895996094,1
1778106176765175552,-0.01571850851178169,-0.04057863727211952,-0.9382050037384033,-0.0001783738698577508,-0.0004524780088104308,-0.009083389304578304,,,,,,,,,,,,,,,,,,,,
1778106176767465984,,,,,,,0.178555354475975,1,-0.1645169258117676,1,-0.3701577484607697,1,0.04990005493164062,1,0.004356091842055321,1,-0.01724864915013313,1,3,1,0.1709498912096024,1,0.1640395373106003,1,9.803787231445312,1
1778106176775229952,-0.01930063776671886,-0.04123059287667274,-0.9406691789627075,-0.0002283832000102848,-0.0004180743126198649,-0.009404645301401615,,,,,,,,,,,,,,,,,,,,
1778106176777515008,,,,,,,0.09507919102907181,1,-0.1513379067182541,1,-0.5725407600402832,1,0.06103107333183289,1,-0.008675992488861084,1,-0.01862088777124882,1,3,1,0.1713273227214813,1,0.1691491156816483,1,9.803693771362305,1
1778106176785264384,-0.01499402150511742,-0.0407579205930233,-0.9582399725914001,-0.0001114220940507948,-0.0003986566734965891,-0.009772127494215965,,,,,,,,,,,,,,,,,,,,
1778106176787544320,,,,,,,0.02376756072044373,1,-0.1864115595817566,1,-0.5161880254745483,1,0.06447786092758179,1,-0.01491377782076597,1,-0.008722119033336639,1,3,1,0.1728882938623428,1,0.1757495850324631,1,9.803550720214844,1
1778106176795279104,-0.01038811355829239,-0.04063344374299049,-0.9895796775817871,-4.746067133964971e-05,-0.0003961880865972489,-0.01025875471532345,,,,,,,,,,,,,,,,,,,,
1778106176797553664,,,,,,,0.00497546698898077,1,-0.1692525595426559,1,-0.2785723507404327,1,0.04427554085850716,1,-0.002525595715269446,1,-0.007353059481829405,1,3,1,0.1732571125030518,1,0.180035725235939,1,9.803466796875,1
1778106176805274368,-0.008973222225904465,-0.04373621940612793,-1.018674373626709,-8.146064647007734e-05,-0.0004766383208334446,-0.0105197923257947,,,,,,,,,,,,,,,,,,,,
1778106176807542784,,,,,,,0.06510639190673828,1,-0.1633841097354889,1,0.03480987623333931,1,0.04906116425991058,1,-0.008609001524746418,1,-0.01969071850180626,1,3,1,0.1739681959152222,1,0.1847679167985916,1,9.803365707397461,1
1778106176815249664,-0.0126463258638978,-0.04390521720051765,-1.041480541229248,-0.0001529764413135126,-0.0004599583335220814,-0.01066172309219837,,,,,,,,,,,,,,,,,,,,
1778106176817512192,,,,,,,0.04901885613799095,1,-0.172818511724472,1,0.3563262522220612,1,0.0566585585474968,1,-0.005651562474668026,1,-0.03485627844929695,1,3,1,0.1747566908597946,1,0.1901713907718658,1,9.803248405456543,1
1778106176825204992,-0.01277696713805199,-0.04515854269266129,-1.035847306251526,-0.000117163042887114,-0.0004521877854131162,-0.0103229433298111,,,,,,,,,,,,,,,,,,,,
1778106176827462144,,,,,,,0.02002329938113689,1,-0.210560530424118,1,0.6026593446731567,1,0.05183185264468193,1,-4.037865437567234e-06,1,-0.04498499631881714,1,3,1,0.1746006458997726,1,0.1958732604980469,1,9.803138732910156,1
1778106176835140608,-0.01149905100464821,-0.04260909557342529,-1.007150173187256,-0.000101557292509824,-0.0003968454257119447,-0.009760167449712753,,,,,,,,,,,,,,,,,,,,
1778106176837392128,,,,,,,-0.0151665024459362,1,-0.2120669633150101,1,0.5784014463424683,1,0.0315091609954834,1,0.01056379266083241,1,-0.04673340171575546,1,3,1,0.1735610812902451,1,0.1992992013692856,1,9.803088188171387,1
1778106176845056768,-0.008038663305342197,-0.0385272204875946,-0.9742622375488281,-3.004889731528237e-05,-0.0003350573824718595,-0.009374795481562614,,,,,,,,,,,,,,,,,,,,
1778106176847302144,,,,,,,0.02629455551505089,1,-0.2034881561994553,1,0.4060265421867371,1,0.0226532407104969,1,0.01324168965220451,1,-0.04402662441134453,1,3,1,0.1718374937772751,1,0.201817512512207,1,9.803067207336426,1
1778106176854952960,-0.01414983347058296,-0.04072960093617439,-0.953658401966095,-0.0002151047519873828,-0.0004348959191702306,-0.00926628801971674,,,,,,,,,,,,,,,,,,,,
1778106176857193216,,,,,,,0.07063505053520203,1,-0.1991250067949295,1,0.09864089637994766,1,0.02563952840864658,1,-3.964512143284082e-05,1,-0.05510738864541054,1,3,1,0.1715135723352432,1,0.2041517198085785,1,9.803024291992188,1
1778106176864829696,-0.00915942620486021,-0.04011419042944908,-0.972036600112915,-3.524115891195834e-05,-0.0004012706922367215,-0.009913163259625435,,,,,,,,,,,,,,,,,,,,
1778106176867064832,,,,,,,0.08401470631361008,1,-0.226634755730629,1,-0.1867319941520691,1,0.02650952152907848,1,-0.0003344974247738719,1,-0.06035960838198662,1,3,1,0.171369731426239,1,0.2068272531032562,1,9.802970886230469,1
1778106176874686976,-0.001928777201101184,-0.03521282970905304,-1.005335569381714,6.355936056934297e-05,-0.0003066342324018478,-0.01041651424020529,,,,,,,,,,,,,,,,,,,,
1778106176876916480,,,,,,,0.04813548922538757,1,-0.2256037294864655,1,-0.4104418158531189,1,0.02257244102656841,1,-0.01516939699649811,1,-0.05587770789861679,1,3,1,0.1729391068220139,1,0.2090443074703217,1,9.802896499633789,1
1778106176884524544,-0.007994708605110645,-0.03531142324209213,-1.013323664665222,-0.00012077612336725,-0.0003392284561414272,-0.01025440637022257,,,,,,,,,,,,,,,,,,,,
1778106176886748672,,,,,,,0.04801125824451447,1,-0.2348718047142029,1,-0.3552830815315247,1,0.03187472000718117,1,-0.02913531288504601,1,-0.04449110850691795,1,3,1,0.1758676767349243,1,0.2129177302122116,1,9.802761077880859,1
1778106176894523392,-0.01787238009274006,-0.03639358654618263,-1.023200273513794,-0.0002973742375615984,-0.0003682974784169346,-0.01033981796354055,,,,,,,,,,,,,,,,,,,,
