FILE_INFO
ListSeparator=,
DecimalSeparator=.

SESSION_INFO
TimeZone,UTC
TimeZoneOffset,0
DateTimeFormat,nnnnnnnnnnnnnnnnnnn
StartTime,01/01/70 00:00:00.000000000
TimeFormat,Unix

DEVICE_INFO
Address,*

CHANNEL_INFO
Channel,Type,SampleRate,Equation,Coefficients,Unit,UnitSymbol,WhereApplied,WhenApplied
inertial-6286.188861:scaledAccelX,Timeseries,100Hz,,,,,,
inertial-6286.188861:scaledAccelY,Timeseries,100Hz,,,,,,
inertial-6286.188861:scaledAccelZ,Timeseries,100Hz,,,,,,
inertial-6286.188861:deltaVelX,Timeseries,100Hz,,,,,,
inertial-6286.188861:deltaVelY,Timeseries,100Hz,,,,,,
inertial-6286.188861:deltaVelZ,Timeseries,100Hz,,,,,,
inertial-6286.188861:estLinearAccelX,Timeseries,100Hz,,,,,,
inertial-6286.188861:estLinearAccelX:valid,ValidFlag,100Hz,,,,,,
inertial-6286.188861:estLinearAccelY,Timeseries,100Hz,,,,,,
inertial-6286.188861:estLinearAccelY:valid,ValidFlag,100Hz,,,,,,
inertial-6286.188861:estLinearAccelZ,Timeseries,100Hz,,,,,,
inertial-6286.188861:estLinearAccelZ:valid,ValidFlag,100Hz,,,,,,
inertial-6286.188861:estAngularRateX,Timeseries,100Hz,,,,,,
inertial-6286.188861:estAngularRateX:valid,ValidFlag,100Hz,,,,,,
inertial-6286.188861:estAngularRateY,Timeseries,100Hz,,,,,,
inertial-6286.188861:estAngularRateY:valid,ValidFlag,100Hz,,,,,,
inertial-6286.188861:estAngularRateZ,Timeseries,100Hz,,,,,,
inertial-6286.188861:estAngularRateZ:valid,ValidFlag,100Hz,,,,,,
inertial-6286.188861:estFilterState,Timeseries,100Hz,,,,,,
inertial-6286.188861:estFilterStatusFlags,Timeseries,100Hz,,,,,,
inertial-6286.188861:estGravityVectorX,Timeseries,100Hz,,,,,,
inertial-6286.188861:estGravityVectorX:valid,ValidFlag,100Hz,,,,,,
inertial-6286.188861:estGravityVectorY,Timeseries,100Hz,,,,,,
inertial-6286.188861:estGravityVectorY:valid,ValidFlag,100Hz,,,,,,
inertial-6286.188861:estGravityVectorZ,Timeseries,100Hz,,,,,,
inertial-6286.188861:estGravityVectorZ:valid,ValidFlag,100Hz,,,,,,

DATA_START
Time,inertial-6286.188861:scaledAccelX,inertial-6286.188861:scaledAccelY,inertial-6286.188861:scaledAccelZ,inertial-6286.188861:deltaVelX,inertial-6286.188861:deltaVelY,inertial-6286.188861:deltaVelZ,inertial-6286.188861:estLinearAccelX,inertial-6286.188861:estLinearAccelX:valid,inertial-6286.188861:estLinearAccelY,inertial-6286.188861:estLinearAccelY:valid,inertial-6286.188861:estLinearAccelZ,inertial-6286.188861:estLinearAccelZ:valid,inertial-6286.188861:estAngularRateX,inertial-6286.188861:estAngularRateX:valid,inertial-6286.188861:estAngularRateY,inertial-6286.188861:estAngularRateY:valid,inertial-6286.188861:estAngularRateZ,inertial-6286.188861:estAngularRateZ:valid,inertial-6286.188861:estFilterState,inertial-6286.188861:estFilterStatusFlags,inertial-6286.188861:estGravityVectorX,inertial-6286.188861:estGravityVectorX:valid,inertial-6286.188861:estGravityVectorY,inertial-6286.188861:estGravityVectorY:valid,inertial-6286.188861:estGravityVectorZ,inertial-6286.188861:estGravityVectorZ:valid
1778106618911677952,,,,,,,-0.03646034747362137,1,0.02208269201219082,1,0.03110244311392307,1,0.02969533763825893,1,0.002414780668914318,1,-0.002284757094457746,1,2,1,0.128349244594574,1,0.636839747428894,1,9.78510856628418,1
1778106618915512576,-0.01455629710108042,-0.07038554549217224,-0.9925898313522339,-0.0001434974110452458,-0.0007227806490845978,-0.009938429109752178,,,,,,,,,,,,,,,,,,,,
1778106618921620992,,,,,,,-0.03930844366550446,1,0.05598296970129013,1,0.01857881993055344,1,0.034503523260355,1,0.0006134486175142229,1,-0.003771749790757895,1,2,1,0.1282735764980316,1,0.6401879191398621,1,9.784891128540039,1
1778106618925449472,-0.01468370668590069,-0.0708339661359787,-0.9941151738166809,-0.0001486088003730401,-0.0007126745767891407,-0.009958197362720966,,,,,,,,,,,,,,,,,,,,
1778106618931545088,,,,,,,-0.04187817499041557,1,0.07439502328634262,1,0.01836458407342434,1,0.04179450497031212,1,0.0006874750251881778,1,-0.005506054032593966,1,2,1,0.1281591951847076,1,0.6442275047302246,1,9.784626960754395,1
1778106618935366656,-0.01542403269559145,-0.07105549424886703,-0.9951329827308655,-0.0001613592758076265,-0.0007109965081326663,-0.009965092875063419,,,,,,,,,,,,,,,,,,,,
1778106618941449472,,,,,,,-0.03775588050484657,1,0.0658099427819252,1,0.03371358290314674,1,0.04572949931025505,1,0.001276937080547214,1,-0.008125511929392815,1,2,1,0.1280018985271454,1,0.6486940383911133,1,9.784334182739258,1
1778106618945264128,-0.01597833819687366,-0.07147810608148575,-0.9949137568473816,-0.0001665141026023775,-0.0007174531929194927,-0.009947555139660835,,,,,,,,,,,,,,,,,,,,
1778106618951333888,,,,,,,-0.02883008867502213,1,0.04057096689939499,1,0.04745488241314888,1,0.04786728695034981,1,0.0005087963072583079,1,-0.008229010738432407,1,2,1,0.1279142051935196,1,0.6533415913581848,1,9.784026145935059,1
1778106618955142144,-0.016070406883955,-0.0726407989859581,-0.9949535727500916,-0.000161816889885813,-0.0007372492109425366,-0.009949460625648499,,,,,,,,,,,,,,,,,,,,
1778106618961198848,,,,,,,-0.01898838393390179,1,0.008526716381311417,1,0.06120948866009712,1,0.04771095514297485,1,0.0005201644962653518,1,-0.007627091370522976,1,2,1,0.1407040506601334,1,0.658811092376709,1,9.783483505249023,1
1778106618965000448,-0.01595855131745338,-0.07427270710468292,-0.9940803647041321,-0.0001592236949363723,-0.0007592912879772484,-0.009931874461472034,,,,,,,,,,,,,,,,,,,,
1778106618971044352,,,,,,,-0.008851445280015469,1,-0.01732352003455162,1,0.06054989621043205,1,0.04712890461087227,1,0.001217717071995139,1,-0.006382504012435675,1,2,1,0.1405062824487686,1,0.6634251475334167,1,9.783174514770508,1
1778106618974839296,-0.01463199034333229,-0.07575241476297379,-0.9941495060920715,-0.0001318867143709213,-0.0007732901140116155,-0.009941271506249905,,,,,,,,,,,,,,,,,,,,
1778106618980870400,,,,,,,-0.004830620251595974,1,-0.02973018772900105,1,0.04942171275615692,1,0.04257169738411903,1,0.002651058835908771,1,-0.004693837370723486,1,2,1,0.1402325183153152,1,0.667641282081604,1,9.782892227172852,1
1778106618984840192,-0.01297635026276112,-0.07684768736362457,-0.9939582347869873,-0.0001106971176341176,-0.0007796658901497722,-0.009938299655914307,,,,,,,,,,,,,,,,,,,,
1778106618990676480,,,,,,,-0.005109845194965601,1,-0.02980401925742626,1,0.03415879979729652,1,0.03941589221358299,1,0.002496750093996525,1,-0.004033596720546484,1,2,1,0.1399385333061218,1,0.6715239882469177,1,9.78262996673584,1
1778106618995002368,-0.01102436520159245,-0.07744178175926208,-0.9941245317459106,-8.753364818403497e-05,-0.0007810578681528568,-0.00994408130645752,,,,,,,,,,,,,,,,,,,,
1778106619000463104,,,,,,,-0.01195397600531578,1,-0.02793066762387753,1,0.02389593981206417,1,0.03683048486709595,1,0.00171606324147433,1,-0.002929794834926724,1,2,1,0.1397311389446259,1,0.6751442551612854,1,9.782383918762207,1
1778106619005144576,-0.009865523315966129,-0.076621413230896,-0.9939879179000854,-8.559062553104013e-05,-0.0007580357487313449,-0.009937959723174572,,,,,,,,,,,,,,,,,,,,
1778106619010230784,,,,,,,-0.01726279780268669,1,-0.02825128845870495,1,0.02578138001263142,1,0.03693084046244621,1,0.002291976008564234,1,-0.004905405919998884,1,2,1,0.1394759714603424,1,0.678713321685791,1,9.782140731811523,1
1778106619015266816,-0.009427709504961967,-0.07478111982345581,-0.9928008913993835,-8.832635649014264e-05,-0.0007265671738423407,-0.009915153495967388,,,,,,,,,,,,,,,,,,,,
1778106619019979008,,,,,,,-0.01820096559822559,1,-0.03591699153184891,1,0.02513414807617664,1,0.03703989833593369,1,0.001280135242268443,1,-0.005641710013151169,1,2,1,0.1392914950847626,1,0.6823536157608032,1,9.781889915466309,1
1778106619019980008,,,,,,,-0.01716849207878113,1,-0.04822170361876488,1,0.03344212844967842,1,0.03710373118519783,1,7.765928603475913e-05,1,-0.006081648636609316,1,2,1,0.1392396539449692,1,0.6860098838806152,1,9.781635284423828,1
1778106619019981008,,,,,,,-0.004224712029099464,1,-0.05917177349328995,1,0.03251802921295166,1,0.03162920102477074,1,8.638430153951049e-05,1,-0.005563116632401943,1,2,1,0.1391622424125671,1,0.6891729831695557,1,9.781414031982422,1
1778106619019982008,,,,,,,0.01198032777756453,1,-0.06667622178792953,1,0.0341671034693718,1,0.02500552497804165,1,-0.0008176264818757772,1,-0.003918637987226248,1,2,1,0.1392242610454559,1,0.6917590498924255,1,9.781230926513672,1
1778106619019983008,,,,,,,0.0311164353042841,1,-0.06976667046546936,1,0.03234376758337021,1,0.01799418777227402,1,-0.0008701161714270711,1,-0.000898070982657373,1,2,1,0.1392537653446198,1,0.6936236023902893,1,9.781098365783691,1
1778106619019984008,,,,,,,0.04248110577464104,1,-0.05955850332975388,1,0.0335303395986557,1,0.01316830422729254,1,0.0003903237811755389,1,0.001821142854169011,1,2,1,0.1392157077789307,1,0.6949158906936646,1,9.781006813049316,1
1778106619019985008,,,,,,,0.04674901068210602,1,-0.03976666554808617,1,0.04504896700382233,1,0.01235305424779654,1,0.001221330254338682,1,0.003161729080602527,1,2,1,0.1391322612762451,1,0.6961429119110107,1,9.78092098236084,1
1778106619019986008,,,,,,,0.05040641129016876,1,-0.01271522603929043,1,0.03998233005404472,1,0.01244426984339952,1,0.0009564402280375361,1,0.001985779730603099,1,2,1,0.1389918178319931,1,0.6973463296890259,1,9.780837059020996,1
1778106619019987008,,,,,,,0.04495737701654434,1,0.004362450912594795,1,0.04417946562170982,1,0.01299372594803572,1,0.0009340268443338573,1,0.001520278281532228,1,2,1,0.1389251500368118,1,0.6986340880393982,1,9.780746459960938,1
1778106619019988008,,,,,,,0.04621138423681259,1,0.009583134204149246,1,0.03915387764573097,1,0.01523324009031057,1,0.0006686691776849329,1,-0.0002426376158837229,1,2,1,0.138862818479538,1,0.7000749111175537,1,9.780644416809082,1
1778106619019989008,,,,,,,0.050413578748703,1,-0.00145209243055433,1,0.03606658428907394,1,0.01558857224881649,1,0.0002806056581903249,1,-0.002177685499191284,1,2,1,0.1388160437345505,1,0.7015899419784546,1,9.780535697937012,1
1778106619019990008,,,,,,,0.05716943368315697,1,-0.02288750000298023,1,0.03395887464284897,1,0.01597821526229382,1,-0.001677394146099687,1,-0.002195662586018443,1,2,1,0.1389129757881165,1,0.7031765580177307,1,9.780420303344727,1
1778106619019991008,,,,,,,0.06437434256076813,1,-0.04289915412664413,1,0.03337349370121956,1,0.01129365526139736,1,-0.001485638087615371,1,-0.001210027374327183,1,2,1,0.1390606462955475,1,0.7043382525444031,1,9.780335426330566,1
1778106619019992008,,,,,,,0.0686662346124649,1,-0.06202223151922226,1,0.04017458856105804,1,0.007206857670098543,1,-0.0006136198644526303,1,0.0003182179643772542,1,2,1,0.139127179980278,1,0.7051053047180176,1,9.780279159545898,1
1778106619024289536,,,,,,,0.06350106745958328,1,-0.06249739974737167,1,0.05111424624919891,1,0.00445743789896369,1,0.0005856913048774004,1,0.0006521657342091203,1,2,1,0.1343885511159897,1,0.7130955457687378,1,9.779766082763672,1
1778106619025368576,-0.009046426974236965,-0.07217507064342499,-0.9933068752288818,-8.71273223310709e-05,-0.0006912138778716326,-0.009938159957528114,,,,,,,,,,,,,,,,,,,,
1778106619034375424,,,,,,,0.05257200077176094,1,-0.04374951869249344,1,0.04944950342178345,1,0.005269868765026331,1,0.001404773443937302,1,0.0001582415716256946,1,2,1,0.1342636495828629,1,0.7135998606681824,1,9.779730796813965,1
1778106619035450880,-0.00959458202123642,-0.0705752968788147,-0.9928689002990723,-0.000102075508038979,-0.0006860960274934769,-0.009923721663653851,,,,,,,,,,,,,,,,,,,,
1778106619044441088,,,,,,,0.04240378737449646,1,-0.01673964411020279,1,0.03980128839612007,1,0.007209401112049818,1,0.0006552492268383503,1,-0.0007283382583409548,1,2,1,0.1341492384672165,1,0.714284360408783,1,9.779682159423828,1
1778106619045512960,-0.009459380991756916,-0.07018271088600159,-0.9933715462684631,-9.385273006046191e-05,-0.0006953738047741354,-0.00993940606713295,,,,,,,,,,,,,,,,,,,,
1778106619054486528,,,,,,,0.0311398021876812,1,0.0006568856770172715,1,0.0346316359937191,1,0.007682737428694963,1,-0.0002132382360287011,1,-0.001839951146394014,1,2,1,0.1341337859630585,1,0.7150737047195435,1,9.779624938964844,1
1778106619055554816,-0.009024053812026978,-0.07145392149686813,-0.9936760663986206,-8.55784019222483e-05,-0.0007273043738678098,-0.009940497577190399,,,,,,,,,,,,,,,,,,,,
1778106619064512512,,,,,,,0.02322846651077271,1,-0.003022535936906934,1,0.02943622507154942,1,0.005887326784431934,1,-0.000323101005051285,1,-0.002847044728696346,1,2,1,0.1341614127159119,1,0.7156288027763367,1,9.779583930969238,1
1778106619065576704,-0.008332345634698868,-0.0737919956445694,-0.9938801527023315,-7.545817061327398e-05,-0.0007630611071363091,-0.009942375123500824,,,,,,,,,,,,,,,,,,,,
1778106619074518528,,,,,,,0.02099699340760708,1,-0.02650124952197075,1,0.02819898724555969,1,0.002275623613968492,1,-0.000327648245729506,1,-0.004011279437690973,1,2,1,0.1341651082038879,1,0.7159287929534912,1,9.779561996459961,1
1778106619075578624,-0.007603437174111605,-0.0759788379073143,-0.9939292669296265,-6.777526868972927e-05,-0.0007848117966204882,-0.009940034709870815,,,,,,,,,,,,,,,,,,,,
1778106619084504576,,,,,,,0.01869162730872631,1,-0.05762698501348495,1,0.03226757049560547,1,0.0004576255450956523,1,-5.242123734205961e-06,1,-0.003858130192384124,1,2,1,0.1341336816549301,1,0.7159647941589355,1,9.779560089111328,1
1778106619085560832,-0.007173643447458744,-0.07805152237415314,-0.9932268261909485,-6.587951793335378e-05,-0.0008048588642850518,-0.00992459524422884,,,,,,,,,,,,,,,,,,,,
1778106619094658048,,,,,,,0.01358633488416672,1,-0.07484006136655807,1,0.04605627059936523,1,-0.0001228088221978396,1,0.0002505225129425526,1,-0.004369558766484261,1,2,1,0.1341021209955215,1,0.7159191370010376,1,9.779562950134277,1
1778106619095523072,-0.007558124605566263,-0.07842793315649033,-0.992089569568634,-7.921471842564642e-05,-0.0007899394840933383,-0.009907703846693039,,,,,,,,,,,,,,,,,,,,
1778106619104978944,,,,,,,0.01436380762606859,1,-0.06275499612092972,1,0.08667493611574173,1,0.001588881481438875,1,-0.007003739941865206,1,-0.004020276013761759,1,2,1,0.1346487104892731,1,0.7161195874214172,1,9.779541015625,1
1778106619105466112,-0.008519171737134457,-0.0768314003944397,-0.9922385811805725,-9.603873331798241e-05,-0.0007514032768085599,-0.009923768229782581,,,,,,,,,,,,,,,,,,,,
1778106619115279360,,,,,,,0.009246116504073143,1,-0.02536094188690186,1,0.08658412843942642,1,0.001862863078713417,1,0.0008656217250972986,1,-0.007678976282477379,1,2,1,0.1346326470375061,1,0.7163928151130676,1,9.779520988464355,1
1778106619115389696,-0.009465819224715233,-0.07427661120891571,-0.9932092428207397,-0.0001054630920407362,-0.0007133538601920009,-0.009942680597305298,,,,,,,,,,,,,,,,,,,,
1778106619125293568,-0.01056309137493372,-0.07264723628759384,-0.9937266111373901,-0.0001186436566058546,-0.0007058640476316214,-0.009943896904587746,,,,,,,,,,,,,,,,,,,,
1778106619125558784,,,,,,,0.1522910445928574,1,0.04658001288771629,1,-0.1010283157229424,1,0.008305754512548447,1,0.009944931603968143,1,-0.02316180430352688,1,2,1,0.1331131160259247,1,0.7169897556304932,1,9.779498100280762,1
1778106619135177984,-0.01134312897920609,-0.07313054800033569,-0.9942489862442017,-0.0001229689951287583,-0.0007342419121414423,-0.009949175640940666,,,,,,,,,,,,,,,,,,,,
1778106619135817728,,,,,,,0.2932319045066833,1,0.05964845046401024,1,-0.1803066432476044,1,0.03334032744169235,1,-0.03257913887500763,1,-0.02746168151497841,1,2,1,0.1355015784502029,1,0.7202349901199341,1,9.779227256774902,1
1778106619145042688,-0.01155656389892101,-0.07560407370328903,-0.9943695068359375,-0.0001177493686554953,-0.0007834144053049386,-0.009945567697286606,,,,,,,,,,,,,,,,,,,,
1778106619146056704,,,,,,,0.2031311988830566,1,-0.04358844459056854,1,0.09512031078338623,1,0.02681485377252102,1,-0.02134348638355732,1,-0.01733056642115116,1,2,1,0.1380562633275986,1,0.723529040813446,1,9.778948783874512,1
1778106619154887680,-0.01178318448364735,-0.07882574200630188,-0.9939512014389038,-0.0001204681102535687,-0.0008254839922301471,-0.009935419075191021,,,,,,,,,,,,,,,,,,,,
1778106619156275200,,,,,,,0.1337491273880005,1,-0.1537500470876694,1,0.3188948333263397,1,-0.02433374896645546,1,0.03215675428509712,1,-0.003869517240673304,1,2,1,0.1350912153720856,1,0.7221327424049377,1,9.779092788696289,1
1778106619164712960,-0.01229819748550653,-0.08060590177774429,-0.9925434589385986,-0.0001300297153647989,-0.0008283380884677172,-0.009910877794027328,,,,,,,,,,,,,,,,,,,,
1778106619166473216,,,,,,,0.1233894899487495,1,-0.1220030039548874,1,0.161916196346283,1,-0.03478003293275833,1,0.02145222015678883,1,0.004833429120481014,1,2,1,0.1323560625314713,1,0.7184248566627502,1,9.779403686523438,1
1778106619174893568,-0.01222663465887308,-0.07939273864030838,-0.9883999824523926,-0.0001121907262131572,-0.0007819704478606582,-0.009834695607423782,,,,,,,,,,,,,,,,,,,,
1778106619176651008,,,,,,,0.03347735106945038,1,-0.05825464427471161,1,0.05232710763812065,1,-0.01263709738850594,1,-0.007967586629092693,1,0.005943143740296364,1,2,1,0.1327971071004868,1,0.7168809175491333,1,9.779510498046875,1
1778106619185054208,-0.01276890467852354,-0.07560207694768906,-0.9884073138237,-0.0001379693858325481,-0.0007129126461222768,-0.009885590523481369,,,,,,,,,,,,,,,,,,,,
1778106619186809600,,,,,,,-0.09721039235591888,1,-0.02511058375239372,1,0.09849106520414352,1,-0.02150433324277401,1,-0.005935377441346645,1,-0.002200219314545393,1,2,1,0.1335107535123825,1,0.7151046991348267,1,9.779630661010742,1
1778106619195194368,0.001856271177530289,-0.06829436868429184,-1.007537007331848,0.0001620952680241317,-0.0006005766335874796,-0.01026540622115135,,,,,,,,,,,,,,,,,,,,
1778106619196948224,,,,,,,-0.1752651482820511,1,-0.006699923425912857,1,0.06979875266551971,1,-0.02814980410039425,1,0.01091301348060369,1,-0.01159179117530584,1,2,1,0.1326202005147934,1,0.7123691439628601,1,9.779843330383301,1
1778106619205314048,0.01622376218438148,-0.06707859039306641,-1.015612483024597,0.0003473946999292821,-0.0006487477803602815,-0.01028659474104643,,,,,,,,,,,,,,,,,,,,
1778106619207066624,,,,,,,-0.158575251698494,1,-0.04091272875666618,1,-0.1214609593153,1,-0.02067519910633564,1,0.007714597508311272,1,-0.01651977375149727,1,2,1,0.1315185725688934,1,0.7102155089378357,1,9.780014038085938,1
1778106619215414272,0.006889217533171177,-0.07783741503953934,-0.9875075817108154,-1.980186425498687e-05,-0.0008876124629750848,-0.009580989368259907,,,,,,,,,,,,,,,,,,,,
1778106619217164800,,,,,,,-0.1313235014677048,1,-0.1501109749078751,1,-0.2054546177387238,1,-0.02993939258158207,1,-0.009610753506422043,1,-0.01052175834774971,1,2,1,0.1321669369935989,1,0.707622230052948,1,9.780193328857422,1
1778106619225494272,-0.0002303999790456146,-0.08923210948705673,-0.9646764397621155,-9.684830001788214e-05,-0.00102432572748512,-0.009340028278529644,,,,,,,,,,,,,,,,,,,,
1778106619227243264,,,,,,,-0.1175847351551056,1,-0.2084126472473145,1,-0.1333723664283752,1,-0.05070261284708977,1,-0.01457284018397331,1,0.002885346300899982,1,2,1,0.1291152089834213,1,0.7099378705024719,1,9.78006649017334,1
1778106619235554048,-0.001154313795268536,-0.08592467755079269,-0.9806907773017883,-2.144736572518013e-05,-0.0008290028781630099,-0.009976925328373909,,,,,,,,,,,,,,,,,,,,
1778106619237301504,,,,,,,-0.1000480577349663,1,-0.2134053558111191,1,0.03237997740507126,1,-0.07347680628299713,1,-0.01048912387341261,1,0.01731187105178833,1,2,1,0.130335345864296,1,0.7030895352363586,1,9.780545234680176,1
1778106619245593856,-0.01021476835012436,-0.07926934212446213,-0.9918786883354187,-0.0002002384571824223,-0.0007121022790670395,-0.01006289292126894,,,,,,,,,,,,,,,,,,,,
1778106619247339776,,,,,,,-0.0609763041138649,1,-0.1212684214115143,1,0.1318051666021347,1,-0.08806755393743515,1,-0.0008956629317253828,1,0.01927564293146133,1,2,1,0.1307230442762375,1,0.6944578886032104,1,9.781156539916992,1
1778106619255614464,-0.0235246978700161,-0.07574364542961121,-0.9871821403503418,-0.0003934960113838315,-0.0007216875092126429,-0.009820817038416862,,,,,,,,,,,,,,,,,,,,
1778106619257358080,,,,,,,0.007090579718351364,1,-0.005175654776394367,1,0.111648365855217,1,-0.08396869897842407,1,0.0004064596723765135,1,0.01028285548090935,1,2,1,0.1307160258293152,1,0.6860532760620117,1,9.781749725341797,1
1778106619265615616,-0.03146770969033241,-0.07367122918367386,-0.9901225566864014,-0.0004188238235656172,-0.0007159174419939518,-0.009918773546814919,,,,,,,,,,,,,,,,,,,,
1778106619267356416,,,,,,,0.07198266685009003,1,0.05079464241862297,1,0.06546231359243393,1,-0.07334870100021362,1,-0.01044795848429203,1,0.0003602326032705605,1,2,1,0.1316910684108734,1,0.678800106048584,1,9.782242774963379,1
1778106619275596800,-0.02969751693308353,-0.07693801075220108,-1.009642720222473,-0.0002813973696902394,-0.0008015610510483384,-0.01031774096190929,,,,,,,,,,,,,,,,,,,,
1778106619277335040,,,,,,,0.1034945622086525,1,0.04073239117860794,1,0.06769824028015137,1,-0.07125712186098099,1,-0.004828410223126411,1,-0.002682825084775686,1,2,1,0.1323915123939514,1,0.6718694567680359,1,9.782711982727051,1
1778106619285558016,-0.02687713503837585,-0.08785039931535721,-1.018224596977234,-0.0002316553727723658,-0.001002373639494181,-0.0102981049567461,,,,,,,,,,,,,,,,,,,,
1778106619287480576,,,,,,,0.1617263555526733,1,0.02727653644979,1,-0.00525945145636797,1,-0.07337826490402222,1,0.003543071448802948,1,0.0003883214667439461,1,2,1,0.131961777806282,1,0.6646085977554321,1,9.78321361541748,1
1778106619295499520,-0.02537036314606667,-0.09371326118707657,-1.010881662368774,-0.0002383736136835068,-0.001012717722915113,-0.01003314182162285,,,,,,,,,,,,,,,,,,,,
1778106619297792768,,,,,,,0.2409259080886841,1,0.0198935903608799,1,-0.08495279401540756,1,-0.07020566612482071,1,-0.005736150778830051,1,0.007478255312889814,1,2,1,0.1323738843202591,1,0.6576751470565796,1,9.783676147460938,1
1778106619305421312,-0.0235205702483654,-0.09400985389947891,-0.9939957857131958,-0.0002181895542889833,-0.000955322349909693,-0.009750922210514545,,,,,,,,,,,,,,,,,,,,
1778106619308084224,,,,,,,0.301345556974411,1,0.02360484749078751,1,-0.07202298939228058,1,-0.07229858636856079,1,-0.01139620970934629,1,0.01007750909775496,1,2,1,0.1335661709308624,1,0.6505754590034485,1,9.784134864807129,1
1778106619315323392,-0.01953879743814468,-0.08412344753742218,-0.983892560005188,-0.000154887035023421,-0.000740271934773773,-0.009711891412734985,,,,,,,,,,,,,,,,,,,,
1778106619318355456,,,,,,,0.3523022830486298,1,0.03968025743961334,1,0.01078569889068604,1,-0.06700913608074188,1,-0.01076247543096542,1,0.007971367798745632,1,2,1,0.1347469538450241,1,0.6439366936683655,1,9.784558296203613,1
1778106619325205760,-0.01260176673531532,-0.07161728292703629,-0.9859955310821533,-5.161018634680659e-05,-0.0005773566663265228,-0.009875352494418621,,,,,,,,,,,,,,,,,,,,
1778106619328606208,,,,,,,0.398792952299118,1,0.04777257516980171,1,0.09653402864933014,1,-0.05895246937870979,1,-0.007379059679806232,1,0.001726498943753541,1,2,1,0.1355979144573212,1,0.6380701661109924,1,9.784930229187012,1
1778106619335068416,-0.006011475808918476,-0.06518838554620743,-0.9907558560371399,2.021757973125204e-05,-0.0005758232437074184,-0.00996564794331789,,,,,,,,,,,,,,,,,,,,
1778106619338836480,,,,,,,0.4474824666976929,1,0.02975895628333092,1,0.1240624263882637,1,-0.05527477711439133,1,-0.0003400497371330857,1,-0.002949382644146681,1,2,1,0.1356938034296036,1,0.6327146887779236,1,9.785276412963867,1
1778106619344911872,-0.002857787767425179,-0.06549675017595291,-0.9905773997306824,9.726375537866261e-06,-0.0006561928894370794,-0.009905442595481873,,,,,,,,,,,,,,,,,,,,
1778106619349046784,,,,,,,0.5030809640884399,1,0.006425763480365276,1,0.08703011274337769,1,-0.06034743785858154,1,-0.001611613086424768,1,-0.004409319721162319,1,2,1,0.1358398795127869,1,0.6268752813339233,1,9.785650253295898,1
1778106619354735360,0.003051829989999533,-0.0661456510424614,-0.9980668425559998,9.246791159966961e-05,-0.0006739188102073967,-0.01005697995424271,,,,,,,,,,,,,,,,,,,,
1778106619359237632,,,,,,,0.5458765029907227,1,-0.002385012805461884,1,0.04678544774651527,1,-0.06125322356820107,1,-0.00776600418612361,1,-0.000484499876620248,1,2,1,0.136553630232811,1,0.6209496855735779,1,9.786018371582031,1
1778106619364912896,0.01111370138823986,-0.06617605686187744,-1.006242632865906,0.0002042812702711672,-0.0006654996541328728,-0.01016462501138449,,,,,,,,,,,,,,,,,,,,
1778106619369408256,,,,,,,0.581483781337738,1,0.006407956127077341,1,0.01732866652309895,1,-0.063858263194561,1,-0.005062709096819162,1,0.002899769227951765,1,2,1,0.136993333697319,1,0.6146379709243774,1,9.786411285400391,1
1778106619375069952,0.01722168736159801,-0.06507908552885056,-1.004972219467163,0.0002425003185635433,-0.0006446180632337928,-0.0100408960133791,,,,,,,,,,,,,,,,,,,,
1778106619379558656,,,,,,,0.6137164235115051,1,0.04279349371790886,1,-0.006135579198598862,1,-0.06221950799226761,1,-0.004563129041343927,1,0.004380860831588507,1,2,1,0.1374211460351944,1,0.6084977388381958,1,9.786788940429688,1
1778106619385207552,0.02233206667006016,-0.06272981315851212,-0.9965746998786926,0.0002848881122190505,-0.0006048357463441789,-0.009872812777757645,,,,,,,,,,,,,,,,,,,,
1778106619389688576,,,,,,,0.6333045959472656,1,0.08207466453313828,1,-0.005233405623584986,1,-0.05267098173499107,1,-0.005786915775388479,1,0.002129697473719716,1,2,1,0.1379852145910263,1,0.6032184958457947,1,9.787107467651367,1
1778106619395324672,0.02697927504777908,-0.06123010069131851,-0.9878745675086975,0.0003265584236942232,-0.0005948261823505163,-0.009777761995792389,,,,,,,,,,,,,,,,,,,,
1778106619399798784,,,,,,,0.6441299319267273,1,0.1093340963125229,1,0.02895179390907288,1,-0.04421417415142059,1,-0.005469620693475008,1,-0.001194580341689289,1,2,1,0.1384908854961395,1,0.5988022089004517,1,9.787371635437012,1
1778106619405421568,0.031874880194664,-0.06244488805532455,-0.9851074814796448,0.0003743673441931605,-0.0006376064848154783,-0.009813819080591202,,,,,,,,,,,,,,,,,,,,
1778106619409888768,,,,,,,0.6577240228652954,1,0.1137411594390869,1,0.0649171844124794,1,-0.03973276913166046,1,-0.004781786818057299,1,-0.0030115672852844,1,2,1,0.1389366984367371,1,0.5948905348777771,1,9.787603378295898,1
1778106619415498752,0.03750335797667503,-0.06422498822212219,-0.9889224171638489,0.0004411515255924314,-0.0006660799845121801,-0.009923484176397324,,,,,,,,,,,,,,,,,,,,
1778106619419958784,,,,,,,0.6784151792526245,1,0.08891420811414719,1,0.06898981332778931,1,-0.04219203069806099,1,-0.005258087534457445,1,-0.003822424216195941,1,2,1,0.139417365193367,1,0.5908032655715942,1,9.787844657897949,1
1778106619425556480,0.04182428121566772,-0.064522385597229,-0.9930646419525146,0.0004756421549245715,-0.0006484666955657303,-0.009982030838727951,,,,,,,,,,,,,,,,,,,,
1778106619430008576,,,,,,,0.6952089071273804,1,0.03619424998760223,1,0.05828940495848656,1,-0.04945052415132523,1,-0.005339796654880047,1,0.0001712841039989144,1,2,1,0.1387923061847687,1,0.584646463394165,1,9.788223266601562,1
1778106619435594496,0.0454053021967411,-0.06301072239875793,-0.9961071014404297,0.0004949294961988926,-0.0006159486947581172,-0.009996221400797367,,,,,,,,,,,,,,,,,,,,
1778106619440038656,,,,,,,0.7043516635894775,1,-0.01043994724750519,1,0.03932399302721024,1,-0.05569294095039368,1,-0.001968812895938754,1,0.001667613163590431,1,2,1,0.1390534043312073,1,0.5791617631912231,1,9.788545608520508,1
1778106619445612544,0.04864440113306046,-0.05867688730359077,-0.9985387325286865,0.0005218697478994727,-0.0005435164202935994,-0.01001208182424307,,,,,,,,,,,,,,,,,,,,
1778106619450048768,,,,,,,0.7097659707069397,1,-0.03361881524324417,1,0.01620711386203766,1,-0.05370679497718811,1,0.001750283176079392,1,0.003735816106200218,1,2,1,0.1389163285493851,1,0.5738205909729004,1,9.788862228393555,1
1778106619455610624,0.05059203878045082,-0.05406803637742996,-0.9984839558601379,0.0005295538576319814,-0.0004893390578217804,-0.009989011101424694,,,,,,,,,,,,,,,,,,,,
1778106619460038912,,,,,,,0.7074470520019531,1,-0.02132756449282169,1,0.008093328215181828,1,-0.05312233045697212,1,0.0006704186671413481,1,0.004544866271317005,1,2,1,0.1388474255800247,1,0.5686404705047607,1,9.789165496826172,1
1778106619465588736,0.05164384841918945,-0.0507396012544632,-0.9950315356254578,0.0005286499508656561,-0.000469083315692842,-0.009910780936479568,,,,,,,,,,,,,,,,,,,,
1778106619470009344,,,,,,,0.7008358836174011,1,0.0313166119158268,1,0.001527443062514067,1,-0.04888143762946129,1,-0.0002280457119923085,1,0.002801809925585985,1,2,1,0.1387960016727448,1,0.5636781454086304,1,9.78945255279541,1
1778106619475547392,0.05297950655221939,-0.04980209469795227,-0.9913936257362366,0.0005450890748761594,-0.0004863423528149724,-0.009871911257505417,,,,,,,,,,,,,,,,,,,,
1778106619480142592,,,,,,,0.6885316371917725,1,0.07862696051597595,1,0.02151140943169594,1,-0.04601062461733818,1,-0.002631340641528368,1,0.002668483648449183,1,2,1,0.1389828622341156,1,0.559206485748291,1,9.789706230163574,1
1778106619485486080,0.0550406202673912,-0.05188356712460518,-0.9910053014755249,0.000572660646867007,-0.0005412649479694664,-0.009901769459247589,,,,,,,,,,,,,,,,,,,,
1778106619490438144,,,,,,,0.6793442368507385,1,0.08765540271997452,1,0.03473920747637749,1,-0.04915089532732964,1,-0.0009932731045410037,1,0.001667561242356896,1,2,1,0.1391795724630356,1,0.5544365048408508,1,9.789975166320801,1
1778106619495404800,0.05673848092556,-0.05676420405507088,-0.9921263456344604,0.0005878125666640699,-0.0006249259458854795,-0.009935259819030762,,,,,,,,,,,,,,,,,,,,
1778106619500713472,,,,,,,0.7126483917236328,1,0.07999107241630554,1,-0.0190076045691967,1,-0.05418838933110237,1,0.003356965491548181,1,-0.001495165168307722,1,2,1,0.1388507634401321,1,0.5490724444389343,1,9.790282249450684,1
1778106619505304064,0.05766214057803154,-0.06098475307226181,-0.9940924048423767,0.0005872873007319868,-0.0006618969491682947,-0.00996137410402298,,,,,,,,,,,,,,,,,,,,
1778106619510968320,,,,,,,0.7864145040512085,1,0.06779778748750687,1,-0.1220382153987885,1,-0.04478069767355919,1,-0.0058759362436831,1,-0.006474511232227087,1,2,1,0.1393105387687683,1,0.5445935726165771,1,9.790525436401367,1
1778106619515183872,0.05820921435952187,-0.06280406564474106,-0.9964821338653564,0.0005875327624380589,-0.0006530026439577341,-0.009992559440433979,,,,,,,,,,,,,,,,,,,,
1778106619521203200,,,,,,,0.8709115386009216,1,0.03630231693387032,1,-0.1836182326078415,1,-0.03624408692121506,1,-0.01113010197877884,1,-0.01266034319996834,1,2,1,0.1404087543487549,1,0.5410378575325012,1,9.790707588195801,1
1778106619525043712,0.0579758882522583,-0.06101274490356445,-0.9973413348197937,0.0005778771592304111,-0.0005945290322415531,-0.009984808973968029,,,,,,,,,,,,,,,,,,,,
1778106619531417600,,,,,,,1.011003494262695,1,0.06971500813961029,1,-0.2498661130666733,1,-0.02488688193261623,1,-0.01640796102583408,1,-0.01228945702314377,1,2,1,0.1415131539106369,1,0.538158118724823,1,9.790849685668945,1
1778106619534884096,0.05730706453323364,-0.05511296540498734,-0.9980421662330627,0.0005645913770422339,-0.0004868641553912312,-0.00998977292329073,,,,,,,,,,,,,,,,,,,,
1778106619541612032,,,,,,,1.083380699157715,1,0.09001599997282028,1,-0.1682356595993042,1,-0.006892493925988674,1,-0.02666563540697098,1,-0.0130617143586278,1,2,1,0.1440691649913788,1,0.5375449061393738,1,9.790846824645996,1
1778106619544887552,0.05605099722743034,-0.04978670179843903,-0.9960334897041321,0.0005435280036181211,-0.0004374308919068426,-0.009938249364495277,,,,,,,,,,,,,,,,,,,,
1778106619551785984,,,,,,,1.097408771514893,1,0.1215973347425461,1,0.02556619793176651,1,-0.003025362733751535,1,-0.01922541484236717,1,-0.009051230736076832,1,2,1,0.1461393237113953,1,0.5373165607452393,1,9.790828704833984,1
1778106619555053568,0.05510092154145241,-0.04837760329246521,-0.9947125315666199,0.0005368577549234033,-0.000467283622128889,-0.009931090287864208,,,,,,,,,,,,,,,,,,,,
1778106619561939712,,,,,,,1.079992294311523,1,0.1330629885196686,1,0.2731416523456573,1,-0.01946339383721352,1,0.002048626076430082,1,-0.003270776709541678,1,2,1,0.1461784392595291,1,0.5357562899589539,1,9.790913581848145,1
1778106619565199872,0.05849630385637283,-0.04865383356809616,-1.000222086906433,0.0006135002477094531,-0.0004946997505612671,-0.01005486771464348,,,,,,,,,,,,,,,,,,,,
1778106619572073728,,,,,,,1.082018136978149,1,0.1792299747467041,1,0.3371383249759674,1,-0.01258494518697262,1,0.001833042479120195,1,-0.001541422680020332,1,2,1,0.1456213444471359,1,0.5341777205467224,1,9.791007995605469,1
1778106619575325696,0.06601493805646896,-0.049394391477108,-1.010756611824036,0.0007457212777808309,-0.0005060913390479982,-0.01022890117019415,,,,,,,,,,,,,,,,,,,,
1778106619582187264,,,,,,,1.023663282394409,1,0.1551024615764618,1,0.3930246829986572,1,-0.009771348908543587,1,0.004088379442691803,1,-0.007032531779259443,1,2,1,0.1451635360717773,1,0.5332261323928833,1,9.79106616973877,1
1778106619585431808,0.0745871514081955,-0.05215159431099892,-1.017060995101929,0.0008507794118486345,-0.0005494564538821578,-0.01024793647229671,,,,,,,,,,,,,,,,,,,,
1778106619592280832,,,,,,,0.9185248613357544,1,0.07510393857955933,1,0.3751736283302307,1,-0.007155640050768852,1,0.01523070782423019,1,-0.01142373960465193,1,2,1,0.1438883990049362,1,0.5326251983642578,1,9.791117668151855,1
1778106619595517696,0.08880618959665298,-0.04834356904029846,-1.023837924003601,0.001048554549925029,-0.0004517630732152611,-0.01031130272895098,,,,,,,,,,,,,,,,,,,,
1778106619602353920,,,,,,,0.8525024056434631,1,-0.01761505380272865,1,0.1955065429210663,1,-0.0176472757011652,1,0.02474862337112427,1,-0.01441404223442078,1,2,1,0.1413038372993469,1,0.5309664607048035,1,9.791245460510254,1
1778106619605583872,0.09605158865451813,-0.04599203541874886,-1.015527725219727,0.001051753526553512,-0.0004336440761107951,-0.01007577683776617,,,,,,,,,,,,,,,,,,,,
1778106619612407296,,,,,,,0.7975357174873352,1,-0.1030413806438446,1,-0.03430093824863434,1,-0.01876103132963181,1,0.01626999117434025,1,-0.01303752139210701,1,2,1,0.1396009624004364,1,0.5293514132499695,1,9.79135799407959,1
1778106619615630080,0.09729709476232529,-0.04260287806391716,-0.9957721829414368,0.0009961104951798916,-0.0003853067755699158,-0.009742517955601215,,,,,,,,,,,,,,,,,,,,
1778106619622440704,,,,,,,0.7513458728790283,1,-0.1375957578420639,1,-0.2092922031879425,1,-0.02724809572100639,1,0.002908245194703341,1,-0.004690020345151424,1,2,1,0.1389891654253006,1,0.526729941368103,1,9.791507720947266,1
1778106619625656064,0.09537815302610397,-0.04130232334136963,-0.970531702041626,0.0009344605496153235,-0.0004001276101917028,-0.009402403607964516,,,,,,,,,,,,,,,,,,,,
1778106619632454144,,,,,,,0.6888775825500488,1,-0.1171775460243225,1,-0.2295505553483963,1,-0.03165426105260849,1,-0.00897480733692646,1,0.005273438524454832,1,2,1,0.1393235176801682,1,0.5191100239753723,1,9.791910171508789,1
1778106619635662592,0.09553590416908264,-0.03643388673663139,-0.964013934135437,0.0009607062092982233,-0.0002988037012983114,-0.009566847234964371,,,,,,,,,,,,,,,,,,,,
1778106619642447616,,,,,,,0.6412457227706909,1,-0.05957760661840439,1,-0.08466698974370956,1,-0.03936325013637543,1,-0.01409151684492826,1,0.01303910557180643,1,2,1,0.1407199501991272,1,0.5154232978820801,1,9.792084693908691,1
1778106619645649152,0.08957463502883911,-0.03875818848609924,-0.9583224654197693,0.0008220067829824984,-0.0004135633062105626,-0.009507402777671814,,,,,,,,,,,,,,,,,,,,
1778106619652421120,,,,,,,0.5821484327316284,1,0.001375339459627867,1,0.1020103394985199,1,-0.0544244796037674,1,-0.005755621939897537,1,0.01860915496945381,1,2,1,0.1414671093225479,1,0.5103029608726501,1,9.792342185974121,1
1778106619655615744,0.07888571172952652,-0.04680862277746201,-0.9601490497589111,0.0006624749512411654,-0.000554851139895618,-0.00961657427251339,,,,,,,,,,,,,,,,,,,,
1778106619662375168,,,,,,,0.5650960803031921,1,0.05679570510983467,1,0.1932730078697205,1,-0.0602247416973114,1,0.002860858105123043,1,0.01561264786869287,1,2,1,0.1412605047225952,1,0.5043264031410217,1,9.792654991149902,1
1778106619665562368,0.07227293401956558,-0.0561494491994381,-0.9784780144691467,0.0006406655884347856,-0.0006758862291462719,-0.009976825676858425,,,,,,,,,,,,,,,,,,,,
1778106619672679680,,,,,,,0.5510661602020264,1,0.07783093303442001,1,0.1845158487558365,1,-0.05377072095870972,1,0.001471183029934764,1,0.0117232846096158,1,2,1,0.1411369442939758,1,0.4988842606544495,1,9.792935371398926,1
1778106619675489024,0.0668310672044754,-0.06472308188676834,-1.001921653747559,0.000605113513302058,-0.0007432278362102807,-0.01029226370155811,,,,,,,,,,,,,,,,,,,,
1778106619682963968,,,,,,,0.5308231115341187,1,0.049880251288414,1,0.1398502737283707,1,-0.05403033271431923,1,0.002218176377937198,1,0.009302458725869656,1,2,1,0.1410123854875565,1,0.4937105476856232,1,9.79319953918457,1
1778106619685396480,0.06226400658488274,-0.06806725263595581,-1.019777536392212,0.0005708892713300884,-0.0007260374841280282,-0.01040957681834698,,,,,,,,,,,,,,,,,,,,
1778106619693228032,,,,,,,0.496448427438736,1,0.01171109825372696,1,0.05535128340125084,1,-0.06024195998907089,1,0.004900309722870588,1,0.01263117790222168,1,2,1,0.1406383216381073,1,0.4878545105457306,1,9.793498039245605,1
1778106619695283968,0.05597154423594475,-0.06561136245727539,-1.021864652633667,0.0004895217716693878,-0.0006333850906230509,-0.0102569255977869,,,,,,,,,,,,,,,,,,,,
1778106619703471616,,,,,,,0.4651853442192078,1,-0.004032849334180355,1,-0.05166739225387573,1,-0.06062466651201248,1,0.0008021733374334872,1,0.01656767167150974,1,2,1,0.1405717432498932,1,0.4818398058414459,1,9.793796539306641,1
1778106619705151744,0.05110805854201317,-0.05930709466338158,-1.007113575935364,0.000460336304968223,-0.0005231660325080156,-0.00991247221827507,,,,,,,,,,,,,,,,,,,,
1778106619713694720,,,,,,,0.4540458619594574,1,0.005377234425395727,1,-0.1131535470485687,1,-0.05755593255162239,1,-0.001746030524373055,1,0.01677189767360687,1,2,1,0.1407618075609207,1,0.4761005043983459,1,9.794075012207031,1
1778106619714999808,0.04502686485648155,-0.05264764651656151,-0.9881004095077515,0.0003779854450840503,-0.0004512077430263162,-0.009658836759626865,,,,,,,,,,,,,,,,,,,,
1778106619723897856,,,,,,,0.4336355626583099,1,0.0258879866451025,1,-0.1007895022630692,1,-0.05324894562363625,1,-0.002317074686288834,1,0.01467623375356197,1,2,1,0.1410340368747711,1,0.4708797633647919,1,9.794322967529297,1
1778106619724828928,0.04325117915868759,-0.04648635163903236,-0.9788204431533813,0.0004021596105303615,-0.0003946333017665893,-0.009670211002230644,,,,,,,,,,,,,,,,,,,,
1778106619734081024,,,,,,,0.4106784760951996,1,0.05789721012115479,1,-0.04612686112523079,1,-0.04791188985109329,1,-0.004121619276702404,1,0.01267439126968384,1,2,1,0.1414608359336853,1,0.4660643041133881,1,9.794547080993652,1
1778106619734823424,0.04181018099188805,-0.04379745572805405,-0.9797415733337402,0.0003992324345745146,-0.0004062395018991083,-0.009802967309951782,,,,,,,,,,,,,,,,,,,,
1778106619744243712,,,,,,,0.31710085272789,1,0.07007548958063126,1,-0.02168140560388565,1,-0.05162318795919418,1,0.006577221676707268,1,0.009838463738560677,1,2,1,0.1411217004060745,1,0.4611808657646179,1,9.794783592224121,1
1778106619744983296,0.03974418342113495,-0.04611238092184067,-0.9843236804008484,0.0003742194676306099,-0.0004878467007074505,-0.009892712347209454,,,,,,,,,,,,,,,,,,,,
1778106619754386432,,,,,,,0.04912154749035835,1,0.08698949962854385,1,-0.4260309040546417,1,-0.05968684330582619,1,0.01766198873519897,1,0.003341755829751492,1,2,1,0.1390027701854706,1,0.4553108513355255,1,9.795087814331055,1
1778106619755123456,0.03625054284930229,-0.04945329204201698,-0.9929684400558472,0.0003210478753317147,-0.000536777195520699,-0.01002436224371195,,,,,,,,,,,,,,,,,,,,
1778106619764509184,,,,,,,-0.2974295914173126,1,0.135388970375061,1,-1.112909555435181,1,-0.02421588078141212,1,-0.04321832209825516,1,0.009034820832312107,1,2,1,0.1417434364557266,1,0.4519238770008087,1,9.795206069946289,1
1778106619765243136,0.03308106958866119,-0.05047916248440742,-1.003910779953003,0.0002980074204970151,-0.0005209889495745301,-0.01016672700643539,,,,,,,,,,,,,,,,,,,,
1778106619774611712,,,,,,,-0.8458753824234009,1,0.05167527496814728,1,-1.280999541282654,1,0.008690581656992435,1,-0.1079796478152275,1,0.01560242008417845,1,2,1,0.1524863839149475,1,0.4526728689670563,1,9.795009613037109,1
1778106619775342592,0.03195067495107651,-0.04893144220113754,-1.010210037231445,0.0003086022334173322,-0.0004756062990054488,-0.01017885189503431,,,,,,,,,,,,,,,,,,,,
1778106619784694016,,,,,,,-1.226270914077759,1,-0.1967100948095322,1,-0.8676886558532715,1,0.0002457843220327049,1,-0.1057359948754311,1,0.02625764347612858,1,2,1,0.1635294854640961,1,0.452841579914093,1,9.79482364654541,1
1778106619785422336,0.02986021898686886,-0.04626911506056786,-1.008977293968201,0.0002735562738962471,-0.0004351329989731312,-0.01007889118045568,,,,,,,,,,,,,,,,,,,,
1778106619794756352,,,,,,,-1.33655858039856,1,-0.5970941781997681,1,-0.1520962119102478,1,0.02716132067143917,1,-0.09624572098255157,1,0.02902533859014511,1,2,1,0.1735314279794693,1,0.4548405110836029,1,9.794559478759766,1
1778106619795482624,0.02749783918261528,-0.0424606092274189,-1.003429532051086,0.0002506142773199826,-0.0003823826555162668,-0.009977599605917931,,,,,,,,,,,,,,,,,,,,
1778106619805522688,0.01793861016631126,-0.04070314019918442,-1.000961303710938,8.715512376511469e-05,-0.0003843294398393482,-0.009962271898984909,,,,,,,,,,,,,,,,,,,,
1778106619815542784,-0.009321463294327259,-0.03844066336750984,-1.042219996452332,-0.0004025727976113558,-0.0003660521761048585,-0.01084344089031219,,,,,,,,,,,,,,,,,,,,
1778106619823565000,,,,,,,-1.540179014205933,1,-0.6352378129959106,1,0.8420562744140625,1,0.04383538290858269,1,-0.07079988718032837,1,0.06169401109218597,1,2,1,0.181474432349205,1,0.4592588543891907,1,9.794209480285645,1
1778106619825543168,-0.04463104903697968,-0.03298589587211609,-1.112286925315857,-0.0008527322788722813,-0.0002738779585342854,-0.01194528304040432,,,,,,,,,,,,,,,,,,,,
1778106619833550080,,,,,,,-1.53144097328186,1,-0.9246277809143066,1,1.670691609382629,1,-0.002667120192199945,1,-0.001802867744117975,1,0.02901962213218212,1,2,1,0.1814088523387909,1,0.459118664264679,1,9.794217109680176,1
1778106619835523584,-0.1009182259440422,-0.04121405631303787,-1.129436492919922,-0.001636372995562851,-0.000494705222081393,-0.01154505182057619,,,,,,,,,,,,,,,,,,,,
1778106619843515136,,,,,,,-1.629366874694824,1,-1.456763029098511,1,0.6351456046104431,1,-0.07834422588348389,1,0.1168167814612389,1,0.04853259772062302,1,2,1,0.173995316028595,1,0.4538347721099854,1,9.794597625732422,1
1778106619845484032,-0.1404301673173904,-0.06640474498271942,-1.087285876274109,-0.001877060858532786,-0.0009463999303989112,-0.01043495070189238,,,,,,,,,,,,,,,,,,,,
1778106619853460224,,,,,,,-1.026418924331665,1,-0.9498312473297119,1,-0.3031535446643829,1,0.09368613362312317,1,-0.1152597814798355,1,0.07907649874687195,1,2,1,0.1846304535865784,1,0.4618414640426636,1,9.794028282165527,1
1778106619855424768,-0.1525512933731079,-0.1071959808468819,-1.01430344581604,-0.001658657565712929,-0.001538209267891943,-0.009324819780886173,,,,,,,,,,,,,,,,,,,,
1778106619863385856,,,,,,,-1.003153085708618,1,-0.4932611882686615,1,-0.03006167709827423,1,0.009575475938618183,1,-0.06086323410272598,1,0.1200294941663742,1,2,1,0.1946858763694763,1,0.4636868834495544,1,9.793746948242188,1
1778106619865345792,-0.1742056757211685,-0.1112427040934563,-0.9129058122634888,-0.001961484318599105,-0.001175700104795396,-0.008016642183065414,,,,,,,,,,,,,,,,,,,,
1778106619873478912,,,,,,,-0.3099818527698517,1,-0.3276976943016052,1,1.061420559883118,1,0.04756304994225502,1,0.00592294055968523,1,0.1146731227636337,1,2,1,0.1957179456949234,1,0.4688817262649536,1,9.793478965759277,1
1778106619875247104,-0.1739407479763031,-0.1409276276826859,-0.828389585018158,-0.001811372931115329,-0.001734767924062908,-0.007249026093631983,,,,,,,,,,,,,,,,,,,,
1778106619883738880,,,,,,,0.800276517868042,1,-0.03049547970294952,1,1.833659648895264,1,0.07738596200942993,1,0.0226704403758049,1,0.124230720102787,1,2,1,0.1925695091485977,1,0.4754286408424377,1,9.793225288391113,1
1778106619885128704,-0.1841392815113068,-0.1951791793107986,-0.9339829087257385,-0.002063170075416565,-0.002663423074409366,-0.01029058080166578,,,,,,,,,,,,,,,,,,,,
1778106619893978624,,,,,,,1.079463362693787,1,-0.071609266102314,1,3.532169818878174,1,-0.0215839147567749,1,0.1864621341228485,1,0.1232989057898521,1,2,1,0.179114893078804,1,0.4771700203418732,1,9.79339599609375,1
1778106619894990592,-0.1227387934923172,-0.1434672027826309,-1.029662370681763,-0.0004075823235325515,-0.0007672186475247145,-0.01160354912281036,,,,,,,,,,,,,,,,,,,,
1778106619904198144,,,,,,,0.7260497808456421,1,0.06342202425003052,1,4.741812229156494,1,-0.1243288218975067,1,0.1789534091949463,1,0.1290431767702103,1,2,1,0.1601273864507675,1,0.466840922832489,1,9.794222831726074,1
1778106619904833280,-0.1210617497563362,-0.09722044318914413,-1.001786947250366,-0.001217498676851392,-0.0004849988908972591,-0.009711816906929016,,,,,,,,,,,,,,,,,,,,
1778106619914397184,,,,,,,1.247790098190308,1,1.092262029647827,1,-0.893041729927063,1,-0.1518917232751846,1,0.422840416431427,1,0.08849744498729706,1,2,1,0.1256990730762482,1,0.4530913531780243,1,9.795371055603027,1
1778106619914656256,-0.0509260818362236,-0.08065184205770493,-0.8904614448547363,0.0002898329985328019,-0.000537599204108119,-0.007696353364735842,,,,,,,,,,,,,,,,,,,,
1778106619924575744,,,,,,,1.118049383163452,1,3.296334266662598,1,-1.627697706222534,1,0.1540229022502899,1,0.0654396116733551,1,0.02314046397805214,1,2,1,0.1273677796125412,1,0.4752824604511261,1,9.79429817199707,1
1778106619924833792,0.06210838258266449,-0.05077219381928444,-0.8116914033889771,0.001935616135597229,-0.0002167140773963183,-0.007185621652752161,,,,,,,,,,,,,,,,,,,,
1778106619934734336,,,,,,,0.7657387256622314,1,3.084137439727783,1,-3.227912425994873,1,0.02865804359316826,1,0.09724504500627518,1,-0.05941223725676537,1,2,1,0.1192243620753288,1,0.4713326990604401,1,9.794590950012207,1
1778106619934990848,0.09078823029994965,-0.05546851456165314,-0.6384715437889099,0.00126078724861145,-0.0005087676108814776,-0.004442179575562477,,,,,,,,,,,,,,,,,,,,
1778106619944872704,,,,,,,0.5773237943649292,1,1.581557869911194,1,-3.140599966049194,1,0.174703910946846,1,-0.04203163832426071,1,-0.07875528186559677,1,2,1,0.1237558200955391,1,0.4925053119659424,1,9.793493270874023,1
1778106619945128192,0.05578196421265602,-0.04167359694838524,-0.5151424407958984,0.0002777423360385001,-0.0001922712690429762,-0.003435336053371429,,,,,,,,,,,,,,,,,,,,
1778106619954990848,,,,,,,0.5018852949142456,1,0.6892845034599304,1,-2.411913871765137,1,0.1515531241893768,1,-0.1830489337444305,1,-0.02933019213378429,1,2,1,0.1376473158597946,1,0.5016980767250061,1,9.792840957641602,1
1778106619955245312,0.1106377765536308,0.06384564936161041,-1.089793562889099,0.001144773559644818,0.001568457810208201,-0.01708482764661312,,,,,,,,,,,,,,,,,,,,
1778106619965088768,,,,,,,-0.1473785936832428,1,-0.4834724366664886,1,-0.4403383135795593,1,0.1230763122439384,1,-0.01232517324388027,1,2.816319465637207e-05,1,2,1,0.1408732533454895,1,0.5144050717353821,1,9.792136192321777,1
1778106619965342208,0.09898924082517624,0.2885218858718872,-1.164728760719299,0.001047950237989426,0.005917948205024004,-0.01271671708673239,,,,,,,,,,,,,,,,,,,,
1778106619975166720,,,,,,,-0.2756754755973816,1,-0.8192583918571472,1,0.7458988428115845,1,0.136847972869873,1,-0.112150639295578,1,0.04746886715292931,1,2,1,0.1516337245702744,1,0.5291284322738647,1,9.791191101074219,1
1778106619975419136,0.06417933106422424,0.2666885852813721,-1.32791268825531,0.0001478765771025792,0.002311889547854662,-0.0151507006958127,,,,,,,,,,,,,,,,,,,,
1778106619985225216,,,,,,,-1.128276109695435,1,-1.222013235092163,1,2.78819465637207,1,-0.1662830114364624,1,0.15069580078125,1,-0.003235953627154231,1,2,1,0.1429087668657303,1,0.5152727961540222,1,9.792060852050781,1
1778106619985476096,0.04564284160733223,0.1127062067389488,-1.318982124328613,0.0003107603115495294,-0.0004819723544642329,-0.01343346666544676,,,,,,,,,,,,,,,,,,,,
1778106619995264256,,,,,,,0.2393888980150223,1,-1.148330450057983,1,0.5741325616836548,1,-0.1429844796657562,1,0.1556823551654816,1,-0.03884420916438103,1,2,1,0.1162445917725563,1,0.4961936771869659,1,9.793398857116699,1
1778106619995513088,0.03792880102992058,0.02079846151173115,-1.244631767272949,0.0003349113976582885,-0.0009547770605422556,-0.01193054299801588,,,,,,,,,,,,,,,,,,,,
1778106620005283072,,,,,,,-0.01460995525121689,1,-0.510437548160553,1,0.3483684957027435,1,-0.1423125565052032,1,-0.1196470931172371,1,0.002874969504773617,1,2,1,0.1308763176202774,1,0.4899830222129822,1,9.793526649475098,1
1778106620005529856,-0.02879761345684528,-0.09992828220129013,-1.043522715568542,-0.001176821766421199,-0.002486658282577991,-0.007961984723806381,,,,,,,,,,,,,,,,,,,,
1778106620015281920,,,,,,,-0.1699812412261963,1,-0.3933484256267548,1,-0.004134755581617355,1,-0.3915233314037323,1,-0.0183276291936636,1,-0.006849462632089853,1,2,1,0.1332478523254395,1,0.4527603685855865,1,9.795286178588867,1
1778106620015526656,-0.042414840310812,-0.1354247182607651,-0.9224878549575806,-0.0004746737540699542,-0.001717014936730266,-0.008069436997175217,,,,,,,,,,,,,,,,,,,,
1778106620025261056,,,,,,,0.2850099503993988,1,0.1225791275501251,1,-1.369574308395386,1,-0.2976302802562714,1,0.02267499640583992,1,0.01475754473358393,1,2,1,0.1240116953849792,1,0.4169797301292419,1,9.796996116638184,1
1778106620025504256,-0.1297750324010849,-0.1771411150693893,-0.7141923904418945,-0.002158721210435033,-0.002178399590775371,-0.004504911135882139,,,,,,,,,,,,,,,,,,,,
1778106620035220480,,,,,,,0.6170049905776978,1,0.06250222772359848,1,-1.73855185508728,1,0.09872385859489441,1,-0.2034822404384613,1,0.01046586409211159,1,2,1,0.1387256234884262,1,0.426480770111084,1,9.796389579772949,1
1778106620035462400,0.01068528182804585,-0.1690124273300171,-0.9400099515914917,0.001490553491748869,-0.001808590721338987,-0.01183921471238136,,,,,,,,,,,,,,,,,,,,
1778106620045159936,,,,,,,0.5483056306838989,1,-0.1288778632879257,1,-0.5526971220970154,1,0.04932819306850433,1,-0.0739644467830658,1,0.03199822455644608,1,2,1,0.1449833065271378,1,0.4320945739746094,1,9.796052932739258,1
1778106620045401088,-0.01477931067347527,-0.1033158078789711,-0.9630714058876038,-0.0003363815485499799,-0.0001054058957379311,-0.009987694211304188,,,,,,,,,,,,,,,,,,,,
1778106620055079680,,,,,,,0.6249271035194397,1,-0.1338341981172562,1,0.3095199167728424,1,-0.02853545174002647,1,0.04018517583608627,1,0.01847269386053085,1,2,1,0.1387793868780136,1,0.4286766946315765,1,9.796293258666992,1
1778106620055319808,-0.0307342167943716,-0.0897892564535141,-0.9990943074226379,-0.0004294735263101757,-0.0006569643155671656,-0.01040704175829887,,,,,,,,,,,,,,,,,,,,
1778106620065162496,,,,,,,0.8117370009422302,1,0.2510988414287567,1,0.3310350179672241,1,0.08724956959486008,1,-0.06286393105983734,1,0.01089081913232803,1,2,1,0.1427228152751923,1,0.434530645608902,1,9.795978546142578,1
1778106620065218560,0.01595251634716988,-0.03445275500416756,-1.138462543487549,0.0006061338353902102,0.0002073438372462988,-0.01285555586218834,,,,,,,,,,,,,,,,,,,,
1778106620075098112,0.04974114894866943,-0.03874801099300385,-1.176172018051147,0.001025914330966771,-0.0002102981816278771,-0.01240638643503189,,,,,,,,,,,,,,,,,,,,
1778106620075408384,,,,,,,0.4728953540325165,1,-0.08591251075267792,1,1.363743424415588,1,-0.02949732542037964,1,-0.03007498010993004,1,0.007832647301256657,1,2,1,0.1492734104394913,1,0.4363598525524139,1,9.795799255371094,1
1778106620084957952,0.04211719334125519,-0.0576954074203968,-1.055267572402954,0.0002583478053566068,-0.0008327778778038919,-0.009195154532790184,,,,,,,,,,,,,,,,,,,,
1778106620085634048,,,,,,,0.4256425201892853,1,-0.176972359418869,1,1.289658308029175,1,-0.250723123550415,1,0.08779454231262207,1,0.007916048169136047,1,2,1,0.1422554105520248,1,0.4125702381134033,1,9.796935081481934,1
1778106620094798080,0.04964656755328178,-0.05790412798523903,-0.9673566222190857,0.0004799833404831588,-0.0006386700551956892,-0.008546262048184872,,,,,,,,,,,,,,,,,,,,
1778106620095839232,,,,,,,0.7136664390563965,1,0.0780436247587204,1,0.2759870886802673,1,-0.1612202972173691,1,0.04812426865100861,1,0.001649543875828385,1,2,1,0.1346553266048431,1,0.3924416899681091,1,9.797869682312012,1
1778106620104801536,0.06860427558422089,-0.01850190013647079,-0.9651690125465393,0.0009030689834617078,0.0002905411238316447,-0.009665790945291519,,,,,,,,,,,,,,,,,,,,
1778106620106023936,,,,,,,0.784156322479248,1,0.0641082301735878,1,-0.3926391899585724,1,-0.01606992818415165,1,-0.01844979077577591,1,0.001204587169922888,1,2,1,0.1369231343269348,1,0.3899494409561157,1,9.797937393188477,1
1778106620114967808,0.03362542018294334,-0.0531107671558857,-0.8598454594612122,-5.603425961453468e-05,-0.0009132051491178572,-0.007414087187498808,,,,,,,,,,,,,,,,,,,,
1778106620116188416,,,,,,,0.6763817071914673,1,-0.1147811338305473,1,-0.370619922876358,1,-0.03313774988055229,1,-0.0300276055932045,1,-0.001719772117212415,1,2,1,0.1421428620815277,1,0.3889079988002777,1,9.797904014587402,1
1778106620125114368,0.02867232263088226,-0.06184669211506844,-0.867422342300415,0.0001858073374023661,-0.0007747705676592886,-0.008634526282548904,,,,,,,,,,,,,,,,,,,,
1778106620126333184,,,,,,,0.6834507584571838,1,0.09821083396673203,1,-0.4138308167457581,1,-0.06068115308880806,1,0.03025513142347336,1,0.004900377709418535,1,2,1,0.1386283040046692,1,0.3811234533786774,1,9.798260688781738,1
1778106620135240704,0.05840723589062691,-0.03440491482615471,-0.9708542227745056,0.0008599762804806232,-6.611373828491196e-05,-0.01090720016509295,,,,,,,,,,,,,,,,,,,,
1778106620136457984,,,,,,,0.7776659727096558,1,0.2279954552650452,1,-0.4872531890869141,1,0.01728617772459984,1,-0.03831609338521957,1,0.007062889635562897,1,2,1,0.1408413946628571,1,0.3823953866958618,1,9.798179626464844,1
1778106620145346560,0.06582080572843552,-0.03464861959218979,-1.039087533950806,0.0007178297964856029,-0.0003530836838763207,-0.01114705763757229,,,,,,,,,,,,,,,,,,,,
1778106620146562560,,,,,,,0.5711321830749512,1,0.1182100847363472,1,0.01946514099836349,1,-0.02899672836065292,1,-0.04166794940829277,1,0.01638578064739704,1,2,1,0.1462521106004715,1,0.380735456943512,1,9.798165321350098,1
1778106620155432704,0.05472987145185471,-0.05225203558802605,-1.036867499351501,0.0004778675793204457,-0.0007037702016532421,-0.01043325569480658,,,,,,,,,,,,,,,,,,,,
1778106620156647168,,,,,,,0.4885855913162231,1,0.1297151744365692,1,0.3459245264530182,1,-0.09545646607875824,1,0.02752118557691574,1,0.01409458089619875,1,2,1,0.1442414075136185,1,0.3713326454162598,1,9.798555374145508,1
1778106620165498880,0.05543316900730133,-0.02988375164568424,-1.041299819946289,0.0005305432714521885,-9.303847036790103e-05,-0.01043001934885979,,,,,,,,,,,,,,,,,,,,
1778106620166712064,,,,,,,0.5575070977210999,1,0.198792889714241,1,0.3372016549110413,1,-0.02190296724438667,1,-0.01700738631188869,1,0.007743668742477894,1,2,1,0.1456448584794998,1,0.3678654432296753,1,9.798666000366211,1
1778106620175545088,0.06507107615470886,-0.01619409769773483,-1.048805594444275,0.0007579820812679827,2.027564551099204e-05,-0.01061437092721462,,,,,,,,,,,,,,,,,,,,
1778106620176756736,,,,,,,0.5028316974639893,1,0.0791451707482338,1,0.4223500788211823,1,-0.0197346992790699,1,-0.001407710835337639,1,-9.549775859341025e-05,1,2,1,0.1467652022838593,1,0.3664696514606476,1,9.798701286315918,1
1778106620185571584,0.0437750369310379,-0.02716568671166897,-0.9971405267715454,0.0001913534360937774,-0.0003993139252997935,-0.009433792904019356,,,,,,,,,,,,,,,,,,,,
1778106620186781184,,,,,,,0.5340030789375305,1,0.03930960595607758,1,0.237894207239151,1,-0.04546969756484032,1,0.03507886081933975,1,-0.003900564275681973,1,2,1,0.1438101530075073,1,0.3621783852577209,1,9.798904418945312,1
1778106620195578112,0.03518388420343399,-0.02556069009006023,-0.963865339756012,0.0001955080224433914,-0.0002794491301756352,-0.009172055870294571,,,,,,,,,,,,,,,,,,,,
1778106620196785664,,,,,,,0.6099202632904053,1,0.1338542997837067,1,-0.1547362208366394,1,-0.01005990710109472,1,0.01017659995704889,1,-0.002787526929751039,1,2,1,0.1422721445560455,1,0.3600872457027435,1,9.799003601074219,1
1778106620205564928,0.04215217009186745,-0.01796425692737103,-0.9647752046585083,0.0005109978374093771,-7.244441076181829e-05,-0.009685861878097057,,,,,,,,,,,,,,,,,,,,
1778106620206770432,,,,,,,0.5588369965553284,1,0.1150594279170036,1,-0.2951260209083557,1,0.01303728576749563,1,0.003416726365685463,1,-0.003606360405683517,1,2,1,0.1423913240432739,1,0.3616242408752441,1,9.798945426940918,1
1778106620215531776,0.03645535930991173,-0.02980529330670834,-0.956104576587677,0.0002961928257718682,-0.0004380425671115518,-0.009449235163629055,,,,,,,,,,,,,,,,,,,,
1778106620216735488,,,,,,,0.543529212474823,1,0.1148532703518867,1,-0.334105521440506,1,-0.007522422820329666,1,0.01584372296929359,1,0.000170548606547527,1,2,1,0.1407295614480972,1,0.3609431087970734,1,9.798995018005371,1
1778106620225478912,0.03963535651564598,-0.03352342173457146,-0.9749268293380737,0.0004246696771588176,-0.0003918871516361833,-0.009935618378221989,,,,,,,,,,,,,,,,,,,,
1778106620226680576,,,,,,,0.5772305130958557,1,0.1415030211210251,1,-0.3224041759967804,1,0.01930453255772591,1,-0.02113361656665802,1,-0.001282899174839258,1,2,1,0.1421883404254913,1,0.3622724115848541,1,9.798924446105957,1
1778106620235406080,0.04750262200832367,-0.02352623641490936,-1.014979004859924,0.0005707957898266613,-0.0001253335358342156,-0.01061542611569166,,,,,,,,,,,,,,,,,,,,
1778106620236606464,,,,,,,0.541344165802002,1,0.06771074235439301,1,-0.07681842148303986,1,0.02972883358597755,1,-0.03489004820585251,1,-0.001289182109758258,1,2,1,0.1457617729902267,1,0.3654765486717224,1,9.798752784729004,1
1778106620245313536,0.04236713424324989,-0.025278240442276,-1.02930212020874,0.0003733589546754956,-0.0002622830215841532,-0.01048409380018711,,,,,,,,,,,,,,,,,,,,
1778106620246512384,,,,,,,0.5027336478233337,1,-0.00455666147172451,1,0.2269025146961212,1,0.01203901786357164,1,-0.02989168465137482,1,-0.0001263896701857448,1,2,1,0.148862898349762,1,0.3670364618301392,1,9.798647880554199,1
1778106620255201536,0.04089697822928429,-0.02522303536534309,-1.033281207084656,0.0003785939770750701,-0.0002648718073032796,-0.01037095487117767,,,,,,,,,,,,,,,,,,,,
1778106620256770048,,,,,,,0.4910522997379303,1,-0.04153355956077576,1,0.4134241938591003,1,-0.003404656890779734,1,-0.008084280416369438,1,-0.000223765178816393,1,2,1,0.1492979824542999,1,0.3622422814369202,1,9.798820495605469,1
1778106620265069824,0.04438984766602516,-0.02246991544961929,-1.032089948654175,0.0004926600959151983,-0.0001830103137763217,-0.01032764464616776,,,,,,,,,,,,,,,,,,,,
1778106620267007232,,,,,,,0.5099035501480103,1,-0.07076238840818405,1,0.3977594077587128,1,-0.01118221879005432,1,0.005993779748678207,1,-0.0004869189579039812,1,2,1,0.1488378643989563,1,0.3613749742507935,1,9.798858642578125,1
1778106620274918912,0.04061741381883621,-0.0301071684807539,-1.007041573524475,0.0003670942678581923,-0.000384201091947034,-0.009796679951250553,,,,,,,,,,,,,,,,,,,,
1778106620277224448,,,,,,,0.5660426020622253,1,-0.07064365595579147,1,0.2245092391967773,1,-0.02170228213071823,1,0.007442014757543802,1,-0.002195332664996386,1,2,1,0.1479518264532089,1,0.3592781126499176,1,9.798949241638184,1
1778106620284748288,0.03646289929747581,-0.03764624521136284,-0.9760611057281494,0.0003212201118003577,-0.0004640086845029145,-0.009407032281160355,,,,,,,,,,,,,,,,,,,,
1778106620287421440,,,,,,,0.623566210269928,1,-0.03102492354810238,1,0.00669301301240921,1,-0.01907014288008213,1,-0.001583104836754501,1,-0.001652538310736418,1,2,1,0.1477596908807755,1,0.3572665452957153,1,9.799026489257812,1
1778106620294743808,0.0350799560546875,-0.0413840152323246,-0.9570395946502686,0.0003316982765682042,-0.0004610930918715894,-0.009333327412605286,,,,,,,,,,,,,,,,,,,,
1778106620297597952,,,,,,,0.6407504081726074,1,0.004562024958431721,1,-0.1062036082148552,1,-0.01112488377839327,1,-0.01784101687371731,1,0.001791060436517,1,2,1,0.1493698805570602,1,0.3561237752437592,1,9.799043655395508,1
1778106620304904960,0.03690605983138084,-0.04424922913312912,-0.9586398005485535,0.0003956108703278005,-0.0004731420194730163,-0.009590367786586285,,,,,,,,,,,,,,,,,,,,
1778106620307754240,,,,,,,0.5983536839485168,1,0.03387897834181786,1,-0.07879578322172165,1,-0.01380224898457527,1,-0.01414363365620375,1,0.005910385400056839,1,2,1,0.1510732918977737,1,0.3548549711704254,1,9.799062728881836,1
1778106620315046400,0.04261801764369011,-0.04409701749682426,-0.9763113856315613,0.00049144949298352,-0.0004445709637366235,-0.009955129586160183,,,,,,,,,,,,,,,,,,,,
1778106620317890304,,,,,,,0.5802645087242126,1,0.06553488224744797,1,-0.07968659698963165,1,-0.02376681938767433,1,0.002206913195550442,1,0.007239281199872494,1,2,1,0.1510888487100601,1,0.3525538444519043,1,9.799145698547363,1
1778106620325167616,0.04850327223539352,-0.03988092765212059,-0.9985292553901672,0.0005504342261701822,-0.0003567317326087505,-0.01024127006530762,,,,,,,,,,,,,,,,,,,,
1778106620328006400,,,,,,,0.5900495648384094,1,0.09173966944217682,1,-0.1118582487106323,1,-0.01584072411060333,1,0.00440016807988286,1,0.003626028541475534,1,2,1,0.1506453454494476,1,0.3508835136890411,1,9.799212455749512,1
1778106620335268608,0.05022233352065086,-0.03608758747577667,-1.01004695892334,0.0005242347833700478,-0.0003169859992340207,-0.01024563051760197,,,,,,,,,,,,,,,,,,,,
1778106620338102016,,,,,,,0.5815278887748718,1,0.08007648587226868,1,-0.1120489612221718,1,-0.009057778865098953,1,0.004980340600013733,1,-0.001268704421818256,1,2,1,0.150202214717865,1,0.349800705909729,1,9.799258232116699,1
1778106620345349376,0.04579326510429382,-0.03295590355992317,-1.007255792617798,0.0004065683751832694,-0.0002927671303041279,-0.01004928909242153,,,,,,,,,,,,,,,,,,,,
1778106620348178176,,,,,,,0.5721517205238342,1,0.03920555114746094,1,-0.1034925207495689,1,-0.005860041361302137,1,0.01261346600949764,1,-0.005501674953848124,1,2,1,0.1489275991916656,1,0.3491538166999817,1,9.799301147460938,1
1778106620355410432,0.04385866224765778,-0.02956334128975868,-1.007351279258728,0.0004204903962090611,-0.0002615617995616049,-0.01006314996629953,,,,,,,,,,,,,,,,,,,,
1778106620358234624,,,,,,,0.5747604370117188,1,-0.01502781547605991,1,-0.07383144646883011,1,7.518893107771873e-05,1,-0.001760789076797664,1,-0.003979035653173923,1,2,1,0.1489104926586151,1,0.3490677773952484,1,9.799304008483887,1
1778106620365451520,0.0448259599506855,-0.02670642733573914,-1.010638117790222,0.0004533805185928941,-0.0002290090196765959,-0.0101488595828414,,,,,,,,,,,,,,,,,,,,
1778106620368270848,,,,,,,0.5411328077316284,1,-0.07312113046646118,1,0.03588008135557175,1,0.00173750554677099,1,-0.01074589136987925,1,0.003722381545230746,1,2,1,0.1500192433595657,1,0.3492829203605652,1,9.79927921295166,1
1778106620375472384,0.04395986348390579,-0.02773291617631912,-1.010663390159607,0.0004360530292615294,-0.0002897180384024978,-0.01011315733194351,,,,,,,,,,,,,,,,,,,,
1778106620378287104,,,,,,,0.5194563865661621,1,-0.09567289054393768,1,0.1603706032037735,1,-0.01594611257314682,1,-0.004826920572668314,1,0.006719283759593964,1,2,1,0.1506063789129257,1,0.3480200469493866,1,9.799315452575684,1
1778106620385473280,0.04304854944348335,-0.03177668899297714,-1.009796023368835,0.0004117935604881495,-0.0003662662347778678,-0.01008475199341774,,,,,,,,,,,,,,,,,,,,
1778106620388283904,,,,,,,0.4822342097759247,1,-0.05691887438297272,1,0.2512144148349762,1,-0.01364993955940008,1,-0.009708983823657036,1,0.007305690553039312,1,2,1,0.1516713500022888,1,0.3466228544712067,1,9.799348831176758,1
1778106620395455232,0.0433695949614048,-0.03722435608506203,-1.006775259971619,0.0004340200102888048,-0.000433631066698581,-0.01004171092063189,,,,,,,,,,,,,,,,,,,,
1778106620398260736,,,,,,,0.4400947690010071,1,-0.04489566758275032,1,0.3204605281352997,1,-0.01778413355350494,1,0.00264054024592042,1,0.002760352566838264,1,2,1,0.1516561210155487,1,0.3450441360473633,1,9.799404144287109,1
1778106620405417216,0.03993545472621918,-0.04311070218682289,-0.9955891370773315,0.0003689278673846275,-0.000501148053444922,-0.009839804843068123,,,,,,,,,,,,,,,,,,,,
1778106620408217600,,,,,,,0.4533607065677643,1,-0.02561202831566334,1,0.2443781644105911,1,-0.03598437830805779,1,0.01796673610806465,1,-0.004728087224066257,1,2,1,0.1496958434581757,1,0.3418904840946198,1,9.799545288085938,1
1778106620415359232,0.03768174350261688,-0.04536665603518486,-0.98289555311203,0.0003466289199423045,-0.000491083599627018,-0.009668936021625996,,,,,,,,,,,,,,,,,,,,
1778106620418154752,,,,,,,0.4637884199619293,1,0.03260273486375809,1,0.03837934136390686,1,-0.0258452408015728,1,-0.002968595828860998,1,-0.004587049130350351,1,2,1,0.1495169997215271,1,0.338872879743576,1,9.799653053283691,1
1778106620425282048,0.03382457792758942,-0.04131864011287689,-0.9736344814300537,0.0003008313069585711,-0.0003660228394437581,-0.009639120660722256,,,,,,,,,,,,,,,,,,,,
1778106620428072448,,,,,,,0.4176026880741119,1,0.003852159716188908,1,0.01987554877996445,1,-0.02333076670765877,1,-0.007706094533205032,1,-0.004661403596401215,1,2,1,0.1505733877420425,1,0.3368540704250336,1,9.79970645904541,1
1778106620435184896,0.02946955896914005,-0.0399748831987381,-0.9665766358375549,0.0002604004403110594,-0.0003783124848268926,-0.00957221444696188,,,,,,,,,,,,,,,,,,,,
1778106620438157312,,,,,,,0.3831413388252258,1,-0.04135569185018539,1,-0.00670966599136591,1,-0.0448763407766819,1,0.009353900328278542,1,-0.0002666531945578754,1,2,1,0.1500408798456192,1,0.332744836807251,1,9.799854278564453,1
1778106620445068032,0.0308510921895504,-0.0378323420882225,-0.9743415117263794,0.0003094346611760557,-0.0003544969367794693,-0.009810658171772957,,,,,,,,,,,,,,,,,,,,
1778106620448409088,,,,,,,0.4413508176803589,1,-0.02007462084293365,1,-0.1531376391649246,1,-0.04010633006691933,1,0.007029266562312841,1,0.0002042199485003948,1,2,1,0.1490599364042282,1,0.3285060524940491,1,9.800012588500977,1
1778106620454931456,0.03198190405964851,-0.03163807839155197,-0.9953576922416687,0.0003301782417111099,-0.0002424613485345617,-0.01020005438476801,,,,,,,,,,,,,,,,,,,,
1778106620458640640,,,,,,,0.4683510065078735,1,-0.005515859462320805,1,-0.2170521020889282,1,-0.01968720927834511,1,-0.007350923959165812,1,-0.001284845639020205,1,2,1,0.1489935368299484,1,0.3279895782470703,1,9.800030708312988,1
1778106620464775424,0.02726732008159161,-0.03433153033256531,-0.9972527027130127,0.0002142653102055192,-0.0003685048432089388,-0.01000529434531927,,,,,,,,,,,,,,,,,,,,
1778106620468851968,,,,,,,0.4896427690982819,1,-0.007110794074833393,1,-0.1117340251803398,1,-0.01652108691632748,1,-0.01381711382418871,1,-0.003557071788236499,1,2,1,0.1502937227487564,1,0.326507180929184,1,9.800060272216797,1
1778106620474599936,0.02374189160764217,-0.03866397589445114,-0.9999729990959167,0.0001975582126760855,-0.0004444977676030248,-0.01002067141234875,,,,,,,,,,,,,,,,,,,,
1778106620479042816,,,,,,,0.4682052433490753,1,-0.03089971654117107,1,0.0291993860155344,1,-0.01825477741658688,1,0.002068609464913607,1,-0.006593853235244751,1,2,1,0.1503491401672363,1,0.3249485492706299,1,9.800111770629883,1
1778106620484779008,0.02972370199859142,-0.03613398224115372,-1.014917731285095,0.0003709923475980759,-0.0003344301658216864,-0.01031301077455282,,,,,,,,,,,,,,,,,,,,
1778106620489213440,,,,,,,0.5158442854881287,1,-0.03594914823770523,1,0.01689248904585838,1,-0.02625543251633644,1,0.003520244266837835,1,-0.008254119195044041,1,2,1,0.1496245115995407,1,0.3221750557422638,1,9.800213813781738,1
1778106620494937600,0.03252144157886505,-0.03436776995658875,-1.021445274353027,0.0003627993573900312,-0.0003224574029445648,-0.0103038577362895,,,,,,,,,,,,,,,,,,,,
1778106620499364096,,,,,,,0.5220686793327332,1,-0.0732458159327507,1,0.03840551152825356,1,-0.01640948280692101,1,-0.02112924307584763,1,-0.008945713751018047,1,2,1,0.1515317410230637,1,0.3207318186759949,1,9.80023193359375,1
1778106620505076224,0.03467902541160583,-0.03432697430253029,-1.010712623596191,0.0003935884742531925,-0.000341289967764169,-0.009988244622945786,,,,,,,,,,,,,,,,,,,,
1778106620509494784,,,,,,,0.477416604757309,1,-0.07995063066482544,1,0.1482996940612793,1,-0.01605698093771935,1,-0.02279405854642391,1,-0.008374477736651897,1,2,1,0.1538312882184982,1,0.3191974461078644,1,9.800246238708496,1
1778106620515194880,0.03245029598474503,-0.03657260164618492,-0.9963467717170715,0.0002883800480049103,-0.0003845638129860163,-0.009800281375646591,,,,,,,,,,,,,,,,,,,,
1778106620519605248,,,,,,,0.443439394235611,1,-0.07911354303359985,1,0.2586056590080261,1,-0.0340561605989933,1,-0.0112414276227355,1,-0.002771922387182713,1,2,1,0.1550109833478928,1,0.3162047266960144,1,9.800325393676758,1
1778106620525293056,0.03731684014201164,-0.03687777742743492,-0.9976088404655457,0.0004268317716196179,-0.0003831536450888962,-0.009974907152354717,,,,,,,,,,,,,,,,,,,,
1778106620529695744,,,,,,,0.4288921058177948,1,-0.02335014194250107,1,0.2326050698757172,1,-0.04684208706021309,1,0.007612945511937141,1,-0.00249318708665669,1,2,1,0.1544532924890518,1,0.3116806447505951,1,9.800478935241699,1
1778106620535371776,0.03791730105876923,-0.0404779389500618,-0.9954212307929993,0.0004062599036842585,-0.0004403525672387332,-0.009939610958099365,,,,,,,,,,,,,,,,,,,,
1778106620539766016,,,,,,,0.4622387290000916,1,0.03443309292197227,1,0.06203490868210793,1,-0.04829904064536095,1,0.01889925822615623,1,-0.009815885685384274,1,2,1,0.1524777412414551,1,0.3068730235099792,1,9.800661087036133,1
1778106620545430528,0.03323838114738464,-0.0409802570939064,-0.9842191338539124,0.0002829315199051052,-0.0004135851340834051,-0.009719748049974442,,,,,,,,,,,,,,,,,,,,
1778106620549816064,,,,,,,0.5149629712104797,1,0.1022065654397011,1,-0.1980894356966019,1,-0.03737368062138557,1,0.01296261977404356,1,-0.01848412677645683,1,2,1,0.1507814824581146,1,0.3029608726501465,1,9.800808906555176,1
1778106620555469312,0.02962764352560043,-0.04069257155060768,-0.9729754328727722,0.0002574672980699688,-0.0004076846526004374,-0.009595233015716076,,,,,,,,,,,,,,,,,,,,
1778106620559846656,,,,,,,0.5189675092697144,1,0.1317528188228607,1,-0.3356540203094482,1,-0.02711811475455761,1,-0.002719226758927107,1,-0.0179719403386116,1,2,1,0.1507942229509354,1,0.3003164231777191,1,9.800890922546387,1
1778106620565488128,0.028055215254426,-0.03470887616276741,-0.9756349325180054,0.0002593138488009572,-0.0002818628854583949,-0.009773088619112968,,,,,,,,,,,,,,,,,,,,
1778106620569857280,,,,,,,0.4485571086406708,1,0.1051848381757736,1,-0.3010039925575256,1,-0.01399530004709959,1,-0.01282196212559938,1,-0.01040102355182171,1,2,1,0.1519646346569061,1,0.2987983524799347,1,9.800918579101562,1
1778106620575486976,0.03147894889116287,-0.02843227051198483,-0.9930409789085388,0.0003567745734471828,-0.0002124646853189915,-0.01011732965707779,,,,,,,,,,,,,,,,,,,,
1778106620579847680,,,,,,,0.4181186854839325,1,-0.01719290763139725,1,-0.1007150411605835,1,-0.02153192646801472,1,0.002246664371341467,1,-0.008366095833480358,1,2,1,0.1518652737140656,1,0.2971537411212921,1,9.800970077514648,1
1778106620585465600,0.03695905581116676,-0.02110849507153034,-1.019580960273743,0.0004308469942770898,-0.0001267148763872683,-0.01049643568694592,,,,,,,,,,,,,,,,,,,,
1778106620589818368,,,,,,,0.4468385279178619,1,-0.07322047650814056,1,0.01084573660045862,1,-0.02020411938428879,1,0.01199518702924252,1,-0.00729339849203825,1,2,1,0.1502369344234467,1,0.29475337266922,1,9.801068305969238,1
1778106620595424768,0.03745344653725624,-0.017729252576828,-1.033621549606323,0.0003814548254013062,-0.0001346122735412791,-0.01050948537886143,,,,,,,,,,,,,,,,,,,,
1778106620599769344,,,,,,,0.4754758179187775,1,-0.09952575713396072,1,0.1460311263799667,1,-0.001518691540695727,1,-0.006068187765777111,1,-0.0130508141592145,1,2,1,0.1503513008356094,1,0.2942728400230408,1,9.801080703735352,1
1778106620605364224,0.03028462827205658,-0.02014427445828915,-1.030097484588623,0.0002352860756218433,-0.0002189163205912337,-0.01027542725205421,,,,,,,,,,,,,,,,,,,,
1778106620609700608,,,,,,,0.3748825490474701,1,-0.1093185469508171,1,0.3817009329795837,1,0.001374879735521972,1,-0.003110578283667564,1,-0.01230351161211729,1,2,1,0.1510586440563202,1,0.2945727109909058,1,9.801060676574707,1
1778106620615283712,0.02716029994189739,-0.03240269795060158,-1.009680271148682,0.0002298935578437522,-0.0004517486959230155,-0.009860893711447716,,,,,,,,,,,,,,,,,,,,
1778106620619611904,,,,,,,0.2950360476970673,1,-0.07336033135652542,1,0.5303120613098145,1,-0.02519166842103004,1,0.01425448898226023,1,-0.009574181400239468,1,2,1,0.1498544812202454,1,0.2924555540084839,1,9.801142692565918,1
1778106620625183488,0.03013498149812222,-0.03788167983293533,-0.9983121156692505,0.0003176666214130819,-0.0004423058417160064,-0.009846099652349949,,,,,,,,,,,,,,,,,,,,
1778106620629686016,,,,,,,0.275951474905014,1,0.01494491659104824,1,0.4774031937122345,1,-0.03700928390026093,1,0.01834338344633579,1,-0.006620196159929037,1,2,1,0.1478327959775925,1,0.2888010442256927,1,9.801281929016113,1
1778106620635063808,0.03311154246330261,-0.04037782177329063,-0.9845336079597473,0.0003620737115852535,-0.0004344468470662832,-0.009695836342871189,,,,,,,,,,,,,,,,,,,,
1778106620639922944,,,,,,,0.2469351142644882,1,0.08067990094423294,1,0.2824030518531799,1,-0.04307308420538902,1,0.02296086773276329,1,-0.008480632677674294,1,2,1,0.1455053240060806,1,0.2845218479633331,1,9.80144214630127,1
1778106620644924416,0.02284467779099941,-0.04128569364547729,-0.9605046510696411,0.0001069567806553096,-0.0004269479250069708,-0.009339175187051296,,,,,,,,,,,,,,,,,,,,
1778106620650139904,,,,,,,0.2149017304182053,1,0.13362917304039,1,-0.06617216765880585,1,-0.05251453816890717,1,0.0337705947458744,1,-0.01222646608948708,1,2,1,0.1421439796686172,1,0.2793223857879639,1,9.801640510559082,1
1778106620654765312,0.01472038123756647,-0.03752409294247627,-0.9453536868095398,5.280343611957505e-05,-0.000340575264999643,-0.009262543171644211,,,,,,,,,,,,,,,,,,,,
1778106620660336384,,,,,,,0.2421390414237976,1,0.189220130443573,1,-0.4451428651809692,1,-0.03711500018835068,1,0.01728172972798347,1,-0.01321734581142664,1,2,1,0.1390457004308701,1,0.2752567529678345,1,9.801799774169922,1
1778106620664586752,0.01287232711911201,-0.02831711247563362,-0.9507563710212708,0.0001059127680491656,-0.000176881265360862,-0.009558770805597305,,,,,,,,,,,,,,,,,,,,
1778106620670512384,,,,,,,0.1982746720314026,1,0.1551380902528763,1,-0.5569449067115784,1,-0.002712625544518232,1,-0.005178599152714014,1,-0.01020834315568209,1,2,1,0.1396192610263824,1,0.2748316526412964,1,9.801803588867188,1
1778106620674753792,0.01006591785699129,-0.02131536044180393,-0.9706519842147827,6.528010999318212e-05,-0.0001316292182309553,-0.009921220131218433,,,,,,,,,,,,,,,,,,,,
1778106620680667904,,,,,,,0.1793136298656464,1,0.001967897638678551,1,-0.3792277276515961,1,-0.004487888887524605,1,0.001964760012924671,1,-0.01296704076230526,1,2,1,0.1393343210220337,1,0.2748728692531586,1,9.801806449890137,1
1778106620684900864,0.007017321884632111,-0.01553004048764706,-1.006211280822754,2.041067818936426e-05,-9.678630158305168e-05,-0.01045483350753784,,,,,,,,,,,,,,,,,,,,
1778106620690804224,,,,,,,0.2653718888759613,1,-0.05664654448628426,1,-0.3037189543247223,1,0.002348663983866572,1,0.004984683357179165,1,-0.01423783134669065,1,2,1,0.1378762573003769,1,0.2746109664440155,1,9.801835060119629,1
1778106620695027712,0.01007622573524714,-0.009431319311261177,-1.044871926307678,0.000132432411191985,-2.72865108854603e-05,-0.0108968298882246,,,,,,,,,,,,,,,,,,,,
1778106620700920320,,,,,,,0.296858161687851,1,-0.1135529205203056,1,-0.02271685376763344,1,0.02574312128126621,1,-0.03560004755854607,1,-0.01228000875562429,1,2,1,0.1407075524330139,1,0.277206152677536,1,9.801721572875977,1
1778106620705134592,0.005789126269519329,-0.01258629839867353,-1.056284546852112,2.814642721205018e-05,-0.0001458626065868884,-0.01072022318840027,,,,,,,,,,,,,,,,,,,,
1778106620711016192,,,,,,,0.2008306533098221,1,-0.1030401140451431,1,0.3952195644378662,1,0.02096451073884964,1,-0.02758100256323814,1,-0.006443958263844252,1,2,1,0.1437146216630936,1,0.2792894244194031,1,9.801618576049805,1
1778106620715220992,0.003952149301767349,-0.02804054692387581,-1.038168549537659,4.048457776661962e-05,-0.000441237905761227,-0.0101808737963438,,,,,,,,,,,,,,,,,,,,
1778106620721091840,,,,,,,0.1381600946187973,1,-0.04842211306095123,1,0.7040814757347107,1,-0.02336972765624523,1,0.01351520791649818,1,-0.004740514792501926,1,2,1,0.1429064720869064,1,0.2775630354881287,1,9.801679611206055,1
1778106620725288192,0.01283976528793573,-0.0339033454656601,-1.030473709106445,0.0002062395797111094,-0.0004120503144804388,-0.01020248420536518,,,,,,,,,,,,,,,,,,,,
1778106620735335424,0.01606134325265884,-0.03971847519278526,-1.001819372177124,0.0002059670514427125,-0.000456527981441468,-0.009711654856801033,,,,,,,,,,,,,,,,,,,,
1778106620745362432,0.006114555988460779,-0.03876315057277679,-0.9591962099075317,-6.179964839247987e-05,-0.0003762210544664413,-0.009118800051510334,,,,,,,,,,,,,,,,,,,,
1778106620755369472,-0.0004023773362860084,-0.03326445817947388,-0.9276972413063049,-0.000105370425444562,-0.0002878466330002993,-0.008876794949173927,,,,,,,,,,,,,,,,,,,,
1778106620756676800,,,,,,,0.142850399017334,1,0.08392233401536942,1,0.6348586678504944,1,-0.0209371242672205,1,0.01834032498300076,1,-0.007882055826485157,1,2,1,0.1413084417581558,1,0.2751521468162537,1,9.801770210266113,1
1778106620765357056,7.96516687842086e-05,-0.01968352310359478,-0.9347585439682007,1.318941394856665e-05,-3.433772144489922e-05,-0.009419906884431839,,,,,,,,,,,,,,,,,,,,
1778106620766661888,,,,,,,0.1623296737670898,1,0.1388377398252487,1,0.3653632700443268,1,-0.0322144478559494,1,0.04133177548646927,1,-0.01851860247552395,1,2,1,0.1375217884778976,1,0.2722281217575073,1,9.801906585693359,1
1778106620775324672,0.002198467263951898,-0.01392384152859449,-0.962245762348175,4.492083098739386e-05,-7.346342317759991e-05,-0.009905673563480377,,,,,,,,,,,,,,,,,,,,
1778106620776626944,,,,,,,0.2215650528669357,1,0.2128781974315643,1,-0.1296503990888596,1,-0.01655194349586964,1,0.02960693091154099,1,-0.02507304958999157,1,2,1,0.1340333372354507,1,0.2700395584106445,1,9.80201530456543,1
1778106620785272320,0.008498223498463631,-0.00615306943655014,-1.012732863426208,0.0001574242196511477,3.20503422699403e-05,-0.01070806663483381,,,,,,,,,,,,,,,,,,,,
1778106620786572032,,,,,,,0.2466021627187729,1,0.210687130689621,1,-0.4167921245098114,1,0.01886125467717648,1,0.005153277888894081,1,-0.02322676777839661,1,2,1,0.1331339627504349,1,0.2713975012302399,1,9.801989555358887,1
1778106620795200256,0.01128078438341618,-0.006252477411180735,-1.042020082473755,0.0001486241380916908,-5.689266254194081e-05,-0.01078411191701889,,,,,,,,,,,,,,,,,,,,
1778106620796497920,,,,,,,0.1953285932540894,1,0.06837049126625061,1,-0.3816340863704681,1,0.02874784916639328,1,0.009293505921959877,1,-0.01649622432887554,1,2,1,0.1325679421424866,1,0.2743898928165436,1,9.801914215087891,1
1778106620805108480,0.006192889530211687,-0.02082159370183945,-1.038435220718384,6.808013495174237e-07,-0.0003631317522376776,-0.01036643143743277,,,,,,,,,,,,,,,,,,,,
1778106620806403840,,,,,,,0.2047968804836273,1,-0.09220770001411438,1,-0.3052257299423218,1,0.00597395608201623,1,0.02955742739140987,1,-0.01188098173588514,1,2,1,0.1299051940441132,1,0.27520751953125,1,9.801926612854004,1
1778106620814997248,0.007319467142224312,-0.0373125784099102,-1.030642628669739,9.012303780764341e-05,-0.0005807775887660682,-0.01020123064517975,,,,,,,,,,,,,,,,,,,,
1778106620816289792,,,,,,,0.253775954246521,1,-0.1320582330226898,1,-0.2224808633327484,1,0.04085898771882057,1,-0.006187411025166512,1,-0.01230847090482712,1,2,1,0.1297843158245087,1,0.2786876857280731,1,9.801830291748047,1
1778106620824866304,0.01248082891106606,-0.04152887687087059,-1.022202968597412,0.0002013025223277509,-0.0004626355948857963,-0.01014546491205692,,,,,,,,,,,,,,,,,,,,
1778106620826156544,,,,,,,0.1639615893363953,1,-0.1667990237474442,1,0.1756173968315125,1,0.05709042027592659,1,-0.03964642435312271,1,-0.01263796538114548,1,2,1,0.1337333470582962,1,0.2846622169017792,1,9.801605224609375,1
1778106620834715648,0.003291627392172813,-0.04540450498461723,-0.9815983772277832,-3.357452442287467e-05,-0.0004900756757706404,-0.009377595968544483,,,,,,,,,,,,,,,,,,,,
1778106620836003584,,,,,,,0.01078781299293041,1,-0.1636811345815659,1,0.7133699059486389,1,0.01152181718498468,1,-0.001559548545628786,1,-0.009364956989884377,1,2,1,0.1346274465322495,1,0.2868843674659729,1,9.801527976989746,1
1778106620844545792,-0.01246582716703415,-0.04546241462230682,-0.9267503023147583,-0.0002972566580865532,-0.0004591519827954471,-0.008624515496194363,,,,,,,,,,,,,,,,,,,,
1778106620846202624,,,,,,,-0.01378007791936398,1,-0.04691610485315323,1,0.7725754380226135,1,-0.02799157984554768,1,0.0341193675994873,1,-0.01011252216994762,1,2,1,0.1310680508613586,1,0.2841773629188538,1,9.801655769348145,1
1778106620854541824,-0.01494729425758123,-0.03370680660009384,-0.920708954334259,-0.000184215881745331,-0.0002083294093608856,-0.009088234044611454,,,,,,,,,,,,,,,,,,,,
1778106620856381184,,,,,,,-0.003745126072317362,1,0.03889188170433044,1,0.4519641101360321,1,-0.03168707713484764,1,0.04454267397522926,1,-0.01593343541026115,1,2,1,0.1266481578350067,1,0.2812714874744415,1,9.801796913146973,1
1778106620864703744,-0.01372125186026096,-0.02490452118217945,-0.9534064531326294,-0.0001288666826440021,-0.000141567041282542,-0.009882627055048943,,,,,,,,,,,,,,,,,,,,
1778106620866539776,,,,,,,0.01454689726233482,1,0.09529192745685577,1,-0.09750773757696152,1,-0.03688601031899452,1,0.04001668840646744,1,-0.02243122085928917,1,2,1,0.1224392354488373,1,0.2776045799255371,1,9.801955223083496,1
1778106620874845952,-0.01154025178402662,-0.01896471716463566,-1.009446501731873,-9.829345799516886e-05,-0.0001239237317349762,-0.01071940734982491,,,,,,,,,,,,,,,,,,,,
1778106620876678400,,,,,,,0.07773562520742416,1,0.1289723068475723,1,-0.50004643201828,1,-0.006209433078765869,1,0.0032050262670964,1,-0.021694740280509,1,2,1,0.1213783994317055,1,0.276348352432251,1,9.802003860473633,1
1778106620884967680,-0.004803964402526617,-0.01530801504850388,-1.050504326820374,3.679158180602826e-05,-9.98334726318717e-05,-0.01100873947143555,,,,,,,,,,,,,,,,,,,,
1778106620886796544,,,,,,,0.0120739433914423,1,0.02577090635895729,1,-0.5661609768867493,1,0.01218608394265175,1,0.002919821999967098,1,-0.01386913470923901,1,2,1,0.118747316300869,1,0.2753294408321381,1,9.802064895629883,1
1778106620895069440,-0.01126275211572647,-0.02566513419151306,-1.05725371837616,-0.0001864991063484922,-0.0003654794418253005,-0.0106733413413167,,,,,,,,,,,,,,,,,,,,
1778106620896894720,,,,,,,0.0542236715555191,1,-0.1665606647729874,1,-0.5754291415214539,1,-0.02207063138484955,1,0.02518785558640957,1,-0.01303976029157639,1,2,1,0.1162864491343498,1,0.2739292085170746,1,9.802133560180664,1
1778106620905150976,-0.00672538299113512,-0.04515797644853592,-1.058205246925354,-3.416150502744131e-05,-0.0006918045110069215,-0.0105672562494874,,,,,,,,,,,,,,,,,,,,
1778106620906972928,,,,,,,0.1865497678518295,1,-0.1358780264854431,1,-0.6123951077461243,1,0.02616551332175732,1,-0.03666989132761955,1,-0.01100889034569263,1,2,1,0.1183589547872543,1,0.2750708162784576,1,9.802077293395996,1
1778106620915212800,0.006926515139639378,-0.04191823676228523,-1.06197988986969,0.0002313848381163552,-0.0003751436888705939,-0.01070081628859043,,,,,,,,,,,,,,,,,,,,
1778106620917031168,,,,,,,0.1142398193478584,1,-0.1837839782238007,1,-0.08177026361227036,1,0.04876386001706123,1,-0.06853505969047546,1,-0.007654569111764431,1,2,1,0.1252123117446899,1,0.2803641259670258,1,9.801841735839844,1
1778106620925254400,-0.0006246129050850868,-0.04694992676377296,-1.007864952087402,-7.606991857755929e-05,-0.0005220731254667044,-0.0094990199431777,,,,,,,,,,,,,,,,,,,,
1778106620927069184,,,,,,,0.004122340120375156,1,-0.1517626643180847,1,0.5554931163787842,1,-0.005523229949176311,1,-0.02773161232471466,1,-0.002276759361848235,1,2,1,0.128548189997673,1,0.280827671289444,1,9.801785469055176,1
1778106620935276032,-0.01218948885798454,-0.04389581829309464,-0.9428719282150269,-0.0002661616890691221,-0.0004110084846615791,-0.008668787777423859,,,,,,,,,,,,,,,,,,,,
1778106620937087232,,,,,,,-0.01359286997467279,1,-0.03857479616999626,1,0.8334208130836487,1,-0.05109602957963943,1,0.01451248116791248,1,-0.0001389699755236506,1,2,1,0.127601370215416,1,0.2761559188365936,1,9.80193042755127,1
1778106620945277440,-0.0142112709581852,-0.03233383968472481,-0.914529025554657,-0.0001732634264044464,-0.0001931809965753928,-0.008767267689108849,,,,,,,,,,,,,,,,,,,,
1778106620947086080,,,,,,,0.09685732424259186,1,0.110786110162735,1,0.5773949027061462,1,-0.04426607117056847,1,0.02605654671788216,1,-0.01033496484160423,1,2,1,0.1246078833937645,1,0.2714807391166687,1,9.802099227905273,1
1778106620955259648,-0.002945014508441091,-0.0168550182133913,-0.9406434297561646,8.584000170230865e-05,1.980596971407067e-05,-0.009684271179139614,,,,,,,,,,,,,,,,,,,,
1778106620957064960,,,,,,,0.1662082821130753,1,0.1567462980747223,1,0.1897269636392593,1,-0.04165186733007431,1,0.01644273102283478,1,-0.01962920464575291,1,2,1,0.122791089117527,1,0.2672865092754364,1,9.802237510681152,1
1778106620965222400,0.004233443178236485,-0.01183507591485977,-0.9801851511001587,0.0001191469491459429,-6.51936570648104e-05,-0.01024348475039005,,,,,,,,,,,,,,,,,,,,
1778106620967024128,,,,,,,0.218731090426445,1,0.1559039503335953,1,-0.08353940397500992,1,-0.01571870408952236,1,0.01042831689119339,1,-0.02267660386860371,1,2,1,0.1216452419757843,1,0.2654002606868744,1,9.802303314208984,1
1778106620975165184,0.009711110033094883,-0.01160070300102234,-1.008060932159424,0.0001548888540128246,-0.0001062133596860804,-0.01043083146214485,,,,,,,,,,,,,,,,,,,,
1778106620976963840,,,,,,,0.2646872997283936,1,0.04166022688150406,1,-0.1896673589944839,1,-0.01280968077480793,1,0.01605941727757454,1,-0.01699080690741539,1,2,1,0.120276190340519,1,0.2643751502037048,1,9.802348136901855,1
1778106620985088512,0.01451661437749863,-0.02302613854408264,-1.018890619277954,0.0002128436462953687,-0.0003495932614896446,-0.01030592154711485,,,,,,,,,,,,,,,,,,,,
1778106620986883584,,,,,,,0.3284475803375244,1,-0.1394069939851761,1,-0.2660685479640961,1,-0.03915343433618546,1,0.04441024735569954,1,-0.01352584362030029,1,2,1,0.1159859374165535,1,0.2612903416156769,1,9.802482604980469,1
1778106620994991872,0.0212267804890871,-0.0412755161523819,-1.026689767837524,0.0002652040566317737,-0.0006160654011182487,-0.01034413371235132,,,,,,,,,,,,,,,,,,,,
1778106620996783360,,,,,,,0.4701946973800659,1,-0.09249627590179443,1,-0.5442863702774048,1,0.001683865673840046,1,-0.000135316513478756,1,-0.01148365624248981,1,2,1,0.1143158301711082,1,0.2595235407352448,1,9.802548408508301,1
1778106621004875520,0.0359613262116909,-0.03621290624141693,-1.055070996284485,0.000517714477609843,-0.0003181129868607968,-0.0108904866501689,,,,,,,,,,,,,,,,,,,,
1778106621006663424,,,,,,,0.3926889896392822,1,-0.1364928036928177,1,-0.2018214613199234,1,0.03945077210664749,1,-0.04972066730260849,1,-0.007710164412856102,1,2,1,0.1191217377781868,1,0.2638296782970428,1,9.802376747131348,1
1778106621014739456,0.02808021567761898,-0.04067698493599892,-1.020150065422058,0.0002012433687923476,-0.0004580163513310254,-0.009853595867753029,,,,,,,,,,,,,,,,,,,,
1778106621016524032,,,,,,,0.1885215193033218,1,-0.1015884950757027,1,0.4098400175571442,1,0.002148778177797794,1,-0.0238711554557085,1,-0.001880220253951848,1,2,1,0.1222902610898018,1,0.2646590173244476,1,9.802315711975098,1
1778106621024583680,0.007068670354783535,-0.03722292929887772,-0.9577728509902954,-0.0001818813907448202,-0.0003456577833276242,-0.008872220292687416,,,,,,,,,,,,,,,,,,,,
1778106621026552320,,,,,,,0.03762228414416313,1,-0.03497641533613205,1,0.8283094167709351,1,-0.04638788104057312,1,0.02727793715894222,1,-0.001439782325178385,1,2,1,0.120532438158989,1,0.2607717514038086,1,9.802441596984863,1
1778106621034408704,-0.008437450975179672,-0.03039637953042984,-0.9151003956794739,-0.0002777965273708105,-0.0002283123176312074,-0.008613825775682926,,,,,,,,,,,,,,,,,,,,
1778106621036747520,,,,,,,0.0876649022102356,1,0.09549000114202499,1,0.5238875150680542,1,-0.05950877442955971,1,0.04174751415848732,1,-0.01356413122266531,1,2,1,0.1158358603715897,1,0.2544789612293243,1,9.80266284942627,1
1778106621044588288,-0.003204639768227935,-0.01680117845535278,-0.9461521506309509,4.876813363807742e-06,-1.233774219144834e-05,-0.009773047640919685,,,,,,,,,,,,,,,,,,,,
1778106621046923008,,,,,,,0.08338049799203873,1,0.09108113497495651,1,0.09947516024112701,1,-0.04398860409855843,1,0.00769408792257309,1,-0.02211566641926765,1,2,1,0.1147302389144897,1,0.2499336153268814,1,9.802793502807617,1
1778106621054747648,-0.003449604380875826,-0.01684839837253094,-0.9894430041313171,-3.181280771968886e-05,-0.0001625603763386607,-0.01039991341531277,,,,,,,,,,,,,,,,,,,,
1778106621057078016,,,,,,,0.0386083796620369,1,-0.02179949358105659,1,-0.1781189292669296,1,-0.03729323670268059,1,0.01216654665768147,1,-0.02035583555698395,1,2,1,0.1139432713389397,1,0.2463903576135635,1,9.802891731262207,1
1778106621064887040,-0.007886669598519802,-0.02796356193721294,-1.017761468887329,-0.0001364163472317159,-0.0004009474941994995,-0.01051291450858116,,,,,,,,,,,,,,,,,,,,
1778106621067212544,,,,,,,0.0124144870787859,1,-0.2082097977399826,1,-0.4843081831932068,1,-0.06587719917297363,1,0.03620853275060654,1,-0.01084403228014708,1,2,1,0.1108085140585899,1,0.240518793463707,1,9.803073883056641,1
1778106621075006208,-0.0103879114612937,-0.0465412437915802,-1.048996925354004,-0.0001384349743602797,-0.0006813322543166578,-0.01082574669271708,,,,,,,,,,,,,,,,,,,,
1778106621077327104,,,,,,,0.1830606758594513,1,-0.2108143866062164,1,-0.9206696152687073,1,-0.05702999979257584,1,0.003553729970008135,1,-0.006705584470182657,1,2,1,0.1091361045837402,1,0.2340726554393768,1,9.803248405456543,1
1778106621085104896,0.007248980458825827,-0.04625286161899567,-1.093509912490845,0.0002758064947556704,-0.0004710701177828014,-0.01146069262176752,,,,,,,,,,,,,,,,,,,,
1778106621087421696,,,,,,,0.2192537933588028,1,-0.1499956995248795,1,-0.8519013524055481,1,-0.004149916581809521,1,-0.05196470022201538,1,-0.007139215245842934,1,2,1,0.1107150912284851,1,0.2368523776531219,1,9.803164482116699,1
1778106621095184128,0.01105380151420832,-0.03971658274531364,-1.086507081985474,0.0001556457136757672,-0.0003233138122595847,-0.01083310320973396,,,,,,,,,,,,,,,,,,,,
1778106621097496320,,,,,,,0.1749599277973175,1,-0.1340350061655045,1,-0.1666482985019684,1,0.007915686815977097,1,-0.06940718740224838,1,-0.007615863345563412,1,2,1,0.1177225336432457,1,0.2382804751396179,1,9.803048133850098,1
1778106621105243136,0.006346581038087606,-0.03801508247852325,-1.016630530357361,2.428811967547517e-05,-0.0003536231524776667,-0.00941123440861702,,,,,,,,,,,,,,,,,,,,
1778106621107550720,,,,,,,0.1231743693351746,1,-0.06460825353860855,1,0.6491304636001587,1,-0.04094088450074196,1,-0.03822984918951988,1,-0.005267155822366476,1,2,1,0.1220027506351471,1,0.2349221855401993,1,9.80307674407959,1
1778106621115281920,0.0006992354756221175,-0.03083791211247444,-0.9334424138069153,-6.542893243022263e-05,-0.0002362686936976388,-0.008367677219212055,,,,,,,,,,,,,,,,,,,,
1778106621117584896,,,,,,,0.06357493251562119,1,-0.006947783753275871,1,1.13517701625824,1,-0.0769757479429245,1,0.0124690905213356,1,-0.00693871732801199,1,2,1,0.1217484250664711,1,0.2279954999685287,1,9.803243637084961,1
1778106621125300736,-0.005660128314048052,-0.02464581839740276,-0.8838835954666138,-0.0001331978128291667,-0.0001731797819957137,-0.008210791274905205,,,,,,,,,,,,,,,,,,,,
1778106621127600128,,,,,,,0.1595219969749451,1,0.07332713156938553,1,0.8280302286148071,1,-0.08150465041399002,1,0.02704968862235546,1,-0.01647843047976494,1,2,1,0.118562176823616,1,0.2196786254644394,1,9.803472518920898,1
1778106621135300608,0.004095601849257946,-0.01590761728584766,-0.9152164459228516,0.0001521407248219475,-5.121665526530705e-05,-0.009464013390243053,,,,,,,,,,,,,,,,,,,,
1778106621137595648,,,,,,,0.2377732992172241,1,0.03940489888191223,1,0.3497519791126251,1,-0.08006654679775238,1,0.0187971331179142,1,-0.02361165173351765,1,2,1,0.1165889501571655,1,0.2120218575000763,1,9.803664207458496,1
1778106621145280768,0.01216973457485437,-0.01870658062398434,-0.9640035629272461,0.0002159021969418973,-0.0002147911582142115,-0.01018901169300079,,,,,,,,,,,,,,,,,,,,
1778106621147571456,,,,,,,0.2647839784622192,1,-0.06298861652612686,1,-0.1716634631156921,1,-0.07669991254806519,1,0.02922008372843266,1,-0.02603369206190109,1,2,1,0.113975889980793,1,0.2045711427927017,1,9.803853988647461,1
1778106621155241216,0.01507582329213619,-0.02843564935028553,-1.01719069480896,0.000184896751306951,-0.0003874167741741985,-0.01077425759285688,,,,,,,,,,,,,,,,,,,,
1778106621157527296,,,,,,,0.3307356238365173,1,-0.1388029754161835,1,-0.8463510274887085,1,-0.08158738166093826,1,0.0255553163588047,1,-0.02095872722566128,1,2,1,0.1107283756136894,1,0.1964321285486221,1,9.804057121276855,1
1778106621165181696,0.02204153686761856,-0.0354122519493103,-1.086008667945862,0.0002927298774011433,-0.0004535292682703584,-0.01163583248853683,,,,,,,,,,,,,,,,,,,,
1778106621167463424,,,,,,,0.4439220130443573,1,-0.1102887764573097,1,-1.149539709091187,1,-0.04141027480363846,1,-0.03024306707084179,1,-0.02049450762569904,1,2,1,0.1125808209180832,1,0.1917076408863068,1,9.804129600524902,1
1778106621175102720,0.0337371900677681,-0.03179451078176498,-1.116941928863525,0.0004838269669562578,-0.0002762775984592736,-0.01158024556934834,,,,,,,,,,,,,,,,,,,,
1778106621177380096,,,,,,,0.4167862236499786,1,-0.07632835209369659,1,-0.7315265536308289,1,0.007363998331129551,1,-0.06109640002250671,1,-0.01634643413126469,1,2,1,0.118185855448246,1,0.192052349448204,1,9.804057121276855,1
1778106621185004032,0.03084609284996986,-0.02786990813910961,-1.074324607849121,0.0002709250547923148,-0.0002214015257777646,-0.0103200189769268,,,,,,,,,,,,,,,,,,,,
1778106621187276800,,,,,,,0.3022793531417847,1,-0.06689141690731049,1,0.1625514328479767,1,-0.01861223764717579,1,-0.05144311860203743,1,-0.01212205272167921,1,2,1,0.1233948171138763,1,0.1908883303403854,1,9.804015159606934,1
1778106621194885632,0.01883603073656559,-0.02666141465306282,-0.983155369758606,3.94662311009597e-05,-0.0002651982649695128,-0.008795750327408314,,,,,,,,,,,,,,,,,,,,
1778106621197153792,,,,,,,0.1694747656583786,1,-0.05204327777028084,1,1.029450654983521,1,-0.06353220343589783,1,-0.01453035604208708,1,-0.01330073084682226,1,2,1,0.1256346702575684,1,0.185279905796051,1,9.804094314575195,1
1778106621204747520,0.004938314668834209,-0.02483690902590752,-0.8947579860687256,-0.0001307475176872686,-0.0002357166085857898,-0.007928485982120037,,,,,,,,,,,,,,,,,,,,
1778106621207011328,,,,,,,0.06940039992332458,1,-0.06057603657245636,1,1.348824858665466,1,-0.1050867587327957,1,0.03086089342832565,1,-0.01590671204030514,1,2,1,0.1233325377106667,1,0.1754790395498276,1,9.804304122924805,1
1778106621214589440,-0.005436014849692583,-0.0251579862087965,-0.8621993064880371,-0.0001868619438027963,-0.0002661687030922621,-0.008174531161785126,,,,,,,,,,,,,,,,,,,,
1778106621217036288,,,,,,,0.09518034011125565,1,-0.08811038732528687,1,1.039993643760681,1,-0.1080158352851868,1,0.03542108833789825,1,-0.02288615889847279,1,2,1,0.119863472878933,1,0.164858877658844,1,9.804531097412109,1
1778106621224412416,-0.00273983902297914,-0.0271721389144659,-0.8937066793441772,1.172753218270373e-05,-0.0002830069570336491,-0.009273536503314972,,,,,,,,,,,,,,,,,,,,
1778106621227227648,,,,,,,0.08704541623592377,1,-0.209966778755188,1,0.5527891516685486,1,-0.1268425136804581,1,0.05681012943387032,1,-0.02201503328979015,1,2,1,0.1148056983947754,1,0.1529527455568314,1,9.804784774780273,1
1778106621234589440,-0.003338582580909133,-0.03864892572164536,-0.9434070587158203,-4.55864064861089e-05,-0.0005242775660008192,-0.009982985444366932,,,,,,,,,,,,,,,,,,,,
1778106621237399296,,,,,,,0.1754152327775955,1,-0.2463867515325546,1,-0.3235902786254883,1,-0.1456863880157471,1,0.06752902269363403,1,-0.0215757992118597,1,2,1,0.1076411679387093,1,0.1384907364845276,1,9.805081367492676,1
1778106621244745984,0.006111151073127985,-0.04120953008532524,-1.032796859741211,0.0001631018822081387,-0.0004617389931809157,-0.01132592465728521,,,,,,,,,,,,,,,,,,,,
1778106621247550720,,,,,,,0.2592315971851349,1,-0.1698664873838425,1,-1.147562742233276,1,-0.1211607158184052,1,0.02340592443943024,1,-0.01719954051077366,1,2,1,0.1045231223106384,1,0.1259327679872513,1,9.80528450012207,1
1778106621254882560,0.01512955501675606,-0.03214510530233383,-1.116843223571777,0.0002344640379305929,-0.0002417675859760493,-0.01216133590787649,,,,,,,,,,,,,,,,,,,,
1778106621257682176,,,,,,,0.2197546660900116,1,-0.04665185511112213,1,-1.310313940048218,1,-0.0652712881565094,1,-0.03237734362483025,1,-0.01453530229628086,1,2,1,0.1075200140476227,1,0.1189188733696938,1,9.805339813232422,1
1778106621264999680,0.01132666040211916,-0.01846158131957054,-1.133457779884338,8.957582031143829e-05,-2.978029806399718e-05,-0.01159822754561901,,,,,,,,,,,,,,,,,,,,
1778106621267793664,,,,,,,0.1261837184429169,1,-0.02672584541141987,1,-0.694046676158905,1,-0.05245761573314667,1,-0.05673971772193909,1,-0.01292163785547018,1,2,1,0.1131988540291786,1,0.1141996681690216,1,9.805331230163574,1
1778106621275096320,0.001683519571088254,-0.01558331307023764,-1.070626378059387,-6.653870514128357e-05,-0.0001179790197056718,-0.01004496775567532,,,,,,,,,,,,,,,,,,,,
1778106621277884672,,,,,,,-0.03199260681867599,1,-0.03532006964087486,1,0.2254268229007721,1,-0.08657526969909668,1,-0.03356603533029556,1,-0.008685058914124966,1,2,1,0.1171042770147324,1,0.1062991842627525,1,9.805374145507812,1
1778106621285172992,-0.01473159249871969,-0.01570077799260616,-0.9768726825714111,-0.0003212238370906562,-0.0001634331129025668,-0.008703033439815044,,,,,,,,,,,,,,,,,,,,
1778106621287955712,,,,,,,-0.1348416060209274,1,-0.0601460337638855,1,0.8534239530563354,1,-0.1269324123859406,1,0.0001535927876830101,1,-0.01321665849536657,1,2,1,0.1154013425111771,1,0.09731448441743851,1,9.805487632751465,1
1778106621295229440,-0.02539040334522724,-0.01743382401764393,-0.9128422737121582,-0.0003724712878465652,-0.0002006723661907017,-0.008343880996108055,,,,,,,,,,,,,,,,,,,,
1778106621298007040,,,,,,,-0.1382128745317459,1,-0.06571095436811447,1,0.9359302520751953,1,-0.1410236954689026,1,-0.002421077340841293,1,-0.01679125986993313,1,2,1,0.1153881549835205,1,0.08356400579214096,1,9.805615425109863,1
1778106621305266176,-0.02578555233776569,-0.01699158735573292,-0.9044391512870789,-0.0002457610389683396,-0.0001659554109210148,-0.008913147263228893,,,,,,,,,,,,,,,,,,,,
1778106621308038400,,,,,,,-0.2152509838342667,1,-0.1464067250490189,1,0.7156198620796204,1,-0.1621125936508179,1,0.027567058801651,1,-0.0162897165864706,1,2,1,0.1136823147535324,1,0.0683305412530899,1,9.805752754211426,1
1778106621315282944,-0.03364821895956993,-0.02400147914886475,-0.9269158840179443,-0.0004167649603914469,-0.0003217407211195678,-0.009482912719249725,,,,,,,,,,,,,,,,,,,,
1778106621318049536,,,,,,,-0.1018988490104675,1,-0.1525200754404068,1,-0.09385174512863159,1,-0.1865212023258209,1,0.04971423000097275,1,-0.01953138597309589,1,2,1,0.1082414165139198,1,0.05027611181139946,1,9.805923461914062,1
1778106621325279744,-0.02188218384981155,-0.02316807210445404,-1.009472966194153,-9.421172580914572e-05,-0.000242057052673772,-0.01100290287286043,,,,,,,,,,,,,,,,,,,,
1778106621328040704,,,,,,,0.0838458389043808,1,-0.00679403031244874,1,-0.942431628704071,1,-0.1428410261869431,1,-0.01992851123213768,1,-0.01904290542006493,1,2,1,0.1085498258471489,1,0.03494243323802948,1,9.805987358093262,1
1778106621335256576,-0.002704465761780739,-0.006715452298521996,-1.096016883850098,0.0001997779181692749,0.0001095215629902668,-0.01199961453676224,,,,,,,,,,,,,,,,,,,,
1778106621338012416,,,,,,,0.07567406445741653,1,0.02044452354311943,1,-1.061102271080017,1,-0.09433936327695847,1,-0.04561910033226013,1,-0.01973058842122555,1,2,1,0.1131897270679474,1,0.02554852142930031,1,9.805963516235352,1
1778106621345213952,-0.003583570476621389,-0.002544013317674398,-1.10812509059906,-5.695997242582962e-05,1.680915556789842e-05,-0.01128316391259432,,,,,,,,,,,,,,,,,,,,
1778106621347964160,,,,,,,0.1185250654816628,1,0.05171038582921028,1,-0.6358877420425415,1,-0.08803745359182358,1,-0.05208794772624969,1,-0.02358745969831944,1,2,1,0.1179770976305008,1,0.01685665734112263,1,9.805925369262695,1
1778106621355151360,0.0005465535214170814,0.001812044880352914,-1.064767599105835,4.225788870826364e-05,5.705163857783191e-05,-0.01017999183386564,,,,,,,,,,,,,,,,,,,,
1778106621357896192,,,,,,,0.140343651175499,1,0.0389053001999855,1,0.08335370570421219,1,-0.07912274450063705,1,-0.05592761188745499,1,-0.0282584335654974,1,2,1,0.1235042810440063,1,0.009055242873728275,1,9.805868148803711,1
1778106621365069056,0.002391614718362689,0.001522345468401909,-0.9914242625236511,3.663951429189183e-05,1.509245976194507e-05,-0.009098267182707787,,,,,,,,,,,,,,,,,,,,
1778106621367809280,,,,,,,0.02983121201395988,1,-0.02039979957044125,1,0.7957998514175415,1,-0.0883205235004425,1,-0.02878358401358128,1,-0.03223281353712082,1,2,1,0.1269779801368713,1,0.000603406282607466,1,9.805828094482422,1
1778106621374967296,-0.009298657067120075,-0.003598165465518832,-0.9187719225883484,-0.0002335364843020216,-9.833919466473162e-05,-0.008331026881933212,,,,,,,,,,,,,,,,,,,,
1778106621377702912,,,,,,,0.02308954484760761,1,-0.05871862918138504,1,1.015121817588806,1,-0.1165774241089821,1,-0.0001424941438017413,1,-0.0361112505197525,1,2,1,0.1270561069250107,1,-0.01044050790369511,1,9.805821418762207,1
1778106621384846592,-0.01027196645736694,-0.006542162038385868,-0.8964048624038696,-0.0001303698227275163,-0.0001043299998855218,-0.008665261790156364,,,,,,,,,,,,,,,,,,,,
1778106621387577088,,,,,,,0.03957180678844452,1,-0.06256604939699173,1,0.8333501815795898,1,-0.1330363601446152,1,0.01593536697328091,1,-0.03268203511834145,1,2,1,0.1259414851665497,1,-0.02350647561252117,1,9.805812835693359,1
1778106621394706432,-0.008721138350665569,-0.005832304246723652,-0.9149386882781982,-8.227179932873696e-05,-6.09796516073402e-05,-0.009329157881438732,,,,,,,,,,,,,,,,,,,,
1778106621397431296,,,,,,,0.1026134788990021,1,-0.0741460919380188,1,0.356430858373642,1,-0.1203827038407326,1,0.04107700660824776,1,-0.0350416861474514,1,2,1,0.1222366839647293,1,-0.03539670258760452,1,9.805824279785156,1
1778106621404546304,-0.002237857086583972,-0.005832094699144363,-0.9635701775550842,4.368945883470587e-05,-5.333872104529291e-05,-0.01017160713672638,,,,,,,,,,,,,,,,,,,,
1778106621407448832,,,,,,,0.2749509513378143,1,0.03343936055898666,1,-0.404085785150528,1,-0.1066384315490723,1,0.02397915720939636,1,-0.04138945788145065,1,2,1,0.1188309267163277,1,-0.04663747921586037,1,9.805819511413574,1
1778106621414549248,0.01555900648236275,0.006326593458652496,-1.041121363639832,0.0003462955937720835,0.0001774514239514247,-0.01129153836518526,,,,,,,,,,,,,,,,,,,,
1778106621417628928,,,,,,,0.2867962718009949,1,0.1223068609833717,1,-0.700751006603241,1,-0.04931609705090523,1,-0.01695948652923107,1,-0.04323126748204231,1,2,1,0.1206474080681801,1,-0.05190052837133408,1,9.805770874023438,1
1778106621424715008,0.01688481867313385,0.01639204472303391,-1.071370959281921,0.0001979488879442215,0.0002881587133742869,-0.0111199552193284,,,,,,,,,,,,,,,,,,,,
1778106621427789056,,,,,,,0.3405005633831024,1,0.1780241131782532,1,-0.5207228064537048,1,-0.01831072568893433,1,-0.02233244106173515,1,-0.05361269786953926,1,2,1,0.1224023625254631,1,-0.05402087047696114,1,9.805737495422363,1
1778106621434860800,0.02234715595841408,0.02277041971683502,-1.0530104637146,0.0002940206904895604,0.0003053294494748116,-0.0103541761636734,,,,,,,,,,,,,,,,,,,,
1778106621437928704,,,,,,,0.3117453455924988,1,0.1514978259801865,1,-0.06294241547584534,1,-0.01765825785696507,1,-0.02051051519811153,1,-0.05604029819369316,1,2,1,0.1245094016194344,1,-0.05537137016654015,1,9.805703163146973,1
1778106621444986624,0.01930517889559269,0.02050449140369892,-1.006326675415039,0.0001513037423137575,0.0001756594429025427,-0.009528432972729206,,,,,,,,,,,,,,,,,,,,
1778106621448048384,,,,,,,0.2584246098995209,1,0.1650759428739548,1,0.4150909781455994,1,-0.01637222617864609,1,-0.03265101090073586,1,-0.05989319086074829,1,2,1,0.1273808926343918,1,-0.05685349181294441,1,9.805657386779785,1
1778106621455091968,0.01369915623217821,0.02219979837536812,-0.9575774669647217,9.513211261946708e-05,0.0002507735334802419,-0.009023000486195087,,,,,,,,,,,,,,,,,,,,
1778106621458147840,,,,,,,0.1569954454898834,1,0.1148300841450691,1,0.7647084593772888,1,-0.0236616563051939,1,-0.02681119740009308,1,-0.06208511069417,1,2,1,0.129924938082695,1,-0.05899778008460999,1,9.805611610412598,1
1778106621465177344,0.003131981939077377,0.01733000390231609,-0.9219223260879517,-0.0001041677533066832,0.0001237735705217347,-0.008786180056631565,,,,,,,,,,,,,,,,,,,,
1778106621468227584,,,,,,,0.02821023762226105,1,-0.0773792639374733,1,0.9850682616233826,1,-0.05441467463970184,1,-0.005474148783832788,1,-0.05490968376398087,1,2,1,0.1311836540699005,1,-0.06325250864028931,1,9.805568695068359,1
1778106621475242752,-0.01021943241357803,-0.001991470344364643,-0.8994475603103638,-0.0002448025334160775,-0.0002231319958809763,-0.008718567900359631,,,,,,,,,,,,,,,,,,,,
1778106621478287104,,,,,,,0.07199555635452271,1,-0.124138206243515,1,0.432500958442688,1,-0.08414230495691299,1,0.0538751631975174,1,-0.05052313581109047,1,2,1,0.1255730986595154,1,-0.07212173193693161,1,9.805581092834473,1
1778106621485288192,-0.00573133397847414,-0.006253251805901527,-0.9557908177375793,-5.647052967105992e-05,-0.0001310049265157431,-0.01014919672161341,,,,,,,,,,,,,,,,,,,,
1778106621488326400,,,,,,,0.1376446485519409,1,-0.1624022424221039,1,-0.3076272308826447,1,-0.09949080646038055,1,0.0531223937869072,1,-0.04620014503598213,1,2,1,0.1150018498301506,1,-0.0815277099609375,1,9.805636405944824,1
1778106621495313664,0.001395420636981726,-0.009468098171055317,-1.031263470649719,6.655478500761092e-05,-0.0001674515660852194,-0.01113728433847427,,,,,,,,,,,,,,,,,,,,
1778106621498346752,,,,,,,0.1764869391918182,1,-0.07105722278356552,1,-0.9609740376472473,1,-0.02848583087325096,1,-0.004388677887618542,1,-0.04557072371244431,1,2,1,0.1150081232190132,1,-0.08528567850589752,1,9.805604934692383,1
1778106621505319936,0.005789936520159245,0.0005388738354668021,-1.097886323928833,0.0001385490031680092,0.0001457862672396004,-0.01180387008935213,,,,,,,,,,,,,,,,,,,,
1778106621508347136,,,,,,,0.1749012321233749,1,-0.05652245134115219,1,-0.928382933139801,1,-0.03954949975013733,1,-0.01549108885228634,1,-0.05329564213752747,1,2,1,0.1166210398077965,1,-0.08851151913404465,1,9.805557250976562,1
1778106621515306240,0.00580201018601656,0.00251464731991291,-1.094561219215393,5.951847560936585e-05,3.25893925037235e-05,-0.01091229170560837,,,,,,,,,,,,,,,,,,,,
1778106621518327552,,,,,,,0.1831502020359039,1,0.05374862626194954,1,-0.6164870262145996,1,-0.003927069716155529,1,-0.03057454898953438,1,-0.05262871831655502,1,2,1,0.1193512231111526,1,-0.08928488940000534,1,9.805517196655273,1
1778106621525272832,0.006639334373176098,0.01413742732256651,-1.062753796577454,8.37954503367655e-05,0.000300563668133691,-0.01032184902578592,,,,,,,,,,,,,,,,,,,,
1778106621528288256,,,,,,,0.1822626441717148,1,0.1316874474287033,1,-0.08637168258428574,1,-0.02085454761981964,1,-0.02999719232320786,1,-0.05073714628815651,1,2,1,0.1218907162547112,1,-0.09112074971199036,1,9.805469512939453,1
1778106621535219712,0.006423058453947306,0.02233535051345825,-1.00869345664978,4.874575461144559e-05,0.0003087957156822085,-0.009441537782549858,,,,,,,,,,,,,,,,,,,,
1778106621538229248,,,,,,,0.1527054160833359,1,0.1647280603647232,1,0.4209478795528412,1,-0.02142305113375187,1,-0.03779765963554382,1,-0.04419847205281258,1,2,1,0.125530794262886,1,-0.09301643818616867,1,9.805405616760254,1
1778106621545146880,0.003187544178217649,0.02593141794204712,-0.9569565057754517,-1.142958899436053e-05,0.0003164836962241679,-0.008995444513857365,,,,,,,,,,,,,,,,,,,,
1778106621548150528,,,,,,,0.01434384286403656,1,0.06132122874259949,1,0.8201687335968018,1,-0.05288989841938019,1,0.0003970293328166008,1,-0.03258023038506508,1,2,1,0.1265402883291245,1,-0.09777867048978806,1,9.805346488952637,1
1778106621555054080,-0.01116408314555883,0.01566878147423267,-0.9162417054176331,-0.0002937931567430496,3.315061985631473e-05,-0.008661385625600815,,,,,,,,,,,,,,,,,,,,
1778106621558052352,,,,,,,0.04911553859710693,1,-0.01240209396928549,1,0.6966506838798523,1,-0.07487422227859497,1,0.04506467282772064,1,-0.02859948202967644,1,2,1,0.1223325133323669,1,-0.1049003601074219,1,9.805325508117676,1
1778106621564942080,-0.007638349197804928,0.008596859872341156,-0.928832471370697,-6.001401197863743e-05,-4.968520897818962e-06,-0.009379588067531586,,,,,,,,,,,,,,,,,,,,
1778106621567934208,,,,,,,0.1616815775632858,1,0.006134442985057831,1,0.2661394476890564,1,-0.04525746777653694,1,0.0181566160172224,1,-0.02986546978354454,1,2,1,0.1200705468654633,1,-0.1099993139505386,1,9.8052978515625,1
1778106621574810112,0.00399473961442709,0.01102787163108587,-0.9727288484573364,0.0001688806223683059,0.0001397491432726383,-0.01023790705949068,,,,,,,,,,,,,,,,,,,,
1778106621577796352,,,,,,,0.09899169951677322,1,-0.06123818084597588,1,0.07832646369934082,1,-0.04370952770113945,1,0.02454631961882114,1,-0.02984471432864666,1,2,1,0.118565246462822,1,-0.1138127446174622,1,9.805273056030273,1
1778106621584658688,-0.002258940134197474,0.004628498572856188,-0.9918771982192993,-9.437061817152426e-05,-3.345042932778597e-05,-0.01014893129467964,,,,,,,,,,,,,,,,,,,,
1778106621587639040,,,,,,,0.1753301322460175,1,-0.005408179946243763,1,-0.1584847867488861,1,-0.04659856483340263,1,0.03930642455816269,1,-0.03977144137024879,1,2,1,0.1145693808794022,1,-0.1186568439006805,1,9.805262565612793,1
1778106621594487296,0.005757792387157679,0.01079602260142565,-1.016022801399231,0.0001443785440642387,0.0001677012769505382,-0.01042984705418348,,,,,,,,,,,,,,,,,,,,
1778106621597831936,,,,,,,0.2519099712371826,1,0.1054792255163193,1,-0.2685560584068298,1,-0.01725397445261478,1,0.006902028806507587,1,-0.04264039546251297,1,2,1,0.1132853552699089,1,-0.120749332010746,1,9.805252075195312,1
1778106621604666368,0.0138188861310482,0.02251750230789185,-1.027245163917542,0.0002323542285012081,0.0003582410863600671,-0.0104205310344696,,,,,,,,,,,,,,,,,,,,
1778106621608004864,,,,,,,0.1479332447052002,1,0.191122442483902,1,-0.0732763484120369,1,0.0007665943703614175,1,-0.02432025223970413,1,-0.04099195078015327,1,2,1,0.1155497655272484,1,-0.1206493228673935,1,9.805227279663086,1
1778106621614825472,0.003305711317807436,0.03150339424610138,-1.007330179214478,-5.64193214813713e-05,0.0004336131969466805,-0.009875652380287647,,,,,,,,,,,,,,,,,,,,
1778106621618157312,,,,,,,0.02118916064500809,1,0.1992512196302414,1,0.2295272797346115,1,-0.01142319105565548,1,-0.01619813777506351,1,-0.03818744421005249,1,2,1,0.1170156747102737,1,-0.1216512098908424,1,9.805196762084961,1
1778106621624964608,-0.009660171344876289,0.03248897939920425,-0.9764505624771118,-0.0002523197326809168,0.0003471266536507756,-0.009399944916367531,,,,,,,,,,,,,,,,,,,,
1778106621628289792,,,,,,,-0.1544304043054581,1,0.03889143094420433,1,0.384310245513916,1,-0.03433389216661453,1,0.02684060670435429,1,-0.02972829155623913,1,2,1,0.1154172047972679,1,-0.1242884695529938,1,9.805183410644531,1
1778106621635083264,-0.02759874798357487,0.01630284823477268,-0.9606647491455078,-0.0004943865933455527,-1.664450974203646e-05,-0.009388929232954979,,,,,,,,,,,,,,,,,,,,
1778106621638402304,,,,,,,-0.03761561959981918,1,0.004554100334644318,1,0.06364773213863373,1,-0.03537384420633316,1,0.0338282398879528,1,-0.03203976154327393,1,2,1,0.1110409647226334,1,-0.1282982230186462,1,9.805182456970215,1
1778106621645182208,-0.01551037654280663,0.01307770982384682,-0.9933618903160095,-3.810480120591819e-05,9.575274452799931e-05,-0.01028044894337654,,,,,,,,,,,,,,,,,,,,
1778106621648494592,,,,,,,-0.05241204425692558,1,-0.07290960848331451,1,-0.2125137448310852,1,-0.02580713480710983,1,0.01641713827848434,1,-0.02864348143339157,1,2,1,0.1094764322042465,1,-0.1307593435049057,1,9.805167198181152,1
1778106621655260928,-0.01681456156075001,0.005462528672069311,-1.021521329879761,-0.0001955371990334243,-3.746257425518706e-05,-0.01054153311997652,,,,,,,,,,,,,,,,,,,,
1778106621665319680,-0.01056117005646229,0.006140973884612322,-1.031072378158569,-3.31903102051001e-05,6.481043237727135e-05,-0.01044841110706329,,,,,,,,,,,,,,,,,,,,
1778106621675358208,-0.007975700311362743,0.01159948576241732,-1.021090030670166,-7.518498750869185e-05,0.0001706720795482397,-0.01009526569396257,,,,,,,,,,,,,,,,,,,,
1778106621685377280,-0.005077880807220936,0.01338375080376863,-0.9928879141807556,9.558632882544771e-06,0.0001670046767685562,-0.009615161456167698,,,,,,,,,,,,,,,,,,,,
1778106621692219400,,,,,,,0.007283812388777733,1,-0.06858634203672409,1,-0.3061903715133667,1,-0.008857681415975094,1,0.005009484011679888,1,-0.03458604589104652,1,2,1,0.108741469681263,1,-0.1318559348583221,1,9.805160522460938,1
1778106621695376640,-0.005420172587037086,0.02376705966889858,-0.9721778035163879,-6.416206451831385e-05,0.0003617472539190203,-0.009482936933636665,,,,,,,,,,,,,,,,,,,,
1778106621702204160,,,,,,,0.0313996896147728,1,-0.01645554974675179,1,-0.2083014994859695,1,0.0004404090577736497,1,0.01162462402135134,1,-0.03833308070898056,1,2,1,0.1076461970806122,1,-0.1318067312240601,1,9.805172920227051,1
1778106621705356544,-0.01485520228743553,0.01786291785538197,-0.9430500864982605,-0.0002458319941069931,0.0001258886186406016,-0.009084693156182766,,,,,,,,,,,,,,,,,,,,
1778106621712169472,,,,,,,0.05910972878336906,1,0.0006325261201709509,1,0.06826863437891006,1,0.003005027770996094,1,-0.01072052866220474,1,-0.04121406003832817,1,2,1,0.1085868403315544,1,-0.1309176981449127,1,9.805174827575684,1
1778106621715316480,-0.01840693317353725,0.007372808177024126,-0.9548930525779724,-0.0002482915006112307,-5.452319965115748e-05,-0.009642398916184902,,,,,,,,,,,,,,,,,,,,
1778106621722115584,,,,,,,0.05465004965662956,1,0.1016973853111267,1,0.2713679671287537,1,0.005595004186034203,1,-0.01869046501815319,1,-0.04309660941362381,1,2,1,0.1059366762638092,1,-0.1326746046543121,1,9.805180549621582,1
1778106621725256960,-0.003773333504796028,0.005926144775003195,-1.004423022270203,0.0001271452492801473,2.658804987731855e-05,-0.01058932580053806,,,,,,,,,,,,,,,,,,,,
1778106621732041984,,,,,,,-0.03829054534435272,1,0.04332432523369789,1,0.5570109486579895,1,-0.005648097023367882,1,-0.008475697599351406,1,-0.04009451344609261,1,2,1,0.1072333231568336,1,-0.1326369196176529,1,9.805166244506836,1
1778106621735177728,-0.0008441729005426168,0.008055978454649448,-1.035359740257263,6.98777221259661e-05,0.0001264291058760136,-0.01075690425932407,,,,,,,,,,,,,,,,,,,,
1778106621741948672,,,,,,,-0.07404536753892899,1,-0.06044459342956543,1,0.4408702552318573,1,-0.02892556972801685,1,0.04927979037165642,1,-0.03389885649085045,1,2,1,0.1032764911651611,1,-0.1349975913763046,1,9.805176734924316,1
1778106621745078528,0.0009781777625903487,0.009452040307223797,-1.032695412635803,2.526461321394891e-05,0.0001059471542248502,-0.01028954982757568,,,,,,,,,,,,,,,,,,,,
1778106621751836160,,,,,,,0.06653177738189697,1,-0.07673031091690063,1,-0.04485055431723595,1,-0.03983922302722931,1,0.0439305305480957,1,-0.03014943934977055,1,2,1,0.0983460396528244,1,-0.1389588564634323,1,9.805171966552734,1
1778106621754960128,0.009971117600798607,0.0224219411611557,-1.035016775131226,0.0001899385824799538,0.0003712410107254982,-0.0103885605931282,,,,,,,,,,,,,,,,,,,,
1778106621761703680,,,,,,,0.09266740083694458,1,-0.05791501700878143,1,-0.348237931728363,1,0.00294523942284286,1,0.0004107169224880636,1,-0.02502203918993473,1,2,1,0.09803977608680725,1,-0.1391086727380753,1,9.805172920227051,1
1778106621764822016,0.01266260724514723,0.02886510081589222,-1.009163379669189,0.0001747684582369402,0.0003792605421040207,-0.009813512675464153,,,,,,,,,,,,,,,,,,,,
1778106621771551744,,,,,,,0.108616828918457,1,-0.04531478881835938,1,-0.3221053183078766,1,-0.0102708013728261,1,0.02104250155389309,1,-0.0352787934243679,1,2,1,0.09586196392774582,1,-0.1397308260202408,1,9.80518627166748,1
1778106621774664704,-0.006536378990858793,0.02267842553555965,-0.9605825543403625,-0.0002793394378386438,0.000180250353878364,-0.009061254560947418,,,,,,,,,,,,,,,,,,,,
1778106621781380352,,,,,,,0.1946571469306946,1,0.0808556079864502,1,-0.3448617458343506,1,0.003350068349391222,1,0.006540021393448114,1,-0.0427619181573391,1,2,1,0.09408177435398102,1,-0.1400593966245651,1,9.805198669433594,1
1778106621784487680,-0.01701949536800385,0.002264871494844556,-0.9404898881912231,-0.0003034145047422498,-0.0002231909020338207,-0.009108131751418114,,,,,,,,,,,,,,,,,,,,
1778106621791189760,,,,,,,0.2204706966876984,1,0.1441887319087982,1,-0.09131912887096405,1,0.02804753556847572,1,-0.04019991308450699,1,-0.05065024644136429,1,2,1,0.09732625633478165,1,-0.137506291270256,1,9.805202484130859,1
1778106621794664192,-0.009926333092153072,0.002864724956452847,-0.9743797779083252,-2.47772695729509e-05,2.643662810442038e-05,-0.01011374499648809,,,,,,,,,,,,,,,,,,,,
1778106621800979712,,,,,,,0.03389771282672882,1,0.08518461883068085,1,0.3851024210453033,1,0.03640955314040184,1,-0.03655339032411575,1,-0.04766548797488213,1,2,1,0.1014946028590202,1,-0.1337303072214127,1,9.80521297454834,1
1778106621804820736,-0.009810845367610455,0.003000209573656321,-0.995068371295929,-8.888484444469213e-05,3.193138400092721e-05,-0.01021031849086285,,,,,,,,,,,,,,,,,,,,
1778106621810936576,,,,,,,-0.0674293264746666,1,-0.1133332923054695,1,0.5821524858474731,1,-0.02006339095532894,1,0.02025819197297096,1,-0.03691571950912476,1,2,1,0.1002902984619141,1,-0.1344820559024811,1,9.805214881896973,1
1778106621814957056,-0.009808167815208435,0.006068415474146605,-1.003765821456909,-0.0001114934639190324,7.710437057539821e-05,-0.01014426816254854,,,,,,,,,,,,,,,,,,,,
1778106621821060352,,,,,,,0.001832728274166584,1,-0.1079090610146523,1,0.2498031258583069,1,-0.02624631114304066,1,0.01459039002656937,1,-0.02568037062883377,1,2,1,0.09827321767807007,1,-0.1376037001609802,1,9.805191993713379,1
1778106621825073408,0.001268861349672079,0.01878014393150806,-1.016868829727173,0.0001064197494997643,0.0003116563893854618,-0.01031370647251606,,,,,,,,,,,,,,,,,,,,
1778106621831164160,,,,,,,0.002788548590615392,1,-0.1073847860097885,1,0.04690808802843094,1,-0.00050529302097857,1,-0.007531804963946342,1,-0.02094788104295731,1,2,1,0.09917257726192474,1,-0.1377011239528656,1,9.805181503295898,1
1778106621835169792,0.01389164850115776,0.02738431841135025,-1.016581058502197,0.0003006082552019507,0.0003803173312917352,-0.01019394118338823,,,,,,,,,,,,,,,,,,,,
1778106621841247744,,,,,,,0.002809917088598013,1,-0.07802516222000122,1,-0.03839375823736191,1,-0.01889147609472275,1,0.01016298681497574,1,-0.0224640779197216,1,2,1,0.09854061156511307,1,-0.1392012387514114,1,9.805167198181152,1
1778106621845245952,0.02366197854280472,0.03178190067410469,-0.9966922402381897,0.0003547919041011482,0.0003710723831318319,-0.009768523275852203,,,,,,,,,,,,,,,,,,,,
1778106621851311616,,,,,,,0.1106918454170227,1,0.04510807991027832,1,-0.1669037789106369,1,-0.02454729191958904,1,0.02784376591444016,1,-0.03320318832993507,1,2,1,0.09621977061033249,1,-0.1418889909982681,1,9.805150985717773,1
1778106621855301888,0.0124336238950491,0.02214899472892284,-0.9636492133140564,7.777613063808531e-06,0.0001138282677857205,-0.009244020096957684,,,,,,,,,,,,,,,,,,,,
1778106621861355520,,,,,,,0.2334823161363602,1,0.1284161806106567,1,-0.1640874147415161,1,0.01834358274936676,1,0.002096671145409346,1,-0.04288848862051964,1,2,1,0.09610480070114136,1,-0.1405537575483322,1,9.805171966552734,1
