FILE_INFO
ListSeparator=,
DecimalSeparator=.

SESSION_INFO
TimeZone,UTC
TimeZoneOffset,0
DateTimeFormat,nnnnnnnnnnnnnnnnnnn
StartTime,01/01/70 00:00:00.000000000
TimeFormat,Unix

DEVICE_INFO
Address,*

CHANNEL_INFO
Channel,Type,SampleRate,Equation,Coefficients,Unit,UnitSymbol,WhereApplied,WhenApplied
inertial-6286.188861:scaledAccelX,Timeseries,100Hz,,,,,,
inertial-6286.188861:scaledAccelY,Timeseries,100Hz,,,,,,
inertial-6286.188861:scaledAccelZ,Timeseries,100Hz,,,,,,
inertial-6286.188861:deltaVelX,Timeseries,100Hz,,,,,,
inertial-6286.188861:deltaVelY,Timeseries,100Hz,,,,,,
inertial-6286.188861:deltaVelZ,Timeseries,100Hz,,,,,,
inertial-6286.188861:estLinearAccelX,Timeseries,100Hz,,,,,,
inertial-6286.188861:estLinearAccelX:valid,ValidFlag,100Hz,,,,,,
inertial-6286.188861:estLinearAccelY,Timeseries,100Hz,,,,,,
inertial-6286.188861:estLinearAccelY:valid,ValidFlag,100Hz,,,,,,
inertial-6286.188861:estLinearAccelZ,Timeseries,100Hz,,,,,,
inertial-6286.188861:estLinearAccelZ:valid,ValidFlag,100Hz,,,,,,
inertial-6286.188861:estAngularRateX,Timeseries,100Hz,,,,,,
inertial-6286.188861:estAngularRateX:valid,ValidFlag,100Hz,,,,,,
inertial-6286.188861:estAngularRateY,Timeseries,100Hz,,,,,,
inertial-6286.188861:estAngularRateY:valid,ValidFlag,100Hz,,,,,,
inertial-6286.188861:estAngularRateZ,Timeseries,100Hz,,,,,,
inertial-6286.188861:estAngularRateZ:valid,ValidFlag,100Hz,,,,,,
inertial-6286.188861:estFilterState,Timeseries,100Hz,,,,,,
inertial-6286.188861:estFilterStatusFlags,Timeseries,100Hz,,,,,,
inertial-6286.188861:estGravityVectorX,Timeseries,100Hz,,,,,,
inertial-6286.188861:estGravityVectorX:valid,ValidFlag,100Hz,,,,,,
inertial-6286.188861:estGravityVectorY,Timeseries,100Hz,,,,,,
inertial-6286.188861:estGravityVectorY:valid,ValidFlag,100Hz,,,,,,
inertial-6286.188861:estGravityVectorZ,Timeseries,100Hz,,,,,,
inertial-6286.188861:estGravityVectorZ:valid,ValidFlag,100Hz,,,,,,

DATA_START
Time,inertial-6286.188861:scaledAccelX,inertial-6286.188861:scaledAccelY,inertial-6286.188861:scaledAccelZ,inertial-6286.188861:deltaVelX,inertial-6286.188861:deltaVelY,inertial-6286.188861:deltaVelZ,inertial-6286.188861:estLinearAccelX,inertial-6286.188861:estLinearAccelX:valid,inertial-6286.188861:estLinearAccelY,inertial-6286.188861:estLinearAccelY:valid,inertial-6286.188861:estLinearAccelZ,inertial-6286.188861:estLinearAccelZ:valid,inertial-6286.188861:estAngularRateX,inertial-6286.188861:estAngularRateX:valid,inertial-6286.188861:estAngularRateY,inertial-6286.188861:estAngularRateY:valid,inertial-6286.188861:estAngularRateZ,inertial-6286.188861:estAngularRateZ:valid,inertial-6286.188861:estFilterState,inertial-6286.188861:estFilterStatusFlags,inertial-6286.188861:estGravityVectorX,inertial-6286.188861:estGravityVectorX:valid,inertial-6286.188861:estGravityVectorY,inertial-6286.188861:estGravityVectorY:valid,inertial-6286.188861:estGravityVectorZ,inertial-6286.188861:estGravityVectorZ:valid
1778105975262720512,,,,,,,-0.001693512196652591,1,0.004303120076656342,1,0.03156580030918121,1,0.004114603158086538,1,-0.0002353760646656156,1,-0.001955029089003801,1,3,1,0.1691816747188568,1,-0.06229208037257195,1,9.80499267578125,1
1778105975268706304,-0.01726421155035496,0.009027798660099506,-0.9960923194885254,-0.0001755303819663823,9.848200716078281e-05,-0.009959585033357143,,,,,,,,,,,,,,,,,,,,
1778105975272550656,,,,,,,-0.002419127617031336,1,0.003443301422521472,1,0.03518854826688766,1,0.003772538620978594,1,3.217384801246226e-06,1,-0.001894864602945745,1,3,1,0.1691587567329407,1,-0.06190856546163559,1,9.804995536804199,1
1778105975278708224,-0.01745155453681946,0.009999914094805717,-0.9954841732978821,-0.0001766245841281489,0.0001113452817662619,-0.009948804043233395,,,,,,,,,,,,,,,,,,,,
1778105975282361344,,,,,,,-0.003124625189229846,1,0.006252332124859095,1,0.03903105854988098,1,0.001817258191294968,1,-0.0003543524944689125,1,-0.002087124390527606,1,3,1,0.1691870838403702,1,-0.06170850619673729,1,9.804996490478516,1
1778105975288872448,-0.0176971722394228,0.01098811812698841,-0.9952830672264099,-0.0001797299628378823,0.0001205906592076644,-0.009948862716555595,,,,,,,,,,,,,,,,,,,,
1778105975292152832,,,,,,,-0.00303747458383441,1,0.00922955758869648,1,0.04156939685344696,1,0.0003336092049721628,1,0.0006893865065649152,1,-0.001293572713620961,1,3,1,0.16913703083992,1,-0.06164658814668655,1,9.804997444152832,1
1778105975299016192,-0.01794888637959957,0.01186227146536112,-0.9953756332397461,-0.0001820569596020505,0.0001297758863074705,-0.009955303743481636,,,,,,,,,,,,,,,,,,,,
1778105975301925376,,,,,,,0.0007904222584329545,1,0.0142000000923872,1,0.03765586018562317,1,0.0006069557275623083,1,0.0001450733107049018,1,-0.001279225340113044,1,3,1,0.1690547913312912,1,-0.06159641593694687,1,9.804999351501465,1
1778105975309140480,-0.01815930940210819,0.01241310592740774,-0.9955501556396484,-0.000184070217073895,0.0001317019632551819,-0.009957993403077126,,,,,,,,,,,,,,,,,,,,
1778105975311678720,,,,,,,0.002562426961958408,1,0.01955152302980423,1,0.03484819829463959,1,0.001422384171746671,1,-0.0001404166396241635,1,-0.00125288893468678,1,3,1,0.169086679816246,1,-0.06148747727274895,1,9.804999351501465,1
1778105975319244288,-0.01816357113420963,0.01230495795607567,-0.9957268834114075,-0.0001814407005440444,0.0001236437383340672,-0.009958893060684204,,,,,,,,,,,,,,,,,,,,
1778105975321412608,,,,,,,-0.0002118737756973132,1,0.02702359668910503,1,0.03666984662413597,1,0.003830933710560203,1,-2.313437289558351e-05,1,-0.0009701933595351875,1,3,1,0.1690917164087296,1,-0.06114682927727699,1,9.805001258850098,1
1778105975329328128,-0.0183226466178894,0.01183474715799093,-0.9960851073265076,-0.0001845248189056292,0.0001147576767834835,-0.009965562261641026,,,,,,,,,,,,,,,,,,,,
1778105975331309056,,,,,,,-0.002048789290711284,1,0.03687958419322968,1,0.04263535887002945,1,0.005998334381729364,1,-1.831292320275679e-05,1,-0.001480153179727495,1,3,1,0.1690908968448639,1,-0.06055861338973045,1,9.805005073547363,1
1778105975339391744,-0.01845419406890869,0.01087790634483099,-0.996083676815033,-0.0001861746422946453,9.911404777085409e-05,-0.009961702860891819,,,,,,,,,,,,,,,,,,,,
1778105975341368320,,,,,,,-0.004472644999623299,1,0.04708493500947952,1,0.04461074247956276,1,0.009546419605612755,1,0.0009764537680894136,1,-0.002555564045906067,1,3,1,0.1690176874399185,1,-0.05967521667480469,1,9.805011749267578,1
1778105975349435648,-0.01882076263427734,0.01017848122864962,-0.995263397693634,-0.0001918868947541341,9.511358075542375e-05,-0.009942799806594849,,,,,,,,,,,,,,,,,,,,
1778105975351407616,,,,,,,-0.006978679914027452,1,0.05647027865052223,1,0.04370890557765961,1,0.01418058201670647,1,0.000432869594078511,1,-0.00332381040789187,1,3,1,0.1689816415309906,1,-0.05832120776176453,1,9.805020332336426,1
1778105975359459584,-0.01928625255823135,0.0105353556573391,-0.9949444532394409,-0.0001985082781175151,0.0001105674018617719,-0.009945864789187908,,,,,,,,,,,,,,,,,,,,
1778105975361426944,,,,,,,-0.009082120843231678,1,0.06302789598703384,1,0.04200463369488716,1,0.01765333861112595,1,0.0005270361434668303,1,-0.004322290420532227,1,3,1,0.1689311414957047,1,-0.05662207677960396,1,9.805031776428223,1
1778105975369463552,-0.0194401927292347,0.0115893492475152,-0.9951143860816956,-0.0001965520059457049,0.0001294946705456823,-0.009952792897820473,,,,,,,,,,,,,,,,,,,,
1778105975371426304,,,,,,,-0.009114004671573639,1,0.06319566071033478,1,0.0402783639729023,1,0.0251806266605854,1,-1.257257827091962e-05,1,-0.005324282217770815,1,3,1,0.1690742373466492,1,-0.05537398159503937,1,9.805035591125488,1
1778105975379447296,-0.01947381347417831,0.01222596410661936,-0.9959076046943665,-0.0001944085233844817,0.0001324771146755666,-0.009967082180082798,,,,,,,,,,,,,,,,,,,,
1778105975381405696,,,,,,,-0.01062046736478806,1,0.06035593152046204,1,0.03677553683519363,1,0.03189906850457191,1,-0.001860914635472,1,-0.00760427862405777,1,3,1,0.1692075580358505,1,-0.05231672525405884,1,9.805050849914551,1
1778105975389412096,-0.0193511825054884,0.01191825047135353,-0.9963385462760925,-0.0001928011188283563,0.0001188632522826083,-0.00996867660433054,,,,,,,,,,,,,,,,,,,,
1778105975391365120,,,,,,,-0.01180469896644354,1,0.05351777747273445,1,0.03680109605193138,1,0.03866766020655632,1,-0.001714408630505204,1,-0.007693253457546234,1,3,1,0.1693611443042755,1,-0.0485815741121769,1,9.80506706237793,1
1778105975399357440,-0.01922780089080334,0.01008168328553438,-0.9963152408599854,-0.0001906037068692967,8.384397369809449e-05,-0.009963728487491608,,,,,,,,,,,,,,,,,,,,
1778105975401305344,,,,,,,-0.01524043176323175,1,0.04989894106984138,1,0.04485944285988808,1,0.04301508888602257,1,-0.001700836000964046,1,-0.008515337482094765,1,3,1,0.169588714838028,1,-0.04435164481401443,1,9.805083274841309,1
1778105975409283072,-0.01891748793423176,0.007013979833573103,-0.9961593151092529,-0.0001846259256126359,3.947134973714128e-05,-0.009959312155842781,,,,,,,,,,,,,,,,,,,,
1778105975411225600,,,,,,,-0.01964110508561134,1,0.05715925246477127,1,0.0480019673705101,1,0.04589007422327995,1,-0.001278646290302277,1,-0.0107768764719367,1,3,1,0.1697392165660858,1,-0.03986215218901634,1,9.805099487304688,1
1778105975419188992,-0.01891073770821095,0.003194284858182073,-0.996026873588562,-0.0001885563833639026,-7.630419531778898e-06,-0.009959092363715172,,,,,,,,,,,,,,,,,,,,
1778105975421125888,,,,,,,-0.02102567814290524,1,0.07166849821805954,1,0.04635132476687431,1,0.04946495220065117,1,-3.18883394356817e-05,1,-0.01213059015572071,1,3,1,0.1697676032781601,1,-0.03505484387278557,1,9.805117607116699,1
1778105975429074944,-0.01904571987688541,-0.0003586557286325842,-0.9954705238342285,-0.0001913144078571349,-4.097174314665608e-05,-0.009948092512786388,,,,,,,,,,,,,,,,,,,,
1778105975431006720,,,,,,,-0.02128558233380318,1,0.08248294144868851,1,0.03858944028615952,1,0.05356177315115929,1,-0.0006528910016641021,1,-0.0136827789247036,1,3,1,0.1697968095541,1,-0.02984575368463993,1,9.805134773254395,1
1778105975438941184,-0.01947822235524654,-0.002745024161413312,-0.9948102235794067,-0.0001995761413127184,-5.25518371432554e-05,-0.009941643103957176,,,,,,,,,,,,,,,,,,,,
1778105975440868608,,,,,,,-0.01997518353164196,1,0.08449915796518326,1,0.03437935933470726,1,0.06038700789213181,1,-0.002086970023810863,1,-0.01498796511441469,1,3,1,0.1700083017349243,1,-0.02398384176194668,1,9.805147171020508,1
1778105975448788224,-0.01976868882775307,-0.003769219387322664,-0.9945650696754456,-0.0002006619470193982,-4.722409357782453e-05,-0.009942901320755482,,,,,,,,,,,,,,,,,,,,
1778105975450711296,,,,,,,-0.01858109980821609,1,0.072126604616642,1,0.03462153300642967,1,0.06979251652956009,1,-0.003717543091624975,1,-0.015573775395751,1,3,1,0.1703484356403351,1,-0.01725463569164276,1,9.805154800415039,1
1778105975458615552,-0.01983257196843624,-0.004137731157243252,-0.9952008724212646,-0.0001993997866520658,-4.289948628866114e-05,-0.009958739392459393,,,,,,,,,,,,,,,,,,,,
1778105975460534272,,,,,,,-0.01520612183958292,1,0.04840845987200737,1,0.03615868091583252,1,0.078354112803936,1,-0.005767809227108955,1,-0.01635127887129784,1,3,1,0.1709402948617935,1,-0.009684270247817039,1,9.805154800415039,1
1778105975468794112,-0.01949815079569817,-0.004193026106804609,-0.9966117143630981,-0.0001918656489579007,-4.045032255817205e-05,-0.00998247042298317,,,,,,,,,,,,,,,,,,,,
1778105975470337792,,,,,,,-0.01468399912118912,1,0.01801919937133789,1,0.03746150061488152,1,0.08214514702558517,1,-0.005666291806846857,1,-0.01617187634110451,1,3,1,0.1715317219495773,1,-0.00163642386905849,1,9.805150032043457,1
1778105975478952960,-0.01914049126207829,-0.004376523662358522,-0.9970653057098389,-0.000187125348020345,-4.34917164966464e-05,-0.009976458735764027,,,,,,,,,,,,,,,,,,,,
1778105975480121344,,,,,,,-0.01548697240650654,1,-0.009266441687941551,1,0.04291383177042007,1,0.08174384385347366,1,-0.006027085240930319,1,-0.01605103723704815,1,3,1,0.1721443086862564,1,0.00647397805005312,1,9.805136680603027,1
1778105975489091584,-0.01836577244102955,-0.004533801227807999,-0.9971323609352112,-0.0001750303490553051,-4.490503488341346e-05,-0.00997222401201725,,,,,,,,,,,,,,,,,,,,
1778105975489885696,,,,,,,-0.0191931277513504,1,-0.0249722097069025,1,0.04938055947422981,1,0.07730928808450699,1,-0.004284586291760206,1,-0.01471724547445774,1,3,1,0.1726197451353073,1,0.01414814218878746,1,9.805120468139648,1
1778105975499209728,-0.01766852475702763,-0.004482838790863752,-0.9971645474433899,-0.0001690684875939041,-4.304687900003046e-05,-0.009972331114113331,,,,,,,,,,,,,,,,,,,,
1778105975499630848,,,,,,,-0.02159024216234684,1,-0.02750012464821339,1,0.05177199468016624,1,0.06970246136188507,1,-0.002687949920073152,1,-0.01436625886708498,1,3,1,0.1729130297899246,1,0.02114414237439632,1,9.805102348327637,1
1778105975509308416,-0.01738117821514606,-0.003957822918891907,-0.9952348470687866,-0.0001693843660177663,-3.165671660099179e-05,-0.009932669810950756,,,,,,,,,,,,,,,,,,,,
1778105975509356544,,,,,,,-0.02185825444757938,1,-0.02403439208865166,1,0.04552101343870163,1,0.06226187199354172,1,-0.002135907765477896,1,-0.0147975105792284,1,3,1,0.1731380075216293,1,0.02740728110074997,1,9.805083274841309,1
1778105975519386880,-0.01787933334708214,-0.003485729917883873,-0.9925369024276733,-0.0001835123985074461,-2.687094638531562e-05,-0.009894182905554771,,,,,,,,,,,,,,,,,,,,
1778105975529445120,-0.01840244419872761,-0.003496370976790786,-0.9920953512191772,-0.0001906620746012777,-3.291944449301809e-05,-0.009913543239235878,,,,,,,,,,,,,,,,,,,,
1778105975539483648,-0.01822694391012192,-0.003299613017588854,-0.9948634505271912,-0.0001801001199055463,-2.828391006914899e-05,-0.00997795257717371,,,,,,,,,,,,,,,,,,,,
1778105975549502208,-0.01754903607070446,-0.00309196999296546,-0.998380720615387,-0.0001681033172644675,-2.392941314610653e-05,-0.01002455502748489,,,,,,,,,,,,,,,,,,,,
1778105975559501312,-0.01674897596240044,-0.003783648833632469,-0.9998095631599426,-0.00016073661390692,-4.299670763430186e-05,-0.01001491956412792,,,,,,,,,,,,,,,,,,,,
1778105975560635136,,,,,,,-0.01831224001944065,1,-0.01806847937405109,1,0.03166913613677025,1,0.05539551004767418,1,-0.001791730988770723,1,-0.01421892084181309,1,3,1,0.1732821315526962,1,0.03297004476189613,1,9.805063247680664,1
1778105975569480448,-0.01724793389439583,-0.005853265058249235,-0.9988551139831543,-0.0001801488251658157,-7.898681360529736e-05,-0.00997653417289257,,,,,,,,,,,,,,,,,,,,
1778105975570610432,,,,,,,-0.01457486487925053,1,-0.01393590681254864,1,0.02720187418162823,1,0.05129983648657799,1,-0.00164144835434854,1,-0.01297644153237343,1,3,1,0.1734660565853119,1,0.03806047141551971,1,9.805042266845703,1
1778105975579439616,-0.01787441037595272,-0.009267672896385193,-0.99595046043396,-0.0001867879036581144,-0.0001277186966035515,-0.009927599690854549,,,,,,,,,,,,,,,,,,,,
1778105975580565760,,,,,,,-0.006791804917156696,1,-0.009980333037674427,1,0.02652334608137608,1,0.05022255703806877,1,-0.001388368429616094,1,-0.0109687177464366,1,3,1,0.1735866665840149,1,0.04300908371806145,1,9.805019378662109,1
1778105975589378816,-0.01919212192296982,-0.01326365489512682,-0.993663489818573,-0.0002047307934844866,-0.0001759184233378619,-0.009908679872751236,,,,,,,,,,,,,,,,,,,,
1778105975590501376,,,,,,,0.0002133325324393809,1,-0.004263998940587044,1,0.02618587948381901,1,0.04947977513074875,1,-0.001509798690676689,1,-0.009424736723303795,1,3,1,0.1737374067306519,1,0.04785749688744545,1,9.804993629455566,1
1778105975599298048,-0.01985248364508152,-0.01662062294781208,-0.9927846789360046,-0.0002049877075478435,-0.0002031987096415833,-0.009920861572027206,,,,,,,,,,,,,,,,,,,,
1778105975600417536,,,,,,,0.003186742775142193,1,0.005936561152338982,1,0.04508605599403381,1,0.04886696115136147,1,-0.00138083437923342,1,-0.00907217338681221,1,3,1,0.1738776713609695,1,0.0526919886469841,1,9.804966926574707,1
1778105975609198080,-0.01956437900662422,-0.0184786431491375,-0.9942135810852051,-0.0001915577886393294,-0.0002057579113170505,-0.009954375214874744,,,,,,,,,,,,,,,,,,,,
1778105975610313728,,,,,,,-0.001314793364144862,1,0.01511986646801233,1,0.07151541858911514,1,0.04814861714839935,1,-0.0008710340480320156,1,-0.008400845341384411,1,3,1,0.1747709959745407,1,0.05621406808495522,1,9.804931640625,1
1778105975619078400,-0.01817099936306477,-0.01786563731729984,-0.9973394274711609,-0.000164586745086126,-0.0001708491763565689,-0.01001197937875986,,,,,,,,,,,,,,,,,,,,
1778105975620190208,,,,,,,-0.006112878210842609,1,0.0194531325250864,1,0.07581660896539688,1,0.04795127362012863,1,0.0001333093678113073,1,-0.008756245486438274,1,3,1,0.1747405230998993,1,0.06091556325554848,1,9.804903984069824,1
1778105975628938752,-0.0181137453764677,-0.01705306209623814,-0.9973964095115662,-0.000182591742486693,-0.0001602646370884031,-0.009975791908800602,,,,,,,,,,,,,,,,,,,,
1778105975630047488,,,,,,,-0.004215787164866924,1,0.02599207870662212,1,0.04864196479320526,1,0.0511966198682785,1,-0.00087058509234339,1,-0.009495053440332413,1,3,1,0.1747710704803467,1,0.06586552411317825,1,9.804871559143066,1
1778105975638780160,-0.01839953288435936,-0.01744815520942211,-0.9949540495872498,-0.0001872657448984683,-0.000176405199454166,-0.009921611286699772,,,,,,,,,,,,,,,,,,,,
1778105975639885056,,,,,,,0.002603395376354456,1,0.03299300372600555,1,0.01411562133580446,1,0.05897906050086021,1,-0.003367594443261623,1,-0.009220173582434654,1,3,1,0.1750385612249374,1,0.07157179713249207,1,9.804826736450195,1
1778105975648601600,-0.01833721436560154,-0.01930126361548901,-0.9958025813102722,-0.00018196229939349,-0.0002099981938954443,-0.009967073798179626,,,,,,,,,,,,,,,,,,,,
1778105975649703424,,,,,,,0.01071142125874758,1,0.03170456364750862,1,6.030075019225478e-05,1,0.06574257463216782,1,-0.004274406936019659,1,-0.009576084092259407,1,3,1,0.1754404604434967,1,0.07795695215463638,1,9.804770469665527,1
1778105975658777856,-0.01876994036138058,-0.02231075614690781,-0.9954334497451782,-0.0001903435768326744,-0.0002540714049246162,-0.009953249245882034,,,,,,,,,,,,,,,,,,,,
1778105975659502336,,,,,,,0.006168602034449577,1,0.01748120412230492,1,0.009369744919240475,1,0.0702255442738533,1,-0.003988129552453756,1,-0.009601094760000706,1,3,1,0.175878569483757,1,0.08489346504211426,1,9.804705619812012,1
1778105975668934144,-0.01866747066378593,-0.02497998625040054,-0.9933356046676636,-0.0001841160701587796,-0.0002787790144793689,-0.009906659834086895,,,,,,,,,,,,,,,,,,,,
1778105975669281536,,,,,,,0.0004003424546681345,1,-0.009548032656311989,1,0.03779564425349236,1,0.07099226862192154,1,-0.003703182097524405,1,-0.01121225766837597,1,3,1,0.1762707233428955,1,0.09182435274124146,1,9.804636001586914,1
1778105975679041024,,,,,,,-0.01213867962360382,1,-0.04212294146418571,1,0.06015943735837936,1,0.06683627516031265,1,-0.003747660666704178,1,-0.01193385571241379,1,3,1,0.1766752153635025,1,0.09844436496496201,1,9.804564476013184,1
1778105975679070208,-0.01790486089885235,-0.02547905966639519,-0.9953683018684387,-0.0001704712776700035,-0.0002617745485622436,-0.009973803535103798,,,,,,,,,,,,,,,,,,,,
1778105975688781056,,,,,,,-0.01825807243585587,1,-0.06854015588760376,1,0.06871013343334198,1,0.06223220750689507,1,-0.003805693471804261,1,-0.01242909673601389,1,3,1,0.1770011782646179,1,0.104639396071434,1,9.80449390411377,1
1778105975689186304,-0.01626422256231308,-0.02425047196447849,-0.9973980188369751,-0.0001450759154977277,-0.0002299694169778377,-0.009997375309467316,,,,,,,,,,,,,,,,,,,,
1778105975698502144,,,,,,,-0.01508854236453772,1,-0.08055864274501801,1,0.05462898686528206,1,0.05530979856848717,1,-0.002862388966605067,1,-0.01094828639179468,1,3,1,0.1772895455360413,1,0.1102018877863884,1,9.804428100585938,1
1778105975699282432,-0.01497779600322247,-0.02216454222798347,-0.9990935325622559,-0.0001337634603260085,-0.0001989484298974276,-0.01001222617924213,,,,,,,,,,,,,,,,,,,,
1778105975708203776,,,,,,,-0.001103988150134683,1,-0.06878113746643066,1,0.0239094328135252,1,0.05146914348006248,1,-0.004375145304948092,1,-0.008292497135698795,1,3,1,0.1776493489742279,1,0.1153004020452499,1,9.804363250732422,1
1778105975709358080,-0.01399252843111753,-0.02095683291554451,-0.9965888261795044,-0.0001252770889550447,-0.0001962680107681081,-0.009942814707756042,,,,,,,,,,,,,,,,,,,,
1778105975717886208,,,,,,,-0.0002253627171739936,1,-0.05549146980047226,1,0.02328628487884998,1,0.04501112923026085,1,-0.001890060142613947,1,-0.007567960768938065,1,3,1,0.1778479367494583,1,0.1198312640190125,1,9.804305076599121,1
1778105975719413760,-0.01469147950410843,-0.02109039388597012,-0.9927214384078979,-0.0001555131020722911,-0.0002135681716026738,-0.009881533682346344,,,,,,,,,,,,,,,,,,,,
1778105975727549696,,,,,,,-0.002792687388136983,1,-0.05456667765974998,1,0.04717867448925972,1,0.03810261189937592,1,-0.0009949343511834741,1,-0.008283549919724464,1,3,1,0.1779536604881287,1,0.1237460449337959,1,9.804254531860352,1
1778105975729449728,-0.01443193852901459,-0.0212385281920433,-0.9927061796188354,-0.000142511518788524,-0.0002168781356886029,-0.009919748641550541,,,,,,,,,,,,,,,,,,,,
1778105975737381120,,,,,,,-0.002053267089650035,1,-0.06858052313327789,1,0.03880409896373749,1,0.03114165365695953,1,-0.001515350420959294,1,-0.00807583425194025,1,3,1,0.1779786348342896,1,0.1268687695264816,1,9.804213523864746,1
1778105975739465984,-0.01399797573685646,-0.02010996080935001,-0.9972538948059082,-0.0001370696554658934,-0.000192084553418681,-0.0100255124270916,,,,,,,,,,,,,,,,,,,,
1778105975747379968,,,,,,,-0.006124702282249928,1,-0.09457269310951233,1,0.04237762093544006,1,0.02468158304691315,1,-0.002835239516571164,1,-0.008043339475989342,1,3,1,0.1782635450363159,1,0.1293769180774689,1,9.804176330566406,1
1778105975749462528,-0.01469683926552534,-0.01829282194375992,-0.996390700340271,-0.0001542799727758393,-0.0001647459284868091,-0.009957605972886086,,,,,,,,,,,,,,,,,,,,
1778105975757359104,,,,,,,-0.004925371147692204,1,-0.1178487986326218,1,0.06291045993566513,1,0.01694589667022228,1,-0.002209433587267995,1,-0.005283150356262922,1,3,1,0.1784612387418747,1,0.1312354505062103,1,9.804147720336914,1
1778105975759439104,-0.01509082037955523,-0.01552469935268164,-0.9956825375556946,-0.0001544677361380309,-0.0001255884417332709,-0.009946741163730621,,,,,,,,,,,,,,,,,,,,
1778105975767318272,,,,,,,0.002725163474678993,1,-0.1205481141805649,1,0.04294540360569954,1,0.009818973951041698,1,-0.0008531890925951302,1,-0.001155150705017149,1,3,1,0.1785472631454468,1,0.1323035657405853,1,9.804131507873535,1
1778105975769395968,-0.01428329106420279,-0.01288409810513258,-0.9978280067443848,-0.0001345045311609283,-0.0001010833730106242,-0.01000288408249617,,,,,,,,,,,,,,,,,,,,
1778105975777257984,,,,,,,0.01894313469529152,1,-0.1070704832673073,1,0.02301940880715847,1,-0.001317110378295183,1,-0.001101181143894792,1,0.002743180841207504,1,3,1,0.1786402761936188,1,0.1323673278093338,1,9.804129600524902,1
1778105975779333120,-0.01336122583597898,-0.01133905723690987,-0.9979445338249207,-0.0001223772997036576,-9.581936319591478e-05,-0.00998356007039547,,,,,,,,,,,,,,,,,,,,
1778105975787177984,,,,,,,0.03170767426490784,1,-0.08615037798881531,1,0.006384406704455614,1,-0.01276280730962753,1,-0.0007977790664881468,1,0.004725780338048935,1,3,1,0.1788020730018616,1,0.1312236934900284,1,9.804141998291016,1
1778105975789250304,-0.01353699713945389,-0.01158562023192644,-0.9958593845367432,-0.0001371004473185167,-0.0001196248704218306,-0.00993669405579567,,,,,,,,,,,,,,,,,,,,
1778105975797078016,,,,,,,0.04149023070931435,1,-0.07482940703630447,1,0.0309518575668335,1,-0.02167275734245777,1,-0.0008164438186213374,1,0.005806626752018929,1,3,1,0.1788938194513321,1,0.1291839331388474,1,9.804166793823242,1
1778105975799147776,-0.01469400618225336,-0.01190563105046749,-0.9930183887481689,-0.0001597842638147995,-0.0001240810815943405,-0.009896593168377876,,,,,,,,,,,,,,,,,,,,
1778105975806958336,,,,,,,0.03461037948727608,1,-0.07685781270265579,1,0.06888770312070847,1,-0.0322006456553936,1,0.004583002999424934,1,0.005844657309353352,1,3,1,0.1784081012010574,1,0.1286528408527374,1,9.804183006286621,1
1778105975809025792,-0.01558119151741266,-0.01188178639858961,-0.9926704168319702,-0.0001654790830798447,-0.0001199323232867755,-0.009920907206833363,,,,,,,,,,,,,,,,,,,,
1778105975816819456,,,,,,,0.03686872497200966,1,-0.07990589737892151,1,0.06906406581401825,1,-0.0382172204554081,1,0.006227947771549225,1,0.006812774110585451,1,3,1,0.1778078526258469,1,0.1249456703662872,1,9.804242134094238,1
1778105975818884096,-0.01587082631886005,-0.01116793416440487,-0.9958350658416748,-0.0001617926172912121,-0.000105492006696295,-0.009992124512791634,,,,,,,,,,,,,,,,,,,,
1778105975826661120,,,,,,,0.04073621705174446,1,-0.07152543962001801,1,0.02450823783874512,1,-0.04139312729239464,1,0.003674207953736186,1,0.009514063596725464,1,3,1,0.1774099171161652,1,0.1208402216434479,1,9.804300308227539,1
1778105975828722944,-0.01609122008085251,-0.01032276451587677,-0.9986701607704163,-0.0001628573809284717,-9.520933963358402e-05,-0.01002245955169201,,,,,,,,,,,,,,,,,,,,
1778105975836483328,,,,,,,0.03357234224677086,1,-0.05702431499958038,1,0.03302000090479851,1,-0.04213143512606621,1,0.001260864897631109,1,0.01087751425802708,1,3,1,0.1772924363613129,1,0.1167497560381889,1,9.804351806640625,1
1778105975838725376,-0.01602775044739246,-0.01021623704582453,-0.9974562525749207,-0.0001603908749530092,-0.0001020751296891831,-0.009962175972759724,,,,,,,,,,,,,,,,,,,,
1778105975846285824,,,,,,,0.02946116402745247,1,-0.03364543244242668,1,0.0400146059691906,1,-0.04572179540991783,1,0.002649060916155577,1,0.01115339063107967,1,3,1,0.1770528107881546,1,0.1122995018959045,1,9.804408073425293,1
1778105975848890880,-0.0158374197781086,-0.009961242787539959,-0.9962414503097534,-0.0001576864742673934,-9.89857580862008e-05,-0.009945900179445744,,,,,,,,,,,,,,,,,,,,
1778105975856069376,,,,,,,0.03709940984845161,1,-0.01186846289783716,1,0.01902879402041435,1,-0.04474511370062828,1,0.003414846956729889,1,0.008788133040070534,1,3,1,0.1767025887966156,1,0.1078147292137146,1,9.804465293884277,1
1778105975859036672,-0.01571202464401722,-0.009284009225666523,-0.9958851337432861,-0.0001558455696795136,-8.713924762560055e-05,-0.009955501183867455,,,,,,,,,,,,,,,,,,,,
1778105975865833472,,,,,,,0.04587109759449959,1,-0.000879062688909471,1,0.01793878525495529,1,-0.04072809964418411,1,0.0007114512845873833,1,0.006576501298695803,1,3,1,0.1765581369400024,1,0.1037689074873924,1,9.804511070251465,1
1778105975869161984,-0.01663560420274734,-0.008453672751784325,-0.9935416579246521,-0.0001759554579621181,-7.594635098939762e-05,-0.009910011664032936,,,,,,,,,,,,,,,,,,,,
1778105975875578112,,,,,,,0.04399271309375763,1,-0.007242918014526367,1,0.03843285515904427,1,-0.03432295471429825,1,-0.0001413821300957352,1,0.005994316190481186,1,3,1,0.1765693873167038,1,0.1003386229276657,1,9.804547309875488,1
1778105975879267328,-0.01819236017763615,-0.007759694941341877,-0.9916655421257019,-0.0001997359067900106,-7.092250598361716e-05,-0.009893840178847313,,,,,,,,,,,,,,,,,,,,
1778105975885302784,,,,,,,0.03253428265452385,1,-0.01398242171853781,1,0.06633471697568893,1,-0.03128731995820999,1,0.001120360335335135,1,0.00622971449047327,1,3,1,0.1764508485794067,1,0.09726157039403915,1,9.804579734802246,1
1778105975889352704,-0.01945436932146549,-0.006366043351590633,-0.9936686158180237,-0.000210024300031364,-4.996100688003935e-05,-0.009955654852092266,,,,,,,,,,,,,,,,,,,,
1778105975895008768,,,,,,,0.02370204962790012,1,-0.01705899089574814,1,0.06978382170200348,1,-0.03091785870492458,1,0.002114240545779467,1,0.005633996799588203,1,3,1,0.1762623190879822,1,0.0943053811788559,1,9.804612159729004,1
1778105975899418112,-0.02056611888110638,-0.004959854297339916,-0.9969466328620911,-0.0002196238201577216,-3.361026028869674e-05,-0.01000836119055748,,,,,,,,,,,,,,,,,,,,
1778105975904695552,,,,,,,0.02066812105476856,1,-0.01325974427163601,1,0.03878480568528175,1,-0.03217431157827377,1,0.002550475765019655,1,0.004117786884307861,1,3,1,0.1759745627641678,1,0.09117230772972107,1,9.804647445678711,1
1778105975909463296,-0.02143996767699718,-0.003366434015333652,-0.9981203675270081,-0.0002242678019683808,-1.527535096101929e-05,-0.009997118264436722,,,,,,,,,,,,,,,,,,,,
1778105975914362880,,,,,,,0.01834148354828358,1,-0.008170244283974171,1,0.01101604104042053,1,-0.03308819234371185,1,5.533490912057459e-05,1,0.001887243124656379,1,3,1,0.17594975233078,1,0.087950699031353,1,9.80467700958252,1
1778105975919488512,-0.02147581055760384,-0.002623566426336765,-0.9982006549835205,-0.00021568508236669,-1.811514448490925e-05,-0.009983059950172901,,,,,,,,,,,,,,,,,,,,
1778105975924194048,,,,,,,0.01886981166899204,1,-0.01036953926086426,1,0.02295234799385071,1,-0.03357748314738274,1,0.0006331810145638883,1,0.0003966634685639292,1,3,1,0.1759084463119507,1,0.08463102579116821,1,9.804706573486328,1
1778105975929493760,-0.02072172984480858,-0.001788578578270972,-0.9978601336479187,-0.0001975293707801029,-8.247156983998138e-06,-0.009976469911634922,,,,,,,,,,,,,,,,,,,,
1778105975934189056,,,,,,,0.02063686959445477,1,-0.01111468113958836,1,0.03489599004387856,1,-0.03183868899941444,1,0.002013631630688906,1,-0.0007627363665960729,1,3,1,0.1757457256317139,1,0.08145716786384583,1,9.804737091064453,1
1778105975939479296,-0.01982818730175495,-0.001215732307173312,-0.9955927729606628,-0.0001870869746198878,-6.227981884876499e-06,-0.00993221253156662,,,,,,,,,,,,,,,,,,,,
1778105975944164352,,,,,,,0.02172047644853592,1,-0.007560837548226118,1,0.03841957449913025,1,-0.0268506146967411,1,0.002184115583077073,1,-0.0005873498157598078,1,3,1,0.1755433827638626,1,0.07876734435558319,1,9.80476188659668,1
1778105975949444864,-0.01937926188111305,-0.001251520123332739,-0.9937999844551086,-0.0001895258465083316,-1.348623754893197e-05,-0.009914431720972061,,,,,,,,,,,,,,,,,,,,
1778105975954119680,,,,,,,0.0125666419044137,1,-0.002209156053140759,1,0.061426792293787,1,-0.02386659570038319,1,-0.0003025756450369954,1,0.0001206434390041977,1,3,1,0.1756089925765991,1,0.07644295692443848,1,9.804780006408691,1
1778105975959390720,-0.01903529278934002,-0.00120325293391943,-0.9943292737007141,-0.000186157543794252,-1.116463499784004e-05,-0.009948961436748505,,,,,,,,,,,,,,,,,,,,
1778105975964055040,,,,,,,-0.002762084361165762,1,0.002005409682169557,1,0.07984744757413864,1,-0.02461535669863224,1,0.00135037605650723,1,-0.0008983253501355648,1,3,1,0.1755100935697556,1,0.07404646277427673,1,9.804800033569336,1
1778105975969316608,-0.01936240121722221,-0.00217554927803576,-0.9947015047073364,-0.0001969836739590392,-3.322528937133029e-05,-0.00995128508657217,,,,,,,,,,,,,,,,,,,,
1778105975973970944,,,,,,,-0.01530232839286327,1,0.01311783399432898,1,0.060227170586586,1,-0.02653869427740574,1,0.003562235040590167,1,-0.00330348894931376,1,3,1,0.175133541226387,1,0.07145934551954269,1,9.804825782775879,1
1778105975979222528,-0.02011905983090401,-0.004365107975900173,-0.9953838586807251,-0.0002093363145831972,-6.860669236630201e-05,-0.009961061179637909,,,,,,,,,,,,,,,,,,,,
1778105975983867136,,,,,,,-0.02643793635070324,1,0.02435919269919395,1,0.02810382843017578,1,-0.02501919865608215,1,0.002416419330984354,1,-0.004555179737508297,1,3,1,0.1748736947774887,1,0.0689866915345192,1,9.804847717285156,1
1778105975989109248,-0.02082786150276661,-0.006723827216774225,-0.9971641302108765,-0.0002165341866202652,-9.440932626603171e-05,-0.009992255829274654,,,,,,,,,,,,,,,,,,,,
1778105975993743360,,,,,,,-0.03521433472633362,1,0.03752788901329041,1,0.01661562919616699,1,-0.02236316725611687,1,0.0009502097964286804,1,-0.005819375161081553,1,3,1,0.1747574359178543,1,0.06674576550722122,1,9.804865837097168,1
1778105975998976256,-0.02109380438923836,-0.009180264547467232,-0.9972165822982788,-0.000214696628972888,-0.0001208934627356939,-0.009973148815333843,,,,,,,,,,,,,,,,,,,,
1778105976003600128,,,,,,,-0.03595234081149101,1,0.04277693852782249,1,0.01584903709590435,1,-0.01757636480033398,1,-0.0002088763139909133,1,-0.006170299835503101,1,3,1,0.1739445328712463,1,0.065614253282547,1,9.804887771606445,1
1778105976008823296,-0.02083786018192768,-0.01070565171539783,-0.9978323578834534,-0.0002060169790638611,-0.0001263638259842992,-0.009984752163290977,,,,,,,,,,,,,,,,,,,,
1778105976013437184,,,,,,,-0.02885832078754902,1,0.04931814968585968,1,0.01920562051236629,1,-0.01169019099324942,1,-0.001396793755702674,1,-0.004911228083074093,1,3,1,0.1740548014640808,1,0.06445826590061188,1,9.804893493652344,1
1778105976018651392,-0.01992040500044823,-0.0107807470485568,-0.9979815483093262,-0.0001884416415123269,-0.0001103152317227796,-0.009983097203075886,,,,,,,,,,,,,,,,,,,,
1778105976023255040,,,,,,,-0.0201798714697361,1,0.05364254862070084,1,0.0414520837366581,1,-0.007190519943833351,1,-0.00136129732709378,1,-0.004050602670758963,1,3,1,0.1742181777954102,1,0.06376013904809952,1,9.804895401000977,1
1778105976028645888,-0.01891243830323219,-0.009788237512111664,-0.9954420328140259,-0.0001773662079358473,-8.839607471600175e-05,-0.009927780367434025,,,,,,,,,,,,,,,,,,,,
1778105976033053184,,,,,,,-0.01576784253120422,1,0.05229920893907547,1,0.05903962254524231,1,-0.00814176257699728,1,-0.0007737973355688155,1,-0.001812637783586979,1,3,1,0.1743119359016418,1,0.06307226419448853,1,9.804898262023926,1
1778105976038806528,-0.01834873855113983,-0.00878518633544445,-0.9926769137382507,-0.0001762074243742973,-7.766229100525379e-05,-0.009893459267914295,,,,,,,,,,,,,,,,,,,,
1778105976042831616,,,,,,,-0.01235840190201998,1,0.05186923965811729,1,0.05385448038578033,1,-0.008439712226390839,1,-0.0004812365805264562,1,0.0003892071545124054,1,3,1,0.1743804663419724,1,0.06226252391934395,1,9.804902076721191,1
1778105976048947200,-0.01812382973730564,-0.00891832634806633,-0.9920818209648132,-0.0001789803791325539,-9.173256694339216e-05,-0.009913175366818905,,,,,,,,,,,,,,,,,,,,
1778105976052590592,,,,,,,-0.01553140114992857,1,0.04143158346414566,1,0.05020873993635178,1,-0.009848230518400669,1,-0.0002980762219522148,1,0.002551965415477753,1,3,1,0.1743990331888199,1,0.06129874289035797,1,9.80490779876709,1
1778105976059067392,-0.01804421842098236,-0.01103012636303902,-0.9937672019004822,-0.0001803935883799568,-0.0001357452565571293,-0.009953596629202366,,,,,,,,,,,,,,,,,,,,
1778105976062330112,,,,,,,-0.02291631326079369,1,0.01899989880621433,1,0.04352271929383278,1,-0.0116303376853466,1,-0.0001502799714216962,1,0.004400683101266623,1,3,1,0.1744360625743866,1,0.06020269170403481,1,9.804913520812988,1
1778105976069168128,-0.01750175654888153,-0.01370927132666111,-0.9978982210159302,-0.0001678139524301514,-0.0001695286919130012,-0.01002682372927666,,,,,,,,,,,,,,,,,,,,
1778105976072050688,,,,,,,-0.02984868548810482,1,-0.005209267139434814,1,0.02607033029198647,1,-0.01260357815772295,1,-0.0002897673984989524,1,0.004151773639023304,1,3,1,0.1744390577077866,1,0.05894318968057632,1,9.80492115020752,1
1778105976079248640,-0.01726746000349522,-0.01571500860154629,-0.9991265535354614,-0.0001690968056209385,-0.0001838163734646514,-0.01000848133116961,,,,,,,,,,,,,,,,,,,,
1778105976081751808,,,,,,,-0.03243304789066315,1,-0.03047381341457367,1,0.02556279674172401,1,-0.01312969252467155,1,-0.0004026448004879057,1,0.003753305645659566,1,3,1,0.1744700521230698,1,0.05763569846749306,1,9.804928779602051,1
1778105976089308928,-0.01731131598353386,-0.01558860298246145,-0.996755838394165,-0.0001733572862576693,-0.0001579015952302143,-0.009942224249243736,,,,,,,,,,,,,,,,,,,,
1778105976091433472,,,,,,,-0.02988003753125668,1,-0.04668763652443886,1,0.0195312388241291,1,-0.01520693767815828,1,-0.0004219272523187101,1,0.004049246199429035,1,3,1,0.1745455861091614,1,0.05620156973600388,1,9.804935455322266,1
1778105976099349248,-0.01688945665955544,-0.01278549246490002,-0.9955747723579407,-0.0001649588375585154,-0.0001007415485219099,-0.00994002353399992,,,,,,,,,,,,,,,,,,,,
1778105976101096192,,,,,,,-0.02081919088959694,1,-0.0488712377846241,1,0.0180754903703928,1,-0.02032971009612083,1,-0.001082377508282661,1,0.005616009701043367,1,3,1,0.1746547967195511,1,0.05431326478719711,1,9.804944038391113,1
1778105976109369344,-0.01599090546369553,-0.009203112684190273,-0.9946425557136536,-0.0001508252753410488,-5.478499952005222e-05,-0.009936274960637093,,,,,,,,,,,,,,,,,,,,
1778105976111111936,,,,,,,-0.01085272524505854,1,-0.04098848253488541,1,0.04298835247755051,1,-0.02800809778273106,1,0.0002284648362547159,1,0.006909739691764116,1,3,1,0.1747038215398788,1,0.05166894942522049,1,9.804957389831543,1
1778105976119369984,-0.01500434428453445,-0.006188740022480488,-0.9932289719581604,-0.0001388633827446029,-2.992380177602172e-05,-0.009915846399962902,,,,,,,,,,,,,,,,,,,,
1778105976121107712,,,,,,,-0.005325532052665949,1,-0.03365129977464676,1,0.07011766731739044,1,-0.03951090201735497,1,0.002158382441848516,1,0.009063638746738434,1,3,1,0.1745280921459198,1,0.04793396964669228,1,9.80497932434082,1
1778105976129350656,-0.01367147825658321,-0.004629455972462893,-0.9940761923789978,-0.0001215465599671006,-3.149561962345615e-05,-0.009949357248842716,,,,,,,,,,,,,,,,,,,,
1778105976131083776,,,,,,,-0.003257519565522671,1,-0.03827792406082153,1,0.0759735032916069,1,-0.04744864255189896,1,0.003695267485454679,1,0.00879044272005558,1,3,1,0.174167200922966,1,0.0433361828327179,1,9.805007934570312,1
1778105976139311360,-0.01250769570469856,-0.003998829517513514,-0.9964843392372131,-0.0001121106979553588,-3.66524800483603e-05,-0.009992299601435661,,,,,,,,,,,,,,,,,,,,
1778105976141039872,,,,,,,-0.002746722660958767,1,-0.06300972402095795,1,0.05946848541498184,1,-0.0495220310986042,1,0.005072763189673424,1,0.007711200974881649,1,3,1,0.1736854761838913,1,0.038412906229496,1,9.805036544799805,1
1778105976149252096,-0.01213189028203487,-0.002265901304781437,-0.9976595640182495,-0.0001161756517831236,-7.43683358450653e-06,-0.009991561993956566,,,,,,,,,,,,,,,,,,,,
1778105976150976768,,,,,,,0.002262455644086003,1,-0.09362117201089859,1,0.01898091658949852,1,-0.04591645300388336,1,0.002159023657441139,1,0.006369070615619421,1,3,1,0.1734551042318344,1,0.03385614603757858,1,9.805057525634766,1
1778105976159173376,-0.01297060679644346,0.000470368773676455,-0.9968118071556091,-0.0001391097612213343,3.179946725140326e-05,-0.009959416463971138,,,,,,,,,,,,,,,,,,,,
1778105976160893696,,,,,,,0.004386895801872015,1,-0.1176446378231049,1,0.006954743061214685,1,-0.04411443322896957,1,-0.0006323416018858552,1,0.005887354724109173,1,3,1,0.1735527515411377,1,0.02955076098442078,1,9.805069923400879,1
1778105976169074944,-0.0139451902359724,0.004059183411300182,-0.9948260188102722,-0.0001511852897237986,7.867860404076055e-05,-0.009925773367285728,,,,,,,,,,,,,,,,,,,,
1778105976170790912,,,,,,,0.003910280764102936,1,-0.120796799659729,1,0.03021938353776932,1,-0.04912782087922096,1,-0.0003914800763595849,1,0.007500913925468922,1,3,1,0.1736395061016083,1,0.02489963546395302,1,9.805081367492676,1
1778105976178956800,-0.01387000735849142,0.007188048213720322,-0.9947417378425598,-0.0001395944855175912,0.0001057366680470295,-0.009944234974682331,,,,,,,,,,,,,,,,,,,,
1778105976180668160,,,,,,,0.007981065660715103,1,-0.09814514964818954,1,0.04181788116693497,1,-0.06174135953187943,1,0.002091411733999848,1,0.008483567275106907,1,3,1,0.17343969643116,1,0.01901265233755112,1,9.805097579956055,1
1778105976188818688,-0.01277642976492643,0.008670016191899776,-0.9973070621490479,-0.0001156701255240478,0.0001023462245939299,-0.01000137254595757,,,,,,,,,,,,,,,,,,,,
1778105976190525952,,,,,,,0.01661228388547897,1,-0.0686943531036377,1,0.05097604170441628,1,-0.07571296393871307,1,0.004749665036797523,1,0.007286143954843283,1,3,1,0.1730220764875412,1,0.01177337113767862,1,9.805116653442383,1
1778105976198661120,-0.01152176503092051,0.008464105427265167,-0.9983901381492615,-0.0001012437860481441,8.119447011267766e-05,-0.009999305009841919,,,,,,,,,,,,,,,,,,,,
1778105976200364288,,,,,,,0.02612602710723877,1,-0.04537134245038033,1,0.06485243886709213,1,-0.08507292717695236,1,0.006146885920315981,1,0.006853897590190172,1,3,1,0.1730192899703979,1,0.005000899080187082,1,9.805122375488281,1
1778105976208483584,-0.009877614676952362,0.006995826493948698,-0.9977434873580933,-8.117357356240973e-05,5.164990579942241e-05,-0.009968167170882225,,,,,,,,,,,,,,,,,,,,
1778105976210183168,,,,,,,0.03892743587493896,1,-0.03712483495473862,1,0.05655603855848312,1,-0.08536709845066071,1,0.005270595196634531,1,0.00495282094925642,1,3,1,0.1724772900342941,1,-0.003479315666481853,1,9.805132865905762,1
1778105976218660096,-0.00770686287432909,0.005519278813153505,-0.9988183975219727,-5.321886783349328e-05,3.572024797904305e-05,-0.0100004319101572,,,,,,,,,,,,,,,,,,,,
1778105976219982080,,,,,,,0.04999377578496933,1,-0.03846242278814316,1,0.03294908627867699,1,-0.07795808464288712,1,0.003813742194324732,1,0.005271723959594965,1,3,1,0.1720938086509705,1,-0.01124901324510574,1,9.805133819580078,1
1778105976228816640,-0.006604555994272232,0.004109455272555351,-0.9975696206092834,-5.333526132744737e-05,2.22486924030818e-05,-0.009964593686163425,,,,,,,,,,,,,,,,,,,,
1778105976229761536,,,,,,,0.0533432848751545,1,-0.02884127199649811,1,0.02142816036939621,1,-0.06845643371343613,1,0.002385436091572046,1,0.005228500813245773,1,3,1,0.1718251407146454,1,-0.01806679554283619,1,9.80512809753418,1
1778105976238953216,-0.006754333153367043,0.002837449312210083,-0.9914913773536682,-6.774880603188649e-05,1.163337492471328e-05,-0.009848186746239662,,,,,,,,,,,,,,,,,,,,
1778105976239522048,,,,,,,0.04485037177801132,1,-0.008971095085144043,1,0.02973861619830132,1,-0.06398690491914749,1,0.002202193019911647,1,0.005354990717023611,1,3,1,0.1716397702693939,1,-0.02438046410679817,1,9.805117607116699,1
1778105976249069312,-0.008262879215180874,0.002241344889625907,-0.9886325001716614,-0.0001004421792458743,1.01393543445738e-05,-0.009848893620073795,,,,,,,,,,,,,,,,,,,,
1778105976249263104,,,,,,,0.03503722697496414,1,0.01959466375410557,1,0.04920566827058792,1,-0.06406738609075546,1,0.003392194863408804,1,0.002399690449237823,1,3,1,0.1713570803403854,1,-0.03062251396477222,1,9.805105209350586,1
1778105976258984704,,,,,,,0.03545542061328888,1,0.04376589879393578,1,0.05002337694168091,1,-0.06488692760467529,1,0.004130522254854441,1,-0.0009513923432677984,1,3,1,0.1709273755550385,1,-0.03703351318836212,1,9.805089950561523,1
1778105976259165440,-0.01036443561315536,0.00311015103943646,-0.9894420504570007,-0.0001279749994864687,3.530473622959107e-05,-0.009900431148707867,,,,,,,,,,,,,,,,,,,,
1778105976268686848,,,,,,,0.04585921764373779,1,0.05190280079841614,1,0.02485205046832561,1,-0.0622376911342144,1,0.002143705729395151,1,-0.002148033818230033,1,3,1,0.1706931293010712,1,-0.04317571222782135,1,9.805068969726562,1
1778105976269241344,-0.01271632220596075,0.005722724832594395,-0.9934877753257751,-0.0001536430791020393,8.118372352328151e-05,-0.009979289956390858,,,,,,,,,,,,,,,,,,,,
1778105976278369536,,,,,,,0.05797248706221581,1,0.04376274719834328,1,0.01421143487095833,1,-0.05386554449796677,1,-0.001284676836803555,1,8.120550774037838e-06,1,3,1,0.1707941293716431,1,-0.04862270876765251,1,9.805042266845703,1
1778105976279297536,-0.01509383134543896,0.009734146296977997,-0.9986767768859863,-0.0001793987466953695,0.0001367105287499726,-0.01004658918827772,,,,,,,,,,,,,,,,,,,,
1778105976288219648,,,,,,,0.07408472895622253,1,0.02376823499798775,1,0.02053027227520943,1,-0.0485336147248745,1,-0.002062891842797399,1,0.004361527040600777,1,3,1,0.1710166931152344,1,-0.05339466407895088,1,9.805013656616211,1
1778105976289333504,-0.01703706011176109,0.01483389083296061,-1.000546097755432,-0.0001926830009324476,0.0002019683597609401,-0.01003121491521597,,,,,,,,,,,,,,,,,,,,
1778105976298236928,,,,,,,0.09549907594919205,1,0.004090402275323868,1,0.009962267242372036,1,-0.04877500236034393,1,-0.003664154559373856,1,0.009909999556839466,1,3,1,0.171370804309845,1,-0.05815117806196213,1,9.804980278015137,1
1778105976299350016,-0.01796873286366463,0.02042215131223202,-1.000347852706909,-0.0001917802437674254,0.0002631795650813729,-0.01000312995165586,,,,,,,,,,,,,,,,,,,,
1778105976308234496,,,,,,,0.1065646186470985,1,-0.01490410789847374,1,0.02217616513371468,1,-0.05839333310723305,1,-0.004500518552958965,1,0.01540192402899265,1,3,1,0.171813890337944,1,-0.06368889659643173,1,9.804938316345215,1
1778105976309346560,-0.01751927472651005,0.02455385960638523,-0.9989977478981018,-0.0001701980945654213,0.0002909028553403914,-0.009975846856832504,,,,,,,,,,,,,,,,,,,,
1778105976318212096,,,,,,,0.1053855791687965,1,-0.03312400355935097,1,0.08174407482147217,1,-0.07425213605165482,1,-0.001163907931186259,1,0.02046450786292553,1,3,1,0.1720046401023865,1,-0.07076292484998703,1,9.804885864257812,1
1778105976319323648,-0.01638006046414375,0.02702701650559902,-0.9959359765052795,-0.00015187484677881,0.000298247003229335,-0.009927090257406235,,,,,,,,,,,,,,,,,,,,
1778105976328169728,,,,,,,0.0906512588262558,1,-0.04588226228952408,1,0.1097330003976822,1,-0.09546798467636108,1,0.006389876361936331,1,0.02283262461423874,1,3,1,0.1714766472578049,1,-0.07991914451122284,1,9.804824829101562,1
1778105976329280768,-0.01567145995795727,0.02685663476586342,-0.992251992225647,-0.0001476118486607447,0.0002677245356608182,-0.009877949953079224,,,,,,,,,,,,,,,,,,,,
1778105976338107648,,,,,,,0.06965383142232895,1,-0.04578195512294769,1,0.1017371490597725,1,-0.1113572716712952,1,0.01152967847883701,1,0.02437626197934151,1,3,1,0.1703561544418335,1,-0.09074349701404572,1,9.804750442504883,1
1778105976339218432,-0.01497696712613106,0.02527757175266743,-0.9922177195549011,-0.0001413745194440708,0.0002347635454498231,-0.009919861331582069,,,,,,,,,,,,,,,,,,,,
1778105976348025856,,,,,,,0.04580017924308777,1,-0.02991844341158867,1,0.06199204921722412,1,-0.1174042522907257,1,0.01267165131866932,1,0.02258164808154106,1,3,1,0.1690524518489838,1,-0.1023042723536491,1,9.804658889770508,1
1778105976349136128,-0.01439152006059885,0.02363393642008305,-0.9941530823707581,-0.0001373406703351066,0.0002172606036765501,-0.009961270727217197,,,,,,,,,,,,,,,,,,,,
1778105976357924608,,,,,,,0.02147783897817135,1,-0.001124178757891059,1,0.01102148368954659,1,-0.1137618198990822,1,0.01235359627753496,1,0.01748021319508553,1,3,1,0.1678058505058289,1,-0.1136172041296959,1,9.804555892944336,1
1778105976359034624,-0.01419611368328333,0.02313950099050999,-0.9968269467353821,-0.0001400655310135335,0.0002265711518703029,-0.009999383240938187,,,,,,,,,,,,,,,,,,,,
1778105976367803392,,,,,,,0.001388543518260121,1,0.0383015051484108,1,-0.007403500378131866,1,-0.1003945767879486,1,0.008713580667972565,1,0.01134791038930416,1,3,1,0.1668992638587952,1,-0.1236906722187996,1,9.804449081420898,1
1778105976368913408,-0.01450766064226627,0.02353404834866524,-0.9974740147590637,-0.0001489146816311404,0.000239494867855683,-0.009984292089939117,,,,,,,,,,,,,,,,,,,,
1778105976377662976,,,,,,,-0.00864714290946722,1,0.08316800743341446,1,-0.005556271411478519,1,-0.08447588980197906,1,0.00594655703753233,1,0.004242022056132555,1,3,1,0.1662672758102417,1,-0.1322194188833237,1,9.804348945617676,1
1778105976378772224,-0.01455509196966887,0.0248202420771122,-0.9963985085487366,-0.0001459408522350714,0.0002628587826620787,-0.009951225481927395,,,,,,,,,,,,,,,,,,,,
1778105976387503104,,,,,,,-0.00494789332151413,1,0.1149479150772095,1,0.007589273154735565,1,-0.06348317116498947,1,0.003391365054994822,1,-0.002939722733572125,1,3,1,0.1658880114555359,1,-0.1386931240558624,1,9.804265975952148,1
1778105976388612096,-0.01425178255885839,0.02588877454400063,-0.9958592057228088,-0.0001391727855661884,0.0002723813813645393,-0.009951718151569366,,,,,,,,,,,,,,,,,,,,
1778105976397324032,,,,,,,0.005067928228527308,1,0.131924957036972,1,0.03754087164998055,1,-0.03838566690683365,1,-0.0002091373316943645,1,-0.008607774972915649,1,3,1,0.1635899990797043,1,-0.1434393227100372,1,9.80423641204834,1
1778105976398614784,-0.01407104264944792,0.02576421573758125,-0.9960440993309021,-0.00013838401355315,0.0002567709016148001,-0.009963861666619778,,,,,,,,,,,,,,,,,,,,
1778105976407124992,,,,,,,0.01113764476031065,1,0.1250196695327759,1,0.07361277937889099,1,-0.01406388822942972,1,-0.003041392890736461,1,-0.01219414360821247,1,3,1,0.1639092713594437,1,-0.1450705528259277,1,9.804206848144531,1
1778105976408780288,-0.0146654499694705,0.02463454939424992,-0.9938030242919922,-0.0001517654600320384,0.0002346328110434115,-0.009914670139551163,,,,,,,,,,,,,,,,,,,,
1778105976416907008,,,,,,,0.01763827167451382,1,0.1065527722239494,1,0.07391461730003357,1,0.008590048179030418,1,-0.00407133623957634,1,-0.01525108516216278,1,3,1,0.1643147617578506,1,-0.1444813460111618,1,9.804208755493164,1
1778105976418926080,-0.01620091497898102,0.02326952293515205,-0.9928209185600281,-0.0001794380223145708,0.000216719476156868,-0.009913681074976921,,,,,,,,,,,,,,,,,,,,
1778105976426669824,,,,,,,0.02345438860356808,1,0.08957928419113159,1,0.05492281913757324,1,0.0231510829180479,1,-0.005694922991096973,1,-0.01586694642901421,1,3,1,0.1649103909730911,1,-0.1422464102506638,1,9.804231643676758,1
1778105976429051392,-0.01767572574317455,0.02233137749135494,-0.9942705631256104,-0.0001941846421686932,0.0002122487203450873,-0.009957430884242058,,,,,,,,,,,,,,,,,,,,
1778105976436413440,,,,,,,0.02567782439291477,1,0.08545885980129242,1,0.0287077184766531,1,0.02838306315243244,1,-0.005797383841127157,1,-0.01464270241558552,1,3,1,0.1654951274394989,1,-0.1394554972648621,1,9.804262161254883,1
1778105976436414440,,,,,,,0.02306555025279522,1,0.09093862771987915,1,0.02237807773053646,1,0.02286438271403313,1,-0.005818161647766829,1,-0.01165580190718174,1,3,1,0.1660977452993393,1,-0.1370398253202438,1,9.804286003112793,1
1778105976436415440,,,,,,,0.02302847802639008,1,0.1052303239703178,1,0.0329420268535614,1,0.01178647205233574,1,-0.001695006270892918,1,-0.006930558942258358,1,3,1,0.1663366407155991,1,-0.1357344686985016,1,9.804299354553223,1
1778105976436416440,,,,,,,0.02625122480094433,1,0.116888515651226,1,0.0382443405687809,1,-0.0006425348110496998,1,0.0009987651137635112,1,-0.002856246661394835,1,3,1,0.1662630438804626,1,-0.1356433182954788,1,9.804302215576172,1
1778105976436417440,,,,,,,0.02808089181780815,1,0.1160826906561852,1,0.03643597289919853,1,-0.008141545578837395,1,0.001546610379591584,1,-0.0004555400228127837,1,3,1,0.1660738438367844,1,-0.1364211887121201,1,9.804294586181641,1
1778105976436418440,,,,,,,0.02221728302538395,1,0.1048573032021523,1,0.05841172859072685,1,-0.006500759162008762,1,0.0004031071439385414,1,0.0006171614513732493,1,3,1,0.1659820228815079,1,-0.1371514946222305,1,9.804286003112793,1
1778105976436419440,,,,,,,0.007066633552312851,1,0.09120575338602066,1,0.06804144382476807,1,-0.0004028537077829242,1,0.003491062205284834,1,0.0001516724587418139,1,3,1,0.1656872779130936,1,-0.1373084485530853,1,9.804288864135742,1
1778105976436420440,,,,,,,-0.007628606632351875,1,0.08206828683614731,1,0.05382978543639183,1,0.0105242719873786,1,0.002994852373376489,1,-0.0006871222867630422,1,3,1,0.1653192788362503,1,-0.1364093273878098,1,9.80430793762207,1
1778105976436421440,,,,,,,-0.01850995421409607,1,0.08092764765024185,1,0.02413862571120262,1,0.02058524079620838,1,0.0002675979922059923,1,-0.00309591181576252,1,3,1,0.1652151942253113,1,-0.1345577239990234,1,9.80433464050293,1
1778105976436422440,,,,,,,-0.03390331193804741,1,0.08119030296802521,1,0.009123368188738823,1,0.02931352704763412,1,-0.001557405339553952,1,-0.005422462709248066,1,3,1,0.1653665900230408,1,-0.1317279189825058,1,9.804370880126953,1
1778105976436423440,,,,,,,-0.04594821110367775,1,0.08790241181850433,1,0.02138995565474033,1,0.03365485370159149,1,-0.001984152477234602,1,-0.008628807030618191,1,3,1,0.1655840575695038,1,-0.1284642964601517,1,9.804409980773926,1
1778105976436424440,,,,,,,-0.04707614704966545,1,0.09714384377002716,1,0.03654060140252113,1,0.03859211131930351,1,0.0004236194945406169,1,-0.01222981698811054,1,3,1,0.1655734777450562,1,-0.1247351169586182,1,9.804458618164062,1
1778105976436425440,,,,,,,-0.04086492583155632,1,0.1038350835442543,1,0.03362616524100304,1,0.04703353717923164,1,-0.0005498911486938596,1,-0.01449950039386749,1,3,1,0.1655906438827515,1,-0.1202826127409935,1,9.804513931274414,1
1778105976436426440,,,,,,,-0.03796294704079628,1,0.1001716926693916,1,0.04278214648365974,1,0.05866473168134689,1,-0.001273376401513815,1,-0.01671997457742691,1,3,1,0.1657472997903824,1,-0.1146738454699516,1,9.80457878112793,1
1778105976439156480,-0.01876220107078552,0.0221435222774744,-0.9972995519638062,-0.0002001205284614116,0.0002193084801547229,-0.01000678725540638,,,,,,,,,,,,,,,,,,,,
1778105976442843136,,,,,,,-0.04616681486368179,1,0.09361466020345688,1,0.06634416431188583,1,0.07274126261472702,1,-0.001534998416900635,1,-0.01947040483355522,1,3,1,0.1659531891345978,1,-0.107697919011116,1,9.804654121398926,1
1778105976449241856,-0.02032311074435711,0.02201579697430134,-0.9988329410552979,-0.0002214808773715049,0.0002190142695326358,-0.01000839006155729,,,,,,,,,,,,,,,,,,,,
1778105976452922368,,,,,,,-0.05928505584597588,1,0.08714132755994797,1,0.06319820880889893,1,0.08868558704853058,1,-0.001376714091747999,1,-0.02308163791894913,1,3,1,0.1660932749509811,1,-0.09920404851436615,1,9.804741859436035,1
1778105976459307264,-0.02155610918998718,0.02247186377644539,-0.997585117816925,-0.0002305160742253065,0.0002310325944563374,-0.009963210672140121,,,,,,,,,,,,,,,,,,,,
1778105976462981376,,,,,,,-0.07046957314014435,1,0.08518225699663162,1,0.04147448763251305,1,0.1040852442383766,1,-0.003635297995060682,1,-0.02596094645559788,1,3,1,0.1668941378593445,1,-0.09039077907800674,1,9.804813385009766,1
1778105976469352448,-0.02167794853448868,0.02312556281685829,-0.996043860912323,-0.0002189692168030888,0.0002413270412944257,-0.009941546246409416,,,,,,,,,,,,,,,,,,,,
1778105976473020416,,,,,,,-0.07945802062749863,1,0.0883299931883812,1,0.02513749524950981,1,0.117038682103157,1,-0.007330436259508133,1,-0.02864828333258629,1,3,1,0.1675597131252289,1,-0.07905875146389008,1,9.804899215698242,1
1778105976479377920,-0.02104698866605759,0.02345963381230831,-0.996345579624176,-0.0002033050986938179,0.0002402566460659727,-0.009967140853404999,,,,,,,,,,,,,,,,,,,,
1778105976483039744,,,,,,,-0.09193166345357895,1,0.0878683403134346,1,0.0362100675702095,1,0.1244110092520714,1,-0.009010466746985912,1,-0.03043896518647671,1,3,1,0.168485090136528,1,-0.06683680415153503,1,9.804974555969238,1
1778105976489383936,-0.02075835689902306,0.02265756390988827,-0.9954171776771545,-0.0002036457590293139,0.0002207149809692055,-0.00994579866528511,,,,,,,,,,,,,,,,,,,,
1778105976493039104,,,,,,,-0.1001964583992958,1,0.07610467821359634,1,0.05109628289937973,1,0.1291390210390091,1,-0.008003439754247665,1,-0.03139368072152138,1,3,1,0.1693179160356522,1,-0.05412282422184944,1,9.805038452148438,1
1778105976499369984,-0.02160772681236267,0.02145742438733578,-0.9930207133293152,-0.0002248395176138729,0.0002049264294328168,-0.009903505444526672,,,,,,,,,,,,,,,,,,,,
1778105976503018496,,,,,,,-0.1012445837259293,1,0.05202340334653854,1,0.04564259201288223,1,0.1304734498262405,1,-0.007957380264997482,1,-0.03138213604688644,1,3,1,0.170088529586792,1,-0.04129234328866005,1,9.805088043212891,1
1778105976509336064,-0.02295948378741741,0.02014264836907387,-0.9933487176895142,-0.0002457543450873345,0.0001899011695059016,-0.009935013018548489,,,,,,,,,,,,,,,,,,,,
1778105976512977920,,,,,,,-0.09402783215045929,1,0.01723788306117058,1,0.03616373240947723,1,0.1282690912485123,1,-0.009832764975726604,1,-0.02933133020997047,1,3,1,0.1710255444049835,1,-0.02864944934844971,1,9.805116653442383,1
1778105976519282176,-0.02413367480039597,0.01918601430952549,-0.9955713748931885,-0.0002544554881751537,0.0001856289018178359,-0.00998107623308897,,,,,,,,,,,,,,,,,,,,
1778105976522917888,,,,,,,-0.09661247581243515,1,-0.02254635654389858,1,0.04192932695150375,1,0.119747169315815,1,-0.008974016644060612,1,-0.0267170574516058,1,3,1,0.1719507277011871,1,-0.01666437834501266,1,9.80512809753418,1
1778105976529208576,-0.02509942837059498,0.01861049234867096,-0.997245192527771,-0.0002622027532197535,0.0001852413988672197,-0.009992866776883602,,,,,,,,,,,,,,,,,,,,
1778105976533209600,,,,,,,-0.1018700897693634,1,-0.05089499056339264,1,0.05441568046808243,1,0.1035463660955429,1,-0.005104539915919304,1,-0.02245421335101128,1,3,1,0.1725593656301498,1,-0.006190790329128504,1,9.805130004882812,1
1778105976539115520,-0.02643812447786331,0.0175201203674078,-0.9961241483688354,-0.000279061816399917,0.0001683963491814211,-0.009949803352355957,,,,,,,,,,,,,,,,,,,,
1778105976543481088,,,,,,,-0.1013580113649368,1,-0.06211527436971664,1,0.04698653891682625,1,0.08289805799722672,1,-0.001512246555648744,1,-0.01742232404649258,1,3,1,0.1727112978696823,1,0.002281317720189691,1,9.805129051208496,1
1778105976549002752,-0.02735825814306736,0.01517029479146004,-0.9946137070655823,-0.000283961184322834,0.0001326193159911782,-0.009929035790264606,,,,,,,,,,,,,,,,,,,,
1778105976553731840,,,,,,,-0.09809275716543198,1,-0.05372228100895882,1,0.03068524412810802,1,0.06232080236077309,1,0.001460725325159729,1,-0.01202037371695042,1,3,1,0.1725835204124451,1,0.00860495213419199,1,9.805127143859863,1
1778105976558870272,-0.02754311822354794,0.0114941755309701,-0.9951765537261963,-0.0002784150710795075,7.926288526505232e-05,-0.009956328198313713,,,,,,,,,,,,,,,,,,,,
1778105976563962112,,,,,,,-0.09062421321868896,1,-0.0331120453774929,1,0.02872032299637794,1,0.04520804062485695,1,0.002303532091900706,1,-0.006354467011988163,1,3,1,0.1723389327526093,1,0.01323312055319548,1,9.805126190185547,1
1778105976568717824,-0.0268894862383604,0.006690782960504293,-0.9961485266685486,-0.000260329048614949,1.92341030924581e-05,-0.009973309934139252,,,,,,,,,,,,,,,,,,,,
1778105976574172160,,,,,,,-0.08268547058105469,1,-0.01332646049559116,1,0.03403893485665321,1,0.03542608767747879,1,0.002785384189337492,1,-0.002014765050262213,1,3,1,0.1720490008592606,1,0.01675581745803356,1,9.805126190185547,1
1778105976578546432,-0.02724274061620235,0.00137693586293608,-0.995564341545105,-0.0002758401969913393,-4.186458318145014e-05,-0.009949294850230217,,,,,,,,,,,,,,,,,,,,
1778105976584362240,,,,,,,-0.07047726958990097,1,0.001013560104183853,1,0.03424070402979851,1,0.03250953555107117,1,0.002252293983474374,1,0.00194081268273294,1,3,1,0.1717893928289413,1,0.01994993165135384,1,9.80512523651123,1
1778105976588541184,-0.02786355093121529,-0.002715351991355419,-0.9942933320999146,-0.0002855729544535279,-7.049801206449047e-05,-0.00992811843752861,,,,,,,,,,,,,,,,,,,,
1778105976594532096,,,,,,,-0.05545353889465332,1,0.004954821895807981,1,0.03333470970392227,1,0.03683957457542419,1,-0.0003829827765002847,1,0.006273234263062477,1,3,1,0.1717504560947418,1,0.02348972484469414,1,9.805117607116699,1
1778105976598701568,-0.02787108160555363,-0.004945416934788227,-0.99505215883255,-0.000278839870588854,-7.299130811588839e-05,-0.009956987574696541,,,,,,,,,,,,,,,,,,,,
1778105976604681472,,,,,,,-0.04431113228201866,1,0.002912174910306931,1,0.03179682418704033,1,0.04208096116781235,1,-0.002748554805293679,1,0.009597069583833218,1,3,1,0.1719917207956314,1,0.02754590660333633,1,9.805103302001953,1
1778105976608842240,-0.02756989933550358,-0.00501217832788825,-0.9967150688171387,-0.0002721275959629565,-4.92255567223765e-05,-0.009987778961658478,,,,,,,,,,,,,,,,,,,,
1778105976614811136,,,,,,,-0.03729642555117607,1,-0.01062784530222416,1,0.04116960614919662,1,0.04639312252402306,1,-0.004289297852665186,1,0.01191357616335154,1,3,1,0.1724064946174622,1,0.03205519169569016,1,9.805082321166992,1
1778105976618962432,-0.02681545168161392,-0.003658299800008535,-0.9969156384468079,-0.0002597547718323767,-2.003719600907061e-05,-0.009972277097404003,,,,,,,,,,,,,,,,,,,,
1778105976624920576,,,,,,,-0.03010887280106544,1,-0.0260502565652132,1,0.05086842924356461,1,0.04530888795852661,1,-0.003626608988270164,1,0.01321907434612513,1,3,1,0.1728193759918213,1,0.03648350015282631,1,9.805059432983398,1
1778105976629062656,-0.02599748596549034,-0.002228298923000693,-0.9963734149932861,-0.0002511265920475125,-4.232398168824147e-06,-0.009957936592400074,,,,,,,,,,,,,,,,,,,,
1778105976635009792,,,,,,,-0.02557235397398472,1,-0.04572645947337151,1,0.05244531854987144,1,0.04074080660939217,1,-0.003642205614596605,1,0.01475346554070711,1,3,1,0.173164889216423,1,0.04054046794772148,1,9.805037498474121,1
1778105976639142656,-0.02473465539515018,-0.001238764147274196,-0.9963528513908386,-0.0002337499026907608,9.393688742420636e-07,-0.009962299838662148,,,,,,,,,,,,,,,,,,,,
1778105976645079296,,,,,,,-0.02345634810626507,1,-0.05609127506613731,1,0.04596737399697304,1,0.03263722732663155,1,-0.001539376098662615,1,0.01556678861379623,1,3,1,0.173340380191803,1,0.04380561411380768,1,9.805020332336426,1
1778105976649202944,-0.0231860838830471,-0.001249830587767065,-0.9964450001716614,-0.0002145475446013734,-9.752475307323039e-06,-0.009965643286705017,,,,,,,,,,,,,,,,,,,,
1778105976655128832,,,,,,,-0.02188497595489025,1,-0.05419893562793732,1,0.04512656852602959,1,0.02221684716641903,1,0.0005286288214847445,1,0.01555703394114971,1,3,1,0.1733467429876328,1,0.04610942304134369,1,9.805009841918945,1
1778105976659243264,-0.02204762026667595,-0.001861759927123785,-0.9966011643409729,-0.0002074305084533989,-2.333794873266015e-05,-0.009968128986656666,,,,,,,,,,,,,,,,,,,,
1778105976665158144,,,,,,,-0.01969112083315849,1,-0.05301980301737785,1,0.03563514351844788,1,0.01209406089037657,1,0.002963114297017455,1,0.01397151872515678,1,3,1,0.1748002618551254,1,0.04778101295232773,1,9.804975509643555,1
1778105976669263872,-0.02134790271520615,-0.003664046060293913,-0.995644211769104,-0.0002044343127636239,-5.500420593307354e-05,-0.009946438483893871,,,,,,,,,,,,,,,,,,,,
1778105976675167488,,,,,,,-0.01256339158862829,1,-0.04444271326065063,1,0.02538581192493439,1,0.003529814537614584,1,0.004025961272418499,1,0.01093904674053192,1,3,1,0.1744116693735123,1,0.04822663217782974,1,9.804980278015137,1
1778105976679264512,-0.02064362913370132,-0.005674635525792837,-0.9946535229682922,-0.0001976733183255419,-7.762788300169632e-05,-0.009934042580425739,,,,,,,,,,,,,,,,,,,,
1778105976685157376,,,,,,,0.0003012894303537905,1,-0.03410724177956581,1,0.02162718772888184,1,-0.0005265120416879654,1,0.004414124879986048,1,0.00879060011357069,1,3,1,0.1740243285894394,1,0.04812861979007721,1,9.804987907409668,1
1778105976689245184,-0.02021263167262077,-0.008116877637803555,-0.9944907426834106,-0.0001968814758583903,-0.0001068200508598238,-0.009942169301211834,,,,,,,,,,,,,,,,,,,,
1778105976695127296,,,,,,,0.01539577636867762,1,-0.02174576930701733,1,0.03149613738059998,1,0.002535595558583736,1,0.00280629750341177,1,0.006679128855466843,1,3,1,0.1737117767333984,1,0.04829226806759834,1,9.80499267578125,1
1778105976699206400,-0.02002666518092155,-0.009577999822795391,-0.9951493144035339,-0.0001985659182537347,-0.000112565750896465,-0.009959296323359013,,,,,,,,,,,,,,,,,,,,
1778105976705077248,,,,,,,0.02677000872790813,1,0.0006796300876885653,1,0.04865894094109535,1,0.01017984561622143,1,0.002457126043736935,1,0.0049005844630301,1,3,1,0.1734767109155655,1,0.04917382821440697,1,9.804991722106934,1
1778105976709147648,-0.01988665945827961,-0.009731216356158257,-0.9952333569526672,-0.0001982158428290859,-9.833385411184281e-05,-0.009953798726201057,,,,,,,,,,,,,,,,,,,,
1778105976715194880,,,,,,,0.0365166924893856,1,0.034754429012537,1,0.05878495797514915,1,0.02344134822487831,1,0.002195107284933329,1,0.00192366645205766,1,3,1,0.1732459962368011,1,0.05131740495562553,1,9.804985046386719,1
1778105976719068928,-0.01971984654664993,-0.009889849461615086,-0.9961990714073181,-0.0001949158904608339,-0.0001007908940664493,-0.009971735998988152,,,,,,,,,,,,,,,,,,,,
1778105976725479936,,,,,,,0.0468299500644207,1,0.07347582280635834,1,0.0566963329911232,1,0.03854071348905563,1,0.0008994070813059807,1,-0.001537277130410075,1,3,1,0.1731282025575638,1,0.05488024652004242,1,9.804967880249023,1
1778105976728970496,-0.01903367042541504,-0.009208466857671738,-0.9972426891326904,-0.0001829014217946678,-8.427102147834376e-05,-0.009985278360545635,,,,,,,,,,,,,,,,,,,,
1778105976735744256,,,,,,,0.05109449103474617,1,0.09924180060625076,1,0.04581235721707344,1,0.05669872462749481,1,-0.002067400142550468,1,-0.004633255302906036,1,3,1,0.1732869446277618,1,0.06017288193106651,1,9.804934501647949,1
1778105976738852864,-0.01772667840123177,-0.008261904120445251,-0.9976253509521484,-0.0001622822019271553,-7.261171413119882e-05,-0.009981263428926468,,,,,,,,,,,,,,,,,,,,
1778105976745988096,,,,,,,0.04977183043956757,1,0.1048682555556297,1,0.03959550336003304,1,0.0713874027132988,1,-0.004864402115345001,1,-0.007538561709225178,1,3,1,0.1737407743930817,1,0.06702922284603119,1,9.804882049560547,1
1778105976748715264,-0.01617247052490711,-0.007060784846544266,-0.996618926525116,-0.0001436300517525524,-5.78064464207273e-05,-0.009956067427992821,,,,,,,,,,,,,,,,,,,,
1778105976756211712,,,,,,,0.04843070358037949,1,0.08768349140882492,1,0.03229363262653351,1,0.08339324593544006,1,-0.006540849804878235,1,-0.008015837520360947,1,3,1,0.1743396669626236,1,0.07510272413492203,1,9.804812431335449,1
1778105976758558208,-0.01499298773705959,-0.00483267568051815,-0.9948689341545105,-0.000136649192427285,-2.403008147666696e-05,-0.009927965700626373,,,,,,,,,,,,,,,,,,,,
1778105976766415360,,,,,,,0.0499270036816597,1,0.06012202799320221,1,0.02128667198121548,1,0.08999419957399368,1,-0.008402267470955849,1,-0.007581332698464394,1,3,1,0.1751409918069839,1,0.08389336615800858,1,9.804726600646973,1
1778105976768381184,-0.01397722493857145,-0.001464311382733285,-0.9938362836837769,-0.0001286122424062341,2.400447920081206e-05,-0.009925604797899723,,,,,,,,,,,,,,,,,,,,
1778105976776598528,,,,,,,0.04795896634459496,1,0.02242423966526985,1,0.02388619631528854,1,0.09107735008001328,1,-0.008508648723363876,1,-0.008130229078233242,1,3,1,0.1759412735700607,1,0.09287454932928085,1,9.804632186889648,1
1778105976778559744,-0.01290585473179817,0.002288085874170065,-0.994048535823822,-0.00011748601536965,6.807262252550572e-05,-0.009941784664988518,,,,,,,,,,,,,,,,,,,,
1778105976786761216,,,,,,,0.04493989050388336,1,-0.01439468655735254,1,0.04483453929424286,1,0.08728358894586563,1,-0.007326428312808275,1,-0.008105922490358353,1,3,1,0.1766654849052429,1,0.1015351191163063,1,9.804533004760742,1
1778105976788717824,-0.01246189419180155,0.004596402402967215,-0.9951568245887756,-0.0001187992020277306,7.65020668040961e-05,-0.00996407400816679,,,,,,,,,,,,,,,,,,,,
1778105976796903424,,,,,,,0.04137960448861122,1,-0.04126563668251038,1,0.05261388793587685,1,0.07770001143217087,1,-0.003647256875410676,1,-0.007566639222204685,1,3,1,0.1770709604024887,1,0.1092937365174294,1,9.804442405700684,1
1778105976798855936,-0.01260791998356581,0.004703919403254986,-0.9957877993583679,-0.0001271379296667874,5.295472146826796e-05,-0.009965992532670498,,,,,,,,,,,,,,,,,,,,
1778105976807026176,,,,,,,0.04190810397267342,1,-0.04812338575720787,1,0.04677063971757889,1,0.06924199312925339,1,-0.002175815403461456,1,-0.006881642621010542,1,3,1,0.1773078739643097,1,0.1162171959877014,1,9.80435848236084,1
1778105976808974080,-0.01277569681406021,0.002344007138162851,-0.9965279102325439,-0.0001298560382565483,1.5044461179059e-06,-0.009972276166081429,,,,,,,,,,,,,,,,,,,,
1778105976817128448,,,,,,,0.04469827935099602,1,-0.03651094436645508,1,0.03676056116819382,1,0.05873052030801773,1,-0.001212822622619569,1,-0.004595356993377209,1,3,1,0.1774314045906067,1,0.1221352368593216,1,9.80428409576416,1
1778105976819072000,-0.01267361734062433,-0.001194243552163243,-0.9976441860198975,-0.000125026039313525,-4.730126602225937e-05,-0.009990403428673744,,,,,,,,,,,,,,,,,,,,
1778105976827210752,,,,,,,0.04451879113912582,1,-0.01685803942382336,1,0.02952691912651062,1,0.0500589907169342,1,0.0007190307369455695,1,-0.002204759512096643,1,3,1,0.1773929744958878,1,0.1271843016147614,1,9.804220199584961,1
1778105976829149696,-0.01293947454541922,-0.005850661545991898,-0.9973714351654053,-0.000131986802443862,-0.0001065389878931455,-0.009972982108592987,,,,,,,,,,,,,,,,,,,,
1778105976837272832,,,,,,,0.04179064929485321,1,-0.001708273077383637,1,0.02773017436265945,1,0.04281483590602875,1,0.001449552015401423,1,-0.001649663201533258,1,3,1,0.1772854626178741,1,0.1314840763807297,1,9.804165840148926,1
1778105976839207424,-0.01331878453493118,-0.01045730989426374,-0.9952266216278076,-0.0001370652898913249,-0.0001538823853479698,-0.009928693994879723,,,,,,,,,,,,,,,,,,,,
1778105976847314944,,,,,,,0.03847106918692589,1,0.002555984305217862,1,0.02976886369287968,1,0.03908412531018257,1,0.0006038896390236914,1,-0.002456560963764787,1,3,1,0.1772416532039642,1,0.1353432089090347,1,9.80411434173584,1
1778105976849244928,-0.01374632120132446,-0.0140399020165205,-0.9944241046905518,-0.0001422476343577728,-0.0001787116489140317,-0.009932973422110081,,,,,,,,,,,,,,,,,,,,
1778105976857337344,,,,,,,0.03616253659129143,1,-0.00921058002859354,1,0.03581880033016205,1,0.03938270732760429,1,-0.0001807811204344034,1,-0.002654277253895998,1,3,1,0.1772557497024536,1,0.1391575783491135,1,9.804059982299805,1
1778105976859262976,-0.01374096143990755,-0.01553482655435801,-0.995011031627655,-0.0001368335942970589,-0.0001707094488665462,-0.009956983849406242,,,,,,,,,,,,,,,,,,,,
1778105976867339520,,,,,,,0.03369851782917976,1,-0.02924568578600883,1,0.04279476776719093,1,0.0440104715526104,1,-0.0009231161675415933,1,-0.001431373762898147,1,3,1,0.1756612062454224,1,0.1429000794887543,1,9.804035186767578,1
1778105976869260800,-0.01349035650491714,-0.01507822889834642,-0.9960232973098755,-0.0001319479197263718,-0.0001437910686945543,-0.009970718994736671,,,,,,,,,,,,,,,,,,,,
1778105976877321728,,,,,,,0.03061794117093086,1,-0.04897612333297729,1,0.04340937361121178,1,0.04675563797354698,1,-0.0024580885656178,1,0.0007714759558439255,1,3,1,0.1759343892335892,1,0.1474477052688599,1,9.803962707519531,1
1778105976879238656,-0.01352890580892563,-0.0137202488258481,-0.9967530369758606,-0.0001357226574327797,-0.0001200266124214977,-0.009976441971957684,,,,,,,,,,,,,,,,,,,,
1778105976887284480,,,,,,,0.02909524738788605,1,-0.06231862306594849,1,0.04239446297287941,1,0.04722433164715767,1,-0.003844578983262181,1,0.001644604024477303,1,3,1,0.1763262748718262,1,0.1520998030900955,1,9.803884506225586,1
1778105976889196544,-0.01381426118314266,-0.01273972727358341,-0.9969292283058167,-0.0001418482861481607,-0.0001135892744059674,-0.009971329011023045,,,,,,,,,,,,,,,,,,,,
1778105976897227520,,,,,,,0.02626470662653446,1,-0.07433506846427917,1,0.04402992501854897,1,0.0446595586836338,1,-0.003223695559427142,1,0.001200009370222688,1,3,1,0.1766966134309769,1,0.1565292179584503,1,9.803808212280273,1
1778105976899134720,-0.01415274478495121,-0.01279781945049763,-0.9967151880264282,-0.0001452939759474248,-0.00012510824308265,-0.009965104050934315,,,,,,,,,,,,,,,,,,,,
1778105976907337984,,,,,,,0.01862176507711411,1,-0.08865536749362946,1,0.04923709481954575,1,0.03813486546278,1,-0.003280501579865813,1,-0.0003475550038274378,1,3,1,0.1770548075437546,1,0.1603631675243378,1,9.803740501403809,1
1778105976909053440,-0.01438731607049704,-0.01444218307733536,-0.9960924386978149,-0.0001463564403820783,-0.0001610281033208594,-0.009953489527106285,,,,,,,,,,,,,,,,,,,,
1778105976917615360,,,,,,,0.011767971329391,1,-0.1037027165293694,1,0.05653611198067665,1,0.02980468422174454,1,-0.001643308787606657,1,-0.000135819602292031,1,3,1,0.1772539764642715,1,0.1634325385093689,1,9.803686141967773,1
1778105976918952192,-0.01458855345845222,-0.01689925417304039,-0.9953763484954834,-0.0001483824453316629,-0.0001948519347934052,-0.009946217760443687,,,,,,,,,,,,,,,,,,,,
1778105976927872768,,,,,,,0.002275942824780941,1,-0.1160143241286278,1,0.04766708984971046,1,0.02165447175502777,1,-0.0005291132256388664,1,-0.0002612387470435351,1,3,1,0.1772748827934265,1,0.165676012635231,1,9.803647994995117,1
1778105976928831488,-0.0148592796176672,-0.01933588832616806,-0.9953085780143738,-0.0001514356699772179,-0.0002203699987148866,-0.009950960054993629,,,,,,,,,,,,,,,,,,,,
1778105976938109696,,,,,,,-0.006122521590441465,1,-0.1127175316214561,1,0.03061551600694656,1,0.01490024477243423,1,0.0002776845649350435,1,2.769554703263566e-05,1,3,1,0.1772969663143158,1,0.1671820282936096,1,9.803622245788574,1
1778105976938691328,-0.01500668562948704,-0.02114313095808029,-0.9954056739807129,-0.0001513861934654415,-0.0002301599743077531,-0.009955503046512604,,,,,,,,,,,,,,,,,,,,
1778105976948326144,,,,,,,-0.01559540629386902,1,-0.09971052408218384,1,0.03053604811429977,1,0.008000240661203861,1,0.001704739523120224,1,-0.0006500168237835169,1,3,1,0.1771608889102936,1,0.1680643707513809,1,9.803608894348145,1
1778105976948531456,-0.01530973613262177,-0.02282246947288513,-0.9952318072319031,-0.0001559829979669303,-0.0002456943038851023,-0.009951215237379074,,,,,,,,,,,,,,,,,,,,
1778105976958351872,-0.01611355878412724,-0.02472047321498394,-0.9946936368942261,-0.0001695649261819199,-0.000266782590188086,-0.00994101632386446,,,,,,,,,,,,,,,,,,,,
1778105976958522368,,,,,,,-0.02520135976374149,1,-0.07849150151014328,1,0.04581023380160332,1,0.001252173678949475,1,0.001753147807903588,1,-0.002658437937498093,1,3,1,0.1770059168338776,1,0.1682663112878799,1,9.803608894348145,1
1778105976968527360,-0.01683816127479076,-0.02665108442306519,-0.9939426183700562,-0.0001770726958056912,-0.0002870664757210761,-0.009930649772286415,,,,,,,,,,,,,,,,,,,,
1778105976968698368,,,,,,,-0.03141915798187256,1,-0.05374843627214432,1,0.0422651506960392,1,-0.003576969262212515,1,0.002980137011036277,1,-0.003287505591288209,1,3,1,0.1767077296972275,1,0.1679507195949554,1,9.803619384765625,1
1778105976978682880,-0.01782309822738171,-0.02824109792709351,-0.9948413372039795,-0.0001897848269436508,-0.0003002199809998274,-0.00995674729347229,,,,,,,,,,,,,,,,,,,,
1778105976978854144,,,,,,,-0.02849979512393475,1,-0.03027269616723061,1,0.03460261598229408,1,-0.005479645915329456,1,0.002900824416428804,1,-0.00290672411210835,1,3,1,0.1763787716627121,1,0.1674044877290726,1,9.803634643554688,1
1778105976988818176,-0.01869096234440804,-0.02816896885633469,-0.9965755939483643,-0.0001975088525796309,-0.0002809418947435915,-0.009986064396798611,,,,,,,,,,,,,,,,,,,,
1778105976988989952,,,,,,,-0.02531568519771099,1,-0.01250690035521984,1,0.03642331063747406,1,-0.00375209585763514,1,0.0005740378401242197,1,-0.002139110583811998,1,3,1,0.1762898117303848,1,0.1670143157243729,1,9.803643226623535,1
1778105976998933248,-0.01965968310832977,-0.02704007178544998,-0.9965804219245911,-0.0002076872042380273,-0.000258376298006624,-0.009967904537916183,,,,,,,,,,,,,,,,,,,,
1778105976999105536,,,,,,,-0.02975436858832836,1,-0.01193759310990572,1,0.05526934936642647,1,0.0001983319962164387,1,-0.001187917776405811,1,-0.001043726573698223,1,3,1,0.1764622330665588,1,0.1669807583093643,1,9.803640365600586,1
1778105977009028352,-0.02063337527215481,-0.02500542253255844,-0.9950208067893982,-0.00021719305368606,-0.0002268623502459377,-0.009932111948728561,,,,,,,,,,,,,,,,,,,,
1778105977009201408,,,,,,,-0.03404473885893822,1,-0.02910714782774448,1,0.06878536194562912,1,-0.0004482747754082084,1,-0.001061572111211717,1,-0.001326183089986444,1,3,1,0.1765327304601669,1,0.1669227778911591,1,9.803640365600586,1
1778105977019103488,-0.02125292271375656,-0.02254636958241463,-0.9953814744949341,-0.0002205515484092757,-0.0001975147606572136,-0.009956176392734051,,,,,,,,,,,,,,,,,,,,
1778105977019277312,,,,,,,-0.02497317455708981,1,-0.05648399889469147,1,0.03798802196979523,1,0.0007951672305352986,1,-0.002954447874799371,1,2.274545840919018e-05,1,3,1,0.1767581552267075,1,0.166985422372818,1,9.803634643554688,1
1778105977029158656,-0.02093185856938362,-0.02016480639576912,-0.9961631298065186,-0.0002074123040074483,-0.0001739986328175291,-0.009971059858798981,,,,,,,,,,,,,,,,,,,,
1778105977029332992,,,,,,,-0.01080411672592163,1,-0.09885745495557785,1,0.005968343000859022,1,-0.0009366529993712902,1,-0.006292490288615227,1,0.002508305478841066,1,3,1,0.1773078590631485,1,0.1669452041387558,1,9.80362606048584,1
1778105977039193856,-0.02058584056794643,-0.01833810843527317,-0.995978057384491,-0.0002021895488724113,-0.0001609259779797867,-0.009957666508853436,,,,,,,,,,,,,,,,,,,,
1778105977039368960,,,,,,,-0.01334489695727825,1,-0.1394131630659103,1,0.01326343137770891,1,-0.006760420277714729,1,-0.005236799828708172,1,0.005351124797016382,1,3,1,0.1778516620397568,1,0.166401669383049,1,9.803625106811523,1
1778105977049209344,-0.0210315864533186,-0.01826298236846924,-0.994056761264801,-0.0002178046124754474,-0.0001806580112315714,-0.009919029660522938,,,,,,,,,,,,,,,,,,,,
1778105977049384960,,,,,,,-0.02303524315357208,1,-0.1619244664907455,1,0.04530864208936691,1,-0.01666161045432091,1,-0.0002873171179089695,1,0.005146752577275038,1,3,1,0.1779292076826096,1,0.164909616112709,1,9.803648948669434,1
1778105977059204864,-0.02146909758448601,-0.020003542304039,-0.992678701877594,-0.0002203894546255469,-0.0002174737164750695,-0.009908995591104031,,,,,,,,,,,,,,,,,,,,
1778105977059380992,,,,,,,-0.03184602782130241,1,-0.1574498862028122,1,0.0363132543861866,1,-0.03487395495176315,1,0.005933732725679874,1,0.002948477165773511,1,3,1,0.1773899644613266,1,0.161724254488945,1,9.803711891174316,1
1778105977069180672,-0.02055049501359463,-0.02278999611735344,-0.995819091796875,-0.0001956265041371807,-0.0002579276042524725,-0.009991582483053207,,,,,,,,,,,,,,,,,,,,
1778105977069357056,,,,,,,-0.03186506405472755,1,-0.126732125878334,1,0.02799515426158905,1,-0.05245866253972054,1,0.003906235797330737,1,0.003283965401351452,1,3,1,0.1774715781211853,1,0.1582338958978653,1,9.803767204284668,1
1778105977079136768,-0.01912850141525269,-0.02710964530706406,-0.9990837574005127,-0.0001737054990371689,-0.0003192757139913738,-0.01003055367618799,,,,,,,,,,,,,,,,,,,,
1778105977079313408,,,,,,,-0.04561051353812218,1,-0.08235116302967072,1,0.0634969100356102,1,-0.07174179702997208,1,0.006098473444581032,1,0.004702848847955465,1,3,1,0.1769339144229889,1,0.1513760983943939,1,9.803885459899902,1
1778105977089072896,-0.0194275863468647,-0.03123072534799576,-0.9983394145965576,-0.0001951755257323384,-0.0003600983181968331,-0.009978943504393101,,,,,,,,,,,,,,,,,,,,
1778105977089250048,,,,,,,-0.05609329789876938,1,-0.03164975717663765,1,0.09591101855039597,1,-0.08775537461042404,1,0.01045681815594435,1,0.006224603392183781,1,3,1,0.1759396642446518,1,0.1429352164268494,1,9.80402946472168,1
1778105977098989568,-0.02045071125030518,-0.0334673784673214,-0.995072066783905,-0.0002165280748158693,-0.0003628968843258917,-0.00991164892911911,,,,,,,,,,,,,,,,,,,,
1778105977099348224,,,,,,,-0.04075329378247261,1,0.02610736154019833,1,0.04742738977074623,1,-0.09080688655376434,1,0.01178613863885403,1,0.005769478622823954,1,3,1,0.1747347563505173,1,0.1339243352413177,1,9.804178237915039,1
1778105977108886528,-0.0213550329208374,-0.0328652448952198,-0.9959916472434998,-0.0002243608323624358,-0.0003246549749746919,-0.009965445846319199,,,,,,,,,,,,,,,,,,,,
1778105977109607168,,,,,,,-0.01221184805035591,1,0.07650527358055115,1,-0.01123816706240177,1,-0.07530470192432404,1,0.006817106157541275,1,0.003744994290173054,1,3,1,0.1739636808633804,1,0.1262433677911758,1,9.804294586181641,1
1778105977118763776,-0.02135065570473671,-0.02950108237564564,-0.9968438744544983,-0.0002108842163579538,-0.0002589993819128722,-0.009984750300645828,,,,,,,,,,,,,,,,,,,,
1778105977119846144,,,,,,,0.005328651983290911,1,0.1030064076185226,1,-0.007853509858250618,1,-0.04934783652424812,1,-7.237528916448355e-05,1,0.001907656551338732,1,3,1,0.1738809943199158,1,0.1210315153002739,1,9.804361343383789,1
1778105977128621056,-0.02273653633892536,-0.02458789944648743,-0.9932303428649902,-0.0002424349659122527,-0.0001945439435075969,-0.009894415736198425,,,,,,,,,,,,,,,,,,,,
1778105977130064640,,,,,,,0.01049412228167057,1,0.1065621450543404,1,0.03367260098457336,1,-0.02629919536411762,1,-0.002714581787586212,1,0.001146674272604287,1,3,1,0.1741591691970825,1,0.1181779950857162,1,9.804390907287598,1
1778105977138459392,-0.02375882677733898,-0.01884313859045506,-0.9899348616600037,-0.0002507833414711058,-0.0001272084045922384,-0.009858499281108379,,,,,,,,,,,,,,,,,,,,
1778105977140263168,,,,,,,0.0175907164812088,1,0.09160633385181427,1,0.06614518910646439,1,-0.01360544003546238,1,-0.002622941974550486,1,0.002597473096102476,1,3,1,0.1744264960289001,1,0.1167965978384018,1,9.804403305053711,1
1778105977148459008,-0.02211523987352848,-0.01222595293074846,-0.9948911070823669,-0.0002042383421212435,-5.059991963207722e-05,-0.009999792091548443,,,,,,,,,,,,,,,,,,,,
1778105977150441216,,,,,,,0.02885265275835991,1,0.07120897620916367,1,0.0528717115521431,1,-0.008264750242233276,1,-0.004609132651239634,1,0.006556444801390171,1,3,1,0.1748636811971664,1,0.1159911900758743,1,9.804405212402344,1
1778105977158619648,-0.01911607943475246,-0.006303132977336645,-1.000886082649231,-0.0001587466394994408,1.453260097150633e-06,-0.01008041296154261,,,,,,,,,,,,,,,,,,,,
1778105977160599296,,,,,,,0.03571364656090736,1,0.03944161161780357,1,0.04352656751871109,1,-0.01057156454771757,1,-0.005912722088396549,1,0.0102275786921382,1,3,1,0.1754386276006699,1,0.1150220707058907,1,9.80440616607666,1
1778105977168760832,-0.01726247183978558,-0.002883461304008961,-1.00055193901062,-0.0001499297941336408,1.016216083371546e-05,-0.01000584755092859,,,,,,,,,,,,,,,,,,,,
1778105977170736896,,,,,,,0.03042984567582607,1,0.0002977359108626842,1,0.05718407779932022,1,-0.02015773393213749,1,-0.002982461592182517,1,0.0104428855702281,1,3,1,0.1758225858211517,1,0.1131867095828056,1,9.804420471191406,1
1778105977178881536,-0.01670912466943264,-0.001956323394551873,-0.9963254332542419,-0.0001602576376171783,-8.073508070083335e-06,-0.009915455244481564,,,,,,,,,,,,,,,,,,,,
1778105977180854272,,,,,,,0.02379972115159035,1,-0.03439859300851822,1,0.05014919489622116,1,-0.03314098715782166,1,0.003584387945011258,1,0.009474550373852253,1,3,1,0.1755765080451965,1,0.1101597249507904,1,9.804459571838379,1
1778105977188982528,-0.01598392985761166,-0.003088264726102352,-0.9930192828178406,-0.0001510304136900231,-4.346945570432581e-05,-0.009888838976621628,,,,,,,,,,,,,,,,,,,,
1778105977190952448,,,,,,,0.0235321894288063,1,-0.04247718304395676,1,0.01267791632562876,1,-0.04195041581988335,1,0.005440651904791594,1,0.0085515221580863,1,3,1,0.1750558763742447,1,0.1060891002416611,1,9.804513931274414,1
1778105977199063296,-0.01485096849501133,-0.004908223636448383,-0.9943758845329285,-0.0001355011772830039,-6.936569116078317e-05,-0.009957613423466682,,,,,,,,,,,,,,,,,,,,
1778105977201030912,,,,,,,0.01835430599749088,1,-0.02755022048950195,1,-8.859863737598062e-05,1,-0.0460466742515564,1,0.004297835752367973,1,0.009571745060384274,1,3,1,0.1746452152729034,1,0.101626493036747,1,9.804568290710449,1
1778105977209124096,-0.0141842570155859,-0.007966461591422558,-0.9953304529190063,-0.0001324987970292568,-0.0001147042203228921,-0.009965828619897366,,,,,,,,,,,,,,,,,,,,
1778105977211089152,,,,,,,0.00477862311527133,1,0.002427363302558661,1,0.0305670965462923,1,-0.0521758645772934,1,0.00389897869899869,1,0.0116328252479434,1,3,1,0.1742975562810898,1,0.09656871110200882,1,9.804625511169434,1
1778105977219164672,-0.01476463302969933,-0.0117925712838769,-0.9939391016960144,-0.0001540941739222035,-0.0001623543648747727,-0.009923924691975117,,,,,,,,,,,,,,,,,,,,
1778105977229185280,-0.01546432636678219,-0.0151237016543746,-0.9946584701538086,-0.0001627951278351247,-0.0001927054690895602,-0.009950271807610989,,,,,,,,,,,,,,,,,,,,
1778105977239186432,-0.01548321917653084,-0.01566140726208687,-0.9984828233718872,-0.000155094952788204,-0.0001670080528128892,-0.01002797111868858,,,,,,,,,,,,,,,,,,,,
1778105977242790912,,,,,,,-0.0003642585943453014,1,0.03487776219844818,1,0.06398084759712219,1,-0.05707931518554688,1,0.005387184210121632,1,0.01233702898025513,1,3,1,0.1737551540136337,1,0.09098704904317856,1,9.804688453674316,1
1778105977249168384,-0.01598486490547657,-0.01378306653350592,-0.9997891187667847,-0.0001651757920626551,-0.0001213971772813238,-0.01001610141247511,,,,,,,,,,,,,,,,,,,,
1778105977252766208,,,,,,,0.01154053490608931,1,0.05840670317411423,1,0.05324726551771164,1,-0.05355257913470268,1,0.005231762304902077,1,0.00974460132420063,1,3,1,0.1731626987457275,1,0.08559253811836243,1,9.804747581481934,1
1778105977259130368,-0.01733799278736115,-0.010308638215065,-0.9966681599617004,-0.0001885067904368043,-6.656837649643421e-05,-0.009934094734489918,,,,,,,,,,,,,,,,,,,,
1778105977262721536,,,,,,,0.04401420056819916,1,0.061344925314188,1,0.01502946205437183,1,-0.04050838202238083,1,-0.000172954925801605,1,0.008906957693397999,1,3,1,0.1730809062719345,1,0.08139713108539581,1,9.804784774780273,1
1778105977269072640,-0.01782354526221752,-0.006521740462630987,-0.9932665824890137,-0.0001851891574915498,-2.452190710755531e-05,-0.009891836903989315,,,,,,,,,,,,,,,,,,,,
1778105977272657152,,,,,,,0.06736021488904953,1,0.04517356306314468,1,-0.001071007223799825,1,-0.0251796692609787,1,-0.0058582560159266,1,0.01188270375132561,1,3,1,0.1736419647932053,1,0.07865946739912033,1,9.804797172546387,1
1778105977278995456,-0.01656054891645908,-0.003604273311793804,-0.9943668842315674,-0.0001537083589937538,-4.105395873921225e-06,-0.0099521204829216,,,,,,,,,,,,,,,,,,,,
1778105977282572800,,,,,,,0.07284058630466461,1,0.01698029786348343,1,0.04949558526277542,1,-0.01746059581637383,1,-0.005744544789195061,1,0.01630069874227047,1,3,1,0.1742480397224426,1,0.07687630504369736,1,9.804800033569336,1
1778105977288898304,-0.01320810616016388,-0.002802275819703937,-0.9982693791389465,-9.426767064724118e-05,-1.808325760066509e-05,-0.01002693083137274,,,,,,,,,,,,,,,,,,,,
1778105977292468992,,,,,,,0.06899210065603256,1,-0.006964292377233505,1,0.07914999127388,1,-0.02085682190954685,1,-0.0008895138162188232,1,0.01884971000254154,1,3,1,0.173773854970932,1,0.07356023043394089,1,9.804834365844727,1
1778105977298781440,-0.01082052197307348,-0.004022649955004454,-0.9999151229858398,-7.98004402895458e-05,-5.394580875872634e-05,-0.01002309285104275,,,,,,,,,,,,,,,,,,,,
1778105977302532352,,,,,,,0.05960070714354515,1,-0.02567349188029766,1,0.0685998871922493,1,-0.03424599394202232,1,0.002821468748152256,1,0.01705797202885151,1,3,1,0.1735454797744751,1,0.07040612399578094,1,9.804861068725586,1
1778105977308644864,-0.01028691977262497,-0.006568527780473232,-0.9947611689567566,-9.491226228419691e-05,-9.522575419396162e-05,-0.009891623631119728,,,,,,,,,,,,,,,,,,,,
1778105977312762112,,,,,,,0.03979554399847984,1,-0.03148078545928001,1,0.06032057106494904,1,-0.05143992230296135,1,0.005290718283504248,1,0.01490554492920637,1,3,1,0.1730711907148361,1,0.06557244807481766,1,9.804903030395508,1
1778105977318489088,-0.01069057919085026,-0.008704979903995991,-0.9917396306991577,-0.0001104167604353279,-0.0001126096613006666,-0.009878130629658699,,,,,,,,,,,,,,,,,,,,
1778105977322971648,,,,,,,0.02024082280695438,1,-0.02381881698966026,1,0.0591735877096653,1,-0.06553569436073303,1,0.008554853498935699,1,0.01230371557176113,1,3,1,0.172290101647377,1,0.05920567736029625,1,9.804957389831543,1
1778105977328313600,-0.01164040341973305,-0.01030534319579601,-0.9928179383277893,-0.0001276961993426085,-0.0001244430168299004,-0.009938009083271027,,,,,,,,,,,,,,,,,,,,
1778105977333161472,,,,,,,0.01378767192363739,1,-0.003819702425971627,1,0.02576019614934921,1,-0.07149369269609451,1,0.01032405532896519,1,0.01103497017174959,1,3,1,0.1712767630815506,1,0.05216509848833084,1,9.805015563964844,1
1778105977338492160,-0.01363807078450918,-0.01053701899945736,-0.993665337562561,-0.0001583956909598783,-0.0001113575635827146,-0.009947816841304302,,,,,,,,,,,,,,,,,,,,
1778105977343330816,,,,,,,0.03250456973910332,1,0.02652385085821152,1,-0.01604537479579449,1,-0.06354892253875732,1,0.006646005436778069,1,0.01129956915974617,1,3,1,0.1705169975757599,1,0.04574157670140266,1,9.805060386657715,1
1778105977348650240,-0.01559017319232225,-0.009288867004215717,-0.9937862753868103,-0.0001790567621355876,-8.279544272227213e-05,-0.009937096387147903,,,,,,,,,,,,,,,,,,,,
1778105977353479680,,,,,,,0.06013543903827667,1,0.05169007554650307,1,-0.03521386533975601,1,-0.04382678866386414,1,-0.000799469300545752,1,0.01100159995257854,1,3,1,0.1704694479703903,1,0.04111991450190544,1,9.805082321166992,1
1778105977358788352,-0.01618125662207603,-0.006678155157715082,-0.9971983432769775,-0.0001702422596281394,-4.094000541954301e-05,-0.01000835746526718,,,,,,,,,,,,,,,,,,,,
1778105977363608320,,,,,,,0.07892607897520065,1,0.06438644975423813,1,-0.001913733780384064,1,-0.02114741131663322,1,-0.005623453296720982,1,0.009899954311549664,1,3,1,0.170976385474205,1,0.03869089484214783,1,9.805083274841309,1
1778105977368906496,-0.01419339142739773,-0.002958272118121386,-1.001466393470764,-0.0001213072173413821,1.059229452948784e-05,-0.01006453111767769,,,,,,,,,,,,,,,,,,,,
1778105977373717248,,,,,,,0.08089891076087952,1,0.06348439306020737,1,0.07592512667179108,1,-0.002623375505208969,1,-0.003744267392903566,1,0.00740714929997921,1,3,1,0.1714120656251907,1,0.03829586505889893,1,9.805076599121094,1
1778105977379004160,-0.01131631154567003,0.0002007262955885381,-1.003425359725952,-8.033707126742229e-05,3.684488910948858e-05,-0.01005926821380854,,,,,,,,,,,,,,,,,,,,
1778105977383806208,,,,,,,0.07893094420433044,1,0.05365974083542824,1,0.1018854230642319,1,0.007686570752412081,1,-0.001770848059095442,1,0.006183923222124577,1,3,1,0.1716279238462448,1,0.03896807879209518,1,9.805070877075195,1
1778105977389081856,-0.009383171796798706,0.001972341444343328,-1.000032305717468,-7.069144339766353e-05,3.933527113986202e-05,-0.009968848899006844,,,,,,,,,,,,,,,,,,,,
1778105977393875200,,,,,,,0.07440346479415894,1,0.03991411253809929,1,0.08325712382793427,1,0.006978899240493774,1,-0.002571298275142908,1,0.005454289261251688,1,3,1,0.1718804389238358,1,0.03970732167363167,1,9.805063247680664,1
1778105977399139840,-0.009197247214615345,0.002191753359511495,-0.9920961260795593,-8.894329948816448e-05,2.518492328817956e-05,-0.009828285314142704,,,,,,,,,,,,,,,,,,,,
1778105977403924224,,,,,,,0.05984562635421753,1,0.03585352376103401,1,0.07205230742692947,1,0.001877671107649803,1,-0.00173097662627697,1,0.006161866243928671,1,3,1,0.1721074432134628,1,0.03996559605002403,1,9.805058479309082,1
1778105977409177600,-0.009419833309948444,0.001345803029835224,-0.9894493222236633,-9.699107613414526e-05,4.640240149456076e-06,-0.009858725592494011,,,,,,,,,,,,,,,,,,,,
1778105977413953024,,,,,,,0.04947995021939278,1,0.04207580164074898,1,0.04899897426366806,1,-0.009148389101028442,1,0.002013129880651832,1,0.006849172525107861,1,3,1,0.1719933599233627,1,0.03918043151497841,1,9.805063247680664,1
1778105977419195904,-0.009903241880238056,-8.178511052392423e-06,-0.9913486838340759,-0.0001043742086039856,-1.609681567060761e-05,-0.009932820685207844,,,,,,,,,,,,,,,,,,,,
1778105977423961856,,,,,,,0.05724825710058212,1,0.05794704332947731,1,-0.01169588789343834,1,-0.01696731708943844,1,0.003726327558979392,1,0.006974742747843266,1,3,1,0.1716151535511017,1,0.03753923997282982,1,9.805076599121094,1
1778105977429194240,-0.01141182612627745,-0.000418130133766681,-0.992490828037262,-0.0001304313482251018,-9.078204129764345e-06,-0.009939515963196754,,,,,,,,,,,,,,,,,,,,
1778105977433950976,,,,,,,0.07385781407356262,1,0.06883174180984497,1,-0.03933466225862503,1,-0.02138344757258892,1,0.002005078364163637,1,0.005754589568823576,1,3,1,0.1713465601205826,1,0.03541748598217964,1,9.805088996887207,1
1778105977439172608,-0.01248387806117535,0.0002340055216336623,-0.9948413968086243,-0.0001376944856019691,8.230294952227268e-06,-0.00997090432792902,,,,,,,,,,,,,,,,,,,,
1778105977443920384,,,,,,,0.09188517183065414,1,0.06376314163208008,1,-0.01092751882970333,1,-0.0194151047617197,1,-0.0001339308364549652,1,0.005583776626735926,1,3,1,0.1713544875383377,1,0.03344699740409851,1,9.805095672607422,1
1778105977449131008,-0.01168525591492653,0.00192439800594002,-1.001030921936035,-0.0001091934245778248,3.77853648387827e-05,-0.01008080132305622,,,,,,,,,,,,,,,,,,,,
1778105977453869824,,,,,,,0.09841317683458328,1,0.04192985966801643,1,0.0527484156191349,1,-0.01388636883348227,1,0.0001852111890912056,1,0.006556507665663958,1,3,1,0.1714220941066742,1,0.03200507164001465,1,9.805099487304688,1
1778105977459069440,-0.009971753694117069,0.003164618276059628,-1.003850102424622,-8.000697562238201e-05,4.570103192236274e-05,-0.01007580012083054,,,,,,,,,,,,,,,,,,,,
1778105977463799808,,,,,,,0.1041413471102715,1,0.02232475206255913,1,0.09236413240432739,1,-0.005356155801564455,1,0.001411923323757946,1,0.007773997727781534,1,3,1,0.1712798625230789,1,0.03133254125714302,1,9.80510425567627,1
1778105977468988672,-0.00811914075165987,0.002814677311107516,-1.000954389572144,-5.96269455854781e-05,2.458216295053717e-05,-0.009980591014027596,,,,,,,,,,,,,,,,,,,,
1778105977473709824,,,,,,,0.1043852269649506,1,0.01883494481444359,1,0.09648411720991135,1,0.003007067367434502,1,-0.001665014657191932,1,0.00925232470035553,1,3,1,0.1714028716087341,1,0.0314861387014389,1,9.80510139465332,1
1778105977478887936,-0.007449795957654715,0.0007567541906610131,-0.9944619536399841,-6.640114588662982e-05,-1.575430542288814e-05,-0.009870701469480991,,,,,,,,,,,,,,,,,,,,
1778105977483600128,,,,,,,0.09668851643800735,1,0.03316377103328705,1,0.07775422185659409,1,0.01254575606435537,1,0.001193270902149379,1,0.008737959899008274,1,3,1,0.1712819188833237,1,0.03263309970498085,1,9.805099487304688,1
1778105977488768000,-0.00685945013538003,-0.001103880465961993,-0.9904229044914246,-6.145942461444065e-05,-3.297830699011683e-05,-0.009854050353169441,,,,,,,,,,,,,,,,,,,,
1778105977493658112,,,,,,,0.1048679128289223,1,0.04528948664665222,1,0.03957626223564148,1,0.01689282059669495,1,-0.0001771156094036996,1,0.006499048322439194,1,3,1,0.1695554703474045,1,0.03299736976623535,1,9.80512809753418,1
1778105977498628352,-0.006830460857599974,-0.001376228407025337,-0.9900031089782715,-6.127764936536551e-05,-1.915746724989731e-05,-0.009893258102238178,,,,,,,,,,,,,,,,,,,,
1778105977503883776,,,,,,,0.1041339635848999,1,0.07306892424821854,1,0.003371149767190218,1,0.02245471812784672,1,-0.004182370379567146,1,0.006138517986983061,1,3,1,0.1701099276542664,1,0.03505675494670868,1,9.805111885070801,1
1778105977508468736,-0.00761386938393116,9.464862523600459e-05,-0.9919131398200989,-8.48011186462827e-05,1.458053338865284e-05,-0.009941583499312401,,,,,,,,,,,,,,,,,,,,
1778105977514088960,,,,,,,0.09062641859054565,1,0.06875661015510559,1,0.07956619560718536,1,0.01967460475862026,1,-0.01104212366044521,1,0.008272746577858925,1,3,1,0.1711852997541428,1,0.03704593330621719,1,9.805086135864258,1
1778105977518289664,-0.006721942219883204,0.00130618829280138,-0.9958071708679199,-6.032444071024656e-05,2.513810250093229e-05,-0.009992443025112152,,,,,,,,,,,,,,,,,,,,
1778105977524273664,,,,,,,0.1135229244828224,1,0.05723048746585846,1,0.03701458871364594,1,0.01188637502491474,1,-0.005472638178616762,1,0.00783880241215229,1,3,1,0.1713215112686157,1,0.03821955248713493,1,9.805078506469727,1
1778105977528466176,-0.006757056806236506,0.004060469102114439,-0.9994994401931763,-7.288303459063172e-05,7.571426249342039e-05,-0.01004495844244957,,,,,,,,,,,,,,,,,,,,
1778105977534437888,,,,,,,0.1727871894836426,1,0.03021466732025146,1,-0.1102272346615791,1,0.007788753136992455,1,-0.002504234667867422,1,0.00612362939864397,1,3,1,0.1717984527349472,1,0.03929335623979568,1,9.805066108703613,1
1778105977538622208,-0.008150241337716579,0.003478804836049676,-0.9917289018630981,-9.200154454447329e-05,2.712497371248901e-05,-0.009834118187427521,,,,,,,,,,,,,,,,,,,,
1778105977544582400,,,,,,,0.332808792591095,1,0.05684443935751915,1,-0.1349456310272217,1,0.03480416163802147,1,-0.01732102036476135,1,0.003747966140508652,1,3,1,0.173054426908493,1,0.04252663254737854,1,9.805030822753906,1
1778105977548757760,-0.005842308979481459,0.002158337505534291,-0.9960669279098511,-3.381554415682331e-05,1.103825525206048e-06,-0.01001501455903053,,,,,,,,,,,,,,,,,,,,
1778105977554706688,,,,,,,0.4053252041339874,1,0.04117429256439209,1,-0.09136539697647095,1,0.04104455560445786,1,-0.01664558053016663,1,-0.004503857810050249,1,3,1,0.1747428178787231,1,0.04654761403799057,1,9.80498218536377,1
1778105977558873344,0.0001628514146432281,-0.0007326645427383482,-1.011080145835876,8.900553802959621e-05,-3.830341302091256e-05,-0.01025755144655704,,,,,,,,,,,,,,,,,,,,
1778105977564810752,,,,,,,0.4725527763366699,1,0.04189292341470718,1,0.002414984628558159,1,0.04852741211652756,1,-0.01101081911474466,1,-0.009197776205837727,1,3,1,0.1758698970079422,1,0.05167218297719955,1,9.804936408996582,1
1778105977568968704,0.01642808876931667,0.001811902620829642,-1.013599038124084,0.0003598323673941195,5.546891406993382e-05,-0.0101975854486227,,,,,,,,,,,,,,,,,,,,
1778105977574894592,,,,,,,0.5541054606437683,1,0.1132702007889748,1,0.08496235311031342,1,0.05165957659482956,1,-0.003333713859319687,1,-0.009519708342850208,1,3,1,0.1759759932756424,1,0.05653144791722298,1,9.80490779876709,1
1778105977579044352,0.02370967902243137,-5.923717981204391e-05,-1.009152054786682,0.0003119897155556828,-3.537934389896691e-05,-0.01002633851021528,,,,,,,,,,,,,,,,,,,,
1778105977584958720,,,,,,,0.5845234394073486,1,0.1699870526790619,1,0.1429200917482376,1,0.05309030786156654,1,0.004812750034034252,1,-0.006942424457520247,1,3,1,0.1756657212972641,1,0.06179432570934296,1,9.804882049560547,1
1778105977589099776,0.03044242970645428,-0.0003574091824702919,-0.9995852708816528,0.0003918921865988523,-4.734901040137629e-07,-0.009902795776724815,,,,,,,,,,,,,,,,,,,,
1778105977595002880,,,,,,,0.6115555167198181,1,0.198555201292038,1,0.1491393893957138,1,0.06179878488183022,1,-0.0004570749006234109,1,-0.005496338475495577,1,3,1,0.1756864488124847,1,0.06772150844335556,1,9.804841995239258,1
1778105977599134976,0.03867175057530403,0.006498015485703945,-0.9911642074584961,0.0004786901117768139,0.0001459209743188694,-0.009806465357542038,,,,,,,,,,,,,,,,,,,,
1778105977605026816,,,,,,,0.625257670879364,1,0.1773362308740616,1,0.09976972639560699,1,0.07373495399951935,1,-0.003498030593618751,1,-0.01145370863378048,1,3,1,0.1759603023529053,1,0.07459715008735657,1,9.804787635803223,1
1778105977609150208,0.04172545671463013,0.01180879306048155,-0.98525071144104,0.0004436410672497004,0.0001766146015143022,-0.009770138189196587,,,,,,,,,,,,,,,,,,,,
1778105977615030784,,,,,,,0.6628835797309875,1,0.1056926995515823,1,0.02872573211789131,1,0.1063491255044937,1,-0.01427045371383429,1,-0.01908797957003117,1,3,1,0.1771511882543564,1,0.08454782515764236,1,9.804685592651367,1
1778105977619145984,0.0444670096039772,0.01420610677450895,-0.9846132397651672,0.0004767199279740453,0.0001770683447830379,-0.009834960103034973,,,,,,,,,,,,,,,,,,,,
1778105977625014784,,,,,,,0.7205876708030701,1,0.004626354202628136,1,-0.1015013307332993,1,0.150622233748436,1,-0.02588244341313839,1,-0.02294717915356159,1,3,1,0.1794942766427994,1,0.09877106547355652,1,9.804510116577148,1
1778105977629121792,0.04584846645593643,0.01146352663636208,-0.9896436333656311,0.0004716512630693614,8.628569776192307e-05,-0.009951066225767136,,,,,,,,,,,,,,,,,,,,
1778105977634978816,,,,,,,0.7702267169952393,1,-0.1127558127045631,1,-0.1125371530652046,1,0.1603660583496094,1,-0.0181909091770649,1,-0.01767130196094513,1,3,1,0.1813199818134308,1,0.1147801131010056,1,9.804302215576172,1
1778105977639077632,0.04964210838079453,0.003443166147917509,-0.9968820810317993,0.0005420440575107932,-4.848663957091048e-05,-0.0100491875782609,,,,,,,,,,,,,,,,,,,,
1778105977644923136,,,,,,,0.7741448879241943,1,-0.1587062031030655,1,-0.0961277186870575,1,0.1765042841434479,1,-0.02648750133812428,1,-0.01552462391555309,1,3,1,0.1842775940895081,1,0.1320976167917252,1,9.804028511047363,1
1778105977649013504,0.05541513487696648,-0.00783043447881937,-1.010151386260986,0.0006239777430891991,-0.0001962275709956884,-0.01025795843452215,,,,,,,,,,,,,,,,,,,,
1778105977654848000,,,,,,,0.7688976526260376,1,-0.1909864991903305,1,0.08367941528558731,1,0.1398493647575378,1,-0.01685930788516998,1,-0.01015888806432486,1,3,1,0.1859365850687027,1,0.1465568840503693,1,9.803791999816895,1
1778105977658929664,0.06031305715441704,-0.02105878666043282,-1.011261940002441,0.0006415827083401382,-0.000372163049178198,-0.01012709457427263,,,,,,,,,,,,,,,,,,,,
1778105977664752896,,,,,,,0.7475450038909912,1,-0.1485780775547028,1,0.1629355251789093,1,0.09487565606832504,1,-0.001420966349542141,1,-0.004853162448853254,1,3,1,0.1860801130533218,1,0.1563393175601959,1,9.803637504577637,1
1778105977668825856,0.06050584837794304,-0.02720231562852859,-1.00956928730011,0.0006182176293805242,-0.0003268572618253529,-0.01009401399642229,,,,,,,,,,,,,,,,,,,,
1778105977674638336,,,,,,,0.7122581601142883,1,-0.1426612883806229,1,0.1796991676092148,1,0.03237393125891685,1,0.006069582886993885,1,-0.002640870166942477,1,3,1,0.1856666803359985,1,0.1605010777711868,1,9.80357837677002,1
1778105977678702848,0.05976103991270065,-0.03203413635492325,-0.9912115335464478,0.0005993128870613873,-0.000372697482816875,-0.009700256399810314,,,,,,,,,,,,,,,,,,,,
1778105977684687616,,,,,,,0.6910304427146912,1,-0.1040642559528351,1,0.08752788603305817,1,0.002661285689100623,1,0.004976562689989805,1,-0.003671311540529132,1,3,1,0.1850151568651199,1,0.1608452200889587,1,9.803585052490234,1
1778105977688560128,0.05743300542235374,-0.02908566780388355,-0.9831086993217468,0.0005432692705653608,-0.0002549150376580656,-0.009740618988871574,,,,,,,,,,,,,,,,,,,,
1778105977694899968,,,,,,,0.6466627717018127,1,-0.1237492486834526,1,0.06226346641778946,1,-0.01863446272909641,1,0.004834378603845835,1,-0.006078631151467562,1,3,1,0.1843209117650986,1,0.158769354224205,1,9.803631782531738,1
1778105977698397696,0.05376028642058372,-0.02954048477113247,-0.9813831448554993,0.0004967499407939613,-0.0003008942003361881,-0.009774606674909592,,,,,,,,,,,,,,,,,,,,
1778105977705091840,,,,,,,0.6234341859817505,1,-0.1380918473005295,1,-0.05784901604056358,1,-0.01578185334801674,1,0.006208248902112246,1,-0.004794653039425611,1,3,1,0.183656632900238,1,0.1570209562778473,1,9.803672790527344,1
1778105977708399360,0.05158839374780655,-0.02624585852026939,-0.9907727241516113,0.0004929003771394491,-0.0002175900008296594,-0.01002461556345224,,,,,,,,,,,,,,,,,,,,
1778105977715263488,,,,,,,0.6175677180290222,1,-0.1650366336107254,1,-0.1512736827135086,1,-0.006384777370840311,1,-0.002011321717873216,1,0.0005554934032261372,1,3,1,0.1837885230779648,1,0.1562948375940323,1,9.803682327270508,1
1778105977718564096,0.04708902537822723,-0.02854941785335541,-0.9933453798294067,0.0004198349779471755,-0.0003112659032922238,-0.009955386631190777,,,,,,,,,,,,,,,,,,,,
1778105977725414912,,,,,,,0.6063535213470459,1,-0.1688858717679977,1,-0.1286711543798447,1,0.005333397537469864,1,-0.01166962925344706,1,0.006684326566755772,1,3,1,0.1848264187574387,1,0.1566922813653946,1,9.803655624389648,1
1778105977728708352,0.04476534947752953,-0.03007735498249531,-1.005593538284302,0.0004167273291386664,-0.0003187945985700935,-0.01019433699548244,,,,,,,,,,,,,,,,,,,,
1778105977735546880,,,,,,,0.5926228165626526,1,-0.1746399849653244,1,-0.02647065743803978,1,0.003768411464989185,1,-0.01467147003859282,1,0.009373942390084267,1,3,1,0.1862956136465073,1,0.1572019308805466,1,9.803620338439941,1
1778105977738832640,0.04420209303498268,-0.03280916810035706,-1.015121459960938,0.0004381190228741616,-0.0003616103786043823,-0.01026682928204536,,,,,,,,,,,,,,,,,,,,
1778105977745658368,,,,,,,0.5882352590560913,1,-0.1780622154474258,1,0.0852983295917511,1,-0.006152264773845673,1,-0.008293247781693935,1,0.01068605296313763,1,3,1,0.187221348285675,1,0.1567792296409607,1,9.803608894348145,1
1778105977748936960,0.04304731637239456,-0.03318951651453972,-1.012816786766052,0.0004209263424854726,-0.0003350069164298475,-0.0101154949516058,,,,,,,,,,,,,,,,,,,,
1778105977755749632,,,,,,,0.59724360704422,1,-0.1827024668455124,1,0.1568596810102463,1,-0.02068967372179031,1,-0.004267815500497818,1,0.01243680808693171,1,3,1,0.1877680867910385,1,0.1549063473939896,1,9.803628921508789,1
1778105977759021824,0.0415772907435894,-0.03379802405834198,-1.00239372253418,0.0004006822709925473,-0.0003450744261499494,-0.009906737133860588,,,,,,,,,,,,,,,,,,,,
1778105977765820672,,,,,,,0.601462721824646,1,-0.1872936636209488,1,0.1489429771900177,1,-0.03351948410272598,1,-0.001794605050235987,1,0.0133504755795002,1,3,1,0.187997505068779,1,0.1517477482557297,1,9.80367374420166,1
1778105977769086464,0.04103571549057961,-0.03415839746594429,-0.9909944534301758,0.0003989204415120184,-0.0003452247474342585,-0.009778439998626709,,,,,,,,,,,,,,,,,,,,
1778105977775872000,,,,,,,0.5991551876068115,1,-0.1832055747509003,1,0.0974586233496666,1,-0.04950906336307526,1,-5.982312723062932e-05,1,0.01461631990969181,1,3,1,0.1880495995283127,1,0.1470331996679306,1,9.803744316101074,1
1778105977779130880,0.04187081381678581,-0.03457816690206528,-0.983696460723877,0.0004259975103195757,-0.0003523672348819673,-0.0097441291436553,,,,,,,,,,,,,,,,,,,,
1778105977785903360,,,,,,,0.5934835076332092,1,-0.1692869663238525,1,0.06933332979679108,1,-0.06297515332698822,1,0.003385599469766021,1,0.01339225098490715,1,3,1,0.1877698302268982,1,0.1410537213087082,1,9.803837776184082,1
1778105977789155328,0.04224073886871338,-0.03489334508776665,-0.9845049977302551,0.0004306446353439242,-0.0003549554385244846,-0.009851180016994476,,,,,,,,,,,,,,,,,,,,
1778105977795914752,,,,,,,0.5812468528747559,1,-0.1393115222454071,1,0.0225176177918911,1,-0.07200074195861816,1,0.006587496493011713,1,0.01410223171114922,1,3,1,0.1872149109840393,1,0.1339721828699112,1,9.803947448730469,1
1778105977799159808,0.04196735471487045,-0.03420381620526314,-0.9897584319114685,0.0004200433322694153,-0.0003366079181432724,-0.009958767332136631,,,,,,,,,,,,,,,,,,,,
1778105977805906176,,,,,,,0.5667435526847839,1,-0.115553505718708,1,0.0157231017947197,1,-0.07821965217590332,1,0.008133614435791969,1,0.01088894065469503,1,3,1,0.1865221709012985,1,0.1263091713190079,1,9.804062843322754,1
1778105977809144576,0.04137440770864487,-0.03238184750080109,-0.992632269859314,0.0004032770521007478,-0.0003053411492146552,-0.009958210401237011,,,,,,,,,,,,,,,,,,,,
1778105977815877888,,,,,,,0.5456340312957764,1,-0.08917582780122757,1,0.04787713661789894,1,-0.07703932374715805,1,0.008730476722121239,1,0.009747350588440895,1,3,1,0.1857170015573502,1,0.1185957789421082,1,9.804174423217773,1
1778105977819109376,0.04013874009251595,-0.02879301644861698,-0.9974141716957092,0.000382819416699931,-0.0002524267765693367,-0.01002745423465967,,,,,,,,,,,,,,,,,,,,
1778105977825829888,,,,,,,0.5239532589912415,1,-0.06381082534790039,1,0.08402825146913528,1,-0.0743095725774765,1,0.007626408711075783,1,0.008532022126019001,1,3,1,0.184913381934166,1,0.1112279370427132,1,9.804275512695312,1
1778105977829054464,0.0386962965130806,-0.02573544718325138,-0.998116672039032,0.0003697866050060838,-0.0002266454248456284,-0.009992181323468685,,,,,,,,,,,,,,,,,,,,
1778105977835761920,,,,,,,0.5001688003540039,1,-0.036191426217556,1,0.08821413666009903,1,-0.06700402498245239,1,0.008078699000179768,1,0.01028377003967762,1,3,1,0.1840754598379135,1,0.1045114025473595,1,9.804365158081055,1
1778105977838979584,0.03660029545426369,-0.02233825623989105,-0.9948484301567078,0.0003461483574938029,-0.0001883434597402811,-0.009918658062815666,,,,,,,,,,,,,,,,,,,,
1778105977845674240,,,,,,,0.4649289548397064,1,-0.01428348943591118,1,0.08488956093788147,1,-0.06100860610604286,1,0.008114528842270374,1,0.01058557070791721,1,3,1,0.1832944452762604,1,0.09840167313814163,1,9.804443359375,1
1778105977848885504,0.03445971757173538,-0.01901950314640999,-0.9911726713180542,0.0003248840221203864,-0.0001568249281262979,-0.009868839755654335,,,,,,,,,,,,,,,,,,,,
1778105977855566592,,,,,,,0.4404729604721069,1,-0.003609328996390104,1,0.04660893604159355,1,-0.05309241265058517,1,0.006813058629631996,1,0.00761693948879838,1,3,1,0.182623103260994,1,0.09309643507003784,1,9.804507255554199,1
1778105977858771456,0.03211011737585068,-0.01547827664762735,-0.9907559156417847,0.0002943343133665621,-0.0001174171702587046,-0.009902967140078545,,,,,,,,,,,,,,,,,,,,
1778105977865439744,,,,,,,0.4201253652572632,1,-0.0006230083527043462,1,0.004114564042538404,1,-0.04595465585589409,1,0.006575739476829767,1,0.002713360358029604,1,3,1,0.1819450855255127,1,0.08845710009336472,1,9.804562568664551,1
1778105977868637696,0.02859432995319366,-0.01255513727664948,-0.9911043047904968,0.0002455477660987526,-9.660364594310522e-05,-0.009913170710206032,,,,,,,,,,,,,,,,,,,,
1778105977875665408,,,,,,,0.3770477473735809,1,-0.02287072688341141,1,0.01037085056304932,1,-0.04406064748764038,1,0.008125612512230873,1,3.109127283096313e-05,1,3,1,0.1812092661857605,1,0.08416768908500671,1,9.804614067077637,1
1778105977878484224,0.02617651969194412,-0.01083026733249426,-0.9950161576271057,0.0002357681951252744,-9.003913146443665e-05,-0.009992538020014763,,,,,,,,,,,,,,,,,,,,
1778105977885870848,,,,,,,0.3578075170516968,1,-0.0532769113779068,1,-0.02405014261603355,1,-0.05273293703794479,1,0.009109482169151306,1,-0.0003896917623933405,1,3,1,0.1802646964788437,1,0.0790892094373703,1,9.80467414855957,1
1778105977888311552,0.02417453937232494,-0.009950888343155384,-0.9993566870689392,0.0002165789337595925,-8.979872654890642e-05,-0.01004772633314133,,,,,,,,,,,,,,,,,,,,
1778105977896056064,,,,,,,0.3455580770969391,1,-0.06600248068571091,1,0.002435197588056326,1,-0.06285451352596283,1,0.00905060488730669,1,0.001714983023703098,1,3,1,0.1790751069784164,1,0.07420755922794342,1,9.804734230041504,1
1778105977898491136,0.01985272206366062,-0.01170407142490149,-0.9987251162528992,0.000148065053508617,-0.0001371544494759291,-0.009983332827687263,,,,,,,,,,,,,,,,,,,,
1778105977906220800,,,,,,,0.3256989419460297,1,-0.07163874059915543,1,0.06644593179225922,1,-0.07531751692295074,1,0.009879400953650475,1,0.006391538772732019,1,3,1,0.1781613528728485,1,0.06695954501628876,1,9.804802894592285,1
1778105977908650752,0.01797171495854855,-0.01430557854473591,-1.002241253852844,0.0001604976132512093,-0.0001752779935486615,-0.01006342470645905,,,,,,,,,,,,,,,,,,,,
1778105977916365312,,,,,,,0.3136176764965057,1,-0.06207072362303734,1,0.07993242889642715,1,-0.08519734442234039,1,0.009986558929085732,1,0.00899785291403532,1,3,1,0.1772405058145523,1,0.05867991968989372,1,9.804872512817383,1
1778105977918790400,0.01681822165846825,-0.01510614901781082,-0.9995465278625488,0.0001513833994977176,-0.0001628831960260868,-0.00997497420758009,,,,,,,,,,,,,,,,,,,,
1778105977926490112,,,,,,,0.32166987657547,1,-0.02509142644703388,1,0.04532935470342636,1,-0.08820214122533798,1,0.01104108709841967,1,0.005991893820464611,1,3,1,0.1761167496442795,1,0.04994272068142891,1,9.804941177368164,1
1778105977928909568,0.01488981395959854,-0.01511381566524506,-0.993025541305542,0.000126167040434666,-0.0001560997770866379,-0.009852271527051926,,,,,,,,,,,,,,,,,,,,
1778105977936594432,,,,,,,0.3349264860153198,1,0.006518259644508362,1,0.01771374419331551,1,-0.07791005820035934,1,0.004336840473115444,1,0.001446970389224589,1,3,1,0.1755992919206619,1,0.04217828437685966,1,9.804986953735352,1
1778105977939008768,0.01375348586589098,-0.01346226129680872,-0.991657018661499,0.0001241246791323647,-0.000121010874863714,-0.009898820891976357,,,,,,,,,,,,,,,,,,,,
1778105977946678784,,,,,,,0.3402238786220551,1,0.02759565226733685,1,-0.03418708592653275,1,-0.06298788636922836,1,0.0004858917673118412,1,-0.001422545639798045,1,3,1,0.1754940152168274,1,0.03576264157891273,1,9.805014610290527,1
1778105977949088256,0.01467654388397932,-0.008922114968299866,-0.9951925277709961,0.0001576463255332783,-4.246693788445555e-05,-0.009992308914661407,,,,,,,,,,,,,,,,,,,,
1778105977956742912,,,,,,,0.3427694439888,1,0.0300738736987114,1,-0.01688523218035698,1,-0.04602065309882164,1,-0.00504557928070426,1,-0.001850997214205563,1,3,1,0.175962820649147,1,0.03101767227053642,1,9.805022239685059,1
1778105977959147520,0.0161210410296917,-0.004898634739220142,-0.9980148077011108,0.0001788733497960493,-4.062535936100176e-06,-0.0100095784291625,,,,,,,,,,,,,,,,,,,,
1778105977966787840,,,,,,,0.3284946084022522,1,0.007653121836483479,1,0.03840546682476997,1,-0.03202812373638153,1,-0.006683140993118286,1,-0.0004890883574262261,1,3,1,0.1766533851623535,1,0.02775415033102036,1,9.805019378662109,1
1778105977969186816,0.01672307029366493,-0.001987887313589454,-1.003312110900879,0.0001721329754218459,1.027557118504774e-05,-0.01009269617497921,,,,,,,,,,,,,,,,,,,,
1778105977976813056,,,,,,,0.3405654430389404,1,-0.0182771235704422,1,-0.04576528444886208,1,-0.02805815637111664,1,-0.009202778339385986,1,0.0005310701671987772,1,3,1,0.17738176882267,1,0.02500790171325207,1,9.805013656616211,1
1778105977979205888,0.01700484752655029,-0.001069353311322629,-1.001551270484924,0.0001767481880960986,-2.181922127419966e-06,-0.01000708993524313,,,,,,,,,,,,,,,,,,,,
1778105977986818560,,,,,,,0.3620783984661102,1,-0.03370308130979538,1,-0.07551209628582001,1,-0.0251846332103014,1,-0.01425483729690313,1,0.0005715600564144552,1,3,1,0.1786950081586838,1,0.02251369878649712,1,9.804995536804199,1
1778105977989206016,0.01553151197731495,-0.002816480817273259,-0.9959151148796082,0.000136307833599858,-4.752670793095604e-05,-0.009887003339827061,,,,,,,,,,,,,,,,,,,,
1778105977996803840,,,,,,,0.3453575074672699,1,-0.06449848413467407,1,0.04776522517204285,1,-0.03517364710569382,1,-0.01083876937627792,1,0.0002796282933559269,1,3,1,0.180005818605423,1,0.01932761818170547,1,9.804978370666504,1
1778105977999186176,0.01672330498695374,-0.005033752880990505,-1.004499077796936,0.0001810692192520946,-7.714686216786504e-05,-0.01013451348990202,,,,,,,,,,,,,,,,,,,,
1778105978006769152,,,,,,,0.3349498510360718,1,-0.08740388602018356,1,0.08023664355278015,1,-0.0602281466126442,1,-0.001039206283167005,1,-0.0002983404556289315,1,3,1,0.1803110688924789,1,0.01378261391073465,1,9.80498218536377,1
1778105978009146880,0.01884442754089832,-0.006253103725612164,-1.007532238960266,0.0002082602877635509,-7.547381392214447e-05,-0.01012241002172232,,,,,,,,,,,,,,,,,,,,
1778105978016714752,,,,,,,0.3167414963245392,1,-0.08794339746236801,1,0.09846210479736328,1,-0.08785545080900192,1,0.002506882883608341,1,0.0002506598830223083,1,3,1,0.1800928860902786,1,0.005501425825059414,1,9.804994583129883,1
1778105978019087616,0.01703201420605183,-0.009072717279195786,-0.9949604868888855,0.0001482839725213125,-0.0001227450411533937,-0.009802944026887417,,,,,,,,,,,,,,,,,,,,
1778105978026640640,,,,,,,0.3009144365787506,1,-0.07015766948461533,1,0.1641641110181808,1,-0.1051691249012947,1,0.006292145233601332,1,0.003138791304081678,1,3,1,0.1794380694627762,1,-0.004667401779443026,1,9.805006980895996,1
1778105978029008384,0.0158794317394495,-0.01102388743311167,-0.9916485548019409,0.0001485918182879686,-0.000137311770231463,-0.009873709641396999,,,,,,,,,,,,,,,,,,,,
1778105978036547072,,,,,,,0.2980990409851074,1,-0.03579233586788177,1,0.1394810676574707,1,-0.1179201826453209,1,0.01136607024818659,1,0.004787730518728495,1,3,1,0.1782579720020294,1,-0.01615975983440876,1,9.80501651763916,1
1778105978038909440,0.01397753227502108,-0.01053548511117697,-0.9897902011871338,0.0001232101349160075,-0.0001053038577083498,-0.009884483180940151,,,,,,,,,,,,,,,,,,,,
1778105978046433536,,,,,,,0.2930281460285187,1,0.02817948162555695,1,0.08368312567472458,1,-0.1095294132828712,1,0.01057309843599796,1,0.0043281065300107,1,3,1,0.1772194057703018,1,-0.02712426148355007,1,9.805010795593262,1
1778105978048790784,0.01236244384199381,-0.007983632385730743,-0.9830911159515381,0.0001071769002010114,-5.53378886252176e-05,-0.009756174869835377,,,,,,,,,,,,,,,,,,,,
1778105978056486656,,,,,,,0.2895013093948364,1,0.08927754312753677,1,0.03316451981663704,1,-0.08667658269405365,1,0.008768649771809578,1,-0.000785893527790904,1,3,1,0.1763604581356049,1,-0.03606118634343147,1,9.804997444152832,1
1778105978058652672,0.01211990509182215,-0.003566019237041473,-0.9856089353561401,0.0001159251623903401,6.782588570786174e-06,-0.009871946647763252,,,,,,,,,,,,,,,,,,,,
1778105978066706176,,,,,,,0.2963026463985443,1,0.1390780210494995,1,-0.04566595703363419,1,-0.05530592426657677,1,0.003695949679240584,1,-0.004314223304390907,1,3,1,0.1759699136018753,1,-0.04199999198317528,1,9.804981231689453,1
1778105978068495104,0.01167743653059006,0.003982233814895153,-0.9912991523742676,0.0001061790389940143,0.0001208194007631391,-0.009975455701351166,,,,,,,,,,,,,,,,,,,,
1778105978076905216,,,,,,,0.3003778457641602,1,0.1526648253202438,1,-0.08894527703523636,1,-0.02251578867435455,1,-0.001727228634990752,1,-0.005326040554791689,1,3,1,0.176118403673172,1,-0.04455579072237015,1,9.804966926574707,1
1778105978078317568,0.01140169613063335,0.01122937072068453,-0.9964504241943359,0.0001049697893904522,0.0001939994690474123,-0.01001906488090754,,,,,,,,,,,,,,,,,,,,
1778105978087084800,,,,,,,0.28044393658638,1,0.1339793354272842,1,-0.06595280766487122,1,-0.00305732456035912,1,-0.005866097752004862,1,-0.004693558439612389,1,3,1,0.1767386645078659,1,-0.04507936909794807,1,9.804953575134277,1
1778105978088493568,0.01216943189501762,0.01719498820602894,-1.004487872123718,0.0001319922739639878,0.0002395229967078194,-0.01013591978698969,,,,,,,,,,,,,,,,,,,,
1778105978097243904,,,,,,,0.2768124639987946,1,0.08774087578058243,1,-0.03345800936222076,1,0.003672391176223755,1,-0.004807233344763517,1,-0.005780947394669056,1,3,1,0.176740288734436,1,-0.04507219791412354,1,9.804953575134277,1
1778105978098649088,0.01262839045375586,0.01924222894012928,-1.008899927139282,0.0001315957924816757,0.0002189956867368892,-0.01014782954007387,,,,,,,,,,,,,,,,,,,,
1778105978107382528,,,,,,,0.2566111385822296,1,0.03757765144109726,1,0.01919152215123177,1,3.052351530641317e-05,1,-0.002302099717780948,1,-0.005370349157601595,1,3,1,0.1770245730876923,1,-0.04493425413966179,1,9.804948806762695,1
1778105978108785152,0.01059788931161165,0.01775442436337471,-1.006554245948792,8.786158286966383e-05,0.0001609479659236968,-0.01004586927592754,,,,,,,,,,,,,,,,,,,,
1778105978117501184,,,,,,,0.242921456694603,1,-0.01365693099796772,1,0.1014715358614922,1,-0.02014798671007156,1,0.001857242314144969,1,-0.004582694731652737,1,3,1,0.1768761724233627,1,-0.04651405289769173,1,9.804944038391113,1
1778105978118900736,0.01021942123770714,0.01327106170356274,-1.003239870071411,9.985545329982415e-05,8.220889867516235e-05,-0.009996665641665459,,,,,,,,,,,,,,,,,,,,
1778105978127599872,,,,,,,0.2244797199964523,1,-0.03263482078909874,1,0.1350094377994537,1,-0.04565234109759331,1,0.01037449762225151,1,-0.003585405880585313,1,3,1,0.1760204881429672,1,-0.0506647452712059,1,9.804939270019531,1
1778105978128996352,0.008143425919115543,0.008273324929177761,-0.9978704452514648,5.630392843158916e-05,2.555088758526836e-05,-0.009922260418534279,,,,,,,,,,,,,,,,,,,,
1778105978137678592,,,,,,,0.2154376953840256,1,-0.04112467542290688,1,0.1430778354406357,1,-0.06543067097663879,1,0.01221024245023727,1,-0.0009373810607939959,1,3,1,0.1747326403856277,1,-0.05688342824578285,1,9.804927825927734,1
1778105978139071488,0.006738023366779089,0.003147435840219259,-0.9894797205924988,5.577659976552241e-05,-3.039742841792759e-05,-0.009797952137887478,,,,,,,,,,,,,,,,,,,,
1778105978149127168,0.004876020830124617,0.001411740900948644,-0.9860592484474182,2.377008786424994e-05,-8.551673090551049e-06,-0.009817386977374554,,,,,,,,,,,,,,,,,,,,
1778105978159162624,0.004021334461867809,0.0009083094191737473,-0.9852359294891357,3.691307210829109e-05,4.697960775956744e-08,-0.009841607883572578,,,,,,,,,,,,,,,,,,,,
1778105978169178112,0.00391834694892168,0.003596385242417455,-0.995208740234375,3.195372482878156e-05,6.05607419856824e-05,-0.01005510427057743,,,,,,,,,,,,,,,,,,,,
1778105978179173888,0.001959552522748709,0.009236855432391167,-1.007743239402771,-2.130066377503681e-06,0.0001510271104052663,-0.01022401545196772,,,,,,,,,,,,,,,,,,,,
